Channel1	Channel2	Channel3	Channel4	Channel5	Channel6	Channel7	Channel8	FilteredChannel1	FilteredChannel2	FilteredChannel3	FilteredChannel4	FilteredChannel5	FilteredChannel6	FilteredChannel7	FilteredChannel8	GyroX	GyroY	GyroZ	AccX	AccY	AccZ	PPG1	PPG2	rawPPG1	rawPPG2	rawPPG3	Hr	Hrv	Battery	Trigger	PhysicalTrigger	AutoTrigger	NumMeasurements	Timestamp
-3290.175000	-14269.995000	-3112.695000	10478.970000	-4490.820000	-2093.265000	7427.250000	-3305.250000	3.083960	6.763817	6.164503	7.462691	10.077974	11.367528	12.409652	16.491419	-3.692920	6.546540	-3.128300	0.716429	0.672545	0.137573	-1.000000	-1.000000	-1.000000	-1.000000	-1.000000	-1.000000	-1.000000	78.068966	0.000000	-1.000000	-1.000000	1547520.000000	1770064591.551759
-3281.130000	-14255.145000	-3098.745000	10489.545000	-4485.510000	-2094.570000	7434.360000	-3292.200000	-7.579887	-3.566281	-3.051779	2.286964	-0.819855	-2.595878	-1.098503	10.680349	-0.473060	5.951400	-0.335720	0.713011	0.670653	0.136718	-1.000000	-1.000000	-1.000000	-1.000000	-1.000000	-1.000000	-1.000000	78.068966	0.000000	-1.000000	-1.000000	1547521.000000	1770064591.559956
-3276.405000	-14249.970000	-3094.245000	10496.925000	-4473.990000	-2082.870000	7445.295000	-3281.715000	-12.881486	-10.058568	-8.724604	-0.406153	-9.195112	-13.958745	-13.665887	1.977269	-0.473060	5.951400	-0.335720	0.713011	0.670653	0.136718	-1.000000	-1.000000	-1.000000	-1.000000	-1.000000	-1.000000	-1.000000	78.068966	0.000000	-1.000000	-1.000000	1547522.000000	1770064591.559966
-3266.235000	-14236.560000	-3082.500000	10504.125000	-4458.735000	-2056.950000	7463.970000	-3282.570000	-11.008732	-9.964514	-8.320084	-1.054510	-11.338850	-16.761749	-17.492545	-5.896154	-0.473060	5.951400	-0.335720	0.713011	0.670653	0.136718	-1.000000	-1.000000	-1.000000	-1.000000	-1.000000	-1.000000	-1.000000	78.068966	0.000000	-1.000000	-1.000000	1547523.000000	1770064591.559976
-3252.825000	-14227.830000	-3083.580000	10494.585000	-4468.095000	-2058.975000	7469.955000	-3279.915000	-3.577048	-3.890186	-2.773181	-0.335687	-6.994076	-10.033396	-10.591982	-9.769235	-0.473060	5.951400	-0.335720	0.713011	0.670653	0.136718	-1.000000	-1.000000	-1.000000	-1.000000	-1.000000	-1.000000	-1.000000	78.068966	0.000000	-1.000000	-1.000000	1547524.000000	1770064591.559981
-3249.945000	-14227.335000	-3078.405000	10497.195000	-4474.800000	-2068.875000	7465.140000	-3257.145000	5.777710	4.507428	4.236634	0.711192	-0.063181	0.827824	1.071289	-7.421225	-0.473060	5.951400	-0.335720	0.713011	0.670653	0.136718	-1.000000	-1.000000	-1.000000	-1.000000	-1.000000	-1.000000	-1.000000	78.068966	0.000000	-1.000000	-1.000000	1547525.000000	1770064591.566278
-3259.890000	-14236.290000	-3072.150000	10500.210000	-4472.280000	-2074.455000	7442.820000	-3240.180000	13.059340	10.634315	9.110313	1.411041	4.920571	8.537094	8.597263	1.040869	-0.473060	5.951400	-0.335720	0.713011	0.670653	0.136718	-1.000000	-1.000000	-1.000000	-1.000000	-1.000000	-1.000000	-1.000000	78.068966	0.000000	-1.000000	-1.000000	1547526.000000	1770064591.566287
-3267.180000	-14236.470000	-3077.640000	10498.545000	-4473.180000	-2075.040000	7426.395000	-3233.340000	13.848232	10.633490	9.447441	0.997229	5.753853	9.394785	7.458695	10.630681	-0.473060	5.951400	-0.335720	0.713011	0.670653	0.136718	-1.000000	-1.000000	-1.000000	-1.000000	-1.000000	-1.000000	-1.000000	78.068966	0.000000	-1.000000	-1.000000	1547527.000000	1770064591.567815
-3253.545000	-14226.345000	-3083.535000	10502.055000	-4470.075000	-2067.030000	7456.095000	-3255.615000	6.502881	4.265761	4.639043	-1.657877	2.752280	4.749557	0.966727	14.138756	-0.473060	5.951400	-0.335720	0.713011	0.670653	0.136718	-1.000000	-1.000000	-1.000000	-1.000000	-1.000000	-1.000000	-1.000000	78.068966	0.000000	-1.000000	-1.000000	1547528.000000	1770064591.567825
-3223.800000	-14200.245000	-3048.390000	10529.685000	-4444.155000	-2048.130000	7438.410000	-3288.105000	-4.315465	-4.040371	-2.912594	-5.929710	-1.774210	-1.012693	-3.816343	7.776178	-0.473060	5.951400	-0.335720	0.713011	0.670653	0.136718	-1.000000	-1.000000	-1.000000	-1.000000	-1.000000	-1.000000	-1.000000	78.068966	0.000000	-1.000000	-1.000000	1547529.000000	1770064591.580670
-3123.270000	-14093.415000	-2946.645000	10627.245000	-4349.295000	-1968.930000	7495.695000	-3216.150000	-10.190407	-7.806868	-7.389018	-7.609659	-3.592241	-2.979733	-3.087303	-5.246696	-0.473060	5.951400	-0.335720	0.713011	0.670653	0.136718	-1.000000	-1.000000	-1.000000	-1.000000	-1.000000	-1.000000	-1.000000	78.068966	0.000000	-1.000000	-1.000000	1547530.000000	1770064591.580751
-3106.935000	-14070.555000	-2924.460000	10640.745000	-4330.215000	-1949.310000	7565.895000	-3062.340000	-5.873231	-2.934801	-3.595177	-2.242968	0.835300	1.243696	3.099576	-13.836723	-4.227020	5.188400	-0.824040	0.710875	0.677855	0.133728	-1.000000	-1.000000	-1.000000	-1.000000	-1.000000	-1.000000	-1.000000	78.068966	0.000000	-1.000000	-1.000000	1547531.000000	1770064591.580847
-3260.205000	-14221.485000	-3063.690000	10508.175000	-4457.340000	-2058.795000	7476.390000	-3180.870000	2.483594	4.860618	3.959223	6.100760	7.066511	6.493246	10.776459	-9.564190	-4.227020	5.188400	-0.824040	0.710875	0.677855	0.133728	-1.000000	-1.000000	-1.000000	-1.000000	-1.000000	-1.000000	-1.000000	78.068966	0.000000	-1.000000	-1.000000	1547532.000000	1770064591.580902
-3366.990000	-14340.780000	-3195.360000	10390.500000	-4566.870000	-2147.850000	7432.515000	-3374.370000	0.058152	1.341566	1.481347	4.892313	3.370434	2.165527	10.892819	-1.973870	-4.227020	5.188400	-0.824040	0.710875	0.677855	0.133728	-1.000000	-1.000000	-1.000000	-1.000000	-1.000000	-1.000000	-1.000000	78.068966	0.000000	-1.000000	-1.000000	1547533.000000	1770064591.596037
-3358.305000	-14338.665000	-3210.390000	10368.630000	-4586.670000	-2166.210000	7432.155000	-3376.350000	-17.167071	-17.648964	-16.504312	-10.901970	-13.923567	-14.068374	-0.991654	-7.531711	-4.227020	5.188400	-0.824040	0.710875	0.677855	0.133728	-1.000000	-1.000000	-1.000000	-1.000000	-1.000000	-1.000000	-1.000000	78.068966	0.000000	-1.000000	-1.000000	1547534.000000	1770064591.596047
-3332.700000	-14301.045000	-3144.960000	10415.610000	-4547.430000	-2132.010000	7434.405000	-3326.670000	-33.470494	-36.097510	-35.558421	-28.657692	-31.706305	-29.670003	-16.375221	-23.273010	-4.227020	5.188400	-0.824040	0.710875	0.677855	0.133728	-1.000000	-1.000000	-1.000000	-1.000000	-1.000000	-1.000000	-1.000000	78.068966	0.000000	-1.000000	-1.000000	1547535.000000	1770064591.596059
-3308.940000	-14292.720000	-3135.915000	10427.085000	-4537.170000	-2121.885000	7425.945000	-3305.430000	-30.620207	-34.459042	-34.938860	-30.169816	-32.520279	-29.282875	-22.841245	-29.325343	-4.227020	5.188400	-0.824040	0.710875	0.677855	0.133728	-1.000000	-1.000000	-1.000000	-1.000000	-1.000000	-1.000000	-1.000000	78.068966	0.000000	-1.000000	-1.000000	1547536.000000	1770064591.596064
-3277.980000	-14265.405000	-3119.040000	10422.495000	-4517.145000	-2095.065000	7426.620000	-3288.555000	-6.377072	-9.805366	-9.809686	-10.782162	-12.107273	-9.893320	-16.361392	-13.562743	-4.227020	5.188400	-0.824040	0.710875	0.677855	0.133728	-1.000000	-1.000000	-1.000000	-1.000000	-1.000000	-1.000000	-1.000000	78.068966	0.000000	-1.000000	-1.000000	1547537.000000	1770064591.596070
-3252.240000	-14224.770000	-3086.865000	10463.715000	-4476.735000	-2058.030000	7447.095000	-3268.530000	25.028132	23.321903	24.441125	17.100741	17.599951	17.509913	-1.951508	16.892258	-4.227020	5.188400	-0.824040	0.710875	0.677855	0.133728	-1.000000	-1.000000	-1.000000	-1.000000	-1.000000	-1.000000	-1.000000	78.068966	0.000000	-1.000000	-1.000000	1547538.000000	1770064591.596075
-3207.420000	-14173.920000	-3025.170000	10547.055000	-4436.910000	-2047.455000	7456.635000	-3188.970000	44.993330	45.944063	47.124685	37.305314	39.359617	37.073865	11.734661	42.969469	-4.227020	5.188400	-0.824040	0.710875	0.677855	0.133728	-1.000000	-1.000000	-1.000000	-1.000000	-1.000000	-1.000000	-1.000000	78.068966	0.000000	-1.000000	-1.000000	1547539.000000	1770064591.596080
-3165.210000	-14145.930000	-2984.445000	10610.280000	-4382.775000	-2004.120000	7525.980000	-3160.170000	45.276090	48.710510	49.188034	43.660408	44.128498	39.586362	18.494695	49.067339	-4.227020	5.188400	-0.824040	0.710875	0.677855	0.133728	-1.000000	-1.000000	-1.000000	-1.000000	-1.000000	-1.000000	-1.000000	78.068966	0.000000	-1.000000	-1.000000	1547540.000000	1770064591.596085
-3224.205000	-14198.130000	-3044.115000	10531.620000	-4433.805000	-2032.425000	7497.630000	-3289.095000	32.209385	36.333670	36.477743	39.753815	35.633042	28.667477	19.256324	34.206482	-4.623780	4.104940	-1.617560	0.710325	0.677000	0.130249	-1.000000	-1.000000	-1.000000	-1.000000	-1.000000	-1.000000	-1.000000	78.068966	0.000000	-1.000000	-1.000000	1547541.000000	1770064591.596091
-3328.200000	-14320.125000	-3169.485000	10398.645000	-4553.640000	-2131.920000	7384.545000	-3289.905000	14.127534	16.890886	17.153491	27.036569	20.067302	12.596428	15.840980	9.420850	-4.623780	4.104940	-1.617560	0.710325	0.677000	0.130249	-1.000000	-1.000000	-1.000000	-1.000000	-1.000000	-1.000000	-1.000000	78.068966	0.000000	-1.000000	-1.000000	1547542.000000	1770064591.596096
-3330.945000	-14308.560000	-3154.950000	10416.960000	-4547.295000	-2130.795000	7394.670000	-3325.410000	-7.464506	-6.973234	-6.727020	2.902760	-1.651652	-5.582312	5.576670	-13.546290	-4.623780	4.104940	-1.617560	0.710325	0.677000	0.130249	-1.000000	-1.000000	-1.000000	-1.000000	-1.000000	-1.000000	-1.000000	78.068966	0.000000	-1.000000	-1.000000	1547543.000000	1770064591.599726
-3288.915000	-14250.195000	-3094.020000	10465.245000	-4495.860000	-2087.190000	7445.925000	-3283.695000	-29.329772	-30.379125	-30.813113	-26.932814	-25.454903	-23.029380	-8.936609	-28.956300	-4.623780	4.104940	-1.617560	0.710325	0.677000	0.130249	-1.000000	-1.000000	-1.000000	-1.000000	-1.000000	-1.000000	-1.000000	78.068966	0.000000	-1.000000	-1.000000	1547544.000000	1770064591.599735
-3237.165000	-14212.575000	-3056.760000	10497.240000	-4455.405000	-2052.675000	7469.145000	-3222.450000	-41.214986	-41.882809	-43.540056	-46.729604	-39.700907	-32.077574	-17.107561	-33.475883	-4.623780	4.104940	-1.617560	0.710325	0.677000	0.130249	-1.000000	-1.000000	-1.000000	-1.000000	-1.000000	-1.000000	-1.000000	78.068966	0.000000	-1.000000	-1.000000	1547545.000000	1770064591.603743
-3222.630000	-14210.820000	-3061.530000	10504.710000	-4453.965000	-2046.645000	7494.390000	-3319.605000	-35.790034	-35.183728	-37.592877	-45.420855	-36.524361	-27.826756	-12.888564	-26.010049	-4.623780	4.104940	-1.617560	0.710325	0.677000	0.130249	-1.000000	-1.000000	-1.000000	-1.000000	-1.000000	-1.000000	-1.000000	78.068966	0.000000	-1.000000	-1.000000	1547546.000000	1770064591.603750
-3288.420000	-14264.595000	-3115.260000	10456.515000	-4504.905000	-2090.745000	7480.260000	-3312.585000	-18.560677	-18.115397	-20.082907	-27.932555	-21.565486	-15.296411	-1.426283	-13.948089	-4.623780	4.104940	-1.617560	0.710325	0.677000	0.130249	-1.000000	-1.000000	-1.000000	-1.000000	-1.000000	-1.000000	-1.000000	78.068966	0.000000	-1.000000	-1.000000	1547547.000000	1770064591.610024
-3301.740000	-14284.575000	-3131.955000	10442.115000	-4525.470000	-2103.615000	7476.165000	-3321.810000	-3.423690	-4.933791	-5.716683	-9.952381	-8.118955	-4.672312	6.387386	-7.470254	-4.623780	4.104940	-1.617560	0.710325	0.677000	0.130249	-1.000000	-1.000000	-1.000000	-1.000000	-1.000000	-1.000000	-1.000000	78.068966	0.000000	-1.000000	-1.000000	1547548.000000	1770064591.610034
-3328.695000	-14308.155000	-3159.720000	10389.060000	-4554.540000	-2125.125000	7435.980000	-3316.050000	2.444069	-0.930598	-0.801051	-1.277852	-2.743875	-0.606046	3.681253	-6.482164	-4.623780	4.104940	-1.617560	0.710325	0.677000	0.130249	-1.000000	-1.000000	-1.000000	-1.000000	-1.000000	-1.000000	-1.000000	78.068966	0.000000	-1.000000	-1.000000	1547549.000000	1770064591.614066
-3337.155000	-14320.125000	-3177.990000	10351.980000	-4583.070000	-2146.500000	7413.480000	-3310.200000	5.035905	1.682560	2.009205	2.663404	0.182981	1.284694	-5.953593	-0.215340	-4.623780	4.104940	-1.617560	0.710325	0.677000	0.130249	-1.000000	-1.000000	-1.000000	-1.000000	-1.000000	-1.000000	-1.000000	78.068966	0.000000	-1.000000	-1.000000	1547550.000000	1770064591.614073
-3301.290000	-14293.080000	-3143.025000	10398.870000	-4545.090000	-2118.150000	7427.565000	-3301.650000	13.491442	12.157389	12.529503	12.098067	9.676259	7.938393	-11.539853	17.275701	-1.938020	3.250380	-1.831200	0.706358	0.673643	0.131103	-1.000000	-1.000000	-1.000000	-1.000000	-1.000000	-1.000000	-1.000000	78.068966	0.000000	-1.000000	-1.000000	1547551.000000	1770064591.615702
-3291.660000	-14280.840000	-3118.995000	10410.975000	-4534.740000	-2108.700000	7434.675000	-3291.615000	27.280233	28.258589	29.264497	28.241140	25.625188	19.617443	-6.384253	36.444804	-1.938020	3.250380	-1.831200	0.706358	0.673643	0.131103	-1.000000	-1.000000	-1.000000	-1.000000	-1.000000	-1.000000	-1.000000	78.068966	0.000000	-1.000000	-1.000000	1547552.000000	1770064591.615713
-3273.570000	-14247.585000	-3089.430000	10450.170000	-4522.590000	-2104.380000	7435.845000	-3285.540000	35.283392	37.323278	39.437971	40.078841	36.601637	27.620728	4.669119	41.659851	-1.938020	3.250380	-1.831200	0.706358	0.673643	0.131103	-1.000000	-1.000000	-1.000000	-1.000000	-1.000000	-1.000000	-1.000000	78.068966	0.000000	-1.000000	-1.000000	1547553.000000	1770064591.619664
-3276.810000	-14248.395000	-3106.035000	10471.455000	-4501.035000	-2099.880000	7434.495000	-3291.840000	27.377389	29.860719	32.493414	36.981716	31.929146	23.202605	11.819564	26.583826	-1.938020	3.250380	-1.831200	0.706358	0.673643	0.131103	-1.000000	-1.000000	-1.000000	-1.000000	-1.000000	-1.000000	-1.000000	78.068966	0.000000	-1.000000	-1.000000	1547554.000000	1770064591.619673
-3277.620000	-14259.240000	-3119.895000	10477.035000	-4476.420000	-2085.435000	7439.670000	-3290.715000	5.109705	8.305050	9.897892	19.225637	13.245038	7.315109	10.448178	-0.211611	-1.938020	3.250380	-1.831200	0.706358	0.673643	0.131103	-1.000000	-1.000000	-1.000000	-1.000000	-1.000000	-1.000000	-1.000000	78.068966	0.000000	-1.000000	-1.000000	1547555.000000	1770064591.623861
-3279.780000	-14265.945000	-3119.040000	10452.420000	-4494.510000	-2085.840000	7441.200000	-3289.005000	-19.116501	-16.105859	-16.681410	-4.786932	-8.229546	-10.243649	3.240176	-23.825811	-1.938020	3.250380	-1.831200	0.706358	0.673643	0.131103	-1.000000	-1.000000	-1.000000	-1.000000	-1.000000	-1.000000	-1.000000	78.068966	0.000000	-1.000000	-1.000000	1547556.000000	1770064591.623868
-3294.900000	-14271.120000	-3121.155000	10455.885000	-4515.255000	-2094.930000	7434.045000	-3295.800000	-32.246442	-31.274637	-33.602657	-25.094298	-22.554418	-19.915996	-4.067062	-35.052501	-1.938020	3.250380	-1.831200	0.706358	0.673643	0.131103	-1.000000	-1.000000	-1.000000	-1.000000	-1.000000	-1.000000	-1.000000	78.068966	0.000000	-1.000000	-1.000000	1547557.000000	1770064591.628812
-3278.790000	-14252.760000	-3098.070000	10482.120000	-4490.595000	-2083.815000	7436.430000	-3275.730000	-28.905693	-30.440326	-32.831650	-32.612161	-25.414682	-18.466789	-6.633760	-31.434277	-1.938020	3.250380	-1.831200	0.706358	0.673643	0.131103	-1.000000	-1.000000	-1.000000	-1.000000	-1.000000	-1.000000	-1.000000	78.068966	0.000000	-1.000000	-1.000000	1547558.000000	1770064591.628822
-3286.845000	-14244.165000	-3085.740000	10497.960000	-4470.390000	-2077.605000	7447.635000	-3281.850000	-12.400668	-14.769337	-15.353532	-22.828776	-16.289121	-8.123985	-2.328086	-15.358947	-1.938020	3.250380	-1.831200	0.706358	0.673643	0.131103	-1.000000	-1.000000	-1.000000	-1.000000	-1.000000	-1.000000	-1.000000	78.068966	0.000000	-1.000000	-1.000000	1547559.000000	1770064591.631756
-3290.670000	-14255.505000	-3098.970000	10478.970000	-4489.965000	-2092.230000	7443.045000	-3308.895000	6.863237	5.966221	7.717406	-2.976870	-0.822688	4.395011	5.972082	4.174223	-1.938020	3.250380	-1.831200	0.706358	0.673643	0.131103	-1.000000	-1.000000	-1.000000	-1.000000	-1.000000	-1.000000	-1.000000	78.068966	0.000000	-1.000000	-1.000000	1547560.000000	1770064591.631766
-3251.430000	-14247.540000	-3100.815000	10467.945000	-4505.895000	-2102.445000	7440.435000	-3273.840000	17.582818	18.225688	20.592739	10.917782	9.371519	10.213007	11.056067	16.189772	-3.464020	1.571780	-1.587040	0.706114	0.674498	0.131469	-1.000000	-1.000000	-1.000000	-1.000000	-1.000000	-1.000000	-1.000000	78.068966	0.000000	-1.000000	-1.000000	1547561.000000	1770064591.635726
-3277.440000	-14249.970000	-3100.815000	10469.340000	-4502.745000	-2103.165000	7423.470000	-3274.380000	15.604328	15.080337	15.609697	8.845732	6.859469	5.457373	7.738051	16.603727	-3.464020	1.571780	-1.587040	0.706114	0.674498	0.131469	-1.000000	-1.000000	-1.000000	-1.000000	-1.000000	-1.000000	-1.000000	78.068966	0.000000	-1.000000	-1.000000	1547562.000000	1770064591.635732
-3288.240000	-14255.190000	-3104.685000	10479.510000	-4487.580000	-2094.795000	7397.865000	-3248.820000	4.229949	1.039032	-0.726499	-4.942511	-4.677434	-5.259002	-2.828788	9.750550	-3.464020	1.571780	-1.587040	0.706114	0.674498	0.131469	-1.000000	-1.000000	-1.000000	-1.000000	-1.000000	-1.000000	-1.000000	78.068966	0.000000	-1.000000	-1.000000	1547563.000000	1770064591.640041
-3287.655000	-14246.055000	-3090.735000	10494.630000	-4472.370000	-2072.205000	7442.955000	-3284.865000	-9.011308	-12.694288	-14.875487	-17.427645	-14.774491	-13.186904	-14.096661	2.090435	-3.464020	1.571780	-1.587040	0.706114	0.674498	0.131469	-1.000000	-1.000000	-1.000000	-1.000000	-1.000000	-1.000000	-1.000000	78.068966	0.000000	-1.000000	-1.000000	1547564.000000	1770064591.640052
-3265.605000	-14241.870000	-3083.265000	10493.145000	-4478.265000	-2072.655000	7471.080000	-3305.430000	-15.511232	-16.628951	-17.295232	-17.937795	-14.869958	-12.146577	-17.608334	-4.066575	-3.464020	1.571780	-1.587040	0.706114	0.674498	0.131469	-1.000000	-1.000000	-1.000000	-1.000000	-1.000000	-1.000000	-1.000000	78.068966	0.000000	-1.000000	-1.000000	1547565.000000	1770064591.644444
-3264.930000	-14247.540000	-3092.715000	10480.860000	-4489.515000	-2084.580000	7457.985000	-3301.605000	-10.877976	-9.122616	-8.058577	-5.923569	-4.415133	-2.898114	-9.737807	-8.671937	-3.464020	1.571780	-1.587040	0.706114	0.674498	0.131469	-1.000000	-1.000000	-1.000000	-1.000000	-1.000000	-1.000000	-1.000000	78.068966	0.000000	-1.000000	-1.000000	1547566.000000	1770064591.644459
-3267.720000	-14246.820000	-3101.445000	10457.010000	-4497.570000	-2083.905000	7453.440000	-3278.880000	1.579572	3.814866	5.236267	9.980017	9.404280	8.180067	4.189537	-9.539595	-3.464020	1.571780	-1.587040	0.706114	0.674498	0.131469	-1.000000	-1.000000	-1.000000	-1.000000	-1.000000	-1.000000	-1.000000	78.068966	0.000000	-1.000000	-1.000000	1547567.000000	1770064591.651355
-3268.980000	-14246.505000	-3099.195000	10453.185000	-4490.145000	-2080.530000	7454.205000	-3273.705000	13.405567	13.951053	13.999672	19.560042	17.914803	14.673125	14.803000	-4.624240	-3.464020	1.571780	-1.587040	0.706114	0.674498	0.131469	-1.000000	-1.000000	-1.000000	-1.000000	-1.000000	-1.000000	-1.000000	78.068966	0.000000	-1.000000	-1.000000	1547568.000000	1770064591.651366
-3267.090000	-14234.895000	-3074.985000	10513.800000	-4453.740000	-2063.430000	7467.120000	-3270.330000	17.138299	16.243344	14.488882	19.247275	17.857048	14.256503	16.418295	4.042467	-3.464020	1.571780	-1.587040	0.706114	0.674498	0.131469	-1.000000	-1.000000	-1.000000	-1.000000	-1.000000	-1.000000	-1.000000	78.068966	0.000000	-1.000000	-1.000000	1547569.000000	1770064591.651783
-3243.645000	-14209.245000	-3050.145000	10541.700000	-4437.540000	-2043.855000	7461.405000	-3259.980000	10.991986	10.973749	9.013909	13.610092	12.373891	8.987460	9.851548	10.771026	-3.464020	1.571780	-1.587040	0.706114	0.674498	0.131469	-1.000000	-1.000000	-1.000000	-1.000000	-1.000000	-1.000000	-1.000000	78.068966	0.000000	-1.000000	-1.000000	1547570.000000	1770064591.651790
-3242.565000	-14210.415000	-3058.245000	10518.120000	-4445.100000	-2047.500000	7463.520000	-3251.790000	-0.154493	2.305941	2.177463	7.375881	5.227541	2.297873	0.123808	11.025165	-4.639040	1.205540	0.167860	0.706236	0.679075	0.131530	-1.000000	-1.000000	-1.000000	-1.000000	-1.000000	-1.000000	-1.000000	78.068966	0.000000	-1.000000	-1.000000	1547571.000000	1770064591.655901
-3270.645000	-14244.885000	-3093.390000	10467.945000	-4492.665000	-2085.300000	7442.595000	-3265.785000	-9.245528	-5.648238	-3.644573	-0.381300	-3.400873	-4.557426	-7.855618	5.241760	-4.639040	1.205540	0.167860	0.706236	0.679075	0.131530	-1.000000	-1.000000	-1.000000	-1.000000	-1.000000	-1.000000	-1.000000	78.068966	0.000000	-1.000000	-1.000000	1547572.000000	1770064591.655908
-3283.020000	-14257.125000	-3108.555000	10400.265000	-4520.250000	-2094.165000	7442.640000	-3280.860000	-13.157165	-11.299154	-8.779283	-11.945669	-13.906161	-11.827636	-12.537852	-2.658373	-4.639040	1.205540	0.167860	0.706236	0.679075	0.131530	-1.000000	-1.000000	-1.000000	-1.000000	-1.000000	-1.000000	-1.000000	78.068966	0.000000	-1.000000	-1.000000	1547573.000000	1770064591.672084
-3282.750000	-14264.280000	-3123.135000	10388.025000	-4532.535000	-2116.485000	7418.565000	-3264.795000	-12.589894	-13.869409	-12.933212	-24.426682	-22.540808	-17.528132	-14.534521	-8.075869	-4.639040	1.205540	0.167860	0.706236	0.679075	0.131530	-1.000000	-1.000000	-1.000000	-1.000000	-1.000000	-1.000000	-1.000000	78.068966	0.000000	-1.000000	-1.000000	1547574.000000	1770064591.672094
-3273.255000	-14252.580000	-3102.750000	10475.730000	-4498.830000	-2103.885000	7419.285000	-3261.105000	-8.376137	-11.786011	-13.270153	-28.257109	-22.525818	-17.461274	-13.212846	-8.170513	-4.639040	1.205540	0.167860	0.706236	0.679075	0.131530	-1.000000	-1.000000	-1.000000	-1.000000	-1.000000	-1.000000	-1.000000	78.068966	0.000000	-1.000000	-1.000000	1547575.000000	1770064591.672105
-3265.740000	-14233.815000	-3079.080000	10507.995000	-4469.580000	-2079.360000	7443.855000	-3286.665000	-1.057369	-4.400107	-6.923362	-14.594379	-10.374476	-9.201612	-6.856656	-4.468310	-4.639040	1.205540	0.167860	0.706236	0.679075	0.131530	-1.000000	-1.000000	-1.000000	-1.000000	-1.000000	-1.000000	-1.000000	78.068966	0.000000	-1.000000	-1.000000	1547576.000000	1770064591.672110
-3270.870000	-14241.510000	-3092.490000	10462.635000	-4487.895000	-2084.625000	7444.260000	-3310.560000	7.061683	5.663403	4.340551	11.494901	8.697067	4.586710	3.850815	-1.463255	-4.639040	1.205540	0.167860	0.706236	0.679075	0.131530	-1.000000	-1.000000	-1.000000	-1.000000	-1.000000	-1.000000	-1.000000	78.068966	0.000000	-1.000000	-1.000000	1547577.000000	1770064591.672116
-3239.055000	-14197.635000	-3047.445000	10516.905000	-4439.700000	-2041.695000	7493.760000	-3327.300000	12.175792	13.357991	13.958618	31.793443	23.459295	17.076549	14.751483	-1.982697	-4.639040	1.205540	0.167860	0.706236	0.679075	0.131530	-1.000000	-1.000000	-1.000000	-1.000000	-1.000000	-1.000000	-1.000000	78.068966	0.000000	-1.000000	-1.000000	1547578.000000	1770064591.672120
-3221.280000	-14176.665000	-3022.155000	10568.115000	-4414.320000	-2031.255000	7520.130000	-3209.715000	12.241814	15.360803	17.004394	34.072575	26.704731	22.489570	21.743969	-3.457671	-4.639040	1.205540	0.167860	0.706236	0.679075	0.131530	-1.000000	-1.000000	-1.000000	-1.000000	-1.000000	-1.000000	-1.000000	78.068966	0.000000	-1.000000	-1.000000	1547579.000000	1770064591.673595
-3259.755000	-14229.315000	-3077.190000	10508.760000	-4471.470000	-2080.125000	7439.490000	-3260.655000	8.019769	11.441528	13.224638	21.213515	18.922023	18.769543	21.631747	-0.349721	-4.639040	1.205540	0.167860	0.706236	0.679075	0.131530	-1.000000	-1.000000	-1.000000	-1.000000	-1.000000	-1.000000	-1.000000	78.068966	0.000000	-1.000000	-1.000000	1547580.000000	1770064591.673605
-3257.640000	-14204.430000	-3050.415000	10525.005000	-4444.200000	-2051.010000	7438.410000	-3297.060000	1.407596	3.335854	4.828051	2.684748	4.822411	7.643703	11.507604	6.538035	-5.218920	3.769220	-0.061040	0.709288	0.679381	0.132324	-1.000000	-1.000000	-1.000000	-1.000000	-1.000000	-1.000000	-1.000000	78.068966	0.000000	-1.000000	-1.000000	1547581.000000	1770064591.675772
-3256.740000	-14232.510000	-3080.340000	10494.360000	-4473.405000	-2082.015000	7432.695000	-3249.765000	-4.851707	-5.113932	-4.226410	-12.315429	-8.483180	-5.122794	-5.927372	10.866571	-5.218920	3.769220	-0.061040	0.709288	0.679381	0.132324	-1.000000	-1.000000	-1.000000	-1.000000	-1.000000	-1.000000	-1.000000	78.068966	0.000000	-1.000000	-1.000000	1547582.000000	1770064591.675782
-3291.840000	-14273.865000	-3122.730000	10452.285000	-4513.545000	-2119.050000	7416.495000	-3251.295000	-8.537860	-10.862079	-10.804692	-19.632517	-16.066282	-14.023880	-21.089308	10.339182	-5.218920	3.769220	-0.061040	0.709288	0.679381	0.132324	-1.000000	-1.000000	-1.000000	-1.000000	-1.000000	-1.000000	-1.000000	78.068966	0.000000	-1.000000	-1.000000	1547583.000000	1770064591.679696
-3347.325000	-14334.930000	-3185.145000	10388.565000	-4568.670000	-2154.555000	7422.435000	-3341.115000	-10.529929	-14.728531	-15.609903	-23.162306	-19.395705	-18.209403	-25.728224	5.283701	-5.218920	3.769220	-0.061040	0.709288	0.679381	0.132324	-1.000000	-1.000000	-1.000000	-1.000000	-1.000000	-1.000000	-1.000000	78.068966	0.000000	-1.000000	-1.000000	1547584.000000	1770064591.679705
-3347.460000	-14336.685000	-3188.340000	10384.245000	-4569.030000	-2153.655000	7430.445000	-3350.340000	-12.447851	-17.834469	-19.656547	-26.773791	-21.285729	-18.863037	-18.799164	-4.404121	-5.218920	3.769220	-0.061040	0.709288	0.679381	0.132324	-1.000000	-1.000000	-1.000000	-1.000000	-1.000000	-1.000000	-1.000000	78.068966	0.000000	-1.000000	-1.000000	1547585.000000	1770064591.683850
-3314.070000	-14296.005000	-3147.255000	10424.610000	-4533.255000	-2129.760000	7429.680000	-3314.655000	-12.142185	-17.027936	-19.429612	-25.896407	-19.436871	-15.206496	-5.420583	-13.852802	-5.218920	3.769220	-0.061040	0.709288	0.679381	0.132324	-1.000000	-1.000000	-1.000000	-1.000000	-1.000000	-1.000000	-1.000000	78.068966	0.000000	-1.000000	-1.000000	1547586.000000	1770064591.683860
-3293.010000	-14268.690000	-3118.320000	10456.290000	-4505.445000	-2103.930000	7438.275000	-3291.660000	-6.091559	-8.255681	-10.398982	-14.222565	-9.848669	-6.069914	6.809635	-15.283804	-5.218920	3.769220	-0.061040	0.709288	0.679381	0.132324	-1.000000	-1.000000	-1.000000	-1.000000	-1.000000	-1.000000	-1.000000	78.068966	0.000000	-1.000000	-1.000000	1547587.000000	1770064591.687835
-3258.045000	-14232.195000	-3082.185000	10487.070000	-4473.630000	-2075.715000	7433.505000	-3289.095000	5.410866	7.449899	6.474568	6.451222	6.529841	7.084182	12.896779	-8.087632	-5.218920	3.769220	-0.061040	0.709288	0.679381	0.132324	-1.000000	-1.000000	-1.000000	-1.000000	-1.000000	-1.000000	-1.000000	78.068966	0.000000	-1.000000	-1.000000	1547588.000000	1770064591.687848
-3141.450000	-14119.830000	-2975.985000	10577.385000	-4385.430000	-2000.340000	7458.930000	-3149.055000	19.887648	25.776423	26.316597	29.322223	25.193593	21.369243	14.069471	3.959247	-5.218920	3.769220	-0.061040	0.709288	0.679381	0.132324	-1.000000	-1.000000	-1.000000	-1.000000	-1.000000	-1.000000	-1.000000	78.068966	0.000000	-1.000000	-1.000000	1547589.000000	1770064591.698704
-3175.965000	-14157.090000	-3012.525000	10535.580000	-4420.440000	-2027.385000	7494.030000	-3099.870000	33.225730	40.611248	42.162163	46.820424	39.824293	32.276924	14.448123	19.983938	-5.218920	3.769220	-0.061040	0.709288	0.679381	0.132324	-1.000000	-1.000000	-1.000000	-1.000000	-1.000000	-1.000000	-1.000000	78.068966	0.000000	-1.000000	-1.000000	1547590.000000	1770064591.698716
-3345.480000	-14315.355000	-3161.745000	10404.225000	-4542.840000	-2133.540000	7415.010000	-3328.245000	34.297125	40.489310	42.320323	47.995748	40.133652	31.621795	13.952498	31.277518	-3.586100	5.966660	-2.243220	0.708311	0.677977	0.131836	-1.000000	-1.000000	-1.000000	-1.000000	-1.000000	-1.000000	-1.000000	78.068966	0.000000	-1.000000	-1.000000	1547591.000000	1770064591.698729
-3275.280000	-14229.315000	-3075.390000	10508.400000	-4457.430000	-2053.080000	7442.910000	-3316.770000	14.252093	18.449872	20.356698	26.964775	20.792816	15.457278	8.568693	21.192644	-3.586100	5.966660	-2.243220	0.708311	0.677977	0.131836	-1.000000	-1.000000	-1.000000	-1.000000	-1.000000	-1.000000	-1.000000	78.068966	0.000000	-1.000000	-1.000000	1547592.000000	1770064591.698734
-3252.105000	-14219.865000	-3065.355000	10514.205000	-4455.180000	-2046.195000	7486.830000	-3307.320000	-15.687449	-13.003481	-11.049489	-4.168175	-7.050221	-6.764337	-1.354301	-8.071981	-3.586100	5.966660	-2.243220	0.708311	0.677977	0.131836	-1.000000	-1.000000	-1.000000	-1.000000	-1.000000	-1.000000	-1.000000	78.068966	0.000000	-1.000000	-1.000000	1547593.000000	1770064591.700145
-3317.895000	-14319.495000	-3168.405000	10406.115000	-4557.465000	-2153.655000	7411.635000	-3371.220000	-35.212876	-34.981818	-33.459351	-28.051349	-28.001788	-23.124048	-10.745486	-34.045539	-3.586100	5.966660	-2.243220	0.708311	0.677977	0.131836	-1.000000	-1.000000	-1.000000	-1.000000	-1.000000	-1.000000	-1.000000	78.068966	0.000000	-1.000000	-1.000000	1547594.000000	1770064591.700155
-3296.835000	-14294.340000	-3142.620000	10431.720000	-4537.125000	-2142.990000	7390.935000	-3298.545000	-37.756280	-42.540531	-42.210671	-40.419546	-38.456932	-32.066163	-17.667572	-40.917632	-3.586100	5.966660	-2.243220	0.708311	0.677977	0.131836	-1.000000	-1.000000	-1.000000	-1.000000	-1.000000	-1.000000	-1.000000	78.068966	0.000000	-1.000000	-1.000000	1547595.000000	1770064591.704858
-3241.620000	-14222.970000	-3070.620000	10503.765000	-4466.745000	-2073.780000	7443.225000	-3186.270000	-27.582330	-37.879283	-39.145395	-42.200377	-38.849840	-33.905736	-21.329219	-26.543673	-3.586100	5.966660	-2.243220	0.708311	0.677977	0.131836	-1.000000	-1.000000	-1.000000	-1.000000	-1.000000	-1.000000	-1.000000	78.068966	0.000000	-1.000000	-1.000000	1547596.000000	1770064591.704867
-3309.750000	-14283.540000	-3133.845000	10425.375000	-4538.025000	-2135.745000	7455.285000	-3330.270000	-10.906305	-22.495623	-24.954686	-32.160702	-27.774619	-25.609354	-17.176413	0.317940	-3.586100	5.966660	-2.243220	0.708311	0.677977	0.131836	-1.000000	-1.000000	-1.000000	-1.000000	-1.000000	-1.000000	-1.000000	78.068966	0.000000	-1.000000	-1.000000	1547597.000000	1770064591.715144
-3356.955000	-14318.640000	-3169.845000	10370.070000	-4573.440000	-2164.095000	7417.395000	-3379.995000	2.423640	-4.025209	-6.636363	-15.510171	-10.596667	-10.464335	-4.539392	18.973636	-3.586100	5.966660	-2.243220	0.708311	0.677977	0.131836	-1.000000	-1.000000	-1.000000	-1.000000	-1.000000	-1.000000	-1.000000	78.068966	0.000000	-1.000000	-1.000000	1547598.000000	1770064591.715152
-3314.430000	-14294.160000	-3146.085000	10394.505000	-4546.665000	-2134.620000	7424.235000	-3333.735000	7.419964	9.727036	7.952258	0.389864	5.120345	4.731224	8.878174	16.487538	-3.586100	5.966660	-2.243220	0.708311	0.677977	0.131836	-1.000000	-1.000000	-1.000000	-1.000000	-1.000000	-1.000000	-1.000000	78.068966	0.000000	-1.000000	-1.000000	1547599.000000	1770064591.715160
-3304.395000	-14277.690000	-3126.015000	10429.155000	-4526.775000	-2117.970000	7427.205000	-3326.940000	12.148473	21.239407	20.658174	16.492425	19.778204	19.326248	16.710281	5.976266	-3.586100	5.966660	-2.243220	0.708311	0.677977	0.131836	-1.000000	-1.000000	-1.000000	-1.000000	-1.000000	-1.000000	-1.000000	78.068966	0.000000	-1.000000	-1.000000	1547600.000000	1770064591.715166
-3312.900000	-14274.495000	-3119.130000	10449.810000	-4509.360000	-2099.340000	7437.060000	-3321.135000	22.156210	32.422796	32.878047	32.908528	33.269133	32.060171	18.111957	6.130274	-0.747740	8.713460	-3.753960	0.712339	0.677733	0.132751	-1.000000	-1.000000	-1.000000	-1.000000	-1.000000	-1.000000	-1.000000	78.068966	0.000000	-1.000000	-1.000000	1547601.000000	1770064591.718477
-3282.975000	-14260.140000	-3097.800000	10443.375000	-4504.950000	-2096.865000	7441.335000	-3295.260000	30.030546	36.799136	38.150842	41.956319	39.036710	36.524930	13.551146	17.173850	-0.747740	8.713460	-3.753960	0.712339	0.677733	0.132751	-1.000000	-1.000000	-1.000000	-1.000000	-1.000000	-1.000000	-1.000000	78.068966	0.000000	-1.000000	-1.000000	1547602.000000	1770064591.718487
-3252.465000	-14252.445000	-3087.000000	10470.150000	-4499.370000	-2101.230000	7434.720000	-3283.200000	28.553842	30.159763	32.410410	38.276132	33.203411	29.843730	5.765187	27.173617	-0.747740	8.713460	-3.753960	0.712339	0.677733	0.132751	-1.000000	-1.000000	-1.000000	-1.000000	-1.000000	-1.000000	-1.000000	78.068966	0.000000	-1.000000	-1.000000	1547603.000000	1770064591.731188
-3265.515000	-14251.680000	-3110.175000	10487.880000	-4491.315000	-2106.225000	7429.770000	-3279.420000	17.514625	14.284909	16.781188	23.127673	17.354096	14.252969	-1.137355	24.651415	-0.747740	8.713460	-3.753960	0.712339	0.677733	0.132751	-1.000000	-1.000000	-1.000000	-1.000000	-1.000000	-1.000000	-1.000000	78.068966	0.000000	-1.000000	-1.000000	1547604.000000	1770064591.731200
-3267.900000	-14239.890000	-3086.415000	10501.875000	-4479.615000	-2098.530000	7433.325000	-3289.275000	-0.734359	-7.020964	-5.918041	0.834169	-4.496496	-6.537689	-6.259944	5.657565	-0.747740	8.713460	-3.753960	0.712339	0.677733	0.132751	-1.000000	-1.000000	-1.000000	-1.000000	-1.000000	-1.000000	-1.000000	78.068966	0.000000	-1.000000	-1.000000	1547605.000000	1770064591.731589
-3271.185000	-14242.095000	-3093.795000	10487.475000	-4482.540000	-2085.840000	7436.880000	-3295.395000	-20.014161	-26.306484	-27.572410	-20.602859	-24.348516	-25.022407	-10.028074	-19.898185	-0.747740	8.713460	-3.753960	0.712339	0.677733	0.132751	-1.000000	-1.000000	-1.000000	-1.000000	-1.000000	-1.000000	-1.000000	78.068966	0.000000	-1.000000	-1.000000	1547606.000000	1770064591.731600
-3270.150000	-14239.440000	-3087.180000	10479.780000	-4488.210000	-2081.790000	7442.145000	-3267.630000	-30.870160	-34.384625	-37.121066	-31.896497	-33.074689	-31.950527	-10.826520	-35.133584	-0.747740	8.713460	-3.753960	0.712339	0.677733	0.132751	-1.000000	-1.000000	-1.000000	-1.000000	-1.000000	-1.000000	-1.000000	78.068966	0.000000	-1.000000	-1.000000	1547607.000000	1770064591.731611
-3300.570000	-14263.605000	-3112.695000	10437.930000	-4518.360000	-2104.920000	7449.885000	-3277.755000	-28.577889	-28.061879	-30.519763	-30.245296	-28.387652	-25.044845	-6.999887	-31.753748	-0.747740	8.713460	-3.753960	0.712339	0.677733	0.132751	-1.000000	-1.000000	-1.000000	-1.000000	-1.000000	-1.000000	-1.000000	78.068966	0.000000	-1.000000	-1.000000	1547608.000000	1770064591.731617
-3288.510000	-14265.495000	-3122.055000	10439.820000	-4513.680000	-2103.705000	7452.135000	-3304.170000	-16.881272	-13.158248	-14.306478	-21.525932	-16.412545	-11.351925	-0.040813	-15.014632	-0.747740	8.713460	-3.753960	0.712339	0.677733	0.132751	-1.000000	-1.000000	-1.000000	-1.000000	-1.000000	-1.000000	-1.000000	78.068966	0.000000	-1.000000	-1.000000	1547609.000000	1770064591.731796
-3277.440000	-14270.805000	-3127.995000	10462.545000	-4494.105000	-2087.190000	7456.545000	-3294.405000	-2.999614	0.870829	0.739061	-12.512803	-4.704827	0.271144	5.609600	2.938187	-0.747740	8.713460	-3.753960	0.712339	0.677733	0.132751	-1.000000	-1.000000	-1.000000	-1.000000	-1.000000	-1.000000	-1.000000	78.068966	0.000000	-1.000000	-1.000000	1547610.000000	1770064591.731802
-3269.475000	-14255.055000	-3115.845000	10467.675000	-4489.290000	-2070.045000	7456.275000	-3268.170000	7.745360	8.911315	8.848366	-3.854748	4.199978	7.079089	6.822293	13.341504	-0.396760	5.539380	-6.928040	0.711485	0.674437	0.135193	-1.000000	-1.000000	-1.000000	-1.000000	-1.000000	-1.000000	-1.000000	78.068966	0.000000	-1.000000	-1.000000	1547611.000000	1770064591.737135
-3262.770000	-14238.045000	-3092.895000	10450.035000	-4495.905000	-2067.525000	7455.330000	-3259.665000	12.674486	11.626400	11.306859	5.127442	10.456628	10.973137	4.514848	14.814829	-0.396760	5.539380	-6.928040	0.711485	0.674437	0.135193	-1.000000	-1.000000	-1.000000	-1.000000	-1.000000	-1.000000	-1.000000	78.068966	0.000000	-1.000000	-1.000000	1547612.000000	1770064591.737145
-3264.570000	-14239.170000	-3082.635000	10473.750000	-4483.845000	-2069.730000	7446.285000	-3282.165000	11.541443	10.851441	11.352794	11.192528	12.617521	12.189545	0.884230	9.233925	-0.396760	5.539380	-6.928040	0.711485	0.674437	0.135193	-1.000000	-1.000000	-1.000000	-1.000000	-1.000000	-1.000000	-1.000000	78.068966	0.000000	-1.000000	-1.000000	1547613.000000	1770064591.739742
-3256.695000	-14251.860000	-3091.500000	10466.415000	-4502.295000	-2094.120000	7417.395000	-3272.175000	6.932175	7.339958	10.189517	12.232538	9.821908	9.041566	-3.288593	0.392611	-0.396760	5.539380	-6.928040	0.711485	0.674437	0.135193	-1.000000	-1.000000	-1.000000	-1.000000	-1.000000	-1.000000	-1.000000	78.068966	0.000000	-1.000000	-1.000000	1547614.000000	1770064591.739747
-3244.320000	-14246.010000	-3097.215000	10427.580000	-4494.015000	-2093.130000	7433.955000	-3275.865000	2.870314	2.418676	7.417371	10.089039	4.418230	1.860082	-7.171319	-5.792741	-0.396760	5.539380	-6.928040	0.711485	0.674437	0.135193	-1.000000	-1.000000	-1.000000	-1.000000	-1.000000	-1.000000	-1.000000	78.068966	0.000000	-1.000000	-1.000000	1547615.000000	1770064591.743830
-3246.795000	-14228.955000	-3087.450000	10456.425000	-4484.655000	-2086.740000	7452.495000	-3292.380000	1.866222	-0.952646	3.554818	7.424519	0.519855	-5.474744	-8.067695	-6.423841	-0.396760	5.539380	-6.928040	0.711485	0.674437	0.135193	-1.000000	-1.000000	-1.000000	-1.000000	-1.000000	-1.000000	-1.000000	78.068966	0.000000	-1.000000	-1.000000	1547616.000000	1770064591.743836
-3257.460000	-14236.335000	-3075.480000	10515.735000	-4475.205000	-2083.005000	7453.170000	-3293.370000	3.124607	-0.462164	0.690443	7.173449	0.790468	-8.141528	-3.945382	-3.204051	-0.396760	5.539380	-6.928040	0.711485	0.674437	0.135193	-1.000000	-1.000000	-1.000000	-1.000000	-1.000000	-1.000000	-1.000000	78.068966	0.000000	-1.000000	-1.000000	1547617.000000	1770064591.747775
-3260.565000	-14227.785000	-3071.115000	10516.725000	-4466.250000	-2070.900000	7459.560000	-3266.505000	3.371622	2.499704	0.028375	10.129052	3.691485	-4.971687	3.049100	1.877254	-0.396760	5.539380	-6.928040	0.711485	0.674437	0.135193	-1.000000	-1.000000	-1.000000	-1.000000	-1.000000	-1.000000	-1.000000	78.068966	0.000000	-1.000000	-1.000000	1547618.000000	1770064591.747781
-3265.470000	-14244.390000	-3107.835000	10493.955000	-4472.415000	-2066.805000	7450.695000	-3237.705000	0.022337	4.102259	-0.202715	11.388891	4.907355	0.793557	8.269890	7.474125	-0.396760	5.539380	-6.928040	0.711485	0.674437	0.135193	-1.000000	-1.000000	-1.000000	-1.000000	-1.000000	-1.000000	-1.000000	78.068966	0.000000	-1.000000	-1.000000	1547619.000000	1770064591.760673
-3267.045000	-14247.450000	-3104.415000	10493.820000	-4461.570000	-2054.565000	7447.905000	-3268.620000	-6.140609	1.653697	-3.012197	5.400376	2.089128	5.168360	8.844880	10.477215	-0.396760	5.539380	-6.928040	0.711485	0.674437	0.135193	-1.000000	-1.000000	-1.000000	-1.000000	-1.000000	-1.000000	-1.000000	78.068966	0.000000	-1.000000	-1.000000	1547620.000000	1770064591.760684
-3254.175000	-14240.295000	-3111.390000	10491.480000	-4461.885000	-2052.045000	7449.390000	-3262.320000	-11.419175	-4.406153	-8.672866	-6.875338	-3.316425	6.150759	5.250173	7.154107	-0.946120	3.265640	-2.044840	0.708128	0.679808	0.135925	-1.000000	-1.000000	-1.000000	-1.000000	-1.000000	-1.000000	-1.000000	78.068966	0.000000	-1.000000	-1.000000	1547621.000000	1770064591.760951
-3252.240000	-14253.390000	-3136.590000	10483.605000	-4475.115000	-2066.175000	7447.320000	-3233.520000	-11.862393	-10.400281	-13.972787	-19.066837	-8.378542	3.884257	0.277846	-1.006458	-0.946120	3.265640	-2.044840	0.708128	0.679808	0.135925	-1.000000	-1.000000	-1.000000	-1.000000	-1.000000	-1.000000	-1.000000	78.068966	0.000000	-1.000000	-1.000000	1547622.000000	1770064591.760957
-3248.505000	-14245.875000	-3129.615000	10484.280000	-4486.905000	-2078.100000	7464.600000	-3240.495000	-6.476926	-11.992446	-14.896231	-24.262568	-10.822661	-0.133293	-2.814389	-7.337325	-0.946120	3.265640	-2.044840	0.708128	0.679808	0.135925	-1.000000	-1.000000	-1.000000	-1.000000	-1.000000	-1.000000	-1.000000	78.068966	0.000000	-1.000000	-1.000000	1547623.000000	1770064591.760965
-3246.930000	-14226.615000	-3098.835000	10503.945000	-4467.240000	-2038.185000	7442.370000	-3304.395000	1.829347	-7.380607	-8.698231	-18.402066	-9.353753	-3.459543	-3.040343	-8.841516	-0.946120	3.265640	-2.044840	0.708128	0.679808	0.135925	-1.000000	-1.000000	-1.000000	-1.000000	-1.000000	-1.000000	-1.000000	78.068966	0.000000	-1.000000	-1.000000	1547624.000000	1770064591.760970
-3225.555000	-14199.885000	-3069.315000	10489.410000	-4481.955000	-2018.295000	7371.540000	-3308.310000	9.238505	1.904905	4.110676	-4.085531	-4.164384	-3.318069	-3.580572	-8.293634	-0.946120	3.265640	-2.044840	0.708128	0.679808	0.135925	-1.000000	-1.000000	-1.000000	-1.000000	-1.000000	-1.000000	-1.000000	78.068966	0.000000	-1.000000	-1.000000	1547625.000000	1770064591.763893
-3222.450000	-14201.055000	-3057.255000	10493.730000	-4464.585000	-2001.645000	7375.140000	-3223.215000	13.563418	11.719478	18.192212	9.308448	2.342306	0.698231	-7.756004	-6.228647	-0.946120	3.265640	-2.044840	0.708128	0.679808	0.135925	-1.000000	-1.000000	-1.000000	-1.000000	-1.000000	-1.000000	-1.000000	78.068966	0.000000	-1.000000	-1.000000	1547626.000000	1770064591.763904
-3248.010000	-14229.765000	-3075.615000	10516.590000	-4451.985000	-2076.255000	7433.235000	-3198.150000	13.155720	16.477476	25.761050	14.424216	7.226573	4.120347	-12.066402	0.258577	-0.946120	3.265640	-2.044840	0.708128	0.679808	0.135925	-1.000000	-1.000000	-1.000000	-1.000000	-1.000000	-1.000000	-1.000000	78.068966	0.000000	-1.000000	-1.000000	1547627.000000	1770064591.784542
-3282.795000	-14268.645000	-3119.850000	10469.745000	-4482.945000	-2123.190000	7419.060000	-3224.880000	6.468880	12.091176	21.590767	11.839027	8.788460	0.537631	-9.025310	9.271206	-0.946120	3.265640	-2.044840	0.708128	0.679808	0.135925	-1.000000	-1.000000	-1.000000	-1.000000	-1.000000	-1.000000	-1.000000	78.068966	0.000000	-1.000000	-1.000000	1547628.000000	1770064591.784558
-3268.485000	-14260.410000	-3117.330000	10452.195000	-4482.270000	-2074.275000	7389.855000	-3246.615000	-4.907030	-0.150199	6.495465	5.038031	6.166191	-9.791340	1.713663	13.402228	-0.946120	3.265640	-2.044840	0.708128	0.679808	0.135925	-1.000000	-1.000000	-1.000000	-1.000000	-1.000000	-1.000000	-1.000000	78.068966	0.000000	-1.000000	-1.000000	1547629.000000	1770064591.784574
-3198.015000	-14182.200000	-3044.070000	10506.195000	-4438.575000	-2009.295000	7362.945000	-3259.755000	-13.988483	-12.019782	-10.959135	-2.238045	1.080487	-16.443958	11.802397	8.239617	-0.946120	3.265640	-2.044840	0.708128	0.679808	0.135925	-1.000000	-1.000000	-1.000000	-1.000000	-1.000000	-1.000000	-1.000000	78.068966	0.000000	-1.000000	-1.000000	1547630.000000	1770064591.784580
-3196.035000	-14169.780000	-3027.330000	10536.480000	-4412.340000	-1968.030000	7203.645000	-3337.695000	-13.222532	-13.589421	-18.687827	-4.391335	-1.277924	-8.980083	12.017141	-4.295819	1.846460	4.165980	1.724380	0.709593	0.680357	0.134643	-1.000000	-1.000000	-1.000000	-1.000000	-1.000000	-1.000000	-1.000000	78.068966	0.000000	-1.000000	-1.000000	1547631.000000	1770064591.784778
-3214.170000	-14172.840000	-3027.645000	10539.360000	-4405.590000	-1975.590000	7271.865000	-3345.300000	-3.397671	-3.821795	-12.784274	1.126582	1.945258	10.158591	0.200669	-18.004495	1.846460	4.165980	1.724380	0.709593	0.680357	0.134643	-1.000000	-1.000000	-1.000000	-1.000000	-1.000000	-1.000000	-1.000000	78.068966	0.000000	-1.000000	-1.000000	1547632.000000	1770064591.784789
-3128.040000	-14100.435000	-2954.745000	10610.505000	-4351.185000	-1984.860000	7531.605000	-3200.850000	7.806857	8.609330	-0.591427	10.096712	7.668147	26.153775	-9.521001	-21.748251	1.846460	4.165980	1.724380	0.709593	0.680357	0.134643	-1.000000	-1.000000	-1.000000	-1.000000	-1.000000	-1.000000	-1.000000	78.068966	0.000000	-1.000000	-1.000000	1547633.000000	1770064591.784800
-3210.165000	-14214.330000	-3070.215000	10491.930000	-4460.355000	-2068.290000	7495.335000	-3194.505000	13.835808	14.023437	7.280166	14.594271	9.659078	24.707482	2.232562	-6.748154	1.846460	4.165980	1.724380	0.709593	0.680357	0.134643	-1.000000	-1.000000	-1.000000	-1.000000	-1.000000	-1.000000	-1.000000	78.068966	0.000000	-1.000000	-1.000000	1547634.000000	1770064591.784806
-3272.805000	-14260.320000	-3119.445000	10424.745000	-4531.680000	-2112.570000	7252.425000	-3277.980000	9.861420	6.446422	2.844234	6.426502	1.230630	3.897762	26.378485	16.959105	1.846460	4.165980	1.724380	0.709593	0.680357	0.134643	-1.000000	-1.000000	-1.000000	-1.000000	-1.000000	-1.000000	-1.000000	78.068966	0.000000	-1.000000	-1.000000	1547635.000000	1770064591.784811
-3227.220000	-14201.730000	-3072.780000	10464.030000	-4505.805000	-2065.185000	7085.475000	-3259.620000	-3.379362	-10.014951	-11.275931	-13.593703	-16.928818	-22.047062	27.650795	27.294699	1.846460	4.165980	1.724380	0.709593	0.680357	0.134643	-1.000000	-1.000000	-1.000000	-1.000000	-1.000000	-1.000000	-1.000000	78.068966	0.000000	-1.000000	-1.000000	1547636.000000	1770064591.784817
-3201.570000	-14178.915000	-3047.130000	10511.415000	-4454.460000	-2071.620000	7342.605000	-3220.695000	-14.875477	-20.313712	-20.148454	-29.526532	-30.752819	-33.061461	-4.409064	17.712483	1.846460	4.165980	1.724380	0.709593	0.680357	0.134643	-1.000000	-1.000000	-1.000000	-1.000000	-1.000000	-1.000000	-1.000000	78.068966	0.000000	-1.000000	-1.000000	1547637.000000	1770064591.796293
-3260.880000	-14243.895000	-3115.080000	10467.990000	-4477.770000	-2157.345000	7510.365000	-3273.795000	-15.723100	-15.978711	-14.381428	-26.555131	-26.501079	-24.166938	-33.992929	0.515159	1.846460	4.165980	1.724380	0.709593	0.680357	0.134643	-1.000000	-1.000000	-1.000000	-1.000000	-1.000000	-1.000000	-1.000000	78.068966	0.000000	-1.000000	-1.000000	1547638.000000	1770064591.796307
-3284.730000	-14284.800000	-3185.775000	10407.645000	-4518.090000	-2118.870000	7473.195000	-3300.210000	-10.291213	-5.623632	-2.412485	-9.429969	-7.546450	-8.141307	-25.444685	-12.443690	1.846460	4.165980	1.724380	0.709593	0.680357	0.134643	-1.000000	-1.000000	-1.000000	-1.000000	-1.000000	-1.000000	-1.000000	78.068966	0.000000	-1.000000	-1.000000	1547639.000000	1770064591.796320
-3290.895000	-14308.740000	-3242.970000	10391.715000	-4533.570000	-2165.085000	7499.160000	-3268.215000	-6.138768	-0.824112	2.398286	5.597907	11.034102	3.378027	13.971665	-16.152853	1.846460	4.165980	1.724380	0.709593	0.680357	0.134643	-1.000000	-1.000000	-1.000000	-1.000000	-1.000000	-1.000000	-1.000000	78.068966	0.000000	-1.000000	-1.000000	1547640.000000	1770064591.796326
-3317.400000	-14332.545000	-3275.640000	10398.105000	-4533.165000	-2179.215000	7442.505000	-3236.265000	-3.930878	-2.818606	-2.588036	10.085326	18.781569	8.367188	46.367492	-9.634275	2.014320	6.744920	2.487380	0.717833	0.671873	0.135131	-1.000000	-1.000000	-1.000000	-1.000000	-1.000000	-1.000000	-1.000000	78.068966	0.000000	-1.000000	-1.000000	1547641.000000	1770064591.812434
-3272.805000	-14284.710000	-3219.615000	10431.765000	-4505.040000	-2087.190000	7349.130000	-3266.055000	-0.984174	-5.045201	-8.750620	7.996729	16.502514	11.102547	38.266531	0.731541	2.014320	6.744920	2.487380	0.717833	0.671873	0.135131	-1.000000	-1.000000	-1.000000	-1.000000	-1.000000	-1.000000	-1.000000	78.068966	0.000000	-1.000000	-1.000000	1547642.000000	1770064591.812450
-3168.270000	-14179.950000	-3090.465000	10510.605000	-4454.370000	-1987.470000	7299.360000	-3255.660000	7.278781	2.169459	-2.146430	9.674243	13.378397	19.591035	-9.587524	5.203517	2.014320	6.744920	2.487380	0.717833	0.671873	0.135131	-1.000000	-1.000000	-1.000000	-1.000000	-1.000000	-1.000000	-1.000000	78.068966	0.000000	-1.000000	-1.000000	1547643.000000	1770064591.812464
-3173.085000	-14163.300000	-3047.130000	10459.980000	-4457.790000	-2034.180000	7429.860000	-3211.740000	23.806283	22.987390	23.829791	20.395831	16.853748	34.922993	-56.628524	3.184700	2.014320	6.744920	2.487380	0.717833	0.671873	0.135131	-1.000000	-1.000000	-1.000000	-1.000000	-1.000000	-1.000000	-1.000000	78.068966	0.000000	-1.000000	-1.000000	1547644.000000	1770064591.812469
-3264.165000	-14232.420000	-3093.705000	10452.285000	-4483.980000	-2186.775000	7519.050000	-3251.925000	38.138144	43.941104	53.946720	30.297483	21.927903	41.301753	-59.651614	0.947468	2.014320	6.744920	2.487380	0.717833	0.671873	0.135131	-1.000000	-1.000000	-1.000000	-1.000000	-1.000000	-1.000000	-1.000000	78.068966	0.000000	-1.000000	-1.000000	1547645.000000	1770064591.812475
-3316.140000	-14288.670000	-3181.860000	10418.625000	-4505.355000	-2177.145000	7427.925000	-3256.650000	32.205781	43.025032	60.345637	24.776896	16.569316	21.996282	-20.838075	0.072192	2.014320	6.744920	2.487380	0.717833	0.671873	0.135131	-1.000000	-1.000000	-1.000000	-1.000000	-1.000000	-1.000000	-1.000000	78.068966	0.000000	-1.000000	-1.000000	1547646.000000	1770064591.812480
-3280.320000	-14288.130000	-3257.595000	10358.370000	-4498.920000	-2140.740000	7403.265000	-3232.125000	4.188847	15.066940	30.558745	2.365920	-1.845294	-15.341923	17.528915	-0.296784	2.014320	6.744920	2.487380	0.717833	0.671873	0.135131	-1.000000	-1.000000	-1.000000	-1.000000	-1.000000	-1.000000	-1.000000	78.068966	0.000000	-1.000000	-1.000000	1547647.000000	1770064591.812486
-3259.890000	-14306.445000	-3311.100000	10332.180000	-4501.485000	-2105.280000	7504.380000	-3326.580000	-26.405018	-22.148827	-20.097024	-24.645284	-22.301949	-44.698728	27.861795	0.552030	2.014320	6.744920	2.487380	0.717833	0.671873	0.135131	-1.000000	-1.000000	-1.000000	-1.000000	-1.000000	-1.000000	-1.000000	78.068966	0.000000	-1.000000	-1.000000	1547648.000000	1770064591.812491
-3282.390000	-14314.545000	-3368.115000	10287.000000	-4523.040000	-2106.540000	7506.405000	-3343.455000	-39.511034	-46.094075	-62.531360	-41.689031	-32.290137	-48.106601	19.402639	-0.171818	2.014320	6.744920	2.487380	0.717833	0.671873	0.135131	-1.000000	-1.000000	-1.000000	-1.000000	-1.000000	-1.000000	-1.000000	78.068966	0.000000	-1.000000	-1.000000	1547649.000000	1770064591.827915
-3298.950000	-14350.815000	-3439.980000	10274.535000	-4519.305000	-2097.675000	7475.445000	-3289.590000	-31.869322	-47.183535	-76.695621	-42.054909	-28.702724	-27.741902	9.116149	-5.094911	2.014320	6.744920	2.487380	0.717833	0.671873	0.135131	-1.000000	-1.000000	-1.000000	-1.000000	-1.000000	-1.000000	-1.000000	78.068966	0.000000	-1.000000	-1.000000	1547650.000000	1770064591.827927
-3321.450000	-14373.630000	-3453.210000	10298.160000	-4509.315000	-2121.885000	7486.380000	-3300.210000	-14.717233	-31.521314	-61.982028	-27.813156	-16.209250	-0.896348	3.463534	-9.442837	3.967600	6.592320	2.426340	0.718321	0.680662	0.134155	-1.000000	-1.000000	-1.000000	-1.000000	-1.000000	-1.000000	-1.000000	78.068966	0.000000	-1.000000	-1.000000	1547651.000000	1770064591.827940
-3310.470000	-14347.665000	-3391.920000	10133.505000	-4520.070000	-2136.825000	7503.660000	-3285.990000	-0.774031	-11.334890	-29.580378	-7.101874	-1.256140	14.413393	4.040169	-7.318997	3.967600	6.592320	2.426340	0.718321	0.680662	0.134155	-1.000000	-1.000000	-1.000000	-1.000000	-1.000000	-1.000000	-1.000000	78.068966	0.000000	-1.000000	-1.000000	1547652.000000	1770064591.827945
-3310.065000	-14349.105000	-3375.900000	10172.700000	-4512.105000	-2133.180000	7482.825000	-3288.555000	6.144891	5.902703	8.696522	9.563721	10.759744	14.593485	7.263532	0.500345	3.967600	6.592320	2.426340	0.718321	0.680662	0.134155	-1.000000	-1.000000	-1.000000	-1.000000	-1.000000	-1.000000	-1.000000	78.068966	0.000000	-1.000000	-1.000000	1547653.000000	1770064591.827951
-3314.565000	-14386.050000	-3429.855000	10261.980000	-4500.810000	-2136.015000	7468.785000	-3295.305000	10.761462	18.938563	42.434505	19.972201	17.290661	10.407107	3.809364	8.931558	3.967600	6.592320	2.426340	0.718321	0.680662	0.134155	-1.000000	-1.000000	-1.000000	-1.000000	-1.000000	-1.000000	-1.000000	78.068966	0.000000	-1.000000	-1.000000	1547654.000000	1770064591.827956
-3309.705000	-14378.940000	-3361.365000	10305.855000	-4527.225000	-2170.845000	7428.960000	-3289.860000	17.080142	27.611808	63.189823	30.952254	18.249066	10.196011	-9.581990	13.689059	3.967600	6.592320	2.426340	0.718321	0.680662	0.134155	-1.000000	-1.000000	-1.000000	-1.000000	-1.000000	-1.000000	-1.000000	78.068966	0.000000	-1.000000	-1.000000	1547655.000000	1770064591.827962
-3289.770000	-14322.645000	-3233.160000	10350.630000	-4536.675000	-2187.585000	7391.115000	-3280.860000	22.301212	31.215291	69.900552	44.506848	13.810252	9.973673	-24.727343	13.711570	3.967600	6.592320	2.426340	0.718321	0.680662	0.134155	-1.000000	-1.000000	-1.000000	-1.000000	-1.000000	-1.000000	-1.000000	78.068966	0.000000	-1.000000	-1.000000	1547656.000000	1770064591.827966
-3254.175000	-14217.300000	-3049.965000	10395.180000	-4464.810000	-2156.625000	7428.510000	-3280.500000	21.439670	31.016947	68.380292	52.997474	6.369884	3.891114	-31.469327	11.252007	3.967600	6.592320	2.426340	0.718321	0.680662	0.134155	-1.000000	-1.000000	-1.000000	-1.000000	-1.000000	-1.000000	-1.000000	78.068966	0.000000	-1.000000	-1.000000	1547657.000000	1770064591.830835
-3244.365000	-14172.390000	-2953.755000	10482.030000	-4417.965000	-2184.570000	7434.810000	-3264.390000	14.279692	29.264545	62.181052	47.872323	1.946001	-5.322787	-24.525810	8.012735	3.967600	6.592320	2.426340	0.718321	0.680662	0.134155	-1.000000	-1.000000	-1.000000	-1.000000	-1.000000	-1.000000	-1.000000	78.068966	0.000000	-1.000000	-1.000000	1547658.000000	1770064591.830848
-3259.440000	-14129.640000	-2927.070000	10565.595000	-4484.205000	-2246.130000	7350.075000	-3232.395000	3.963069	24.736689	46.267659	27.922793	2.412981	-12.448286	-5.557325	2.758128	3.967600	6.592320	2.426340	0.718321	0.680662	0.134155	-1.000000	-1.000000	-1.000000	-1.000000	-1.000000	-1.000000	-1.000000	78.068966	0.000000	-1.000000	-1.000000	1547659.000000	1770064591.831864
-3237.930000	-14119.335000	-2943.225000	10547.010000	-4487.445000	-2212.650000	7318.845000	-3286.530000	-7.038088	13.156957	11.545582	-0.856285	1.324776	-15.614884	15.474371	-5.344671	3.967600	6.592320	2.426340	0.718321	0.680662	0.134155	-1.000000	-1.000000	-1.000000	-1.000000	-1.000000	-1.000000	-1.000000	78.068966	0.000000	-1.000000	-1.000000	1547660.000000	1770064591.831875
-3289.545000	-14204.970000	-3015.990000	10513.170000	-4496.490000	-2211.390000	7277.895000	-3301.965000	-16.939648	-8.647514	-43.117624	-29.847692	-5.948862	-12.474605	26.811689	-15.140859	9.491720	-10.971940	-1.556520	0.713804	0.678770	0.133850	-1.000000	-1.000000	-1.000000	-1.000000	-1.000000	-1.000000	-1.000000	78.068966	0.000000	-1.000000	-1.000000	1547661.000000	1770064591.835894
-3260.880000	-14190.390000	-3012.030000	10519.110000	-4482.810000	-2226.195000	7363.755000	-3159.855000	-23.293292	-37.126361	-101.159003	-52.321884	-15.295061	-1.581936	25.246285	-21.297650	9.491720	-10.971940	-1.556520	0.713804	0.678770	0.133850	-1.000000	-1.000000	-1.000000	-1.000000	-1.000000	-1.000000	-1.000000	78.068966	0.000000	-1.000000	-1.000000	1547662.000000	1770064591.835904
-3203.685000	-14136.705000	-2957.445000	10589.445000	-4420.575000	-2235.555000	7401.330000	-3233.520000	-21.650383	-57.655649	-132.057945	-64.131200	-18.613586	12.455559	18.530645	-16.250768	9.491720	-10.971940	-1.556520	0.713804	0.678770	0.133850	-1.000000	-1.000000	-1.000000	-1.000000	-1.000000	-1.000000	-1.000000	78.068966	0.000000	-1.000000	-1.000000	1547663.000000	1770064591.839814
-3213.540000	-14155.785000	-2996.280000	10555.965000	-4436.280000	-2227.680000	7349.355000	-3257.595000	-9.982110	-55.547999	-115.285390	-61.435775	-11.087931	21.884199	15.077922	-2.754053	9.491720	-10.971940	-1.556520	0.713804	0.678770	0.133850	-1.000000	-1.000000	-1.000000	-1.000000	-1.000000	-1.000000	-1.000000	78.068966	0.000000	-1.000000	-1.000000	1547664.000000	1770064591.839822
-3197.790000	-14115.735000	-2968.110000	10581.165000	-4407.570000	-2185.200000	7460.505000	-3327.795000	5.076619	-32.631675	-61.093372	-43.824252	3.392247	22.382713	14.679902	6.832076	9.491720	-10.971940	-1.556520	0.713804	0.678770	0.133850	-1.000000	-1.000000	-1.000000	-1.000000	-1.000000	-1.000000	-1.000000	78.068966	0.000000	-1.000000	-1.000000	1547665.000000	1770064591.843836
-3241.530000	-14165.370000	-3030.210000	10518.885000	-4460.670000	-2220.705000	7531.470000	-3283.785000	13.089589	-4.807912	-0.566713	-18.180077	13.664218	14.525922	13.696199	6.220234	9.491720	-10.971940	-1.556520	0.713804	0.678770	0.133850	-1.000000	-1.000000	-1.000000	-1.000000	-1.000000	-1.000000	-1.000000	78.068966	0.000000	-1.000000	-1.000000	1547666.000000	1770064591.843846
-3253.050000	-14209.605000	-3082.140000	10475.685000	-4496.670000	-2279.970000	7480.035000	-3155.445000	9.469957	12.338732	39.483761	3.645844	10.686110	1.001559	10.091162	1.486671	9.491720	-10.971940	-1.556520	0.713804	0.678770	0.133850	-1.000000	-1.000000	-1.000000	-1.000000	-1.000000	-1.000000	-1.000000	78.068966	0.000000	-1.000000	-1.000000	1547667.000000	1770064591.847857
-3224.520000	-14172.840000	-3053.745000	10507.095000	-4455.855000	-2247.030000	7469.100000	-3173.220000	-0.979422	14.558650	52.165927	13.918520	-2.311229	-13.385960	2.058335	2.502475	9.491720	-10.971940	-1.556520	0.713804	0.678770	0.133850	-1.000000	-1.000000	-1.000000	-1.000000	-1.000000	-1.000000	-1.000000	78.068966	0.000000	-1.000000	-1.000000	1547668.000000	1770064591.847864
-3321.855000	-14268.690000	-3142.080000	10422.630000	-4524.165000	-2295.360000	7424.640000	-3270.465000	-9.812992	9.272562	47.822962	16.668165	-12.929546	-22.296665	-10.330502	9.114056	9.491720	-10.971940	-1.556520	0.713804	0.678770	0.133850	-1.000000	-1.000000	-1.000000	-1.000000	-1.000000	-1.000000	-1.000000	78.068966	0.000000	-1.000000	-1.000000	1547669.000000	1770064591.851878
-3383.325000	-14338.170000	-3208.815000	10356.885000	-4579.515000	-2314.980000	7385.670000	-3355.380000	-13.830082	4.831278	38.187446	19.227000	-14.915757	-22.925297	-24.650671	9.458783	9.491720	-10.971940	-1.556520	0.713804	0.678770	0.133850	-1.000000	-1.000000	-1.000000	-1.000000	-1.000000	-1.000000	-1.000000	78.068966	0.000000	-1.000000	-1.000000	1547670.000000	1770064591.851888
-3324.420000	-14277.510000	-3155.715000	10408.905000	-4530.105000	-2229.750000	7361.640000	-3369.375000	-13.433562	4.868748	29.070452	22.018957	-10.986122	-15.249654	-38.022467	-4.805572	7.584220	-7.675780	-2.548420	0.714354	0.681395	0.127502	-1.000000	-1.000000	-1.000000	-1.000000	-1.000000	-1.000000	-1.000000	78.068966	0.000000	-1.000000	-1.000000	1547671.000000	1770064591.855993
-3283.290000	-14222.340000	-3101.625000	10468.935000	-4478.310000	-2195.415000	7306.110000	-3353.985000	-6.755864	11.281151	24.177663	23.834809	-2.896192	0.846612	-45.616528	-24.437229	7.584220	-7.675780	-2.548420	0.714354	0.681395	0.127502	-1.000000	-1.000000	-1.000000	-1.000000	-1.000000	-1.000000	-1.000000	78.068966	0.000000	-1.000000	-1.000000	1547672.000000	1770064591.856003
-3279.600000	-14234.940000	-3120.210000	10444.725000	-4509.360000	-2255.715000	7318.575000	-3200.895000	6.710566	22.271180	23.669346	25.616097	8.944029	19.086845	-40.798395	-27.926241	7.584220	-7.675780	-2.548420	0.714354	0.681395	0.127502	-1.000000	-1.000000	-1.000000	-1.000000	-1.000000	-1.000000	-1.000000	78.068966	0.000000	-1.000000	-1.000000	1547673.000000	1770064591.860029
-3256.020000	-14229.495000	-3121.875000	10434.465000	-4531.455000	-2293.605000	7260.030000	-3109.815000	21.436031	29.423650	21.063013	25.257657	19.023137	25.711544	-23.075961	-2.469840	7.584220	-7.675780	-2.548420	0.714354	0.681395	0.127502	-1.000000	-1.000000	-1.000000	-1.000000	-1.000000	-1.000000	-1.000000	78.068966	0.000000	-1.000000	-1.000000	1547674.000000	1770064591.860039
-3302.820000	-14235.795000	-3117.870000	10446.480000	-4512.735000	-2260.890000	7322.580000	-3287.025000	29.413367	25.420540	10.814135	19.239508	20.998460	15.203570	-0.019126	35.953826	7.584220	-7.675780	-2.548420	0.714354	0.681395	0.127502	-1.000000	-1.000000	-1.000000	-1.000000	-1.000000	-1.000000	-1.000000	78.068966	0.000000	-1.000000	-1.000000	1547675.000000	1770064591.863935
-3402.900000	-14327.190000	-3206.205000	10366.380000	-4577.175000	-2322.045000	7459.110000	-3424.815000	24.126076	10.379082	-5.326369	7.045145	14.807608	-2.346818	25.035761	48.961779	7.584220	-7.675780	-2.548420	0.714354	0.681395	0.127502	-1.000000	-1.000000	-1.000000	-1.000000	-1.000000	-1.000000	-1.000000	78.068966	0.000000	-1.000000	-1.000000	1547676.000000	1770064591.863945
-3376.305000	-14304.015000	-3188.250000	10382.130000	-4561.380000	-2319.705000	7413.030000	-3412.710000	5.087913	-10.507020	-22.086939	-9.173142	3.949775	-15.180199	52.171804	18.578590	7.584220	-7.675780	-2.548420	0.714354	0.681395	0.127502	-1.000000	-1.000000	-1.000000	-1.000000	-1.000000	-1.000000	-1.000000	78.068966	0.000000	-1.000000	-1.000000	1547677.000000	1770064591.868378
-3296.655000	-14255.505000	-3148.470000	10423.485000	-4524.075000	-2282.490000	7428.330000	-3313.170000	-14.575174	-25.562740	-30.775699	-21.167265	-5.503258	-17.992840	70.892851	-26.814732	7.584220	-7.675780	-2.548420	0.714354	0.681395	0.127502	-1.000000	-1.000000	-1.000000	-1.000000	-1.000000	-1.000000	-1.000000	78.068966	0.000000	-1.000000	-1.000000	1547678.000000	1770064591.868387
-3296.790000	-14234.580000	-3136.320000	10440.720000	-4496.130000	-2248.560000	7485.525000	-3333.420000	-17.664926	-22.413308	-22.984325	-19.160502	-6.408788	-9.495630	67.163059	-45.633830	7.584220	-7.675780	-2.548420	0.714354	0.681395	0.127502	-1.000000	-1.000000	-1.000000	-1.000000	-1.000000	-1.000000	-1.000000	78.068966	0.000000	-1.000000	-1.000000	1547679.000000	1770064591.871855
-3308.040000	-14256.090000	-3180.420000	10401.660000	-4517.280000	-2264.535000	7485.165000	-3335.580000	-5.173028	-4.937086	-4.268905	-6.970909	-0.453689	4.377674	39.992836	-27.116847	7.584220	-7.675780	-2.548420	0.714354	0.681395	0.127502	-1.000000	-1.000000	-1.000000	-1.000000	-1.000000	-1.000000	-1.000000	78.068966	0.000000	-1.000000	-1.000000	1547680.000000	1770064591.871862
-3264.120000	-14250.420000	-3173.130000	10402.830000	-4521.555000	-2287.305000	7451.055000	-3292.020000	6.640109	9.109352	8.616161	0.882789	2.301908	12.341339	0.658688	7.806700	7.248500	16.526580	-6.363420	0.697874	0.659727	0.130920	-1.000000	-1.000000	-1.000000	-1.000000	-1.000000	-1.000000	-1.000000	78.068966	0.000000	-1.000000	-1.000000	1547681.000000	1770064591.893282
-3276.270000	-14232.105000	-3145.725000	10401.795000	-4535.235000	-2307.780000	7431.345000	-3237.750000	7.656394	9.109481	7.650905	-1.899846	-2.898073	9.349577	-37.241942	32.497952	7.248500	16.526580	-6.363420	0.697874	0.659727	0.130920	-1.000000	-1.000000	-1.000000	-1.000000	-1.000000	-1.000000	-1.000000	78.068966	0.000000	-1.000000	-1.000000	1547682.000000	1770064591.893295
-3309.840000	-14273.325000	-3209.715000	10363.860000	-4540.680000	-2309.805000	7422.705000	-3242.025000	-0.646317	-1.162797	-1.479521	-9.240030	-11.120270	0.272260	-62.817899	34.041555	7.248500	16.526580	-6.363420	0.697874	0.659727	0.130920	-1.000000	-1.000000	-1.000000	-1.000000	-1.000000	-1.000000	-1.000000	78.068966	0.000000	-1.000000	-1.000000	1547683.000000	1770064591.893308
-3309.120000	-14291.595000	-3273.435000	10359.720000	-4519.980000	-2270.610000	7413.345000	-3330.225000	-10.841787	-12.263753	-10.895229	-13.217973	-14.754893	-6.422492	-69.766597	17.422604	7.248500	16.526580	-6.363420	0.697874	0.659727	0.130920	-1.000000	-1.000000	-1.000000	-1.000000	-1.000000	-1.000000	-1.000000	78.068966	0.000000	-1.000000	-1.000000	1547684.000000	1770064591.893314
-3289.455000	-14292.270000	-3285.945000	10360.125000	-4567.680000	-2277.855000	7330.590000	-3297.690000	-13.956363	-16.190637	-15.591634	-9.674484	-10.228063	-5.115062	-59.437135	-2.912544	7.248500	16.526580	-6.363420	0.697874	0.659727	0.130920	-1.000000	-1.000000	-1.000000	-1.000000	-1.000000	-1.000000	-1.000000	78.068966	0.000000	-1.000000	-1.000000	1547685.000000	1770064591.893320
-3265.470000	-14255.325000	-3227.715000	10385.415000	-4598.460000	-2314.350000	7393.185000	-3255.705000	-6.771254	-9.841527	-11.672098	1.152914	-1.508658	1.959853	-36.933436	-14.665742	7.248500	16.526580	-6.363420	0.697874	0.659727	0.130920	-1.000000	-1.000000	-1.000000	-1.000000	-1.000000	-1.000000	-1.000000	78.068966	0.000000	-1.000000	-1.000000	1547686.000000	1770064591.893324
-3245.130000	-14202.720000	-3147.750000	10414.980000	-4561.470000	-2336.715000	7457.445000	-3282.435000	4.792197	3.822404	2.400107	14.295152	4.456434	5.944700	-4.730385	-15.515219	7.248500	16.526580	-6.363420	0.697874	0.659727	0.130920	-1.000000	-1.000000	-1.000000	-1.000000	-1.000000	-1.000000	-1.000000	78.068966	0.000000	-1.000000	-1.000000	1547687.000000	1770064591.893330
-3290.940000	-14247.855000	-3159.270000	10453.005000	-4476.870000	-2281.230000	7415.685000	-3334.050000	11.454163	16.938503	21.668771	23.017675	6.750809	1.699418	30.605957	-12.176799	7.248500	16.526580	-6.363420	0.697874	0.659727	0.130920	-1.000000	-1.000000	-1.000000	-1.000000	-1.000000	-1.000000	-1.000000	78.068966	0.000000	-1.000000	-1.000000	1547688.000000	1770064591.893335
-3286.665000	-14266.305000	-3207.555000	10361.295000	-4474.080000	-2283.975000	7369.335000	-3222.855000	7.753594	20.084019	33.847087	22.000608	9.453892	-5.851810	54.107761	-9.643672	7.248500	16.526580	-6.363420	0.697874	0.659727	0.130920	-1.000000	-1.000000	-1.000000	-1.000000	-1.000000	-1.000000	-1.000000	78.068966	0.000000	-1.000000	-1.000000	1547689.000000	1770064591.893341
-3242.070000	-14235.705000	-3180.195000	10303.335000	-4509.225000	-2326.455000	7331.085000	-3080.205000	-3.364914	10.417337	28.461091	8.429215	12.735550	-8.978628	54.547786	-4.872654	7.248500	16.526580	-6.363420	0.697874	0.659727	0.130920	-1.000000	-1.000000	-1.000000	-1.000000	-1.000000	-1.000000	-1.000000	78.068966	0.000000	-1.000000	-1.000000	1547690.000000	1770064591.893346
-3211.920000	-14185.305000	-3110.490000	10442.880000	-4455.900000	-2302.200000	7322.175000	-3178.125000	-11.810973	-3.907759	8.718315	-11.561758	12.569331	-5.651733	34.334021	3.663568	8.835540	1.571780	13.383020	0.670347	0.693480	0.125793	-1.000000	-1.000000	-1.000000	-1.000000	-1.000000	-1.000000	-1.000000	78.068966	0.000000	-1.000000	-1.000000	1547691.000000	1770064591.895993
-3289.140000	-14276.745000	-3196.080000	10482.300000	-4474.575000	-2336.355000	7349.445000	-3189.240000	-10.353754	-12.355697	-11.313631	-21.268174	7.671084	0.861598	6.559209	9.077875	8.835540	1.571780	13.383020	0.670347	0.693480	0.125793	-1.000000	-1.000000	-1.000000	-1.000000	-1.000000	-1.000000	-1.000000	78.068966	0.000000	-1.000000	-1.000000	1547692.000000	1770064591.896003
-3299.355000	-14237.145000	-3111.255000	10545.750000	-4503.015000	-2307.960000	7503.030000	-3391.740000	-2.304073	-12.003117	-20.219700	-10.518660	-0.360385	5.746746	-12.135751	4.861446	8.835540	1.571780	13.383020	0.670347	0.693480	0.125793	-1.000000	-1.000000	-1.000000	-1.000000	-1.000000	-1.000000	-1.000000	78.068966	0.000000	-1.000000	-1.000000	1547693.000000	1770064591.903081
-3286.935000	-14226.300000	-3103.155000	10362.870000	-4562.145000	-2326.590000	7503.750000	-3389.085000	4.334788	-5.789199	-15.626573	9.397052	-9.737983	6.809490	-10.729906	-9.331218	8.835540	1.571780	13.383020	0.670347	0.693480	0.125793	-1.000000	-1.000000	-1.000000	-1.000000	-1.000000	-1.000000	-1.000000	78.068966	0.000000	-1.000000	-1.000000	1547694.000000	1770064591.903091
-3282.795000	-14268.105000	-3191.760000	10357.380000	-4513.230000	-2292.345000	7324.515000	-3317.040000	5.688250	0.932708	-6.119613	15.587939	-17.179984	5.952259	1.927582	-25.261153	8.835540	1.571780	13.383020	0.670347	0.693480	0.125793	-1.000000	-1.000000	-1.000000	-1.000000	-1.000000	-1.000000	-1.000000	78.068966	0.000000	-1.000000	-1.000000	1547695.000000	1770064591.904015
-3257.775000	-14235.345000	-3195.540000	10444.905000	-4447.395000	-2225.385000	7245.585000	-3330.315000	3.314244	2.413789	-5.560817	0.351778	-18.111497	6.174221	1.184528	-27.469934	8.835540	1.571780	13.383020	0.670347	0.693480	0.125793	-1.000000	-1.000000	-1.000000	-1.000000	-1.000000	-1.000000	-1.000000	78.068966	0.000000	-1.000000	-1.000000	1547696.000000	1770064591.904020
-3246.345000	-14212.305000	-3158.010000	10418.940000	-4527.540000	-2337.390000	7329.555000	-3263.490000	1.732856	-0.298840	-15.087106	-20.145903	-12.428290	6.134965	-19.798519	-8.613897	8.835540	1.571780	13.383020	0.670347	0.693480	0.125793	-1.000000	-1.000000	-1.000000	-1.000000	-1.000000	-1.000000	-1.000000	78.068966	0.000000	-1.000000	-1.000000	1547697.000000	1770064591.907891
-3170.475000	-14125.005000	-3031.245000	10411.020000	-4536.405000	-2316.285000	7279.470000	-3226.365000	4.137156	0.340119	-19.086498	-26.564059	-6.047295	0.698009	-38.572162	19.986580	8.835540	1.571780	13.383020	0.670347	0.693480	0.125793	-1.000000	-1.000000	-1.000000	-1.000000	-1.000000	-1.000000	-1.000000	78.068966	0.000000	-1.000000	-1.000000	1547698.000000	1770064591.907898
-3191.490000	-14131.980000	-2991.465000	10520.010000	-4479.570000	-2291.760000	7278.975000	-3200.535000	8.499980	7.023334	-5.553374	-13.332278	-1.539845	-8.453554	-34.509447	38.102899	8.835540	1.571780	13.383020	0.670347	0.693480	0.125793	-1.000000	-1.000000	-1.000000	-1.000000	-1.000000	-1.000000	-1.000000	78.068966	0.000000	-1.000000	-1.000000	1547699.000000	1770064591.912062
-3256.695000	-14190.345000	-3057.930000	10486.890000	-4532.355000	-2382.210000	7343.100000	-3190.995000	8.683302	12.667084	17.569961	9.912107	3.602969	-13.951782	-9.079280	36.391101	8.835540	1.571780	13.383020	0.670347	0.693480	0.125793	-1.000000	-1.000000	-1.000000	-1.000000	-1.000000	-1.000000	-1.000000	78.068966	0.000000	-1.000000	-1.000000	1547700.000000	1770064591.912080
-3213.945000	-14137.695000	-3020.220000	10531.710000	-4473.225000	-2297.250000	7410.105000	-3179.070000	2.382523	10.622753	32.296882	25.717060	9.608130	-13.194110	22.592541	23.354314	-2.868880	-19.105520	5.341000	0.694578	0.706846	0.127136	-1.000000	-1.000000	-1.000000	-1.000000	-1.000000	-1.000000	-1.000000	78.068966	0.000000	-1.000000	-1.000000	1547701.000000	1770064591.915904
-3156.435000	-14071.275000	-2959.380000	10597.545000	-4391.190000	-2242.305000	7504.110000	-3164.535000	-4.073124	3.947479	30.017429	25.833699	16.892152	-5.780748	43.986008	12.741690	-2.868880	-19.105520	5.341000	0.694578	0.706846	0.127136	-1.000000	-1.000000	-1.000000	-1.000000	-1.000000	-1.000000	-1.000000	78.068966	0.000000	-1.000000	-1.000000	1547702.000000	1770064591.915911
-3204.585000	-14132.565000	-3027.420000	10527.030000	-4450.005000	-2267.865000	7560.630000	-3293.730000	-5.097882	-1.748277	14.235184	17.342124	25.630019	7.303242	47.878094	6.113005	-2.868880	-19.105520	5.341000	0.694578	0.706846	0.127136	-1.000000	-1.000000	-1.000000	-1.000000	-1.000000	-1.000000	-1.000000	78.068966	0.000000	-1.000000	-1.000000	1547703.000000	1770064591.919997
-3358.620000	-14311.440000	-3202.830000	10350.810000	-4611.330000	-2404.845000	7424.775000	-3348.090000	-6.084237	-9.059981	-9.219024	4.595184	25.157058	16.012401	37.310184	-8.087098	-2.868880	-19.105520	5.341000	0.694578	0.706846	0.127136	-1.000000	-1.000000	-1.000000	-1.000000	-1.000000	-1.000000	-1.000000	78.068966	0.000000	-1.000000	-1.000000	1547704.000000	1770064591.920004
-3313.305000	-14251.365000	-3148.560000	10411.740000	-4532.805000	-2351.745000	7430.130000	-3309.075000	-14.565011	-22.568441	-34.176704	-16.465748	3.894461	9.071908	15.489935	-32.429039	-2.868880	-19.105520	5.341000	0.694578	0.706846	0.127136	-1.000000	-1.000000	-1.000000	-1.000000	-1.000000	-1.000000	-1.000000	78.068966	0.000000	-1.000000	-1.000000	1547705.000000	1770064591.923958
-3270.645000	-14191.380000	-3105.945000	10449.360000	-4492.170000	-2330.640000	7497.405000	-3286.845000	-24.772618	-34.263019	-48.520977	-37.596026	-26.200415	-7.201951	-12.810892	-51.581080	-2.868880	-19.105520	5.341000	0.694578	0.706846	0.127136	-1.000000	-1.000000	-1.000000	-1.000000	-1.000000	-1.000000	-1.000000	78.068966	0.000000	-1.000000	-1.000000	1547706.000000	1770064591.923968
-3283.425000	-14196.060000	-3124.440000	10412.595000	-4530.780000	-2345.670000	7267.410000	-3243.195000	-24.342233	-30.627630	-42.377072	-40.519552	-40.058951	-15.496234	-38.071079	-50.986211	-2.868880	-19.105520	5.341000	0.694578	0.706846	0.127136	-1.000000	-1.000000	-1.000000	-1.000000	-1.000000	-1.000000	-1.000000	78.068966	0.000000	-1.000000	-1.000000	1547707.000000	1770064591.929213
-3190.230000	-14150.925000	-3052.530000	10487.835000	-4452.705000	-2255.895000	7273.035000	-3084.930000	-8.884207	-9.783854	-18.602366	-22.126549	-29.316831	-8.561381	-54.668792	-27.195985	-2.868880	-19.105520	5.341000	0.694578	0.706846	0.127136	-1.000000	-1.000000	-1.000000	-1.000000	-1.000000	-1.000000	-1.000000	78.068966	0.000000	-1.000000	-1.000000	1547708.000000	1770064591.929224
-3142.845000	-14096.790000	-2997.315000	10543.995000	-4398.480000	-2223.900000	7529.670000	-3081.060000	18.291084	20.106725	14.632951	6.014252	-2.786161	9.437278	-56.455790	13.869482	-2.868880	-19.105520	5.341000	0.694578	0.706846	0.127136	-1.000000	-1.000000	-1.000000	-1.000000	-1.000000	-1.000000	-1.000000	78.068966	0.000000	-1.000000	-1.000000	1547709.000000	1770064591.936534
-3227.940000	-14167.035000	-3059.910000	10480.410000	-4457.880000	-2286.945000	7534.845000	-3277.665000	44.471944	45.100983	45.587105	30.003678	24.114707	26.064897	-34.421257	51.950878	-2.868880	-19.105520	5.341000	0.694578	0.706846	0.127136	-1.000000	-1.000000	-1.000000	-1.000000	-1.000000	-1.000000	-1.000000	78.068966	0.000000	-1.000000	-1.000000	1547710.000000	1770064591.936544
-3294.450000	-14229.990000	-3122.235000	10413.675000	-4523.040000	-2325.150000	7335.720000	-3339.180000	48.826896	47.779226	55.954892	36.863565	33.637994	24.977366	1.318176	60.215914	-12.284300	5.432560	-12.818400	0.706419	0.682005	0.119507	-1.000000	-1.000000	-1.000000	-1.000000	-1.000000	-1.000000	-1.000000	78.068966	0.000000	-1.000000	-1.000000	1547711.000000	1770064591.936858
-3306.600000	-14271.345000	-3172.635000	10363.635000	-4559.355000	-2334.195000	7161.615000	-3254.805000	24.231697	24.195192	38.107792	24.234320	19.755389	3.883672	22.265820	34.398769	-12.284300	5.432560	-12.818400	0.706419	0.682005	0.119507	-1.000000	-1.000000	-1.000000	-1.000000	-1.000000	-1.000000	-1.000000	78.068966	0.000000	-1.000000	-1.000000	1547712.000000	1770064591.936865
-3347.595000	-14277.105000	-3161.115000	10386.000000	-4530.690000	-2341.215000	7496.460000	-3346.290000	-11.495475	-7.749134	7.068470	4.705988	-3.932075	-20.518346	21.431741	-2.062757	-12.284300	5.432560	-12.818400	0.706419	0.682005	0.119507	-1.000000	-1.000000	-1.000000	-1.000000	-1.000000	-1.000000	-1.000000	78.068966	0.000000	-1.000000	-1.000000	1547713.000000	1770064591.940117
-3325.770000	-14272.920000	-3151.125000	10398.420000	-4521.870000	-2366.460000	7605.630000	-3365.730000	-35.833992	-27.908726	-16.890252	-8.063781	-19.508655	-31.690649	23.695678	-28.187658	-12.284300	5.432560	-12.818400	0.706419	0.682005	0.119507	-1.000000	-1.000000	-1.000000	-1.000000	-1.000000	-1.000000	-1.000000	78.068966	0.000000	-1.000000	-1.000000	1547714.000000	1770064591.940127
-3342.330000	-14308.110000	-3194.280000	10351.800000	-4562.865000	-2379.240000	7466.355000	-3334.230000	-40.475653	-31.789664	-27.138263	-11.066097	-20.937608	-26.892147	41.983027	-39.165980	-12.284300	5.432560	-12.818400	0.706419	0.682005	0.119507	-1.000000	-1.000000	-1.000000	-1.000000	-1.000000	-1.000000	-1.000000	78.068966	0.000000	-1.000000	-1.000000	1547715.000000	1770064591.943974
-3346.380000	-14325.795000	-3218.715000	10321.110000	-4593.555000	-2404.215000	7410.060000	-3338.595000	-29.512698	-25.669372	-28.326431	-9.923897	-13.602405	-13.217928	56.901686	-36.417958	-12.284300	5.432560	-12.818400	0.706419	0.682005	0.119507	-1.000000	-1.000000	-1.000000	-1.000000	-1.000000	-1.000000	-1.000000	78.068966	0.000000	-1.000000	-1.000000	1547716.000000	1770064591.943982
-3343.860000	-14301.000000	-3191.805000	10343.160000	-4573.260000	-2375.505000	7409.925000	-3346.920000	-11.740126	-15.038472	-24.863309	-10.674765	-5.598500	0.627451	45.238648	-24.447448	-12.284300	5.432560	-12.818400	0.706419	0.682005	0.119507	-1.000000	-1.000000	-1.000000	-1.000000	-1.000000	-1.000000	-1.000000	78.068966	0.000000	-1.000000	-1.000000	1547717.000000	1770064591.947966
-3322.395000	-14254.110000	-3146.715000	10384.155000	-4537.395000	-2336.490000	7425.720000	-3330.045000	5.226923	-1.359325	-16.009292	-12.564591	-0.092758	10.468206	2.562980	-7.576781	-12.284300	5.432560	-12.818400	0.706419	0.682005	0.119507	-1.000000	-1.000000	-1.000000	-1.000000	-1.000000	-1.000000	-1.000000	78.068966	0.000000	-1.000000	-1.000000	1547718.000000	1770064591.947973
-3311.100000	-14273.145000	-3159.810000	10376.910000	-4540.050000	-2338.515000	7415.730000	-3298.995000	18.873808	14.484459	-0.117078	-8.860112	5.822996	17.520619	-51.624014	15.732387	-12.284300	5.432560	-12.818400	0.706419	0.682005	0.119507	-1.000000	-1.000000	-1.000000	-1.000000	-1.000000	-1.000000	-1.000000	78.068966	0.000000	-1.000000	-1.000000	1547719.000000	1770064591.952093
-3319.830000	-14283.720000	-3169.980000	10368.810000	-4539.285000	-2328.390000	7405.425000	-3331.350000	29.274424	28.722730	19.613252	4.395754	14.959357	23.064468	-81.787497	42.856648	-12.284300	5.432560	-12.818400	0.706419	0.682005	0.119507	-1.000000	-1.000000	-1.000000	-1.000000	-1.000000	-1.000000	-1.000000	78.068966	0.000000	-1.000000	-1.000000	1547720.000000	1770064591.952102
-3335.445000	-14278.725000	-3164.310000	10373.040000	-4529.880000	-2314.665000	7405.920000	-3368.115000	34.099458	36.047810	35.713434	22.438960	24.825107	25.452096	-65.834374	57.929875	3.296160	32.946340	-16.312940	0.756651	0.640257	0.108520	-1.000000	-1.000000	-1.000000	-1.000000	-1.000000	-1.000000	-1.000000	78.068966	0.000000	-1.000000	-1.000000	1547721.000000	1770064591.956000
-3311.370000	-14260.950000	-3147.435000	10390.095000	-4518.315000	-2310.435000	7411.545000	-3303.765000	29.661561	32.645118	40.245499	33.993820	28.264183	22.010061	-20.138575	48.130818	3.296160	32.946340	-16.312940	0.756651	0.640257	0.108520	-1.000000	-1.000000	-1.000000	-1.000000	-1.000000	-1.000000	-1.000000	78.068966	0.000000	-1.000000	-1.000000	1547722.000000	1770064591.956009
-3296.700000	-14253.255000	-3136.230000	10404.495000	-4511.115000	-2306.385000	7415.865000	-3248.055000	15.348051	17.820003	28.957263	30.164166	19.778194	11.853554	18.987897	19.918129	3.296160	32.946340	-16.312940	0.756651	0.640257	0.108520	-1.000000	-1.000000	-1.000000	-1.000000	-1.000000	-1.000000	-1.000000	78.068966	0.000000	-1.000000	-1.000000	1547723.000000	1770064591.959891
-3310.200000	-14259.465000	-3139.920000	10403.955000	-4508.145000	-2290.815000	7414.155000	-3264.345000	-4.593952	-3.821202	6.001151	12.743741	2.482090	-2.170404	36.113561	-11.118615	3.296160	32.946340	-16.312940	0.756651	0.640257	0.108520	-1.000000	-1.000000	-1.000000	-1.000000	-1.000000	-1.000000	-1.000000	78.068966	0.000000	-1.000000	-1.000000	1547724.000000	1770064591.959897
-3313.080000	-14256.450000	-3138.120000	10407.960000	-4500.495000	-2266.245000	7425.990000	-3284.190000	-23.121545	-23.590634	-18.005087	-8.733349	-14.533505	-14.711140	39.720607	-35.348086	3.296160	32.946340	-16.312940	0.756651	0.640257	0.108520	-1.000000	-1.000000	-1.000000	-1.000000	-1.000000	-1.000000	-1.000000	78.068966	0.000000	-1.000000	-1.000000	1547725.000000	1770064591.966709
-3310.875000	-14274.630000	-3159.855000	10375.470000	-4535.190000	-2284.065000	7412.490000	-3246.615000	-34.051838	-34.997562	-34.430827	-26.525054	-25.493211	-22.399348	35.366459	-48.075756	3.296160	32.946340	-16.312940	0.756651	0.640257	0.108520	-1.000000	-1.000000	-1.000000	-1.000000	-1.000000	-1.000000	-1.000000	78.068966	0.000000	-1.000000	-1.000000	1547726.000000	1770064591.966715
-3266.370000	-14251.230000	-3138.300000	10362.285000	-4532.400000	-2262.555000	7419.150000	-3223.440000	-33.475347	-36.220650	-39.840336	-37.206775	-29.973539	-25.170364	20.513203	-44.359172	3.296160	32.946340	-16.312940	0.756651	0.640257	0.108520	-1.000000	-1.000000	-1.000000	-1.000000	-1.000000	-1.000000	-1.000000	78.068966	0.000000	-1.000000	-1.000000	1547727.000000	1770064591.970479
-3229.020000	-14215.095000	-3094.605000	10389.330000	-4490.955000	-2208.060000	7428.555000	-3242.430000	-20.145687	-26.322422	-32.100515	-37.090300	-26.780550	-21.875324	-0.479665	-24.189536	3.296160	32.946340	-16.312940	0.756651	0.640257	0.108520	-1.000000	-1.000000	-1.000000	-1.000000	-1.000000	-1.000000	-1.000000	78.068966	0.000000	-1.000000	-1.000000	1547728.000000	1770064591.970489
-3204.495000	-14181.885000	-3056.670000	10457.010000	-4450.995000	-2180.835000	7428.420000	-3289.995000	2.219368	-5.526478	-10.697467	-21.828421	-13.062670	-10.325087	-14.981285	1.817781	3.296160	32.946340	-16.312940	0.756651	0.640257	0.108520	-1.000000	-1.000000	-1.000000	-1.000000	-1.000000	-1.000000	-1.000000	78.068966	0.000000	-1.000000	-1.000000	1547729.000000	1770064591.972239
-3205.845000	-14205.870000	-3118.050000	10459.530000	-4467.330000	-2223.720000	7411.185000	-3286.350000	23.874292	18.674084	15.957912	5.555996	7.735334	5.587916	-17.417401	19.698109	3.296160	32.946340	-16.312940	0.756651	0.640257	0.108520	-1.000000	-1.000000	-1.000000	-1.000000	-1.000000	-1.000000	-1.000000	78.068966	0.000000	-1.000000	-1.000000	1547730.000000	1770064591.972248
-3234.600000	-14186.430000	-3061.305000	10439.145000	-4501.890000	-2250.630000	7404.930000	-3283.965000	32.602223	32.777701	32.175423	30.459064	23.419294	15.645369	-14.781832	22.408602	18.571420	31.008320	-9.369640	0.740538	0.637511	0.108703	-1.000000	-1.000000	-1.000000	-1.000000	-1.000000	-1.000000	-1.000000	78.068966	0.000000	-1.000000	-1.000000	1547731.000000	1770064591.977355
-3281.400000	-14185.305000	-3073.680000	10418.985000	-4483.080000	-2211.390000	7465.905000	-3324.645000	21.603625	29.079577	29.769324	37.346594	24.171634	14.041037	-12.302539	11.287350	18.571420	31.008320	-9.369640	0.740538	0.637511	0.108703	-1.000000	-1.000000	-1.000000	-1.000000	-1.000000	-1.000000	-1.000000	78.068966	0.000000	-1.000000	-1.000000	1547732.000000	1770064591.977368
-3314.745000	-14224.230000	-3150.675000	10391.940000	-4498.425000	-2211.435000	7503.885000	-3261.735000	-3.797572	11.614652	12.862695	23.174063	12.162513	5.132382	-5.639466	-4.912500	18.571420	31.008320	-9.369640	0.740538	0.637511	0.108703	-1.000000	-1.000000	-1.000000	-1.000000	-1.000000	-1.000000	-1.000000	78.068966	0.000000	-1.000000	-1.000000	1547733.000000	1770064591.982132
-3267.495000	-14239.620000	-3138.750000	10419.525000	-4510.530000	-2230.020000	7463.925000	-3171.195000	-28.080921	-9.869049	-9.566445	-1.616381	-3.286929	-3.834228	6.184901	-12.250818	18.571420	31.008320	-9.369640	0.740538	0.637511	0.108703	-1.000000	-1.000000	-1.000000	-1.000000	-1.000000	-1.000000	-1.000000	78.068966	0.000000	-1.000000	-1.000000	1547734.000000	1770064591.982142
-3210.840000	-14228.145000	-3079.890000	10501.650000	-4444.380000	-2161.935000	7491.195000	-3193.875000	-35.344269	-25.639459	-25.864969	-20.233825	-13.075677	-8.355015	14.354934	-3.451074	18.571420	31.008320	-9.369640	0.740538	0.637511	0.108703	-1.000000	-1.000000	-1.000000	-1.000000	-1.000000	-1.000000	-1.000000	78.068966	0.000000	-1.000000	-1.000000	1547735.000000	1770064591.983912
-3261.330000	-14239.890000	-3101.220000	10454.355000	-4467.240000	-2155.455000	7486.110000	-3262.005000	-21.864391	-29.053707	-26.399997	-21.207913	-12.008206	-6.040557	12.426566	12.160738	18.571420	31.008320	-9.369640	0.740538	0.637511	0.108703	-1.000000	-1.000000	-1.000000	-1.000000	-1.000000	-1.000000	-1.000000	78.068966	0.000000	-1.000000	-1.000000	1547736.000000	1770064591.983920
-3301.515000	-14285.205000	-3145.995000	10398.600000	-4520.970000	-2202.840000	7383.330000	-3314.205000	-0.160583	-20.751695	-13.688952	-9.559243	-4.193405	0.135594	2.154487	18.533160	18.571420	31.008320	-9.369640	0.740538	0.637511	0.108703	-1.000000	-1.000000	-1.000000	-1.000000	-1.000000	-1.000000	-1.000000	78.068966	0.000000	-1.000000	-1.000000	1547737.000000	1770064591.997679
-3266.640000	-14249.385000	-3117.870000	10418.445000	-4491.180000	-2173.995000	7431.255000	-3304.890000	14.664763	-7.039035	1.252792	-0.102450	0.812021	3.375828	-11.164506	10.679338	18.571420	31.008320	-9.369640	0.740538	0.637511	0.108703	-1.000000	-1.000000	-1.000000	-1.000000	-1.000000	-1.000000	-1.000000	78.068966	0.000000	-1.000000	-1.000000	1547738.000000	1770064591.997690
-3365.370000	-14335.605000	-3200.670000	10319.850000	-4575.330000	-2236.590000	7375.950000	-3341.970000	17.606734	5.875177	10.634335	-0.653157	-0.557899	2.029449	-20.660043	-3.754392	18.571420	31.008320	-9.369640	0.740538	0.637511	0.108703	-1.000000	-1.000000	-1.000000	-1.000000	-1.000000	-1.000000	-1.000000	78.068966	0.000000	-1.000000	-1.000000	1547739.000000	1770064591.997703
-3391.965000	-14355.900000	-3220.470000	10301.130000	-4578.480000	-2239.560000	7369.515000	-3419.595000	10.907289	12.678647	11.057905	-8.298057	-5.140669	-0.915673	-21.552455	-16.648634	18.571420	31.008320	-9.369640	0.740538	0.637511	0.108703	-1.000000	-1.000000	-1.000000	-1.000000	-1.000000	-1.000000	-1.000000	78.068966	0.000000	-1.000000	-1.000000	1547740.000000	1770064591.997708
-3353.355000	-14325.120000	-3185.820000	10379.655000	-4533.705000	-2210.355000	7396.110000	-3374.325000	1.604264	12.136093	4.678167	-13.183379	-7.414814	-3.043283	-14.088511	-23.539335	1.342880	12.375860	-5.341000	0.713072	0.670653	0.112182	-1.000000	-1.000000	-1.000000	-1.000000	-1.000000	-1.000000	-1.000000	78.068966	0.000000	-1.000000	-1.000000	1547741.000000	1770064591.998246
-3292.470000	-14270.940000	-3126.645000	10437.345000	-4487.580000	-2169.045000	7360.425000	-3291.300000	-0.255836	10.896811	1.645735	-4.766980	-1.841084	-1.842194	-1.691121	-19.911218	1.342880	12.375860	-5.341000	0.713072	0.670653	0.112182	-1.000000	-1.000000	-1.000000	-1.000000	-1.000000	-1.000000	-1.000000	78.068966	0.000000	-1.000000	-1.000000	1547742.000000	1770064591.998252
-3174.300000	-14171.130000	-3011.715000	10540.395000	-4392.990000	-2073.285000	7351.425000	-3276.000000	9.171650	16.376457	9.961851	16.959151	12.424739	5.085364	10.413225	-4.851860	1.342880	12.375860	-5.341000	0.713072	0.670653	0.112182	-1.000000	-1.000000	-1.000000	-1.000000	-1.000000	-1.000000	-1.000000	78.068966	0.000000	-1.000000	-1.000000	1547743.000000	1770064592.000013
-3194.055000	-14220.900000	-3119.940000	10471.995000	-4445.685000	-2113.155000	7323.075000	-3269.430000	22.779189	26.353567	23.428483	38.053781	27.512119	14.922915	17.137006	15.077324	1.342880	12.375860	-5.341000	0.713072	0.670653	0.112182	-1.000000	-1.000000	-1.000000	-1.000000	-1.000000	-1.000000	-1.000000	78.068966	0.000000	-1.000000	-1.000000	1547744.000000	1770064592.000024
-3142.620000	-14139.855000	-3054.195000	10472.580000	-4434.615000	-2097.270000	7548.300000	-3155.805000	29.141807	30.360479	27.076940	41.975375	31.152044	18.888483	20.117685	32.585554	1.342880	12.375860	-5.341000	0.713072	0.670653	0.112182	-1.000000	-1.000000	-1.000000	-1.000000	-1.000000	-1.000000	-1.000000	78.068966	0.000000	-1.000000	-1.000000	1547745.000000	1770064592.004010
-3014.640000	-13948.830000	-2827.845000	10571.760000	-4324.095000	-1955.340000	7740.045000	-3054.960000	24.178211	24.567774	18.384896	25.875866	20.141682	13.856718	30.240960	45.259729	1.342880	12.375860	-5.341000	0.713072	0.670653	0.112182	-1.000000	-1.000000	-1.000000	-1.000000	-1.000000	-1.000000	-1.000000	78.068966	0.000000	-1.000000	-1.000000	1547746.000000	1770064592.004019
-3110.040000	-14059.800000	-2927.160000	10542.690000	-4371.615000	-1969.650000	7649.055000	-3185.190000	11.559651	14.015938	8.760652	1.929929	3.327474	7.029014	48.377920	47.812149	1.342880	12.375860	-5.341000	0.713072	0.670653	0.112182	-1.000000	-1.000000	-1.000000	-1.000000	-1.000000	-1.000000	-1.000000	78.068966	0.000000	-1.000000	-1.000000	1547747.000000	1770064592.008117
-3074.805000	-14019.885000	-2909.745000	10608.660000	-4321.845000	-1942.650000	7508.565000	-3398.895000	-5.455374	-0.319835	1.599934	-16.127791	-10.171706	3.589845	51.456119	27.113791	1.342880	12.375860	-5.341000	0.713072	0.670653	0.112182	-1.000000	-1.000000	-1.000000	-1.000000	-1.000000	-1.000000	-1.000000	78.068966	0.000000	-1.000000	-1.000000	1547748.000000	1770064592.008127
-3044.160000	-13995.765000	-2876.490000	10626.300000	-4274.730000	-1921.680000	7346.745000	-3319.920000	-22.177735	-18.592022	-8.307480	-21.918712	-16.378143	0.950576	16.881302	-18.664146	1.342880	12.375860	-5.341000	0.713072	0.670653	0.112182	-1.000000	-1.000000	-1.000000	-1.000000	-1.000000	-1.000000	-1.000000	78.068966	0.000000	-1.000000	-1.000000	1547749.000000	1770064592.011969
-3187.215000	-14167.215000	-3004.245000	10403.280000	-4475.565000	-2094.615000	7161.660000	-3027.420000	-34.163730	-37.403169	-22.640573	-22.089433	-18.938690	-7.625389	-49.535017	-61.713272	1.342880	12.375860	-5.341000	0.713072	0.670653	0.112182	-1.000000	-1.000000	-1.000000	-1.000000	-1.000000	-1.000000	-1.000000	78.068966	0.000000	-1.000000	-1.000000	1547750.000000	1770064592.011979
-3366.090000	-14364.405000	-3257.190000	10261.800000	-4607.100000	-2135.160000	7458.705000	-3156.705000	-46.289534	-57.741517	-43.804988	-33.025814	-29.464916	-27.792868	-109.495805	-69.689896	-14.420700	4.700080	-3.341940	0.712889	0.677305	0.115722	-1.000000	-1.000000	-1.000000	-1.000000	-1.000000	-1.000000	-1.000000	78.068966	0.000000	-1.000000	-1.000000	1547751.000000	1770064592.015938
-3440.565000	-14434.020000	-3308.085000	10301.265000	-4609.980000	-2161.440000	7497.270000	-3440.880000	-63.615026	-78.785941	-71.481425	-56.740976	-50.382513	-53.353584	-114.316807	-47.152233	-14.420700	4.700080	-3.341940	0.712889	0.677305	0.115722	-1.000000	-1.000000	-1.000000	-1.000000	-1.000000	-1.000000	-1.000000	78.068966	0.000000	-1.000000	-1.000000	1547752.000000	1770064592.015948
-3228.165000	-14166.270000	-2992.860000	10555.605000	-4388.760000	-2015.280000	7624.125000	-3308.940000	-71.193922	-81.393365	-82.919749	-65.237689	-59.739237	-63.032047	-51.174279	-23.300861	-14.420700	4.700080	-3.341940	0.712889	0.677305	0.115722	-1.000000	-1.000000	-1.000000	-1.000000	-1.000000	-1.000000	-1.000000	78.068966	0.000000	-1.000000	-1.000000	1547753.000000	1770064592.019894
-2858.175000	-13739.175000	-2589.255000	10999.665000	-3964.545000	-1651.905000	7802.955000	-3109.995000	-39.600616	-37.234861	-43.017730	-23.819535	-26.768046	-34.483314	40.870840	-6.509325	-14.420700	4.700080	-3.341940	0.712889	0.677305	0.115722	-1.000000	-1.000000	-1.000000	-1.000000	-1.000000	-1.000000	-1.000000	78.068966	0.000000	-1.000000	-1.000000	1547754.000000	1770064592.019908
-2364.210000	-13216.005000	-2065.095000	11534.355000	-3428.235000	-1144.170000	7887.285000	-2656.530000	43.139701	58.898534	53.774882	70.944699	56.336661	37.167880	108.139012	21.302752	-14.420700	4.700080	-3.341940	0.712889	0.677305	0.115722	-1.000000	-1.000000	-1.000000	-1.000000	-1.000000	-1.000000	-1.000000	78.068966	0.000000	-1.000000	-1.000000	1547755.000000	1770064592.027472
-2635.290000	-13597.425000	-2450.475000	11144.610000	-3783.240000	-1400.040000	7701.705000	-2739.555000	143.890376	164.516658	160.070104	170.173345	150.368339	121.770134	119.236938	70.989076	-14.420700	4.700080	-3.341940	0.712889	0.677305	0.115722	-1.000000	-1.000000	-1.000000	-1.000000	-1.000000	-1.000000	-1.000000	78.068966	0.000000	-1.000000	-1.000000	1547756.000000	1770064592.027493
-3319.830000	-14354.190000	-3218.850000	10363.770000	-4540.545000	-2110.950000	7295.400000	-3273.795000	182.909343	192.733796	187.104448	182.713942	170.434328	148.428679	70.116809	111.346871	-14.420700	4.700080	-3.341940	0.712889	0.677305	0.115722	-1.000000	-1.000000	-1.000000	-1.000000	-1.000000	-1.000000	-1.000000	78.068966	0.000000	-1.000000	-1.000000	1547757.000000	1770064592.031594
-3336.660000	-14333.760000	-3179.160000	10392.120000	-4524.795000	-2125.620000	7209.540000	-3419.955000	98.923241	86.177093	79.063007	56.254592	60.326744	63.486815	-18.520710	84.168782	-14.420700	4.700080	-3.341940	0.712889	0.677305	0.115722	-1.000000	-1.000000	-1.000000	-1.000000	-1.000000	-1.000000	-1.000000	78.068966	0.000000	-1.000000	-1.000000	1547758.000000	1770064592.031603
-3139.200000	-14101.740000	-2945.250000	10570.770000	-4337.730000	-1922.400000	7336.665000	-3446.235000	-62.098847	-91.734358	-98.638510	-134.359587	-116.291322	-85.467706	-99.336998	-22.580923	-14.420700	4.700080	-3.341940	0.712889	0.677305	0.115722	-1.000000	-1.000000	-1.000000	-1.000000	-1.000000	-1.000000	-1.000000	78.068966	0.000000	-1.000000	-1.000000	1547759.000000	1770064592.031922
-2790.945000	-13710.465000	-2606.805000	10830.150000	-4029.120000	-1612.530000	7510.410000	-3002.355000	-173.992171	-199.077174	-203.535787	-243.017641	-220.621980	-179.371250	-123.353469	-134.375691	-14.420700	4.700080	-3.341940	0.712889	0.677305	0.115722	-1.000000	-1.000000	-1.000000	-1.000000	-1.000000	-1.000000	-1.000000	78.068966	0.000000	-1.000000	-1.000000	1547760.000000	1770064592.031929
-2663.145000	-13648.950000	-2531.655000	10944.045000	-3945.105000	-1567.395000	7542.810000	-2604.060000	-154.730799	-156.724805	-158.278163	-195.227437	-176.816809	-147.683466	-79.042824	-147.647853	-44.772840	-6.348160	4.227020	0.710814	0.682799	0.109802	-1.000000	-1.000000	-1.000000	-1.000000	-1.000000	-1.000000	-1.000000	78.068966	0.000000	-1.000000	-1.000000	1547761.000000	1770064592.036409
-3524.805000	-14628.105000	-3497.220000	10091.115000	-4798.395000	-2359.800000	7354.935000	-3201.705000	-48.700995	-30.263761	-29.863338	-54.100875	-44.082512	-37.942347	-2.619189	-46.921826	-44.772840	-6.348160	4.227020	0.710814	0.682799	0.109802	-1.000000	-1.000000	-1.000000	-1.000000	-1.000000	-1.000000	-1.000000	78.068966	0.000000	-1.000000	-1.000000	1547762.000000	1770064592.036419
-3906.360000	-14984.550000	-3842.730000	9765.090000	-5113.980000	-2600.460000	7309.305000	-3748.095000	14.404893	31.393340	33.973532	39.197404	39.139709	29.781525	48.951272	56.211855	-44.772840	-6.348160	4.227020	0.710814	0.682799	0.109802	-1.000000	-1.000000	-1.000000	-1.000000	-1.000000	-1.000000	-1.000000	78.068966	0.000000	-1.000000	-1.000000	1547763.000000	1770064592.040000
-3733.740000	-14805.855000	-3645.630000	9869.490000	-4997.880000	-2471.490000	7220.520000	-3717.810000	-30.561061	-32.539947	-26.258435	14.453676	5.516638	-3.026619	48.226941	51.188001	-44.772840	-6.348160	4.227020	0.710814	0.682799	0.109802	-1.000000	-1.000000	-1.000000	-1.000000	-1.000000	-1.000000	-1.000000	78.068966	0.000000	-1.000000	-1.000000	1547764.000000	1770064592.040007
-3566.205000	-14567.220000	-3417.705000	10071.810000	-4805.505000	-2316.915000	7273.935000	-3591.855000	-99.996888	-114.946269	-104.573494	-46.750951	-61.430185	-62.344149	21.659618	-34.318153	-44.772840	-6.348160	4.227020	0.710814	0.682799	0.109802	-1.000000	-1.000000	-1.000000	-1.000000	-1.000000	-1.000000	-1.000000	78.068966	0.000000	-1.000000	-1.000000	1547765.000000	1770064592.045181
-3499.200000	-14496.930000	-3365.100000	10219.500000	-4662.630000	-2212.965000	7364.520000	-3441.285000	-68.841858	-74.127114	-62.552014	-16.374889	-33.685889	-35.719062	17.901391	-78.399763	-44.772840	-6.348160	4.227020	0.710814	0.682799	0.109802	-1.000000	-1.000000	-1.000000	-1.000000	-1.000000	-1.000000	-1.000000	78.068966	0.000000	-1.000000	-1.000000	1547766.000000	1770064592.045193
-3411.765000	-14459.220000	-3322.665000	10305.495000	-4608.360000	-2201.040000	7251.435000	-3273.975000	77.400681	96.124470	103.189478	123.531294	106.389276	91.090698	51.272381	-13.613274	-44.772840	-6.348160	4.227020	0.710814	0.682799	0.109802	-1.000000	-1.000000	-1.000000	-1.000000	-1.000000	-1.000000	-1.000000	78.068966	0.000000	-1.000000	-1.000000	1547767.000000	1770064592.048052
-3296.790000	-14358.690000	-3210.165000	10374.210000	-4546.260000	-2127.150000	7347.780000	-3276.045000	233.479118	266.924092	265.637367	265.374885	251.000256	220.168971	82.995060	110.926912	-44.772840	-6.348160	4.227020	0.710814	0.682799	0.109802	-1.000000	-1.000000	-1.000000	-1.000000	-1.000000	-1.000000	-1.000000	78.068966	0.000000	-1.000000	-1.000000	1547768.000000	1770064592.048058
-3247.605000	-14280.975000	-3128.040000	10451.970000	-4452.975000	-2017.170000	7399.845000	-3447.270000	283.182244	308.990987	301.793348	291.071354	281.955959	246.500881	69.386874	186.802067	-44.772840	-6.348160	4.227020	0.710814	0.682799	0.109802	-1.000000	-1.000000	-1.000000	-1.000000	-1.000000	-1.000000	-1.000000	78.068966	0.000000	-1.000000	-1.000000	1547769.000000	1770064592.052064
-3241.080000	-14247.855000	-3087.675000	10487.520000	-4423.680000	-1996.515000	7459.470000	-3276.900000	195.321951	200.194300	193.076957	176.075052	175.447316	153.381594	12.058863	147.180245	-44.772840	-6.348160	4.227020	0.710814	0.682799	0.109802	-1.000000	-1.000000	-1.000000	-1.000000	-1.000000	-1.000000	-1.000000	78.068966	0.000000	-1.000000	-1.000000	1547770.000000	1770064592.052072
-3272.265000	-14290.290000	-3132.360000	10439.550000	-4472.730000	-2021.355000	7552.395000	-3309.795000	37.592553	25.862538	22.215196	-2.108535	8.102586	11.802660	-49.582886	31.237706	-22.249080	5.142620	-11.734940	0.696653	0.686522	0.130127	-1.000000	-1.000000	-1.000000	-1.000000	-1.000000	-1.000000	-1.000000	78.068966	0.000000	-1.000000	-1.000000	1547771.000000	1770064592.056147
-3363.660000	-14396.220000	-3236.580000	10337.715000	-4568.850000	-2096.865000	7461.180000	-3429.360000	-96.949931	-113.876572	-114.973924	-145.873789	-126.951912	-99.729349	-79.575057	-67.848362	-22.249080	5.142620	-11.734940	0.696653	0.686522	0.130127	-1.000000	-1.000000	-1.000000	-1.000000	-1.000000	-1.000000	-1.000000	78.068966	0.000000	-1.000000	-1.000000	1547772.000000	1770064592.056157
-3311.550000	-14333.805000	-3172.320000	10403.505000	-4502.655000	-2059.605000	7414.380000	-3382.155000	-166.852126	-182.319681	-183.498097	-212.251005	-191.388842	-154.848560	-71.829934	-103.884854	-22.249080	5.142620	-11.734940	0.696653	0.686522	0.130127	-1.000000	-1.000000	-1.000000	-1.000000	-1.000000	-1.000000	-1.000000	78.068966	0.000000	-1.000000	-1.000000	1547773.000000	1770064592.060167
-3245.490000	-14279.805000	-3122.820000	10450.890000	-4463.010000	-2026.710000	7430.580000	-3256.155000	-174.833549	-187.831650	-190.273554	-204.244935	-189.141737	-159.720914	-41.800778	-88.263194	-22.249080	5.142620	-11.734940	0.696653	0.686522	0.130127	-1.000000	-1.000000	-1.000000	-1.000000	-1.000000	-1.000000	-1.000000	78.068966	0.000000	-1.000000	-1.000000	1547774.000000	1770064592.060177
-3269.340000	-14298.615000	-3136.095000	10439.910000	-4475.835000	-2027.475000	7458.885000	-3311.955000	-134.718178	-145.719120	-148.242712	-142.760408	-137.855244	-124.306855	-6.739582	-49.694194	-22.249080	5.142620	-11.734940	0.696653	0.686522	0.130127	-1.000000	-1.000000	-1.000000	-1.000000	-1.000000	-1.000000	-1.000000	78.068966	0.000000	-1.000000	-1.000000	1547775.000000	1770064592.064103
-3299.490000	-14319.270000	-3154.095000	10423.665000	-4493.790000	-2028.240000	7442.910000	-3424.320000	-72.235490	-79.743303	-80.523762	-62.407476	-66.777345	-66.816708	20.284728	-19.726760	-22.249080	5.142620	-11.734940	0.696653	0.686522	0.130127	-1.000000	-1.000000	-1.000000	-1.000000	-1.000000	-1.000000	-1.000000	78.068966	0.000000	-1.000000	-1.000000	1547776.000000	1770064592.064113
-3287.880000	-14310.495000	-3147.930000	10429.605000	-4494.240000	-2040.300000	7444.170000	-3374.820000	-19.686599	-20.707610	-19.012031	1.795884	-7.376455	-13.714674	28.059305	-15.912474	-22.249080	5.142620	-11.734940	0.696653	0.686522	0.130127	-1.000000	-1.000000	-1.000000	-1.000000	-1.000000	-1.000000	-1.000000	78.068966	0.000000	-1.000000	-1.000000	1547777.000000	1770064592.069446
-3265.065000	-14290.155000	-3133.395000	10440.495000	-4491.045000	-2047.680000	7426.935000	-3326.265000	7.515416	13.265667	16.530077	33.811060	24.089278	16.288049	12.785499	-26.237061	-22.249080	5.142620	-11.734940	0.696653	0.686522	0.130127	-1.000000	-1.000000	-1.000000	-1.000000	-1.000000	-1.000000	-1.000000	78.068966	0.000000	-1.000000	-1.000000	1547778.000000	1770064592.069456
-3266.235000	-14289.930000	-3129.840000	10448.595000	-4474.665000	-2023.560000	7389.720000	-3316.545000	20.894498	29.895285	32.606581	43.276232	35.677272	27.432537	-14.786228	-26.087705	-22.249080	5.142620	-11.734940	0.696653	0.686522	0.130127	-1.000000	-1.000000	-1.000000	-1.000000	-1.000000	-1.000000	-1.000000	78.068966	0.000000	-1.000000	-1.000000	1547779.000000	1770064592.072113
-3263.220000	-14278.815000	-3118.005000	10462.095000	-4454.325000	-1999.350000	7357.905000	-3343.050000	40.355252	48.633041	49.123709	51.772908	47.989929	38.671225	-36.262644	-2.278270	-22.249080	5.142620	-11.734940	0.696653	0.686522	0.130127	-1.000000	-1.000000	-1.000000	-1.000000	-1.000000	-1.000000	-1.000000	78.068966	0.000000	-1.000000	-1.000000	1547780.000000	1770064592.072119
-3243.780000	-14247.450000	-3101.895000	10466.505000	-4462.110000	-2011.455000	7449.660000	-3337.380000	66.798950	72.553596	70.676632	66.472503	66.736744	56.025446	-35.012098	37.789639	-3.479280	4.715340	49.060900	0.667418	0.732908	0.136902	-1.000000	-1.000000	-1.000000	-1.000000	-1.000000	-1.000000	-1.000000	78.068966	0.000000	-1.000000	-1.000000	1547781.000000	1770064592.076037
-3255.705000	-14265.270000	-3105.495000	10470.645000	-4461.750000	-2007.540000	7396.605000	-3325.995000	81.134395	84.333496	81.181557	73.904922	76.344660	66.124669	-5.152593	69.746982	-3.479280	4.715340	49.060900	0.667418	0.732908	0.136902	-1.000000	-1.000000	-1.000000	-1.000000	-1.000000	-1.000000	-1.000000	78.068966	0.000000	-1.000000	-1.000000	1547782.000000	1770064592.076050
-3274.515000	-14301.090000	-3120.480000	10467.720000	-4463.415000	-2009.610000	7452.720000	-3323.565000	66.874911	67.376360	65.383001	59.070642	61.239654	55.757219	37.790989	70.503553	-3.479280	4.715340	49.060900	0.667418	0.732908	0.136902	-1.000000	-1.000000	-1.000000	-1.000000	-1.000000	-1.000000	-1.000000	78.068966	0.000000	-1.000000	-1.000000	1547783.000000	1770064592.080150
-3249.720000	-14274.945000	-3106.080000	10472.535000	-4462.920000	-2014.830000	7431.615000	-3320.280000	26.746261	23.985653	25.684304	22.143393	23.157858	25.604423	66.634568	38.159760	-3.479280	4.715340	49.060900	0.667418	0.732908	0.136902	-1.000000	-1.000000	-1.000000	-1.000000	-1.000000	-1.000000	-1.000000	78.068966	0.000000	-1.000000	-1.000000	1547784.000000	1770064592.080170
-3210.885000	-14220.090000	-3052.800000	10524.195000	-4409.955000	-1959.885000	7469.730000	-3254.220000	-19.618688	-24.955796	-19.795135	-21.092484	-20.545204	-11.481486	64.473500	-5.930473	-3.479280	4.715340	49.060900	0.667418	0.732908	0.136902	-1.000000	-1.000000	-1.000000	-1.000000	-1.000000	-1.000000	-1.000000	78.068966	0.000000	-1.000000	-1.000000	1547785.000000	1770064592.084329
-3297.825000	-14319.495000	-3153.870000	10422.405000	-4507.830000	-2037.915000	7477.560000	-3291.390000	-52.750907	-58.319613	-52.766169	-52.918608	-51.868022	-40.621168	33.490321	-37.363157	-3.479280	4.715340	49.060900	0.667418	0.732908	0.136902	-1.000000	-1.000000	-1.000000	-1.000000	-1.000000	-1.000000	-1.000000	78.068966	0.000000	-1.000000	-1.000000	1547786.000000	1770064592.084336
-3323.205000	-14347.665000	-3181.950000	10395.405000	-4528.395000	-2048.085000	7448.850000	-3334.140000	-64.951526	-68.603544	-65.834727	-65.515819	-63.378606	-53.416805	-9.436991	-48.975037	-3.479280	4.715340	49.060900	0.667418	0.732908	0.136902	-1.000000	-1.000000	-1.000000	-1.000000	-1.000000	-1.000000	-1.000000	78.068966	0.000000	-1.000000	-1.000000	1547787.000000	1770064592.088523
-3294.945000	-14313.915000	-3148.875000	10427.940000	-4496.625000	-2027.205000	7434.675000	-3322.890000	-54.640875	-55.649258	-56.983576	-56.738056	-53.768099	-46.997302	-44.122233	-44.933948	-3.479280	4.715340	49.060900	0.667418	0.732908	0.136902	-1.000000	-1.000000	-1.000000	-1.000000	-1.000000	-1.000000	-1.000000	78.068966	0.000000	-1.000000	-1.000000	1547788.000000	1770064592.088535
-3267.990000	-14273.955000	-3106.260000	10469.430000	-4457.115000	-1984.545000	7409.070000	-3315.915000	-23.906313	-22.478477	-26.965992	-27.096938	-24.738853	-23.230483	-57.525330	-27.219809	-3.479280	4.715340	49.060900	0.667418	0.732908	0.136902	-1.000000	-1.000000	-1.000000	-1.000000	-1.000000	-1.000000	-1.000000	78.068966	0.000000	-1.000000	-1.000000	1547789.000000	1770064592.092342
-3220.605000	-14229.945000	-3067.605000	10501.875000	-4426.740000	-1942.515000	7398.630000	-3297.375000	15.586136	18.757123	13.596987	13.552909	13.653722	9.000700	-48.062082	-0.196993	-3.479280	4.715340	49.060900	0.667418	0.732908	0.136902	-1.000000	-1.000000	-1.000000	-1.000000	-1.000000	-1.000000	-1.000000	78.068966	0.000000	-1.000000	-1.000000	1547790.000000	1770064592.092349
-3135.060000	-14137.425000	-2978.145000	10587.015000	-4352.670000	-1903.365000	7465.455000	-3219.615000	47.471314	51.338039	47.658799	48.148504	45.517778	36.724648	-22.750166	24.877919	-17.945760	-11.338180	0.167860	0.740843	0.691832	0.149047	-1.000000	-1.000000	-1.000000	-1.000000	-1.000000	-1.000000	-1.000000	78.068966	0.000000	-1.000000	-1.000000	1547791.000000	1770064592.097948
-3126.915000	-14122.845000	-2962.890000	10603.980000	-4340.520000	-1922.490000	7486.425000	-3110.310000	60.597438	64.468934	62.674751	63.051530	58.458513	48.321873	8.121440	39.179423	-17.945760	-11.338180	0.167860	0.740843	0.691832	0.149047	-1.000000	-1.000000	-1.000000	-1.000000	-1.000000	-1.000000	-1.000000	78.068966	0.000000	-1.000000	-1.000000	1547792.000000	1770064592.097954
-3312.180000	-14299.290000	-3134.430000	10433.025000	-4509.135000	-2076.390000	7319.970000	-3109.230000	47.886224	51.552443	51.172581	50.740008	45.774760	36.129613	30.334393	41.004929	-17.945760	-11.338180	0.167860	0.740843	0.691832	0.149047	-1.000000	-1.000000	-1.000000	-1.000000	-1.000000	-1.000000	-1.000000	78.068966	0.000000	-1.000000	-1.000000	1547793.000000	1770064592.100050
-3155.535000	-14172.570000	-3018.915000	10544.580000	-4410.540000	-2002.905000	7328.655000	-2921.220000	10.388656	12.723292	13.726300	13.076572	9.514211	2.265877	29.733590	32.140348	-17.945760	-11.338180	0.167860	0.740843	0.691832	0.149047	-1.000000	-1.000000	-1.000000	-1.000000	-1.000000	-1.000000	-1.000000	78.068966	0.000000	-1.000000	-1.000000	1547794.000000	1770064592.100058
-3157.245000	-14167.080000	-3010.140000	10557.045000	-4383.495000	-1938.105000	7586.730000	-3305.340000	-30.302405	-31.445541	-29.118047	-28.860216	-29.969159	-32.621981	11.641833	12.590553	-17.945760	-11.338180	0.167860	0.740843	0.691832	0.149047	-1.000000	-1.000000	-1.000000	-1.000000	-1.000000	-1.000000	-1.000000	78.068966	0.000000	-1.000000	-1.000000	1547795.000000	1770064592.104031
-3331.035000	-14366.925000	-3215.655000	10348.380000	-4581.630000	-2094.705000	7547.895000	-3515.445000	-49.481036	-55.030717	-52.111860	-50.628305	-48.947301	-44.749646	0.766215	-23.529264	-17.945760	-11.338180	0.167860	0.740843	0.691832	0.149047	-1.000000	-1.000000	-1.000000	-1.000000	-1.000000	-1.000000	-1.000000	78.068966	0.000000	-1.000000	-1.000000	1547796.000000	1770064592.104037
-3272.265000	-14303.655000	-3153.285000	10411.065000	-4527.765000	-2061.000000	7396.785000	-3415.815000	-45.382413	-54.041398	-51.611411	-49.614950	-45.463307	-33.329563	6.125156	-69.461542	-17.945760	-11.338180	0.167860	0.740843	0.691832	0.149047	-1.000000	-1.000000	-1.000000	-1.000000	-1.000000	-1.000000	-1.000000	78.068966	0.000000	-1.000000	-1.000000	1547797.000000	1770064592.109189
-3297.420000	-14263.965000	-3104.415000	10443.780000	-4474.890000	-1982.565000	7384.050000	-3399.390000	-28.992966	-37.134147	-35.816935	-34.400297	-29.022022	-11.963484	11.056035	-92.817820	-17.945760	-11.338180	0.167860	0.740843	0.691832	0.149047	-1.000000	-1.000000	-1.000000	-1.000000	-1.000000	-1.000000	-1.000000	78.068966	0.000000	-1.000000	-1.000000	1547798.000000	1770064592.109196
-3328.740000	-14303.565000	-3144.780000	10360.260000	-4514.355000	-1986.570000	7500.195000	-3344.580000	-9.823037	-11.948954	-11.344718	-11.874709	-6.063954	9.974713	4.540183	-68.392936	-17.945760	-11.338180	0.167860	0.740843	0.691832	0.149047	-1.000000	-1.000000	-1.000000	-1.000000	-1.000000	-1.000000	-1.000000	78.068966	0.000000	-1.000000	-1.000000	1547799.000000	1770064592.112161
-3282.255000	-14329.125000	-3193.155000	10338.660000	-4582.755000	-2055.195000	7509.285000	-3312.630000	4.718550	10.665442	10.960314	7.267707	13.481406	24.455109	-5.993871	-7.499813	-17.945760	-11.338180	0.167860	0.740843	0.691832	0.149047	-1.000000	-1.000000	-1.000000	-1.000000	-1.000000	-1.000000	-1.000000	78.068966	0.000000	-1.000000	-1.000000	1547800.000000	1770064592.112171
-3088.890000	-14101.785000	-2951.145000	10636.515000	-4327.155000	-1865.340000	7527.060000	-3169.440000	16.804819	25.492282	24.858676	19.930131	23.996652	27.902057	-10.768080	56.452547	-1.449700	-7.385840	-4.822160	0.743895	0.655272	0.151550	-1.000000	-1.000000	-1.000000	-1.000000	-1.000000	-1.000000	-1.000000	78.068966	0.000000	-1.000000	-1.000000	1547801.000000	1770064592.116142
-3144.735000	-14149.710000	-2970.720000	10677.330000	-4281.210000	-1849.455000	7449.435000	-3185.505000	34.308659	39.082023	37.622582	37.955177	34.886751	28.505254	-7.444271	94.043989	-1.449700	-7.385840	-4.822160	0.743895	0.655272	0.151550	-1.000000	-1.000000	-1.000000	-1.000000	-1.000000	-1.000000	-1.000000	78.068966	0.000000	-1.000000	-1.000000	1547802.000000	1770064592.116150
-3188.340000	-14195.340000	-3023.955000	10585.980000	-4373.865000	-1931.940000	7508.790000	-3240.270000	48.879388	48.758829	48.520941	59.296619	47.650336	28.938368	-1.968798	90.818835	-1.449700	-7.385840	-4.822160	0.743895	0.655272	0.151550	-1.000000	-1.000000	-1.000000	-1.000000	-1.000000	-1.000000	-1.000000	78.068966	0.000000	-1.000000	-1.000000	1547803.000000	1770064592.120199
-3284.415000	-14305.995000	-3148.110000	10397.070000	-4519.620000	-2029.140000	7425.810000	-3281.040000	41.520955	39.718816	41.954253	58.535034	43.604343	17.347449	-4.759401	55.557125	-1.449700	-7.385840	-4.822160	0.743895	0.655272	0.151550	-1.000000	-1.000000	-1.000000	-1.000000	-1.000000	-1.000000	-1.000000	78.068966	0.000000	-1.000000	-1.000000	1547804.000000	1770064592.120204
-3493.080000	-14539.365000	-3384.090000	10162.935000	-4743.540000	-2225.700000	7265.295000	-3397.275000	8.831996	7.804097	10.724791	19.961133	10.441288	-12.084010	-19.100176	13.400919	-1.449700	-7.385840	-4.822160	0.743895	0.655272	0.151550	-1.000000	-1.000000	-1.000000	-1.000000	-1.000000	-1.000000	-1.000000	78.068966	0.000000	-1.000000	-1.000000	1547805.000000	1770064592.124064
-3434.490000	-14478.795000	-3315.330000	10280.610000	-4652.325000	-2179.890000	7375.545000	-3433.185000	-34.280845	-35.172294	-34.408134	-41.201878	-39.759476	-48.187160	-32.201908	-21.857227	-1.449700	-7.385840	-4.822160	0.743895	0.655272	0.151550	-1.000000	-1.000000	-1.000000	-1.000000	-1.000000	-1.000000	-1.000000	78.068966	0.000000	-1.000000	-1.000000	1547806.000000	1770064592.124072
-3361.140000	-14397.750000	-3208.230000	10406.160000	-4550.625000	-2099.880000	7404.570000	-3402.270000	-62.876596	-66.094763	-68.192658	-85.745755	-76.090301	-69.374682	-25.164748	-49.418705	-1.449700	-7.385840	-4.822160	0.743895	0.655272	0.151550	-1.000000	-1.000000	-1.000000	-1.000000	-1.000000	-1.000000	-1.000000	78.068966	0.000000	-1.000000	-1.000000	1547807.000000	1770064592.128100
-3366.540000	-14387.670000	-3210.030000	10415.295000	-4544.505000	-2073.915000	7460.415000	-3400.875000	-56.644134	-62.226748	-65.163960	-79.551470	-70.600312	-56.950853	3.405374	-64.299047	-1.449700	-7.385840	-4.822160	0.743895	0.655272	0.151550	-1.000000	-1.000000	-1.000000	-1.000000	-1.000000	-1.000000	-1.000000	78.068966	0.000000	-1.000000	-1.000000	1547808.000000	1770064592.128106
-3324.240000	-14361.210000	-3193.650000	10422.000000	-4531.320000	-2063.970000	7432.560000	-3387.780000	-20.644954	-24.055565	-25.593914	-27.663642	-25.423276	-12.929127	34.266778	-60.918137	-1.449700	-7.385840	-4.822160	0.743895	0.655272	0.151550	-1.000000	-1.000000	-1.000000	-1.000000	-1.000000	-1.000000	-1.000000	78.068966	0.000000	-1.000000	-1.000000	1547809.000000	1770064592.132095
-3278.430000	-14324.895000	-3155.895000	10441.350000	-4501.530000	-2050.875000	7354.440000	-3363.030000	20.234905	22.987914	22.713889	29.488062	27.488422	37.203662	47.802522	-41.814588	-1.449700	-7.385840	-4.822160	0.743895	0.655272	0.151550	-1.000000	-1.000000	-1.000000	-1.000000	-1.000000	-1.000000	-1.000000	78.068966	0.000000	-1.000000	-1.000000	1547810.000000	1770064592.132104
-3267.495000	-14293.350000	-3109.275000	10451.610000	-4468.095000	-2009.880000	7399.035000	-3249.990000	45.702661	53.186549	52.334959	56.128725	56.662329	65.794946	38.394897	-12.686102	-10.269980	11.612860	-3.204600	0.716978	0.684141	0.155517	-1.000000	-1.000000	-1.000000	-1.000000	-1.000000	-1.000000	-1.000000	78.068966	0.000000	-1.000000	-1.000000	1547811.000000	1770064592.137384
-3274.065000	-14303.160000	-3154.455000	10413.000000	-4499.190000	-2026.890000	7512.930000	-3270.465000	50.373832	58.482316	55.970057	48.874182	55.496504	64.603805	15.338962	23.322431	-10.269980	11.612860	-3.204600	0.716978	0.684141	0.155517	-1.000000	-1.000000	-1.000000	-1.000000	-1.000000	-1.000000	-1.000000	78.068966	0.000000	-1.000000	-1.000000	1547812.000000	1770064592.137392
-3320.865000	-14326.740000	-3200.760000	10388.205000	-4546.755000	-2070.675000	7424.280000	-3289.950000	40.199342	46.563543	42.523514	29.149416	38.420700	44.102427	-5.190545	59.255934	-10.269980	11.612860	-3.204600	0.716978	0.684141	0.155517	-1.000000	-1.000000	-1.000000	-1.000000	-1.000000	-1.000000	-1.000000	78.068966	0.000000	-1.000000	-1.000000	1547813.000000	1770064592.141667
-3314.070000	-14280.435000	-3219.480000	10405.395000	-4554.045000	-2099.025000	7344.720000	-3254.445000	24.624810	29.826190	24.121576	17.128382	21.019479	18.645426	-13.965244	80.123031	-10.269980	11.612860	-3.204600	0.716978	0.684141	0.155517	-1.000000	-1.000000	-1.000000	-1.000000	-1.000000	-1.000000	-1.000000	78.068966	0.000000	-1.000000	-1.000000	1547814.000000	1770064592.141680
-3286.845000	-14272.650000	-3209.490000	10421.910000	-4520.520000	-2050.110000	7496.595000	-3378.870000	7.666580	12.729206	4.638338	12.303108	5.785299	-4.976892	-13.789526	71.248447	-10.269980	11.612860	-3.204600	0.716978	0.684141	0.155517	-1.000000	-1.000000	-1.000000	-1.000000	-1.000000	-1.000000	-1.000000	78.068966	0.000000	-1.000000	-1.000000	1547815.000000	1770064592.147079
-3296.205000	-14390.820000	-3194.955000	10363.770000	-4546.980000	-2065.455000	7460.910000	-3381.210000	-11.814074	-10.587985	-18.157388	0.342887	-12.976692	-26.298340	-10.984064	28.989815	-10.269980	11.612860	-3.204600	0.716978	0.684141	0.155517	-1.000000	-1.000000	-1.000000	-1.000000	-1.000000	-1.000000	-1.000000	78.068966	0.000000	-1.000000	-1.000000	1547816.000000	1770064592.147086
-3302.145000	-14351.445000	-3196.035000	10388.340000	-4516.695000	-2057.400000	7448.310000	-3387.555000	-32.181552	-41.773086	-39.933322	-23.348537	-33.891140	-42.699341	-10.645114	-30.969872	-10.269980	11.612860	-3.204600	0.716978	0.684141	0.155517	-1.000000	-1.000000	-1.000000	-1.000000	-1.000000	-1.000000	-1.000000	78.068966	0.000000	-1.000000	-1.000000	1547817.000000	1770064592.147918
-3289.815000	-14291.730000	-3176.460000	10450.305000	-4495.815000	-2059.380000	7436.655000	-3354.120000	-47.294943	-67.150631	-50.671440	-45.921688	-46.819706	-48.487537	-13.898409	-78.827085	-10.269980	11.612860	-3.204600	0.716978	0.684141	0.155517	-1.000000	-1.000000	-1.000000	-1.000000	-1.000000	-1.000000	-1.000000	78.068966	0.000000	-1.000000	-1.000000	1547818.000000	1770064592.147925
-3280.230000	-14320.890000	-3103.605000	10486.215000	-4481.865000	-2046.420000	7440.345000	-3320.820000	-50.360889	-69.425999	-44.567660	-50.986844	-44.433874	-40.879105	-14.707412	-91.351045	-10.269980	11.612860	-3.204600	0.716978	0.684141	0.155517	-1.000000	-1.000000	-1.000000	-1.000000	-1.000000	-1.000000	-1.000000	78.068966	0.000000	-1.000000	-1.000000	1547819.000000	1770064592.152135
-3267.495000	-14299.245000	-3105.225000	10492.560000	-4462.830000	-2021.445000	7454.475000	-3289.095000	-37.472346	-45.312223	-22.779215	-33.024041	-27.421115	-22.024630	-9.322021	-65.495496	-10.269980	11.612860	-3.204600	0.716978	0.684141	0.155517	-1.000000	-1.000000	-1.000000	-1.000000	-1.000000	-1.000000	-1.000000	78.068966	0.000000	-1.000000	-1.000000	1547820.000000	1770064592.152146
-3258.855000	-14258.385000	-3083.490000	10495.620000	-4446.945000	-2003.310000	7458.525000	-3295.530000	-10.205556	-4.561846	7.986984	0.796790	-0.352066	3.694347	-2.193683	-15.100679	-8.728720	15.946700	-8.240400	0.728880	0.683043	0.143066	-1.000000	-1.000000	-1.000000	-1.000000	-1.000000	-1.000000	-1.000000	78.068966	0.000000	-1.000000	-1.000000	1547821.000000	1770064592.156095
-3284.955000	-14313.375000	-3146.265000	10428.165000	-4515.120000	-2067.570000	7442.055000	-3329.595000	23.233232	37.982816	37.108688	35.178670	29.003851	29.712569	4.661147	37.080295	-8.728720	15.946700	-8.240400	0.728880	0.683043	0.143066	-1.000000	-1.000000	-1.000000	-1.000000	-1.000000	-1.000000	-1.000000	78.068966	0.000000	-1.000000	-1.000000	1547822.000000	1770064592.156106
-3284.730000	-14312.295000	-3143.475000	10457.055000	-4502.520000	-2068.110000	7435.665000	-3332.205000	48.293682	63.618790	51.224277	51.838267	46.951226	44.933352	12.822459	68.121852	-8.728720	15.946700	-8.240400	0.728880	0.683043	0.143066	-1.000000	-1.000000	-1.000000	-1.000000	-1.000000	-1.000000	-1.000000	78.068966	0.000000	-1.000000	-1.000000	1547823.000000	1770064592.160156
-3285.090000	-14302.215000	-3134.340000	10465.245000	-4494.600000	-2061.675000	7434.855000	-3329.865000	51.232486	59.689927	41.095116	41.317740	41.964218	39.554790	16.920884	67.973571	-8.728720	15.946700	-8.240400	0.728880	0.683043	0.143066	-1.000000	-1.000000	-1.000000	-1.000000	-1.000000	-1.000000	-1.000000	78.068966	0.000000	-1.000000	-1.000000	1547824.000000	1770064592.160161
-3273.660000	-14285.880000	-3119.130000	10471.095000	-4485.915000	-2056.230000	7459.875000	-3302.595000	31.163573	32.894118	11.811442	12.314820	17.345076	16.137189	10.925784	43.527600	-8.728720	15.946700	-8.240400	0.728880	0.683043	0.143066	-1.000000	-1.000000	-1.000000	-1.000000	-1.000000	-1.000000	-1.000000	78.068966	0.000000	-1.000000	-1.000000	1547825.000000	1770064592.164104
-3277.215000	-14284.350000	-3119.445000	10468.530000	-4488.030000	-2053.620000	7476.345000	-3318.255000	0.778975	0.751152	-19.919904	-17.597446	-11.893326	-11.150265	0.015994	8.975805	-8.728720	15.946700	-8.240400	0.728880	0.683043	0.143066	-1.000000	-1.000000	-1.000000	-1.000000	-1.000000	-1.000000	-1.000000	78.068966	0.000000	-1.000000	-1.000000	1547826.000000	1770064592.164114
-3256.695000	-14272.065000	-3110.850000	10477.170000	-4477.005000	-2045.430000	7446.510000	-3306.330000	-24.557428	-24.527903	-39.406212	-36.644607	-32.075864	-28.403146	-6.157624	-23.030369	-8.728720	15.946700	-8.240400	0.728880	0.683043	0.143066	-1.000000	-1.000000	-1.000000	-1.000000	-1.000000	-1.000000	-1.000000	78.068966	0.000000	-1.000000	-1.000000	1547827.000000	1770064592.168003
-3119.625000	-14101.470000	-2934.585000	10655.685000	-4300.020000	-1882.530000	7510.545000	-3239.640000	-33.268243	-34.665734	-39.495767	-38.465646	-34.467079	-28.068312	-4.660447	-42.885427	-8.728720	15.946700	-8.240400	0.728880	0.683043	0.143066	-1.000000	-1.000000	-1.000000	-1.000000	-1.000000	-1.000000	-1.000000	78.068966	0.000000	-1.000000	-1.000000	1547828.000000	1770064592.168009
-2973.555000	-13949.550000	-2787.480000	10799.010000	-4160.880000	-1752.615000	7569.945000	-3134.970000	-19.023147	-22.027421	-17.025895	-17.312496	-14.004219	-8.221985	1.345353	-42.617188	-8.728720	15.946700	-8.240400	0.728880	0.683043	0.143066	-1.000000	-1.000000	-1.000000	-1.000000	-1.000000	-1.000000	-1.000000	78.068966	0.000000	-1.000000	-1.000000	1547829.000000	1770064592.171927
