Channel1	Channel2	Channel3	Channel4	Channel5	Channel6	Channel7	Channel8	FilteredChannel1	FilteredChannel2	FilteredChannel3	FilteredChannel4	FilteredChannel5	FilteredChannel6	FilteredChannel7	FilteredChannel8	GyroX	GyroY	GyroZ	AccX	AccY	AccZ	PPG1	PPG2	rawPPG1	rawPPG2	rawPPG3	Hr	Hrv	Battery	Trigger	PhysicalTrigger	AutoTrigger	NumMeasurements	Timestamp
9985.860000	-15828.570000	6614.505000	10952.145000	-35106.255000	-33961.590000	2496.375000	8062.380000	3.420967	9.129450	6.094306	2.491350	-3.674203	-11.251413	-1.161062	-3.480363	-5.966660	4.471180	0.808780	0.889280	-0.347961	0.290099	-1.000000	-1.000000	-1.000000	-1.000000	-1.000000	-1.000000	-1.000000	67.310345	0.000000	-1.000000	-1.000000	1600210.000000	1773690757.475319
9976.725000	-15816.690000	6625.665000	10960.155000	-35109.720000	-33973.380000	2493.675000	8101.305000	2.334144	0.319367	-1.979665	-3.362888	-1.622751	3.633111	-1.087573	-0.555576	-8.331960	3.479280	-0.305200	0.887510	-0.350341	0.294006	-1.000000	-1.000000	-1.000000	-1.000000	-1.000000	-1.000000	-1.000000	67.310345	0.000000	-1.000000	-1.000000	1600211.000000	1773690757.479053
9987.660000	-15833.385000	6604.110000	10938.195000	-35128.710000	-33985.215000	2495.475000	8124.345000	-1.237860	-7.189174	-7.492005	-6.384723	1.502903	16.539790	-0.195866	3.247485	-8.331960	3.479280	-0.305200	0.887510	-0.350341	0.294006	-1.000000	-1.000000	-1.000000	-1.000000	-1.000000	-1.000000	-1.000000	67.310345	0.000000	-1.000000	-1.000000	1600212.000000	1773690757.479064
10012.320000	-15841.665000	6591.195000	10929.240000	-35119.935000	-33965.595000	2499.885000	8104.635000	-3.773355	-11.374651	-9.855011	-7.064456	2.864246	20.586565	1.369520	8.593587	-8.331960	3.479280	-0.305200	0.887510	-0.350341	0.294006	-1.000000	-1.000000	-1.000000	-1.000000	-1.000000	-1.000000	-1.000000	67.310345	0.000000	-1.000000	-1.000000	1600213.000000	1773690757.483172
9953.145000	-15842.610000	6589.080000	10924.290000	-35121.105000	-33965.505000	2500.020000	8074.710000	-3.584627	-11.996143	-9.988766	-6.601213	1.996885	15.705309	2.733656	11.564313	-8.331960	3.479280	-0.305200	0.887510	-0.350341	0.294006	-1.000000	-1.000000	-1.000000	-1.000000	-1.000000	-1.000000	-1.000000	67.310345	0.000000	-1.000000	-1.000000	1600214.000000	1773690757.483185
9937.260000	-15848.550000	6587.280000	10924.785000	-35116.470000	-33958.260000	2501.190000	8082.720000	-3.070161	-9.142214	-7.909579	-4.841013	0.812488	7.249654	2.883305	7.782107	-8.331960	3.479280	-0.305200	0.887510	-0.350341	0.294006	-1.000000	-1.000000	-1.000000	-1.000000	-1.000000	-1.000000	-1.000000	67.310345	0.000000	-1.000000	-1.000000	1600215.000000	1773690757.489159
10005.660000	-15842.655000	6596.010000	10936.260000	-35100.900000	-33942.195000	2504.700000	8095.185000	-3.740541	-3.826750	-3.556761	-1.441818	0.752112	0.080868	1.570291	-1.224264	-8.331960	3.479280	-0.305200	0.887510	-0.350341	0.294006	-1.000000	-1.000000	-1.000000	-1.000000	-1.000000	-1.000000	-1.000000	67.310345	0.000000	-1.000000	-1.000000	1600216.000000	1773690757.489188
10033.830000	-15840.180000	6596.505000	10938.465000	-35092.350000	-33920.505000	2500.875000	8109.270000	-1.824222	2.178654	2.209969	3.062829	1.937179	-4.068273	-0.360690	-9.297356	-8.331960	3.479280	-0.305200	0.887510	-0.350341	0.294006	-1.000000	-1.000000	-1.000000	-1.000000	-1.000000	-1.000000	-1.000000	67.310345	0.000000	-1.000000	-1.000000	1600217.000000	1773690757.491180
10011.735000	-15850.080000	6588.135000	10933.695000	-35080.875000	-33876.990000	2492.010000	8113.050000	5.114828	6.884996	7.159608	6.729343	3.351840	-5.024295	-2.046044	-11.203385	-8.331960	3.479280	-0.305200	0.887510	-0.350341	0.294006	-1.000000	-1.000000	-1.000000	-1.000000	-1.000000	-1.000000	-1.000000	67.310345	0.000000	-1.000000	-1.000000	1600218.000000	1773690757.491191
9990.000000	-15834.375000	6606.810000	10953.990000	-35059.140000	-33851.430000	2502.045000	8098.785000	12.108332	8.422531	8.652684	7.205560	3.570381	-2.967981	-3.087281	-6.498872	-8.331960	3.479280	-0.305200	0.887510	-0.350341	0.294006	-1.000000	-1.000000	-1.000000	-1.000000	-1.000000	-1.000000	-1.000000	67.310345	0.000000	-1.000000	-1.000000	1600219.000000	1773690757.495614
10020.825000	-15813.090000	6623.955000	10961.415000	-35102.745000	-33962.715000	2511.045000	8101.395000	12.814851	6.854891	6.618846	4.556393	1.690863	-0.879947	-2.747183	0.111543	-8.331960	3.479280	-0.305200	0.887510	-0.350341	0.294006	-1.000000	-1.000000	-1.000000	-1.000000	-1.000000	-1.000000	-1.000000	67.310345	0.000000	-1.000000	-1.000000	1600220.000000	1773690757.495624
10040.805000	-15825.600000	6606.810000	10941.210000	-35137.575000	-34026.795000	2506.590000	8099.730000	7.011408	4.387374	3.652494	1.165630	-2.908976	-5.084173	-0.661348	3.480580	-1.739640	4.089680	-0.885080	0.889158	-0.359740	0.293884	-1.000000	-1.000000	-1.000000	-1.000000	-1.000000	-1.000000	-1.000000	67.310345	0.000000	-1.000000	-1.000000	1600221.000000	1773690757.499063
10028.610000	-15829.470000	6602.400000	10935.540000	-35122.050000	-34004.745000	2502.720000	8092.350000	-1.045939	2.408328	1.470450	-1.333340	-9.144946	-16.555331	1.780448	3.030081	-1.739640	4.089680	-0.885080	0.889158	-0.359740	0.293884	-1.000000	-1.000000	-1.000000	-1.000000	-1.000000	-1.000000	-1.000000	67.310345	0.000000	-1.000000	-1.000000	1600222.000000	1773690757.499077
9998.325000	-15827.715000	6607.305000	10941.660000	-35122.590000	-33990.615000	2508.885000	8105.895000	-7.388237	0.590975	-0.114696	-2.655611	-12.735398	-25.186720	2.738125	1.761395	-1.739640	4.089680	-0.885080	0.889158	-0.359740	0.293884	-1.000000	-1.000000	-1.000000	-1.000000	-1.000000	-1.000000	-1.000000	67.310345	0.000000	-1.000000	-1.000000	1600223.000000	1773690757.513278
9989.370000	-15845.850000	6592.545000	10931.805000	-35136.720000	-34004.205000	2507.625000	8126.235000	-10.745056	-1.584100	-1.689367	-2.906446	-10.317083	-20.555930	1.902889	2.055729	-1.739640	4.089680	-0.885080	0.889158	-0.359740	0.293884	-1.000000	-1.000000	-1.000000	-1.000000	-1.000000	-1.000000	-1.000000	67.310345	0.000000	-1.000000	-1.000000	1600224.000000	1773690757.513291
9987.750000	-15858.765000	6578.055000	10917.495000	-35147.295000	-34007.355000	2494.170000	8121.825000	-12.606119	-4.382365	-3.793536	-2.905125	-3.606276	-4.037302	0.046157	3.327334	-1.739640	4.089680	-0.885080	0.889158	-0.359740	0.293884	-1.000000	-1.000000	-1.000000	-1.000000	-1.000000	-1.000000	-1.000000	67.310345	0.000000	-1.000000	-1.000000	1600225.000000	1773690757.513306
9989.910000	-15851.970000	6582.960000	10924.020000	-35132.895000	-33986.115000	2493.585000	8110.710000	-13.558520	-7.075597	-6.124653	-3.366986	3.296074	14.288364	-1.952701	3.029534	-1.739640	4.089680	-0.885080	0.889158	-0.359740	0.293884	-1.000000	-1.000000	-1.000000	-1.000000	-1.000000	-1.000000	-1.000000	67.310345	0.000000	-1.000000	-1.000000	1600226.000000	1773690757.513312
9990.180000	-15850.305000	6585.660000	10929.285000	-35120.295000	-33966.270000	2497.545000	8104.320000	-10.801399	-7.610925	-6.971732	-3.546586	7.996179	25.368549	-2.983799	-0.016001	-1.739640	4.089680	-0.885080	0.889158	-0.359740	0.293884	-1.000000	-1.000000	-1.000000	-1.000000	-1.000000	-1.000000	-1.000000	67.310345	0.000000	-1.000000	-1.000000	1600227.000000	1773690757.514211
9997.920000	-15839.325000	6597.405000	10939.635000	-35110.080000	-33952.320000	2502.540000	8105.085000	-2.195242	-4.977653	-5.150671	-2.413719	10.225629	26.641293	-2.257734	-4.021230	-1.739640	4.089680	-0.885080	0.889158	-0.359740	0.293884	-1.000000	-1.000000	-1.000000	-1.000000	-1.000000	-1.000000	-1.000000	67.310345	0.000000	-1.000000	-1.000000	1600228.000000	1773690757.514296
9994.365000	-15841.485000	6596.460000	10938.555000	-35111.970000	-33955.245000	2501.955000	8102.205000	8.894124	-0.490336	-1.238493	0.130170	11.079786	22.327612	-0.234336	-6.359660	-1.739640	4.089680	-0.885080	0.889158	-0.359740	0.293884	-1.000000	-1.000000	-1.000000	-1.000000	-1.000000	-1.000000	-1.000000	67.310345	0.000000	-1.000000	-1.000000	1600229.000000	1773690757.516159
9984.780000	-15855.750000	6582.915000	10922.715000	-35131.365000	-33984.405000	2497.095000	8095.860000	15.629331	3.760425	3.321025	3.424622	11.072738	16.865704	1.804541	-5.782717	-1.739640	4.089680	-0.885080	0.889158	-0.359740	0.293884	-1.000000	-1.000000	-1.000000	-1.000000	-1.000000	-1.000000	-1.000000	67.310345	0.000000	-1.000000	-1.000000	1600230.000000	1773690757.516169
9983.520000	-15857.415000	6579.810000	10919.430000	-35127.540000	-33975.090000	2497.230000	8094.510000	14.834673	6.137234	6.679358	5.905208	8.407282	8.978840	2.773748	-2.607879	2.990960	4.150720	-0.701960	0.890562	-0.362975	0.294921	-1.000000	-1.000000	-1.000000	-1.000000	-1.000000	-1.000000	-1.000000	67.310345	0.000000	-1.000000	-1.000000	1600231.000000	1773690757.519288
9994.140000	-15840.720000	6595.155000	10932.705000	-35117.820000	-33964.245000	2500.335000	8101.125000	9.740155	6.311088	7.500411	6.125831	2.120871	-3.101195	2.348227	1.472450	2.990960	4.150720	-0.701960	0.890562	-0.362975	0.294921	-1.000000	-1.000000	-1.000000	-1.000000	-1.000000	-1.000000	-1.000000	67.310345	0.000000	-1.000000	-1.000000	1600232.000000	1773690757.519298
10002.060000	-15825.150000	6608.880000	10945.170000	-35117.460000	-33974.505000	2496.330000	8106.030000	4.769548	5.762046	6.481384	4.608888	-5.049102	-15.816262	1.064921	4.170720	2.990960	4.150720	-0.701960	0.890562	-0.362975	0.294921	-1.000000	-1.000000	-1.000000	-1.000000	-1.000000	-1.000000	-1.000000	67.310345	0.000000	-1.000000	-1.000000	1600233.000000	1773690757.523464
9987.120000	-15838.695000	6598.440000	10938.780000	-35121.330000	-33971.355000	2494.305000	8104.140000	0.779543	5.579061	5.040352	2.875364	-9.621703	-23.789222	-0.097294	4.451238	2.990960	4.150720	-0.701960	0.890562	-0.362975	0.294921	-1.000000	-1.000000	-1.000000	-1.000000	-1.000000	-1.000000	-1.000000	67.310345	0.000000	-1.000000	-1.000000	1600234.000000	1773690757.523476
9982.575000	-15834.330000	6608.160000	10951.110000	-35099.550000	-33941.430000	2505.330000	8104.860000	-3.313705	4.446091	3.012324	1.182326	-10.508420	-24.310761	-0.385270	3.247257	2.990960	4.150720	-0.701960	0.890562	-0.362975	0.294921	-1.000000	-1.000000	-1.000000	-1.000000	-1.000000	-1.000000	-1.000000	67.310345	0.000000	-1.000000	-1.000000	1600235.000000	1773690757.529319
10006.875000	-15813.315000	6627.330000	10968.525000	-35083.620000	-33932.025000	2506.230000	8089.875000	-6.841284	1.055143	-0.161966	-0.911504	-8.314102	-17.687791	0.188961	1.884803	2.990960	4.150720	-0.701960	0.890562	-0.362975	0.294921	-1.000000	-1.000000	-1.000000	-1.000000	-1.000000	-1.000000	-1.000000	67.310345	0.000000	-1.000000	-1.000000	1600236.000000	1773690757.529402
10025.055000	-15800.715000	6633.630000	10965.555000	-35106.345000	-33964.785000	2494.395000	8057.115000	-7.475381	-3.317993	-3.636203	-3.128642	-4.297526	-6.673515	0.581013	0.113953	2.990960	4.150720	-0.701960	0.890562	-0.362975	0.294921	-1.000000	-1.000000	-1.000000	-1.000000	-1.000000	-1.000000	-1.000000	67.310345	0.000000	-1.000000	-1.000000	1600237.000000	1773690757.531920
10010.745000	-15815.250000	6616.980000	10946.205000	-35129.115000	-33986.970000	2477.745000	8076.285000	-4.766823	-6.346794	-6.063833	-4.902863	-0.497972	4.314906	-0.497635	-2.585018	2.990960	4.150720	-0.701960	0.890562	-0.362975	0.294921	-1.000000	-1.000000	-1.000000	-1.000000	-1.000000	-1.000000	-1.000000	67.310345	0.000000	-1.000000	-1.000000	1600238.000000	1773690757.531934
9976.860000	-15867.765000	6566.445000	10907.460000	-35141.445000	-33969.645000	2492.595000	8113.230000	-1.546012	-7.639184	-7.411485	-6.245749	1.245456	11.589817	-2.709041	-3.794183	2.990960	4.150720	-0.701960	0.890562	-0.362975	0.294921	-1.000000	-1.000000	-1.000000	-1.000000	-1.000000	-1.000000	-1.000000	67.310345	0.000000	-1.000000	-1.000000	1600239.000000	1773690757.536772
9970.110000	-15876.495000	6565.680000	10910.430000	-35130.690000	-33964.290000	2504.610000	8099.235000	-0.801242	-8.819223	-8.753554	-7.422398	0.907414	13.993756	-3.737897	-0.807732	2.990960	4.150720	-0.701960	0.890562	-0.362975	0.294921	-1.000000	-1.000000	-1.000000	-1.000000	-1.000000	-1.000000	-1.000000	67.310345	0.000000	-1.000000	-1.000000	1600240.000000	1773690757.536785
10002.870000	-15853.815000	6591.645000	10936.035000	-35104.590000	-33946.920000	2507.985000	8107.785000	-2.119333	-9.803144	-9.314667	-7.323041	0.527388	12.317165	-1.885778	4.109156	0.335720	2.197440	-2.868880	0.887022	-0.356994	0.297240	-1.000000	-1.000000	-1.000000	-1.000000	-1.000000	-1.000000	-1.000000	67.310345	0.000000	-1.000000	-1.000000	1600241.000000	1773690757.539163
10012.905000	-15844.005000	6596.055000	10936.350000	-35111.115000	-33936.840000	2498.445000	8109.585000	-2.287190	-7.558593	-6.212944	-3.905767	2.159375	8.482092	1.791092	6.305588	0.335720	2.197440	-2.868880	0.887022	-0.356994	0.297240	-1.000000	-1.000000	-1.000000	-1.000000	-1.000000	-1.000000	-1.000000	67.310345	0.000000	-1.000000	-1.000000	1600242.000000	1773690757.539174
9975.060000	-15840.270000	6599.970000	10941.030000	-35107.380000	-33925.050000	2503.530000	8112.735000	0.207771	-0.404538	1.222469	2.546968	5.010028	4.196181	4.586529	4.330880	0.335720	2.197440	-2.868880	0.887022	-0.356994	0.297240	-1.000000	-1.000000	-1.000000	-1.000000	-1.000000	-1.000000	-1.000000	67.310345	0.000000	-1.000000	-1.000000	1600243.000000	1773690757.543128
9936.945000	-15841.215000	6600.645000	10941.615000	-35112.870000	-33956.820000	2494.530000	8091.810000	2.432938	8.675259	9.361945	8.548648	5.836794	-0.952720	4.472584	-0.093081	0.335720	2.197440	-2.868880	0.887022	-0.356994	0.297240	-1.000000	-1.000000	-1.000000	-1.000000	-1.000000	-1.000000	-1.000000	67.310345	0.000000	-1.000000	-1.000000	1600244.000000	1773690757.543138
9969.975000	-15840.810000	6594.660000	10933.200000	-35134.065000	-34002.855000	2488.680000	8101.080000	1.045049	14.016143	13.061941	10.217661	2.526913	-8.141506	1.348943	-4.298313	0.335720	2.197440	-2.868880	0.887022	-0.356994	0.297240	-1.000000	-1.000000	-1.000000	-1.000000	-1.000000	-1.000000	-1.000000	67.310345	0.000000	-1.000000	-1.000000	1600245.000000	1773690757.547233
10000.530000	-15857.100000	6582.780000	10930.635000	-35128.080000	-33988.005000	2504.610000	8113.005000	-1.962342	12.128206	9.990981	6.715940	-2.974829	-14.782036	-2.488880	-5.531768	0.335720	2.197440	-2.868880	0.887022	-0.356994	0.297240	-1.000000	-1.000000	-1.000000	-1.000000	-1.000000	-1.000000	-1.000000	67.310345	0.000000	-1.000000	-1.000000	1600246.000000	1773690757.547246
10010.835000	-15856.830000	6587.820000	10938.060000	-35105.220000	-33955.965000	2510.010000	8092.395000	-1.224544	4.997510	3.062108	1.490286	-5.503857	-14.467336	-3.699825	-3.466665	0.335720	2.197440	-2.868880	0.887022	-0.356994	0.297240	-1.000000	-1.000000	-1.000000	-1.000000	-1.000000	-1.000000	-1.000000	67.310345	0.000000	-1.000000	-1.000000	1600247.000000	1773690757.552381
10006.560000	-15848.325000	6588.900000	10932.120000	-35106.840000	-33947.505000	2502.360000	8064.675000	4.954099	-1.337832	-1.867192	-0.946790	-2.052733	-4.639334	-1.668304	-1.790759	0.335720	2.197440	-2.868880	0.887022	-0.356994	0.297240	-1.000000	-1.000000	-1.000000	-1.000000	-1.000000	-1.000000	-1.000000	67.310345	0.000000	-1.000000	-1.000000	1600248.000000	1773690757.552391
9983.070000	-15845.310000	6594.885000	10936.035000	-35111.295000	-33955.650000	2499.840000	8095.185000	11.603198	-2.739356	-2.015817	-0.028540	4.059158	8.606609	0.644692	-3.026217	0.335720	2.197440	-2.868880	0.887022	-0.356994	0.297240	-1.000000	-1.000000	-1.000000	-1.000000	-1.000000	-1.000000	-1.000000	67.310345	0.000000	-1.000000	-1.000000	1600249.000000	1773690757.555184
9997.605000	-15854.040000	6587.820000	10930.455000	-35130.645000	-33995.295000	2495.700000	8127.945000	11.529397	-1.057155	-0.161513	0.811544	6.421374	15.565799	0.774812	-4.060775	0.335720	2.197440	-2.868880	0.887022	-0.356994	0.297240	-1.000000	-1.000000	-1.000000	-1.000000	-1.000000	-1.000000	-1.000000	67.310345	0.000000	-1.000000	-1.000000	1600250.000000	1773690757.555195
9991.800000	-15860.295000	6578.685000	10921.545000	-35141.805000	-33993.945000	2493.315000	8120.430000	3.380862	-0.740902	-0.341127	-1.111462	2.252630	11.217090	-0.728121	-1.039190	-5.432560	1.403920	-3.494540	0.887083	-0.350219	0.295531	-1.000000	-1.000000	-1.000000	-1.000000	-1.000000	-1.000000	-1.000000	67.310345	0.000000	-1.000000	-1.000000	1600251.000000	1773690757.561169
9995.760000	-15850.485000	6585.750000	10928.115000	-35121.780000	-33965.955000	2498.400000	8111.655000	-6.438557	-3.108815	-3.226878	-4.944411	-5.157278	-0.346678	-1.960348	4.682435	-5.432560	1.403920	-3.494540	0.887083	-0.350219	0.295531	-1.000000	-1.000000	-1.000000	-1.000000	-1.000000	-1.000000	-1.000000	67.310345	0.000000	-1.000000	-1.000000	1600252.000000	1773690757.561179
10019.475000	-15846.840000	6588.810000	10933.470000	-35108.505000	-33947.415000	2507.085000	8120.295000	-10.554918	-5.788515	-6.256885	-7.624677	-9.514491	-8.818637	-1.520527	8.853638	-5.432560	1.403920	-3.494540	0.887083	-0.350219	0.295531	-1.000000	-1.000000	-1.000000	-1.000000	-1.000000	-1.000000	-1.000000	67.310345	0.000000	-1.000000	-1.000000	1600253.000000	1773690757.567466
10007.280000	-15848.145000	6590.520000	10935.945000	-35104.095000	-33941.970000	2497.455000	8109.630000	-7.947110	-6.172611	-6.596589	-6.632480	-6.745476	-6.729299	0.622990	8.977075	-5.432560	1.403920	-3.494540	0.887083	-0.350219	0.295531	-1.000000	-1.000000	-1.000000	-1.000000	-1.000000	-1.000000	-1.000000	67.310345	0.000000	-1.000000	-1.000000	1600254.000000	1773690757.567477
10000.755000	-15844.095000	6596.910000	10941.885000	-35083.620000	-33911.415000	2498.130000	8104.680000	-3.815012	-3.455938	-3.255100	-1.853156	1.695586	3.817266	2.718674	4.831686	-5.432560	1.403920	-3.494540	0.887083	-0.350219	0.295531	-1.000000	-1.000000	-1.000000	-1.000000	-1.000000	-1.000000	-1.000000	67.310345	0.000000	-1.000000	-1.000000	1600255.000000	1773690757.567489
10011.870000	-15819.210000	6617.385000	10953.900000	-35087.490000	-33917.580000	2501.865000	8109.585000	-2.180908	1.787631	2.767942	4.604350	10.059883	13.465156	2.941242	-1.549516	-5.432560	1.403920	-3.494540	0.887083	-0.350219	0.295531	-1.000000	-1.000000	-1.000000	-1.000000	-1.000000	-1.000000	-1.000000	67.310345	0.000000	-1.000000	-1.000000	1600256.000000	1773690757.567494
10021.455000	-15805.305000	6628.410000	10957.680000	-35114.490000	-33974.460000	2500.740000	8114.940000	-1.628114	7.787343	8.959008	9.753593	12.344095	13.170808	1.400070	-6.285712	-5.432560	1.403920	-3.494540	0.887083	-0.350219	0.295531	-1.000000	-1.000000	-1.000000	-1.000000	-1.000000	-1.000000	-1.000000	67.310345	0.000000	-1.000000	-1.000000	1600257.000000	1773690757.571232
10021.410000	-15855.345000	6583.635000	10925.460000	-35126.910000	-33987.600000	2510.235000	8123.310000	0.490147	10.712217	11.260535	10.396377	6.322806	1.082011	-0.366603	-7.263258	-5.432560	1.403920	-3.494540	0.887083	-0.350219	0.295531	-1.000000	-1.000000	-1.000000	-1.000000	-1.000000	-1.000000	-1.000000	67.310345	0.000000	-1.000000	-1.000000	1600258.000000	1773690757.571243
10010.835000	-15847.290000	6591.600000	10931.715000	-35124.615000	-33993.090000	2514.150000	8123.040000	3.384330	6.872991	6.545360	4.995494	-4.174829	-14.976453	-0.871563	-5.851099	-5.432560	1.403920	-3.494540	0.887083	-0.350219	0.295531	-1.000000	-1.000000	-1.000000	-1.000000	-1.000000	-1.000000	-1.000000	67.310345	0.000000	-1.000000	-1.000000	1600259.000000	1773690757.575230
10003.680000	-15842.430000	6598.710000	10941.165000	-35110.530000	-33961.455000	2512.080000	8123.040000	4.478358	-2.064956	-2.757586	-3.411763	-11.856539	-23.645823	0.053481	-3.783718	-5.432560	1.403920	-3.494540	0.887083	-0.350219	0.295531	-1.000000	-1.000000	-1.000000	-1.000000	-1.000000	-1.000000	-1.000000	67.310345	0.000000	-1.000000	-1.000000	1600260.000000	1773690757.575242
10018.845000	-15835.905000	6607.800000	10954.575000	-35089.290000	-33939.630000	2512.260000	8117.280000	3.230225	-9.896499	-10.174542	-9.170399	-12.052090	-19.239848	0.996986	-1.261166	-7.584220	0.412020	-3.998120	0.887510	-0.352050	0.295531	-1.000000	-1.000000	-1.000000	-1.000000	-1.000000	-1.000000	-1.000000	67.310345	0.000000	-1.000000	-1.000000	1600261.000000	1773690757.579532
10017.720000	-15826.230000	6619.185000	10965.240000	-35078.940000	-33928.335000	2517.570000	8105.355000	0.935088	-11.933665	-11.341403	-9.064269	-5.442949	-4.511580	0.717604	1.361438	-7.584220	0.412020	-3.998120	0.887510	-0.352050	0.295531	-1.000000	-1.000000	-1.000000	-1.000000	-1.000000	-1.000000	-1.000000	67.310345	0.000000	-1.000000	-1.000000	1600262.000000	1773690757.579544
10008.180000	-15820.245000	6627.285000	10970.955000	-35077.860000	-33924.105000	2523.915000	8093.070000	-1.386032	-7.574830	-6.326869	-3.984903	3.532502	12.141670	-0.352170	2.820270	-7.584220	0.412020	-3.998120	0.887510	-0.352050	0.295531	-1.000000	-1.000000	-1.000000	-1.000000	-1.000000	-1.000000	-1.000000	67.310345	0.000000	-1.000000	-1.000000	1600263.000000	1773690757.584478
10011.555000	-15824.295000	6617.295000	10957.320000	-35088.255000	-33937.965000	2514.960000	8073.540000	-3.048811	0.206257	1.238904	2.236025	9.251021	21.248743	-1.219231	2.273045	-7.584220	0.412020	-3.998120	0.887510	-0.352050	0.295531	-1.000000	-1.000000	-1.000000	-1.000000	-1.000000	-1.000000	-1.000000	67.310345	0.000000	-1.000000	-1.000000	1600264.000000	1773690757.584489
10031.535000	-15823.215000	6612.930000	10949.985000	-35096.175000	-33942.330000	2514.825000	8094.060000	-3.069183	6.393370	6.202275	5.220089	8.489768	18.336701	-1.817602	0.507802	-7.584220	0.412020	-3.998120	0.887510	-0.352050	0.295531	-1.000000	-1.000000	-1.000000	-1.000000	-1.000000	-1.000000	-1.000000	67.310345	0.000000	-1.000000	-1.000000	1600265.000000	1773690757.587056
10021.275000	-15830.685000	6608.880000	10944.765000	-35111.295000	-33974.280000	2511.810000	8132.220000	-1.052455	7.578027	5.801631	3.418209	2.882874	7.215794	-2.387456	-0.010607	-7.584220	0.412020	-3.998120	0.887510	-0.352050	0.295531	-1.000000	-1.000000	-1.000000	-1.000000	-1.000000	-1.000000	-1.000000	67.310345	0.000000	-1.000000	-1.000000	1600266.000000	1773690757.587069
10006.020000	-15835.860000	6608.205000	10946.160000	-35108.415000	-33964.335000	2507.805000	8140.950000	1.437097	4.751158	2.088700	-0.579432	-3.097130	-4.239123	-2.743095	2.378241	-7.584220	0.412020	-3.998120	0.887510	-0.352050	0.295531	-1.000000	-1.000000	-1.000000	-1.000000	-1.000000	-1.000000	-1.000000	67.310345	0.000000	-1.000000	-1.000000	1600267.000000	1773690757.591181
10006.695000	-15827.895000	6620.850000	10962.360000	-35087.445000	-33931.620000	2510.325000	8124.300000	2.349082	1.234448	-0.869503	-2.853465	-5.687781	-10.002447	-2.509825	5.790655	-7.584220	0.412020	-3.998120	0.887510	-0.352050	0.295531	-1.000000	-1.000000	-1.000000	-1.000000	-1.000000	-1.000000	-1.000000	67.310345	0.000000	-1.000000	-1.000000	1600268.000000	1773690757.591192
10013.535000	-15828.525000	6620.130000	10964.340000	-35084.115000	-33932.205000	2515.995000	8117.145000	1.762080	-1.031768	-1.323408	-1.931959	-4.052461	-8.879445	-1.248320	6.470386	-7.584220	0.412020	-3.998120	0.887510	-0.352050	0.295531	-1.000000	-1.000000	-1.000000	-1.000000	-1.000000	-1.000000	-1.000000	67.310345	0.000000	-1.000000	-1.000000	1600269.000000	1773690757.595186
10020.375000	-15825.195000	6615.900000	10956.780000	-35098.155000	-33969.060000	2514.195000	8114.085000	0.920199	-2.069525	-0.523931	0.362212	-0.856991	-4.997844	0.998412	3.015308	-7.584220	0.412020	-3.998120	0.887510	-0.352050	0.295531	-1.000000	-1.000000	-1.000000	-1.000000	-1.000000	-1.000000	-1.000000	67.310345	0.000000	-1.000000	-1.000000	1600270.000000	1773690757.595195
10011.780000	-15832.440000	6609.330000	10946.835000	-35105.805000	-33970.635000	2507.580000	8114.130000	0.253209	-2.527531	-0.474084	1.203213	0.390214	-3.449846	3.068857	-2.283171	-4.379620	1.831200	-3.845520	0.888425	-0.355712	0.297424	-1.000000	-1.000000	-1.000000	-1.000000	-1.000000	-1.000000	-1.000000	67.310345	0.000000	-1.000000	-1.000000	1600271.000000	1773690757.599222
10001.610000	-15846.165000	6600.015000	10941.030000	-35100.855000	-33951.960000	2511.765000	8118.135000	-0.397226	-2.915548	-1.804489	-0.324249	-0.925655	-4.518244	3.618534	-5.736041	-4.379620	1.831200	-3.845520	0.888425	-0.355712	0.297424	-1.000000	-1.000000	-1.000000	-1.000000	-1.000000	-1.000000	-1.000000	67.310345	0.000000	-1.000000	-1.000000	1600272.000000	1773690757.599230
10004.265000	-15840.270000	6602.490000	10939.275000	-35103.690000	-33953.580000	2511.135000	8123.445000	-1.242515	-3.235175	-3.321115	-2.471548	-2.336283	-4.260233	2.673008	-5.291335	-4.379620	1.831200	-3.845520	0.888425	-0.355712	0.297424	-1.000000	-1.000000	-1.000000	-1.000000	-1.000000	-1.000000	-1.000000	67.310345	0.000000	-1.000000	-1.000000	1600273.000000	1773690757.603234
9994.725000	-15850.080000	6592.905000	10930.320000	-35108.190000	-33951.915000	2507.085000	8116.785000	-2.344517	-2.872679	-3.338325	-2.901346	-1.336999	0.158675	1.254541	-2.456168	-4.379620	1.831200	-3.845520	0.888425	-0.355712	0.297424	-1.000000	-1.000000	-1.000000	-1.000000	-1.000000	-1.000000	-1.000000	67.310345	0.000000	-1.000000	-1.000000	1600274.000000	1773690757.603244
9995.625000	-15848.280000	6597.720000	10939.905000	-35099.280000	-33940.575000	2507.130000	8114.985000	-3.050933	-1.120946	-1.203970	-0.829292	2.303266	7.754269	0.043172	-1.121815	-4.379620	1.831200	-3.845520	0.888425	-0.355712	0.297424	-1.000000	-1.000000	-1.000000	-1.000000	-1.000000	-1.000000	-1.000000	67.310345	0.000000	-1.000000	-1.000000	1600275.000000	1773690757.607088
9995.895000	-15839.235000	6606.855000	10949.445000	-35095.410000	-33939.090000	2512.980000	8108.640000	-2.065758	2.104220	2.441395	2.854921	6.513352	14.286572	-0.651848	-2.971858	-4.379620	1.831200	-3.845520	0.888425	-0.355712	0.297424	-1.000000	-1.000000	-1.000000	-1.000000	-1.000000	-1.000000	-1.000000	67.310345	0.000000	-1.000000	-1.000000	1600276.000000	1773690757.607094
10013.760000	-15822.990000	6620.670000	10961.010000	-35093.160000	-33948.990000	2514.375000	8100.090000	1.147263	5.749860	5.974920	6.147006	8.127971	14.325088	-0.654087	-5.365696	-4.379620	1.831200	-3.845520	0.888425	-0.355712	0.297424	-1.000000	-1.000000	-1.000000	-1.000000	-1.000000	-1.000000	-1.000000	67.310345	0.000000	-1.000000	-1.000000	1600277.000000	1773690757.612546
10030.680000	-15808.680000	6634.260000	10974.285000	-35078.580000	-33934.590000	2516.895000	8111.295000	5.330896	8.151063	7.750152	7.185085	5.537086	6.305350	-0.252918	-4.655623	-4.379620	1.831200	-3.845520	0.888425	-0.355712	0.297424	-1.000000	-1.000000	-1.000000	-1.000000	-1.000000	-1.000000	-1.000000	67.310345	0.000000	-1.000000	-1.000000	1600278.000000	1773690757.612557
10022.265000	-15824.340000	6618.600000	10960.425000	-35078.850000	-33917.715000	2516.040000	8126.145000	7.957636	7.847440	6.918896	5.522144	0.636160	-4.191368	0.046158	0.321025	-4.379620	1.831200	-3.845520	0.888425	-0.355712	0.297424	-1.000000	-1.000000	-1.000000	-1.000000	-1.000000	-1.000000	-1.000000	67.310345	0.000000	-1.000000	-1.000000	1600279.000000	1773690757.615016
10010.295000	-15830.235000	6614.910000	10954.170000	-35076.780000	-33909.795000	2514.195000	8119.485000	6.897488	4.108158	3.295084	1.698054	-3.376189	-9.933395	0.011639	7.373335	-4.379620	1.831200	-3.845520	0.888425	-0.355712	0.297424	-1.000000	-1.000000	-1.000000	-1.000000	-1.000000	-1.000000	-1.000000	67.310345	0.000000	-1.000000	-1.000000	1600280.000000	1773690757.615022
10013.220000	-15828.975000	6620.760000	10960.380000	-35076.600000	-33927.345000	2524.455000	8109.585000	2.238420	-1.832362	-1.908957	-2.895675	-5.065498	-9.522371	-0.235206	12.002390	-0.335720	2.533160	-2.258480	0.892881	-0.359313	0.296569	-1.000000	-1.000000	-1.000000	-1.000000	-1.000000	-1.000000	-1.000000	67.310345	0.000000	-1.000000	-1.000000	1600281.000000	1773690757.623985
10026.180000	-15803.415000	6641.100000	10973.610000	-35079.210000	-33952.095000	2516.310000	8100.045000	-3.443230	-6.691914	-5.785690	-5.813405	-4.688927	-6.740765	-0.372753	10.544085	-0.335720	2.533160	-2.258480	0.892881	-0.359313	0.296569	-1.000000	-1.000000	-1.000000	-1.000000	-1.000000	-1.000000	-1.000000	67.310345	0.000000	-1.000000	-1.000000	1600282.000000	1773690757.623997
10010.115000	-15800.130000	6637.410000	10966.905000	-35088.750000	-33948.990000	2514.420000	8108.055000	-7.054724	-7.383502	-5.976893	-5.389905	-3.144928	-4.810836	-0.391118	3.337560	-0.335720	2.533160	-2.258480	0.892881	-0.359313	0.296569	-1.000000	-1.000000	-1.000000	-1.000000	-1.000000	-1.000000	-1.000000	67.310345	0.000000	-1.000000	-1.000000	1600283.000000	1773690757.624010
9968.805000	-15819.930000	6621.120000	10955.520000	-35101.080000	-33956.955000	2512.845000	8107.380000	-7.924888	-4.095562	-3.351956	-2.900245	-1.845743	-3.839718	-0.601327	-5.272940	-0.335720	2.533160	-2.258480	0.892881	-0.359313	0.296569	-1.000000	-1.000000	-1.000000	-1.000000	-1.000000	-1.000000	-1.000000	67.310345	0.000000	-1.000000	-1.000000	1600284.000000	1773690757.624015
10014.930000	-15818.265000	6624.675000	10962.945000	-35091.585000	-33944.265000	2515.950000	8111.970000	-7.155309	-0.640259	-1.299213	-1.291004	-1.826054	-2.563692	-1.034427	-10.110902	-0.335720	2.533160	-2.258480	0.892881	-0.359313	0.296569	-1.000000	-1.000000	-1.000000	-1.000000	-1.000000	-1.000000	-1.000000	67.310345	0.000000	-1.000000	-1.000000	1600285.000000	1773690757.638373
10024.110000	-15844.005000	6603.705000	10952.280000	-35084.475000	-33919.110000	2520.585000	8120.835000	-4.448373	-0.598509	-2.094740	-1.921635	-2.387514	0.219579	-1.286972	-8.665133	-0.335720	2.533160	-2.258480	0.892881	-0.359313	0.296569	-1.000000	-1.000000	-1.000000	-1.000000	-1.000000	-1.000000	-1.000000	67.310345	0.000000	-1.000000	-1.000000	1600286.000000	1773690757.638385
10033.110000	-15836.220000	6607.755000	10952.730000	-35084.880000	-33925.815000	2506.860000	8124.885000	0.441603	-3.876622	-4.883266	-3.677130	-1.985471	4.640171	-1.089620	-2.599872	-0.335720	2.533160	-2.258480	0.892881	-0.359313	0.296569	-1.000000	-1.000000	-1.000000	-1.000000	-1.000000	-1.000000	-1.000000	67.310345	0.000000	-1.000000	-1.000000	1600287.000000	1773690757.641031
10021.410000	-15841.710000	6603.075000	10945.395000	-35081.730000	-33916.455000	2496.960000	8114.760000	5.497672	-6.688962	-6.398041	-4.203215	-0.074432	8.424890	-0.853317	3.546436	-0.335720	2.533160	-2.258480	0.892881	-0.359313	0.296569	-1.000000	-1.000000	-1.000000	-1.000000	-1.000000	-1.000000	-1.000000	67.310345	0.000000	-1.000000	-1.000000	1600288.000000	1773690757.641044
9997.740000	-15868.530000	6575.760000	10923.435000	-35070.300000	-33873.075000	2502.270000	8127.675000	7.932148	-5.503917	-4.275969	-2.200452	2.762075	9.386923	-0.953336	6.168357	-0.335720	2.533160	-2.258480	0.892881	-0.359313	0.296569	-1.000000	-1.000000	-1.000000	-1.000000	-1.000000	-1.000000	-1.000000	67.310345	0.000000	-1.000000	-1.000000	1600289.000000	1773690757.641058
10006.830000	-15848.550000	6596.280000	10943.955000	-35051.715000	-33853.455000	2514.735000	8127.810000	6.107497	-0.803146	0.354719	1.281827	5.703229	8.723099	-0.730934	5.260376	-0.335720	2.533160	-2.258480	0.892881	-0.359313	0.296569	-1.000000	-1.000000	-1.000000	-1.000000	-1.000000	-1.000000	-1.000000	67.310345	0.000000	-1.000000	-1.000000	1600290.000000	1773690757.641064
10022.895000	-15828.390000	6611.715000	10948.050000	-35101.980000	-33953.445000	2519.685000	8119.530000	1.410423	4.848304	5.239467	4.736482	7.291228	6.984135	0.877233	2.603679	1.907500	2.823100	-1.373400	0.894407	-0.360351	0.294921	-1.000000	-1.000000	-1.000000	-1.000000	-1.000000	-1.000000	-1.000000	67.310345	0.000000	-1.000000	-1.000000	1600291.000000	1773690757.643102
10031.085000	-15805.845000	6635.565000	10968.660000	-35112.555000	-34007.085000	2525.400000	8129.160000	-1.896932	9.959259	9.575940	7.653673	5.169476	0.094748	3.719944	-0.658851	1.907500	2.823100	-1.373400	0.894407	-0.360351	0.294921	-1.000000	-1.000000	-1.000000	-1.000000	-1.000000	-1.000000	-1.000000	67.310345	0.000000	-1.000000	-1.000000	1600292.000000	1773690757.643113
10021.455000	-15809.400000	6634.575000	10973.925000	-35098.965000	-33977.790000	2524.680000	8132.220000	-1.095862	13.484912	12.737133	9.588221	-0.587511	-12.753708	5.998076	-3.401810	1.907500	2.823100	-1.373400	0.894407	-0.360351	0.294921	-1.000000	-1.000000	-1.000000	-1.000000	-1.000000	-1.000000	-1.000000	67.310345	0.000000	-1.000000	-1.000000	1600293.000000	1773690757.643123
10036.845000	-15805.575000	6635.520000	10974.060000	-35094.105000	-33963.750000	2512.620000	8122.950000	1.467452	13.489104	12.769705	9.217524	-6.082304	-22.990726	5.518460	-4.468928	1.907500	2.823100	-1.373400	0.894407	-0.360351	0.294921	-1.000000	-1.000000	-1.000000	-1.000000	-1.000000	-1.000000	-1.000000	67.310345	0.000000	-1.000000	-1.000000	1600294.000000	1773690757.643128
10044.135000	-15810.030000	6629.580000	10970.820000	-35076.600000	-33917.220000	2515.860000	8094.285000	1.722208	8.673946	8.083457	5.359416	-7.612921	-21.182001	1.675328	-4.423713	1.907500	2.823100	-1.373400	0.894407	-0.360351	0.294921	-1.000000	-1.000000	-1.000000	-1.000000	-1.000000	-1.000000	-1.000000	67.310345	0.000000	-1.000000	-1.000000	1600295.000000	1773690757.647258
10037.745000	-15820.425000	6622.515000	10966.905000	-35068.590000	-33903.090000	2520.360000	8093.835000	-1.013079	0.169156	-0.278966	-1.104332	-4.433719	-6.347212	-3.230474	-4.732487	1.907500	2.823100	-1.373400	0.894407	-0.360351	0.294921	-1.000000	-1.000000	-1.000000	-1.000000	-1.000000	-1.000000	-1.000000	67.310345	0.000000	-1.000000	-1.000000	1600296.000000	1773690757.647265
10000.620000	-15844.095000	6602.985000	10945.980000	-35090.460000	-33943.230000	2518.560000	8118.090000	-4.608023	-9.016102	-9.042999	-7.454717	1.008220	12.583115	-5.813946	-4.588236	1.907500	2.823100	-1.373400	0.894407	-0.360351	0.294921	-1.000000	-1.000000	-1.000000	-1.000000	-1.000000	-1.000000	-1.000000	67.310345	0.000000	-1.000000	-1.000000	1600297.000000	1773690757.669741
9987.750000	-15839.685000	6607.080000	10945.485000	-35100.450000	-33958.260000	2515.905000	8122.095000	-7.189247	-15.246712	-14.530852	-11.149163	4.177301	22.325800	-5.161756	-1.631202	1.907500	2.823100	-1.373400	0.894407	-0.360351	0.294921	-1.000000	-1.000000	-1.000000	-1.000000	-1.000000	-1.000000	-1.000000	67.310345	0.000000	-1.000000	-1.000000	1600298.000000	1773690757.669754
10006.020000	-15838.110000	6607.800000	10945.620000	-35100.090000	-33948.720000	2517.030000	8134.110000	-7.664108	-16.125984	-14.766677	-11.207510	2.774305	17.566079	-3.041515	4.098692	1.907500	2.823100	-1.373400	0.894407	-0.360351	0.294921	-1.000000	-1.000000	-1.000000	-1.000000	-1.000000	-1.000000	-1.000000	67.310345	0.000000	-1.000000	-1.000000	1600299.000000	1773690757.669768
10017.045000	-15851.070000	6594.480000	10932.975000	-35126.100000	-33984.630000	2505.555000	8142.660000	-5.043441	-12.293701	-10.801874	-8.370773	-0.602868	6.127468	-1.352084	9.707453	1.907500	2.823100	-1.373400	0.894407	-0.360351	0.294921	-1.000000	-1.000000	-1.000000	-1.000000	-1.000000	-1.000000	-1.000000	67.310345	0.000000	-1.000000	-1.000000	1600300.000000	1773690757.669773
10032.120000	-15837.030000	6608.835000	10946.250000	-35118.090000	-33992.055000	2507.760000	8140.230000	0.885026	-6.163023	-5.174858	-4.168836	-2.233391	-1.874163	-0.751602	11.827120	-3.021480	2.731540	-1.571780	0.894102	-0.353271	0.293945	-1.000000	-1.000000	-1.000000	-1.000000	-1.000000	-1.000000	-1.000000	67.310345	0.000000	-1.000000	-1.000000	1600301.000000	1773690757.669779
10033.380000	-15826.365000	6617.160000	10953.945000	-35104.230000	-33966.630000	2504.880000	8130.420000	8.039683	0.827696	0.762756	0.456076	-1.148189	-4.038281	-0.617306	8.622371	-3.021480	2.731540	-1.571780	0.894102	-0.353271	0.293945	-1.000000	-1.000000	-1.000000	-1.000000	-1.000000	-1.000000	-1.000000	67.310345	0.000000	-1.000000	-1.000000	1600302.000000	1773690757.669784
10020.150000	-15812.235000	6631.695000	10965.735000	-35097.120000	-33964.380000	2498.850000	8122.725000	11.964467	8.052750	6.781635	5.217154	1.383954	-3.456526	0.071807	1.313788	-3.021480	2.731540	-1.571780	0.894102	-0.353271	0.293945	-1.000000	-1.000000	-1.000000	-1.000000	-1.000000	-1.000000	-1.000000	67.310345	0.000000	-1.000000	-1.000000	1600303.000000	1773690757.669789
9994.950000	-15831.990000	6616.395000	10954.395000	-35102.655000	-33960.330000	2505.375000	8119.710000	8.974660	13.618406	11.701855	9.179447	3.250372	-3.525027	1.531463	-6.159959	-3.021480	2.731540	-1.571780	0.894102	-0.353271	0.293945	-1.000000	-1.000000	-1.000000	-1.000000	-1.000000	-1.000000	-1.000000	67.310345	0.000000	-1.000000	-1.000000	1600304.000000	1773690757.669793
9989.955000	-15837.390000	6611.985000	10950.480000	-35098.470000	-33952.005000	2504.925000	8100.270000	0.403787	14.741658	13.196105	10.596316	2.969638	-4.997849	3.211078	-10.375875	-3.021480	2.731540	-1.571780	0.894102	-0.353271	0.293945	-1.000000	-1.000000	-1.000000	-1.000000	-1.000000	-1.000000	-1.000000	67.310345	0.000000	-1.000000	-1.000000	1600305.000000	1773690757.669799
10006.605000	-15822.090000	6621.885000	10955.925000	-35093.745000	-33950.655000	2507.985000	8109.450000	-7.114010	10.990447	10.411242	8.818163	1.298755	-5.424534	4.338320	-10.888534	-3.021480	2.731540	-1.571780	0.894102	-0.353271	0.293945	-1.000000	-1.000000	-1.000000	-1.000000	-1.000000	-1.000000	-1.000000	67.310345	0.000000	-1.000000	-1.000000	1600306.000000	1773690757.669803
10025.280000	-15842.970000	6602.940000	10941.705000	-35099.370000	-33947.100000	2516.040000	8134.965000	-7.452935	4.531138	4.681611	4.714623	0.035327	-2.691501	4.318684	-8.273050	-3.021480	2.731540	-1.571780	0.894102	-0.353271	0.293945	-1.000000	-1.000000	-1.000000	-1.000000	-1.000000	-1.000000	-1.000000	67.310345	0.000000	-1.000000	-1.000000	1600307.000000	1773690757.671118
10010.880000	-15852.645000	6595.155000	10935.405000	-35104.590000	-33948.675000	2512.440000	8133.210000	-1.484763	-2.927620	-2.475982	-0.772018	-0.164276	2.445128	3.121994	-2.737943	-3.021480	2.731540	-1.571780	0.894102	-0.353271	0.293945	-1.000000	-1.000000	-1.000000	-1.000000	-1.000000	-1.000000	-1.000000	67.310345	0.000000	-1.000000	-1.000000	1600308.000000	1773690757.671130
9999.855000	-15850.350000	6597.945000	10936.845000	-35108.190000	-33951.690000	2503.530000	8118.585000	4.087988	-9.779847	-9.097490	-6.233035	0.414032	7.873287	1.020084	3.584120	-3.021480	2.731540	-1.571780	0.894102	-0.353271	0.293945	-1.000000	-1.000000	-1.000000	-1.000000	-1.000000	-1.000000	-1.000000	67.310345	0.000000	-1.000000	-1.000000	1600309.000000	1773690757.692989
9990.630000	-15840.945000	6611.760000	10953.855000	-35086.815000	-33925.095000	2511.045000	8112.780000	4.036207	-13.276253	-12.287369	-9.379036	1.092188	11.114941	-1.536287	7.116791	-3.021480	2.731540	-1.571780	0.894102	-0.353271	0.293945	-1.000000	-1.000000	-1.000000	-1.000000	-1.000000	-1.000000	-1.000000	67.310345	0.000000	-1.000000	-1.000000	1600310.000000	1773690757.693003
9959.040000	-15834.240000	6622.200000	10968.210000	-35062.830000	-33890.895000	2517.525000	8098.155000	-1.458121	-11.612916	-10.311638	-8.516036	1.232946	10.063207	-3.381096	6.490210	-10.483620	1.205540	-2.105880	0.891233	-0.347167	0.294677	-1.000000	-1.000000	-1.000000	-1.000000	-1.000000	-1.000000	-1.000000	67.310345	0.000000	-1.000000	-1.000000	1600311.000000	1773690757.693019
9986.760000	-15817.590000	6635.205000	10978.605000	-35055.585000	-33880.905000	2519.955000	8102.655000	-7.819255	-5.405517	-3.991841	-3.833405	0.868036	4.772621	-3.314451	3.426771	-10.483620	1.205540	-2.105880	0.891233	-0.347167	0.294677	-1.000000	-1.000000	-1.000000	-1.000000	-1.000000	-1.000000	-1.000000	67.310345	0.000000	-1.000000	-1.000000	1600312.000000	1773690757.693024
10034.685000	-15815.745000	6631.560000	10969.020000	-35082.405000	-33930.495000	2511.675000	8114.085000	-8.308940	3.114187	3.908795	2.409395	-0.238732	-3.409219	-1.779072	0.936007	-10.483620	1.205540	-2.105880	0.891233	-0.347167	0.294677	-1.000000	-1.000000	-1.000000	-1.000000	-1.000000	-1.000000	-1.000000	67.310345	0.000000	-1.000000	-1.000000	1600313.000000	1773690757.694482
10041.300000	-15835.995000	6602.850000	10932.975000	-35130.195000	-34003.935000	2502.540000	8123.850000	0.419043	10.366808	9.484707	6.491667	-3.435187	-13.811840	-0.622620	1.004636	-10.483620	1.205540	-2.105880	0.891233	-0.347167	0.294677	-1.000000	-1.000000	-1.000000	-1.000000	-1.000000	-1.000000	-1.000000	67.310345	0.000000	-1.000000	-1.000000	1600314.000000	1773690757.694492
10022.850000	-15836.175000	6604.020000	10931.175000	-35130.105000	-33995.970000	2492.775000	8119.440000	12.593743	12.264485	9.360933	5.438470	-8.897654	-24.010339	-1.160466	2.601467	-10.483620	1.205540	-2.105880	0.891233	-0.347167	0.294677	-1.000000	-1.000000	-1.000000	-1.000000	-1.000000	-1.000000	-1.000000	67.310345	0.000000	-1.000000	-1.000000	1600315.000000	1773690757.694504
9995.085000	-15851.745000	6599.520000	10939.500000	-35095.545000	-33935.940000	2508.210000	8109.180000	17.305636	7.650627	3.966392	0.433782	-12.485018	-26.582635	-2.767883	2.431281	-10.483620	1.205540	-2.105880	0.891233	-0.347167	0.294677	-1.000000	-1.000000	-1.000000	-1.000000	-1.000000	-1.000000	-1.000000	67.310345	0.000000	-1.000000	-1.000000	1600316.000000	1773690757.694509
9996.345000	-15855.345000	6598.080000	10942.380000	-35082.450000	-33915.825000	2506.860000	8114.400000	9.639254	-0.351354	-2.495711	-3.786282	-8.443295	-14.342740	-3.160660	-1.011802	-10.483620	1.205540	-2.105880	0.891233	-0.347167	0.294677	-1.000000	-1.000000	-1.000000	-1.000000	-1.000000	-1.000000	-1.000000	67.310345	0.000000	-1.000000	-1.000000	1600317.000000	1773690757.694515
10017.405000	-15842.880000	6603.255000	10944.270000	-35086.815000	-33920.955000	2499.795000	8129.205000	-4.379477	-7.113798	-6.237492	-4.163843	2.965844	9.210941	-1.001548	-4.969546	-10.483620	1.205540	-2.105880	0.891233	-0.347167	0.294677	-1.000000	-1.000000	-1.000000	-1.000000	-1.000000	-1.000000	-1.000000	67.310345	0.000000	-1.000000	-1.000000	1600318.000000	1773690757.694541
10022.445000	-15854.490000	6589.890000	10933.290000	-35090.865000	-33909.885000	2501.505000	8129.430000	-14.130013	-9.672701	-6.569782	-2.001561	13.770534	29.576623	2.272328	-5.448210	-10.483620	1.205540	-2.105880	0.891233	-0.347167	0.294677	-1.000000	-1.000000	-1.000000	-1.000000	-1.000000	-1.000000	-1.000000	67.310345	0.000000	-1.000000	-1.000000	1600319.000000	1773690757.695409
10017.720000	-15860.250000	6585.345000	10929.330000	-35097.480000	-33906.105000	2498.490000	8119.215000	-13.931379	-8.240934	-5.148487	-0.459858	15.813987	33.733505	4.269870	-1.884774	-10.483620	1.205540	-2.105880	0.891233	-0.347167	0.294677	-1.000000	-1.000000	-1.000000	-1.000000	-1.000000	-1.000000	-1.000000	67.310345	0.000000	-1.000000	-1.000000	1600320.000000	1773690757.695415
10014.705000	-15840.855000	6606.810000	10949.310000	-35081.550000	-33923.295000	2507.805000	8116.605000	-6.691399	-4.605010	-3.137280	-0.482491	8.479998	20.507653	4.115940	2.420746	-9.064440	2.746800	-1.983800	0.890318	-0.353026	0.293884	-1.000000	-1.000000	-1.000000	-1.000000	-1.000000	-1.000000	-1.000000	67.310345	0.000000	-1.000000	-1.000000	1600321.000000	1773690757.703137
10006.515000	-15830.235000	6618.690000	10953.720000	-35108.325000	-33988.230000	2513.295000	8108.460000	0.195232	0.514577	0.425124	0.247726	-1.544544	-0.764873	2.862161	3.783038	-9.064440	2.746800	-1.983800	0.890318	-0.353026	0.293884	-1.000000	-1.000000	-1.000000	-1.000000	-1.000000	-1.000000	-1.000000	67.310345	0.000000	-1.000000	-1.000000	1600322.000000	1773690757.703150
10018.710000	-15817.545000	6631.110000	10960.425000	-35107.470000	-33985.665000	2512.035000	8110.530000	2.393331	6.714312	6.260119	3.799382	-7.230513	-18.098920	1.981482	1.256450	-9.064440	2.746800	-1.983800	0.890318	-0.353026	0.293884	-1.000000	-1.000000	-1.000000	-1.000000	-1.000000	-1.000000	-1.000000	67.310345	0.000000	-1.000000	-1.000000	1600323.000000	1773690757.705871
10032.030000	-15806.205000	6641.460000	10968.030000	-35098.020000	-33967.395000	2516.490000	8124.660000	1.863408	12.047264	12.147434	8.605606	-6.634512	-23.802689	1.623791	-2.752245	-9.064440	2.746800	-1.983800	0.890318	-0.353026	0.293884	-1.000000	-1.000000	-1.000000	-1.000000	-1.000000	-1.000000	-1.000000	67.310345	0.000000	-1.000000	-1.000000	1600324.000000	1773690757.705883
10019.745000	-15821.055000	6628.995000	10965.105000	-35086.590000	-33945.480000	2523.915000	8128.260000	2.510164	13.674601	14.054797	10.627832	-2.505856	-17.723475	0.900824	-4.553924	-9.064440	2.746800	-1.983800	0.890318	-0.353026	0.293884	-1.000000	-1.000000	-1.000000	-1.000000	-1.000000	-1.000000	-1.000000	67.310345	0.000000	-1.000000	-1.000000	1600325.000000	1773690757.707281
10009.080000	-15817.815000	6631.110000	10969.695000	-35076.195000	-33924.195000	2527.695000	8095.185000	4.472766	9.675500	9.432212	7.229264	1.431647	-5.076675	-0.449672	-3.147263	-9.064440	2.746800	-1.983800	0.890318	-0.353026	0.293884	-1.000000	-1.000000	-1.000000	-1.000000	-1.000000	-1.000000	-1.000000	67.310345	0.000000	-1.000000	-1.000000	1600326.000000	1773690757.707291
10001.970000	-15811.965000	6638.670000	10978.470000	-35069.670000	-33916.005000	2527.020000	8083.530000	4.588919	0.907033	-0.257811	-0.329209	3.307853	7.831261	-1.767431	-1.299254	-9.064440	2.746800	-1.983800	0.890318	-0.353026	0.293884	-1.000000	-1.000000	-1.000000	-1.000000	-1.000000	-1.000000	-1.000000	67.310345	0.000000	-1.000000	-1.000000	1600327.000000	1773690757.715031
10009.710000	-15836.400000	6612.435000	10955.655000	-35093.565000	-33942.015000	2510.460000	8124.840000	1.581350	-8.824771	-10.323135	-8.170025	2.645959	14.978195	-2.810139	-0.557993	-9.064440	2.746800	-1.983800	0.890318	-0.353026	0.293884	-1.000000	-1.000000	-1.000000	-1.000000	-1.000000	-1.000000	-1.000000	67.310345	0.000000	-1.000000	-1.000000	1600328.000000	1773690757.715043
10010.070000	-15853.005000	6593.220000	10937.250000	-35100.720000	-33937.515000	2506.995000	8136.540000	-2.088161	-15.712199	-16.842750	-13.400763	-0.686610	12.771451	-4.046028	1.497670	-9.064440	2.746800	-1.983800	0.890318	-0.353026	0.293884	-1.000000	-1.000000	-1.000000	-1.000000	-1.000000	-1.000000	-1.000000	67.310345	0.000000	-1.000000	-1.000000	1600329.000000	1773690757.717152
10008.945000	-15853.815000	6592.500000	10934.730000	-35090.955000	-33908.580000	2505.015000	8138.250000	-3.735932	-17.913782	-18.462794	-15.121738	-5.035254	4.774668	-5.325888	6.097087	-9.064440	2.746800	-1.983800	0.890318	-0.353026	0.293884	-1.000000	-1.000000	-1.000000	-1.000000	-1.000000	-1.000000	-1.000000	67.310345	0.000000	-1.000000	-1.000000	1600330.000000	1773690757.717164
10005.705000	-15852.690000	6592.815000	10932.615000	-35087.040000	-33885.000000	2506.680000	8141.265000	-3.060469	-14.773524	-14.836526	-12.672273	-6.425074	0.123884	-5.439636	10.075600	-2.533160	2.777320	-1.297100	0.892637	-0.362792	0.293761	-1.000000	-1.000000	-1.000000	-1.000000	-1.000000	-1.000000	-1.000000	67.310345	0.000000	-1.000000	-1.000000	1600331.000000	1773690757.719354
10011.735000	-15844.950000	6600.870000	10938.645000	-35096.535000	-33911.730000	2509.380000	8140.140000	-1.266739	-6.835803	-6.479999	-5.871780	-2.811507	2.580590	-3.312116	9.555866	-2.533160	2.777320	-1.297100	0.892637	-0.362792	0.293761	-1.000000	-1.000000	-1.000000	-1.000000	-1.000000	-1.000000	-1.000000	67.310345	0.000000	-1.000000	-1.000000	1600332.000000	1773690757.719365
10011.555000	-15835.005000	6611.850000	10947.510000	-35108.100000	-33976.665000	2511.810000	8135.145000	0.551143	3.615805	4.305106	3.393039	2.478081	4.552062	0.620566	3.603712	-2.533160	2.777320	-1.297100	0.892637	-0.362792	0.293761	-1.000000	-1.000000	-1.000000	-1.000000	-1.000000	-1.000000	-1.000000	67.310345	0.000000	-1.000000	-1.000000	1600333.000000	1773690757.725378
10003.680000	-15841.350000	6609.600000	10947.420000	-35113.815000	-33991.425000	2507.130000	8124.795000	2.009392	13.169254	14.003897	11.638838	4.406845	-2.954873	4.380489	-5.116682	-2.533160	2.777320	-1.297100	0.892637	-0.362792	0.293761	-1.000000	-1.000000	-1.000000	-1.000000	-1.000000	-1.000000	-1.000000	67.310345	0.000000	-1.000000	-1.000000	1600334.000000	1773690757.725389
9993.195000	-15845.040000	6608.205000	10951.290000	-35108.010000	-33966.945000	2500.785000	8113.545000	2.733208	17.979539	18.869067	15.500876	1.795525	-17.319029	5.959058	-11.851715	-2.533160	2.777320	-1.297100	0.892637	-0.362792	0.293761	-1.000000	-1.000000	-1.000000	-1.000000	-1.000000	-1.000000	-1.000000	67.310345	0.000000	-1.000000	-1.000000	1600335.000000	1773690757.731262
9994.860000	-15830.145000	6622.515000	10965.105000	-35099.550000	-33967.440000	2502.810000	8102.565000	2.177805	15.987176	16.958652	13.773718	-2.066720	-26.356588	4.948455	-13.336131	-2.533160	2.777320	-1.297100	0.892637	-0.362792	0.293761	-1.000000	-1.000000	-1.000000	-1.000000	-1.000000	-1.000000	-1.000000	67.310345	0.000000	-1.000000	-1.000000	1600336.000000	1773690757.731272
10008.810000	-15834.105000	6615.675000	10958.580000	-35099.685000	-33961.050000	2499.750000	8108.235000	0.759517	9.321134	10.197896	8.435644	-2.999272	-21.275706	2.764313	-10.199920	-2.533160	2.777320	-1.297100	0.892637	-0.362792	0.293761	-1.000000	-1.000000	-1.000000	-1.000000	-1.000000	-1.000000	-1.000000	67.310345	0.000000	-1.000000	-1.000000	1600337.000000	1773690757.734944
10005.930000	-15857.145000	6592.275000	10936.485000	-35106.480000	-33952.995000	2507.535000	8117.460000	-0.300372	1.676870	2.033591	2.184259	-0.036087	-4.016177	1.107700	-4.843863	-2.533160	2.777320	-1.297100	0.892637	-0.362792	0.293761	-1.000000	-1.000000	-1.000000	-1.000000	-1.000000	-1.000000	-1.000000	67.310345	0.000000	-1.000000	-1.000000	1600338.000000	1773690757.734955
10002.060000	-15850.845000	6599.970000	10941.030000	-35098.335000	-33943.230000	2515.230000	8109.090000	-0.551259	-5.090602	-5.530303	-3.736389	4.112321	15.831719	0.610592	1.102650	-2.533160	2.777320	-1.297100	0.892637	-0.362792	0.293761	-1.000000	-1.000000	-1.000000	-1.000000	-1.000000	-1.000000	-1.000000	67.310345	0.000000	-1.000000	-1.000000	1600339.000000	1773690757.737471
10017.945000	-15829.380000	6614.415000	10947.735000	-35095.680000	-33945.390000	2514.375000	8118.315000	-0.355004	-9.576356	-10.714361	-8.100959	6.525407	28.256163	0.828925	6.266717	-2.533160	2.777320	-1.297100	0.892637	-0.362792	0.293761	-1.000000	-1.000000	-1.000000	-1.000000	-1.000000	-1.000000	-1.000000	67.310345	0.000000	-1.000000	-1.000000	1600340.000000	1773690757.737480
10017.945000	-15832.935000	6609.510000	10940.670000	-35106.705000	-33953.175000	2511.855000	8132.445000	0.057186	-10.178831	-11.781460	-9.538901	6.044740	28.505136	0.646768	9.460890	-0.915600	2.487380	-2.289000	0.890806	-0.359740	0.293945	-1.000000	-1.000000	-1.000000	-1.000000	-1.000000	-1.000000	-1.000000	67.310345	0.000000	-1.000000	-1.000000	1600341.000000	1773690757.749321
9969.255000	-15849.585000	6602.580000	10942.605000	-35100.090000	-33939.090000	2516.310000	8123.940000	-0.121668	-7.451937	-9.158403	-8.189793	2.918399	18.978878	-0.705646	10.287396	-0.915600	2.487380	-2.289000	0.890806	-0.359740	0.293945	-1.000000	-1.000000	-1.000000	-1.000000	-1.000000	-1.000000	-1.000000	67.310345	0.000000	-1.000000	-1.000000	1600342.000000	1773690757.749334
9961.335000	-15838.110000	6619.770000	10964.025000	-35074.125000	-33912.180000	2524.500000	8111.385000	-2.192685	-3.677700	-4.693077	-4.916950	-1.005058	6.145013	-2.465703	8.618569	-0.915600	2.487380	-2.289000	0.890806	-0.359740	0.293945	-1.000000	-1.000000	-1.000000	-1.000000	-1.000000	-1.000000	-1.000000	67.310345	0.000000	-1.000000	-1.000000	1600343.000000	1773690757.749348
10007.055000	-15831.045000	6624.315000	10969.605000	-35068.770000	-33907.590000	2516.310000	8103.240000	-4.633247	-0.210603	0.262849	-0.365470	-3.298618	-4.926437	-3.176309	4.675008	-0.915600	2.487380	-2.289000	0.890806	-0.359740	0.293945	-1.000000	-1.000000	-1.000000	-1.000000	-1.000000	-1.000000	-1.000000	67.310345	0.000000	-1.000000	-1.000000	1600344.000000	1773690757.749353
10038.555000	-15836.895000	6611.220000	10954.350000	-35090.460000	-33925.455000	2503.845000	8117.505000	-3.100202	2.529499	4.315358	3.871013	-3.631491	-12.647244	-2.702321	-0.309349	-0.915600	2.487380	-2.289000	0.890806	-0.359740	0.293945	-1.000000	-1.000000	-1.000000	-1.000000	-1.000000	-1.000000	-1.000000	67.310345	0.000000	-1.000000	-1.000000	1600345.000000	1773690757.749359
10043.055000	-15827.895000	6615.855000	10951.515000	-35103.015000	-33942.645000	2501.595000	8124.705000	3.398360	4.236379	6.088539	5.729940	-3.829336	-17.331002	-2.097854	-4.438834	-0.915600	2.487380	-2.289000	0.890806	-0.359740	0.293945	-1.000000	-1.000000	-1.000000	-1.000000	-1.000000	-1.000000	-1.000000	67.310345	0.000000	-1.000000	-1.000000	1600346.000000	1773690757.749364
10026.225000	-15825.330000	6623.595000	10958.985000	-35087.265000	-33936.840000	2510.460000	8105.535000	9.890594	5.158517	5.845072	5.066764	-4.677176	-19.077655	-1.831119	-6.601841	-0.915600	2.487380	-2.289000	0.890806	-0.359740	0.293945	-1.000000	-1.000000	-1.000000	-1.000000	-1.000000	-1.000000	-1.000000	67.310345	0.000000	-1.000000	-1.000000	1600347.000000	1773690757.751257
10016.730000	-15834.420000	6616.935000	10955.385000	-35073.270000	-33908.130000	2515.860000	8104.500000	10.425763	5.071123	4.495975	3.277755	-4.513863	-16.519254	-1.288863	-7.094471	-0.915600	2.487380	-2.289000	0.890806	-0.359740	0.293945	-1.000000	-1.000000	-1.000000	-1.000000	-1.000000	-1.000000	-1.000000	67.310345	0.000000	-1.000000	-1.000000	1600348.000000	1773690757.751269
10014.345000	-15836.850000	6612.840000	10949.220000	-35079.165000	-33906.195000	2510.505000	8120.160000	3.535832	2.609640	1.777497	1.012411	-1.894218	-8.325594	0.059750	-6.278253	-0.915600	2.487380	-2.289000	0.890806	-0.359740	0.293945	-1.000000	-1.000000	-1.000000	-1.000000	-1.000000	-1.000000	-1.000000	67.310345	0.000000	-1.000000	-1.000000	1600349.000000	1773690757.756050
10020.870000	-15844.725000	6604.380000	10947.915000	-35065.215000	-33875.190000	2517.255000	8131.455000	-6.328584	-2.121461	-2.277441	-1.635279	2.283044	3.963433	1.779925	-3.764474	-0.915600	2.487380	-2.289000	0.890806	-0.359740	0.293945	-1.000000	-1.000000	-1.000000	-1.000000	-1.000000	-1.000000	-1.000000	67.310345	0.000000	-1.000000	-1.000000	1600350.000000	1773690757.756060
10010.655000	-15847.245000	6604.830000	10952.010000	-35068.590000	-33887.385000	2523.060000	8134.380000	-11.959828	-6.333128	-5.920130	-3.904596	5.641057	15.249160	3.057328	0.606907	-4.959500	2.441600	-2.426340	0.887205	-0.351378	0.293456	-1.000000	-1.000000	-1.000000	-1.000000	-1.000000	-1.000000	-1.000000	67.310345	0.000000	-1.000000	-1.000000	1600351.000000	1773690757.759835
10013.805000	-15836.985000	6615.360000	10959.930000	-35087.760000	-33967.800000	2523.420000	8132.310000	-9.954186	-7.294818	-7.133251	-4.881239	5.469883	17.919304	3.425832	5.703867	-4.959500	2.441600	-2.426340	0.887205	-0.351378	0.293456	-1.000000	-1.000000	-1.000000	-1.000000	-1.000000	-1.000000	-1.000000	67.310345	0.000000	-1.000000	-1.000000	1600352.000000	1773690757.759846
10017.585000	-15829.695000	6621.300000	10961.280000	-35105.265000	-33980.130000	2522.385000	8140.860000	-3.772187	-4.524650	-5.082708	-4.115302	0.684918	7.601228	2.896125	9.176854	-4.959500	2.441600	-2.426340	0.887205	-0.351378	0.293456	-1.000000	-1.000000	-1.000000	-1.000000	-1.000000	-1.000000	-1.000000	67.310345	0.000000	-1.000000	-1.000000	1600353.000000	1773690757.765638
10021.455000	-15820.830000	6632.145000	10970.370000	-35092.170000	-33960.420000	2522.250000	8128.485000	0.857654	0.604128	-0.220732	-1.367038	-5.528605	-8.934481	1.915861	8.560548	-4.959500	2.441600	-2.426340	0.887205	-0.351378	0.293456	-1.000000	-1.000000	-1.000000	-1.000000	-1.000000	-1.000000	-1.000000	67.310345	0.000000	-1.000000	-1.000000	1600354.000000	1773690757.765651
10032.525000	-15793.335000	6657.570000	10990.035000	-35062.920000	-33930.720000	2534.310000	8083.620000	2.029223	6.066008	5.869360	3.109303	-7.391187	-17.826680	0.932951	2.623463	-4.959500	2.441600	-2.426340	0.887205	-0.351378	0.293456	-1.000000	-1.000000	-1.000000	-1.000000	-1.000000	-1.000000	-1.000000	67.310345	0.000000	-1.000000	-1.000000	1600355.000000	1773690757.769207
10018.800000	-15801.615000	6647.580000	10981.575000	-35062.470000	-33921.765000	2530.845000	8078.850000	1.942563	9.758278	10.452568	7.491401	-2.633234	-12.021251	-0.115716	-6.776343	-4.959500	2.441600	-2.426340	0.887205	-0.351378	0.293456	-1.000000	-1.000000	-1.000000	-1.000000	-1.000000	-1.000000	-1.000000	67.310345	0.000000	-1.000000	-1.000000	1600356.000000	1773690757.769215
10022.085000	-15827.625000	6619.455000	10956.195000	-35081.415000	-33928.650000	2522.745000	8122.545000	2.549396	9.231101	10.121288	8.429141	4.528227	2.772914	-1.672777	-13.767455	-4.959500	2.441600	-2.426340	0.887205	-0.351378	0.293456	-1.000000	-1.000000	-1.000000	-1.000000	-1.000000	-1.000000	-1.000000	67.310345	0.000000	-1.000000	-1.000000	1600357.000000	1773690757.771309
9997.920000	-15845.445000	6607.035000	10948.590000	-35080.290000	-33913.845000	2525.400000	8134.065000	3.226003	3.096251	3.428678	3.923016	7.989563	15.310945	-3.619708	-12.554772	-4.959500	2.441600	-2.426340	0.887205	-0.351378	0.293456	-1.000000	-1.000000	-1.000000	-1.000000	-1.000000	-1.000000	-1.000000	67.310345	0.000000	-1.000000	-1.000000	1600358.000000	1773690757.771324
10011.600000	-15845.040000	6606.765000	10949.670000	-35081.595000	-33913.485000	2522.880000	8134.470000	2.824687	-6.052924	-6.342326	-3.833801	5.697498	18.480728	-4.950520	-3.491540	-4.959500	2.441600	-2.426340	0.887205	-0.351378	0.293456	-1.000000	-1.000000	-1.000000	-1.000000	-1.000000	-1.000000	-1.000000	67.310345	0.000000	-1.000000	-1.000000	1600359.000000	1773690757.775203
10033.920000	-15845.130000	6601.455000	10942.875000	-35105.760000	-33957.405000	2510.595000	8154.000000	2.298429	-12.639671	-13.312624	-10.179490	-0.176236	12.032172	-4.977683	7.574391	-4.959500	2.441600	-2.426340	0.887205	-0.351378	0.293456	-1.000000	-1.000000	-1.000000	-1.000000	-1.000000	-1.000000	-1.000000	67.310345	0.000000	-1.000000	-1.000000	1600360.000000	1773690757.775218
10016.595000	-15843.330000	6604.065000	10944.675000	-35103.645000	-33958.845000	2505.735000	8151.480000	2.755397	-12.968482	-13.955716	-11.905873	-5.895524	0.900519	-3.877172	14.786041	-5.020540	2.212700	-2.411080	0.886655	-0.351684	0.294006	-1.000000	-1.000000	-1.000000	-1.000000	-1.000000	-1.000000	-1.000000	67.310345	0.000000	-1.000000	-1.000000	1600361.000000	1773690757.779221
10014.750000	-15831.000000	6613.740000	10951.830000	-35088.930000	-33933.915000	2505.735000	8134.470000	2.419181	-7.435263	-8.536828	-8.394575	-7.613409	-7.724376	-1.801890	14.703321	-5.020540	2.212700	-2.411080	0.886655	-0.351684	0.294006	-1.000000	-1.000000	-1.000000	-1.000000	-1.000000	-1.000000	-1.000000	67.310345	0.000000	-1.000000	-1.000000	1600362.000000	1773690757.779232
10010.655000	-15840.630000	6607.710000	10949.310000	-35070.480000	-33899.265000	2512.305000	8132.310000	-0.639050	0.658748	-0.001263	-1.293208	-3.713374	-9.204820	1.196641	7.395037	-5.020540	2.212700	-2.411080	0.886655	-0.351684	0.294006	-1.000000	-1.000000	-1.000000	-1.000000	-1.000000	-1.000000	-1.000000	67.310345	0.000000	-1.000000	-1.000000	1600363.000000	1773690757.792345
10015.920000	-15837.390000	6615.675000	10957.005000	-35059.140000	-33887.790000	2516.265000	8130.600000	-4.916722	6.907062	7.319216	5.882834	3.116199	-4.569460	4.323042	-2.319637	-5.020540	2.212700	-2.411080	0.886655	-0.351684	0.294006	-1.000000	-1.000000	-1.000000	-1.000000	-1.000000	-1.000000	-1.000000	67.310345	0.000000	-1.000000	-1.000000	1600364.000000	1773690757.792364
10021.635000	-15817.365000	6633.765000	10966.950000	-35067.825000	-33916.185000	2521.395000	8129.655000	-6.843893	9.177025	10.910814	10.280358	8.090093	0.808682	6.358671	-8.763831	-5.020540	2.212700	-2.411080	0.886655	-0.351684	0.294006	-1.000000	-1.000000	-1.000000	-1.000000	-1.000000	-1.000000	-1.000000	67.310345	0.000000	-1.000000	-1.000000	1600365.000000	1773690757.792400
10019.340000	-15827.445000	6631.110000	10967.850000	-35077.140000	-33939.990000	2533.860000	8128.935000	-4.467145	9.016541	11.629313	11.593169	8.290810	1.479883	6.857806	-10.791650	-5.020540	2.212700	-2.411080	0.886655	-0.351684	0.294006	-1.000000	-1.000000	-1.000000	-1.000000	-1.000000	-1.000000	-1.000000	67.310345	0.000000	-1.000000	-1.000000	1600366.000000	1773690757.792406
10010.970000	-15839.865000	6618.420000	10958.490000	-35093.340000	-33955.155000	2528.460000	8122.320000	0.732391	7.900843	10.413004	10.186987	3.788989	-3.815680	5.929885	-10.392860	-5.020540	2.212700	-2.411080	0.886655	-0.351684	0.294006	-1.000000	-1.000000	-1.000000	-1.000000	-1.000000	-1.000000	-1.000000	67.310345	0.000000	-1.000000	-1.000000	1600367.000000	1773690757.792412
10022.985000	-15834.555000	6624.090000	10965.060000	-35079.030000	-33928.290000	2521.575000	8122.770000	5.275550	5.239825	6.589574	5.841894	-2.849656	-10.432625	3.354783	-8.526958	-5.020540	2.212700	-2.411080	0.886655	-0.351684	0.294006	-1.000000	-1.000000	-1.000000	-1.000000	-1.000000	-1.000000	-1.000000	67.310345	0.000000	-1.000000	-1.000000	1600368.000000	1773690757.792416
10037.790000	-15817.140000	6640.110000	10978.785000	-35064.765000	-33915.195000	2529.360000	8128.845000	6.656012	0.988316	0.567431	-0.381757	-7.082074	-10.469802	-0.473553	-4.891577	-5.020540	2.212700	-2.411080	0.886655	-0.351684	0.294006	-1.000000	-1.000000	-1.000000	-1.000000	-1.000000	-1.000000	-1.000000	67.310345	0.000000	-1.000000	-1.000000	1600369.000000	1773690757.795717
10029.060000	-15823.755000	6627.420000	10964.115000	-35078.940000	-33927.435000	2523.105000	8124.885000	4.900772	-3.323179	-5.392723	-5.986107	-5.971343	-1.072570	-3.854917	0.368418	-5.020540	2.212700	-2.411080	0.886655	-0.351684	0.294006	-1.000000	-1.000000	-1.000000	-1.000000	-1.000000	-1.000000	-1.000000	67.310345	0.000000	-1.000000	-1.000000	1600370.000000	1773690757.795728
10023.255000	-15815.205000	6631.290000	10959.930000	-35088.480000	-33932.430000	2513.835000	8113.050000	1.335116	-6.347236	-9.473792	-9.446480	-1.925958	10.534698	-5.605750	5.917645	-1.861720	2.685760	-3.021480	0.887144	-0.352599	0.293151	-1.000000	-1.000000	-1.000000	-1.000000	-1.000000	-1.000000	-1.000000	67.310345	0.000000	-1.000000	-1.000000	1600371.000000	1773690757.799719
10026.045000	-15829.155000	6620.670000	10957.995000	-35073.720000	-33913.080000	2529.585000	8121.690000	-2.649696	-7.632762	-11.027115	-10.536549	0.391874	14.680765	-5.874530	9.911163	-1.861720	2.685760	-3.021480	0.887144	-0.352599	0.293151	-1.000000	-1.000000	-1.000000	-1.000000	-1.000000	-1.000000	-1.000000	67.310345	0.000000	-1.000000	-1.000000	1600372.000000	1773690757.799729
10032.480000	-15818.760000	6632.370000	10967.355000	-35065.755000	-33927.030000	2535.480000	8131.545000	-5.363182	-7.238152	-9.912099	-9.065240	-0.186439	9.211008	-4.716780	11.352937	-1.861720	2.685760	-3.021480	0.887144	-0.352599	0.293151	-1.000000	-1.000000	-1.000000	-1.000000	-1.000000	-1.000000	-1.000000	67.310345	0.000000	-1.000000	-1.000000	1600373.000000	1773690757.803408
10020.285000	-15819.840000	6632.640000	10966.860000	-35057.340000	-33902.055000	2531.070000	8118.090000	-5.634571	-5.292620	-6.272524	-4.987694	-0.976238	-0.005905	-2.226101	9.727173	-1.861720	2.685760	-3.021480	0.887144	-0.352599	0.293151	-1.000000	-1.000000	-1.000000	-1.000000	-1.000000	-1.000000	-1.000000	67.310345	0.000000	-1.000000	-1.000000	1600374.000000	1773690757.803418
10021.185000	-15829.110000	6623.415000	10958.715000	-35063.820000	-33893.370000	2529.945000	8127.495000	-3.776216	-1.913011	-0.865284	0.609127	0.461147	-5.232197	0.382025	4.744910	-1.861720	2.685760	-3.021480	0.887144	-0.352599	0.293151	-1.000000	-1.000000	-1.000000	-1.000000	-1.000000	-1.000000	-1.000000	67.310345	0.000000	-1.000000	-1.000000	1600375.000000	1773690757.808534
10021.905000	-15822.990000	6631.830000	10969.830000	-35062.515000	-33895.260000	2540.025000	8142.660000	-0.841068	2.203736	4.679820	5.650646	3.453816	-3.756977	2.030433	-1.660779	-1.861720	2.685760	-3.021480	0.887144	-0.352599	0.293151	-1.000000	-1.000000	-1.000000	-1.000000	-1.000000	-1.000000	-1.000000	67.310345	0.000000	-1.000000	-1.000000	1600376.000000	1773690757.808546
9984.555000	-15822.000000	6636.195000	10977.930000	-35057.970000	-33891.390000	2542.185000	8135.460000	1.241240	5.512128	8.438425	8.430019	5.363946	0.665595	3.031247	-6.158958	-1.861720	2.685760	-3.021480	0.887144	-0.352599	0.293151	-1.000000	-1.000000	-1.000000	-1.000000	-1.000000	-1.000000	-1.000000	67.310345	0.000000	-1.000000	-1.000000	1600377.000000	1773690757.811360
10009.845000	-15818.040000	6641.415000	10984.590000	-35055.900000	-33896.115000	2540.745000	8129.430000	0.618802	6.348571	9.035716	8.339293	4.509779	3.093042	3.722292	-7.580749	-1.861720	2.685760	-3.021480	0.887144	-0.352599	0.293151	-1.000000	-1.000000	-1.000000	-1.000000	-1.000000	-1.000000	-1.000000	67.310345	0.000000	-1.000000	-1.000000	1600378.000000	1773690757.811370
10052.595000	-15819.750000	6635.655000	10975.500000	-35059.230000	-33895.620000	2532.960000	8133.570000	-0.567406	4.339521	6.446132	5.817416	1.492182	1.766503	3.541496	-6.676566	-1.861720	2.685760	-3.021480	0.887144	-0.352599	0.293151	-1.000000	-1.000000	-1.000000	-1.000000	-1.000000	-1.000000	-1.000000	67.310345	0.000000	-1.000000	-1.000000	1600379.000000	1773690757.820433
10066.725000	-15804.810000	6647.580000	10980.495000	-35054.460000	-33914.655000	2528.820000	8131.005000	2.016353	1.036971	2.204619	2.006827	-1.913671	-2.433680	1.922544	-4.008836	-1.861720	2.685760	-3.021480	0.887144	-0.352599	0.293151	-1.000000	-1.000000	-1.000000	-1.000000	-1.000000	-1.000000	-1.000000	67.310345	0.000000	-1.000000	-1.000000	1600380.000000	1773690757.820445
10052.280000	-15806.340000	6648.435000	10986.210000	-35025.255000	-33872.310000	2533.410000	8135.010000	7.684185	-1.269443	-1.532751	-1.715263	-4.136364	-7.131278	-0.970483	-0.467492	-0.717220	3.158820	-2.517900	0.885923	-0.352172	0.290771	-1.000000	-1.000000	-1.000000	-1.000000	-1.000000	-1.000000	-1.000000	67.448276	0.000000	-1.000000	-1.000000	1600381.000000	1773690757.820458
10030.410000	-15807.510000	6652.215000	10993.770000	-35017.290000	-33843.870000	2536.515000	8128.575000	10.430229	-1.764694	-3.544591	-4.137842	-4.034282	-8.148146	-3.892394	2.194449	-0.717220	3.158820	-2.517900	0.885923	-0.352172	0.290771	-1.000000	-1.000000	-1.000000	-1.000000	-1.000000	-1.000000	-1.000000	67.448276	0.000000	-1.000000	-1.000000	1600382.000000	1773690757.820464
10032.570000	-15795.990000	6660.675000	10991.610000	-35068.590000	-33929.370000	2550.645000	8122.995000	6.282404	-1.173888	-3.780482	-4.625728	-2.331010	-4.202601	-4.850465	2.674298	-0.717220	3.158820	-2.517900	0.885923	-0.352172	0.290771	-1.000000	-1.000000	-1.000000	-1.000000	-1.000000	-1.000000	-1.000000	67.448276	0.000000	-1.000000	-1.000000	1600383.000000	1773690757.823261
10035.090000	-15802.560000	6653.835000	10988.595000	-35069.670000	-33942.420000	2546.595000	8085.105000	-2.266881	-0.026712	-2.524868	-3.449270	-1.803390	-0.730678	-2.867757	0.590006	-0.717220	3.158820	-2.517900	0.885923	-0.352172	0.290771	-1.000000	-1.000000	-1.000000	-1.000000	-1.000000	-1.000000	-1.000000	67.448276	0.000000	-1.000000	-1.000000	1600384.000000	1773690757.823270
10042.515000	-15819.390000	6638.310000	10977.705000	-35069.490000	-33923.790000	2530.170000	8123.445000	-9.273636	0.749096	-1.024227	-1.987982	-3.269571	-1.567151	0.423727	-3.093930	-0.717220	3.158820	-2.517900	0.885923	-0.352172	0.290771	-1.000000	-1.000000	-1.000000	-1.000000	-1.000000	-1.000000	-1.000000	67.448276	0.000000	-1.000000	-1.000000	1600385.000000	1773690757.831053
10029.825000	-15845.715000	6614.910000	10956.105000	-35090.505000	-33945.210000	2515.455000	8177.760000	-10.721115	-0.725566	-1.468647	-2.089658	-4.680044	-3.390579	1.992087	-4.233966	-0.717220	3.158820	-2.517900	0.885923	-0.352172	0.290771	-1.000000	-1.000000	-1.000000	-1.000000	-1.000000	-1.000000	-1.000000	67.448276	0.000000	-1.000000	-1.000000	1600386.000000	1773690757.831064
10024.110000	-15836.130000	6623.910000	10963.620000	-35073.495000	-33919.605000	2520.675000	8159.715000	-7.560483	-4.570215	-4.147883	-3.901960	-4.123286	-1.940112	0.820213	0.855325	-0.717220	3.158820	-2.517900	0.885923	-0.352172	0.290771	-1.000000	-1.000000	-1.000000	-1.000000	-1.000000	-1.000000	-1.000000	67.448276	0.000000	-1.000000	-1.000000	1600387.000000	1773690757.831196
10050.435000	-15814.890000	6633.225000	10966.860000	-35067.105000	-33907.860000	2526.120000	8136.675000	-3.669797	-7.393447	-6.007322	-4.779029	-0.652046	3.687142	-0.870873	8.577231	-0.717220	3.158820	-2.517900	0.885923	-0.352172	0.290771	-1.000000	-1.000000	-1.000000	-1.000000	-1.000000	-1.000000	-1.000000	67.448276	0.000000	-1.000000	-1.000000	1600388.000000	1773690757.831204
10041.750000	-15829.965000	6616.935000	10951.110000	-35083.395000	-33922.170000	2526.570000	8122.095000	-0.939973	-5.788706	-4.249820	-2.520095	4.498452	10.691582	-0.630359	11.123698	-0.717220	3.158820	-2.517900	0.885923	-0.352172	0.290771	-1.000000	-1.000000	-1.000000	-1.000000	-1.000000	-1.000000	-1.000000	67.448276	0.000000	-1.000000	-1.000000	1600389.000000	1773690757.835554
10037.790000	-15826.680000	6626.295000	10958.355000	-35085.285000	-33943.275000	2527.110000	8121.510000	1.345327	-0.479462	0.274177	1.634843	7.360289	13.097996	1.312932	5.483620	-0.717220	3.158820	-2.517900	0.885923	-0.352172	0.290771	-1.000000	-1.000000	-1.000000	-1.000000	-1.000000	-1.000000	-1.000000	67.448276	0.000000	-1.000000	-1.000000	1600390.000000	1773690757.835563
10036.125000	-15814.125000	6640.695000	10966.860000	-35084.430000	-33942.195000	2524.770000	8131.005000	3.927910	5.236658	5.055889	5.262867	5.872582	7.529225	2.925242	-4.031032	-1.113980	4.120200	-1.770160	0.885862	-0.351501	0.289672	-1.000000	-1.000000	-1.000000	-1.000000	-1.000000	-1.000000	-1.000000	67.448276	0.000000	-1.000000	-1.000000	1600391.000000	1773690757.839278
10033.965000	-15812.100000	6642.405000	10976.085000	-35069.355000	-33920.145000	2527.785000	8137.035000	6.285183	8.923051	8.486065	7.487527	3.117244	-0.953353	2.731137	-10.225290	-1.113980	4.120200	-1.770160	0.885862	-0.351501	0.289672	-1.000000	-1.000000	-1.000000	-1.000000	-1.000000	-1.000000	-1.000000	67.448276	0.000000	-1.000000	-1.000000	1600392.000000	1773690757.839288
10018.575000	-15823.215000	6638.670000	10980.225000	-35059.860000	-33907.905000	2531.970000	8131.095000	6.705940	9.439893	9.568648	8.328155	2.994266	-4.219092	1.126359	-9.225808	-1.113980	4.120200	-1.770160	0.885862	-0.351501	0.289672	-1.000000	-1.000000	-1.000000	-1.000000	-1.000000	-1.000000	-1.000000	67.448276	0.000000	-1.000000	-1.000000	1600393.000000	1773690757.844597
10015.470000	-15837.795000	6622.875000	10963.845000	-35073.720000	-33914.565000	2525.580000	8111.295000	4.087125	6.604519	7.665820	7.361325	4.963046	-1.091486	-0.170718	-4.011518	-1.113980	4.120200	-1.770160	0.885862	-0.351501	0.289672	-1.000000	-1.000000	-1.000000	-1.000000	-1.000000	-1.000000	-1.000000	67.448276	0.000000	-1.000000	-1.000000	1600394.000000	1773690757.844609
10030.050000	-15828.165000	6626.115000	10963.215000	-35080.425000	-33925.185000	2514.600000	8114.895000	-0.007362	1.749742	3.232130	4.071459	5.297414	2.866797	-0.300282	-0.802621	-1.113980	4.120200	-1.770160	0.885862	-0.351501	0.289672	-1.000000	-1.000000	-1.000000	-1.000000	-1.000000	-1.000000	-1.000000	67.448276	0.000000	-1.000000	-1.000000	1600395.000000	1773690757.847695
10025.595000	-15833.385000	6622.110000	10961.910000	-35078.130000	-33922.800000	2516.805000	8124.255000	-2.904520	-2.969317	-2.130348	-0.908686	1.715101	2.534244	-0.099678	-1.009911	-1.113980	4.120200	-1.770160	0.885862	-0.351501	0.289672	-1.000000	-1.000000	-1.000000	-1.000000	-1.000000	-1.000000	-1.000000	67.448276	0.000000	-1.000000	-1.000000	1600396.000000	1773690757.847704
10025.190000	-15836.805000	6620.670000	10959.840000	-35071.650000	-33914.430000	2528.595000	8123.805000	-4.006251	-6.368645	-6.588093	-5.684468	-4.374103	-2.358316	-0.347608	-0.487617	-1.113980	4.120200	-1.770160	0.885862	-0.351501	0.289672	-1.000000	-1.000000	-1.000000	-1.000000	-1.000000	-1.000000	-1.000000	67.448276	0.000000	-1.000000	-1.000000	1600397.000000	1773690757.861393
10031.355000	-15833.340000	6623.010000	10962.855000	-35059.680000	-33891.480000	2532.195000	8119.755000	-3.854858	-7.815576	-8.542622	-8.159729	-9.068295	-7.435186	-0.649927	3.248354	-1.113980	4.120200	-1.770160	0.885862	-0.351501	0.289672	-1.000000	-1.000000	-1.000000	-1.000000	-1.000000	-1.000000	-1.000000	67.448276	0.000000	-1.000000	-1.000000	1600398.000000	1773690757.861406
10025.235000	-15836.400000	6618.105000	10957.365000	-35065.530000	-33885.000000	2526.480000	8129.700000	-2.170820	-6.616091	-7.399026	-7.527393	-9.407534	-7.934981	-0.588490	7.896227	-1.113980	4.120200	-1.770160	0.885862	-0.351501	0.289672	-1.000000	-1.000000	-1.000000	-1.000000	-1.000000	-1.000000	-1.000000	67.448276	0.000000	-1.000000	-1.000000	1600399.000000	1773690757.861421
10027.845000	-15835.230000	6620.535000	10961.280000	-35062.515000	-33874.740000	2529.810000	8149.455000	0.779349	-3.386983	-4.366490	-4.862418	-5.677784	-3.102785	-0.525547	10.093670	-1.113980	4.120200	-1.770160	0.885862	-0.351501	0.289672	-1.000000	-1.000000	-1.000000	-1.000000	-1.000000	-1.000000	-1.000000	67.448276	0.000000	-1.000000	-1.000000	1600400.000000	1773690757.861426
10041.435000	-15821.685000	6634.305000	10974.825000	-35062.020000	-33901.380000	2539.170000	8149.005000	3.674384	0.424973	-0.871422	-1.602003	-0.536290	3.092608	-0.683642	8.740753	-2.701020	4.974760	-1.602300	0.888181	-0.349486	0.289245	-1.000000	-1.000000	-1.000000	-1.000000	-1.000000	-1.000000	-1.000000	67.448276	0.000000	-1.000000	-1.000000	1600401.000000	1773690757.861432
10037.115000	-15816.330000	6639.975000	10979.505000	-35070.300000	-33930.000000	2536.110000	8136.135000	5.499440	4.287330	2.918149	1.766407	3.072367	4.819449	-0.606429	4.389966	-2.701020	4.974760	-1.602300	0.888181	-0.349486	0.289245	-1.000000	-1.000000	-1.000000	-1.000000	-1.000000	-1.000000	-1.000000	67.448276	0.000000	-1.000000	-1.000000	1600402.000000	1773690757.861437
10032.795000	-15809.265000	6647.760000	10988.955000	-35050.950000	-33900.930000	2540.295000	8134.110000	5.422379	7.840231	6.853984	5.135317	4.173267	0.525123	0.148077	-1.966271	-2.701020	4.974760	-1.602300	0.888181	-0.349486	0.289245	-1.000000	-1.000000	-1.000000	-1.000000	-1.000000	-1.000000	-1.000000	67.448276	0.000000	-1.000000	-1.000000	1600403.000000	1773690757.874109
10029.465000	-15822.135000	6634.845000	10978.020000	-35057.520000	-33909.210000	2537.460000	8126.145000	2.598511	9.283646	9.234983	7.511795	4.010305	-4.781552	1.399682	-8.419610	-2.701020	4.974760	-1.602300	0.888181	-0.349486	0.289245	-1.000000	-1.000000	-1.000000	-1.000000	-1.000000	-1.000000	-1.000000	67.448276	0.000000	-1.000000	-1.000000	1600404.000000	1773690757.874122
10052.145000	-15804.900000	6650.370000	10987.560000	-35053.380000	-33908.760000	2541.510000	8124.255000	-2.131056	6.708160	7.924533	7.161857	3.321046	-6.176372	2.194584	-12.298081	-2.701020	4.974760	-1.602300	0.888181	-0.349486	0.289245	-1.000000	-1.000000	-1.000000	-1.000000	-1.000000	-1.000000	-1.000000	67.448276	0.000000	-1.000000	-1.000000	1600405.000000	1773690757.874136
10028.520000	-15784.380000	6666.075000	10998.405000	-35044.830000	-33903.045000	2542.950000	8103.510000	-6.096825	1.338622	3.400676	3.911266	1.746154	-3.587944	1.471883	-11.906849	-2.701020	4.974760	-1.602300	0.888181	-0.349486	0.289245	-1.000000	-1.000000	-1.000000	-1.000000	-1.000000	-1.000000	-1.000000	67.448276	0.000000	-1.000000	-1.000000	1600406.000000	1773690757.874141
10044.495000	-15792.615000	6659.235000	10993.995000	-35048.070000	-33899.940000	2538.540000	8111.835000	-7.327666	-3.387469	-1.574645	-0.381894	-0.508586	0.462503	-0.735366	-7.666505	-2.701020	4.974760	-1.602300	0.888181	-0.349486	0.289245	-1.000000	-1.000000	-1.000000	-1.000000	-1.000000	-1.000000	-1.000000	67.448276	0.000000	-1.000000	-1.000000	1600407.000000	1773690757.874148
10056.015000	-15813.945000	6641.100000	10977.390000	-35059.590000	-33901.830000	2528.595000	8142.300000	-5.230957	-6.161594	-5.477314	-4.248902	-2.686771	3.629477	-3.269016	-1.150149	-2.701020	4.974760	-1.602300	0.888181	-0.349486	0.289245	-1.000000	-1.000000	-1.000000	-1.000000	-1.000000	-1.000000	-1.000000	67.448276	0.000000	-1.000000	-1.000000	1600408.000000	1773690757.874153
10028.655000	-15838.020000	6622.470000	10968.210000	-35052.165000	-33872.895000	2533.230000	8152.110000	-0.889583	-8.319272	-8.678003	-7.475716	-4.058492	5.255363	-4.857520	5.900088	-2.701020	4.974760	-1.602300	0.888181	-0.349486	0.289245	-1.000000	-1.000000	-1.000000	-1.000000	-1.000000	-1.000000	-1.000000	67.448276	0.000000	-1.000000	-1.000000	1600409.000000	1773690757.875298
10051.650000	-15825.375000	6632.640000	10975.050000	-35054.640000	-33874.290000	2543.130000	8159.895000	2.738640	-10.306833	-10.967056	-9.579439	-3.965644	6.486829	-4.536831	11.353992	-2.701020	4.974760	-1.602300	0.888181	-0.349486	0.289245	-1.000000	-1.000000	-1.000000	-1.000000	-1.000000	-1.000000	-1.000000	67.448276	0.000000	-1.000000	-1.000000	1600410.000000	1773690757.875309
10053.810000	-15812.325000	6649.020000	10991.565000	-35045.415000	-33900.570000	2547.000000	8140.905000	4.124997	-9.809030	-10.214617	-8.826897	-2.138132	7.386286	-1.832729	12.947544	-4.669560	4.822160	-1.938020	0.887449	-0.348998	0.289672	-1.000000	-1.000000	-1.000000	-1.000000	-1.000000	-1.000000	-1.000000	67.448276	0.000000	-1.000000	-1.000000	1600411.000000	1773690757.879287
10053.180000	-15796.485000	6661.035000	10998.720000	-35037.225000	-33885.405000	2541.375000	8096.580000	4.076459	-4.458249	-4.550833	-3.857557	0.874937	5.674186	2.329213	8.858175	-4.669560	4.822160	-1.938020	0.887449	-0.348998	0.289672	-1.000000	-1.000000	-1.000000	-1.000000	-1.000000	-1.000000	-1.000000	67.448276	0.000000	-1.000000	-1.000000	1600412.000000	1773690757.879297
10040.445000	-15807.375000	6648.120000	10989.180000	-35020.755000	-33840.495000	2541.735000	8123.760000	2.815004	4.330100	4.279166	3.695359	3.941446	1.232559	5.600031	-0.134329	-4.669560	4.822160	-1.938020	0.887449	-0.348998	0.289672	-1.000000	-1.000000	-1.000000	-1.000000	-1.000000	-1.000000	-1.000000	67.448276	0.000000	-1.000000	-1.000000	1600413.000000	1773690757.898396
10034.640000	-15826.635000	6627.690000	10970.010000	-35024.490000	-33826.500000	2533.230000	8159.670000	-0.152547	11.148750	10.831916	9.267354	5.781871	-2.210184	5.880864	-8.133461	-4.669560	4.822160	-1.938020	0.887449	-0.348998	0.289672	-1.000000	-1.000000	-1.000000	-1.000000	-1.000000	-1.000000	-1.000000	67.448276	0.000000	-1.000000	-1.000000	1600414.000000	1773690757.898408
10045.530000	-15824.880000	6625.890000	10958.670000	-35080.920000	-33907.545000	2524.230000	8154.945000	-3.607538	11.129593	10.488351	8.922629	4.350570	-3.692272	2.811649	-8.675077	-4.669560	4.822160	-1.938020	0.887449	-0.348998	0.289672	-1.000000	-1.000000	-1.000000	-1.000000	-1.000000	-1.000000	-1.000000	67.448276	0.000000	-1.000000	-1.000000	1600415.000000	1773690757.898420
10043.865000	-15818.715000	6632.325000	10963.305000	-35107.470000	-33984.990000	2524.860000	8140.230000	-5.029189	5.202286	4.384264	3.347405	-1.952854	-7.952573	-1.753945	-2.815460	-4.669560	4.822160	-1.938020	0.887449	-0.348998	0.289672	-1.000000	-1.000000	-1.000000	-1.000000	-1.000000	-1.000000	-1.000000	67.448276	0.000000	-1.000000	-1.000000	1600416.000000	1773690757.898425
10028.295000	-15833.520000	6624.045000	10963.485000	-35088.885000	-33968.565000	2528.415000	8139.375000	-3.716794	-1.049280	-1.806878	-2.485142	-10.141805	-16.862041	-4.740066	2.060108	-4.669560	4.822160	-1.938020	0.887449	-0.348998	0.289672	-1.000000	-1.000000	-1.000000	-1.000000	-1.000000	-1.000000	-1.000000	67.448276	0.000000	-1.000000	-1.000000	1600417.000000	1773690757.898431
10022.175000	-15838.065000	6626.025000	10971.405000	-35057.835000	-33912.540000	2533.590000	8143.605000	-1.186961	-3.606950	-3.867121	-4.236680	-13.089365	-22.590657	-4.371058	1.294392	-4.669560	4.822160	-1.938020	0.887449	-0.348998	0.289672	-1.000000	-1.000000	-1.000000	-1.000000	-1.000000	-1.000000	-1.000000	67.448276	0.000000	-1.000000	-1.000000	1600418.000000	1773690757.898436
9986.670000	-15845.715000	6620.625000	10966.410000	-35061.030000	-33896.970000	2528.595000	8129.745000	0.375696	-2.943408	-2.196126	-1.885310	-6.742168	-15.059433	-1.577828	-3.098968	-4.669560	4.822160	-1.938020	0.887449	-0.348998	0.289672	-1.000000	-1.000000	-1.000000	-1.000000	-1.000000	-1.000000	-1.000000	67.448276	0.000000	-1.000000	-1.000000	1600419.000000	1773690757.898441
9962.640000	-15829.785000	6637.095000	10977.255000	-35070.570000	-33916.995000	2530.170000	8106.480000	-0.760632	-1.559090	0.249197	1.441147	4.902277	5.139403	1.377479	-6.410534	-4.669560	4.822160	-1.938020	0.887449	-0.348998	0.289672	-1.000000	-1.000000	-1.000000	-1.000000	-1.000000	-1.000000	-1.000000	67.448276	0.000000	-1.000000	-1.000000	1600420.000000	1773690757.898446
10009.395000	-15816.555000	6645.060000	10983.195000	-35063.820000	-33919.920000	2529.585000	8095.860000	-3.100414	-0.485382	1.671983	3.225926	13.555253	25.093637	3.036058	-5.795936	-2.594200	5.112100	-1.648080	0.886350	-0.352111	0.289184	-1.000000	-1.000000	-1.000000	-1.000000	-1.000000	-1.000000	-1.000000	67.448276	0.000000	-1.000000	-1.000000	1600421.000000	1773690757.900571
10052.865000	-15821.595000	6636.870000	10975.995000	-35060.355000	-33911.460000	2535.075000	8117.775000	-1.429389	0.918070	2.268840	3.261326	14.259122	31.385655	3.285306	-1.786604	-2.594200	5.112100	-1.648080	0.886350	-0.352111	0.289184	-1.000000	-1.000000	-1.000000	-1.000000	-1.000000	-1.000000	-1.000000	67.448276	0.000000	-1.000000	-1.000000	1600422.000000	1773690757.900580
10042.155000	-15831.585000	6626.835000	10964.295000	-35070.975000	-33924.510000	2531.205000	8142.435000	6.522815	2.517287	2.234920	2.179234	8.298724	21.596946	2.650784	3.353280	-2.594200	5.112100	-1.648080	0.886350	-0.352111	0.289184	-1.000000	-1.000000	-1.000000	-1.000000	-1.000000	-1.000000	-1.000000	67.448276	0.000000	-1.000000	-1.000000	1600423.000000	1773690757.903104
10043.955000	-15843.060000	6613.560000	10950.525000	-35086.185000	-33935.535000	2523.825000	8159.220000	15.120009	2.711077	0.915458	0.168580	0.726638	4.836665	1.552456	8.154368	-2.594200	5.112100	-1.648080	0.886350	-0.352111	0.289184	-1.000000	-1.000000	-1.000000	-1.000000	-1.000000	-1.000000	-1.000000	67.448276	0.000000	-1.000000	-1.000000	1600424.000000	1773690757.903115
10051.695000	-15830.370000	6626.385000	10963.125000	-35075.340000	-33924.240000	2522.430000	8150.355000	16.779714	0.839482	-1.611761	-2.313511	-3.859687	-7.067550	0.068698	11.342619	-2.594200	5.112100	-1.648080	0.886350	-0.352111	0.289184	-1.000000	-1.000000	-1.000000	-1.000000	-1.000000	-1.000000	-1.000000	67.448276	0.000000	-1.000000	-1.000000	1600425.000000	1773690757.907356
10053.270000	-15812.955000	6643.620000	10980.360000	-35062.695000	-33909.210000	2528.505000	8133.480000	10.097656	-0.953733	-3.225726	-3.648178	-4.490268	-9.647367	-1.594081	10.411560	-2.594200	5.112100	-1.648080	0.886350	-0.352111	0.289184	-1.000000	-1.000000	-1.000000	-1.000000	-1.000000	-1.000000	-1.000000	67.448276	0.000000	-1.000000	-1.000000	1600426.000000	1773690757.907367
10039.005000	-15816.375000	6641.685000	10977.705000	-35068.365000	-33911.280000	2523.735000	8136.090000	-0.658978	-0.305394	-1.966037	-2.548561	-3.494568	-7.441433	-2.863161	4.106136	-2.594200	5.112100	-1.648080	0.886350	-0.352111	0.289184	-1.000000	-1.000000	-1.000000	-1.000000	-1.000000	-1.000000	-1.000000	67.448276	0.000000	-1.000000	-1.000000	1600427.000000	1773690757.916078
10040.760000	-15813.360000	6648.480000	10988.640000	-35047.350000	-33884.370000	2533.095000	8129.520000	-10.081847	1.816643	1.041943	0.058499	-2.926131	-5.838019	-3.102176	-4.437221	-2.594200	5.112100	-1.648080	0.886350	-0.352111	0.289184	-1.000000	-1.000000	-1.000000	-1.000000	-1.000000	-1.000000	-1.000000	67.448276	0.000000	-1.000000	-1.000000	1600428.000000	1773690757.916090
10046.745000	-15817.545000	6644.565000	10986.345000	-35041.950000	-33877.440000	2544.120000	8128.800000	-14.327996	2.260365	2.739706	2.010304	-2.359075	-4.986160	-1.782947	-9.654441	-2.594200	5.112100	-1.648080	0.886350	-0.352111	0.289184	-1.000000	-1.000000	-1.000000	-1.000000	-1.000000	-1.000000	-1.000000	67.448276	0.000000	-1.000000	-1.000000	1600429.000000	1773690757.916103
10049.085000	-15819.210000	6640.245000	10976.580000	-35052.120000	-33901.695000	2544.120000	8138.160000	-13.379627	-0.530430	1.410435	1.840781	-1.258182	-3.655851	0.843478	-8.762126	-2.594200	5.112100	-1.648080	0.886350	-0.352111	0.289184	-1.000000	-1.000000	-1.000000	-1.000000	-1.000000	-1.000000	-1.000000	67.448276	0.000000	-1.000000	-1.000000	1600430.000000	1773690757.916108
10044.765000	-15812.865000	6643.800000	10972.530000	-35061.930000	-33914.655000	2533.680000	8146.485000	-10.372977	-4.632204	-1.669685	-0.189065	-0.804336	-3.331615	3.074914	-4.049598	-1.144500	5.707240	-2.166920	0.887327	-0.353759	0.288573	-1.000000	-1.000000	-1.000000	-1.000000	-1.000000	-1.000000	-1.000000	67.448276	0.000000	-1.000000	-1.000000	1600431.000000	1773690757.922049
10032.165000	-15818.625000	6640.290000	10972.080000	-35059.005000	-33903.765000	2536.110000	8144.370000	-7.394136	-6.499478	-3.583903	-2.157539	-1.297531	-4.286452	3.184859	-0.051296	-1.144500	5.707240	-2.166920	0.887327	-0.353759	0.288573	-1.000000	-1.000000	-1.000000	-1.000000	-1.000000	-1.000000	-1.000000	67.448276	0.000000	-1.000000	-1.000000	1600432.000000	1773690757.922061
10025.505000	-15829.515000	6633.900000	10970.460000	-35054.910000	-33884.415000	2537.910000	8146.530000	-4.291910	-4.791416	-2.906668	-2.292945	-0.912105	-2.987421	1.440449	0.781381	-1.144500	5.707240	-2.166920	0.887327	-0.353759	0.288573	-1.000000	-1.000000	-1.000000	-1.000000	-1.000000	-1.000000	-1.000000	67.448276	0.000000	-1.000000	-1.000000	1600433.000000	1773690757.923939
10026.315000	-15815.340000	6647.985000	10982.835000	-35045.865000	-33873.750000	2534.715000	8147.340000	-0.562781	-1.216674	-0.725029	-0.757423	1.132142	2.430083	-0.650127	-0.406183	-1.144500	5.707240	-2.166920	0.887327	-0.353759	0.288573	-1.000000	-1.000000	-1.000000	-1.000000	-1.000000	-1.000000	-1.000000	67.448276	0.000000	-1.000000	-1.000000	1600434.000000	1773690757.923950
10043.685000	-15797.880000	6665.985000	11001.600000	-35027.775000	-33861.780000	2543.580000	8142.750000	4.096236	2.248551	1.435159	1.149664	3.212131	8.336440	-2.097554	-0.991059	-1.144500	5.707240	-2.166920	0.887327	-0.353759	0.288573	-1.000000	-1.000000	-1.000000	-1.000000	-1.000000	-1.000000	-1.000000	67.448276	0.000000	-1.000000	-1.000000	1600435.000000	1773690757.927287
10033.560000	-15806.520000	6656.175000	10996.470000	-35031.105000	-33874.515000	2550.690000	8136.675000	9.434268	4.728058	2.854881	2.508078	3.719927	9.661088	-2.361574	0.097421	-1.144500	5.707240	-2.166920	0.887327	-0.353759	0.288573	-1.000000	-1.000000	-1.000000	-1.000000	-1.000000	-1.000000	-1.000000	67.448276	0.000000	-1.000000	-1.000000	1600436.000000	1773690757.927296
10036.800000	-15829.200000	6626.250000	10968.255000	-35054.640000	-33889.995000	2531.295000	8141.490000	13.493869	5.028894	2.389320	2.164884	1.820186	4.555967	-1.653343	2.176689	-1.144500	5.707240	-2.166920	0.887327	-0.353759	0.288573	-1.000000	-1.000000	-1.000000	-1.000000	-1.000000	-1.000000	-1.000000	67.448276	0.000000	-1.000000	-1.000000	1600437.000000	1773690757.931292
10045.080000	-15826.815000	6624.900000	10961.595000	-35072.595000	-33930.540000	2527.245000	8142.480000	13.434539	2.126846	-0.905244	-0.893469	-2.771793	-4.939300	-1.427837	4.220052	-1.144500	5.707240	-2.166920	0.887327	-0.353759	0.288573	-1.000000	-1.000000	-1.000000	-1.000000	-1.000000	-1.000000	-1.000000	67.448276	0.000000	-1.000000	-1.000000	1600438.000000	1773690757.931302
10052.055000	-15813.540000	6641.910000	10974.105000	-35064.495000	-33919.830000	2535.750000	8138.700000	8.325872	-2.206559	-4.857817	-4.788784	-7.913549	-13.665048	-2.161350	4.753319	-1.144500	5.707240	-2.166920	0.887327	-0.353759	0.288573	-1.000000	-1.000000	-1.000000	-1.000000	-1.000000	-1.000000	-1.000000	67.448276	0.000000	-1.000000	-1.000000	1600439.000000	1773690757.935779
10067.085000	-15809.580000	6649.290000	10980.045000	-35059.590000	-33914.925000	2537.055000	8147.790000	0.714953	-4.320747	-5.355599	-5.510469	-9.235130	-15.449455	-2.110655	2.547546	-1.144500	5.707240	-2.166920	0.887327	-0.353759	0.288573	-1.000000	-1.000000	-1.000000	-1.000000	-1.000000	-1.000000	-1.000000	67.448276	0.000000	-1.000000	-1.000000	1600440.000000	1773690757.935789
10043.145000	-15821.010000	6643.800000	10979.550000	-35049.330000	-33893.730000	2543.535000	8151.570000	-5.454384	-2.652402	-1.146967	-1.565292	-4.337046	-7.744105	0.075822	-1.351300	-0.366240	5.783540	-2.731540	0.887388	-0.354247	0.290160	-1.000000	-1.000000	-1.000000	-1.000000	-1.000000	-1.000000	-1.000000	67.448276	0.000000	-1.000000	-1.000000	1600441.000000	1773690757.939170
10030.500000	-15826.905000	6639.030000	10977.840000	-35050.455000	-33891.840000	2537.460000	8149.770000	-8.623167	0.875591	4.624318	4.195770	4.244274	5.348882	3.352617	-4.324392	-0.366240	5.783540	-2.731540	0.887388	-0.354247	0.290160	-1.000000	-1.000000	-1.000000	-1.000000	-1.000000	-1.000000	-1.000000	67.448276	0.000000	-1.000000	-1.000000	1600442.000000	1773690757.939201
10039.950000	-15822.090000	6642.000000	10981.530000	-35054.415000	-33911.100000	2534.040000	8140.095000	-9.467033	3.018101	7.413227	7.312503	10.692194	15.430430	5.291326	-4.832541	-0.366240	5.783540	-2.731540	0.887388	-0.354247	0.290160	-1.000000	-1.000000	-1.000000	-1.000000	-1.000000	-1.000000	-1.000000	67.448276	0.000000	-1.000000	-1.000000	1600443.000000	1773690757.944860
10039.995000	-15818.715000	6646.320000	10989.810000	-35041.455000	-33890.265000	2538.360000	8102.520000	-8.217897	2.260706	5.275174	5.655602	10.807761	16.380902	4.308354	-3.660771	-0.366240	5.783540	-2.731540	0.887388	-0.354247	0.290160	-1.000000	-1.000000	-1.000000	-1.000000	-1.000000	-1.000000	-1.000000	67.448276	0.000000	-1.000000	-1.000000	1600444.000000	1773690757.944871
10032.705000	-15815.295000	6647.490000	10986.570000	-35051.310000	-33898.005000	2527.560000	8124.390000	-4.773748	0.079647	0.468166	1.077199	5.455231	9.389534	0.965292	-2.354208	-0.366240	5.783540	-2.731540	0.887388	-0.354247	0.290160	-1.000000	-1.000000	-1.000000	-1.000000	-1.000000	-1.000000	-1.000000	67.448276	0.000000	-1.000000	-1.000000	1600445.000000	1773690757.947546
10014.885000	-15823.890000	6636.420000	10972.395000	-35058.870000	-33901.695000	2527.425000	8146.980000	-0.521478	-1.010691	-3.047430	-2.840338	-1.158704	0.502456	-2.617768	-0.424327	-0.366240	5.783540	-2.731540	0.887388	-0.354247	0.290160	-1.000000	-1.000000	-1.000000	-1.000000	-1.000000	-1.000000	-1.000000	67.448276	0.000000	-1.000000	-1.000000	1600446.000000	1773690757.947556
9997.920000	-15831.900000	6632.370000	10969.380000	-35051.985000	-33890.265000	2534.535000	8121.465000	1.788742	-0.550336	-3.628119	-4.210197	-5.210995	-4.845830	-4.265343	2.918793	-0.366240	5.783540	-2.731540	0.887388	-0.354247	0.290160	-1.000000	-1.000000	-1.000000	-1.000000	-1.000000	-1.000000	-1.000000	67.448276	0.000000	-1.000000	-1.000000	1600447.000000	1773690757.951716
10021.590000	-15832.710000	6632.550000	10970.505000	-35055.990000	-33895.305000	2530.845000	8111.430000	1.168799	-0.191922	-2.663427	-3.544523	-5.360858	-4.931569	-3.246078	5.323747	-0.366240	5.783540	-2.731540	0.887388	-0.354247	0.290160	-1.000000	-1.000000	-1.000000	-1.000000	-1.000000	-1.000000	-1.000000	67.448276	0.000000	-1.000000	-1.000000	1600448.000000	1773690757.951726
10044.810000	-15839.685000	6618.735000	10954.755000	-35070.885000	-33909.840000	2522.970000	8138.295000	0.494599	-0.902967	-1.986962	-2.276916	-3.207267	-2.537705	-0.860753	4.372385	-0.366240	5.783540	-2.731540	0.887388	-0.354247	0.290160	-1.000000	-1.000000	-1.000000	-1.000000	-1.000000	-1.000000	-1.000000	67.448276	0.000000	-1.000000	-1.000000	1600449.000000	1773690757.955454
10043.505000	-15830.190000	6627.780000	10963.575000	-35057.115000	-33884.640000	2524.050000	8154.180000	3.219059	-1.557834	-1.807599	-1.317859	-1.318894	-1.573042	0.914294	1.700004	-0.366240	5.783540	-2.731540	0.887388	-0.354247	0.290160	-1.000000	-1.000000	-1.000000	-1.000000	-1.000000	-1.000000	-1.000000	67.448276	0.000000	-1.000000	-1.000000	1600450.000000	1773690757.955467
10038.060000	-15838.515000	6623.775000	10965.465000	-35038.035000	-33846.570000	2521.980000	8154.855000	8.440239	-0.771428	-1.132929	-0.468804	-0.241823	-2.058979	1.371178	0.438954	-0.946120	6.027700	-3.937080	0.887754	-0.352721	0.290771	-1.000000	-1.000000	-1.000000	-1.000000	-1.000000	-1.000000	-1.000000	67.448276	0.000000	-1.000000	-1.000000	1600451.000000	1773690757.959303
10019.610000	-15840.315000	6624.810000	10968.660000	-35035.155000	-33843.420000	2528.775000	8162.865000	11.099311	0.799751	0.271138	0.613203	1.052171	-1.131299	1.159157	1.508517	-0.946120	6.027700	-3.937080	0.887754	-0.352721	0.290771	-1.000000	-1.000000	-1.000000	-1.000000	-1.000000	-1.000000	-1.000000	67.448276	0.000000	-1.000000	-1.000000	1600452.000000	1773690757.959314
10016.460000	-15831.945000	6634.260000	10976.355000	-35047.665000	-33888.915000	2529.405000	8156.655000	7.436668	1.596219	1.686640	1.679404	2.282273	0.854092	1.039933	3.668391	-0.946120	6.027700	-3.937080	0.887754	-0.352721	0.290771	-1.000000	-1.000000	-1.000000	-1.000000	-1.000000	-1.000000	-1.000000	67.448276	0.000000	-1.000000	-1.000000	1600453.000000	1773690757.963696
10017.360000	-15831.180000	6633.315000	10970.055000	-35076.870000	-33939.945000	2527.245000	8140.230000	-0.734664	1.571940	2.905456	2.623260	1.820413	-0.378131	1.288726	4.022673	-0.946120	6.027700	-3.937080	0.887754	-0.352721	0.290771	-1.000000	-1.000000	-1.000000	-1.000000	-1.000000	-1.000000	-1.000000	67.448276	0.000000	-1.000000	-1.000000	1600454.000000	1773690757.963706
10013.985000	-15836.625000	6628.410000	10961.730000	-35093.430000	-33976.890000	2530.215000	8137.845000	-7.953901	1.562891	3.958324	3.402977	-0.974548	-6.681878	1.655428	-0.032890	-0.946120	6.027700	-3.937080	0.887754	-0.352721	0.290771	-1.000000	-1.000000	-1.000000	-1.000000	-1.000000	-1.000000	-1.000000	67.448276	0.000000	-1.000000	-1.000000	1600455.000000	1773690757.968005
10015.560000	-15834.735000	6629.130000	10962.090000	-35083.665000	-33948.720000	2530.710000	8141.535000	-10.304215	1.624466	4.112421	3.364441	-4.509293	-13.624682	1.514058	-6.658052	-0.946120	6.027700	-3.937080	0.887754	-0.352721	0.290771	-1.000000	-1.000000	-1.000000	-1.000000	-1.000000	-1.000000	-1.000000	67.448276	0.000000	-1.000000	-1.000000	1600456.000000	1773690757.968015
10014.255000	-15835.185000	6625.890000	10955.790000	-35082.900000	-33941.970000	2516.760000	8135.010000	-8.142537	1.282543	2.626896	1.932557	-5.718625	-13.746107	0.406389	-10.853649	-0.946120	6.027700	-3.937080	0.887754	-0.352721	0.290771	-1.000000	-1.000000	-1.000000	-1.000000	-1.000000	-1.000000	-1.000000	67.448276	0.000000	-1.000000	-1.000000	1600457.000000	1773690757.974578
10027.035000	-15831.045000	6631.785000	10962.855000	-35068.635000	-33918.750000	2518.335000	8139.105000	-4.211482	0.510431	0.052798	-0.305427	-2.662888	-3.866681	-1.449288	-10.339989	-0.946120	6.027700	-3.937080	0.887754	-0.352721	0.290771	-1.000000	-1.000000	-1.000000	-1.000000	-1.000000	-1.000000	-1.000000	67.448276	0.000000	-1.000000	-1.000000	1600458.000000	1773690757.974592
10033.380000	-15830.730000	6635.655000	10972.980000	-35050.725000	-33883.155000	2536.560000	8144.730000	-0.081616	-0.316007	-2.157536	-1.962373	3.365997	11.257050	-2.801696	-6.401373	-0.946120	6.027700	-3.937080	0.887754	-0.352721	0.290771	-1.000000	-1.000000	-1.000000	-1.000000	-1.000000	-1.000000	-1.000000	67.448276	0.000000	-1.000000	-1.000000	1600459.000000	1773690757.975363
10027.665000	-15829.290000	6635.520000	10973.025000	-35054.100000	-33886.080000	2539.845000	8133.885000	3.883524	-0.965850	-3.126871	-2.297532	8.538553	22.709264	-2.152579	-0.997489	-0.946120	6.027700	-3.937080	0.887754	-0.352721	0.290771	-1.000000	-1.000000	-1.000000	-1.000000	-1.000000	-1.000000	-1.000000	67.448276	0.000000	-1.000000	-1.000000	1600460.000000	1773690757.975374
10032.120000	-15820.335000	6642.450000	10978.920000	-35062.155000	-33918.345000	2532.330000	8131.815000	6.755772	-1.323098	-2.986166	-1.797400	9.250294	23.572688	0.087217	4.113151	-1.251320	5.081580	-4.501700	0.887937	-0.352965	0.292907	-1.000000	-1.000000	-1.000000	-1.000000	-1.000000	-1.000000	-1.000000	67.448276	0.000000	-1.000000	-1.000000	1600461.000000	1773690757.981485
10019.520000	-15839.820000	6622.695000	10959.390000	-35078.265000	-33935.040000	2511.720000	8135.505000	7.293225	-1.570625	-2.499450	-1.473758	4.990695	13.551567	1.486567	7.589925	-1.251320	5.081580	-4.501700	0.887937	-0.352965	0.292907	-1.000000	-1.000000	-1.000000	-1.000000	-1.000000	-1.000000	-1.000000	67.448276	0.000000	-1.000000	-1.000000	1600462.000000	1773690757.981496
10023.480000	-15835.905000	6629.805000	10963.485000	-35069.085000	-33917.355000	2520.855000	8137.080000	4.961655	-2.168040	-2.315876	-1.727473	-0.965056	-0.146852	0.529054	8.927389	-1.251320	5.081580	-4.501700	0.887937	-0.352965	0.292907	-1.000000	-1.000000	-1.000000	-1.000000	-1.000000	-1.000000	-1.000000	67.448276	0.000000	-1.000000	-1.000000	1600463.000000	1773690757.983347
9986.265000	-15840.765000	6628.050000	10962.945000	-35061.255000	-33901.965000	2532.780000	8121.015000	0.296769	-2.762344	-1.994533	-1.741519	-4.355381	-8.656474	-1.464397	7.931430	-1.251320	5.081580	-4.501700	0.887937	-0.352965	0.292907	-1.000000	-1.000000	-1.000000	-1.000000	-1.000000	-1.000000	-1.000000	67.448276	0.000000	-1.000000	-1.000000	1600464.000000	1773690757.983355
9941.085000	-15832.260000	6639.570000	10974.195000	-35044.470000	-33875.415000	2541.780000	8106.750000	-6.027880	-2.327127	-0.629165	-0.512921	-3.650741	-9.077098	-1.888476	4.371895	-1.251320	5.081580	-4.501700	0.887937	-0.352965	0.292907	-1.000000	-1.000000	-1.000000	-1.000000	-1.000000	-1.000000	-1.000000	67.448276	0.000000	-1.000000	-1.000000	1600465.000000	1773690757.987441
10001.655000	-15827.670000	6638.310000	10970.460000	-35048.430000	-33874.920000	2525.085000	8106.255000	-11.959425	-0.440316	1.764389	1.796463	-0.684918	-5.051909	0.111281	-1.097000	-1.251320	5.081580	-4.501700	0.887937	-0.352965	0.292907	-1.000000	-1.000000	-1.000000	-1.000000	-1.000000	-1.000000	-1.000000	67.448276	0.000000	-1.000000	-1.000000	1600466.000000	1773690757.987453
10063.980000	-15834.285000	6625.080000	10960.200000	-35048.835000	-33862.185000	2522.745000	8137.800000	-11.693708	2.094655	3.743370	3.512265	1.197425	-2.116741	2.463374	-5.870721	-1.251320	5.081580	-4.501700	0.887937	-0.352965	0.292907	-1.000000	-1.000000	-1.000000	-1.000000	-1.000000	-1.000000	-1.000000	67.448276	0.000000	-1.000000	-1.000000	1600467.000000	1773690757.991215
10052.685000	-15843.150000	6616.485000	10953.225000	-35067.285000	-33890.535000	2520.540000	8154.450000	-1.667233	3.505721	3.319211	2.577433	-0.542448	-3.948479	2.467023	-6.474069	-1.251320	5.081580	-4.501700	0.887937	-0.352965	0.292907	-1.000000	-1.000000	-1.000000	-1.000000	-1.000000	-1.000000	-1.000000	67.448276	0.000000	-1.000000	-1.000000	1600468.000000	1773690757.991273
10063.755000	-15823.755000	6637.995000	10975.635000	-35054.055000	-33898.590000	2527.695000	8159.310000	12.367892	2.837880	0.515954	-0.724820	-5.115284	-9.814861	-0.034962	-1.907306	-1.251320	5.081580	-4.501700	0.887937	-0.352965	0.292907	-1.000000	-1.000000	-1.000000	-1.000000	-1.000000	-1.000000	-1.000000	67.448276	0.000000	-1.000000	-1.000000	1600469.000000	1773690758.000757
10050.120000	-15826.815000	6640.245000	10979.640000	-35054.955000	-33913.665000	2533.050000	8150.625000	20.403134	1.161824	-1.970060	-3.266580	-8.220310	-14.208401	-2.410737	4.519623	-1.251320	5.081580	-4.501700	0.887937	-0.352965	0.292907	-1.000000	-1.000000	-1.000000	-1.000000	-1.000000	-1.000000	-1.000000	67.448276	0.000000	-1.000000	-1.000000	1600470.000000	1773690758.000765
10040.985000	-15833.385000	6636.330000	10975.050000	-35061.480000	-33924.240000	2532.195000	8143.695000	17.082220	-0.015125	-1.864729	-2.533941	-6.211665	-11.696794	-2.079312	7.635366	-1.663340	6.073480	-4.196500	0.889524	-0.352050	0.294067	-1.000000	-1.000000	-1.000000	-1.000000	-1.000000	-1.000000	-1.000000	67.448276	0.000000	-1.000000	-1.000000	1600471.000000	1773690758.002008
10034.010000	-15835.680000	6631.830000	10967.265000	-35067.555000	-33922.080000	2525.355000	8140.455000	4.586395	-0.418243	0.220370	0.590597	-0.133835	-2.586532	0.442872	4.955846	-1.663340	6.073480	-4.196500	0.889524	-0.352050	0.294067	-1.000000	-1.000000	-1.000000	-1.000000	-1.000000	-1.000000	-1.000000	67.448276	0.000000	-1.000000	-1.000000	1600472.000000	1773690758.002017
10037.295000	-15832.620000	6630.210000	10964.340000	-35066.880000	-33913.395000	2530.395000	8142.165000	-9.159770	-0.554065	1.888661	3.019079	5.492624	7.689683	2.202725	-1.199932	-1.663340	6.073480	-4.196500	0.889524	-0.352050	0.294067	-1.000000	-1.000000	-1.000000	-1.000000	-1.000000	-1.000000	-1.000000	67.448276	0.000000	-1.000000	-1.000000	1600473.000000	1773690758.003201
10029.690000	-15837.120000	6626.070000	10961.145000	-35068.455000	-33918.975000	2528.415000	8105.940000	-16.350623	-0.846882	1.497403	2.648070	7.123386	13.479676	1.644246	-6.686557	-1.663340	6.073480	-4.196500	0.889524	-0.352050	0.294067	-1.000000	-1.000000	-1.000000	-1.000000	-1.000000	-1.000000	-1.000000	67.448276	0.000000	-1.000000	-1.000000	1600474.000000	1773690758.003207
10052.865000	-15804.675000	6655.230000	10983.420000	-35059.815000	-33919.785000	2510.685000	8065.485000	-15.739824	-1.004626	-0.174605	0.351666	4.823365	12.492406	-0.227708	-10.246069	-1.663340	6.073480	-4.196500	0.889524	-0.352050	0.294067	-1.000000	-1.000000	-1.000000	-1.000000	-1.000000	-1.000000	-1.000000	67.448276	0.000000	-1.000000	-1.000000	1600475.000000	1773690758.014430
10055.205000	-15812.955000	6645.735000	10977.795000	-35060.445000	-33907.095000	2509.110000	8125.065000	-11.385425	0.003530	-0.722509	-1.171387	1.260899	6.580947	-2.076036	-12.145901	-1.663340	6.073480	-4.196500	0.889524	-0.352050	0.294067	-1.000000	-1.000000	-1.000000	-1.000000	-1.000000	-1.000000	-1.000000	67.448276	0.000000	-1.000000	-1.000000	1600476.000000	1773690758.014440
10011.960000	-15845.625000	6621.210000	10957.905000	-35074.170000	-33909.345000	2511.945000	8157.915000	-6.844070	1.488868	0.162546	-1.096974	-1.210431	0.365678	-3.139749	-9.580236	-1.663340	6.073480	-4.196500	0.889524	-0.352050	0.294067	-1.000000	-1.000000	-1.000000	-1.000000	-1.000000	-1.000000	-1.000000	67.448276	0.000000	-1.000000	-1.000000	1600477.000000	1773690758.014452
9994.005000	-15859.980000	6611.445000	10954.530000	-35066.925000	-33893.640000	2522.655000	8144.280000	-3.627958	0.424765	-0.281011	-1.447884	-2.109343	-1.870158	-2.693044	-0.362533	-1.663340	6.073480	-4.196500	0.889524	-0.352050	0.294067	-1.000000	-1.000000	-1.000000	-1.000000	-1.000000	-1.000000	-1.000000	67.448276	0.000000	-1.000000	-1.000000	1600478.000000	1773690758.014457
9995.985000	-15864.705000	6608.925000	10954.710000	-35063.595000	-33898.815000	2529.360000	8133.480000	-1.268963	-3.883544	-3.276902	-3.226139	-1.632774	0.810709	-0.362940	11.025196	-1.663340	6.073480	-4.196500	0.889524	-0.352050	0.294067	-1.000000	-1.000000	-1.000000	-1.000000	-1.000000	-1.000000	-1.000000	67.448276	0.000000	-1.000000	-1.000000	1600479.000000	1773690758.015239
10011.735000	-15845.040000	6624.180000	10963.485000	-35060.670000	-33910.695000	2525.535000	8140.050000	2.573680	-7.401203	-5.893948	-4.273364	0.225437	5.149375	3.002355	17.308860	-1.663340	6.073480	-4.196500	0.889524	-0.352050	0.294067	-1.000000	-1.000000	-1.000000	-1.000000	-1.000000	-1.000000	-1.000000	67.448276	0.000000	-1.000000	-1.000000	1600480.000000	1773690758.015247
10019.115000	-15846.255000	6623.235000	10962.360000	-35067.870000	-33912.675000	2533.005000	8143.605000	9.147287	-5.822903	-4.606740	-2.275108	2.525459	6.079570	5.419061	15.546729	-1.175020	5.508860	-3.769220	0.892149	-0.352660	0.293639	-1.000000	-1.000000	-1.000000	-1.000000	-1.000000	-1.000000	-1.000000	67.448276	0.000000	-1.000000	-1.000000	1600481.000000	1773690758.025645
10029.105000	-15834.330000	6631.470000	10964.970000	-35072.145000	-33925.455000	2524.995000	8145.405000	16.303046	0.638576	0.592938	2.159062	3.268313	1.135139	5.231423	8.163262	-1.175020	5.508860	-3.769220	0.892149	-0.352660	0.293639	-1.000000	-1.000000	-1.000000	-1.000000	-1.000000	-1.000000	-1.000000	67.448276	0.000000	-1.000000	-1.000000	1600482.000000	1773690758.025655
10033.830000	-15833.475000	6630.075000	10962.360000	-35071.290000	-33914.655000	2524.320000	8141.670000	19.524995	7.754195	6.333378	6.070729	1.410300	-7.148137	2.486523	0.065935	-1.175020	5.508860	-3.769220	0.892149	-0.352660	0.293639	-1.000000	-1.000000	-1.000000	-1.000000	-1.000000	-1.000000	-1.000000	67.448276	0.000000	-1.000000	-1.000000	1600483.000000	1773690758.025666
10025.415000	-15850.080000	6618.735000	10959.795000	-35065.080000	-33896.475000	2522.115000	8128.530000	14.772249	10.622958	8.594168	6.663444	-1.894005	-13.085479	-1.015110	-5.372124	-1.175020	5.508860	-3.769220	0.892149	-0.352660	0.293639	-1.000000	-1.000000	-1.000000	-1.000000	-1.000000	-1.000000	-1.000000	67.448276	0.000000	-1.000000	-1.000000	1600484.000000	1773690758.025671
10020.240000	-15840.945000	6627.330000	10969.110000	-35059.185000	-33890.580000	2525.805000	8130.510000	2.598828	7.484894	6.053600	3.774937	-4.148353	-12.426993	-3.278213	-9.020133	-1.175020	5.508860	-3.769220	0.892149	-0.352660	0.293639	-1.000000	-1.000000	-1.000000	-1.000000	-1.000000	-1.000000	-1.000000	67.448276	0.000000	-1.000000	-1.000000	1600485.000000	1773690758.028799
9996.930000	-15835.995000	6635.520000	10976.490000	-35055.990000	-33897.105000	2532.780000	8122.680000	-10.568041	1.683652	1.543353	0.169146	-3.501476	-5.654658	-3.660077	-12.741932	-1.175020	5.508860	-3.769220	0.892149	-0.352660	0.293639	-1.000000	-1.000000	-1.000000	-1.000000	-1.000000	-1.000000	-1.000000	67.448276	0.000000	-1.000000	-1.000000	1600486.000000	1773690758.028810
9995.670000	-15834.645000	6637.050000	10978.155000	-35050.455000	-33892.830000	2529.720000	8111.835000	-17.668121	-2.063053	-1.257572	-1.560973	-0.430704	2.920382	-2.828101	-14.837869	-1.175020	5.508860	-3.769220	0.892149	-0.352660	0.293639	-1.000000	-1.000000	-1.000000	-1.000000	-1.000000	-1.000000	-1.000000	67.448276	0.000000	-1.000000	-1.000000	1600487.000000	1773690758.033267
10014.570000	-15842.610000	6621.840000	10962.405000	-35058.240000	-33887.475000	2518.380000	8118.135000	-16.103111	-2.609167	-1.804510	-1.604475	2.686047	9.058807	-1.978681	-11.935971	-1.175020	5.508860	-3.769220	0.892149	-0.352660	0.293639	-1.000000	-1.000000	-1.000000	-1.000000	-1.000000	-1.000000	-1.000000	67.448276	0.000000	-1.000000	-1.000000	1600488.000000	1773690758.033276
10011.465000	-15849.990000	6610.095000	10948.320000	-35063.910000	-33879.600000	2512.710000	8126.640000	-8.043255	-2.295802	-2.333171	-2.023241	3.589455	11.116597	-1.907393	-3.508195	-1.175020	5.508860	-3.769220	0.892149	-0.352660	0.293639	-1.000000	-1.000000	-1.000000	-1.000000	-1.000000	-1.000000	-1.000000	67.448276	0.000000	-1.000000	-1.000000	1600489.000000	1773690758.046505
10006.380000	-15837.795000	6622.245000	10954.935000	-35061.255000	-33886.755000	2510.190000	8134.875000	1.366282	-3.129806	-4.155358	-3.757967	1.870133	9.213197	-2.349103	7.173013	-1.175020	5.508860	-3.769220	0.892149	-0.352660	0.293639	-1.000000	-1.000000	-1.000000	-1.000000	-1.000000	-1.000000	-1.000000	67.448276	0.000000	-1.000000	-1.000000	1600490.000000	1773690758.046516
9985.590000	-15822.225000	6644.925000	10979.055000	-35035.920000	-33867.540000	2522.295000	8130.510000	6.835808	-4.268281	-5.427884	-4.910309	-0.540217	4.438237	-2.021838	15.390779	-2.243220	5.402040	-4.684820	0.892576	-0.351195	0.295287	-1.000000	-1.000000	-1.000000	-1.000000	-1.000000	-1.000000	-1.000000	67.448276	0.000000	-1.000000	-1.000000	1600491.000000	1773690758.046528
10019.115000	-15835.500000	6632.190000	10970.865000	-35054.190000	-33892.380000	2516.895000	8127.810000	6.380970	-3.941719	-3.860820	-3.165220	-1.524062	-1.487930	0.242941	17.797529	-2.243220	5.402040	-4.684820	0.892576	-0.351195	0.295287	-1.000000	-1.000000	-1.000000	-1.000000	-1.000000	-1.000000	-1.000000	67.448276	0.000000	-1.000000	-1.000000	1600492.000000	1773690758.046533
10049.175000	-15846.795000	6617.835000	10959.660000	-35067.600000	-33915.240000	2505.780000	8141.940000	3.246400	-2.210987	-0.294838	0.612968	-1.611080	-7.720476	3.568206	13.781688	-2.243220	5.402040	-4.684820	0.892576	-0.351195	0.295287	-1.000000	-1.000000	-1.000000	-1.000000	-1.000000	-1.000000	-1.000000	67.448276	0.000000	-1.000000	-1.000000	1600493.000000	1773690758.046539
10013.805000	-15866.550000	6600.420000	10942.515000	-35078.985000	-33897.465000	2508.795000	8141.310000	2.106444	-0.638750	2.174637	3.075463	-2.626775	-12.949367	5.380403	5.330807	-2.243220	5.402040	-4.684820	0.892576	-0.351195	0.295287	-1.000000	-1.000000	-1.000000	-1.000000	-1.000000	-1.000000	-1.000000	67.448276	0.000000	-1.000000	-1.000000	1600494.000000	1773690758.046544
10014.975000	-15857.820000	6606.495000	10944.405000	-35082.675000	-33905.790000	2517.660000	8131.725000	3.319532	-0.234848	1.755946	2.195672	-4.549598	-13.720809	4.384062	-3.952848	-2.243220	5.402040	-4.684820	0.892576	-0.351195	0.295287	-1.000000	-1.000000	-1.000000	-1.000000	-1.000000	-1.000000	-1.000000	67.448276	0.000000	-1.000000	-1.000000	1600495.000000	1773690758.074685
10013.760000	-15848.865000	6616.440000	10952.820000	-35082.990000	-33927.210000	2517.705000	8122.590000	3.987704	-0.042805	-0.044797	-0.508228	-5.519043	-8.508403	1.819326	-10.532422	-2.243220	5.402040	-4.684820	0.892576	-0.351195	0.295287	-1.000000	-1.000000	-1.000000	-1.000000	-1.000000	-1.000000	-1.000000	67.448276	0.000000	-1.000000	-1.000000	1600496.000000	1773690758.074699
10011.150000	-15852.195000	6615.180000	10947.105000	-35110.485000	-33993.585000	2516.895000	8120.295000	2.015805	1.491360	-0.239643	-1.667629	-4.111387	-1.252453	-0.259872	-12.722886	-2.243220	5.402040	-4.684820	0.892576	-0.351195	0.295287	-1.000000	-1.000000	-1.000000	-1.000000	-1.000000	-1.000000	-1.000000	67.448276	0.000000	-1.000000	-1.000000	1600497.000000	1773690758.074713
10018.260000	-15848.235000	6619.230000	10952.955000	-35091.945000	-33958.485000	2523.150000	8128.845000	-2.177890	4.004533	2.030228	0.226634	-0.617039	3.039895	-0.843639	-10.874406	-2.243220	5.402040	-4.684820	0.892576	-0.351195	0.295287	-1.000000	-1.000000	-1.000000	-1.000000	-1.000000	-1.000000	-1.000000	67.448276	0.000000	-1.000000	-1.000000	1600498.000000	1773690758.074719
10014.030000	-15844.410000	6624.045000	10956.195000	-35085.195000	-33942.555000	2512.305000	8128.665000	-5.845138	5.451464	4.621842	3.481755	3.823003	4.795505	-0.469977	-6.207352	-2.243220	5.402040	-4.684820	0.892576	-0.351195	0.295287	-1.000000	-1.000000	-1.000000	-1.000000	-1.000000	-1.000000	-1.000000	67.448276	0.000000	-1.000000	-1.000000	1600499.000000	1773690758.074725
10023.750000	-15822.450000	6642.720000	10967.850000	-35087.355000	-33949.845000	2503.215000	8130.420000	-6.524376	4.586112	5.051557	5.226268	7.558793	7.314091	-0.646375	-0.215736	-2.243220	5.402040	-4.684820	0.892576	-0.351195	0.295287	-1.000000	-1.000000	-1.000000	-1.000000	-1.000000	-1.000000	-1.000000	67.448276	0.000000	-1.000000	-1.000000	1600500.000000	1773690758.074730
10023.615000	-15839.280000	6627.375000	10961.685000	-35079.930000	-33926.940000	2520.360000	8141.805000	-4.657600	2.307446	3.131070	4.237390	8.940934	10.921772	-1.795960	5.316816	-2.380560	5.035800	-3.387720	0.894651	-0.351317	0.296935	-1.000000	-1.000000	-1.000000	-1.000000	-1.000000	-1.000000	-1.000000	67.448276	0.000000	-1.000000	-1.000000	1600501.000000	1773690758.074938
10023.930000	-15851.790000	6620.130000	10963.485000	-35061.480000	-33896.520000	2535.390000	8149.005000	-2.364111	-0.015017	0.289435	1.595860	8.147124	14.084509	-2.098303	8.497381	-2.380560	5.035800	-3.387720	0.894651	-0.351317	0.296935	-1.000000	-1.000000	-1.000000	-1.000000	-1.000000	-1.000000	-1.000000	67.448276	0.000000	-1.000000	-1.000000	1600502.000000	1773690758.074947
10027.935000	-15838.515000	6636.735000	10980.630000	-35046.720000	-33887.205000	2532.600000	8120.655000	-0.051845	-1.808094	-2.047783	-0.696028	6.663460	15.118361	-0.319148	7.918525	-2.380560	5.035800	-3.387720	0.894651	-0.351317	0.296935	-1.000000	-1.000000	-1.000000	-1.000000	-1.000000	-1.000000	-1.000000	67.448276	0.000000	-1.000000	-1.000000	1600503.000000	1773690758.074958
10034.550000	-15820.110000	6655.095000	10994.760000	-35034.165000	-33878.205000	2534.130000	8090.595000	3.176980	-2.436905	-2.698817	-1.233367	5.034624	12.105146	1.872529	3.389437	-2.380560	5.035800	-3.387720	0.894651	-0.351317	0.296935	-1.000000	-1.000000	-1.000000	-1.000000	-1.000000	-1.000000	-1.000000	67.448276	0.000000	-1.000000	-1.000000	1600504.000000	1773690758.074962
10045.845000	-15821.010000	6647.085000	10979.055000	-35044.920000	-33875.865000	2539.170000	8124.930000	6.541172	-1.614912	-1.625066	-0.509567	2.531224	5.201774	2.373981	-2.779296	-2.380560	5.035800	-3.387720	0.894651	-0.351317	0.296935	-1.000000	-1.000000	-1.000000	-1.000000	-1.000000	-1.000000	-1.000000	67.448276	0.000000	-1.000000	-1.000000	1600505.000000	1773690758.074968
10039.230000	-15829.605000	6633.765000	10962.135000	-35057.745000	-33877.755000	2528.415000	8130.825000	7.811350	-0.448866	-0.586332	-0.673700	-1.616696	-2.800315	0.977054	-6.089256	-2.380560	5.035800	-3.387720	0.894651	-0.351317	0.296935	-1.000000	-1.000000	-1.000000	-1.000000	-1.000000	-1.000000	-1.000000	67.448276	0.000000	-1.000000	-1.000000	1600506.000000	1773690758.074973
10009.125000	-15838.965000	6628.680000	10963.395000	-35047.620000	-33866.955000	2527.830000	8123.085000	5.171341	-0.667173	-1.461278	-3.062845	-7.123360	-9.785032	-1.446769	-4.390982	-2.380560	5.035800	-3.387720	0.894651	-0.351317	0.296935	-1.000000	-1.000000	-1.000000	-1.000000	-1.000000	-1.000000	-1.000000	67.448276	0.000000	-1.000000	-1.000000	1600507.000000	1773690758.074978
10015.695000	-15844.905000	6621.795000	10958.760000	-35063.955000	-33908.760000	2519.955000	8134.920000	-1.156503	-3.025823	-4.335701	-6.549177	-12.317743	-15.801900	-3.626254	-0.002414	-2.380560	5.035800	-3.387720	0.894651	-0.351317	0.296935	-1.000000	-1.000000	-1.000000	-1.000000	-1.000000	-1.000000	-1.000000	67.448276	0.000000	-1.000000	-1.000000	1600508.000000	1773690758.074983
10027.710000	-15846.525000	6624.045000	10961.145000	-35075.610000	-33922.260000	2520.270000	8149.590000	-7.838281	-6.255924	-7.252555	-8.589967	-15.012600	-20.801671	-4.281507	3.974419	-2.380560	5.035800	-3.387720	0.894651	-0.351317	0.296935	-1.000000	-1.000000	-1.000000	-1.000000	-1.000000	-1.000000	-1.000000	67.448276	0.000000	-1.000000	-1.000000	1600509.000000	1773690758.077836
10020.195000	-15845.760000	6627.420000	10966.455000	-35073.405000	-33921.765000	2531.160000	8146.935000	-10.775789	-7.275616	-7.131199	-6.998040	-13.699811	-22.714718	-3.091181	5.683693	-2.380560	5.035800	-3.387720	0.894651	-0.351317	0.296935	-1.000000	-1.000000	-1.000000	-1.000000	-1.000000	-1.000000	-1.000000	67.448276	0.000000	-1.000000	-1.000000	1600510.000000	1773690758.077847
10019.880000	-15849.675000	6624.495000	10966.815000	-35061.975000	-33905.610000	2532.420000	8139.150000	-8.460206	-3.836481	-2.431079	-1.585902	-8.162243	-18.737214	-0.778531	4.136838	-3.601360	5.020540	-2.289000	0.895811	-0.351501	0.298095	-1.000000	-1.000000	-1.000000	-1.000000	-1.000000	-1.000000	-1.000000	67.448276	0.000000	-1.000000	-1.000000	1600511.000000	1773690758.081583
10020.960000	-15839.775000	6632.055000	10973.025000	-35057.880000	-33903.270000	2525.940000	8128.980000	-2.367358	2.548532	4.420721	4.931689	0.092823	-8.195321	1.463299	0.396159	-3.601360	5.020540	-2.289000	0.895811	-0.351501	0.298095	-1.000000	-1.000000	-1.000000	-1.000000	-1.000000	-1.000000	-1.000000	67.448276	0.000000	-1.000000	-1.000000	1600512.000000	1773690758.081592
10033.560000	-15825.690000	6643.395000	10979.145000	-35053.335000	-33904.800000	2529.675000	8132.355000	4.363712	7.971536	9.189619	9.029020	8.184577	6.008432	2.634694	-2.775995	-3.601360	5.020540	-2.289000	0.895811	-0.351501	0.298095	-1.000000	-1.000000	-1.000000	-1.000000	-1.000000	-1.000000	-1.000000	67.448276	0.000000	-1.000000	-1.000000	1600513.000000	1773690758.085893
10030.635000	-15827.580000	6641.910000	10976.130000	-35054.640000	-33904.530000	2531.880000	8130.465000	8.650337	9.906763	9.951931	9.497326	13.560421	18.669207	2.675847	-4.095665	-3.601360	5.020540	-2.289000	0.895811	-0.351501	0.298095	-1.000000	-1.000000	-1.000000	-1.000000	-1.000000	-1.000000	-1.000000	67.448276	0.000000	-1.000000	-1.000000	1600514.000000	1773690758.085902
10025.415000	-15833.565000	6635.115000	10970.055000	-35059.140000	-33905.700000	2529.360000	8130.465000	9.066332	8.198950	7.470062	7.301111	14.844519	24.874424	2.282184	-4.351290	-3.601360	5.020540	-2.289000	0.895811	-0.351501	0.298095	-1.000000	-1.000000	-1.000000	-1.000000	-1.000000	-1.000000	-1.000000	67.448276	0.000000	-1.000000	-1.000000	1600515.000000	1773690758.088637
10026.495000	-15829.965000	6642.135000	10978.335000	-35051.130000	-33898.545000	2531.835000	8135.460000	6.424400	4.003450	3.245315	3.602643	11.599163	22.392128	1.984459	-3.926631	-3.601360	5.020540	-2.289000	0.895811	-0.351501	0.298095	-1.000000	-1.000000	-1.000000	-1.000000	-1.000000	-1.000000	-1.000000	67.448276	0.000000	-1.000000	-1.000000	1600516.000000	1773690758.088646
10023.120000	-15825.330000	6651.720000	10990.170000	-35036.910000	-33880.140000	2538.585000	8119.035000	2.419541	-0.796257	-1.051078	-0.378558	5.443356	13.802285	1.955454	-2.722444	-3.601360	5.020540	-2.289000	0.895811	-0.351501	0.298095	-1.000000	-1.000000	-1.000000	-1.000000	-1.000000	-1.000000	-1.000000	67.448276	0.000000	-1.000000	-1.000000	1600517.000000	1773690758.093013
10019.880000	-15809.985000	6664.680000	11001.240000	-35025.930000	-33864.930000	2545.425000	8077.365000	-1.998668	-4.021961	-3.646467	-3.061106	-0.139065	4.709460	2.030076	-2.144849	-3.601360	5.020540	-2.289000	0.895811	-0.351501	0.298095	-1.000000	-1.000000	-1.000000	-1.000000	-1.000000	-1.000000	-1.000000	67.448276	0.000000	-1.000000	-1.000000	1600518.000000	1773690758.093026
9991.125000	-15813.270000	6660.630000	10998.945000	-35028.630000	-33864.660000	2545.785000	8086.905000	-6.139858	-4.308682	-3.765448	-3.713560	-3.239793	-1.833155	1.449110	-3.437310	-3.601360	5.020540	-2.289000	0.895811	-0.351501	0.298095	-1.000000	-1.000000	-1.000000	-1.000000	-1.000000	-1.000000	-1.000000	67.448276	0.000000	-1.000000	-1.000000	1600519.000000	1773690758.095381
10007.055000	-15825.105000	6640.290000	10977.840000	-35049.510000	-33887.250000	2535.795000	8145.720000	-8.633009	-2.636816	-2.802366	-3.541438	-5.247752	-7.047262	-0.473644	-3.450612	-3.601360	5.020540	-2.289000	0.895811	-0.351501	0.298095	-1.000000	-1.000000	-1.000000	-1.000000	-1.000000	-1.000000	-1.000000	67.448276	0.000000	-1.000000	-1.000000	1600520.000000	1773690758.095393
10026.090000	-15843.960000	6622.290000	10961.235000	-35059.455000	-33896.655000	2532.420000	8165.655000	-7.637049	-2.041166	-3.460521	-4.662399	-8.201601	-12.585502	-3.298953	2.836195	-3.479280	4.455920	-2.441600	0.894956	-0.352904	0.298949	-1.000000	-1.000000	-1.000000	-1.000000	-1.000000	-1.000000	-1.000000	67.448276	0.000000	-1.000000	-1.000000	1600521.000000	1773690758.099233
10050.120000	-15843.240000	6631.785000	10971.180000	-35046.720000	-33879.375000	2536.650000	8152.155000	-2.429829	-4.283206	-6.338986	-7.074360	-11.187600	-16.686997	-5.521762	13.600087	-3.479280	4.455920	-2.441600	0.894956	-0.352904	0.298949	-1.000000	-1.000000	-1.000000	-1.000000	-1.000000	-1.000000	-1.000000	67.448276	0.000000	-1.000000	-1.000000	1600522.000000	1773690758.099243
10056.510000	-15837.570000	6632.145000	10965.915000	-35055.765000	-33876.315000	2533.680000	8148.510000	5.106807	-7.138202	-8.252438	-7.734871	-10.859855	-15.510180	-5.643272	19.837389	-3.479280	4.455920	-2.441600	0.894956	-0.352904	0.298949	-1.000000	-1.000000	-1.000000	-1.000000	-1.000000	-1.000000	-1.000000	67.448276	0.000000	-1.000000	-1.000000	1600523.000000	1773690758.106064
