Channel1	Channel2	Channel3	Channel4	Channel5	Channel6	Channel7	Channel8	FilteredChannel1	FilteredChannel2	FilteredChannel3	FilteredChannel4	FilteredChannel5	FilteredChannel6	FilteredChannel7	FilteredChannel8	GyroX	GyroY	GyroZ	AccX	AccY	AccZ	PPG1	PPG2	rawPPG1	rawPPG2	rawPPG3	Hr	Hrv	Battery	Trigger	PhysicalTrigger	AutoTrigger	NumMeasurements	Timestamp
-5937.840000	17360.280000	29290.860000	-7752.060000	-32414.580000	8444.160000	-19951.830000	-30647.205000	2.439974	3.992745	3.515327	2.357449	1.042366	2.474609	1.932383	-16.996036	-2.227960	2.777320	-0.686700	0.750669	0.585387	0.282287	-1.000000	-1.000000	-1.000000	-1.000000	-1.000000	-1.000000	-1.000000	78.758621	0.000000	-1.000000	-1.000000	154772.000000	1773687866.794625
-5942.070000	17361.495000	29291.760000	-7747.875000	-32408.145000	8451.315000	-19948.185000	-30652.470000	2.160026	2.433021	1.568549	1.208667	2.474222	2.889033	4.697668	-7.941552	-2.227960	2.777320	-0.686700	0.750669	0.585387	0.282287	-1.000000	-1.000000	-1.000000	-1.000000	-1.000000	-1.000000	-1.000000	78.758621	0.000000	-1.000000	-1.000000	154773.000000	1773687866.860126
-5956.380000	17355.330000	29288.655000	-7749.990000	-32413.770000	8440.515000	-19945.800000	-30655.530000	2.702662	0.909920	-0.177972	0.263700	3.088931	2.339355	4.533308	8.453830	-2.227960	2.777320	-0.686700	0.750669	0.585387	0.282287	-1.000000	-1.000000	-1.000000	-1.000000	-1.000000	-1.000000	-1.000000	78.758621	0.000000	-1.000000	-1.000000	154774.000000	1773687866.860139
-5947.695000	17363.700000	29295.540000	-7742.250000	-32404.230000	8450.640000	-19936.530000	-30642.840000	2.110542	-0.976119	-1.705212	-0.348564	3.248128	1.225772	2.643409	22.374342	-2.227960	2.777320	-0.686700	0.750669	0.585387	0.282287	-1.000000	-1.000000	-1.000000	-1.000000	-1.000000	-1.000000	-1.000000	78.758621	0.000000	-1.000000	-1.000000	154775.000000	1773687866.860153
-5939.505000	17364.330000	29295.540000	-7743.375000	-32405.265000	8452.125000	-19937.070000	-30636.000000	0.056814	-2.593953	-2.433027	-0.357987	3.435077	0.505406	1.166781	26.674385	-2.227960	2.777320	-0.686700	0.750669	0.585387	0.282287	-1.000000	-1.000000	-1.000000	-1.000000	-1.000000	-1.000000	-1.000000	78.758621	0.000000	-1.000000	-1.000000	154776.000000	1773687866.860159
-5946.480000	17361.495000	29294.730000	-7745.355000	-32408.730000	8451.990000	-19937.790000	-30649.995000	-1.814842	-2.879150	-1.842886	0.219298	3.356559	0.498861	1.119378	21.587862	-2.227960	2.777320	-0.686700	0.750669	0.585387	0.282287	-1.000000	-1.000000	-1.000000	-1.000000	-1.000000	-1.000000	-1.000000	78.758621	0.000000	-1.000000	-1.000000	154777.000000	1773687866.860165
-5938.245000	17370.495000	29301.660000	-7740.270000	-32405.220000	8453.835000	-19935.405000	-30642.300000	-2.564890	-1.993158	-0.654132	0.395380	1.772205	0.137958	1.518630	10.957967	-2.227960	2.777320	-0.686700	0.750669	0.585387	0.282287	-1.000000	-1.000000	-1.000000	-1.000000	-1.000000	-1.000000	-1.000000	78.758621	0.000000	-1.000000	-1.000000	154778.000000	1773687866.860170
-5938.965000	17369.505000	29301.210000	-7745.085000	-32412.015000	8448.975000	-19945.215000	-30648.330000	-2.538179	-0.958231	-0.066416	-0.597956	-1.477789	-1.265061	0.533688	-1.251667	-2.227960	2.777320	-0.686700	0.750669	0.585387	0.282287	-1.000000	-1.000000	-1.000000	-1.000000	-1.000000	-1.000000	-1.000000	78.758621	0.000000	-1.000000	-1.000000	154779.000000	1773687866.860593
-5929.020000	17388.090000	29323.935000	-7720.245000	-32385.465000	8479.485000	-19935.495000	-30653.640000	-2.257502	-0.212163	-0.108362	-1.932595	-4.430604	-2.553714	-2.272758	-12.272944	-2.227960	2.777320	-0.686700	0.750669	0.585387	0.282287	-1.000000	-1.000000	-1.000000	-1.000000	-1.000000	-1.000000	-1.000000	78.758621	0.000000	-1.000000	-1.000000	154780.000000	1773687866.860900
-5909.490000	17412.255000	29349.675000	-7693.560000	-32359.230000	8509.230000	-19923.705000	-30660.615000	-1.649132	0.685015	0.394742	-1.753135	-4.588814	-1.865265	-5.102523	-20.112568	-4.104940	1.846460	-1.098720	0.750242	0.583250	0.283141	-1.000000	-1.000000	-1.000000	-1.000000	-1.000000	-1.000000	-1.000000	78.758621	0.000000	-1.000000	-1.000000	154781.000000	1773687866.860906
-5896.080000	17423.235000	29358.180000	-7683.030000	-32352.165000	8506.755000	-19917.495000	-30708.405000	0.077950	2.209913	2.140584	0.742434	-1.351637	0.971617	-5.687590	-22.913114	-4.104940	1.846460	-1.098720	0.750242	0.583250	0.283141	-1.000000	-1.000000	-1.000000	-1.000000	-1.000000	-1.000000	-1.000000	78.758621	0.000000	-1.000000	-1.000000	154782.000000	1773687866.860911
-5906.025000	17405.145000	29335.410000	-7706.790000	-32375.610000	8486.865000	-19915.560000	-30674.475000	2.794960	3.416399	3.570839	3.481843	2.649565	3.397805	-3.588755	-19.758593	-4.104940	1.846460	-1.098720	0.750242	0.583250	0.283141	-1.000000	-1.000000	-1.000000	-1.000000	-1.000000	-1.000000	-1.000000	78.758621	0.000000	-1.000000	-1.000000	154783.000000	1773687866.860917
-5917.680000	17401.275000	29333.160000	-7709.760000	-32389.335000	8486.820000	-19916.280000	-30644.415000	4.105260	2.143120	1.970097	3.015912	3.359752	2.404933	-0.365782	-10.271450	-4.104940	1.846460	-1.098720	0.750242	0.583250	0.283141	-1.000000	-1.000000	-1.000000	-1.000000	-1.000000	-1.000000	-1.000000	78.758621	0.000000	-1.000000	-1.000000	154784.000000	1773687866.860922
-5940.720000	17369.055000	29302.830000	-7735.005000	-32415.255000	8463.060000	-19924.380000	-30574.890000	1.536709	-2.374499	-3.144524	-1.565838	-0.798512	-2.281218	2.051807	5.241868	-4.104940	1.846460	-1.098720	0.750242	0.583250	0.283141	-1.000000	-1.000000	-1.000000	-1.000000	-1.000000	-1.000000	-1.000000	78.758621	0.000000	-1.000000	-1.000000	154785.000000	1773687866.860927
-5968.080000	17325.720000	29252.745000	-7785.540000	-32433.300000	8401.680000	-19940.670000	-30628.665000	-4.548060	-8.775929	-9.885637	-8.330554	-7.562537	-8.854638	2.429140	22.144942	-4.104940	1.846460	-1.098720	0.750242	0.583250	0.283141	-1.000000	-1.000000	-1.000000	-1.000000	-1.000000	-1.000000	-1.000000	78.620690	0.000000	-1.000000	-1.000000	154786.000000	1773687866.860932
-5946.795000	17346.105000	29278.800000	-7757.955000	-32413.815000	8433.135000	-19945.890000	-30626.325000	-10.595511	-14.165981	-15.218839	-13.999033	-12.295904	-14.453068	0.547444	30.584278	-4.104940	1.846460	-1.098720	0.750242	0.583250	0.283141	-1.000000	-1.000000	-1.000000	-1.000000	-1.000000	-1.000000	-1.000000	78.620690	0.000000	-1.000000	-1.000000	154787.000000	1773687866.860938
-5939.865000	17356.230000	29291.310000	-7746.840000	-32407.965000	8449.830000	-19946.520000	-30607.920000	-11.776455	-14.121800	-14.656524	-13.912803	-10.607155	-14.212177	-2.190209	24.144189	-4.104940	1.846460	-1.098720	0.750242	0.583250	0.283141	-1.000000	-1.000000	-1.000000	-1.000000	-1.000000	-1.000000	-1.000000	78.620690	0.000000	-1.000000	-1.000000	154788.000000	1773687866.860942
-5934.690000	17369.370000	29305.080000	-7735.995000	-32397.165000	8463.780000	-19928.790000	-30610.665000	-6.181166	-6.404332	-6.021380	-5.947878	-2.467891	-5.628595	-3.424856	7.021833	-4.104940	1.846460	-1.098720	0.750242	0.583250	0.283141	-1.000000	-1.000000	-1.000000	-1.000000	-1.000000	-1.000000	-1.000000	78.620690	0.000000	-1.000000	-1.000000	154789.000000	1773687866.860948
-5927.535000	17378.100000	29313.495000	-7726.995000	-32386.995000	8474.985000	-19915.605000	-30609.495000	2.964046	5.493417	6.714896	5.813414	7.165971	6.990227	-1.790933	-10.538528	-4.104940	1.846460	-1.098720	0.750242	0.583250	0.283141	-1.000000	-1.000000	-1.000000	-1.000000	-1.000000	-1.000000	-1.000000	78.620690	0.000000	-1.000000	-1.000000	154790.000000	1773687866.860953
-5950.980000	17357.940000	29292.705000	-7746.795000	-32406.795000	8453.385000	-19930.005000	-30652.965000	10.218352	15.098971	16.614778	14.728042	12.991635	16.610867	1.771887	-20.617544	-3.525060	3.235120	-0.808780	0.751402	0.583250	0.283324	-1.000000	-1.000000	-1.000000	-1.000000	-1.000000	-1.000000	-1.000000	78.620690	0.000000	-1.000000	-1.000000	154791.000000	1773687866.860960
-5954.805000	17359.380000	29293.515000	-7746.165000	-32407.290000	8454.420000	-19927.080000	-30673.755000	11.933655	17.854171	19.077000	16.826764	12.978560	18.922375	4.562933	-22.479880	-3.525060	3.235120	-0.808780	0.751402	0.583250	0.283324	-1.000000	-1.000000	-1.000000	-1.000000	-1.000000	-1.000000	-1.000000	78.620690	0.000000	-1.000000	-1.000000	154792.000000	1773687866.860964
-5927.445000	17384.085000	29315.385000	-7726.635000	-32390.145000	8471.970000	-19916.640000	-30625.200000	8.863041	14.138851	14.645641	12.937618	8.983075	14.259254	4.962960	-19.517453	-3.525060	3.235120	-0.808780	0.751402	0.583250	0.283324	-1.000000	-1.000000	-1.000000	-1.000000	-1.000000	-1.000000	-1.000000	78.620690	0.000000	-1.000000	-1.000000	154793.000000	1773687866.860970
-5926.365000	17388.630000	29321.415000	-7722.720000	-32390.190000	8465.760000	-19927.035000	-30639.645000	5.308329	8.512793	8.087124	7.392549	4.782142	6.857157	3.766278	-12.972822	-3.525060	3.235120	-0.808780	0.751402	0.583250	0.283324	-1.000000	-1.000000	-1.000000	-1.000000	-1.000000	-1.000000	-1.000000	78.620690	0.000000	-1.000000	-1.000000	154794.000000	1773687866.860975
-5924.205000	17389.980000	29323.845000	-7722.855000	-32392.170000	8465.715000	-19926.270000	-30637.215000	3.976495	4.650027	3.527335	3.663501	2.170969	1.014473	2.175755	-2.641941	-3.525060	3.235120	-0.808780	0.751402	0.583250	0.283324	-1.000000	-1.000000	-1.000000	-1.000000	-1.000000	-1.000000	-1.000000	78.620690	0.000000	-1.000000	-1.000000	154795.000000	1773687866.860981
-5921.910000	17382.735000	29316.105000	-7730.325000	-32399.145000	8464.185000	-19923.705000	-30613.815000	3.174902	1.632431	0.419820	0.991740	-0.323388	-2.678492	0.664692	9.548960	-3.525060	3.235120	-0.808780	0.751402	0.583250	0.283324	-1.000000	-1.000000	-1.000000	-1.000000	-1.000000	-1.000000	-1.000000	78.620690	0.000000	-1.000000	-1.000000	154796.000000	1773687866.860986
-5928.660000	17377.245000	29310.660000	-7731.405000	-32395.815000	8467.920000	-19925.460000	-30631.950000	0.007401	-3.552418	-4.441168	-3.547007	-4.465999	-6.381459	-0.760778	18.942294	-3.525060	3.235120	-0.808780	0.751402	0.583250	0.283324	-1.000000	-1.000000	-1.000000	-1.000000	-1.000000	-1.000000	-1.000000	78.620690	0.000000	-1.000000	-1.000000	154797.000000	1773687866.860991
-5934.285000	17373.375000	29306.025000	-7737.030000	-32395.545000	8467.245000	-19928.385000	-30641.175000	-5.861705	-11.227117	-11.748523	-10.350223	-9.564538	-10.946278	-2.652334	20.641426	-3.525060	3.235120	-0.808780	0.751402	0.583250	0.283324	-1.000000	-1.000000	-1.000000	-1.000000	-1.000000	-1.000000	-1.000000	78.620690	0.000000	-1.000000	-1.000000	154798.000000	1773687866.860996
-5930.055000	17376.075000	29308.860000	-7731.090000	-32388.255000	8470.395000	-19928.430000	-30639.105000	-11.633493	-17.753150	-17.948949	-16.048849	-12.745295	-14.186733	-5.096284	14.214981	-3.525060	3.235120	-0.808780	0.751402	0.583250	0.283324	-1.000000	-1.000000	-1.000000	-1.000000	-1.000000	-1.000000	-1.000000	78.620690	0.000000	-1.000000	-1.000000	154799.000000	1773687866.861001
-5932.395000	17381.385000	29313.135000	-7727.220000	-32395.545000	8473.815000	-19942.110000	-30650.625000	-13.214063	-18.177560	-18.003247	-16.078897	-11.107122	-12.718361	-6.709774	4.594108	-3.525060	3.235120	-0.808780	0.751402	0.583250	0.283324	-1.000000	-1.000000	-1.000000	-1.000000	-1.000000	-1.000000	-1.000000	78.620690	0.000000	-1.000000	-1.000000	154800.000000	1773687866.861006
-5919.750000	17400.870000	29333.520000	-7710.660000	-32388.795000	8489.025000	-19928.340000	-30668.805000	-8.712923	-10.562250	-9.956932	-8.742139	-4.502944	-5.542235	-5.938214	-3.633478	-4.654300	2.533160	-1.068200	0.749083	0.579832	0.282958	-1.000000	-1.000000	-1.000000	-1.000000	-1.000000	-1.000000	-1.000000	78.620690	0.000000	-1.000000	-1.000000	154801.000000	1773687866.861012
-5899.230000	17414.910000	29350.125000	-7696.350000	-32368.815000	8486.505000	-19921.050000	-30626.775000	-0.241089	1.905034	2.913221	2.802091	4.024368	4.198180	-2.365281	-9.382005	-4.654300	2.533160	-1.068200	0.749083	0.579832	0.282958	-1.000000	-1.000000	-1.000000	-1.000000	-1.000000	-1.000000	-1.000000	78.620690	0.000000	-1.000000	-1.000000	154802.000000	1773687866.861017
-5920.020000	17382.510000	29319.795000	-7714.395000	-32380.605000	8468.235000	-19925.370000	-30627.180000	7.827248	12.815258	14.086405	12.725053	10.645152	11.493066	3.011296	-11.380453	-4.654300	2.533160	-1.068200	0.749083	0.579832	0.282958	-1.000000	-1.000000	-1.000000	-1.000000	-1.000000	-1.000000	-1.000000	78.620690	0.000000	-1.000000	-1.000000	154803.000000	1773687866.861022
-5958.675000	17356.320000	29299.050000	-7730.775000	-32394.420000	8462.520000	-19924.920000	-30640.410000	10.711231	15.979902	17.282118	15.813911	12.268866	12.721601	7.708926	-8.404558	-4.654300	2.533160	-1.068200	0.749083	0.579832	0.282958	-1.000000	-1.000000	-1.000000	-1.000000	-1.000000	-1.000000	-1.000000	78.620690	0.000000	-1.000000	-1.000000	154804.000000	1773687866.861027
-5938.920000	17381.160000	29320.515000	-7718.490000	-32387.355000	8467.290000	-19916.055000	-30643.335000	6.293302	10.058551	11.053893	10.669302	7.979679	7.646879	9.235873	-3.169191	-4.654300	2.533160	-1.068200	0.749083	0.579832	0.282958	-1.000000	-1.000000	-1.000000	-1.000000	-1.000000	-1.000000	-1.000000	78.620690	0.000000	-1.000000	-1.000000	154805.000000	1773687866.861229
-5924.835000	17387.010000	29322.090000	-7717.005000	-32391.990000	8468.595000	-19922.940000	-30701.295000	-1.359999	0.562486	0.737181	1.218617	0.309016	-0.399351	6.902289	-0.085515	-4.654300	2.533160	-1.068200	0.749083	0.579832	0.282958	-1.000000	-1.000000	-1.000000	-1.000000	-1.000000	-1.000000	-1.000000	78.620690	0.000000	-1.000000	-1.000000	154806.000000	1773687866.861239
-5971.770000	17316.225000	29250.270000	-7781.940000	-32444.505000	8417.970000	-19951.020000	-30656.790000	-6.257980	-6.601042	-7.719315	-7.530076	-7.342688	-7.549112	1.433024	-0.267247	-4.654300	2.533160	-1.068200	0.749083	0.579832	0.282958	-1.000000	-1.000000	-1.000000	-1.000000	-1.000000	-1.000000	-1.000000	78.620690	0.000000	-1.000000	-1.000000	154807.000000	1773687866.926421
-5965.110000	17312.355000	29241.945000	-7792.335000	-32453.280000	8412.570000	-19968.030000	-30604.815000	-6.919859	-10.577792	-12.918999	-13.618441	-13.041303	-11.927009	-5.573417	0.364662	-4.654300	2.533160	-1.068200	0.749083	0.579832	0.282958	-1.000000	-1.000000	-1.000000	-1.000000	-1.000000	-1.000000	-1.000000	78.620690	0.000000	-1.000000	-1.000000	154808.000000	1773687866.926434
-5953.230000	17339.310000	29270.880000	-7768.260000	-32433.615000	8431.470000	-19959.345000	-30640.455000	-4.422316	-11.297160	-14.080408	-15.436210	-14.309543	-12.043604	-10.971028	5.641771	-4.654300	2.533160	-1.068200	0.749083	0.579832	0.282958	-1.000000	-1.000000	-1.000000	-1.000000	-1.000000	-1.000000	-1.000000	78.620690	0.000000	-1.000000	-1.000000	154809.000000	1773687866.926449
-5954.445000	17347.095000	29281.815000	-7754.580000	-32420.880000	8439.930000	-19948.770000	-30655.350000	0.116666	-7.076183	-9.114241	-10.543881	-8.628350	-6.558945	-11.322187	11.424611	-4.654300	2.533160	-1.068200	0.749083	0.579832	0.282958	-1.000000	-1.000000	-1.000000	-1.000000	-1.000000	-1.000000	-1.000000	78.620690	0.000000	-1.000000	-1.000000	154810.000000	1773687866.926455
-5944.545000	17357.625000	29293.200000	-7745.670000	-32419.485000	8446.635000	-19941.345000	-30660.480000	4.575863	1.543555	1.228014	0.348351	2.335857	3.207123	-5.815131	9.969422	-2.670500	2.975700	-0.793520	0.746275	0.582213	0.280700	-1.000000	-1.000000	-1.000000	-1.000000	-1.000000	-1.000000	-1.000000	78.620690	0.000000	-1.000000	-1.000000	154811.000000	1773687866.926461
-5950.170000	17347.320000	29285.010000	-7759.845000	-32432.535000	8441.955000	-19944.720000	-30656.970000	7.378181	11.098583	12.622162	12.387499	12.861460	13.144046	2.866538	0.671065	-2.670500	2.975700	-0.793520	0.746275	0.582213	0.280700	-1.000000	-1.000000	-1.000000	-1.000000	-1.000000	-1.000000	-1.000000	78.620690	0.000000	-1.000000	-1.000000	154812.000000	1773687866.926466
-5949.135000	17344.620000	29278.485000	-7773.120000	-32446.440000	8446.905000	-19945.080000	-30669.795000	8.398962	17.175729	19.649062	19.402535	17.405396	18.376430	10.081479	-9.622556	-2.670500	2.975700	-0.793520	0.746275	0.582213	0.280700	-1.000000	-1.000000	-1.000000	-1.000000	-1.000000	-1.000000	-1.000000	78.620690	0.000000	-1.000000	-1.000000	154813.000000	1773687866.926471
-5943.465000	17354.970000	29285.730000	-7767.945000	-32437.800000	8451.810000	-19941.390000	-30673.530000	7.167893	16.173098	18.262828	17.495685	13.961649	15.983724	12.104212	-14.068357	-2.670500	2.975700	-0.793520	0.746275	0.582213	0.280700	-1.000000	-1.000000	-1.000000	-1.000000	-1.000000	-1.000000	-1.000000	78.620690	0.000000	-1.000000	-1.000000	154814.000000	1773687866.926476
-5949.495000	17352.270000	29284.740000	-7763.715000	-32436.855000	8446.410000	-19942.830000	-30633.840000	3.272677	8.399309	9.248246	8.412676	5.463304	7.285803	8.715562	-9.658188	-2.670500	2.975700	-0.793520	0.746275	0.582213	0.280700	-1.000000	-1.000000	-1.000000	-1.000000	-1.000000	-1.000000	-1.000000	78.620690	0.000000	-1.000000	-1.000000	154815.000000	1773687866.926481
-5944.320000	17359.380000	29291.445000	-7759.980000	-32445.315000	8440.920000	-19939.365000	-30622.140000	-1.558349	-0.927054	-1.185869	-1.136121	-2.271407	-2.768715	3.078661	1.252557	-2.670500	2.975700	-0.793520	0.746275	0.582213	0.280700	-1.000000	-1.000000	-1.000000	-1.000000	-1.000000	-1.000000	-1.000000	78.620690	0.000000	-1.000000	-1.000000	154816.000000	1773687866.926486
-5940.270000	17364.465000	29296.305000	-7768.215000	-32447.745000	8446.680000	-19939.995000	-30636.540000	-4.646102	-6.533458	-7.127767	-5.867675	-5.633601	-9.393023	-1.228260	10.993700	-2.670500	2.975700	-0.793520	0.746275	0.582213	0.280700	-1.000000	-1.000000	-1.000000	-1.000000	-1.000000	-1.000000	-1.000000	78.620690	0.000000	-1.000000	-1.000000	154817.000000	1773687866.926491
-5944.365000	17355.285000	29286.495000	-7768.080000	-32427.990000	8449.335000	-19949.805000	-30641.580000	-5.476678	-8.299523	-8.612621	-6.681422	-5.458594	-11.361514	-3.401970	13.083803	-2.670500	2.975700	-0.793520	0.746275	0.582213	0.280700	-1.000000	-1.000000	-1.000000	-1.000000	-1.000000	-1.000000	-1.000000	78.620690	0.000000	-1.000000	-1.000000	154818.000000	1773687866.926496
-5946.840000	17345.430000	29278.755000	-7749.270000	-32401.980000	8439.525000	-19960.695000	-30628.845000	-5.498394	-9.401269	-9.412371	-6.983787	-3.913493	-10.333843	-5.204782	7.817984	-2.670500	2.975700	-0.793520	0.746275	0.582213	0.280700	-1.000000	-1.000000	-1.000000	-1.000000	-1.000000	-1.000000	-1.000000	78.620690	0.000000	-1.000000	-1.000000	154819.000000	1773687866.926501
-5954.310000	17338.005000	29274.255000	-7741.260000	-32384.790000	8440.515000	-19962.405000	-30646.665000	-5.555328	-10.918311	-10.932858	-7.114796	-1.589520	-7.953023	-7.531832	-0.295909	-2.670500	2.975700	-0.793520	0.746275	0.582213	0.280700	-1.000000	-1.000000	-1.000000	-1.000000	-1.000000	-1.000000	-1.000000	78.620690	0.000000	-1.000000	-1.000000	154820.000000	1773687866.926506
-5956.740000	17344.485000	29281.770000	-7746.300000	-32402.250000	8446.050000	-19953.405000	-30680.595000	-4.973720	-10.584664	-10.767273	-5.248068	1.260346	-4.589185	-8.651350	-7.589725	-4.745860	2.075360	-1.617560	0.744261	0.578978	0.278075	-1.000000	-1.000000	-1.000000	-1.000000	-1.000000	-1.000000	-1.000000	78.620690	0.000000	-1.000000	-1.000000	154821.000000	1773687866.926511
-5943.150000	17358.660000	29296.935000	-7738.155000	-32402.565000	8442.810000	-19946.295000	-30663.315000	-2.799229	-6.176003	-6.387803	-1.237885	2.815343	-0.518631	-6.370716	-11.955031	-4.745860	2.075360	-1.617560	0.744261	0.578978	0.278075	-1.000000	-1.000000	-1.000000	-1.000000	-1.000000	-1.000000	-1.000000	78.620690	0.000000	-1.000000	-1.000000	154822.000000	1773687866.926516
-5929.200000	17378.640000	29314.485000	-7725.825000	-32401.080000	8445.870000	-19937.340000	-30680.775000	0.957868	1.557842	1.593590	2.930279	1.266440	3.076542	-0.781259	-11.463955	-4.745860	2.075360	-1.617560	0.744261	0.578978	0.278075	-1.000000	-1.000000	-1.000000	-1.000000	-1.000000	-1.000000	-1.000000	78.620690	0.000000	-1.000000	-1.000000	154823.000000	1773687866.926522
-5942.205000	17376.840000	29314.620000	-7729.020000	-32409.900000	8452.035000	-19932.660000	-30691.755000	5.137671	9.596430	9.935674	5.350975	-2.567428	5.437665	5.747125	-6.897693	-4.745860	2.075360	-1.617560	0.744261	0.578978	0.278075	-1.000000	-1.000000	-1.000000	-1.000000	-1.000000	-1.000000	-1.000000	78.620690	0.000000	-1.000000	-1.000000	154824.000000	1773687866.926526
-5945.535000	17366.715000	29303.955000	-7727.535000	-32390.415000	8464.320000	-19920.465000	-30654.720000	7.544747	14.201888	14.603776	5.318163	-5.578050	6.968002	10.404703	-1.606243	-4.745860	2.075360	-1.617560	0.744261	0.578978	0.278075	-1.000000	-1.000000	-1.000000	-1.000000	-1.000000	-1.000000	-1.000000	78.620690	0.000000	-1.000000	-1.000000	154825.000000	1773687866.926533
-5937.255000	17364.735000	29298.285000	-7724.565000	-32380.155000	8473.905000	-19927.890000	-30622.455000	6.413566	12.362951	12.494968	3.053147	-5.208315	7.602620	11.213592	4.035163	-4.745860	2.075360	-1.617560	0.744261	0.578978	0.278075	-1.000000	-1.000000	-1.000000	-1.000000	-1.000000	-1.000000	-1.000000	78.620690	0.000000	-1.000000	-1.000000	154826.000000	1773687866.926538
-5946.525000	17355.690000	29286.990000	-7745.220000	-32407.245000	8451.045000	-19957.590000	-30629.295000	2.364302	4.512107	4.034315	-0.914995	-2.562671	6.036787	7.229630	11.010976	-4.745860	2.075360	-1.617560	0.744261	0.578978	0.278075	-1.000000	-1.000000	-1.000000	-1.000000	-1.000000	-1.000000	-1.000000	78.620690	0.000000	-1.000000	-1.000000	154827.000000	1773687866.926543
-5964.300000	17343.135000	29282.670000	-7754.805000	-32450.715000	8445.510000	-19950.660000	-30678.075000	-2.500023	-5.088650	-6.253914	-6.040514	-2.088157	1.423295	-0.556020	15.415788	-4.745860	2.075360	-1.617560	0.744261	0.578978	0.278075	-1.000000	-1.000000	-1.000000	-1.000000	-1.000000	-1.000000	-1.000000	78.620690	0.000000	-1.000000	-1.000000	154828.000000	1773687866.926548
-5946.615000	17350.785000	29285.910000	-7771.230000	-32511.915000	8439.300000	-19937.250000	-30677.130000	-5.944506	-11.368730	-12.758160	-10.678901	-6.626106	-4.779087	-8.148195	12.062245	-4.745860	2.075360	-1.617560	0.744261	0.578978	0.278075	-1.000000	-1.000000	-1.000000	-1.000000	-1.000000	-1.000000	-1.000000	78.620690	0.000000	-1.000000	-1.000000	154829.000000	1773687866.926553
-5937.615000	17354.925000	29284.965000	-7784.775000	-32497.515000	8422.110000	-19955.565000	-30665.835000	-5.866524	-11.491394	-12.547837	-12.072596	-12.875655	-9.715054	-11.390608	2.639923	-4.745860	2.075360	-1.617560	0.744261	0.578978	0.278075	-1.000000	-1.000000	-1.000000	-1.000000	-1.000000	-1.000000	-1.000000	78.620690	0.000000	-1.000000	-1.000000	154830.000000	1773687866.926557
-5952.825000	17340.435000	29270.160000	-7785.180000	-32447.745000	8426.835000	-19961.145000	-30660.300000	-2.570678	-6.764553	-7.310387	-8.812167	-12.710182	-11.257061	-9.940941	-5.937416	-3.830260	1.587040	-1.480220	0.742918	0.580443	0.275695	-1.000000	-1.000000	-1.000000	-1.000000	-1.000000	-1.000000	-1.000000	78.620690	0.000000	-1.000000	-1.000000	154831.000000	1773687866.926563
-5971.185000	17330.310000	29267.820000	-7766.010000	-32387.265000	8433.945000	-19968.750000	-30682.215000	0.539048	-1.429054	-1.332595	-1.731782	-0.429169	-8.433049	-6.154621	-9.341011	-3.830260	1.587040	-1.480220	0.742918	0.580443	0.275695	-1.000000	-1.000000	-1.000000	-1.000000	-1.000000	-1.000000	-1.000000	78.620690	0.000000	-1.000000	-1.000000	154832.000000	1773687866.926567
-5960.475000	17339.490000	29276.595000	-7758.675000	-32391.090000	8443.575000	-19959.390000	-30660.885000	1.217784	1.852116	2.927780	7.251522	20.099778	-1.761233	-1.836750	-8.323054	-3.830260	1.587040	-1.480220	0.742918	0.580443	0.275695	-1.000000	-1.000000	-1.000000	-1.000000	-1.000000	-1.000000	-1.000000	78.620690	0.000000	-1.000000	-1.000000	154833.000000	1773687866.926573
-5958.720000	17336.880000	29271.780000	-7762.095000	-32417.910000	8432.460000	-19965.015000	-30668.940000	0.694004	3.703473	5.779119	15.008307	35.512994	5.734244	2.281629	-5.755136	-3.830260	1.587040	-1.480220	0.742918	0.580443	0.275695	-1.000000	-1.000000	-1.000000	-1.000000	-1.000000	-1.000000	-1.000000	78.620690	0.000000	-1.000000	-1.000000	154834.000000	1773687866.926578
-5967.045000	17336.160000	29275.200000	-7753.185000	-32416.470000	8437.140000	-19965.420000	-30692.790000	0.663253	5.217736	7.673947	17.846091	33.394833	9.997724	5.752691	-4.188533	-3.830260	1.587040	-1.480220	0.742918	0.580443	0.275695	-1.000000	-1.000000	-1.000000	-1.000000	-1.000000	-1.000000	-1.000000	78.620690	0.000000	-1.000000	-1.000000	154835.000000	1773687866.941061
-5966.280000	17333.010000	29272.410000	-7764.750000	-32422.500000	8441.865000	-19958.355000	-30646.710000	1.303434	6.270290	8.240655	14.320545	14.192390	9.767558	8.387438	-3.517908	-3.830260	1.587040	-1.480220	0.742918	0.580443	0.275695	-1.000000	-1.000000	-1.000000	-1.000000	-1.000000	-1.000000	-1.000000	78.620690	0.000000	-1.000000	-1.000000	154836.000000	1773687866.941074
-5951.115000	17350.785000	29290.005000	-7747.605000	-32405.760000	8450.370000	-19956.780000	-30687.795000	2.511325	6.544564	7.256824	6.418341	-9.231649	7.075872	9.661291	-0.608576	-3.830260	1.587040	-1.480220	0.742918	0.580443	0.275695	-1.000000	-1.000000	-1.000000	-1.000000	-1.000000	-1.000000	-1.000000	78.620690	0.000000	-1.000000	-1.000000	154837.000000	1773687866.941089
-5944.500000	17357.805000	29293.605000	-7754.895000	-32421.285000	8428.905000	-19962.090000	-30690.810000	4.018210	6.000507	5.047239	-1.817402	-23.066483	3.801752	8.198858	4.867425	-3.830260	1.587040	-1.480220	0.742918	0.580443	0.275695	-1.000000	-1.000000	-1.000000	-1.000000	-1.000000	-1.000000	-1.000000	78.620690	0.000000	-1.000000	-1.000000	154838.000000	1773687866.941094
-5952.195000	17344.935000	29280.960000	-7769.790000	-32442.030000	8405.820000	-19975.050000	-30655.710000	4.429750	4.058769	1.805057	-7.355797	-23.665205	-0.122922	3.491257	9.099757	-3.830260	1.587040	-1.480220	0.742918	0.580443	0.275695	-1.000000	-1.000000	-1.000000	-1.000000	-1.000000	-1.000000	-1.000000	78.620690	0.000000	-1.000000	-1.000000	154839.000000	1773687866.941100
-5959.800000	17344.935000	29282.445000	-7758.495000	-32429.700000	8420.760000	-19974.825000	-30676.140000	2.517804	0.167651	-2.360354	-9.969736	-17.757291	-4.788345	-2.718445	9.769705	-3.830260	1.587040	-1.480220	0.742918	0.580443	0.275695	-1.000000	-1.000000	-1.000000	-1.000000	-1.000000	-1.000000	-1.000000	78.620690	0.000000	-1.000000	-1.000000	154840.000000	1773687866.941105
-5969.475000	17331.705000	29268.630000	-7760.340000	-32435.595000	8435.475000	-19959.390000	-30673.305000	-1.027465	-4.650557	-6.502044	-10.451332	-12.440563	-8.173366	-7.337712	6.950543	-3.906560	1.907500	-2.456860	0.743406	0.578917	0.274657	-1.000000	-1.000000	-1.000000	-1.000000	-1.000000	-1.000000	-1.000000	78.620690	0.000000	-1.000000	-1.000000	154841.000000	1773687866.941111
-5962.185000	17325.045000	29261.250000	-7771.140000	-32441.175000	8420.130000	-19963.620000	-30637.845000	-4.388282	-8.512717	-9.312982	-9.254483	-8.684067	-8.058853	-8.135533	1.822177	-3.906560	1.907500	-2.456860	0.743406	0.578917	0.274657	-1.000000	-1.000000	-1.000000	-1.000000	-1.000000	-1.000000	-1.000000	78.620690	0.000000	-1.000000	-1.000000	154842.000000	1773687866.941115
-5946.255000	17341.875000	29279.025000	-7753.725000	-32402.655000	8440.470000	-19963.845000	-30636.270000	-5.801679	-9.740622	-9.543946	-6.585694	-3.286253	-4.683140	-5.445233	-2.823451	-3.906560	1.907500	-2.456860	0.743406	0.578917	0.274657	-1.000000	-1.000000	-1.000000	-1.000000	-1.000000	-1.000000	-1.000000	78.620690	0.000000	-1.000000	-1.000000	154843.000000	1773687866.941121
-5963.670000	17352.990000	29293.695000	-7735.410000	-32379.795000	8465.670000	-19936.620000	-30715.830000	-4.335412	-6.907660	-5.932959	-2.085474	6.215142	0.619434	-0.958823	-5.809502	-3.906560	1.907500	-2.456860	0.743406	0.578917	0.274657	-1.000000	-1.000000	-1.000000	-1.000000	-1.000000	-1.000000	-1.000000	78.620690	0.000000	-1.000000	-1.000000	154844.000000	1773687866.941125
-5968.665000	17351.685000	29291.400000	-7745.670000	-32401.755000	8450.415000	-19924.470000	-30707.370000	-1.250705	-0.535559	0.850391	3.862178	17.208316	6.101507	3.899636	-9.195811	-3.906560	1.907500	-2.456860	0.743406	0.578917	0.274657	-1.000000	-1.000000	-1.000000	-1.000000	-1.000000	-1.000000	-1.000000	78.620690	0.000000	-1.000000	-1.000000	154845.000000	1773687866.941131
-5970.015000	17334.180000	29272.095000	-7762.635000	-32417.280000	8435.295000	-19955.835000	-30654.630000	0.803148	5.495987	6.785657	8.340800	22.742550	8.536738	6.847788	-11.366077	-3.906560	1.907500	-2.456860	0.743406	0.578917	0.274657	-1.000000	-1.000000	-1.000000	-1.000000	-1.000000	-1.000000	-1.000000	78.620690	0.000000	-1.000000	-1.000000	154846.000000	1773687866.941135
-5969.745000	17331.030000	29268.630000	-7762.905000	-32423.805000	8436.645000	-19973.430000	-30672.495000	0.614469	6.883437	7.677563	8.397402	18.347557	6.124943	5.081854	-7.220568	-3.906560	1.907500	-2.456860	0.743406	0.578917	0.274657	-1.000000	-1.000000	-1.000000	-1.000000	-1.000000	-1.000000	-1.000000	78.620690	0.000000	-1.000000	-1.000000	154847.000000	1773687866.946495
-5969.340000	17325.360000	29262.015000	-7772.265000	-32439.105000	8425.080000	-19960.830000	-30673.440000	-0.525766	3.397562	3.608463	4.498633	6.014663	0.969544	-0.826628	1.816033	-3.906560	1.907500	-2.456860	0.743406	0.578917	0.274657	-1.000000	-1.000000	-1.000000	-1.000000	-1.000000	-1.000000	-1.000000	78.620690	0.000000	-1.000000	-1.000000	154848.000000	1773687866.946507
-5964.615000	17332.110000	29267.775000	-7771.995000	-32441.400000	8411.895000	-19957.545000	-30679.020000	-0.342435	-1.194372	-1.507375	-0.743790	-8.580583	-4.236883	-6.362138	9.019198	-3.906560	1.907500	-2.456860	0.743406	0.578917	0.274657	-1.000000	-1.000000	-1.000000	-1.000000	-1.000000	-1.000000	-1.000000	78.620690	0.000000	-1.000000	-1.000000	154849.000000	1773687866.954842
-5949.765000	17350.200000	29285.865000	-7755.480000	-32417.055000	8434.845000	-19957.320000	-30663.720000	2.123034	-2.828109	-3.577782	-4.595498	-18.768384	-7.989170	-7.878780	10.577045	-3.906560	1.907500	-2.456860	0.743406	0.578917	0.274657	-1.000000	-1.000000	-1.000000	-1.000000	-1.000000	-1.000000	-1.000000	78.620690	0.000000	-1.000000	-1.000000	154850.000000	1773687866.954879
-5962.815000	17338.590000	29276.505000	-7758.675000	-32413.725000	8436.330000	-19958.445000	-30637.620000	5.158547	-0.458210	-1.346828	-4.925172	-19.276000	-8.297680	-5.319632	7.015048	-1.083460	4.242280	-3.341940	0.741575	0.578246	0.273315	-1.000000	-1.000000	-1.000000	-1.000000	-1.000000	-1.000000	-1.000000	78.620690	0.000000	-1.000000	-1.000000	154851.000000	1773687866.954892
-5953.590000	17350.920000	29288.610000	-7749.675000	-32411.295000	8444.880000	-19942.605000	-30627.945000	5.791521	3.093216	2.526104	-2.147225	-10.886979	-4.491109	-0.601250	2.142915	-1.083460	4.242280	-3.341940	0.741575	0.578246	0.273315	-1.000000	-1.000000	-1.000000	-1.000000	-1.000000	-1.000000	-1.000000	78.620690	0.000000	-1.000000	-1.000000	154852.000000	1773687866.954898
-5927.535000	17377.875000	29315.385000	-7720.920000	-32383.350000	8467.335000	-19926.000000	-30643.335000	3.715238	4.728086	4.679948	1.432569	0.427165	1.173577	4.001876	0.285825	-1.083460	4.242280	-3.341940	0.741575	0.578246	0.273315	-1.000000	-1.000000	-1.000000	-1.000000	-1.000000	-1.000000	-1.000000	78.620690	0.000000	-1.000000	-1.000000	154853.000000	1773687867.090988
-5924.115000	17379.405000	29317.770000	-7717.770000	-32379.615000	8471.475000	-19913.670000	-30641.625000	1.501520	4.281093	4.576899	4.583759	9.930552	6.290944	6.804221	1.293021	-1.083460	4.242280	-3.341940	0.741575	0.578246	0.273315	-1.000000	-1.000000	-1.000000	-1.000000	-1.000000	-1.000000	-1.000000	78.620690	0.000000	-1.000000	-1.000000	154854.000000	1773687867.091005
-5926.545000	17374.725000	29312.370000	-7724.970000	-32388.075000	8467.605000	-19917.315000	-30638.970000	0.263761	2.705645	3.152214	6.651828	15.427180	9.517922	7.628901	1.005463	-1.083460	4.242280	-3.341940	0.741575	0.578246	0.273315	-1.000000	-1.000000	-1.000000	-1.000000	-1.000000	-1.000000	-1.000000	78.620690	0.000000	-1.000000	-1.000000	154855.000000	1773687867.091021
-5936.220000	17373.015000	29313.945000	-7718.895000	-32375.475000	8481.780000	-19923.030000	-30671.505000	-1.306587	0.247939	0.832087	6.355716	15.381950	9.798423	6.823562	-3.118842	-1.083460	4.242280	-3.341940	0.741575	0.578246	0.273315	-1.000000	-1.000000	-1.000000	-1.000000	-1.000000	-1.000000	-1.000000	78.620690	0.000000	-1.000000	-1.000000	154856.000000	1773687867.091027
-5928.840000	17391.150000	29332.980000	-7702.605000	-32360.490000	8498.430000	-19911.240000	-30679.560000	-3.883074	-2.489526	-1.725676	3.425858	10.095475	7.209701	4.012101	-9.385216	-1.083460	4.242280	-3.341940	0.741575	0.578246	0.273315	-1.000000	-1.000000	-1.000000	-1.000000	-1.000000	-1.000000	-1.000000	78.620690	0.000000	-1.000000	-1.000000	154857.000000	1773687867.091034
-5924.745000	17385.345000	29320.245000	-7721.010000	-32384.565000	8470.485000	-19929.600000	-30664.575000	-6.184720	-4.351656	-3.602688	-1.011024	1.706779	2.551846	-0.920943	-13.386619	-1.083460	4.242280	-3.341940	0.741575	0.578246	0.273315	-1.000000	-1.000000	-1.000000	-1.000000	-1.000000	-1.000000	-1.000000	78.620690	0.000000	-1.000000	-1.000000	154858.000000	1773687867.091040
-5923.080000	17371.080000	29300.580000	-7748.460000	-32420.880000	8438.130000	-19934.325000	-30626.010000	-6.652888	-5.247767	-5.138100	-6.285097	-8.178035	-4.441709	-6.771862	-11.333069	-1.083460	4.242280	-3.341940	0.741575	0.578246	0.273315	-1.000000	-1.000000	-1.000000	-1.000000	-1.000000	-1.000000	-1.000000	78.620690	0.000000	-1.000000	-1.000000	154859.000000	1773687867.091047
-5932.170000	17361.225000	29293.200000	-7754.220000	-32431.005000	8438.535000	-19945.260000	-30605.265000	-5.063176	-5.999461	-7.130551	-11.706458	-17.831165	-13.099694	-11.279691	-3.036144	-1.083460	4.242280	-3.341940	0.741575	0.578246	0.273315	-1.000000	-1.000000	-1.000000	-1.000000	-1.000000	-1.000000	-1.000000	78.620690	0.000000	-1.000000	-1.000000	154860.000000	1773687867.091053
-5942.880000	17357.940000	29296.620000	-7741.935000	-32406.615000	8453.880000	-19936.395000	-30648.825000	-2.628104	-6.773568	-8.841340	-14.803524	-23.051005	-19.146327	-12.447151	7.437688	-1.129240	5.371520	-3.082520	0.744566	0.575438	0.273315	-1.000000	-1.000000	-1.000000	-1.000000	-1.000000	-1.000000	-1.000000	78.620690	0.000000	-1.000000	-1.000000	154861.000000	1773687867.091060
-5946.345000	17349.750000	29287.800000	-7750.170000	-32401.440000	8446.095000	-19943.820000	-30654.855000	-1.040901	-6.958683	-8.676670	-12.917954	-19.286135	-17.894490	-9.867841	13.860360	-1.129240	5.371520	-3.082520	0.744566	0.575438	0.273315	-1.000000	-1.000000	-1.000000	-1.000000	-1.000000	-1.000000	-1.000000	78.620690	0.000000	-1.000000	-1.000000	154862.000000	1773687867.091065
-5934.780000	17364.060000	29302.785000	-7736.445000	-32391.315000	8459.280000	-19924.830000	-30621.195000	-0.523720	-5.303568	-5.472250	-5.746370	-6.449276	-8.779514	-4.244029	12.945207	-1.129240	5.371520	-3.082520	0.744566	0.575438	0.273315	-1.000000	-1.000000	-1.000000	-1.000000	-1.000000	-1.000000	-1.000000	78.620690	0.000000	-1.000000	-1.000000	154863.000000	1773687867.091072
-5947.875000	17352.315000	29292.615000	-7749.135000	-32411.925000	8443.260000	-19918.890000	-30625.560000	0.446684	-0.637981	0.915517	4.423249	9.751190	4.294274	3.587646	7.216316	-1.129240	5.371520	-3.082520	0.744566	0.575438	0.273315	-1.000000	-1.000000	-1.000000	-1.000000	-1.000000	-1.000000	-1.000000	78.620690	0.000000	-1.000000	-1.000000	154864.000000	1773687867.091078
-5952.915000	17349.390000	29289.060000	-7751.655000	-32412.780000	8444.250000	-19939.320000	-30647.070000	2.595698	5.785554	8.200036	13.178848	20.908975	14.980734	11.241123	1.172152	-1.129240	5.371520	-3.082520	0.744566	0.575438	0.273315	-1.000000	-1.000000	-1.000000	-1.000000	-1.000000	-1.000000	-1.000000	78.620690	0.000000	-1.000000	-1.000000	154865.000000	1773687867.091084
-5955.390000	17347.635000	29284.065000	-7757.730000	-32419.170000	8440.200000	-19954.665000	-30652.740000	4.721808	10.399143	12.369625	16.134455	21.617019	18.336771	14.263417	-3.185763	-1.129240	5.371520	-3.082520	0.744566	0.575438	0.273315	-1.000000	-1.000000	-1.000000	-1.000000	-1.000000	-1.000000	-1.000000	78.620690	0.000000	-1.000000	-1.000000	154866.000000	1773687867.091089
-5963.670000	17340.345000	29276.955000	-7767.855000	-32425.290000	8436.960000	-19965.645000	-30667.365000	5.201323	10.740325	11.373213	12.522855	13.432785	14.490431	10.349583	-6.562429	-1.129240	5.371520	-3.082520	0.744566	0.575438	0.273315	-1.000000	-1.000000	-1.000000	-1.000000	-1.000000	-1.000000	-1.000000	78.620690	0.000000	-1.000000	-1.000000	154867.000000	1773687867.091096
-5957.685000	17346.645000	29286.585000	-7757.820000	-32416.605000	8444.970000	-19954.530000	-30676.545000	3.706089	7.548744	6.946400	5.746964	2.943543	7.652175	2.480814	-10.315256	-1.129240	5.371520	-3.082520	0.744566	0.575438	0.273315	-1.000000	-1.000000	-1.000000	-1.000000	-1.000000	-1.000000	-1.000000	78.620690	0.000000	-1.000000	-1.000000	154868.000000	1773687867.091102
-5939.325000	17363.655000	29301.570000	-7741.260000	-32410.260000	8450.505000	-19939.005000	-30686.985000	1.922596	3.663861	2.543135	0.180405	-3.993889	1.695314	-3.804265	-13.503179	-1.129240	5.371520	-3.082520	0.744566	0.575438	0.273315	-1.000000	-1.000000	-1.000000	-1.000000	-1.000000	-1.000000	-1.000000	78.620690	0.000000	-1.000000	-1.000000	154869.000000	1773687867.091108
-5928.705000	17378.100000	29317.815000	-7718.490000	-32379.435000	8473.950000	-19940.445000	-30665.520000	1.936204	1.408672	0.248379	-2.056722	-5.902255	-2.153092	-5.356359	-11.803255	-1.129240	5.371520	-3.082520	0.744566	0.575438	0.273315	-1.000000	-1.000000	-1.000000	-1.000000	-1.000000	-1.000000	-1.000000	78.620690	0.000000	-1.000000	-1.000000	154870.000000	1773687867.091114
-5935.860000	17353.980000	29292.750000	-7743.375000	-32399.370000	8453.475000	-19957.320000	-30587.130000	3.353122	0.536147	-0.562656	-1.927450	-4.716314	-4.258537	-3.533592	-1.569708	-2.639980	5.737760	-3.143560	0.745787	0.575072	0.273864	-1.000000	-1.000000	-1.000000	-1.000000	-1.000000	-1.000000	-1.000000	78.620690	0.000000	-1.000000	-1.000000	154871.000000	1773687867.091122
-5924.295000	17358.480000	29294.685000	-7743.825000	-32404.320000	8459.010000	-19947.285000	-30598.920000	3.667583	-1.099628	-2.068956	-2.121414	-3.319226	-5.489396	-1.679009	14.166528	-2.639980	5.737760	-3.143560	0.745787	0.575072	0.273864	-1.000000	-1.000000	-1.000000	-1.000000	-1.000000	-1.000000	-1.000000	78.620690	0.000000	-1.000000	-1.000000	154872.000000	1773687867.091127
-5929.380000	17381.205000	29316.285000	-7724.295000	-32385.240000	8481.735000	-19926.270000	-30653.775000	1.698896	-3.803275	-4.572045	-3.671814	-2.949978	-5.877516	-0.872244	25.146950	-2.639980	5.737760	-3.143560	0.745787	0.575072	0.273864	-1.000000	-1.000000	-1.000000	-1.000000	-1.000000	-1.000000	-1.000000	78.620690	0.000000	-1.000000	-1.000000	154873.000000	1773687867.091134
-5939.550000	17390.385000	29331.090000	-7709.265000	-32377.635000	8478.045000	-19924.470000	-30668.265000	-1.658582	-5.099372	-5.520734	-4.554605	-2.402020	-4.462822	0.512757	22.334406	-2.639980	5.737760	-3.143560	0.745787	0.575072	0.273864	-1.000000	-1.000000	-1.000000	-1.000000	-1.000000	-1.000000	-1.000000	78.620690	0.000000	-1.000000	-1.000000	154874.000000	1773687867.091140
-5943.330000	17390.610000	29330.595000	-7716.105000	-32391.450000	8468.100000	-19910.340000	-30676.230000	-5.195731	-3.631853	-3.283457	-3.020163	-0.825681	-1.724227	3.445371	6.805162	-2.639980	5.737760	-3.143560	0.745787	0.575072	0.273864	-1.000000	-1.000000	-1.000000	-1.000000	-1.000000	-1.000000	-1.000000	78.620690	0.000000	-1.000000	-1.000000	154875.000000	1773687867.091147
-5923.350000	17397.180000	29333.880000	-7708.545000	-32377.230000	8478.360000	-19905.075000	-30661.110000	-7.365051	-0.771722	0.612952	0.043115	0.941617	0.561664	6.554069	-11.521541	-2.639980	5.737760	-3.143560	0.745787	0.575072	0.273864	-1.000000	-1.000000	-1.000000	-1.000000	-1.000000	-1.000000	-1.000000	78.620690	0.000000	-1.000000	-1.000000	154876.000000	1773687867.091152
-5928.570000	17369.730000	29306.160000	-7729.290000	-32395.365000	8488.440000	-19914.705000	-30629.790000	-6.633749	0.945217	2.823219	2.061094	1.697570	1.593080	6.998093	-21.634503	-2.639980	5.737760	-3.143560	0.745787	0.575072	0.273864	-1.000000	-1.000000	-1.000000	-1.000000	-1.000000	-1.000000	-1.000000	78.620690	0.000000	-1.000000	-1.000000	154877.000000	1773687867.091159
-5942.160000	17347.275000	29280.555000	-7760.070000	-32415.435000	8461.350000	-19933.740000	-30616.380000	-3.816718	-0.977916	0.286515	0.135759	-0.017973	0.967453	2.383949	-18.078398	-2.639980	5.737760	-3.143560	0.745787	0.575072	0.273864	-1.000000	-1.000000	-1.000000	-1.000000	-1.000000	-1.000000	-1.000000	78.620690	0.000000	-1.000000	-1.000000	154878.000000	1773687867.091165
-5945.220000	17355.510000	29295.315000	-7747.290000	-32406.525000	8450.100000	-19941.930000	-30641.490000	-1.499922	-6.198782	-6.267194	-5.850263	-4.556931	-2.033865	-6.272216	-5.277819	-2.639980	5.737760	-3.143560	0.745787	0.575072	0.273864	-1.000000	-1.000000	-1.000000	-1.000000	-1.000000	-1.000000	-1.000000	78.620690	0.000000	-1.000000	-1.000000	154879.000000	1773687867.091172
-5942.295000	17359.155000	29299.680000	-7746.660000	-32411.970000	8439.345000	-19951.740000	-30627.945000	-0.626239	-9.878171	-10.941373	-10.778144	-8.591247	-6.173174	-14.045115	5.272795	-2.639980	5.737760	-3.143560	0.745787	0.575072	0.273864	-1.000000	-1.000000	-1.000000	-1.000000	-1.000000	-1.000000	-1.000000	78.620690	0.000000	-1.000000	-1.000000	154880.000000	1773687867.091177
-5944.095000	17358.435000	29295.000000	-7748.325000	-32406.435000	8443.170000	-19948.365000	-30632.085000	-0.030177	-7.595545	-8.649952	-9.211976	-7.783480	-8.128459	-16.174944	6.976738	-2.380560	6.516020	-3.052000	0.747862	0.578612	0.273864	-1.000000	-1.000000	-1.000000	-1.000000	-1.000000	-1.000000	-1.000000	78.620690	0.000000	-1.000000	-1.000000	154881.000000	1773687867.091184
-5949.000000	17355.960000	29290.275000	-7749.090000	-32409.270000	8444.250000	-19938.375000	-30659.850000	1.381734	-0.541641	-0.998753	-1.779959	-1.961372	-5.926753	-11.461120	3.516679	-2.380560	6.516020	-3.052000	0.747862	0.578612	0.273864	-1.000000	-1.000000	-1.000000	-1.000000	-1.000000	-1.000000	-1.000000	78.620690	0.000000	-1.000000	-1.000000	154882.000000	1773687867.091190
-5935.455000	17367.525000	29300.580000	-7736.985000	-32398.200000	8460.900000	-19926.990000	-30655.980000	3.726158	6.637218	6.536894	6.567776	5.255092	-0.092704	-1.845755	0.785641	-2.380560	6.516020	-3.052000	0.747862	0.578612	0.273864	-1.000000	-1.000000	-1.000000	-1.000000	-1.000000	-1.000000	-1.000000	78.620690	0.000000	-1.000000	-1.000000	154883.000000	1773687867.091197
-5925.285000	17385.570000	29320.740000	-7721.685000	-32383.845000	8475.750000	-19923.390000	-30645.675000	6.361612	10.919557	10.737695	12.148600	10.659794	7.611399	8.755287	0.702418	-2.380560	6.516020	-3.052000	0.747862	0.578612	0.273864	-1.000000	-1.000000	-1.000000	-1.000000	-1.000000	-1.000000	-1.000000	78.620690	0.000000	-1.000000	-1.000000	154884.000000	1773687867.091202
-5919.075000	17393.310000	29329.155000	-7713.225000	-32372.865000	8486.145000	-19914.120000	-30633.570000	7.816255	12.070473	11.851094	14.016228	12.920679	14.172582	15.819577	2.149197	-2.380560	6.516020	-3.052000	0.747862	0.578612	0.273864	-1.000000	-1.000000	-1.000000	-1.000000	-1.000000	-1.000000	-1.000000	78.620690	0.000000	-1.000000	-1.000000	154885.000000	1773687867.091209
-5925.105000	17380.080000	29313.585000	-7725.825000	-32381.955000	8477.730000	-19922.535000	-30646.665000	6.551209	10.607222	10.725040	12.195888	11.507454	15.803641	16.607818	2.739931	-2.380560	6.516020	-3.052000	0.747862	0.578612	0.273864	-1.000000	-1.000000	-1.000000	-1.000000	-1.000000	-1.000000	-1.000000	78.620690	0.000000	-1.000000	-1.000000	154886.000000	1773687867.091214
-5920.875000	17382.015000	29314.485000	-7725.555000	-32382.540000	8476.245000	-19912.140000	-30650.895000	2.621219	6.651357	7.195234	7.005215	6.440383	10.915347	11.657057	0.821188	-2.380560	6.516020	-3.052000	0.747862	0.578612	0.273864	-1.000000	-1.000000	-1.000000	-1.000000	-1.000000	-1.000000	-1.000000	78.620690	0.000000	-1.000000	-1.000000	154887.000000	1773687867.091222
-5915.295000	17394.075000	29330.775000	-7708.635000	-32366.115000	8495.595000	-19899.855000	-30656.025000	-2.073170	0.874535	1.491190	-0.079637	-0.790022	2.269520	4.316629	-2.934305	-2.380560	6.516020	-3.052000	0.747862	0.578612	0.273864	-1.000000	-1.000000	-1.000000	-1.000000	-1.000000	-1.000000	-1.000000	78.620690	0.000000	-1.000000	-1.000000	154888.000000	1773687867.091227
-5922.720000	17394.300000	29332.395000	-7705.395000	-32363.145000	8497.620000	-19908.900000	-30660.120000	-5.515484	-4.838311	-4.458650	-6.278740	-7.008394	-5.179022	-1.941246	-6.304118	-2.380560	6.516020	-3.052000	0.747862	0.578612	0.273864	-1.000000	-1.000000	-1.000000	-1.000000	-1.000000	-1.000000	-1.000000	78.620690	0.000000	-1.000000	-1.000000	154889.000000	1773687867.091235
-5925.555000	17383.860000	29317.140000	-7722.270000	-32383.530000	8473.995000	-19939.185000	-30644.370000	-6.926272	-8.775806	-8.580901	-9.625206	-10.000719	-9.084414	-6.594263	-6.456115	-2.380560	6.516020	-3.052000	0.747862	0.578612	0.273864	-1.000000	-1.000000	-1.000000	-1.000000	-1.000000	-1.000000	-1.000000	78.620690	0.000000	-1.000000	-1.000000	154890.000000	1773687867.091240
-5909.940000	17399.340000	29334.420000	-7704.405000	-32366.610000	8491.365000	-19931.400000	-30636.630000	-6.152231	-10.267910	-10.128791	-10.215538	-10.110314	-10.491329	-10.804418	-1.309875	0.366240	6.378680	-4.547480	0.746580	0.581725	0.271606	-1.000000	-1.000000	-1.000000	-1.000000	-1.000000	-1.000000	-1.000000	78.620690	0.000000	-1.000000	-1.000000	154891.000000	1773687867.091247
-5923.980000	17392.590000	29330.100000	-7706.070000	-32365.665000	8497.665000	-19905.390000	-30659.715000	-3.595419	-9.195601	-9.085110	-8.647021	-8.074352	-10.103173	-13.302607	6.796466	0.366240	6.378680	-4.547480	0.746580	0.581725	0.271606	-1.000000	-1.000000	-1.000000	-1.000000	-1.000000	-1.000000	-1.000000	78.620690	0.000000	-1.000000	-1.000000	154892.000000	1773687867.091253
-5935.635000	17375.220000	29306.700000	-7735.455000	-32395.905000	8470.530000	-19918.845000	-30699.315000	-1.201942	-6.563830	-6.537304	-5.968342	-4.908102	-8.025813	-11.294282	10.782293	0.366240	6.378680	-4.547480	0.746580	0.581725	0.271606	-1.000000	-1.000000	-1.000000	-1.000000	-1.000000	-1.000000	-1.000000	78.620690	0.000000	-1.000000	-1.000000	154893.000000	1773687867.091260
-5933.745000	17374.410000	29305.755000	-7739.820000	-32402.250000	8463.780000	-19933.245000	-30664.395000	-0.715530	-3.903948	-4.198825	-3.891956	-2.626412	-5.622902	-5.221029	6.218747	0.366240	6.378680	-4.547480	0.746580	0.581725	0.271606	-1.000000	-1.000000	-1.000000	-1.000000	-1.000000	-1.000000	-1.000000	78.620690	0.000000	-1.000000	-1.000000	154894.000000	1773687867.091266
-5920.740000	17386.155000	29322.630000	-7718.265000	-32379.165000	8481.285000	-19933.380000	-30634.830000	-1.015043	-0.926628	-1.627513	-2.001388	-1.210205	-3.216603	1.458489	-2.226479	0.366240	6.378680	-4.547480	0.746580	0.581725	0.271606	-1.000000	-1.000000	-1.000000	-1.000000	-1.000000	-1.000000	-1.000000	78.620690	0.000000	-1.000000	-1.000000	154895.000000	1773687867.091273
-5921.775000	17375.130000	29312.865000	-7725.195000	-32382.405000	8481.915000	-19921.590000	-30601.620000	0.202737	3.202058	2.538185	1.665133	1.534732	0.792244	6.209715	-5.793604	0.366240	6.378680	-4.547480	0.746580	0.581725	0.271606	-1.000000	-1.000000	-1.000000	-1.000000	-1.000000	-1.000000	-1.000000	78.620690	0.000000	-1.000000	-1.000000	154896.000000	1773687867.091278
-5932.215000	17366.085000	29300.130000	-7739.055000	-32395.590000	8461.440000	-19923.255000	-30584.115000	2.866235	6.833851	6.639525	6.095986	5.417680	5.895027	8.442789	-1.397948	0.366240	6.378680	-4.547480	0.746580	0.581725	0.271606	-1.000000	-1.000000	-1.000000	-1.000000	-1.000000	-1.000000	-1.000000	78.620690	0.000000	-1.000000	-1.000000	154897.000000	1773687867.091286
-5937.075000	17365.590000	29299.725000	-7741.890000	-32403.150000	8450.190000	-19934.730000	-30584.880000	4.831983	7.550318	7.700385	8.056938	7.598255	8.789398	8.352592	6.372890	0.366240	6.378680	-4.547480	0.746580	0.581725	0.271606	-1.000000	-1.000000	-1.000000	-1.000000	-1.000000	-1.000000	-1.000000	78.620690	0.000000	-1.000000	-1.000000	154898.000000	1773687867.091292
-5936.940000	17371.935000	29307.510000	-7734.195000	-32402.025000	8455.500000	-19929.195000	-30623.265000	4.684647	5.466272	5.675875	6.684340	6.680105	7.828248	6.549196	9.920458	0.366240	6.378680	-4.547480	0.746580	0.581725	0.271606	-1.000000	-1.000000	-1.000000	-1.000000	-1.000000	-1.000000	-1.000000	78.620690	0.000000	-1.000000	-1.000000	154899.000000	1773687867.091298
-5934.150000	17374.860000	29310.300000	-7727.850000	-32396.760000	8468.955000	-19919.745000	-30626.865000	2.690118	2.507492	2.740019	3.740948	3.762872	4.629538	3.814656	4.711290	0.366240	6.378680	-4.547480	0.746580	0.581725	0.271606	-1.000000	-1.000000	-1.000000	-1.000000	-1.000000	-1.000000	-1.000000	78.620690	0.000000	-1.000000	-1.000000	154900.000000	1773687867.091304
-5935.950000	17365.770000	29299.185000	-7739.280000	-32395.545000	8472.600000	-19928.430000	-30639.690000	0.207407	0.114708	0.371965	0.978750	0.745150	1.672098	0.422727	-6.261129	0.961380	6.210820	-4.639040	0.748045	0.584410	0.273559	-1.000000	-1.000000	-1.000000	-1.000000	-1.000000	-1.000000	-1.000000	78.620690	0.000000	-1.000000	-1.000000	154901.000000	1773687867.091311
-5925.915000	17380.845000	29313.180000	-7729.110000	-32393.880000	8475.525000	-19928.790000	-30643.470000	-1.148647	-0.962256	-0.776851	-0.528802	-0.658149	0.528131	-3.168130	-15.191532	0.961380	6.210820	-4.639040	0.748045	0.584410	0.273559	-1.000000	-1.000000	-1.000000	-1.000000	-1.000000	-1.000000	-1.000000	78.620690	0.000000	-1.000000	-1.000000	154902.000000	1773687867.091316
-5925.690000	17382.555000	29316.420000	-7725.015000	-32399.505000	8486.235000	-19921.140000	-30620.700000	-0.783897	-0.332018	-0.270942	-0.274422	-0.108129	1.238712	-5.238002	-16.861556	0.961380	6.210820	-4.639040	0.748045	0.584410	0.273559	-1.000000	-1.000000	-1.000000	-1.000000	-1.000000	-1.000000	-1.000000	78.620690	0.000000	-1.000000	-1.000000	154903.000000	1773687867.091341
-5935.095000	17372.610000	29310.795000	-7727.130000	-32382.540000	8473.860000	-19928.340000	-30640.410000	0.100432	1.033885	1.013345	0.742866	0.801468	2.041757	-4.536536	-11.792260	0.961380	6.210820	-4.639040	0.748045	0.584410	0.273559	-1.000000	-1.000000	-1.000000	-1.000000	-1.000000	-1.000000	-1.000000	78.620690	0.000000	-1.000000	-1.000000	154904.000000	1773687867.091347
-5921.145000	17390.430000	29329.560000	-7707.060000	-32363.055000	8490.960000	-19925.370000	-30646.215000	0.048574	1.457399	1.464148	0.963498	0.935276	1.045650	-2.283382	-4.380773	0.961380	6.210820	-4.639040	0.748045	0.584410	0.273559	-1.000000	-1.000000	-1.000000	-1.000000	-1.000000	-1.000000	-1.000000	78.620690	0.000000	-1.000000	-1.000000	154905.000000	1773687867.091354
-5908.590000	17402.400000	29341.350000	-7692.795000	-32351.580000	8505.630000	-19907.955000	-30641.175000	-0.335222	0.996941	1.162863	0.687886	1.132681	-0.965723	-0.133566	1.462713	0.961380	6.210820	-4.639040	0.748045	0.584410	0.273559	-1.000000	-1.000000	-1.000000	-1.000000	-1.000000	-1.000000	-1.000000	78.620690	0.000000	-1.000000	-1.000000	154906.000000	1773687867.091359
-5924.205000	17373.105000	29307.690000	-7732.350000	-32393.745000	8467.290000	-19920.330000	-30623.940000	0.207794	0.293554	0.594114	0.425933	1.450579	-2.139717	1.806961	5.760631	0.961380	6.210820	-4.639040	0.748045	0.584410	0.273559	-1.000000	-1.000000	-1.000000	-1.000000	-1.000000	-1.000000	-1.000000	78.620690	0.000000	-1.000000	-1.000000	154907.000000	1773687867.091367
-5939.190000	17367.885000	29303.820000	-7739.190000	-32401.665000	8461.170000	-19937.340000	-30656.970000	0.618303	-1.700298	-1.576345	-1.580924	-0.433594	-3.384890	2.823532	10.103091	0.961380	6.210820	-4.639040	0.748045	0.584410	0.273559	-1.000000	-1.000000	-1.000000	-1.000000	-1.000000	-1.000000	-1.000000	78.620690	0.000000	-1.000000	-1.000000	154908.000000	1773687867.091372
-5943.915000	17380.710000	29318.085000	-7732.080000	-32397.615000	8466.885000	-19935.270000	-30668.580000	-0.956789	-5.105676	-5.441271	-5.915725	-5.306798	-6.135585	1.198169	13.221230	0.961380	6.210820	-4.639040	0.748045	0.584410	0.273559	-1.000000	-1.000000	-1.000000	-1.000000	-1.000000	-1.000000	-1.000000	78.620690	0.000000	-1.000000	-1.000000	154909.000000	1773687867.091379
-5939.730000	17366.130000	29297.970000	-7757.865000	-32427.315000	8441.820000	-19937.745000	-30599.325000	-3.819520	-7.287936	-7.979416	-9.446898	-10.124986	-8.860915	-2.396404	13.438575	0.961380	6.210820	-4.639040	0.748045	0.584410	0.273559	-1.000000	-1.000000	-1.000000	-1.000000	-1.000000	-1.000000	-1.000000	78.620690	0.000000	-1.000000	-1.000000	154910.000000	1773687867.091385
-5916.240000	17381.880000	29314.395000	-7735.005000	-32402.070000	8458.020000	-19939.230000	-30594.240000	-5.128813	-6.173757	-6.907808	-8.993649	-11.114671	-8.907869	-4.849258	11.998521	-1.068200	5.829320	-3.860780	0.752501	0.582579	0.278198	-1.000000	-1.000000	-1.000000	-1.000000	-1.000000	-1.000000	-1.000000	78.620690	0.000000	-1.000000	-1.000000	154911.000000	1773687867.091392
-5937.255000	17376.480000	29314.125000	-7723.305000	-32377.365000	8486.460000	-19921.230000	-30700.305000	-3.164710	-2.191027	-2.696422	-3.936736	-6.293614	-4.638986	-3.962271	7.665177	-1.068200	5.829320	-3.860780	0.752501	0.582579	0.278198	-1.000000	-1.000000	-1.000000	-1.000000	-1.000000	-1.000000	-1.000000	78.620690	0.000000	-1.000000	-1.000000	154912.000000	1773687867.091398
-5943.465000	17378.235000	29319.885000	-7707.060000	-32368.095000	8510.895000	-19913.940000	-30717.900000	0.525309	2.729946	2.696500	3.963842	2.968878	3.824494	0.132925	-3.781916	-1.068200	5.829320	-3.860780	0.752501	0.582579	0.278198	-1.000000	-1.000000	-1.000000	-1.000000	-1.000000	-1.000000	-1.000000	78.620690	0.000000	-1.000000	-1.000000	154913.000000	1773687867.091404
-5951.835000	17350.920000	29290.905000	-7741.035000	-32400.765000	8476.245000	-19950.660000	-30686.625000	2.803839	5.723084	6.291074	10.413215	11.071403	12.600102	4.607511	-19.036736	-1.068200	5.829320	-3.860780	0.752501	0.582579	0.278198	-1.000000	-1.000000	-1.000000	-1.000000	-1.000000	-1.000000	-1.000000	78.620690	0.000000	-1.000000	-1.000000	154914.000000	1773687867.091410
-5978.205000	17311.365000	29242.845000	-7800.255000	-32451.210000	8405.235000	-19975.590000	-30693.195000	2.006321	4.178204	5.076339	10.193972	11.772621	14.571528	5.074941	-26.963857	-1.068200	5.829320	-3.860780	0.752501	0.582579	0.278198	-1.000000	-1.000000	-1.000000	-1.000000	-1.000000	-1.000000	-1.000000	78.620690	0.000000	-1.000000	-1.000000	154915.000000	1773687867.097253
-5980.500000	17311.140000	29241.045000	-7803.495000	-32460.750000	8391.240000	-19969.650000	-30645.045000	-0.863183	-1.228367	-0.688429	2.374573	4.333661	6.261950	0.561451	-20.362376	-1.068200	5.829320	-3.860780	0.752501	0.582579	0.278198	-1.000000	-1.000000	-1.000000	-1.000000	-1.000000	-1.000000	-1.000000	78.620690	0.000000	-1.000000	-1.000000	154916.000000	1773687867.097274
-5976.855000	17324.460000	29260.485000	-7778.700000	-32439.240000	8407.305000	-19965.015000	-30645.495000	-2.750601	-5.771247	-6.064849	-6.826529	-4.965794	-6.736343	-4.464564	-1.358071	-1.068200	5.829320	-3.860780	0.752501	0.582579	0.278198	-1.000000	-1.000000	-1.000000	-1.000000	-1.000000	-1.000000	-1.000000	78.620690	0.000000	-1.000000	-1.000000	154917.000000	1773687867.097288
-5976.765000	17328.780000	29268.090000	-7771.590000	-32431.905000	8421.615000	-19960.605000	-30664.260000	-1.275391	-5.031765	-5.757216	-9.410350	-8.462260	-14.326996	-5.241311	19.659628	-1.068200	5.829320	-3.860780	0.752501	0.582579	0.278198	-1.000000	-1.000000	-1.000000	-1.000000	-1.000000	-1.000000	-1.000000	78.620690	0.000000	-1.000000	-1.000000	154918.000000	1773687867.097294
-5966.280000	17335.035000	29272.770000	-7765.155000	-32423.445000	8436.780000	-19956.780000	-30658.635000	2.700660	0.925727	0.761177	-3.182575	-3.640686	-10.770719	-1.213362	29.067170	-1.068200	5.829320	-3.860780	0.752501	0.582579	0.278198	-1.000000	-1.000000	-1.000000	-1.000000	-1.000000	-1.000000	-1.000000	78.620690	0.000000	-1.000000	-1.000000	154919.000000	1773687867.097299
-5951.520000	17346.690000	29282.760000	-7757.190000	-32425.830000	8448.840000	-19957.905000	-30661.830000	6.340247	8.136314	9.006229	6.763067	5.095249	1.041676	4.485364	21.497171	-1.068200	5.829320	-3.860780	0.752501	0.582579	0.278198	-1.000000	-1.000000	-1.000000	-1.000000	-1.000000	-1.000000	-1.000000	78.620690	0.000000	-1.000000	-1.000000	154920.000000	1773687867.097304
-5962.770000	17335.620000	29272.545000	-7769.880000	-32435.325000	8443.395000	-19965.285000	-30694.230000	7.760500	12.070252	13.290480	12.699127	10.101963	12.166174	7.585468	4.912649	-1.327620	5.112100	-1.464960	0.755186	0.581969	0.282104	-1.000000	-1.000000	-1.000000	-1.000000	-1.000000	-1.000000	-1.000000	78.620690	0.000000	-1.000000	-1.000000	154921.000000	1773687867.097310
-5962.320000	17342.145000	29278.035000	-7764.300000	-32412.510000	8438.490000	-19954.395000	-30700.935000	6.457338	10.494077	10.870117	10.479209	7.622554	14.904473	6.070635	-9.361680	-1.327620	5.112100	-1.464960	0.755186	0.581969	0.282104	-1.000000	-1.000000	-1.000000	-1.000000	-1.000000	-1.000000	-1.000000	78.620690	0.000000	-1.000000	-1.000000	154922.000000	1773687867.097314
-5959.800000	17343.315000	29278.260000	-7764.210000	-32421.330000	8429.670000	-19960.200000	-30670.875000	2.923450	4.917390	3.937549	2.876727	1.346884	9.044354	2.159429	-16.068272	-1.327620	5.112100	-1.464960	0.755186	0.581969	0.282104	-1.000000	-1.000000	-1.000000	-1.000000	-1.000000	-1.000000	-1.000000	78.620690	0.000000	-1.000000	-1.000000	154923.000000	1773687867.097320
-5972.040000	17324.145000	29257.335000	-7787.610000	-32459.220000	8410.455000	-19971.135000	-30644.640000	-1.147198	-0.888904	-2.554192	-3.529521	-2.885789	0.896593	-0.708204	-14.709520	-1.327620	5.112100	-1.464960	0.755186	0.581969	0.282104	-1.000000	-1.000000	-1.000000	-1.000000	-1.000000	-1.000000	-1.000000	78.620690	0.000000	-1.000000	-1.000000	154924.000000	1773687867.097324
-5977.890000	17322.975000	29258.865000	-7782.615000	-32463.360000	8414.820000	-19975.230000	-30671.325000	-4.249249	-4.867058	-6.009956	-5.505326	-3.891757	-4.046814	-1.894017	-7.811141	-1.327620	5.112100	-1.464960	0.755186	0.581969	0.282104	-1.000000	-1.000000	-1.000000	-1.000000	-1.000000	-1.000000	-1.000000	78.620690	0.000000	-1.000000	-1.000000	154925.000000	1773687867.142693
-5972.670000	17333.775000	29271.555000	-7774.065000	-32444.775000	8423.955000	-19975.590000	-30699.900000	-6.011476	-7.359411	-7.300499	-4.876660	-3.934801	-5.401449	-2.792222	-0.896185	-1.327620	5.112100	-1.464960	0.755186	0.581969	0.282104	-1.000000	-1.000000	-1.000000	-1.000000	-1.000000	-1.000000	-1.000000	78.620690	0.000000	-1.000000	-1.000000	154926.000000	1773687867.142706
-5969.430000	17335.980000	29272.680000	-7776.315000	-32426.145000	8426.655000	-19974.690000	-30688.515000	-6.298100	-8.410950	-7.381515	-4.053119	-3.657808	-5.211908	-3.956851	1.813325	-1.327620	5.112100	-1.464960	0.755186	0.581969	0.282104	-1.000000	-1.000000	-1.000000	-1.000000	-1.000000	-1.000000	-1.000000	78.620690	0.000000	-1.000000	-1.000000	154927.000000	1773687867.142720
-5963.940000	17337.510000	29275.245000	-7763.265000	-32402.970000	8449.740000	-19956.375000	-30653.235000	-5.228307	-7.552686	-6.253834	-3.574726	-1.822792	-4.659959	-4.368338	1.335779	-1.327620	5.112100	-1.464960	0.755186	0.581969	0.282104	-1.000000	-1.000000	-1.000000	-1.000000	-1.000000	-1.000000	-1.000000	78.620690	0.000000	-1.000000	-1.000000	154928.000000	1773687867.142725
-5966.685000	17329.995000	29266.920000	-7770.240000	-32422.230000	8433.720000	-19952.235000	-30657.555000	-3.394339	-5.209584	-4.279860	-3.064723	1.259642	-4.016200	-2.778426	2.125884	-1.327620	5.112100	-1.464960	0.755186	0.581969	0.282104	-1.000000	-1.000000	-1.000000	-1.000000	-1.000000	-1.000000	-1.000000	78.620690	0.000000	-1.000000	-1.000000	154929.000000	1773687867.142731
-5957.595000	17349.705000	29288.430000	-7750.935000	-32408.955000	8447.490000	-19940.400000	-30661.605000	-0.996287	-2.037441	-1.836244	-1.993329	3.067213	-3.413535	0.585115	6.404946	-1.327620	5.112100	-1.464960	0.755186	0.581969	0.282104	-1.000000	-1.000000	-1.000000	-1.000000	-1.000000	-1.000000	-1.000000	78.620690	0.000000	-1.000000	-1.000000	154930.000000	1773687867.142737
-5944.680000	17358.570000	29295.135000	-7746.255000	-32406.615000	8450.730000	-19955.205000	-30648.375000	2.116356	1.906882	1.386199	0.187431	2.080628	-2.187495	3.787169	11.016332	-3.906560	3.174080	-0.961380	0.753721	0.581419	0.283508	-1.000000	-1.000000	-1.000000	-1.000000	-1.000000	-1.000000	-1.000000	78.620690	0.000000	-1.000000	-1.000000	154931.000000	1773687867.142742
-5942.295000	17355.645000	29287.395000	-7749.630000	-32408.055000	8446.635000	-19976.220000	-30677.490000	5.461423	6.148642	5.228484	3.448859	-0.059898	0.892813	4.533723	10.338853	-3.906560	3.174080	-0.961380	0.753721	0.581419	0.283508	-1.000000	-1.000000	-1.000000	-1.000000	-1.000000	-1.000000	-1.000000	78.620690	0.000000	-1.000000	-1.000000	154932.000000	1773687867.142747
-5952.780000	17354.880000	29288.475000	-7747.605000	-32409.315000	8439.345000	-19965.105000	-30710.385000	7.591509	9.096824	8.184393	6.624008	-0.502093	5.316179	2.247095	1.439867	-3.906560	3.174080	-0.961380	0.753721	0.581419	0.283508	-1.000000	-1.000000	-1.000000	-1.000000	-1.000000	-1.000000	-1.000000	78.620690	0.000000	-1.000000	-1.000000	154933.000000	1773687867.156314
-5960.340000	17346.915000	29283.750000	-7753.545000	-32416.605000	8437.185000	-19957.815000	-30698.370000	6.715753	8.690311	8.114444	7.437655	0.926352	7.986031	-1.007285	-11.591286	-3.906560	3.174080	-0.961380	0.753721	0.581419	0.283508	-1.000000	-1.000000	-1.000000	-1.000000	-1.000000	-1.000000	-1.000000	78.620690	0.000000	-1.000000	-1.000000	154934.000000	1773687867.156327
-5979.690000	17325.810000	29264.985000	-7771.365000	-32425.515000	8439.480000	-19951.290000	-30670.065000	2.046449	3.674075	3.647198	3.872785	1.131048	6.081606	-2.621070	-18.772866	-3.906560	3.174080	-0.961380	0.753721	0.581419	0.283508	-1.000000	-1.000000	-1.000000	-1.000000	-1.000000	-1.000000	-1.000000	78.620690	0.000000	-1.000000	-1.000000	154935.000000	1773687867.156341
-5960.565000	17341.650000	29279.520000	-7756.965000	-32410.890000	8455.905000	-19940.850000	-30648.150000	-4.778871	-4.409125	-3.840018	-3.170971	-1.995735	0.346179	-1.927317	-13.797904	-3.906560	3.174080	-0.961380	0.753721	0.581419	0.283508	-1.000000	-1.000000	-1.000000	-1.000000	-1.000000	-1.000000	-1.000000	78.620690	0.000000	-1.000000	-1.000000	154936.000000	1773687867.156347
-5945.670000	17355.735000	29294.370000	-7743.150000	-32402.655000	8459.145000	-19945.215000	-30633.705000	-9.655912	-10.691982	-9.746718	-9.367501	-6.395802	-5.597155	-0.320049	-0.365615	-3.906560	3.174080	-0.961380	0.753721	0.581419	0.283508	-1.000000	-1.000000	-1.000000	-1.000000	-1.000000	-1.000000	-1.000000	78.620690	0.000000	-1.000000	-1.000000	154937.000000	1773687867.156353
-5950.305000	17348.535000	29286.360000	-7753.680000	-32417.415000	8439.165000	-19956.915000	-30635.190000	-9.094321	-10.873304	-10.014470	-10.650145	-8.169779	-8.670904	0.107136	12.829332	-3.906560	3.174080	-0.961380	0.753721	0.581419	0.283508	-1.000000	-1.000000	-1.000000	-1.000000	-1.000000	-1.000000	-1.000000	78.620690	0.000000	-1.000000	-1.000000	154938.000000	1773687867.156358
-5968.485000	17331.165000	29268.720000	-7773.255000	-32437.125000	8418.870000	-19968.705000	-30676.950000	-4.093856	-5.888204	-5.571222	-7.298227	-6.262534	-8.598962	-1.631960	18.353705	-3.906560	3.174080	-0.961380	0.753721	0.581419	0.283508	-1.000000	-1.000000	-1.000000	-1.000000	-1.000000	-1.000000	-1.000000	78.620690	0.000000	-1.000000	-1.000000	154939.000000	1773687867.156363
-5958.630000	17341.695000	29278.035000	-7760.430000	-32420.880000	8437.680000	-19958.130000	-30669.750000	1.065172	-0.184736	-0.521785	-2.495713	-2.464557	-6.361592	-3.864764	12.845270	-3.906560	3.174080	-0.961380	0.753721	0.581419	0.283508	-1.000000	-1.000000	-1.000000	-1.000000	-1.000000	-1.000000	-1.000000	78.620690	0.000000	-1.000000	-1.000000	154940.000000	1773687867.156368
-5966.595000	17336.790000	29275.110000	-7759.890000	-32419.620000	8446.275000	-19961.550000	-30633.570000	3.776257	3.708746	3.104810	2.158192	2.324694	-1.581528	-3.435060	0.701570	-3.586100	2.289000	0.427280	0.749510	0.583434	0.281921	-1.000000	-1.000000	-1.000000	-1.000000	-1.000000	-1.000000	-1.000000	78.620690	0.000000	-1.000000	-1.000000	154941.000000	1773687867.156374
-5954.805000	17344.800000	29282.220000	-7751.250000	-32416.380000	8461.530000	-19952.595000	-30617.370000	4.593748	5.895027	5.544466	6.455791	7.662155	5.691951	0.328873	-7.986887	-3.586100	2.289000	0.427280	0.749510	0.583434	0.281921	-1.000000	-1.000000	-1.000000	-1.000000	-1.000000	-1.000000	-1.000000	78.620690	0.000000	-1.000000	-1.000000	154942.000000	1773687867.156379
-5922.990000	17373.780000	29308.680000	-7729.470000	-32399.910000	8475.075000	-19938.240000	-30641.310000	5.428793	7.191415	7.121627	9.639964	11.588256	12.560932	4.830446	-8.073776	-3.586100	2.289000	0.427280	0.749510	0.583434	0.281921	-1.000000	-1.000000	-1.000000	-1.000000	-1.000000	-1.000000	-1.000000	78.620690	0.000000	-1.000000	-1.000000	154943.000000	1773687867.156405
-5929.155000	17379.045000	29317.005000	-7724.475000	-32393.565000	8481.960000	-19937.295000	-30698.325000	7.204591	8.323582	8.116631	10.953497	12.066706	15.045998	7.231326	-4.839685	-3.586100	2.289000	0.427280	0.749510	0.583434	0.281921	-1.000000	-1.000000	-1.000000	-1.000000	-1.000000	-1.000000	-1.000000	78.620690	0.000000	-1.000000	-1.000000	154944.000000	1773687867.156410
-5959.080000	17358.930000	29295.585000	-7743.960000	-32401.035000	8456.535000	-19949.895000	-30719.025000	7.328998	7.970368	7.444647	9.057571	8.084468	10.574444	5.933414	-6.415923	-3.586100	2.289000	0.427280	0.749510	0.583434	0.281921	-1.000000	-1.000000	-1.000000	-1.000000	-1.000000	-1.000000	-1.000000	78.620690	0.000000	-1.000000	-1.000000	154945.000000	1773687867.156415
-5967.000000	17337.420000	29271.195000	-7767.270000	-32423.580000	8433.450000	-19965.915000	-30699.630000	2.120504	3.233034	2.621060	2.295876	0.037702	-0.301368	0.979376	-12.687961	-3.586100	2.289000	0.427280	0.749510	0.583434	0.281921	-1.000000	-1.000000	-1.000000	-1.000000	-1.000000	-1.000000	-1.000000	78.620690	0.000000	-1.000000	-1.000000	154946.000000	1773687867.156420
-5954.400000	17344.260000	29274.750000	-7764.885000	-32425.335000	8432.370000	-19949.805000	-30671.550000	-6.764275	-5.394961	-5.872238	-7.567569	-9.006898	-12.452622	-4.940380	-14.735352	-3.586100	2.289000	0.427280	0.749510	0.583434	0.281921	-1.000000	-1.000000	-1.000000	-1.000000	-1.000000	-1.000000	-1.000000	78.620690	0.000000	-1.000000	-1.000000	154947.000000	1773687867.156425
-5951.520000	17348.445000	29277.090000	-7757.190000	-32409.990000	8460.360000	-19939.005000	-30672.045000	-12.728489	-12.588983	-12.895333	-14.644506	-14.063865	-18.290780	-7.493308	-5.657916	-3.586100	2.289000	0.427280	0.749510	0.583434	0.281921	-1.000000	-1.000000	-1.000000	-1.000000	-1.000000	-1.000000	-1.000000	78.620690	0.000000	-1.000000	-1.000000	154948.000000	1773687867.156430
-5954.355000	17352.810000	29282.985000	-7748.505000	-32409.225000	8453.610000	-19938.240000	-30678.165000	-11.502202	-13.345542	-13.402049	-14.061070	-12.011013	-13.931966	-4.614125	10.561608	-3.586100	2.289000	0.427280	0.749510	0.583434	0.281921	-1.000000	-1.000000	-1.000000	-1.000000	-1.000000	-1.000000	-1.000000	78.620690	0.000000	-1.000000	-1.000000	154949.000000	1773687867.156435
-5967.360000	17337.645000	29271.330000	-7763.040000	-32419.980000	8442.540000	-19940.895000	-30664.395000	-4.751353	-7.638090	-7.194295	-6.547573	-4.583650	-3.107041	1.198085	22.778617	-3.586100	2.289000	0.427280	0.749510	0.583434	0.281921	-1.000000	-1.000000	-1.000000	-1.000000	-1.000000	-1.000000	-1.000000	78.620690	0.000000	-1.000000	-1.000000	154950.000000	1773687867.156439
-5961.645000	17336.340000	29269.575000	-7767.540000	-32423.355000	8443.620000	-19936.755000	-30645.945000	2.555678	0.105468	1.234776	2.368560	3.074531	6.416748	5.323469	23.844145	-3.341940	2.105880	-0.015260	0.746336	0.584227	0.279296	-1.000000	-1.000000	-1.000000	-1.000000	-1.000000	-1.000000	-1.000000	78.620690	0.000000	-1.000000	-1.000000	154951.000000	1773687867.156446
-5944.545000	17360.010000	29292.840000	-7746.480000	-32406.660000	8457.660000	-19927.305000	-30635.775000	6.594960	5.400387	6.995465	7.562810	6.887282	9.818790	5.142083	15.786794	-3.341940	2.105880	-0.015260	0.746336	0.584227	0.279296	-1.000000	-1.000000	-1.000000	-1.000000	-1.000000	-1.000000	-1.000000	78.620690	0.000000	-1.000000	-1.000000	154952.000000	1773687867.156451
-5921.955000	17378.550000	29313.765000	-7723.755000	-32384.610000	8476.245000	-19936.620000	-30615.435000	7.434599	7.465344	8.916352	8.516962	6.720743	8.005946	1.535305	5.622507	-3.341940	2.105880	-0.015260	0.746336	0.584227	0.279296	-1.000000	-1.000000	-1.000000	-1.000000	-1.000000	-1.000000	-1.000000	78.620690	0.000000	-1.000000	-1.000000	154953.000000	1773687867.156456
-5925.420000	17371.845000	29307.870000	-7728.885000	-32385.465000	8478.585000	-19948.680000	-30644.865000	7.429004	8.032042	8.792858	7.783474	5.114923	5.061432	-2.770166	-1.992324	-3.341940	2.105880	-0.015260	0.746336	0.584227	0.279296	-1.000000	-1.000000	-1.000000	-1.000000	-1.000000	-1.000000	-1.000000	78.620690	0.000000	-1.000000	-1.000000	154954.000000	1773687867.156461
-5947.290000	17351.775000	29289.060000	-7747.200000	-32404.095000	8457.795000	-19949.670000	-30678.120000	6.914775	7.572904	7.568293	6.619558	3.824434	3.680511	-5.321909	-8.349965	-3.341940	2.105880	-0.015260	0.746336	0.584227	0.279296	-1.000000	-1.000000	-1.000000	-1.000000	-1.000000	-1.000000	-1.000000	78.620690	0.000000	-1.000000	-1.000000	154955.000000	1773687867.162501
-5951.520000	17347.860000	29282.850000	-7754.715000	-32416.290000	8448.480000	-19941.840000	-30662.640000	3.756272	4.736337	4.277020	3.903439	2.146868	2.712754	-5.065175	-15.694258	-3.341940	2.105880	-0.015260	0.746336	0.584227	0.279296	-1.000000	-1.000000	-1.000000	-1.000000	-1.000000	-1.000000	-1.000000	78.620690	0.000000	-1.000000	-1.000000	154956.000000	1773687867.162519
-5941.440000	17361.675000	29295.225000	-7747.605000	-32418.090000	8457.480000	-19928.745000	-30623.850000	-2.288094	-0.544656	-1.176213	-1.038965	-1.248323	-0.226392	-2.374873	-20.479714	-3.341940	2.105880	-0.015260	0.746336	0.584227	0.279296	-1.000000	-1.000000	-1.000000	-1.000000	-1.000000	-1.000000	-1.000000	78.620690	0.000000	-1.000000	-1.000000	154957.000000	1773687867.283004
-5935.275000	17374.230000	29306.520000	-7735.635000	-32408.190000	8472.105000	-19930.770000	-30635.730000	-7.645734	-5.342949	-6.164896	-6.139756	-5.352373	-4.370719	1.540796	-17.187771	-3.341940	2.105880	-0.015260	0.746336	0.584227	0.279296	-1.000000	-1.000000	-1.000000	-1.000000	-1.000000	-1.000000	-1.000000	78.620690	0.000000	-1.000000	-1.000000	154958.000000	1773687867.283018
-5934.330000	17367.705000	29301.975000	-7730.460000	-32383.395000	8476.605000	-19939.725000	-30625.335000	-8.612623	-6.517916	-7.693275	-8.041832	-6.758985	-6.332802	4.691766	-6.766705	-3.341940	2.105880	-0.015260	0.746336	0.584227	0.279296	-1.000000	-1.000000	-1.000000	-1.000000	-1.000000	-1.000000	-1.000000	78.620690	0.000000	-1.000000	-1.000000	154959.000000	1773687867.283034
-5941.980000	17368.020000	29306.205000	-7728.930000	-32384.070000	8482.680000	-19936.485000	-30658.590000	-5.458914	-4.341569	-5.703110	-5.693970	-3.514821	-4.660047	4.995620	3.948911	-3.341940	2.105880	-0.015260	0.746336	0.584227	0.279296	-1.000000	-1.000000	-1.000000	-1.000000	-1.000000	-1.000000	-1.000000	78.620690	0.000000	-1.000000	-1.000000	154960.000000	1773687867.283040
-5947.695000	17376.255000	29313.540000	-7723.800000	-32381.640000	8481.330000	-19935.945000	-30714.435000	-1.845106	-1.850478	-2.796158	-1.638635	1.731370	-1.472743	2.246574	8.305078	-4.120200	1.846460	0.366240	0.744627	0.585753	0.279723	-1.000000	-1.000000	-1.000000	-1.000000	-1.000000	-1.000000	-1.000000	78.620690	0.000000	-1.000000	-1.000000	154961.000000	1773687867.283046
-5933.160000	17381.925000	29317.455000	-7722.720000	-32383.665000	8477.460000	-19932.030000	-30668.085000	-0.364241	-0.986633	-1.089121	0.859873	4.329022	0.269698	-1.230763	5.169099	-4.120200	1.846460	0.366240	0.744627	0.585753	0.279723	-1.000000	-1.000000	-1.000000	-1.000000	-1.000000	-1.000000	-1.000000	78.620690	0.000000	-1.000000	-1.000000	154962.000000	1773687867.283051
-5918.670000	17384.400000	29318.310000	-7720.155000	-32383.755000	8482.185000	-19932.840000	-30615.570000	0.260571	-0.763446	-0.225944	1.255557	2.858568	0.047824	-2.571599	1.621835	-4.120200	1.846460	0.366240	0.744627	0.585753	0.279723	-1.000000	-1.000000	-1.000000	-1.000000	-1.000000	-1.000000	-1.000000	78.620690	0.000000	-1.000000	-1.000000	154963.000000	1773687867.285161
-5933.565000	17367.570000	29300.985000	-7737.750000	-32405.400000	8475.885000	-19935.585000	-30622.545000	2.396075	0.453702	1.101268	1.173027	-0.291510	-0.130893	-1.213200	5.232041	-4.120200	1.846460	0.366240	0.744627	0.585753	0.279723	-1.000000	-1.000000	-1.000000	-1.000000	-1.000000	-1.000000	-1.000000	78.620690	0.000000	-1.000000	-1.000000	154964.000000	1773687867.285219
-5935.590000	17371.530000	29302.830000	-7731.045000	-32383.170000	8479.530000	-19928.070000	-30642.030000	5.276096	2.181057	2.607008	1.417563	-2.307469	1.016238	0.787859	12.944189	-4.120200	1.846460	0.366240	0.744627	0.585753	0.279723	-1.000000	-1.000000	-1.000000	-1.000000	-1.000000	-1.000000	-1.000000	78.620690	0.000000	-1.000000	-1.000000	154965.000000	1773687867.285275
-5932.800000	17374.680000	29306.430000	-7729.290000	-32383.800000	8470.035000	-19930.995000	-30643.065000	6.062761	2.684626	2.911815	1.460935	-1.882363	2.254327	1.350385	14.801366	-4.120200	1.846460	0.366240	0.744627	0.585753	0.279723	-1.000000	-1.000000	-1.000000	-1.000000	-1.000000	-1.000000	-1.000000	78.620690	0.000000	-1.000000	-1.000000	154966.000000	1773687867.285306
-5933.295000	17375.940000	29311.560000	-7727.985000	-32392.575000	8460.315000	-19931.445000	-30636.135000	3.742397	1.484976	1.738775	0.855923	0.055261	1.622112	0.269841	6.836684	-4.120200	1.846460	0.366240	0.744627	0.585753	0.279723	-1.000000	-1.000000	-1.000000	-1.000000	-1.000000	-1.000000	-1.000000	78.620690	0.000000	-1.000000	-1.000000	154967.000000	1773687867.285345
-5935.095000	17374.320000	29309.490000	-7731.990000	-32397.255000	8463.735000	-19934.955000	-30653.685000	-0.194607	-0.283723	0.182266	-0.252383	0.876820	-1.086436	-1.272929	-5.753486	-4.120200	1.846460	0.366240	0.744627	0.585753	0.279723	-1.000000	-1.000000	-1.000000	-1.000000	-1.000000	-1.000000	-1.000000	78.620690	0.000000	-1.000000	-1.000000	154968.000000	1773687867.285374
-5938.110000	17371.170000	29304.810000	-7734.150000	-32394.825000	8469.405000	-19940.850000	-30685.590000	-3.599570	-1.522467	-0.970749	-1.486798	-0.667783	-3.835834	-2.297626	-15.235224	-4.120200	1.846460	0.366240	0.744627	0.585753	0.279723	-1.000000	-1.000000	-1.000000	-1.000000	-1.000000	-1.000000	-1.000000	78.620690	0.000000	-1.000000	-1.000000	154969.000000	1773687867.285408
-5944.410000	17356.095000	29289.510000	-7751.070000	-32411.745000	8457.030000	-19940.400000	-30661.740000	-5.213017	-2.400537	-2.158927	-2.723645	-3.243262	-4.445027	-2.572970	-16.679406	-4.120200	1.846460	0.366240	0.744627	0.585753	0.279723	-1.000000	-1.000000	-1.000000	-1.000000	-1.000000	-1.000000	-1.000000	78.620690	0.000000	-1.000000	-1.000000	154970.000000	1773687867.285436
-5940.360000	17365.410000	29299.815000	-7737.570000	-32393.340000	8475.570000	-19930.680000	-30649.635000	-5.072903	-3.220300	-3.490520	-3.565001	-4.595800	-2.340604	-1.774582	-10.174639	-3.555580	1.831200	-0.473060	0.743956	0.585509	0.280456	-1.000000	-1.000000	-1.000000	-1.000000	-1.000000	-1.000000	-1.000000	78.620690	0.000000	-1.000000	-1.000000	154971.000000	1773687867.285470
-5927.625000	17376.660000	29313.900000	-7720.515000	-32379.120000	8482.590000	-19924.290000	-30639.915000	-3.399601	-2.673896	-3.165480	-2.340139	-2.495153	1.966673	0.496575	-0.539674	-3.555580	1.831200	-0.473060	0.743956	0.585509	0.280456	-1.000000	-1.000000	-1.000000	-1.000000	-1.000000	-1.000000	-1.000000	78.620690	0.000000	-1.000000	-1.000000	154972.000000	1773687867.285498
-5920.740000	17388.900000	29327.355000	-7708.995000	-32369.715000	8494.605000	-19921.545000	-30606.210000	0.114384	0.831976	0.685819	2.279914	3.540769	7.058562	3.482614	7.424258	-3.555580	1.831200	-0.473060	0.743956	0.585509	0.280456	-1.000000	-1.000000	-1.000000	-1.000000	-1.000000	-1.000000	-1.000000	78.620690	0.000000	-1.000000	-1.000000	154973.000000	1773687867.285525
-5924.880000	17384.850000	29321.505000	-7713.180000	-32371.560000	8492.445000	-19924.110000	-30583.935000	4.627644	6.022981	6.553161	8.195449	10.051581	10.294162	5.166176	12.459939	-3.555580	1.831200	-0.473060	0.743956	0.585509	0.280456	-1.000000	-1.000000	-1.000000	-1.000000	-1.000000	-1.000000	-1.000000	78.620690	0.000000	-1.000000	-1.000000	154974.000000	1773687867.285530
-5921.415000	17389.305000	29322.135000	-7710.795000	-32366.250000	8495.865000	-19900.215000	-30645.495000	7.461769	9.018600	9.880713	10.796615	12.057941	9.383823	4.422016	13.479646	-3.555580	1.831200	-0.473060	0.743956	0.585509	0.280456	-1.000000	-1.000000	-1.000000	-1.000000	-1.000000	-1.000000	-1.000000	78.620690	0.000000	-1.000000	-1.000000	154975.000000	1773687867.285536
-5942.430000	17366.580000	29298.780000	-7736.580000	-32395.995000	8468.055000	-19900.080000	-30675.240000	6.384713	7.045179	7.330871	7.276495	7.552835	4.062042	2.397523	7.387602	-3.555580	1.831200	-0.473060	0.743956	0.585509	0.280456	-1.000000	-1.000000	-1.000000	-1.000000	-1.000000	-1.000000	-1.000000	78.620690	0.000000	-1.000000	-1.000000	154976.000000	1773687867.285540
-5952.150000	17356.410000	29289.510000	-7751.295000	-32412.735000	8457.750000	-19922.220000	-30703.770000	1.433339	0.544116	-0.400251	-1.281877	-1.805351	-4.194751	0.241600	-5.059322	-3.555580	1.831200	-0.473060	0.743956	0.585509	0.280456	-1.000000	-1.000000	-1.000000	-1.000000	-1.000000	-1.000000	-1.000000	78.620690	0.000000	-1.000000	-1.000000	154977.000000	1773687867.285546
-5937.165000	17383.230000	29320.065000	-7721.145000	-32385.870000	8475.660000	-19940.175000	-30688.965000	-4.638214	-6.786399	-8.598342	-10.122551	-11.325959	-11.971378	-2.601076	-15.981280	-3.555580	1.831200	-0.473060	0.743956	0.585509	0.280456	-1.000000	-1.000000	-1.000000	-1.000000	-1.000000	-1.000000	-1.000000	78.620690	0.000000	-1.000000	-1.000000	154978.000000	1773687867.285551
-5930.640000	17380.530000	29315.610000	-7727.265000	-32399.145000	8466.885000	-19948.725000	-30642.030000	-7.683931	-9.878228	-11.406114	-13.259144	-15.128994	-14.676863	-6.340661	-17.155037	-3.555580	1.831200	-0.473060	0.743956	0.585509	0.280456	-1.000000	-1.000000	-1.000000	-1.000000	-1.000000	-1.000000	-1.000000	78.620690	0.000000	-1.000000	-1.000000	154979.000000	1773687867.285556
-5944.365000	17349.210000	29283.660000	-7751.835000	-32411.295000	8461.485000	-19943.820000	-30644.550000	-6.063772	-7.393467	-7.729573	-9.304150	-11.497414	-10.812899	-9.202033	-7.723869	-3.555580	1.831200	-0.473060	0.743956	0.585509	0.280456	-1.000000	-1.000000	-1.000000	-1.000000	-1.000000	-1.000000	-1.000000	78.620690	0.000000	-1.000000	-1.000000	154980.000000	1773687867.285561
-5935.950000	17363.205000	29298.825000	-7739.685000	-32394.375000	8456.220000	-19926.630000	-30640.545000	-2.020002	-2.885874	-2.036560	-2.633502	-3.949711	-3.477550	-8.573043	5.407755	-2.121140	2.655240	-0.198380	0.744871	0.582640	0.280395	-1.000000	-1.000000	-1.000000	-1.000000	-1.000000	-1.000000	-1.000000	78.620690	0.000000	-1.000000	-1.000000	154981.000000	1773687867.285566
-5936.130000	17363.385000	29291.805000	-7749.945000	-32405.850000	8456.175000	-19919.925000	-30641.940000	1.622278	0.533211	1.835944	2.445880	3.364778	3.210229	-3.360874	13.491843	-2.121140	2.655240	-0.198380	0.744871	0.582640	0.280395	-1.000000	-1.000000	-1.000000	-1.000000	-1.000000	-1.000000	-1.000000	78.620690	0.000000	-1.000000	-1.000000	154982.000000	1773687867.285571
-5943.690000	17361.990000	29292.210000	-7750.440000	-32404.005000	8463.105000	-19928.340000	-30651.390000	3.564006	2.504400	3.400305	4.682351	7.797699	7.142237	4.159128	12.600227	-2.121140	2.655240	-0.198380	0.744871	0.582640	0.280395	-1.000000	-1.000000	-1.000000	-1.000000	-1.000000	-1.000000	-1.000000	78.620690	0.000000	-1.000000	-1.000000	154983.000000	1773687867.285577
-5935.545000	17370.045000	29299.500000	-7742.970000	-32400.180000	8465.985000	-19933.380000	-30667.545000	3.699840	3.626630	3.759691	4.903003	8.616029	8.561067	9.302375	5.791867	-2.121140	2.655240	-0.198380	0.744871	0.582640	0.280395	-1.000000	-1.000000	-1.000000	-1.000000	-1.000000	-1.000000	-1.000000	78.620690	0.000000	-1.000000	-1.000000	154984.000000	1773687867.285582
-5935.230000	17364.465000	29294.775000	-7742.745000	-32406.930000	8450.145000	-19938.015000	-30653.145000	3.099325	4.616364	4.287277	4.991793	7.296965	8.458998	9.111668	-0.415129	-2.121140	2.655240	-0.198380	0.744871	0.582640	0.280395	-1.000000	-1.000000	-1.000000	-1.000000	-1.000000	-1.000000	-1.000000	78.620690	0.000000	-1.000000	-1.000000	154985.000000	1773687867.285588
-5942.880000	17352.495000	29285.505000	-7754.445000	-32415.255000	8447.805000	-19937.205000	-30636.180000	2.736054	5.193953	4.930691	5.586783	5.279008	6.799211	5.129332	-1.372511	-2.121140	2.655240	-0.198380	0.744871	0.582640	0.280395	-1.000000	-1.000000	-1.000000	-1.000000	-1.000000	-1.000000	-1.000000	78.620690	0.000000	-1.000000	-1.000000	154986.000000	1773687867.285592
-5947.425000	17348.580000	29283.795000	-7753.230000	-32399.370000	8471.745000	-19939.545000	-30648.465000	1.839927	3.684771	3.848939	4.887086	2.559455	3.435075	1.186048	1.734241	-2.121140	2.655240	-0.198380	0.744871	0.582640	0.280395	-1.000000	-1.000000	-1.000000	-1.000000	-1.000000	-1.000000	-1.000000	78.620690	0.000000	-1.000000	-1.000000	154987.000000	1773687867.285599
-5937.885000	17366.175000	29301.300000	-7726.320000	-32380.605000	8491.815000	-19937.520000	-30648.690000	-0.414087	0.103592	0.760960	2.147709	-0.156945	0.124301	-0.589877	2.693514	-2.121140	2.655240	-0.198380	0.744871	0.582640	0.280395	-1.000000	-1.000000	-1.000000	-1.000000	-1.000000	-1.000000	-1.000000	78.620690	0.000000	-1.000000	-1.000000	154988.000000	1773687867.285603
-5937.615000	17368.920000	29302.875000	-7726.095000	-32376.915000	8480.565000	-19947.105000	-30674.925000	-2.794092	-2.483072	-1.609818	-0.300541	-1.206033	-1.202867	-1.018075	-2.435431	-2.121140	2.655240	-0.198380	0.744871	0.582640	0.280395	-1.000000	-1.000000	-1.000000	-1.000000	-1.000000	-1.000000	-1.000000	78.620690	0.000000	-1.000000	-1.000000	154989.000000	1773687867.285609
-5939.235000	17372.700000	29305.890000	-7730.730000	-32386.815000	8470.935000	-19945.620000	-30680.370000	-3.661405	-2.092049	-1.509232	-1.010924	-0.966755	-1.414179	-2.059453	-10.978201	-2.121140	2.655240	-0.198380	0.744871	0.582640	0.280395	-1.000000	-1.000000	-1.000000	-1.000000	-1.000000	-1.000000	-1.000000	78.620690	0.000000	-1.000000	-1.000000	154990.000000	1773687867.285613
-5942.565000	17373.870000	29306.430000	-7737.300000	-32395.545000	8459.145000	-19940.445000	-30650.670000	-2.945191	-0.213022	-0.250868	-1.377923	-1.642161	-2.819827	-4.030568	-16.418241	-4.379620	2.090620	-1.098720	0.744566	0.580321	0.280395	-1.000000	-1.000000	-1.000000	-1.000000	-1.000000	-1.000000	-1.000000	78.620690	0.000000	-1.000000	-1.000000	154991.000000	1773687867.285619
-5930.190000	17387.730000	29319.300000	-7725.510000	-32390.280000	8461.620000	-19933.740000	-30654.180000	-1.288338	1.031578	0.445252	-2.572104	-3.921130	-5.853724	-5.036214	-13.021314	-4.379620	2.090620	-1.098720	0.744566	0.580321	0.280395	-1.000000	-1.000000	-1.000000	-1.000000	-1.000000	-1.000000	-1.000000	78.620690	0.000000	-1.000000	-1.000000	154992.000000	1773687867.285624
-5931.495000	17378.685000	29310.885000	-7723.890000	-32380.470000	8476.335000	-19931.850000	-30654.000000	0.834511	0.999438	0.138644	-3.832198	-5.876571	-8.038590	-3.396709	-0.892407	-4.379620	2.090620	-1.098720	0.744566	0.580321	0.280395	-1.000000	-1.000000	-1.000000	-1.000000	-1.000000	-1.000000	-1.000000	78.620690	0.000000	-1.000000	-1.000000	154993.000000	1773687867.285629
-5939.595000	17360.865000	29294.820000	-7734.735000	-32387.580000	8472.195000	-19927.890000	-30639.870000	2.594158	-0.248688	-1.096110	-3.980840	-5.144186	-6.311153	0.485548	13.107477	-4.379620	2.090620	-1.098720	0.744566	0.580321	0.280395	-1.000000	-1.000000	-1.000000	-1.000000	-1.000000	-1.000000	-1.000000	78.620690	0.000000	-1.000000	-1.000000	154994.000000	1773687867.285634
-5949.270000	17347.320000	29283.345000	-7746.390000	-32399.505000	8460.990000	-19933.155000	-30642.930000	2.821120	-2.591647	-3.192976	-3.157407	-2.001450	-1.135300	4.535215	20.848303	-4.379620	2.090620	-1.098720	0.744566	0.580321	0.280395	-1.000000	-1.000000	-1.000000	-1.000000	-1.000000	-1.000000	-1.000000	78.620690	0.000000	-1.000000	-1.000000	154995.000000	1773687867.285640
-5939.055000	17351.730000	29285.955000	-7744.230000	-32394.690000	8465.310000	-19940.130000	-30640.455000	1.216677	-5.177388	-5.444657	-2.434021	0.760259	3.327408	6.296968	18.302825	-4.379620	2.090620	-1.098720	0.744566	0.580321	0.280395	-1.000000	-1.000000	-1.000000	-1.000000	-1.000000	-1.000000	-1.000000	78.620690	0.000000	-1.000000	-1.000000	154996.000000	1773687867.285644
-5952.195000	17345.250000	29280.195000	-7751.970000	-32403.285000	8457.615000	-19941.525000	-30678.930000	-1.184443	-6.334317	-6.333699	-2.335687	1.171471	3.978721	4.529420	7.028441	-4.379620	2.090620	-1.098720	0.744566	0.580321	0.280395	-1.000000	-1.000000	-1.000000	-1.000000	-1.000000	-1.000000	-1.000000	78.620690	0.000000	-1.000000	-1.000000	154997.000000	1773687867.285650
-5965.830000	17335.080000	29270.835000	-7762.365000	-32414.175000	8446.770000	-19956.690000	-30664.755000	-3.316101	-5.158320	-4.966550	-2.488245	-0.394222	1.580473	0.082100	-6.993355	-4.379620	2.090620	-1.098720	0.744566	0.580321	0.280395	-1.000000	-1.000000	-1.000000	-1.000000	-1.000000	-1.000000	-1.000000	78.620690	0.000000	-1.000000	-1.000000	154998.000000	1773687867.285655
-5949.720000	17346.690000	29279.295000	-7757.280000	-32411.790000	8448.975000	-19969.155000	-30658.905000	-4.361074	-2.154063	-1.780099	-1.894546	-1.994259	-0.903927	-5.042442	-16.397539	-4.379620	2.090620	-1.098720	0.744566	0.580321	0.280395	-1.000000	-1.000000	-1.000000	-1.000000	-1.000000	-1.000000	-1.000000	78.620690	0.000000	-1.000000	-1.000000	154999.000000	1773687867.285660
-5942.700000	17358.705000	29289.915000	-7748.730000	-32408.865000	8457.120000	-19961.685000	-30698.055000	-3.082063	1.928406	2.398374	0.502012	-1.462056	-1.002666	-8.612940	-17.588645	-4.379620	2.090620	-1.098720	0.744566	0.580321	0.280395	-1.000000	-1.000000	-1.000000	-1.000000	-1.000000	-1.000000	-1.000000	78.620690	0.000000	-1.000000	-1.000000	155000.000000	1773687867.285670
-5951.745000	17359.245000	29294.505000	-7748.055000	-32432.265000	8448.660000	-19945.980000	-30696.480000	0.425732	6.094603	6.495086	4.294287	1.180957	1.323128	-8.371462	-12.517693	-4.822160	2.487380	-1.449700	0.745848	0.580138	0.279418	-1.000000	-1.000000	-1.000000	-1.000000	-1.000000	-1.000000	-1.000000	78.620690	0.000000	-1.000000	-1.000000	155001.000000	1773687867.285676
-5970.105000	17346.195000	29281.545000	-7764.615000	-32439.330000	8464.005000	-19936.035000	-30690.990000	3.593352	8.638472	8.935730	7.187182	3.365059	3.942338	-3.398607	-4.561751	-4.822160	2.487380	-1.449700	0.745848	0.580138	0.279418	-1.000000	-1.000000	-1.000000	-1.000000	-1.000000	-1.000000	-1.000000	78.620690	0.000000	-1.000000	-1.000000	155002.000000	1773687867.285680
-5964.255000	17360.325000	29301.120000	-7734.375000	-32385.960000	8486.370000	-19924.965000	-30669.930000	4.239069	8.571545	8.846394	7.573770	4.161468	5.459471	4.397029	3.958220	-4.822160	2.487380	-1.449700	0.745848	0.580138	0.279418	-1.000000	-1.000000	-1.000000	-1.000000	-1.000000	-1.000000	-1.000000	78.620690	0.000000	-1.000000	-1.000000	155003.000000	1773687867.285686
-5946.120000	17379.135000	29317.905000	-7726.230000	-32373.810000	8479.710000	-19941.120000	-30658.950000	3.104655	6.778163	7.046955	6.428271	5.796268	5.878191	10.903622	11.038875	-4.822160	2.487380	-1.449700	0.745848	0.580138	0.279418	-1.000000	-1.000000	-1.000000	-1.000000	-1.000000	-1.000000	-1.000000	78.620690	0.000000	-1.000000	-1.000000	155004.000000	1773687867.285690
-5939.190000	17377.695000	29313.450000	-7731.315000	-32382.180000	8470.980000	-19971.090000	-30661.470000	2.271866	4.441981	4.546186	4.820066	8.458798	4.375128	11.864848	14.813010	-4.822160	2.487380	-1.449700	0.745848	0.580138	0.279418	-1.000000	-1.000000	-1.000000	-1.000000	-1.000000	-1.000000	-1.000000	78.620690	0.000000	-1.000000	-1.000000	155005.000000	1773687867.285696
-5947.065000	17349.795000	29287.845000	-7753.455000	-32407.920000	8450.415000	-19979.505000	-30671.055000	2.389650	1.116094	0.806224	1.832447	8.289348	-0.008052	5.822656	14.162559	-4.822160	2.487380	-1.449700	0.745848	0.580138	0.279418	-1.000000	-1.000000	-1.000000	-1.000000	-1.000000	-1.000000	-1.000000	78.620690	0.000000	-1.000000	-1.000000	155006.000000	1773687867.285700
-5935.770000	17317.890000	29249.145000	-7783.830000	-32433.660000	8419.140000	-19971.945000	-30612.645000	2.518229	-4.455399	-5.263020	-3.529281	2.352575	-6.255598	-3.528286	9.746190	-4.822160	2.487380	-1.449700	0.745848	0.580138	0.279418	-1.000000	-1.000000	-1.000000	-1.000000	-1.000000	-1.000000	-1.000000	78.620690	0.000000	-1.000000	-1.000000	155007.000000	1773687867.285706
-5971.860000	17303.535000	29233.710000	-7794.000000	-32442.930000	8410.770000	-19949.490000	-30680.415000	1.075980	-11.850340	-12.986810	-10.217928	-7.563860	-11.859688	-9.518220	3.305576	-4.822160	2.487380	-1.449700	0.745848	0.580138	0.279418	-1.000000	-1.000000	-1.000000	-1.000000	-1.000000	-1.000000	-1.000000	78.620690	0.000000	-1.000000	-1.000000	155008.000000	1773687867.285710
-6004.170000	17293.275000	29227.365000	-7802.190000	-32453.325000	8407.260000	-19948.905000	-30686.220000	-3.488520	-17.854857	-18.910916	-15.142651	-16.031577	-13.968994	-8.447584	-4.275251	-4.822160	2.487380	-1.449700	0.745848	0.580138	0.279418	-1.000000	-1.000000	-1.000000	-1.000000	-1.000000	-1.000000	-1.000000	78.620690	0.000000	-1.000000	-1.000000	155009.000000	1773687867.285716
-5992.605000	17311.005000	29247.210000	-7783.380000	-32433.975000	8434.080000	-19950.030000	-30670.650000	-9.843718	-17.843814	-18.251647	-14.628880	-17.428735	-10.341377	-2.675638	-11.311180	-4.822160	2.487380	-1.449700	0.745848	0.580138	0.279418	-1.000000	-1.000000	-1.000000	-1.000000	-1.000000	-1.000000	-1.000000	78.620690	0.000000	-1.000000	-1.000000	155010.000000	1773687867.285720
-5972.535000	17334.495000	29270.835000	-7759.845000	-32413.140000	8457.435000	-19953.765000	-30677.625000	-12.422811	-8.877456	-8.325046	-6.713099	-9.726442	-1.066012	2.505244	-14.589924	-2.197440	3.876040	-2.456860	0.746275	0.580138	0.276672	-1.000000	-1.000000	-1.000000	-1.000000	-1.000000	-1.000000	-1.000000	78.620690	0.000000	-1.000000	-1.000000	155011.000000	1773687867.285726
-5952.375000	17339.895000	29273.985000	-7759.755000	-32413.860000	8457.840000	-19956.105000	-30645.585000	-6.953557	6.523411	7.691065	5.935238	2.833251	10.068889	3.890360	-12.624589	-2.197440	3.876040	-2.456860	0.746275	0.580138	0.276672	-1.000000	-1.000000	-1.000000	-1.000000	-1.000000	-1.000000	-1.000000	78.620690	0.000000	-1.000000	-1.000000	155012.000000	1773687867.285731
-5939.730000	17353.440000	29286.855000	-7747.560000	-32407.110000	8460.495000	-19941.840000	-30645.180000	4.069271	20.336523	21.363585	16.459817	12.486410	17.304701	2.511318	-6.392427	-2.197440	3.876040	-2.456860	0.746275	0.580138	0.276672	-1.000000	-1.000000	-1.000000	-1.000000	-1.000000	-1.000000	-1.000000	78.620690	0.000000	-1.000000	-1.000000	155013.000000	1773687867.285736
-5945.490000	17356.410000	29290.230000	-7743.735000	-32404.635000	8467.155000	-19933.920000	-30655.845000	13.629882	25.307664	25.714537	19.566127	14.932436	17.337582	1.826081	1.629329	-2.197440	3.876040	-2.456860	0.746275	0.580138	0.276672	-1.000000	-1.000000	-1.000000	-1.000000	-1.000000	-1.000000	-1.000000	78.620690	0.000000	-1.000000	-1.000000	155014.000000	1773687867.285741
-5937.345000	17371.800000	29306.385000	-7726.050000	-32379.120000	8476.785000	-19924.965000	-30649.635000	16.232362	20.582010	20.472203	15.545389	12.025597	11.662868	3.491120	7.728604	-2.197440	3.876040	-2.456860	0.746275	0.580138	0.276672	-1.000000	-1.000000	-1.000000	-1.000000	-1.000000	-1.000000	-1.000000	78.620690	0.000000	-1.000000	-1.000000	155015.000000	1773687867.285746
-5934.195000	17375.490000	29308.140000	-7727.130000	-32382.360000	8476.515000	-19922.220000	-30644.595000	11.314698	10.571955	10.424677	8.275159	7.959514	4.331669	5.439098	8.997024	-2.197440	3.876040	-2.456860	0.746275	0.580138	0.276672	-1.000000	-1.000000	-1.000000	-1.000000	-1.000000	-1.000000	-1.000000	78.620690	0.000000	-1.000000	-1.000000	155016.000000	1773687867.285767
-5926.095000	17381.160000	29313.135000	-7725.015000	-32382.315000	8476.875000	-19923.165000	-30641.400000	2.863641	0.079465	0.286644	0.903313	4.434186	-1.917473	4.334650	6.623370	-2.197440	3.876040	-2.456860	0.746275	0.580138	0.276672	-1.000000	-1.000000	-1.000000	-1.000000	-1.000000	-1.000000	-1.000000	78.620690	0.000000	-1.000000	-1.000000	155017.000000	1773687867.285773
-5916.825000	17392.185000	29322.810000	-7713.855000	-32371.605000	8487.720000	-19918.710000	-30640.770000	-3.777381	-8.243096	-7.835858	-5.486432	0.598663	-6.642599	-0.686565	4.316721	-2.197440	3.876040	-2.456860	0.746275	0.580138	0.276672	-1.000000	-1.000000	-1.000000	-1.000000	-1.000000	-1.000000	-1.000000	78.620690	0.000000	-1.000000	-1.000000	155018.000000	1773687867.285778
-5914.665000	17400.960000	29337.030000	-7697.970000	-32356.305000	8501.805000	-19911.915000	-30645.045000	-6.246703	-13.368656	-13.281749	-10.258225	-3.954033	-10.091024	-6.797402	2.879124	-2.197440	3.876040	-2.456860	0.746275	0.580138	0.276672	-1.000000	-1.000000	-1.000000	-1.000000	-1.000000	-1.000000	-1.000000	78.620690	0.000000	-1.000000	-1.000000	155019.000000	1773687867.291942
-5911.290000	17402.580000	29339.955000	-7698.195000	-32361.030000	8496.405000	-19915.020000	-30643.200000	-6.350574	-15.307884	-15.719784	-12.766816	-8.652701	-12.238625	-10.095329	0.383064	-2.197440	3.876040	-2.456860	0.746275	0.580138	0.276672	-1.000000	-1.000000	-1.000000	-1.000000	-1.000000	-1.000000	-1.000000	78.620690	0.000000	-1.000000	-1.000000	155020.000000	1773687867.291998
-5907.015000	17402.220000	29339.325000	-7701.165000	-32365.080000	8491.815000	-19915.830000	-30629.070000	-6.829836	-14.689493	-15.229478	-12.954005	-12.590760	-12.623868	-8.937218	-3.734880	-3.097780	3.311420	-1.815940	0.745420	0.578795	0.275146	-1.000000	-1.000000	-1.000000	-1.000000	-1.000000	-1.000000	-1.000000	78.620690	0.000000	-1.000000	-1.000000	155021.000000	1773687867.292057
-5904.045000	17408.340000	29346.255000	-7690.005000	-32351.085000	8513.100000	-19911.375000	-30615.525000	-8.098572	-11.943639	-12.141636	-10.894890	-13.985712	-10.187625	-4.485687	-7.165204	-3.097780	3.311420	-1.815940	0.745420	0.578795	0.275146	-1.000000	-1.000000	-1.000000	-1.000000	-1.000000	-1.000000	-1.000000	78.620690	0.000000	-1.000000	-1.000000	155022.000000	1773687867.292088
-5925.510000	17378.145000	29314.620000	-7714.530000	-32372.910000	8495.235000	-19915.515000	-30631.320000	-8.540427	-7.493677	-7.235265	-6.824378	-11.247062	-4.493369	0.741139	-7.061834	-3.097780	3.311420	-1.815940	0.745420	0.578795	0.275146	-1.000000	-1.000000	-1.000000	-1.000000	-1.000000	-1.000000	-1.000000	78.620690	0.000000	-1.000000	-1.000000	155023.000000	1773687867.295553
-5947.380000	17348.085000	29275.335000	-7761.510000	-32418.720000	8460.855000	-19918.755000	-30655.980000	-7.341438	-2.939193	-2.632032	-2.610277	-5.952058	2.061964	4.240845	-4.281493	-3.097780	3.311420	-1.815940	0.745420	0.578795	0.275146	-1.000000	-1.000000	-1.000000	-1.000000	-1.000000	-1.000000	-1.000000	78.620690	0.000000	-1.000000	-1.000000	155024.000000	1773687867.295565
-5936.940000	17365.815000	29293.785000	-7740.990000	-32394.420000	8467.785000	-19924.470000	-30655.305000	-4.842914	0.300356	0.023305	-0.259402	-1.239073	5.835860	4.645658	-2.098635	-3.097780	3.311420	-1.815940	0.745420	0.578795	0.275146	-1.000000	-1.000000	-1.000000	-1.000000	-1.000000	-1.000000	-1.000000	78.620690	0.000000	-1.000000	-1.000000	155025.000000	1773687867.299820
-5936.715000	17367.975000	29302.515000	-7733.070000	-32391.045000	8467.605000	-19926.720000	-30652.920000	-0.701600	3.205741	2.244885	1.494842	2.812396	6.135801	2.460191	-1.005075	-3.097780	3.311420	-1.815940	0.745420	0.578795	0.275146	-1.000000	-1.000000	-1.000000	-1.000000	-1.000000	-1.000000	-1.000000	78.620690	0.000000	-1.000000	-1.000000	155026.000000	1773687867.299829
-5945.805000	17355.375000	29289.240000	-7746.480000	-32403.015000	8453.160000	-19938.240000	-30655.800000	4.790440	6.714855	5.780765	4.610186	7.144368	4.532450	-0.547682	0.589095	-3.097780	3.311420	-1.815940	0.745420	0.578795	0.275146	-1.000000	-1.000000	-1.000000	-1.000000	-1.000000	-1.000000	-1.000000	78.620690	0.000000	-1.000000	-1.000000	155027.000000	1773687867.367676
-5942.115000	17358.885000	29292.255000	-7750.080000	-32417.685000	8449.920000	-19951.560000	-30653.730000	9.261215	9.278255	9.073896	7.641098	9.746073	1.902934	-2.840405	2.939522	-3.097780	3.311420	-1.815940	0.745420	0.578795	0.275146	-1.000000	-1.000000	-1.000000	-1.000000	-1.000000	-1.000000	-1.000000	78.620690	0.000000	-1.000000	-1.000000	155028.000000	1773687867.367691
-5947.965000	17353.305000	29290.635000	-7746.840000	-32407.650000	8457.795000	-19961.055000	-30660.615000	10.374643	9.216401	9.773876	8.281576	8.596768	-0.570819	-3.629320	4.736017	-3.097780	3.311420	-1.815940	0.745420	0.578795	0.275146	-1.000000	-1.000000	-1.000000	-1.000000	-1.000000	-1.000000	-1.000000	78.620690	0.000000	-1.000000	-1.000000	155029.000000	1773687867.367704
-5951.835000	17346.465000	29283.570000	-7748.865000	-32397.255000	8463.780000	-19954.080000	-30657.690000	7.660883	6.597119	7.593734	6.624916	5.258664	-0.794148	-2.450530	4.407651	-3.097780	3.311420	-1.815940	0.745420	0.578795	0.275146	-1.000000	-1.000000	-1.000000	-1.000000	-1.000000	-1.000000	-1.000000	78.620690	0.000000	-1.000000	-1.000000	155030.000000	1773687867.367709
-5945.715000	17355.330000	29290.455000	-7742.340000	-32395.725000	8460.810000	-19957.905000	-30679.065000	2.865328	2.894009	3.959714	4.181538	2.684024	1.583458	0.600926	1.775023	-2.685760	3.021480	-1.526000	0.745359	0.579649	0.275512	-1.000000	-1.000000	-1.000000	-1.000000	-1.000000	-1.000000	-1.000000	78.620690	0.000000	-1.000000	-1.000000	155031.000000	1773687867.367715
-5938.470000	17371.125000	29304.765000	-7725.915000	-32378.265000	8483.985000	-19935.405000	-30688.470000	-0.631276	0.847302	1.587722	2.920983	2.496850	5.127748	4.582778	-1.552167	-2.685760	3.021480	-1.526000	0.745359	0.579649	0.275512	-1.000000	-1.000000	-1.000000	-1.000000	-1.000000	-1.000000	-1.000000	78.620690	0.000000	-1.000000	-1.000000	155032.000000	1773687867.367720
-5930.100000	17380.800000	29314.755000	-7713.945000	-32370.705000	8493.705000	-19928.655000	-30661.335000	-0.500145	2.392964	2.670933	4.404661	4.785794	8.847803	8.238368	-2.941707	-2.685760	3.021480	-1.526000	0.745359	0.579649	0.275512	-1.000000	-1.000000	-1.000000	-1.000000	-1.000000	-1.000000	-1.000000	78.620690	0.000000	-1.000000	-1.000000	155033.000000	1773687867.367725
-5930.415000	17381.250000	29316.690000	-7711.110000	-32374.080000	8502.705000	-19915.515000	-30647.970000	2.080174	5.481846	5.481867	6.988979	7.074427	11.193512	10.202608	-0.245417	-2.685760	3.021480	-1.526000	0.745359	0.579649	0.275512	-1.000000	-1.000000	-1.000000	-1.000000	-1.000000	-1.000000	-1.000000	78.620690	0.000000	-1.000000	-1.000000	155034.000000	1773687867.367730
-5949.180000	17357.445000	29290.680000	-7741.575000	-32395.005000	8471.205000	-19920.690000	-30671.280000	3.461022	5.403261	5.179273	6.018371	5.163373	9.100916	9.164147	4.985126	-2.685760	3.021480	-1.526000	0.745359	0.579649	0.275512	-1.000000	-1.000000	-1.000000	-1.000000	-1.000000	-1.000000	-1.000000	78.620690	0.000000	-1.000000	-1.000000	155035.000000	1773687867.367735
-5958.360000	17349.255000	29282.310000	-7751.610000	-32405.940000	8457.435000	-19938.330000	-30683.340000	0.994593	-0.219562	-0.896157	-1.103984	-2.278317	0.881952	4.565735	7.616310	-2.685760	3.021480	-1.526000	0.745359	0.579649	0.275512	-1.000000	-1.000000	-1.000000	-1.000000	-1.000000	-1.000000	-1.000000	78.620690	0.000000	-1.000000	-1.000000	155036.000000	1773687867.367740
-5962.680000	17341.785000	29277.360000	-7753.230000	-32409.315000	8451.630000	-19949.355000	-30664.080000	-4.539137	-8.891436	-10.090241	-11.320604	-11.557735	-10.671686	-2.611537	4.767275	-2.685760	3.021480	-1.526000	0.745359	0.579649	0.275512	-1.000000	-1.000000	-1.000000	-1.000000	-1.000000	-1.000000	-1.000000	78.620690	0.000000	-1.000000	-1.000000	155037.000000	1773687867.367745
-5953.005000	17346.105000	29283.795000	-7744.950000	-32398.020000	8457.480000	-19943.865000	-30616.785000	-9.472754	-15.216779	-16.525450	-18.133630	-16.992293	-19.331427	-9.508093	-0.502399	-2.685760	3.021480	-1.526000	0.745359	0.579649	0.275512	-1.000000	-1.000000	-1.000000	-1.000000	-1.000000	-1.000000	-1.000000	78.620690	0.000000	-1.000000	-1.000000	155038.000000	1773687867.367750
-5942.880000	17353.080000	29288.025000	-7739.595000	-32392.845000	8459.955000	-19944.090000	-30614.940000	-10.006564	-14.884725	-15.672638	-16.912923	-15.253798	-20.032389	-12.815176	-2.957750	-2.685760	3.021480	-1.526000	0.745359	0.579649	0.275512	-1.000000	-1.000000	-1.000000	-1.000000	-1.000000	-1.000000	-1.000000	78.620690	0.000000	-1.000000	-1.000000	155039.000000	1773687867.367755
-5936.715000	17359.065000	29291.580000	-7740.135000	-32399.865000	8458.920000	-19943.505000	-30658.095000	-5.165518	-7.635502	-7.573309	-8.209649	-7.357867	-12.379911	-11.233880	-1.705357	-2.685760	3.021480	-1.526000	0.745359	0.579649	0.275512	-1.000000	-1.000000	-1.000000	-1.000000	-1.000000	-1.000000	-1.000000	78.620690	0.000000	-1.000000	-1.000000	155040.000000	1773687867.367759
-5941.620000	17349.255000	29279.430000	-7755.750000	-32415.705000	8454.735000	-19934.910000	-30654.720000	2.258031	2.506809	3.267859	2.922667	2.228099	-0.571848	-6.189820	-0.664683	-3.006220	3.357200	-1.495480	0.743528	0.579405	0.275878	-1.000000	-1.000000	-1.000000	-1.000000	-1.000000	-1.000000	-1.000000	78.620690	0.000000	-1.000000	-1.000000	155041.000000	1773687867.367765
-5948.280000	17351.235000	29284.155000	-7750.890000	-32409.495000	8458.830000	-19936.800000	-30667.365000	7.646600	9.913826	10.971861	10.504037	8.675601	9.497744	-0.384327	-2.922202	-3.006220	3.357200	-1.495480	0.743528	0.579405	0.275878	-1.000000	-1.000000	-1.000000	-1.000000	-1.000000	-1.000000	-1.000000	78.620690	0.000000	-1.000000	-1.000000	155042.000000	1773687867.367769
-5935.230000	17372.115000	29306.295000	-7722.180000	-32388.660000	8480.925000	-19933.335000	-30674.790000	8.313827	11.748660	12.728905	12.234402	10.506997	14.348199	3.923306	-7.483290	-3.006220	3.357200	-1.495480	0.743528	0.579405	0.275878	-1.000000	-1.000000	-1.000000	-1.000000	-1.000000	-1.000000	-1.000000	78.620690	0.000000	-1.000000	-1.000000	155043.000000	1773687867.367774
-5931.180000	17379.225000	29310.930000	-7724.565000	-32406.930000	8477.820000	-19928.610000	-30687.840000	5.645269	9.815755	10.480196	10.627764	9.646604	14.610502	6.050854	-10.598675	-3.006220	3.357200	-1.495480	0.743528	0.579405	0.275878	-1.000000	-1.000000	-1.000000	-1.000000	-1.000000	-1.000000	-1.000000	78.620690	0.000000	-1.000000	-1.000000	155044.000000	1773687867.367779
-5927.040000	17386.110000	29320.695000	-7714.305000	-32374.125000	8490.420000	-19930.410000	-30708.765000	2.667936	7.109071	7.341513	8.560675	8.083916	12.326471	6.839008	-9.344848	-3.006220	3.357200	-1.495480	0.743528	0.579405	0.275878	-1.000000	-1.000000	-1.000000	-1.000000	-1.000000	-1.000000	-1.000000	78.620690	0.000000	-1.000000	-1.000000	155045.000000	1773687867.367786
-5923.845000	17395.785000	29335.995000	-7695.900000	-32347.530000	8514.855000	-19924.605000	-30708.765000	0.648694	4.501255	4.368364	6.280838	6.758101	8.587269	7.007279	-4.711597	-3.006220	3.357200	-1.495480	0.743528	0.579405	0.275878	-1.000000	-1.000000	-1.000000	-1.000000	-1.000000	-1.000000	-1.000000	78.620690	0.000000	-1.000000	-1.000000	155046.000000	1773687867.367790
-5931.180000	17365.185000	29299.680000	-7737.165000	-32391.000000	8485.605000	-19912.950000	-30562.605000	-1.122276	1.003481	0.721584	2.420719	4.846489	3.432732	6.211576	1.886714	-3.006220	3.357200	-1.495480	0.743528	0.579405	0.275878	-1.000000	-1.000000	-1.000000	-1.000000	-1.000000	-1.000000	-1.000000	78.620690	0.000000	-1.000000	-1.000000	155047.000000	1773687867.367796
-5932.845000	17351.685000	29281.860000	-7744.275000	-32386.770000	8465.805000	-19923.345000	-30565.620000	-3.611446	-4.693784	-5.069625	-4.339606	-0.174134	-3.864651	3.798043	12.184318	-3.006220	3.357200	-1.495480	0.743528	0.579405	0.275878	-1.000000	-1.000000	-1.000000	-1.000000	-1.000000	-1.000000	-1.000000	78.620690	0.000000	-1.000000	-1.000000	155048.000000	1773687867.367800
-5928.570000	17369.190000	29299.545000	-7725.375000	-32373.360000	8483.490000	-19912.635000	-30637.440000	-6.304390	-11.315866	-11.890471	-11.994934	-7.550974	-12.114192	-0.286134	23.266361	-3.006220	3.357200	-1.495480	0.743528	0.579405	0.275878	-1.000000	-1.000000	-1.000000	-1.000000	-1.000000	-1.000000	-1.000000	78.620690	0.000000	-1.000000	-1.000000	155049.000000	1773687867.367806
-5931.990000	17371.935000	29304.855000	-7717.275000	-32368.545000	8481.060000	-19904.850000	-30642.570000	-7.279043	-14.346712	-14.976650	-15.041195	-12.180899	-16.895491	-4.791364	24.653366	-3.006220	3.357200	-1.495480	0.743528	0.579405	0.275878	-1.000000	-1.000000	-1.000000	-1.000000	-1.000000	-1.000000	-1.000000	78.620690	0.000000	-1.000000	-1.000000	155050.000000	1773687867.367811
-5936.895000	17364.330000	29292.930000	-7737.840000	-32389.380000	8465.445000	-19918.530000	-30627.135000	-5.453604	-11.054881	-11.428122	-11.054168	-11.271998	-15.316028	-7.800954	11.698978	-2.701020	4.104940	-2.350040	0.744139	0.581175	0.276244	-1.000000	-1.000000	-1.000000	-1.000000	-1.000000	-1.000000	-1.000000	78.620690	0.000000	-1.000000	-1.000000	155051.000000	1773687867.368805
-5926.995000	17373.870000	29301.840000	-7731.315000	-32379.030000	8480.430000	-19940.310000	-30633.165000	-1.698429	-3.630774	-3.734704	-3.654532	-6.904913	-8.882217	-8.720676	-7.466952	-2.701020	4.104940	-2.350040	0.744139	0.581175	0.276244	-1.000000	-1.000000	-1.000000	-1.000000	-1.000000	-1.000000	-1.000000	78.620690	0.000000	-1.000000	-1.000000	155052.000000	1773687867.368816
-5933.115000	17365.635000	29297.835000	-7735.230000	-32392.170000	8472.600000	-19946.565000	-30645.090000	2.292229	3.768235	3.781362	2.667697	-1.933322	-0.579186	-8.139026	-21.204297	-2.701020	4.104940	-2.350040	0.744139	0.581175	0.276244	-1.000000	-1.000000	-1.000000	-1.000000	-1.000000	-1.000000	-1.000000	78.620690	0.000000	-1.000000	-1.000000	155053.000000	1773687867.368867
-5947.245000	17352.045000	29286.630000	-7748.865000	-32414.490000	8456.175000	-19943.865000	-30660.345000	4.726688	7.885486	8.071465	5.847985	1.348718	6.410403	-5.936044	-23.905135	-2.701020	4.104940	-2.350040	0.744139	0.581175	0.276244	-1.000000	-1.000000	-1.000000	-1.000000	-1.000000	-1.000000	-1.000000	78.620690	0.000000	-1.000000	-1.000000	155054.000000	1773687867.368872
-5940.540000	17365.500000	29301.930000	-7732.665000	-32395.590000	8468.460000	-19936.575000	-30663.855000	4.479947	7.736224	8.209784	5.774842	1.518359	9.220037	-1.668802	-18.276207	-2.701020	4.104940	-2.350040	0.744139	0.581175	0.276244	-1.000000	-1.000000	-1.000000	-1.000000	-1.000000	-1.000000	-1.000000	78.620690	0.000000	-1.000000	-1.000000	155055.000000	1773687867.368879
-5934.330000	17377.425000	29314.350000	-7718.175000	-32376.465000	8482.860000	-19927.035000	-30661.245000	2.518479	5.722968	6.519285	4.888168	1.083818	8.558891	3.865083	-11.672094	-2.701020	4.104940	-2.350040	0.744139	0.581175	0.276244	-1.000000	-1.000000	-1.000000	-1.000000	-1.000000	-1.000000	-1.000000	78.620690	0.000000	-1.000000	-1.000000	155056.000000	1773687867.368884
-5919.885000	17389.665000	29325.060000	-7703.415000	-32359.590000	8502.165000	-19913.355000	-30630.285000	1.115658	5.010742	6.128358	5.957141	3.909441	7.940073	8.941812	-6.745988	-2.701020	4.104940	-2.350040	0.744139	0.581175	0.276244	-1.000000	-1.000000	-1.000000	-1.000000	-1.000000	-1.000000	-1.000000	78.620690	0.000000	-1.000000	-1.000000	155057.000000	1773687867.368890
-5928.210000	17370.180000	29302.695000	-7726.680000	-32380.020000	8484.570000	-19919.745000	-30615.255000	1.288613	5.230938	6.381166	7.672967	8.860736	8.173549	11.510118	1.614394	-2.701020	4.104940	-2.350040	0.744139	0.581175	0.276244	-1.000000	-1.000000	-1.000000	-1.000000	-1.000000	-1.000000	-1.000000	78.620690	0.000000	-1.000000	-1.000000	155058.000000	1773687867.368895
-5941.890000	17354.745000	29284.785000	-7747.515000	-32399.640000	8467.110000	-19929.060000	-30652.380000	1.837199	3.221111	3.697015	5.828537	10.617710	6.326289	9.683498	14.818189	-2.701020	4.104940	-2.350040	0.744139	0.581175	0.276244	-1.000000	-1.000000	-1.000000	-1.000000	-1.000000	-1.000000	-1.000000	78.620690	0.000000	-1.000000	-1.000000	155059.000000	1773687867.369091
-5932.170000	17376.930000	29308.545000	-7725.105000	-32381.055000	8481.600000	-19928.205000	-30677.085000	1.128211	-1.907799	-2.661571	-0.568780	6.451222	0.781229	3.899380	24.194063	-2.701020	4.104940	-2.350040	0.744139	0.581175	0.276244	-1.000000	-1.000000	-1.000000	-1.000000	-1.000000	-1.000000	-1.000000	78.620690	0.000000	-1.000000	-1.000000	155060.000000	1773687867.369101
-5930.460000	17384.130000	29320.200000	-7706.205000	-32356.755000	8504.460000	-19906.965000	-30639.330000	-0.753201	-6.823492	-8.507870	-6.977645	-0.303247	-5.566727	-2.072040	22.246170	-2.029580	3.479280	-2.380560	0.743956	0.581297	0.276000	-1.000000	-1.000000	-1.000000	-1.000000	-1.000000	-1.000000	-1.000000	78.620690	0.000000	-1.000000	-1.000000	155061.000000	1773687867.443347
-5929.470000	17373.780000	29309.895000	-7717.815000	-32367.780000	8494.470000	-19912.365000	-30640.185000	-2.303748	-7.968534	-9.633468	-8.589655	-4.466468	-8.456789	-4.424322	12.067828	-2.029580	3.479280	-2.380560	0.743956	0.581297	0.276000	-1.000000	-1.000000	-1.000000	-1.000000	-1.000000	-1.000000	-1.000000	78.620690	0.000000	-1.000000	-1.000000	155062.000000	1773687867.443360
-5945.130000	17362.260000	29299.905000	-7732.845000	-32387.040000	8478.585000	-19925.055000	-30676.950000	-2.554859	-5.418143	-6.350479	-5.705273	-5.008515	-7.162670	-3.455235	0.738400	-2.029580	3.479280	-2.380560	0.743956	0.581297	0.276000	-1.000000	-1.000000	-1.000000	-1.000000	-1.000000	-1.000000	-1.000000	78.620690	0.000000	-1.000000	-1.000000	155063.000000	1773687867.443373
-5956.245000	17353.215000	29286.540000	-7748.370000	-32404.680000	8462.790000	-19944.270000	-30650.130000	-2.235812	-2.018847	-2.178361	-2.348371	-4.936371	-4.688217	-2.825975	-8.792898	-2.029580	3.479280	-2.380560	0.743956	0.581297	0.276000	-1.000000	-1.000000	-1.000000	-1.000000	-1.000000	-1.000000	-1.000000	78.620690	0.000000	-1.000000	-1.000000	155064.000000	1773687867.443378
-5918.850000	17382.645000	29310.525000	-7726.230000	-32385.915000	8477.145000	-19943.145000	-30605.490000	-2.096465	0.186155	0.367029	-1.168608	-6.304749	-3.539211	-4.828403	-14.721624	-2.029580	3.479280	-2.380560	0.743956	0.581297	0.276000	-1.000000	-1.000000	-1.000000	-1.000000	-1.000000	-1.000000	-1.000000	78.620690	0.000000	-1.000000	-1.000000	155065.000000	1773687867.443384
-5916.645000	17392.140000	29322.765000	-7712.955000	-32376.375000	8489.160000	-19905.570000	-30646.215000	-1.110578	1.791620	1.883237	-0.990589	-7.365804	-3.009858	-7.364860	-14.440133	-2.029580	3.479280	-2.380560	0.743956	0.581297	0.276000	-1.000000	-1.000000	-1.000000	-1.000000	-1.000000	-1.000000	-1.000000	78.620690	0.000000	-1.000000	-1.000000	155066.000000	1773687867.443389
-5918.130000	17392.095000	29323.845000	-7709.850000	-32368.860000	8497.665000	-19889.280000	-30637.215000	1.497557	4.050034	4.119515	0.892212	-4.859711	-0.713737	-5.967966	-9.008140	-2.029580	3.479280	-2.380560	0.743956	0.581297	0.276000	-1.000000	-1.000000	-1.000000	-1.000000	-1.000000	-1.000000	-1.000000	78.620690	0.000000	-1.000000	-1.000000	155067.000000	1773687867.443394
-5926.230000	17380.665000	29316.735000	-7719.210000	-32380.020000	8490.555000	-19900.620000	-30631.590000	4.293059	6.198369	6.774335	4.771427	1.614575	3.978290	0.646692	-1.738554	-2.029580	3.479280	-2.380560	0.743956	0.581297	0.276000	-1.000000	-1.000000	-1.000000	-1.000000	-1.000000	-1.000000	-1.000000	78.620690	0.000000	-1.000000	-1.000000	155068.000000	1773687867.443399
-5933.115000	17367.795000	29303.460000	-7725.330000	-32379.345000	8481.105000	-19921.545000	-30641.085000	4.805423	5.523451	6.945890	7.337020	7.980428	7.996515	7.917834	5.129940	-2.029580	3.479280	-2.380560	0.743956	0.581297	0.276000	-1.000000	-1.000000	-1.000000	-1.000000	-1.000000	-1.000000	-1.000000	78.620690	0.000000	-1.000000	-1.000000	155069.000000	1773687867.443404
-5921.055000	17375.445000	29307.060000	-7724.475000	-32380.605000	8490.015000	-19930.185000	-30634.740000	2.134936	0.833789	2.608618	5.332546	9.494795	7.545579	9.733477	8.834658	-2.029580	3.479280	-2.380560	0.743956	0.581297	0.276000	-1.000000	-1.000000	-1.000000	-1.000000	-1.000000	-1.000000	-1.000000	78.620690	0.000000	-1.000000	-1.000000	155070.000000	1773687867.443408
-5924.745000	17380.710000	29312.865000	-7720.245000	-32376.375000	8489.250000	-19935.855000	-30647.070000	-1.656572	-4.712746	-3.756603	-0.031421	5.860585	3.049837	4.750415	7.559817	-2.502640	4.471180	-2.060100	0.745604	0.581236	0.276855	-1.000000	-1.000000	-1.000000	-1.000000	-1.000000	-1.000000	-1.000000	78.620690	0.000000	-1.000000	-1.000000	155071.000000	1773687867.443414
-5911.155000	17402.805000	29334.690000	-7701.480000	-32363.955000	8499.060000	-19922.715000	-30652.740000	-3.467630	-6.320417	-6.986535	-4.030129	1.113492	-1.377005	-2.476887	2.840115	-2.502640	4.471180	-2.060100	0.745604	0.581236	0.276855	-1.000000	-1.000000	-1.000000	-1.000000	-1.000000	-1.000000	-1.000000	78.620690	0.000000	-1.000000	-1.000000	155072.000000	1773687867.443419
-5901.165000	17411.535000	29344.185000	-7694.100000	-32361.795000	8500.005000	-19907.010000	-30634.290000	-2.120644	-2.548630	-4.436395	-3.445569	-1.095129	-2.666988	-5.932646	-2.754312	-2.502640	4.471180	-2.060100	0.745604	0.581236	0.276855	-1.000000	-1.000000	-1.000000	-1.000000	-1.000000	-1.000000	-1.000000	78.620690	0.000000	-1.000000	-1.000000	155073.000000	1773687867.443424
-5910.390000	17401.815000	29332.845000	-7702.380000	-32357.115000	8506.485000	-19893.015000	-30623.040000	0.321937	2.925458	1.122918	-0.003596	-0.986785	-1.438174	-3.497363	-6.943043	-2.502640	4.471180	-2.060100	0.745604	0.581236	0.276855	-1.000000	-1.000000	-1.000000	-1.000000	-1.000000	-1.000000	-1.000000	78.620690	0.000000	-1.000000	-1.000000	155074.000000	1773687867.443428
-5915.700000	17395.785000	29324.925000	-7707.105000	-32362.245000	8505.270000	-19897.830000	-30612.195000	0.673282	4.816402	4.163076	1.793154	-1.073850	-0.352874	1.357359	-7.028847	-2.502640	4.471180	-2.060100	0.745604	0.581236	0.276855	-1.000000	-1.000000	-1.000000	-1.000000	-1.000000	-1.000000	-1.000000	78.620690	0.000000	-1.000000	-1.000000	155075.000000	1773687867.443434
-5912.730000	17393.760000	29321.100000	-7709.535000	-32366.790000	8500.320000	-19907.460000	-30620.475000	-1.351962	1.808724	2.304514	0.107672	-2.470735	-0.850445	3.510860	-2.220201	-2.502640	4.471180	-2.060100	0.745604	0.581236	0.276855	-1.000000	-1.000000	-1.000000	-1.000000	-1.000000	-1.000000	-1.000000	78.620690	0.000000	-1.000000	-1.000000	155076.000000	1773687867.443438
-5921.505000	17386.425000	29317.230000	-7717.275000	-32376.555000	8482.545000	-19924.605000	-30640.995000	-3.249452	-2.938701	-2.066395	-3.039360	-4.274290	-2.488340	1.384739	3.996323	-2.502640	4.471180	-2.060100	0.745604	0.581236	0.276855	-1.000000	-1.000000	-1.000000	-1.000000	-1.000000	-1.000000	-1.000000	78.620690	0.000000	-1.000000	-1.000000	155077.000000	1773687867.443443
-5927.355000	17378.865000	29312.010000	-7719.165000	-32375.790000	8486.415000	-19926.720000	-30645.225000	-3.347729	-5.920432	-5.302879	-5.049816	-5.280970	-4.214436	-2.534136	6.675657	-2.502640	4.471180	-2.060100	0.745604	0.581236	0.276855	-1.000000	-1.000000	-1.000000	-1.000000	-1.000000	-1.000000	-1.000000	78.620690	0.000000	-1.000000	-1.000000	155078.000000	1773687867.443448
-5917.095000	17383.320000	29314.755000	-7716.510000	-32372.100000	8492.490000	-19921.275000	-30634.470000	-1.878286	-5.765760	-5.440494	-4.672096	-4.657168	-4.691762	-4.692938	4.377483	-2.502640	4.471180	-2.060100	0.745604	0.581236	0.276855	-1.000000	-1.000000	-1.000000	-1.000000	-1.000000	-1.000000	-1.000000	78.620690	0.000000	-1.000000	-1.000000	155079.000000	1773687867.443454
-5918.895000	17387.865000	29317.860000	-7711.965000	-32364.360000	8508.240000	-19913.130000	-30682.035000	0.480589	-2.934238	-2.719337	-1.968323	-1.977704	-2.611980	-3.191670	-0.363883	-2.502640	4.471180	-2.060100	0.745604	0.581236	0.276855	-1.000000	-1.000000	-1.000000	-1.000000	-1.000000	-1.000000	-1.000000	78.620690	0.000000	-1.000000	-1.000000	155080.000000	1773687867.443458
-5899.905000	17415.135000	29347.740000	-7680.870000	-32335.515000	8531.820000	-19904.985000	-30680.640000	3.033514	1.237666	1.379431	2.074894	2.362526	2.139107	0.996922	-5.045593	-2.105880	3.616620	-2.548420	0.746214	0.579405	0.278259	-1.000000	-1.000000	-1.000000	-1.000000	-1.000000	-1.000000	-1.000000	78.620690	0.000000	-1.000000	-1.000000	155081.000000	1773687867.444271
-5897.430000	17415.855000	29347.830000	-7682.310000	-32340.420000	8520.255000	-19896.480000	-30602.745000	4.782481	5.191328	5.298042	6.024361	6.811791	7.419789	4.876016	-7.442286	-2.105880	3.616620	-2.548420	0.746214	0.579405	0.278259	-1.000000	-1.000000	-1.000000	-1.000000	-1.000000	-1.000000	-1.000000	78.620690	0.000000	-1.000000	-1.000000	155082.000000	1773687867.444282
-5916.645000	17401.500000	29334.735000	-7696.305000	-32355.990000	8512.335000	-19882.215000	-30614.580000	4.651262	7.166459	7.363579	7.864341	8.562299	9.334636	5.878289	-4.480198	-2.105880	3.616620	-2.548420	0.746214	0.579405	0.278259	-1.000000	-1.000000	-1.000000	-1.000000	-1.000000	-1.000000	-1.000000	78.620690	0.000000	-1.000000	-1.000000	155083.000000	1773687867.664776
-5906.700000	17407.305000	29339.460000	-7693.875000	-32353.110000	8522.955000	-19891.080000	-30671.145000	2.377128	5.998529	6.330224	6.037829	5.725417	5.899493	3.706016	2.295283	-2.105880	3.616620	-2.548420	0.746214	0.579405	0.278259	-1.000000	-1.000000	-1.000000	-1.000000	-1.000000	-1.000000	-1.000000	78.620690	0.000000	-1.000000	-1.000000	155084.000000	1773687867.664790
-5898.465000	17401.770000	29332.215000	-7698.915000	-32350.410000	8516.790000	-19891.080000	-30618.765000	-0.516433	2.500823	2.773579	1.441459	0.102789	-0.340462	0.133420	6.972091	-2.105880	3.616620	-2.548420	0.746214	0.579405	0.278259	-1.000000	-1.000000	-1.000000	-1.000000	-1.000000	-1.000000	-1.000000	78.620690	0.000000	-1.000000	-1.000000	155085.000000	1773687867.664803
