Channel1	Channel2	Channel3	Channel4	Channel5	Channel6	Channel7	Channel8	FilteredChannel1	FilteredChannel2	FilteredChannel3	FilteredChannel4	FilteredChannel5	FilteredChannel6	FilteredChannel7	FilteredChannel8	GyroX	GyroY	GyroZ	AccX	AccY	AccZ	PPG1	PPG2	rawPPG1	rawPPG2	rawPPG3	Hr	Hrv	Battery	Trigger	PhysicalTrigger	AutoTrigger	NumMeasurements	Timestamp
-44732.205000	-152849.925000	18498.510000	355.050000	2779.335000	7435.125000	3712.410000	6421.635000	-0.391707	1.040859	1.309268	2.948685	2.998611	3.659246	1.178295	-3.791594	-1.449700	5.615680	-1.236060	0.860899	0.118286	0.464720	-1.000000	-1.000000	-1.000000	-1.000000	-1.000000	-1.000000	-1.000000	79.655172	0.000000	-1.000000	-1.000000	779363.000000	1772659446.705082
-44716.455000	-152835.930000	18512.055000	369.855000	2795.535000	7451.685000	3719.565000	6438.330000	3.428145	6.827717	6.327314	6.714826	5.452682	6.542878	5.840531	1.108877	-1.449700	5.615680	-1.236060	0.860899	0.118286	0.464720	-1.000000	-1.000000	-1.000000	-1.000000	-1.000000	-1.000000	-1.000000	79.655172	0.000000	-1.000000	-1.000000	779364.000000	1772659446.705092
-44676.540000	-152795.700000	18553.230000	411.300000	2836.125000	7490.385000	3750.345000	6489.405000	5.410607	9.585832	8.914241	8.399043	7.147660	7.918696	8.763839	5.844466	-1.449700	5.615680	-1.236060	0.860899	0.118286	0.464720	-1.000000	-1.000000	-1.000000	-1.000000	-1.000000	-1.000000	-1.000000	79.655172	0.000000	-1.000000	-1.000000	779365.000000	1772659446.709036
-44729.640000	-152846.685000	18503.235000	364.545000	2795.130000	7455.780000	3737.700000	6435.180000	5.098133	7.930896	7.409557	6.741416	6.912866	7.497678	10.075845	9.410787	-1.449700	5.615680	-1.236060	0.860899	0.118286	0.464720	-1.000000	-1.000000	-1.000000	-1.000000	-1.000000	-1.000000	-1.000000	79.655172	0.000000	-1.000000	-1.000000	779366.000000	1772659446.709042
-44772.615000	-152898.120000	18446.985000	306.540000	2738.205000	7404.030000	3708.270000	6392.745000	-0.215576	-0.026754	-0.401043	-0.598940	1.571765	2.850741	8.076647	6.856496	-1.449700	5.615680	-1.236060	0.860899	0.118286	0.464720	-1.000000	-1.000000	-1.000000	-1.000000	-1.000000	-1.000000	-1.000000	79.655172	0.000000	-1.000000	-1.000000	779367.000000	1772659446.713236
-44746.695000	-152869.005000	18476.820000	336.825000	2767.950000	7431.390000	3719.250000	6406.965000	-10.505446	-12.979827	-13.509091	-13.073834	-9.508670	-6.877821	1.637334	-3.476074	-1.449700	5.615680	-1.236060	0.860899	0.118286	0.464720	-1.000000	-1.000000	-1.000000	-1.000000	-1.000000	-1.000000	-1.000000	79.655172	0.000000	-1.000000	-1.000000	779368.000000	1772659446.713245
-44740.215000	-152856.945000	18493.020000	353.655000	2785.635000	7448.625000	3731.760000	6416.415000	-17.498143	-21.654155	-22.570609	-21.836243	-18.420678	-15.155524	-5.467206	-12.782065	-1.449700	5.615680	-1.236060	0.860899	0.118286	0.464720	-1.000000	-1.000000	-1.000000	-1.000000	-1.000000	-1.000000	-1.000000	79.655172	0.000000	-1.000000	-1.000000	779369.000000	1772659446.721608
-44735.400000	-152853.210000	18499.410000	361.890000	2794.995000	7449.705000	3731.355000	6435.810000	-13.590766	-17.451412	-18.345167	-17.764728	-15.973914	-14.178325	-8.095512	-11.979621	-1.449700	5.615680	-1.236060	0.860899	0.118286	0.464720	-1.000000	-1.000000	-1.000000	-1.000000	-1.000000	-1.000000	-1.000000	79.655172	0.000000	-1.000000	-1.000000	779370.000000	1772659446.721617
-44696.250000	-152824.320000	18526.995000	387.945000	2808.405000	7461.495000	3735.090000	6484.590000	-0.711566	-2.353232	-2.437699	-2.236147	-2.740535	-4.393415	-5.775339	-1.796175	-4.165980	5.920880	-1.159760	0.861631	0.120666	0.462462	-1.000000	-1.000000	-1.000000	-1.000000	-1.000000	-1.000000	-1.000000	79.655172	0.000000	-1.000000	-1.000000	779371.000000	1772659446.721626
-44712.990000	-152835.030000	18516.645000	378.090000	2798.460000	7456.005000	3728.025000	6452.190000	12.988397	13.885835	14.879606	14.667189	11.852451	6.813795	-1.982013	10.037317	-4.165980	5.920880	-1.159760	0.861631	0.120666	0.462462	-1.000000	-1.000000	-1.000000	-1.000000	-1.000000	-1.000000	-1.000000	79.655172	0.000000	-1.000000	-1.000000	779372.000000	1772659446.721630
-44756.505000	-152870.085000	18483.210000	346.230000	2772.720000	7434.495000	3714.030000	6397.605000	18.414639	20.870190	22.439696	21.869494	17.530205	11.643696	-0.347910	13.771335	-4.165980	5.920880	-1.159760	0.861631	0.120666	0.462462	-1.000000	-1.000000	-1.000000	-1.000000	-1.000000	-1.000000	-1.000000	79.655172	0.000000	-1.000000	-1.000000	779373.000000	1772659446.727212
-44729.370000	-152855.775000	18491.940000	353.205000	2780.820000	7441.065000	3725.145000	6435.945000	11.469174	14.226766	15.499067	14.710100	10.653341	7.170504	-1.957651	5.089708	-4.165980	5.920880	-1.159760	0.861631	0.120666	0.462462	-1.000000	-1.000000	-1.000000	-1.000000	-1.000000	-1.000000	-1.000000	79.655172	0.000000	-1.000000	-1.000000	779374.000000	1772659446.727220
-44742.420000	-152870.040000	18480.060000	343.980000	2773.350000	7435.125000	3725.280000	6426.945000	-1.591005	0.134529	0.369717	-0.456303	-2.390512	-1.852513	-4.227079	-8.333639	-4.165980	5.920880	-1.159760	0.861631	0.120666	0.462462	-1.000000	-1.000000	-1.000000	-1.000000	-1.000000	-1.000000	-1.000000	79.655172	0.000000	-1.000000	-1.000000	779375.000000	1772659446.731980
-44743.005000	-152864.955000	18485.325000	348.165000	2773.890000	7436.250000	3735.135000	6422.130000	-10.230073	-10.312009	-11.176103	-11.787864	-11.027350	-7.281557	-3.308875	-14.555758	-4.165980	5.920880	-1.159760	0.861631	0.120666	0.462462	-1.000000	-1.000000	-1.000000	-1.000000	-1.000000	-1.000000	-1.000000	79.655172	0.000000	-1.000000	-1.000000	779376.000000	1772659446.731988
-44737.155000	-152855.820000	18491.310000	351.630000	2772.135000	7435.935000	3723.165000	6413.535000	-10.052256	-11.473469	-12.855646	-13.049087	-10.562885	-5.803549	1.409301	-9.782131	-4.165980	5.920880	-1.159760	0.861631	0.120666	0.462462	-1.000000	-1.000000	-1.000000	-1.000000	-1.000000	-1.000000	-1.000000	79.655172	0.000000	-1.000000	-1.000000	779377.000000	1772659446.735687
-44728.335000	-152848.935000	18497.520000	357.165000	2776.680000	7438.455000	3715.200000	6416.235000	-3.802850	-5.431839	-6.786582	-6.656777	-4.182712	-0.531793	6.216919	0.556632	-4.165980	5.920880	-1.159760	0.861631	0.120666	0.462462	-1.000000	-1.000000	-1.000000	-1.000000	-1.000000	-1.000000	-1.000000	79.655172	0.000000	-1.000000	-1.000000	779378.000000	1772659446.735698
-44733.915000	-152856.045000	18493.380000	356.580000	2780.685000	7442.460000	3719.430000	6417.765000	3.043601	2.130495	1.099102	1.322348	2.634057	4.018079	7.235959	8.352505	-4.165980	5.920880	-1.159760	0.861631	0.120666	0.462462	-1.000000	-1.000000	-1.000000	-1.000000	-1.000000	-1.000000	-1.000000	79.655172	0.000000	-1.000000	-1.000000	779379.000000	1772659446.737211
-44736.255000	-152863.695000	18482.805000	345.015000	2773.170000	7434.450000	3718.395000	6425.325000	5.702790	5.841641	5.422379	5.732875	6.215124	5.381914	4.270823	9.010452	-4.165980	5.920880	-1.159760	0.861631	0.120666	0.462462	-1.000000	-1.000000	-1.000000	-1.000000	-1.000000	-1.000000	-1.000000	79.655172	0.000000	-1.000000	-1.000000	779380.000000	1772659446.737219
-44736.435000	-152859.780000	18488.385000	351.630000	2779.785000	7434.540000	3711.420000	6421.545000	3.340730	4.116666	4.496286	5.009849	5.765127	3.447678	-0.113536	4.415410	-4.440660	4.990020	-1.373400	0.860227	0.121399	0.462584	-1.000000	-1.000000	-1.000000	-1.000000	-1.000000	-1.000000	-1.000000	79.655172	0.000000	-1.000000	-1.000000	779381.000000	1772659446.741430
-44739.270000	-152858.205000	18491.355000	357.570000	2787.840000	7444.620000	3720.240000	6419.970000	-0.612949	0.035338	1.125586	1.819147	3.186536	0.161718	-3.297480	-0.040412	-4.440660	4.990020	-1.373400	0.860227	0.121399	0.462584	-1.000000	-1.000000	-1.000000	-1.000000	-1.000000	-1.000000	-1.000000	79.655172	0.000000	-1.000000	-1.000000	779382.000000	1772659446.741438
-44734.815000	-152859.240000	18487.305000	350.955000	2772.315000	7443.045000	3737.250000	6435.720000	-2.745677	-2.498509	-0.992498	-0.293295	0.777867	-1.904370	-3.776565	-1.428839	-4.440660	4.990020	-1.373400	0.860227	0.121399	0.462584	-1.000000	-1.000000	-1.000000	-1.000000	-1.000000	-1.000000	-1.000000	79.655172	0.000000	-1.000000	-1.000000	779383.000000	1772659446.745191
-44730.315000	-152852.715000	18493.695000	354.915000	2773.485000	7440.480000	3736.035000	6437.610000	-2.012199	-1.887886	-0.449396	-0.074286	-0.640270	-1.592882	-1.495025	-0.150812	-4.440660	4.990020	-1.373400	0.860227	0.121399	0.462584	-1.000000	-1.000000	-1.000000	-1.000000	-1.000000	-1.000000	-1.000000	79.655172	0.000000	-1.000000	-1.000000	779384.000000	1772659446.745195
-44726.355000	-152847.945000	18500.895000	363.060000	2785.005000	7445.205000	3734.370000	6438.375000	0.872348	1.005030	1.861177	1.594600	-1.013133	0.250405	1.820005	2.413406	-4.440660	4.990020	-1.373400	0.860227	0.121399	0.462584	-1.000000	-1.000000	-1.000000	-1.000000	-1.000000	-1.000000	-1.000000	79.655172	0.000000	-1.000000	-1.000000	779385.000000	1772659446.754287
-44721.135000	-152843.310000	18507.195000	368.730000	2797.695000	7452.675000	3738.105000	6443.640000	3.721566	3.591251	3.725500	2.909246	-0.387754	1.855666	3.835071	4.377196	-4.440660	4.990020	-1.373400	0.860227	0.121399	0.462584	-1.000000	-1.000000	-1.000000	-1.000000	-1.000000	-1.000000	-1.000000	79.655172	0.000000	-1.000000	-1.000000	779386.000000	1772659446.754297
-44715.330000	-152834.805000	18516.420000	375.930000	2808.000000	7458.615000	3737.970000	6445.035000	4.337370	3.778503	3.465440	2.545625	0.795679	2.113867	3.574186	3.867672	-4.440660	4.990020	-1.373400	0.860227	0.121399	0.462584	-1.000000	-1.000000	-1.000000	-1.000000	-1.000000	-1.000000	-1.000000	79.655172	0.000000	-1.000000	-1.000000	779387.000000	1772659446.754306
-44720.505000	-152835.885000	18518.310000	380.745000	2801.925000	7456.455000	3724.920000	6429.870000	2.190319	1.680416	1.253761	0.605524	1.493794	0.983961	1.254211	-0.003821	-4.440660	4.990020	-1.373400	0.860227	0.121399	0.462584	-1.000000	-1.000000	-1.000000	-1.000000	-1.000000	-1.000000	-1.000000	79.655172	0.000000	-1.000000	-1.000000	779388.000000	1772659446.754311
-44718.075000	-152834.895000	18517.995000	382.365000	2798.730000	7458.525000	3729.915000	6436.530000	-1.532616	-1.222498	-1.566089	-1.719639	0.632537	-0.913201	-2.281660	-6.039789	-4.440660	4.990020	-1.373400	0.860227	0.121399	0.462584	-1.000000	-1.000000	-1.000000	-1.000000	-1.000000	-1.000000	-1.000000	79.655172	0.000000	-1.000000	-1.000000	779389.000000	1772659446.757634
-44720.235000	-152833.815000	18516.645000	382.185000	2812.635000	7463.565000	3738.240000	6444.315000	-4.605191	-3.425936	-3.738236	-3.285633	-1.597369	-2.546562	-5.029844	-10.306193	-4.440660	4.990020	-1.373400	0.860227	0.121399	0.462584	-1.000000	-1.000000	-1.000000	-1.000000	-1.000000	-1.000000	-1.000000	79.655172	0.000000	-1.000000	-1.000000	779390.000000	1772659446.757644
-44742.150000	-152857.440000	18496.170000	362.070000	2793.330000	7452.630000	3732.570000	6431.535000	-5.637690	-4.444316	-4.957509	-4.058164	-3.831114	-3.314307	-5.316797	-9.566109	-2.289000	4.089680	-2.350040	0.860227	0.118896	0.462462	-1.000000	-1.000000	-1.000000	-1.000000	-1.000000	-1.000000	-1.000000	79.655172	0.000000	-1.000000	-1.000000	779391.000000	1772659446.761105
-44755.020000	-152880.840000	18467.010000	332.010000	2759.805000	7426.305000	3718.890000	6410.880000	-5.309313	-5.074526	-5.841458	-4.893526	-5.288206	-3.677696	-3.909882	-5.217382	-2.289000	4.089680	-2.350040	0.860227	0.118896	0.462462	-1.000000	-1.000000	-1.000000	-1.000000	-1.000000	-1.000000	-1.000000	79.655172	0.000000	-1.000000	-1.000000	779392.000000	1772659446.761115
-44732.115000	-152855.280000	18493.020000	359.190000	2788.470000	7448.310000	3734.595000	6430.185000	-4.220718	-5.487617	-6.362372	-5.719771	-5.724441	-3.864173	-2.280693	-0.576761	-2.289000	4.089680	-2.350040	0.860227	0.118896	0.462462	-1.000000	-1.000000	-1.000000	-1.000000	-1.000000	-1.000000	-1.000000	79.655172	0.000000	-1.000000	-1.000000	779393.000000	1772659446.765100
-44725.230000	-152830.035000	18525.870000	395.505000	2826.630000	7478.730000	3746.205000	6426.135000	-1.511519	-3.827173	-4.559405	-4.311426	-3.727958	-2.438511	-0.117599	3.266036	-2.289000	4.089680	-2.350040	0.860227	0.118896	0.462462	-1.000000	-1.000000	-1.000000	-1.000000	-1.000000	-1.000000	-1.000000	79.655172	0.000000	-1.000000	-1.000000	779394.000000	1772659446.765108
-44711.100000	-152823.015000	18530.010000	395.370000	2821.095000	7475.805000	3743.055000	6434.505000	2.928933	1.182085	0.999729	0.970607	1.495162	1.634245	3.110844	6.258357	-2.289000	4.089680	-2.350040	0.860227	0.118896	0.462462	-1.000000	-1.000000	-1.000000	-1.000000	-1.000000	-1.000000	-1.000000	79.655172	0.000000	-1.000000	-1.000000	779395.000000	1772659446.785579
-44701.965000	-152827.515000	18521.190000	382.410000	2800.980000	7464.600000	3740.850000	6454.935000	7.295840	7.224700	7.703972	7.364864	6.825640	6.028397	6.006739	7.924327	-2.289000	4.089680	-2.350040	0.860227	0.118896	0.462462	-1.000000	-1.000000	-1.000000	-1.000000	-1.000000	-1.000000	-1.000000	79.655172	0.000000	-1.000000	-1.000000	779396.000000	1772659446.785592
-44707.770000	-152827.290000	18523.890000	387.405000	2805.660000	7466.310000	3740.580000	6454.170000	9.282166	10.182947	10.838249	9.932897	7.964185	7.116956	6.640121	8.140296	-2.289000	4.089680	-2.350040	0.860227	0.118896	0.462462	-1.000000	-1.000000	-1.000000	-1.000000	-1.000000	-1.000000	-1.000000	79.655172	0.000000	-1.000000	-1.000000	779397.000000	1772659446.785604
-44679.465000	-152795.655000	18551.340000	413.010000	2830.545000	7483.185000	3746.115000	6473.070000	7.918131	8.577778	8.889427	7.389134	4.818036	4.356067	4.602285	6.929479	-2.289000	4.089680	-2.350040	0.860227	0.118896	0.462462	-1.000000	-1.000000	-1.000000	-1.000000	-1.000000	-1.000000	-1.000000	79.655172	0.000000	-1.000000	-1.000000	779398.000000	1772659446.785609
-44670.150000	-152794.260000	18547.335000	409.905000	2830.860000	7486.380000	3757.500000	6495.345000	4.619056	4.636762	4.430738	2.771788	0.829394	0.366969	1.064017	4.555489	-2.289000	4.089680	-2.350040	0.860227	0.118896	0.462462	-1.000000	-1.000000	-1.000000	-1.000000	-1.000000	-1.000000	-1.000000	79.655172	0.000000	-1.000000	-1.000000	779399.000000	1772659446.785614
-44783.730000	-152906.940000	18436.725000	300.555000	2724.705000	7389.270000	3692.655000	6367.770000	0.129750	-0.256406	-0.886778	-2.002383	-2.485823	-3.355319	-2.939681	0.270546	-2.289000	4.089680	-2.350040	0.860227	0.118896	0.462462	-1.000000	-1.000000	-1.000000	-1.000000	-1.000000	-1.000000	-1.000000	79.655172	0.000000	-1.000000	-1.000000	779400.000000	1772659446.785618
-44774.415000	-152897.130000	18446.670000	307.305000	2726.910000	7390.305000	3696.930000	6385.365000	-7.288176	-7.442058	-8.022411	-8.009374	-6.690159	-7.812449	-7.356692	-7.874372	-0.244160	3.402980	-2.517900	0.860349	0.119629	0.463378	-1.000000	-1.000000	-1.000000	-1.000000	-1.000000	-1.000000	-1.000000	79.655172	0.000000	-1.000000	-1.000000	779401.000000	1772659446.785623
-44747.415000	-152868.465000	18478.305000	340.200000	2758.815000	7420.230000	3719.970000	6429.420000	-15.656445	-15.029810	-14.896248	-13.738736	-11.052863	-11.789166	-10.526654	-16.520807	-0.244160	3.402980	-2.517900	0.860349	0.119629	0.463378	-1.000000	-1.000000	-1.000000	-1.000000	-1.000000	-1.000000	-1.000000	79.655172	0.000000	-1.000000	-1.000000	779402.000000	1772659446.785626
-44750.745000	-152877.600000	18475.020000	339.840000	2762.685000	7426.080000	3724.650000	6436.530000	-18.169068	-17.161681	-16.051685	-14.288461	-11.428228	-11.072964	-9.063078	-17.237573	-0.244160	3.402980	-2.517900	0.860349	0.119629	0.463378	-1.000000	-1.000000	-1.000000	-1.000000	-1.000000	-1.000000	-1.000000	79.655172	0.000000	-1.000000	-1.000000	779403.000000	1772659446.785670
-44747.865000	-152871.030000	18484.740000	352.890000	2779.245000	7442.955000	3729.960000	6430.455000	-11.710789	-11.222623	-9.347763	-7.476358	-5.403495	-3.818523	-2.246195	-7.669906	-0.244160	3.402980	-2.517900	0.860349	0.119629	0.463378	-1.000000	-1.000000	-1.000000	-1.000000	-1.000000	-1.000000	-1.000000	79.655172	0.000000	-1.000000	-1.000000	779404.000000	1772659446.785677
-44733.330000	-152861.895000	18482.490000	344.745000	2769.030000	7437.870000	3735.135000	6443.550000	0.277383	0.150406	2.192445	3.905349	5.124602	7.170006	6.641415	5.533470	-0.244160	3.402980	-2.517900	0.860349	0.119629	0.463378	-1.000000	-1.000000	-1.000000	-1.000000	-1.000000	-1.000000	-1.000000	79.655172	0.000000	-1.000000	-1.000000	779405.000000	1772659446.790164
-44699.355000	-152832.465000	18506.790000	366.030000	2788.335000	7455.555000	3753.900000	6484.725000	12.435734	12.166790	13.220214	14.262107	14.907475	16.334783	13.208819	15.078732	-0.244160	3.402980	-2.517900	0.860349	0.119629	0.463378	-1.000000	-1.000000	-1.000000	-1.000000	-1.000000	-1.000000	-1.000000	79.655172	0.000000	-1.000000	-1.000000	779406.000000	1772659446.790186
-44693.865000	-152822.835000	18521.730000	381.555000	2802.465000	7456.770000	3742.875000	6478.335000	20.199570	19.887289	18.999942	18.682365	18.570980	18.731788	14.331026	17.875087	-0.244160	3.402980	-2.517900	0.860349	0.119629	0.463378	-1.000000	-1.000000	-1.000000	-1.000000	-1.000000	-1.000000	-1.000000	79.655172	0.000000	-1.000000	-1.000000	779407.000000	1772659446.793892
-44759.070000	-152870.445000	18482.130000	346.320000	2770.695000	7429.320000	3724.155000	6397.020000	20.112830	20.064235	17.821929	16.110679	14.740706	13.347609	9.174133	13.008716	-0.244160	3.402980	-2.517900	0.860349	0.119629	0.463378	-1.000000	-1.000000	-1.000000	-1.000000	-1.000000	-1.000000	-1.000000	79.655172	0.000000	-1.000000	-1.000000	779408.000000	1772659446.793899
-44758.440000	-152867.430000	18487.485000	353.160000	2777.940000	7437.960000	3724.875000	6400.620000	12.278280	13.585166	11.844872	9.688817	7.126890	4.275418	0.568184	2.509867	-0.244160	3.402980	-2.517900	0.860349	0.119629	0.463378	-1.000000	-1.000000	-1.000000	-1.000000	-1.000000	-1.000000	-1.000000	79.655172	0.000000	-1.000000	-1.000000	779409.000000	1772659446.797138
-44754.795000	-152863.650000	18491.355000	356.355000	2779.335000	7435.935000	3705.525000	6394.995000	1.077283	4.228148	4.340132	2.991034	0.196541	-3.178700	-6.924989	-7.875405	-0.244160	3.402980	-2.517900	0.860349	0.119629	0.463378	-1.000000	-1.000000	-1.000000	-1.000000	-1.000000	-1.000000	-1.000000	79.655172	0.000000	-1.000000	-1.000000	779410.000000	1772659446.797147
-44744.940000	-152863.470000	18488.880000	351.990000	2776.320000	7434.945000	3704.715000	6403.230000	-8.801203	-5.347226	-3.781075	-3.778167	-5.660183	-7.965906	-11.412952	-13.831183	-1.480220	4.150720	-2.594200	0.862791	0.120605	0.462218	-1.000000	-1.000000	-1.000000	-1.000000	-1.000000	-1.000000	-1.000000	79.655172	0.000000	-1.000000	-1.000000	779411.000000	1772659446.801279
-44723.295000	-152853.255000	18499.770000	362.430000	2786.085000	7442.685000	3712.860000	6430.140000	-14.135559	-13.162163	-11.867332	-11.027602	-11.490733	-11.479612	-12.723063	-13.968710	-1.480220	4.150720	-2.594200	0.862791	0.120605	0.462218	-1.000000	-1.000000	-1.000000	-1.000000	-1.000000	-1.000000	-1.000000	79.655172	0.000000	-1.000000	-1.000000	779412.000000	1772659446.801287
-44733.150000	-152860.050000	18496.350000	360.135000	2785.680000	7446.735000	3727.800000	6433.425000	-13.319672	-16.502900	-16.845843	-16.083868	-15.359072	-13.030165	-9.859676	-8.011861	-1.480220	4.150720	-2.594200	0.862791	0.120605	0.462218	-1.000000	-1.000000	-1.000000	-1.000000	-1.000000	-1.000000	-1.000000	79.655172	0.000000	-1.000000	-1.000000	779413.000000	1772659446.805775
-44730.315000	-152856.135000	18500.805000	364.815000	2788.110000	7447.140000	3735.900000	6443.820000	-8.237922	-14.432970	-16.084502	-15.807848	-14.403507	-10.964212	-2.901265	1.296817	-1.480220	4.150720	-2.594200	0.862791	0.120605	0.462218	-1.000000	-1.000000	-1.000000	-1.000000	-1.000000	-1.000000	-1.000000	79.655172	0.000000	-1.000000	-1.000000	779414.000000	1772659446.805783
-44727.705000	-152849.925000	18505.620000	368.550000	2792.385000	7451.955000	3740.040000	6442.335000	-3.110379	-9.009947	-10.447873	-10.408060	-8.814284	-5.717378	5.168029	8.304820	-1.480220	4.150720	-2.594200	0.862791	0.120605	0.462218	-1.000000	-1.000000	-1.000000	-1.000000	-1.000000	-1.000000	-1.000000	79.655172	0.000000	-1.000000	-1.000000	779415.000000	1772659446.808995
-44717.760000	-152842.950000	18508.995000	371.115000	2797.110000	7456.320000	3741.525000	6447.330000	0.125668	-2.550978	-2.805706	-2.702553	-1.377910	0.625230	10.548475	9.782859	-1.480220	4.150720	-2.594200	0.862791	0.120605	0.462218	-1.000000	-1.000000	-1.000000	-1.000000	-1.000000	-1.000000	-1.000000	79.655172	0.000000	-1.000000	-1.000000	779416.000000	1772659446.809004
-44725.995000	-152846.055000	18507.780000	368.820000	2794.095000	7448.580000	3729.060000	6424.785000	3.680427	4.780844	5.251976	5.297938	5.981591	6.667968	11.600263	8.233857	-1.480220	4.150720	-2.594200	0.862791	0.120605	0.462218	-1.000000	-1.000000	-1.000000	-1.000000	-1.000000	-1.000000	-1.000000	79.655172	0.000000	-1.000000	-1.000000	779417.000000	1772659446.813225
-44724.330000	-152848.170000	18505.980000	367.965000	2795.805000	7451.415000	3730.545000	6434.460000	8.915824	12.226630	12.394942	12.078879	12.011680	11.163394	8.832100	7.007016	-1.480220	4.150720	-2.594200	0.862791	0.120605	0.462218	-1.000000	-1.000000	-1.000000	-1.000000	-1.000000	-1.000000	-1.000000	79.655172	0.000000	-1.000000	-1.000000	779418.000000	1772659446.813235
-44723.655000	-152846.055000	18510.885000	373.095000	2793.195000	7456.905000	3740.670000	6448.185000	12.219931	15.702613	15.193377	14.547305	13.915395	11.861657	3.771871	5.442558	-1.480220	4.150720	-2.594200	0.862791	0.120605	0.462218	-1.000000	-1.000000	-1.000000	-1.000000	-1.000000	-1.000000	-1.000000	79.655172	0.000000	-1.000000	-1.000000	779419.000000	1772659446.822780
-44713.215000	-152842.365000	18509.985000	369.135000	2788.785000	7453.710000	3739.500000	6452.595000	9.558675	12.031422	11.271762	10.678295	9.649739	7.662058	-1.524275	1.671547	-1.480220	4.150720	-2.594200	0.862791	0.120605	0.462218	-1.000000	-1.000000	-1.000000	-1.000000	-1.000000	-1.000000	-1.000000	79.655172	0.000000	-1.000000	-1.000000	779420.000000	1772659446.822788
-44730.045000	-152854.065000	18500.985000	358.965000	2781.180000	7443.180000	3723.255000	6422.400000	1.421704	2.883481	2.428056	2.171618	0.876555	0.109459	-5.837264	-4.580215	-3.219860	3.967600	-2.365300	0.864500	0.120239	0.461608	-1.000000	-1.000000	-1.000000	-1.000000	-1.000000	-1.000000	-1.000000	79.655172	0.000000	-1.000000	-1.000000	779421.000000	1772659446.822798
-44722.755000	-152843.805000	18513.135000	371.745000	2791.845000	7451.685000	3725.415000	6421.275000	-8.003348	-6.931493	-6.765237	-6.681825	-7.818509	-7.475401	-9.120158	-11.966516	-3.219860	3.967600	-2.365300	0.864500	0.120239	0.461608	-1.000000	-1.000000	-1.000000	-1.000000	-1.000000	-1.000000	-1.000000	79.655172	0.000000	-1.000000	-1.000000	779422.000000	1772659446.822802
-44710.200000	-152834.895000	18521.100000	381.780000	2804.040000	7464.285000	3738.420000	6440.310000	-13.649041	-12.641485	-11.718336	-11.333017	-11.715334	-11.289121	-10.618675	-16.923497	-3.219860	3.967600	-2.365300	0.864500	0.120239	0.461608	-1.000000	-1.000000	-1.000000	-1.000000	-1.000000	-1.000000	-1.000000	79.655172	0.000000	-1.000000	-1.000000	779423.000000	1772659446.825114
-44706.870000	-152838.495000	18518.535000	379.935000	2803.230000	7461.270000	3741.975000	6477.525000	-12.659315	-12.249237	-10.698191	-9.950448	-9.260222	-9.464757	-8.676783	-14.893646	-3.219860	3.967600	-2.365300	0.864500	0.120239	0.461608	-1.000000	-1.000000	-1.000000	-1.000000	-1.000000	-1.000000	-1.000000	79.655172	0.000000	-1.000000	-1.000000	779424.000000	1772659446.825119
-44666.415000	-152805.915000	18547.650000	406.170000	2826.900000	7484.130000	3768.300000	6535.980000	-5.295501	-6.570021	-4.915749	-3.891911	-2.410119	-3.168175	-2.602995	-3.341032	-3.219860	3.967600	-2.365300	0.864500	0.120239	0.461608	-1.000000	-1.000000	-1.000000	-1.000000	-1.000000	-1.000000	-1.000000	79.655172	0.000000	-1.000000	-1.000000	779425.000000	1772659446.829967
-44729.370000	-152854.470000	18502.155000	361.980000	2784.060000	7447.230000	3742.110000	6442.650000	5.123752	1.772964	2.771319	3.656288	5.131828	4.395253	5.782223	13.523117	-3.219860	3.967600	-2.365300	0.864500	0.120239	0.461608	-1.000000	-1.000000	-1.000000	-1.000000	-1.000000	-1.000000	-1.000000	79.655172	0.000000	-1.000000	-1.000000	779426.000000	1772659446.829973
-44793.540000	-152914.455000	18445.455000	307.845000	2732.355000	7401.105000	3703.770000	6371.415000	10.895608	6.941476	6.831392	7.163723	7.974712	8.014778	11.310980	22.442549	-3.219860	3.967600	-2.365300	0.864500	0.120239	0.461608	-1.000000	-1.000000	-1.000000	-1.000000	-1.000000	-1.000000	-1.000000	79.655172	0.000000	-1.000000	-1.000000	779427.000000	1772659446.833045
-44725.050000	-152854.830000	18505.260000	368.550000	2791.170000	7451.505000	3733.830000	6453.405000	6.697770	4.603700	3.631797	3.413869	3.575554	4.635375	9.517890	14.257322	-3.219860	3.967600	-2.365300	0.864500	0.120239	0.461608	-1.000000	-1.000000	-1.000000	-1.000000	-1.000000	-1.000000	-1.000000	79.655172	0.000000	-1.000000	-1.000000	779428.000000	1772659446.833050
-44704.080000	-152837.325000	18522.810000	384.885000	2807.910000	7464.285000	3736.260000	6462.945000	-1.706969	-0.759674	-1.915848	-2.336204	-2.442039	-1.234276	2.624290	-2.610297	-3.219860	3.967600	-2.365300	0.864500	0.120239	0.461608	-1.000000	-1.000000	-1.000000	-1.000000	-1.000000	-1.000000	-1.000000	79.655172	0.000000	-1.000000	-1.000000	779429.000000	1772659446.839090
-44757.810000	-152879.175000	18480.780000	343.305000	2767.545000	7428.195000	3715.560000	6387.390000	-5.537424	-2.356226	-3.170226	-3.489692	-3.669087	-3.477306	-3.498822	-13.974202	-3.219860	3.967600	-2.365300	0.864500	0.120239	0.461608	-1.000000	-1.000000	-1.000000	-1.000000	-1.000000	-1.000000	-1.000000	79.655172	0.000000	-1.000000	-1.000000	779430.000000	1772659446.839097
-44756.010000	-152881.155000	18475.515000	337.815000	2759.490000	7424.010000	3718.395000	6402.555000	-4.300902	-0.576706	-1.003323	-1.199963	-1.499854	-2.396237	-6.175904	-15.963878	-4.364360	4.211760	-2.090620	0.864500	0.121216	0.463622	-1.000000	-1.000000	-1.000000	-1.000000	-1.000000	-1.000000	-1.000000	79.655172	0.000000	-1.000000	-1.000000	779431.000000	1772659446.841033
-44735.580000	-152859.420000	18497.835000	361.980000	2779.785000	7442.820000	3718.620000	6419.385000	-1.787995	0.973880	0.668368	0.425836	-0.174292	-1.121405	-5.982299	-11.646924	-4.364360	4.211760	-2.090620	0.864500	0.121216	0.463622	-1.000000	-1.000000	-1.000000	-1.000000	-1.000000	-1.000000	-1.000000	79.655172	0.000000	-1.000000	-1.000000	779432.000000	1772659446.841038
-44715.825000	-152837.415000	18521.910000	388.080000	2806.155000	7464.285000	3732.255000	6441.615000	0.879417	1.971713	1.674584	1.313576	0.216897	0.138967	-3.849398	-3.980027	-4.364360	4.211760	-2.090620	0.864500	0.121216	0.463622	-1.000000	-1.000000	-1.000000	-1.000000	-1.000000	-1.000000	-1.000000	79.655172	0.000000	-1.000000	-1.000000	779433.000000	1772659446.845265
-44696.340000	-152828.055000	18524.655000	388.215000	2807.100000	7464.780000	3742.065000	6465.555000	4.385867	3.859130	3.703976	3.364042	1.931604	2.637983	-0.292963	4.914892	-4.364360	4.211760	-2.090620	0.864500	0.121216	0.463622	-1.000000	-1.000000	-1.000000	-1.000000	-1.000000	-1.000000	-1.000000	79.655172	0.000000	-1.000000	-1.000000	779434.000000	1772659446.845275
-44738.865000	-152857.980000	18500.220000	366.570000	2790.900000	7452.540000	3728.880000	6408.360000	8.557286	6.582427	6.596095	6.404731	5.317996	6.009287	4.117502	13.525408	-4.364360	4.211760	-2.090620	0.864500	0.121216	0.463622	-1.000000	-1.000000	-1.000000	-1.000000	-1.000000	-1.000000	-1.000000	79.655172	0.000000	-1.000000	-1.000000	779435.000000	1772659446.849502
-44752.365000	-152871.795000	18486.405000	352.080000	2777.895000	7439.760000	3716.280000	6400.845000	10.827266	7.891074	7.974434	7.884145	7.947746	7.984314	7.687411	18.610393	-4.364360	4.211760	-2.090620	0.864500	0.121216	0.463622	-1.000000	-1.000000	-1.000000	-1.000000	-1.000000	-1.000000	-1.000000	79.655172	0.000000	-1.000000	-1.000000	779436.000000	1772659446.849510
-44744.715000	-152868.150000	18489.600000	356.715000	2785.905000	7446.645000	3725.235000	6418.710000	7.141500	4.515732	4.689752	4.609994	6.176335	5.636382	7.718197	15.312013	-4.364360	4.211760	-2.090620	0.864500	0.121216	0.463622	-1.000000	-1.000000	-1.000000	-1.000000	-1.000000	-1.000000	-1.000000	79.655172	0.000000	-1.000000	-1.000000	779437.000000	1772659446.856538
-44760.870000	-152888.220000	18468.720000	336.150000	2767.545000	7428.510000	3722.130000	6413.985000	-2.732131	-3.897759	-3.561611	-3.589014	-0.947789	-1.425844	3.552570	4.009554	-4.364360	4.211760	-2.090620	0.864500	0.121216	0.463622	-1.000000	-1.000000	-1.000000	-1.000000	-1.000000	-1.000000	-1.000000	79.655172	0.000000	-1.000000	-1.000000	779438.000000	1772659446.856546
-44741.565000	-152865.090000	18491.535000	355.410000	2773.935000	7441.785000	3737.115000	6422.310000	-12.292714	-12.073210	-11.607107	-11.508639	-9.023599	-8.877272	-1.771625	-7.364237	-4.364360	4.211760	-2.090620	0.864500	0.121216	0.463622	-1.000000	-1.000000	-1.000000	-1.000000	-1.000000	-1.000000	-1.000000	79.655172	0.000000	-1.000000	-1.000000	779439.000000	1772659446.857284
-44734.860000	-152860.005000	18496.215000	357.705000	2768.355000	7441.155000	3741.255000	6431.580000	-14.288861	-13.545037	-13.029436	-12.971306	-12.298361	-11.379389	-4.619622	-11.689468	-4.364360	4.211760	-2.090620	0.864500	0.121216	0.463622	-1.000000	-1.000000	-1.000000	-1.000000	-1.000000	-1.000000	-1.000000	79.655172	0.000000	-1.000000	-1.000000	779440.000000	1772659446.857292
-44734.140000	-152867.835000	18485.505000	349.920000	2767.635000	7427.340000	3722.625000	6438.960000	-8.350584	-7.790849	-7.346733	-7.621042	-9.635691	-8.284646	-4.512846	-9.403448	-2.136400	4.242280	-1.419180	0.864072	0.119751	0.464293	-1.000000	-1.000000	-1.000000	-1.000000	-1.000000	-1.000000	-1.000000	79.655172	0.000000	-1.000000	-1.000000	779441.000000	1772659446.865433
-44738.640000	-152871.165000	18482.130000	346.950000	2766.285000	7427.835000	3725.415000	6431.400000	-0.319102	-0.261827	-0.090482	-0.650289	-4.318571	-3.396441	-3.810905	-5.581130	-2.136400	4.242280	-1.419180	0.864072	0.119751	0.464293	-1.000000	-1.000000	-1.000000	-1.000000	-1.000000	-1.000000	-1.000000	79.655172	0.000000	-1.000000	-1.000000	779442.000000	1772659446.865444
-44730.225000	-152853.345000	18502.605000	368.505000	2788.920000	7454.835000	3743.145000	6428.835000	4.833827	4.657950	4.512673	4.137706	1.054449	0.801348	-3.629036	-3.349244	-2.136400	4.242280	-1.419180	0.864072	0.119751	0.464293	-1.000000	-1.000000	-1.000000	-1.000000	-1.000000	-1.000000	-1.000000	79.655172	0.000000	-1.000000	-1.000000	779443.000000	1772659446.865666
-44721.990000	-152841.915000	18517.905000	384.255000	2803.320000	7465.410000	3745.935000	6438.420000	7.445256	7.766942	7.553519	7.784878	6.852974	5.432047	-2.075978	-0.932407	-2.136400	4.242280	-1.419180	0.864072	0.119751	0.464293	-1.000000	-1.000000	-1.000000	-1.000000	-1.000000	-1.000000	-1.000000	79.655172	0.000000	-1.000000	-1.000000	779444.000000	1772659446.865675
-44727.615000	-152850.870000	18513.720000	380.070000	2802.960000	7458.300000	3738.645000	6449.985000	9.223621	10.463380	10.525091	11.337861	12.587299	10.474457	1.732533	3.653740	-2.136400	4.242280	-1.419180	0.864072	0.119751	0.464293	-1.000000	-1.000000	-1.000000	-1.000000	-1.000000	-1.000000	-1.000000	79.655172	0.000000	-1.000000	-1.000000	779445.000000	1772659446.870650
-44704.080000	-152829.270000	18533.610000	398.520000	2828.025000	7473.780000	3747.105000	6483.330000	8.939580	10.824007	11.367647	12.341627	14.853925	12.521388	5.206771	8.170519	-2.136400	4.242280	-1.419180	0.864072	0.119751	0.464293	-1.000000	-1.000000	-1.000000	-1.000000	-1.000000	-1.000000	-1.000000	79.655172	0.000000	-1.000000	-1.000000	779446.000000	1772659446.870658
-44636.670000	-152754.030000	18608.220000	474.120000	2896.200000	7545.960000	3817.530000	6566.130000	6.597710	8.433783	9.264668	9.915859	12.618024	10.483150	6.647260	10.947277	-2.136400	4.242280	-1.419180	0.864072	0.119751	0.464293	-1.000000	-1.000000	-1.000000	-1.000000	-1.000000	-1.000000	-1.000000	79.655172	0.000000	-1.000000	-1.000000	779447.000000	1772659446.873260
-44592.345000	-152709.480000	18645.525000	508.275000	2919.465000	7569.585000	3826.755000	6598.125000	5.400915	6.548245	7.010879	7.131158	9.055375	7.629204	7.440409	13.292685	-2.136400	4.242280	-1.419180	0.864072	0.119751	0.464293	-1.000000	-1.000000	-1.000000	-1.000000	-1.000000	-1.000000	-1.000000	79.655172	0.000000	-1.000000	-1.000000	779448.000000	1772659446.873271
-44772.975000	-152882.145000	18478.890000	343.845000	2759.490000	7409.250000	3678.660000	6363.855000	3.409561	3.697149	3.179991	2.885426	3.379095	3.265813	5.715857	10.605724	-2.136400	4.242280	-1.419180	0.864072	0.119751	0.464293	-1.000000	-1.000000	-1.000000	-1.000000	-1.000000	-1.000000	-1.000000	79.655172	0.000000	-1.000000	-1.000000	779449.000000	1772659446.877200
-44845.380000	-152963.460000	18397.665000	261.945000	2686.500000	7352.910000	3656.205000	6291.900000	-8.058629	-8.327415	-9.677719	-10.161491	-10.989601	-9.053907	-4.115746	-7.468951	-2.136400	4.242280	-1.419180	0.864072	0.119751	0.464293	-1.000000	-1.000000	-1.000000	-1.000000	-1.000000	-1.000000	-1.000000	79.655172	0.000000	-1.000000	-1.000000	779450.000000	1772659446.877206
-44772.345000	-152922.600000	18426.915000	283.140000	2705.175000	7374.420000	3686.580000	6380.595000	-27.907870	-29.029794	-30.514267	-31.121823	-32.438436	-27.893907	-19.427947	-36.107003	-0.869820	3.677660	-1.281840	0.864317	0.118103	0.464293	-1.000000	-1.000000	-1.000000	-1.000000	-1.000000	-1.000000	-1.000000	79.655172	0.000000	-1.000000	-1.000000	779451.000000	1772659446.886436
-44754.795000	-152889.030000	18468.360000	327.870000	2751.165000	7412.895000	3692.070000	6390.810000	-38.551205	-41.875672	-43.118872	-43.991376	-45.018714	-38.800304	-27.540579	-50.393995	-0.869820	3.677660	-1.281840	0.864317	0.118103	0.464293	-1.000000	-1.000000	-1.000000	-1.000000	-1.000000	-1.000000	-1.000000	79.655172	0.000000	-1.000000	-1.000000	779452.000000	1772659446.886444
-44753.670000	-152883.270000	18479.430000	345.150000	2773.305000	7430.130000	3701.565000	6404.895000	-26.385456	-31.994425	-32.863529	-33.849485	-34.325713	-29.260386	-19.789514	-33.678251	-0.869820	3.677660	-1.281840	0.864317	0.118103	0.464293	-1.000000	-1.000000	-1.000000	-1.000000	-1.000000	-1.000000	-1.000000	79.655172	0.000000	-1.000000	-1.000000	779453.000000	1772659446.886452
-44745.840000	-152876.070000	18485.460000	351.855000	2781.180000	7437.600000	3721.680000	6419.025000	2.351023	-2.781024	-2.925865	-3.290074	-3.309993	-2.064050	0.410926	4.150792	-0.869820	3.677660	-1.281840	0.864317	0.118103	0.464293	-1.000000	-1.000000	-1.000000	-1.000000	-1.000000	-1.000000	-1.000000	79.655172	0.000000	-1.000000	-1.000000	779454.000000	1772659446.886456
-44742.105000	-152877.780000	18476.505000	339.210000	2763.270000	7427.070000	3727.440000	6429.330000	29.597279	28.195480	28.917951	29.758594	29.789507	26.941387	21.590084	39.071159	-0.869820	3.677660	-1.281840	0.864317	0.118103	0.464293	-1.000000	-1.000000	-1.000000	-1.000000	-1.000000	-1.000000	-1.000000	79.655172	0.000000	-1.000000	-1.000000	779455.000000	1772659446.889196
-44740.170000	-152874.765000	18479.745000	343.170000	2766.240000	7429.680000	3730.860000	6441.030000	39.935575	43.010499	44.172372	45.905346	45.597076	40.644394	31.557633	51.929508	-0.869820	3.677660	-1.281840	0.864317	0.118103	0.464293	-1.000000	-1.000000	-1.000000	-1.000000	-1.000000	-1.000000	-1.000000	79.655172	0.000000	-1.000000	-1.000000	779456.000000	1772659446.889206
-44751.780000	-152877.420000	18480.150000	342.405000	2761.920000	7426.170000	3726.045000	6421.590000	30.119041	35.834076	36.957158	38.676295	38.250095	33.582705	25.985345	39.740494	-0.869820	3.677660	-1.281840	0.864317	0.118103	0.464293	-1.000000	-1.000000	-1.000000	-1.000000	-1.000000	-1.000000	-1.000000	79.655172	0.000000	-1.000000	-1.000000	779457.000000	1772659446.893198
-44753.355000	-152871.120000	18487.620000	349.695000	2766.555000	7428.915000	3722.580000	6408.855000	11.582095	17.561434	18.532745	19.410297	19.243672	16.236310	12.524954	16.657157	-0.869820	3.677660	-1.281840	0.864317	0.118103	0.464293	-1.000000	-1.000000	-1.000000	-1.000000	-1.000000	-1.000000	-1.000000	79.655172	0.000000	-1.000000	-1.000000	779458.000000	1772659446.893206
-44742.195000	-152865.495000	18494.730000	359.910000	2782.620000	7443.360000	3730.365000	6426.270000	-1.008898	3.882494	4.782719	4.533953	4.425829	3.066741	1.567993	-0.573641	-0.869820	3.677660	-1.281840	0.864317	0.118103	0.464293	-1.000000	-1.000000	-1.000000	-1.000000	-1.000000	-1.000000	-1.000000	79.655172	0.000000	-1.000000	-1.000000	779459.000000	1772659446.897275
-44725.005000	-152867.115000	18491.895000	358.245000	2782.575000	7443.900000	3732.165000	6451.605000	-4.635268	-1.460408	-0.543177	-1.418480	-1.715259	-2.293867	-4.592948	-8.141287	-0.869820	3.677660	-1.281840	0.864317	0.118103	0.464293	-1.000000	-1.000000	-1.000000	-1.000000	-1.000000	-1.000000	-1.000000	79.655172	0.000000	-1.000000	-1.000000	779460.000000	1772659446.897298
-44722.260000	-152859.825000	18500.535000	364.995000	2786.940000	7446.645000	3734.865000	6444.765000	-5.595111	-5.226795	-4.516902	-5.275161	-5.534059	-5.814802	-9.046079	-11.726255	-3.067260	4.272800	-1.297100	0.865659	0.121643	0.461974	-1.000000	-1.000000	-1.000000	-1.000000	-1.000000	-1.000000	-1.000000	79.655172	0.000000	-1.000000	-1.000000	779461.000000	1772659446.904723
-44741.520000	-152869.410000	18494.685000	360.585000	2784.555000	7444.845000	3726.720000	6415.290000	-8.526443	-11.810863	-11.913257	-12.411718	-12.419568	-11.951719	-13.242277	-16.025380	-3.067260	4.272800	-1.297100	0.865659	0.121643	0.461974	-1.000000	-1.000000	-1.000000	-1.000000	-1.000000	-1.000000	-1.000000	79.655172	0.000000	-1.000000	-1.000000	779462.000000	1772659446.904731
-44740.530000	-152878.590000	18481.005000	344.790000	2769.795000	7436.790000	3724.515000	6427.035000	-13.365553	-19.160092	-20.364995	-20.938012	-20.757957	-18.865112	-16.275478	-21.474366	-3.067260	4.272800	-1.297100	0.865659	0.121643	0.461974	-1.000000	-1.000000	-1.000000	-1.000000	-1.000000	-1.000000	-1.000000	79.655172	0.000000	-1.000000	-1.000000	779463.000000	1772659446.906640
-44730.990000	-152872.020000	18486.990000	352.035000	2774.430000	7437.240000	3725.820000	6442.470000	-17.241682	-23.049936	-24.881638	-25.641815	-25.271316	-22.070683	-16.742658	-24.570688	-3.067260	4.272800	-1.297100	0.865659	0.121643	0.461974	-1.000000	-1.000000	-1.000000	-1.000000	-1.000000	-1.000000	-1.000000	79.655172	0.000000	-1.000000	-1.000000	779464.000000	1772659446.906649
-44718.885000	-152852.580000	18505.485000	367.695000	2786.535000	7443.225000	3728.655000	6446.070000	-16.644788	-20.430958	-22.033313	-22.694077	-21.974343	-18.811384	-13.465726	-20.955458	-3.067260	4.272800	-1.297100	0.865659	0.121643	0.461974	-1.000000	-1.000000	-1.000000	-1.000000	-1.000000	-1.000000	-1.000000	79.655172	0.000000	-1.000000	-1.000000	779465.000000	1772659446.909323
-44720.460000	-152847.270000	18511.470000	374.625000	2794.005000	7449.300000	3735.360000	6444.405000	-9.239970	-10.083932	-10.884880	-11.121866	-10.058529	-8.702692	-5.425301	-8.694514	-3.067260	4.272800	-1.297100	0.865659	0.121643	0.461974	-1.000000	-1.000000	-1.000000	-1.000000	-1.000000	-1.000000	-1.000000	79.655172	0.000000	-1.000000	-1.000000	779466.000000	1772659446.909334
-44730.945000	-152863.605000	18495.585000	361.215000	2783.520000	7439.760000	3729.150000	6439.365000	3.692349	5.562351	5.569156	5.864894	6.931471	5.729336	6.391904	9.574767	-3.067260	4.272800	-1.297100	0.865659	0.121643	0.461974	-1.000000	-1.000000	-1.000000	-1.000000	-1.000000	-1.000000	-1.000000	79.655172	0.000000	-1.000000	-1.000000	779467.000000	1772659446.913281
-44723.610000	-152858.790000	18500.805000	365.445000	2785.860000	7445.025000	3737.250000	6450.660000	15.455540	19.033752	19.585164	20.328058	20.865531	17.952084	16.791112	25.050947	-3.067260	4.272800	-1.297100	0.865659	0.121643	0.461974	-1.000000	-1.000000	-1.000000	-1.000000	-1.000000	-1.000000	-1.000000	79.655172	0.000000	-1.000000	-1.000000	779468.000000	1772659446.913289
-44715.780000	-152847.270000	18511.110000	374.310000	2795.580000	7458.345000	3749.355000	6452.865000	18.772443	22.998362	23.824736	24.718369	24.309909	21.553361	20.065922	28.431288	-3.067260	4.272800	-1.297100	0.865659	0.121643	0.461974	-1.000000	-1.000000	-1.000000	-1.000000	-1.000000	-1.000000	-1.000000	79.655172	0.000000	-1.000000	-1.000000	779469.000000	1772659446.917249
-44727.480000	-152856.180000	18505.980000	369.990000	2792.295000	7455.330000	3741.750000	6436.530000	12.626591	16.460997	17.223486	17.822416	16.539751	15.701865	15.144409	18.480102	-3.067260	4.272800	-1.297100	0.865659	0.121643	0.461974	-1.000000	-1.000000	-1.000000	-1.000000	-1.000000	-1.000000	-1.000000	79.655172	0.000000	-1.000000	-1.000000	779470.000000	1772659446.917259
-44666.640000	-152810.595000	18550.800000	415.215000	2835.945000	7493.670000	3773.070000	6524.910000	2.748621	4.798853	5.207636	5.239898	3.636731	5.159831	5.556844	3.165763	-6.607580	3.616620	-1.312360	0.862730	0.122192	0.463805	-1.000000	-1.000000	-1.000000	-1.000000	-1.000000	-1.000000	-1.000000	79.655172	0.000000	-1.000000	-1.000000	779471.000000	1772659446.921159
-44664.615000	-152797.410000	18565.605000	431.460000	2854.890000	7510.500000	3771.765000	6502.005000	-3.547247	-4.337978	-4.210823	-4.586824	-5.838819	-3.287336	-3.463188	-7.420311	-6.607580	3.616620	-1.312360	0.862730	0.122192	0.463805	-1.000000	-1.000000	-1.000000	-1.000000	-1.000000	-1.000000	-1.000000	79.655172	0.000000	-1.000000	-1.000000	779472.000000	1772659446.921167
-44729.505000	-152857.710000	18507.105000	374.760000	2802.645000	7456.770000	3713.085000	6422.130000	-5.130476	-8.101933	-7.843033	-8.147878	-8.366059	-6.766688	-9.451818	-11.633507	-6.607580	3.616620	-1.312360	0.862730	0.122192	0.463805	-1.000000	-1.000000	-1.000000	-1.000000	-1.000000	-1.000000	-1.000000	79.655172	0.000000	-1.000000	-1.000000	779473.000000	1772659446.926461
-44757.045000	-152884.845000	18480.960000	347.715000	2776.815000	7427.835000	3708.225000	6403.725000	-7.245101	-10.471056	-9.779115	-9.600713	-8.253245	-8.546179	-13.544775	-15.045226	-6.607580	3.616620	-1.312360	0.862730	0.122192	0.463805	-1.000000	-1.000000	-1.000000	-1.000000	-1.000000	-1.000000	-1.000000	79.655172	0.000000	-1.000000	-1.000000	779474.000000	1772659446.926473
-44779.050000	-152906.805000	18457.605000	320.400000	2744.505000	7404.930000	3723.840000	6386.310000	-11.864200	-14.033464	-13.138970	-12.567958	-9.980157	-11.532003	-15.088910	-18.376961	-6.607580	3.616620	-1.312360	0.862730	0.122192	0.463805	-1.000000	-1.000000	-1.000000	-1.000000	-1.000000	-1.000000	-1.000000	79.655172	0.000000	-1.000000	-1.000000	779475.000000	1772659446.931484
-44775.720000	-152917.560000	18436.680000	294.570000	2710.485000	7390.170000	3732.075000	6396.300000	-14.636665	-15.650845	-15.328419	-15.065924	-12.825635	-13.918559	-11.073375	-16.761668	-6.607580	3.616620	-1.312360	0.862730	0.122192	0.463805	-1.000000	-1.000000	-1.000000	-1.000000	-1.000000	-1.000000	-1.000000	79.655172	0.000000	-1.000000	-1.000000	779476.000000	1772659446.931495
-44752.725000	-152887.680000	18471.960000	332.685000	2756.610000	7426.395000	3740.940000	6410.700000	-11.155718	-11.404108	-12.406620	-13.130307	-13.006173	-12.096779	-1.734079	-8.016768	-6.607580	3.616620	-1.312360	0.862730	0.122192	0.463805	-1.000000	-1.000000	-1.000000	-1.000000	-1.000000	-1.000000	-1.000000	79.655172	0.000000	-1.000000	-1.000000	779477.000000	1772659446.936713
-44740.080000	-152864.775000	18502.290000	367.560000	2793.600000	7440.570000	3698.550000	6401.430000	-1.086269	-0.686435	-2.791349	-4.264530	-6.452949	-4.131528	7.772272	4.991920	-6.607580	3.616620	-1.312360	0.862730	0.122192	0.463805	-1.000000	-1.000000	-1.000000	-1.000000	-1.000000	-1.000000	-1.000000	79.655172	0.000000	-1.000000	-1.000000	779478.000000	1772659446.936723
-44745.570000	-152872.695000	18494.685000	359.910000	2783.430000	7434.855000	3701.655000	6407.370000	11.309778	12.602735	10.686012	9.543928	6.527751	7.556468	11.494956	16.393497	-6.607580	3.616620	-1.312360	0.862730	0.122192	0.463805	-1.000000	-1.000000	-1.000000	-1.000000	-1.000000	-1.000000	-1.000000	79.655172	0.000000	-1.000000	-1.000000	779479.000000	1772659446.937224
-44744.445000	-152875.890000	18491.535000	356.175000	2776.140000	7435.530000	3726.450000	6430.095000	18.797938	20.975047	20.461780	20.528235	18.309157	16.339484	8.293624	20.456129	-6.607580	3.616620	-1.312360	0.862730	0.122192	0.463805	-1.000000	-1.000000	-1.000000	-1.000000	-1.000000	-1.000000	-1.000000	79.655172	0.000000	-1.000000	-1.000000	779480.000000	1772659446.937230
-44735.355000	-152866.125000	18499.860000	365.670000	2786.130000	7443.315000	3735.720000	6438.780000	17.201866	19.445434	20.519683	21.746306	20.992117	17.299554	3.015820	16.554420	-3.677660	3.372460	-1.648080	0.862730	0.116638	0.464965	-1.000000	-1.000000	-1.000000	-1.000000	-1.000000	-1.000000	-1.000000	79.655172	0.000000	-1.000000	-1.000000	779481.000000	1772659446.942229
-44726.130000	-152854.695000	18509.175000	373.050000	2794.950000	7450.245000	3737.295000	6438.780000	10.114952	11.101050	12.904766	14.511941	15.029457	12.280503	1.425894	10.151734	-3.677660	3.372460	-1.648080	0.862730	0.116638	0.464965	-1.000000	-1.000000	-1.000000	-1.000000	-1.000000	-1.000000	-1.000000	79.655172	0.000000	-1.000000	-1.000000	779482.000000	1772659446.942238
-44715.645000	-152849.070000	18512.505000	372.555000	2794.230000	7450.245000	3740.580000	6456.060000	4.394093	3.280304	4.554861	5.619957	6.911500	6.754265	4.382120	6.433194	-3.677660	3.372460	-1.648080	0.862730	0.116638	0.464965	-1.000000	-1.000000	-1.000000	-1.000000	-1.000000	-1.000000	-1.000000	79.655172	0.000000	-1.000000	-1.000000	779483.000000	1772659446.945150
-44695.890000	-152831.295000	18528.300000	388.395000	2808.810000	7461.135000	3750.210000	6487.020000	2.838748	-0.009156	-0.024844	-0.017664	1.624341	3.614888	7.500773	5.632112	-3.677660	3.372460	-1.648080	0.862730	0.116638	0.464965	-1.000000	-1.000000	-1.000000	-1.000000	-1.000000	-1.000000	-1.000000	79.655172	0.000000	-1.000000	-1.000000	779484.000000	1772659446.945158
-44700.255000	-152821.395000	18545.220000	408.555000	2831.040000	7478.910000	3748.320000	6467.310000	2.744606	-0.069238	-1.009680	-1.811906	-0.098984	1.910677	6.194461	4.097082	-3.677660	3.372460	-1.648080	0.862730	0.116638	0.464965	-1.000000	-1.000000	-1.000000	-1.000000	-1.000000	-1.000000	-1.000000	79.655172	0.000000	-1.000000	-1.000000	779485.000000	1772659446.949113
-44762.670000	-152875.755000	18493.155000	359.055000	2784.285000	7439.895000	3710.025000	6384.825000	-1.308823	-1.799574	-2.530300	-3.350277	-1.878433	-1.521963	-0.468265	-3.147849	-3.677660	3.372460	-1.648080	0.862730	0.116638	0.464965	-1.000000	-1.000000	-1.000000	-1.000000	-1.000000	-1.000000	-1.000000	79.655172	0.000000	-1.000000	-1.000000	779486.000000	1772659446.949122
-44747.865000	-152881.380000	18482.220000	344.745000	2767.815000	7426.485000	3713.670000	6414.795000	-11.638761	-9.292585	-9.198912	-9.492986	-8.716723	-9.205860	-9.355154	-16.700602	-3.677660	3.372460	-1.648080	0.862730	0.116638	0.464965	-1.000000	-1.000000	-1.000000	-1.000000	-1.000000	-1.000000	-1.000000	79.655172	0.000000	-1.000000	-1.000000	779487.000000	1772659446.953274
-44742.105000	-152873.055000	18492.435000	355.860000	2780.280000	7441.560000	3736.125000	6435.450000	-22.590389	-19.558402	-19.126820	-19.034240	-19.248594	-18.466681	-15.035061	-28.589891	-3.677660	3.372460	-1.648080	0.862730	0.116638	0.464965	-1.000000	-1.000000	-1.000000	-1.000000	-1.000000	-1.000000	-1.000000	79.655172	0.000000	-1.000000	-1.000000	779488.000000	1772659446.953279
-44735.220000	-152863.605000	18503.010000	367.875000	2793.780000	7454.340000	3746.025000	6437.970000	-25.306783	-24.057162	-23.974577	-23.895757	-24.850402	-22.182916	-13.885616	-29.350859	-3.677660	3.372460	-1.648080	0.862730	0.116638	0.464965	-1.000000	-1.000000	-1.000000	-1.000000	-1.000000	-1.000000	-1.000000	79.655172	0.000000	-1.000000	-1.000000	779489.000000	1772659446.957265
-44716.545000	-152851.185000	18509.985000	374.130000	2801.250000	7462.980000	3754.035000	6454.755000	-16.208739	-17.399618	-17.776891	-17.871520	-18.932007	-15.800728	-6.531827	-16.851271	-3.677660	3.372460	-1.648080	0.862730	0.116638	0.464965	-1.000000	-1.000000	-1.000000	-1.000000	-1.000000	-1.000000	-1.000000	79.655172	0.000000	-1.000000	-1.000000	779490.000000	1772659446.957275
-44741.025000	-152875.170000	18485.280000	349.380000	2774.520000	7434.540000	3729.375000	6423.075000	0.595289	-2.217900	-2.816015	-2.967898	-3.694636	-1.954253	3.030563	2.994943	0.152600	3.235120	-1.983800	0.865171	0.112243	0.463500	-1.000000	-1.000000	-1.000000	-1.000000	-1.000000	-1.000000	-1.000000	79.655172	0.000000	-1.000000	-1.000000	779491.000000	1772659446.967053
-44764.920000	-152899.065000	18464.805000	331.470000	2756.745000	7413.885000	3711.195000	6408.765000	15.680450	12.734331	12.278453	12.355761	11.961571	11.267213	9.143632	19.454744	0.152600	3.235120	-1.983800	0.865171	0.112243	0.463500	-1.000000	-1.000000	-1.000000	-1.000000	-1.000000	-1.000000	-1.000000	79.655172	0.000000	-1.000000	-1.000000	779492.000000	1772659446.967061
-44746.335000	-152883.180000	18477.900000	343.350000	2770.920000	7426.935000	3724.875000	6429.915000	20.957660	19.436182	19.563145	20.109135	19.917925	16.820919	8.438796	24.173175	0.152600	3.235120	-1.983800	0.865171	0.112243	0.463500	-1.000000	-1.000000	-1.000000	-1.000000	-1.000000	-1.000000	-1.000000	79.655172	0.000000	-1.000000	-1.000000	779493.000000	1772659446.967070
-44740.440000	-152875.755000	18484.605000	348.660000	2776.770000	7428.150000	3720.105000	6427.755000	16.468855	16.918101	17.642972	18.436045	18.406705	13.931934	3.307710	18.294981	0.152600	3.235120	-1.983800	0.865171	0.112243	0.463500	-1.000000	-1.000000	-1.000000	-1.000000	-1.000000	-1.000000	-1.000000	79.655172	0.000000	-1.000000	-1.000000	779494.000000	1772659446.967074
-44744.085000	-152877.060000	18487.530000	353.745000	2787.480000	7437.510000	3720.330000	6422.850000	8.637461	10.286560	11.025144	11.410380	11.501667	7.245198	-0.687342	9.608292	0.152600	3.235120	-1.983800	0.865171	0.112243	0.463500	-1.000000	-1.000000	-1.000000	-1.000000	-1.000000	-1.000000	-1.000000	79.655172	0.000000	-1.000000	-1.000000	779495.000000	1772659446.969126
-44740.530000	-152875.215000	18488.925000	353.250000	2777.940000	7437.195000	3726.360000	6429.870000	2.477140	4.478042	4.792857	4.352930	4.477775	1.973255	-0.614098	3.109136	0.152600	3.235120	-1.983800	0.865171	0.112243	0.463500	-1.000000	-1.000000	-1.000000	-1.000000	-1.000000	-1.000000	-1.000000	79.655172	0.000000	-1.000000	-1.000000	779496.000000	1772659446.969131
-44733.510000	-152867.475000	18497.070000	360.945000	2786.130000	7445.250000	3735.855000	6439.050000	-1.530871	0.609928	0.603209	-0.481914	-0.550329	-0.357542	1.622418	-1.859359	0.152600	3.235120	-1.983800	0.865171	0.112243	0.463500	-1.000000	-1.000000	-1.000000	-1.000000	-1.000000	-1.000000	-1.000000	79.655172	0.000000	-1.000000	-1.000000	779497.000000	1772659446.975592
-44736.165000	-152863.335000	18501.525000	363.420000	2779.560000	7445.610000	3740.850000	6432.345000	-4.460572	-2.329295	-2.382442	-3.644793	-4.274559	-1.424897	2.685607	-6.506789	0.152600	3.235120	-1.983800	0.865171	0.112243	0.463500	-1.000000	-1.000000	-1.000000	-1.000000	-1.000000	-1.000000	-1.000000	79.655172	0.000000	-1.000000	-1.000000	779498.000000	1772659446.975601
-44734.995000	-152853.390000	18513.810000	376.965000	2804.490000	7457.130000	3745.890000	6428.115000	-6.540280	-4.630710	-4.474359	-5.454086	-6.697347	-2.378461	1.754328	-9.771251	0.152600	3.235120	-1.983800	0.865171	0.112243	0.463500	-1.000000	-1.000000	-1.000000	-1.000000	-1.000000	-1.000000	-1.000000	79.655172	0.000000	-1.000000	-1.000000	779499.000000	1772659446.977690
-44731.935000	-152856.540000	18510.660000	377.235000	2811.060000	7457.085000	3743.145000	6441.210000	-6.785064	-5.242298	-4.702049	-4.963096	-5.956395	-2.300446	0.389370	-9.595512	0.152600	3.235120	-1.983800	0.865171	0.112243	0.463500	-1.000000	-1.000000	-1.000000	-1.000000	-1.000000	-1.000000	-1.000000	79.655172	0.000000	-1.000000	-1.000000	779500.000000	1772659446.977700
-44731.665000	-152866.800000	18501.660000	369.945000	2793.420000	7445.925000	3735.270000	6449.850000	-4.317725	-3.750878	-2.970737	-2.208684	-1.757980	-0.656717	-0.267348	-5.175499	-2.639980	3.952340	-2.517900	0.863706	0.117431	0.463866	-1.000000	-1.000000	-1.000000	-1.000000	-1.000000	-1.000000	-1.000000	79.655172	0.000000	-1.000000	-1.000000	779501.000000	1772659446.981313
-44730.945000	-152871.795000	18490.185000	352.620000	2767.950000	7429.365000	3727.440000	6442.110000	-0.599885	-2.135039	-1.636151	-0.049819	1.704217	0.308071	-1.019665	0.990178	-2.639980	3.952340	-2.517900	0.863706	0.117431	0.463866	-1.000000	-1.000000	-1.000000	-1.000000	-1.000000	-1.000000	-1.000000	79.655172	0.000000	-1.000000	-1.000000	779502.000000	1772659446.981322
-44734.275000	-152874.765000	18487.170000	348.480000	2769.435000	7430.580000	3724.380000	6432.435000	1.791079	-2.422349	-2.873839	-1.336482	0.132849	-1.751029	-2.632906	5.029408	-2.639980	3.952340	-2.517900	0.863706	0.117431	0.463866	-1.000000	-1.000000	-1.000000	-1.000000	-1.000000	-1.000000	-1.000000	79.655172	0.000000	-1.000000	-1.000000	779503.000000	1772659446.985255
-44736.570000	-152868.825000	18498.375000	361.935000	2786.400000	7444.890000	3730.185000	6424.830000	1.961270	-3.736576	-5.373275	-4.835742	-4.783243	-5.294360	-3.989800	5.130100	-2.639980	3.952340	-2.517900	0.863706	0.117431	0.463866	-1.000000	-1.000000	-1.000000	-1.000000	-1.000000	-1.000000	-1.000000	79.655172	0.000000	-1.000000	-1.000000	779504.000000	1772659446.985262
-44738.370000	-152870.490000	18497.880000	360.180000	2785.140000	7440.390000	3724.650000	6424.290000	0.463721	-3.885810	-5.990632	-6.640058	-7.479529	-6.701414	-3.963400	1.614233	-2.639980	3.952340	-2.517900	0.863706	0.117431	0.463866	-1.000000	-1.000000	-1.000000	-1.000000	-1.000000	-1.000000	-1.000000	79.655172	0.000000	-1.000000	-1.000000	779505.000000	1772659446.995101
-44740.620000	-152873.370000	18496.215000	357.885000	2783.745000	7439.445000	3726.045000	6432.480000	-1.720578	-2.333222	-3.682561	-4.916173	-5.256705	-4.769281	-3.046208	-3.376668	-2.639980	3.952340	-2.517900	0.863706	0.117431	0.463866	-1.000000	-1.000000	-1.000000	-1.000000	-1.000000	-1.000000	-1.000000	79.655172	0.000000	-1.000000	-1.000000	779506.000000	1772659446.995109
-44736.930000	-152870.220000	18498.330000	358.965000	2780.460000	7435.980000	3728.970000	6437.475000	-3.226673	-0.144960	0.001221	-1.044238	-0.125223	-1.133871	-1.913481	-6.192694	-2.639980	3.952340	-2.517900	0.863706	0.117431	0.463866	-1.000000	-1.000000	-1.000000	-1.000000	-1.000000	-1.000000	-1.000000	79.655172	0.000000	-1.000000	-1.000000	779507.000000	1772659446.995118
-44729.550000	-152858.475000	18509.265000	370.125000	2790.945000	7444.080000	3730.680000	6432.750000	-2.693719	1.943040	3.356729	2.944447	4.451162	2.339022	-0.294647	-4.535097	-2.639980	3.952340	-2.517900	0.863706	0.117431	0.463866	-1.000000	-1.000000	-1.000000	-1.000000	-1.000000	-1.000000	-1.000000	79.655172	0.000000	-1.000000	-1.000000	779508.000000	1772659446.995122
-44731.755000	-152860.680000	18502.380000	368.055000	2794.860000	7448.895000	3731.850000	6428.970000	0.150711	4.125186	5.805787	6.040600	6.744013	5.062643	2.167647	0.121317	-2.639980	3.952340	-2.517900	0.863706	0.117431	0.463866	-1.000000	-1.000000	-1.000000	-1.000000	-1.000000	-1.000000	-1.000000	79.655172	0.000000	-1.000000	-1.000000	779509.000000	1772659446.997380
-44737.110000	-152869.320000	18493.785000	362.025000	2791.440000	7446.060000	3735.855000	6438.555000	3.548158	5.964027	6.832337	7.575300	7.080694	6.956794	4.921940	4.167883	-2.639980	3.952340	-2.517900	0.863706	0.117431	0.463866	-1.000000	-1.000000	-1.000000	-1.000000	-1.000000	-1.000000	-1.000000	79.655172	0.000000	-1.000000	-1.000000	779510.000000	1772659446.997390
-44745.795000	-152880.390000	18486.270000	354.735000	2782.080000	7437.555000	3735.900000	6440.400000	4.875456	5.804822	5.571242	6.763296	6.017480	7.240872	6.724168	5.713988	-4.959500	3.692920	-2.273740	0.862547	0.122131	0.463439	-1.000000	-1.000000	-1.000000	-1.000000	-1.000000	-1.000000	-1.000000	79.655172	0.000000	-1.000000	-1.000000	779511.000000	1772659447.002012
-44744.895000	-152872.695000	18497.340000	365.220000	2789.685000	7444.980000	3736.170000	6436.620000	3.287227	2.943083	2.283964	3.717978	3.462672	5.032690	6.518027	5.396011	-4.959500	3.692920	-2.273740	0.862547	0.122131	0.463439	-1.000000	-1.000000	-1.000000	-1.000000	-1.000000	-1.000000	-1.000000	79.655172	0.000000	-1.000000	-1.000000	779512.000000	1772659447.002023
-44737.335000	-152855.190000	18512.505000	377.910000	2801.520000	7454.970000	3740.130000	6435.945000	0.360111	-0.859844	-1.157636	-0.097852	-0.238323	0.845764	3.952767	3.922024	-4.959500	3.692920	-2.273740	0.862547	0.122131	0.463439	-1.000000	-1.000000	-1.000000	-1.000000	-1.000000	-1.000000	-1.000000	79.655172	0.000000	-1.000000	-1.000000	779513.000000	1772659447.005156
-44729.640000	-152840.205000	18527.040000	391.635000	2815.155000	7465.095000	3743.235000	6432.480000	-1.625478	-2.862855	-2.707424	-2.737591	-3.449711	-3.208197	-0.218346	1.198980	-4.959500	3.692920	-2.273740	0.862547	0.122131	0.463439	-1.000000	-1.000000	-1.000000	-1.000000	-1.000000	-1.000000	-1.000000	79.655172	0.000000	-1.000000	-1.000000	779514.000000	1772659447.005165
-44721.855000	-152845.470000	18518.535000	381.735000	2805.570000	7453.980000	3720.915000	6420.240000	-1.482956	-2.089269	-1.956114	-3.279309	-4.573316	-5.187508	-4.567320	-2.572149	-4.959500	3.692920	-2.273740	0.862547	0.122131	0.463439	-1.000000	-1.000000	-1.000000	-1.000000	-1.000000	-1.000000	-1.000000	79.655172	0.000000	-1.000000	-1.000000	779515.000000	1772659447.013366
-44723.970000	-152865.225000	18495.495000	357.840000	2783.295000	7434.270000	3713.445000	6428.835000	0.128100	-0.592300	-0.947914	-3.051195	-4.218227	-5.315188	-8.077843	-6.085305	-4.959500	3.692920	-2.273740	0.862547	0.122131	0.463439	-1.000000	-1.000000	-1.000000	-1.000000	-1.000000	-1.000000	-1.000000	79.655172	0.000000	-1.000000	-1.000000	779516.000000	1772659447.013376
-44735.580000	-152875.845000	18486.675000	350.910000	2778.030000	7433.595000	3733.425000	6446.025000	1.259353	-1.256652	-2.127364	-4.142927	-4.441561	-5.131380	-9.412702	-6.925224	-4.959500	3.692920	-2.273740	0.862547	0.122131	0.463439	-1.000000	-1.000000	-1.000000	-1.000000	-1.000000	-1.000000	-1.000000	79.655172	0.000000	-1.000000	-1.000000	779517.000000	1772659447.013386
-44737.245000	-152876.205000	18485.775000	348.255000	2772.855000	7426.395000	3737.520000	6450.120000	0.465963	-4.095516	-4.931168	-6.189969	-5.517003	-4.965203	-6.750118	-3.685450	-4.959500	3.692920	-2.273740	0.862547	0.122131	0.463439	-1.000000	-1.000000	-1.000000	-1.000000	-1.000000	-1.000000	-1.000000	79.655172	0.000000	-1.000000	-1.000000	779518.000000	1772659447.013391
-44724.465000	-152863.020000	18502.110000	366.120000	2793.735000	7446.375000	3747.015000	6462.855000	-1.486822	-5.861308	-5.903946	-6.200481	-5.058935	-3.454369	-0.364050	1.905470	-4.959500	3.692920	-2.273740	0.862547	0.122131	0.463439	-1.000000	-1.000000	-1.000000	-1.000000	-1.000000	-1.000000	-1.000000	79.655172	0.000000	-1.000000	-1.000000	779519.000000	1772659447.019386
-44698.770000	-152829.405000	18538.560000	403.245000	2832.840000	7483.905000	3772.305000	6491.880000	-1.985454	-3.222858	-2.153314	-1.564332	-0.458345	1.035328	6.948052	6.931942	-4.959500	3.692920	-2.273740	0.862547	0.122131	0.463439	-1.000000	-1.000000	-1.000000	-1.000000	-1.000000	-1.000000	-1.000000	79.655172	0.000000	-1.000000	-1.000000	779520.000000	1772659447.019396
-44699.040000	-152799.975000	18573.525000	438.435000	2863.980000	7508.205000	3787.335000	6465.330000	0.407510	3.925102	5.752618	7.056237	7.907011	8.124110	12.170636	9.311717	-3.601360	4.852680	-2.090620	0.865720	0.120483	0.461791	-1.000000	-1.000000	-1.000000	-1.000000	-1.000000	-1.000000	-1.000000	79.655172	0.000000	-1.000000	-1.000000	779521.000000	1772659447.030202
-44729.280000	-152809.740000	18555.210000	424.305000	2850.615000	7491.420000	3759.210000	6403.995000	3.207943	11.210946	12.992838	14.772668	15.213246	13.732579	12.626945	6.443166	-3.601360	4.852680	-2.090620	0.865720	0.120483	0.461791	-1.000000	-1.000000	-1.000000	-1.000000	-1.000000	-1.000000	-1.000000	79.655172	0.000000	-1.000000	-1.000000	779522.000000	1772659447.030212
-44695.440000	-152827.785000	18505.710000	370.260000	2802.285000	7442.820000	3704.400000	6456.150000	2.792192	12.435782	12.820632	14.738194	14.715381	12.120601	6.090337	-2.101639	-3.601360	4.852680	-2.090620	0.865720	0.120483	0.461791	-1.000000	-1.000000	-1.000000	-1.000000	-1.000000	-1.000000	-1.000000	79.655172	0.000000	-1.000000	-1.000000	779523.000000	1772659447.030359
-44722.845000	-152864.370000	18460.575000	324.945000	2763.495000	7416.045000	3696.885000	6430.455000	-0.798525	4.974681	2.298427	3.801001	3.671096	1.446042	-6.122922	-10.610577	-3.601360	4.852680	-2.090620	0.865720	0.120483	0.461791	-1.000000	-1.000000	-1.000000	-1.000000	-1.000000	-1.000000	-1.000000	79.655172	0.000000	-1.000000	-1.000000	779524.000000	1772659447.030367
-44788.815000	-152933.445000	18412.380000	282.420000	2722.905000	7387.740000	3701.070000	6375.825000	-5.744401	-8.189384	-13.817481	-13.260482	-12.969414	-13.017310	-17.280183	-13.843608	-3.601360	4.852680	-2.090620	0.865720	0.120483	0.461791	-1.000000	-1.000000	-1.000000	-1.000000	-1.000000	-1.000000	-1.000000	79.655172	0.000000	-1.000000	-1.000000	779525.000000	1772659447.030375
-44739.585000	-152903.070000	18478.485000	339.120000	2768.670000	7425.405000	3752.370000	6458.985000	-10.209064	-20.171990	-24.993054	-25.560108	-24.963060	-22.033379	-19.504085	-11.721319	-3.601360	4.852680	-2.090620	0.865720	0.120483	0.461791	-1.000000	-1.000000	-1.000000	-1.000000	-1.000000	-1.000000	-1.000000	79.655172	0.000000	-1.000000	-1.000000	779526.000000	1772659447.030379
-44714.205000	-152849.070000	18534.285000	394.785000	2822.850000	7461.000000	3751.785000	6459.795000	-9.843259	-22.228510	-21.034892	-22.693014	-22.776447	-18.480903	-10.193172	-4.363474	-3.601360	4.852680	-2.090620	0.865720	0.120483	0.461791	-1.000000	-1.000000	-1.000000	-1.000000	-1.000000	-1.000000	-1.000000	79.655172	0.000000	-1.000000	-1.000000	779527.000000	1772659447.034730
-44724.510000	-152864.685000	18506.970000	371.880000	2804.310000	7440.795000	3717.360000	6447.600000	-2.216005	-10.491229	-1.919242	-4.310696	-5.883911	-3.562954	4.627774	6.272582	-3.601360	4.852680	-2.090620	0.865720	0.120483	0.461791	-1.000000	-1.000000	-1.000000	-1.000000	-1.000000	-1.000000	-1.000000	79.655172	0.000000	-1.000000	-1.000000	779528.000000	1772659447.034738
-44726.040000	-152872.290000	18496.080000	359.910000	2794.725000	7437.150000	3717.630000	6444.495000	7.693334	7.391195	18.587554	16.400009	13.816694	12.120467	14.301932	13.705317	-3.601360	4.852680	-2.090620	0.865720	0.120483	0.461791	-1.000000	-1.000000	-1.000000	-1.000000	-1.000000	-1.000000	-1.000000	79.655172	0.000000	-1.000000	-1.000000	779529.000000	1772659447.038987
-44798.670000	-152925.165000	18449.055000	316.260000	2756.385000	7407.945000	3703.680000	6358.455000	12.059552	18.145471	24.955508	23.992106	21.989853	17.671886	13.272119	12.956543	-3.601360	4.852680	-2.090620	0.865720	0.120483	0.461791	-1.000000	-1.000000	-1.000000	-1.000000	-1.000000	-1.000000	-1.000000	79.655172	0.000000	-1.000000	-1.000000	779530.000000	1772659447.038995
-44754.030000	-152894.610000	18471.510000	334.755000	2771.685000	7420.050000	3726.360000	6423.300000	7.987027	15.736737	14.574477	15.195298	15.168563	11.775334	5.686519	5.434293	-1.632820	5.554640	-1.510740	0.869688	0.118591	0.460082	-1.000000	-1.000000	-1.000000	-1.000000	-1.000000	-1.000000	-1.000000	79.655172	0.000000	-1.000000	-1.000000	779531.000000	1772659447.041387
-44706.915000	-152847.630000	18512.505000	372.555000	2804.355000	7446.465000	3744.090000	6465.960000	0.711790	6.815805	-0.492579	1.198254	2.986055	2.844477	0.528437	-1.741428	-1.632820	5.554640	-1.510740	0.869688	0.118591	0.460082	-1.000000	-1.000000	-1.000000	-1.000000	-1.000000	-1.000000	-1.000000	79.655172	0.000000	-1.000000	-1.000000	779532.000000	1772659447.041395
-44758.530000	-152882.820000	18486.090000	349.425000	2783.745000	7425.585000	3722.535000	6382.305000	-2.128190	2.299289	-6.295370	-4.515964	-2.574782	-0.298257	2.051410	-3.035122	-1.632820	5.554640	-1.510740	0.869688	0.118591	0.460082	-1.000000	-1.000000	-1.000000	-1.000000	-1.000000	-1.000000	-1.000000	79.655172	0.000000	-1.000000	-1.000000	779533.000000	1772659447.048096
-44787.015000	-152905.140000	18475.065000	342.585000	2782.665000	7423.245000	3709.395000	6365.790000	0.237468	4.633381	-1.215143	-0.059000	0.612721	2.576688	5.264553	-1.364359	-1.632820	5.554640	-1.510740	0.869688	0.118591	0.460082	-1.000000	-1.000000	-1.000000	-1.000000	-1.000000	-1.000000	-1.000000	79.655172	0.000000	-1.000000	-1.000000	779534.000000	1772659447.048106
-44775.270000	-152904.240000	18470.340000	336.780000	2778.480000	7417.890000	3701.520000	6391.035000	2.146331	6.903133	4.634907	5.185468	4.855174	4.746702	2.761988	-2.678216	-1.632820	5.554640	-1.510740	0.869688	0.118591	0.460082	-1.000000	-1.000000	-1.000000	-1.000000	-1.000000	-1.000000	-1.000000	79.655172	0.000000	-1.000000	-1.000000	779535.000000	1772659447.049101
-44761.185000	-152906.265000	18461.880000	325.755000	2768.220000	7409.655000	3709.125000	6420.510000	0.008489	2.541404	2.121203	2.421007	2.405634	0.981447	-5.697299	-6.447398	-1.632820	5.554640	-1.510740	0.869688	0.118591	0.460082	-1.000000	-1.000000	-1.000000	-1.000000	-1.000000	-1.000000	-1.000000	79.448276	0.000000	-1.000000	-1.000000	779536.000000	1772659447.049106
-44754.120000	-152897.400000	18472.410000	335.655000	2777.805000	7416.810000	3718.800000	6429.645000	-3.829529	-7.201232	-7.434374	-7.423772	-6.495885	-7.179561	-12.873372	-6.912064	-1.632820	5.554640	-1.510740	0.869688	0.118591	0.460082	-1.000000	-1.000000	-1.000000	-1.000000	-1.000000	-1.000000	-1.000000	79.448276	0.000000	-1.000000	-1.000000	779537.000000	1772659447.059268
-44701.830000	-152847.000000	18523.215000	386.235000	2827.305000	7462.890000	3756.645000	6495.570000	-4.205802	-14.278710	-14.350004	-14.987541	-13.784149	-12.795809	-11.953926	-0.147692	-1.632820	5.554640	-1.510740	0.869688	0.118591	0.460082	-1.000000	-1.000000	-1.000000	-1.000000	-1.000000	-1.000000	-1.000000	79.448276	0.000000	-1.000000	-1.000000	779538.000000	1772659447.059279
-44684.730000	-152824.680000	18543.060000	407.970000	2848.275000	7480.800000	3768.435000	6506.595000	2.176081	-11.311585	-10.357119	-11.683472	-11.351657	-9.689397	-2.498380	12.885599	-1.632820	5.554640	-1.510740	0.869688	0.118591	0.460082	-1.000000	-1.000000	-1.000000	-1.000000	-1.000000	-1.000000	-1.000000	79.448276	0.000000	-1.000000	-1.000000	779539.000000	1772659447.059291
-44759.655000	-152889.615000	18476.505000	338.535000	2780.730000	7414.965000	3711.240000	6401.205000	10.341545	-0.717266	1.915479	0.439925	-0.615324	0.210098	8.748919	22.449163	-1.632820	5.554640	-1.510740	0.869688	0.118591	0.460082	-1.000000	-1.000000	-1.000000	-1.000000	-1.000000	-1.000000	-1.000000	79.448276	0.000000	-1.000000	-1.000000	779540.000000	1772659447.059296
-44799.570000	-152915.265000	18452.340000	314.280000	2759.085000	7395.885000	3693.780000	6349.860000	8.887052	6.095304	10.426219	9.552998	7.706789	7.285137	12.370807	14.773005	-4.898460	4.700080	-1.129240	0.865171	0.120849	0.460509	-1.000000	-1.000000	-1.000000	-1.000000	-1.000000	-1.000000	-1.000000	79.448276	0.000000	-1.000000	-1.000000	779541.000000	1772659447.061270
-44782.740000	-152892.720000	18476.505000	339.795000	2786.085000	7420.995000	3711.510000	6364.170000	-3.904547	3.613416	8.482406	8.532026	7.020965	6.025483	5.888035	-8.491769	-4.898460	4.700080	-1.129240	0.865171	0.120849	0.460509	-1.000000	-1.000000	-1.000000	-1.000000	-1.000000	-1.000000	-1.000000	79.448276	0.000000	-1.000000	-1.000000	779542.000000	1772659447.061280
-44733.330000	-152862.885000	18498.555000	359.280000	2804.400000	7434.135000	3723.795000	6424.110000	-15.379051	-1.414004	1.536815	2.187191	1.689180	0.835826	-3.682299	-28.112991	-4.898460	4.700080	-1.129240	0.865171	0.120849	0.460509	-1.000000	-1.000000	-1.000000	-1.000000	-1.000000	-1.000000	-1.000000	79.448276	0.000000	-1.000000	-1.000000	779543.000000	1772659447.067367
-44730.810000	-152871.345000	18491.490000	351.495000	2795.220000	7422.885000	3720.240000	6444.450000	-14.711605	-1.902719	-2.957972	-2.264212	-1.865453	-2.305365	-8.568402	-28.859799	-4.898460	4.700080	-1.129240	0.865171	0.120849	0.460509	-1.000000	-1.000000	-1.000000	-1.000000	-1.000000	-1.000000	-1.000000	79.448276	0.000000	-1.000000	-1.000000	779544.000000	1772659447.067378
-44749.170000	-152889.525000	18480.240000	343.215000	2792.070000	7421.940000	3720.960000	6440.985000	-4.263939	0.972335	-3.522564	-3.069686	-2.301482	-2.292892	-6.957812	-12.602676	-4.898460	4.700080	-1.129240	0.865171	0.120849	0.460509	-1.000000	-1.000000	-1.000000	-1.000000	-1.000000	-1.000000	-1.000000	79.448276	0.000000	-1.000000	-1.000000	779545.000000	1772659447.069225
-44740.485000	-152884.620000	18481.770000	347.040000	2801.295000	7430.265000	3721.320000	6433.740000	6.004781	2.205088	-2.681340	-2.310655	-1.476552	-1.021036	-2.044815	7.263166	-4.898460	4.700080	-1.129240	0.865171	0.120849	0.460509	-1.000000	-1.000000	-1.000000	-1.000000	-1.000000	-1.000000	-1.000000	79.448276	0.000000	-1.000000	-1.000000	779546.000000	1772659447.069234
-44746.740000	-152892.720000	18471.330000	338.220000	2797.155000	7428.195000	3717.585000	6425.730000	9.081804	-0.606639	-3.067962	-2.472758	-1.422156	-0.578793	1.664456	18.008324	-4.898460	4.700080	-1.129240	0.865171	0.120849	0.460509	-1.000000	-1.000000	-1.000000	-1.000000	-1.000000	-1.000000	-1.000000	79.448276	0.000000	-1.000000	-1.000000	779547.000000	1772659447.076915
-44738.640000	-152881.965000	18482.445000	346.995000	2800.395000	7434.855000	3726.180000	6441.120000	5.271632	-5.281679	-4.539834	-3.716083	-2.367687	-1.252369	2.314487	16.376502	-4.898460	4.700080	-1.129240	0.865171	0.120849	0.460509	-1.000000	-1.000000	-1.000000	-1.000000	-1.000000	-1.000000	-1.000000	79.448276	0.000000	-1.000000	-1.000000	779548.000000	1772659447.076926
-44734.095000	-152872.470000	18491.355000	353.565000	2804.400000	7435.530000	3727.485000	6438.420000	0.352947	-6.527505	-3.450437	-2.776942	-1.722334	-0.566774	2.284032	9.083199	-4.898460	4.700080	-1.129240	0.865171	0.120849	0.460509	-1.000000	-1.000000	-1.000000	-1.000000	-1.000000	-1.000000	-1.000000	79.448276	0.000000	-1.000000	-1.000000	779549.000000	1772659447.082119
-44751.420000	-152878.680000	18491.310000	354.285000	2806.020000	7430.130000	3717.450000	6414.660000	-0.156605	-1.059165	2.735421	2.787332	2.582804	3.147370	4.021727	4.467941	-4.898460	4.700080	-1.129240	0.865171	0.120849	0.460509	-1.000000	-1.000000	-1.000000	-1.000000	-1.000000	-1.000000	-1.000000	79.448276	0.000000	-1.000000	-1.000000	779550.000000	1772659447.082130
-44733.150000	-152863.290000	18507.375000	368.100000	2818.485000	7441.065000	3728.790000	6437.520000	3.225698	7.786973	10.595461	9.780165	7.929843	7.110041	5.918845	3.646363	-6.622840	3.677660	-1.739640	0.862241	0.121643	0.459227	-1.000000	-1.000000	-1.000000	-1.000000	-1.000000	-1.000000	-1.000000	79.448276	0.000000	-1.000000	-1.000000	779551.000000	1772659447.082141
-44716.275000	-152856.495000	18507.645000	365.175000	2816.370000	7442.460000	3732.120000	6460.380000	5.380757	13.001484	13.685603	12.166758	9.360493	7.236618	5.055835	1.932159	-6.622840	3.677660	-1.739640	0.862241	0.121643	0.459227	-1.000000	-1.000000	-1.000000	-1.000000	-1.000000	-1.000000	-1.000000	79.448276	0.000000	-1.000000	-1.000000	779552.000000	1772659447.082146
-44732.880000	-152867.430000	18499.725000	357.750000	2809.485000	7435.395000	3723.660000	6432.390000	3.079777	10.817930	9.211751	7.513621	5.103810	2.955030	1.200658	-3.642888	-6.622840	3.677660	-1.739640	0.862241	0.121643	0.459227	-1.000000	-1.000000	-1.000000	-1.000000	-1.000000	-1.000000	-1.000000	79.448276	0.000000	-1.000000	-1.000000	779553.000000	1772659447.091818
-44744.670000	-152875.440000	18492.525000	353.025000	2808.540000	7435.530000	3726.405000	6419.700000	-2.605356	2.927359	-0.150172	-1.381825	-2.292176	-3.104159	-3.631455	-11.468797	-6.622840	3.677660	-1.739640	0.862241	0.121643	0.459227	-1.000000	-1.000000	-1.000000	-1.000000	-1.000000	-1.000000	-1.000000	79.448276	0.000000	-1.000000	-1.000000	779554.000000	1772659447.091826
-44745.120000	-152878.410000	18489.060000	354.420000	2818.305000	7441.830000	3727.620000	6423.930000	-8.521493	-6.358597	-9.478194	-9.705948	-8.806398	-7.970746	-7.147436	-17.039315	-6.622840	3.677660	-1.739640	0.862241	0.121643	0.459227	-1.000000	-1.000000	-1.000000	-1.000000	-1.000000	-1.000000	-1.000000	79.448276	0.000000	-1.000000	-1.000000	779555.000000	1772659447.091835
-44747.415000	-152875.620000	18492.750000	360.090000	2828.160000	7449.075000	3731.940000	6421.680000	-11.513568	-12.828496	-14.612786	-13.588678	-11.193824	-9.567810	-7.813575	-16.101596	-6.622840	3.677660	-1.739640	0.862241	0.121643	0.459227	-1.000000	-1.000000	-1.000000	-1.000000	-1.000000	-1.000000	-1.000000	79.448276	0.000000	-1.000000	-1.000000	779556.000000	1772659447.091839
-44742.870000	-152873.415000	18492.210000	352.935000	2816.595000	7438.905000	3731.580000	6425.325000	-9.636948	-13.623942	-13.409426	-11.408499	-8.225198	-7.085589	-5.271135	-7.979635	-6.622840	3.677660	-1.739640	0.862241	0.121643	0.459227	-1.000000	-1.000000	-1.000000	-1.000000	-1.000000	-1.000000	-1.000000	79.448276	0.000000	-1.000000	-1.000000	779557.000000	1772659447.094756
-44746.830000	-152882.820000	18480.690000	338.805000	2794.095000	7427.610000	3731.445000	6424.110000	-3.050999	-8.543770	-6.798191	-4.740878	-1.988208	-1.816322	-0.480441	4.325788	-6.622840	3.677660	-1.739640	0.862241	0.121643	0.459227	-1.000000	-1.000000	-1.000000	-1.000000	-1.000000	-1.000000	-1.000000	79.448276	0.000000	-1.000000	-1.000000	779558.000000	1772659447.094766
-44751.465000	-152877.150000	18489.060000	349.740000	2805.480000	7437.735000	3741.795000	6415.605000	5.519186	-0.430849	1.465274	2.487422	3.332396	3.352454	4.492847	15.747587	-6.622840	3.677660	-1.739640	0.862241	0.121643	0.459227	-1.000000	-1.000000	-1.000000	-1.000000	-1.000000	-1.000000	-1.000000	79.448276	0.000000	-1.000000	-1.000000	779559.000000	1772659447.097343
-44738.730000	-152861.310000	18506.025000	368.775000	2826.405000	7451.955000	3747.195000	6419.115000	11.359075	6.585062	7.429057	7.074631	5.399266	6.184071	7.311512	20.124136	-6.622840	3.677660	-1.739640	0.862241	0.121643	0.459227	-1.000000	-1.000000	-1.000000	-1.000000	-1.000000	-1.000000	-1.000000	79.448276	0.000000	-1.000000	-1.000000	779560.000000	1772659447.097348
-44732.610000	-152865.720000	18503.775000	366.120000	2824.785000	7445.970000	3734.955000	6430.365000	11.188239	9.705118	9.471200	8.411041	5.181433	6.330930	6.549375	14.396491	-3.952340	2.929920	-1.510740	0.863401	0.116821	0.456664	-1.000000	-1.000000	-1.000000	-1.000000	-1.000000	-1.000000	-1.000000	79.448276	0.000000	-1.000000	-1.000000	779561.000000	1772659447.103375
-44728.830000	-152866.395000	18503.190000	365.355000	2828.160000	7447.770000	3735.135000	6439.815000	6.428186	8.754278	8.265595	7.385690	4.429310	4.586725	2.625500	2.992347	-3.952340	2.929920	-1.510740	0.863401	0.116821	0.456664	-1.000000	-1.000000	-1.000000	-1.000000	-1.000000	-1.000000	-1.000000	79.448276	0.000000	-1.000000	-1.000000	779562.000000	1772659447.103383
-44687.070000	-152826.570000	18539.190000	399.555000	2866.005000	7480.305000	3758.445000	6484.905000	1.650164	5.842340	5.682388	5.233200	3.954692	2.257573	-2.011548	-5.526059	-3.952340	2.929920	-1.510740	0.863401	0.116821	0.456664	-1.000000	-1.000000	-1.000000	-1.000000	-1.000000	-1.000000	-1.000000	79.448276	0.000000	-1.000000	-1.000000	779563.000000	1772659447.107050
-44696.790000	-152842.230000	18524.610000	386.190000	2854.530000	7463.970000	3734.460000	6485.130000	0.016536	3.366957	3.480606	3.055630	3.658812	0.480548	-4.717251	-6.263766	-3.952340	2.929920	-1.510740	0.863401	0.116821	0.456664	-1.000000	-1.000000	-1.000000	-1.000000	-1.000000	-1.000000	-1.000000	79.448276	0.000000	-1.000000	-1.000000	779564.000000	1772659447.107058
-44752.320000	-152887.590000	18486.135000	349.560000	2809.485000	7435.710000	3732.570000	6427.080000	-0.271798	0.759673	0.978855	0.245532	1.796160	-1.338651	-5.148034	-2.403259	-3.952340	2.929920	-1.510740	0.863401	0.116821	0.456664	-1.000000	-1.000000	-1.000000	-1.000000	-1.000000	-1.000000	-1.000000	79.448276	0.000000	-1.000000	-1.000000	779565.000000	1772659447.109278
-44754.165000	-152889.165000	18479.970000	339.975000	2798.775000	7434.090000	3751.110000	6426.855000	-3.431505	-4.185385	-3.737324	-4.448217	-3.190469	-4.159195	-4.026005	-1.132953	-3.952340	2.929920	-1.510740	0.863401	0.116821	0.456664	-1.000000	-1.000000	-1.000000	-1.000000	-1.000000	-1.000000	-1.000000	79.448276	0.000000	-1.000000	-1.000000	779566.000000	1772659447.109287
-44758.350000	-152901.450000	18458.325000	313.965000	2776.770000	7416.045000	3742.290000	6415.695000	-9.088667	-10.113842	-9.583602	-9.721292	-9.242568	-6.761218	-1.401209	-4.616554	-3.952340	2.929920	-1.510740	0.863401	0.116821	0.456664	-1.000000	-1.000000	-1.000000	-1.000000	-1.000000	-1.000000	-1.000000	79.448276	0.000000	-1.000000	-1.000000	779567.000000	1772659447.117031
-44744.175000	-152885.970000	18476.100000	331.065000	2791.035000	7419.150000	3731.040000	6424.830000	-12.255672	-12.812084	-13.011433	-12.598524	-12.452659	-7.452524	1.441049	-8.782949	-3.952340	2.929920	-1.510740	0.863401	0.116821	0.456664	-1.000000	-1.000000	-1.000000	-1.000000	-1.000000	-1.000000	-1.000000	79.448276	0.000000	-1.000000	-1.000000	779568.000000	1772659447.117040
-44672.895000	-152814.240000	18551.160000	407.790000	2868.300000	7479.405000	3773.070000	6508.170000	-8.905683	-9.062101	-10.471565	-9.973018	-9.661054	-5.080215	2.813285	-8.529892	-3.952340	2.929920	-1.510740	0.863401	0.116821	0.456664	-1.000000	-1.000000	-1.000000	-1.000000	-1.000000	-1.000000	-1.000000	79.448276	0.000000	-1.000000	-1.000000	779569.000000	1772659447.117303
-44729.640000	-152854.065000	18508.005000	366.255000	2838.735000	7447.500000	3731.355000	6416.505000	0.410972	1.050669	-0.927942	-0.575487	0.010388	1.050887	3.121606	-2.544634	-3.952340	2.929920	-1.510740	0.863401	0.116821	0.456664	-1.000000	-1.000000	-1.000000	-1.000000	-1.000000	-1.000000	-1.000000	79.448276	0.000000	-1.000000	-1.000000	779570.000000	1772659447.117311
-44760.645000	-152873.595000	18468.990000	329.805000	2801.070000	7416.855000	3685.905000	6372.405000	8.786540	11.311710	9.610061	10.001388	10.832935	7.462957	1.790151	2.935048	-0.793520	2.456860	-2.472120	0.862058	0.113220	0.456969	-1.000000	-1.000000	-1.000000	-1.000000	-1.000000	-1.000000	-1.000000	79.448276	0.000000	-1.000000	-1.000000	779571.000000	1772659447.124779
-44734.140000	-152845.830000	18489.645000	351.495000	2807.730000	7433.730000	3701.385000	6398.910000	8.975589	13.802922	12.389094	13.074464	13.622180	8.288483	-2.727310	1.106457	-0.793520	2.456860	-2.472120	0.862058	0.113220	0.456969	-1.000000	-1.000000	-1.000000	-1.000000	-1.000000	-1.000000	-1.000000	79.448276	0.000000	-1.000000	-1.000000	779572.000000	1772659447.124787
-44735.265000	-152861.220000	18491.940000	359.910000	2816.235000	7438.545000	3713.085000	6416.460000	2.821258	8.183553	6.958881	7.949190	7.051651	3.612656	-7.297399	-4.339466	-0.793520	2.456860	-2.472120	0.862058	0.113220	0.456969	-1.000000	-1.000000	-1.000000	-1.000000	-1.000000	-1.000000	-1.000000	79.448276	0.000000	-1.000000	-1.000000	779573.000000	1772659447.125235
-44746.965000	-152901.585000	18488.970000	353.745000	2815.785000	7431.750000	3723.345000	6426.360000	-1.799612	0.137823	0.520590	1.588361	-1.008990	-0.820849	-6.440356	-3.801405	-0.793520	2.456860	-2.472120	0.862058	0.113220	0.456969	-1.000000	-1.000000	-1.000000	-1.000000	-1.000000	-1.000000	-1.000000	79.448276	0.000000	-1.000000	-1.000000	779574.000000	1772659447.125243
-44758.575000	-152913.915000	18476.820000	332.910000	2786.445000	7411.905000	3720.870000	6423.975000	-1.161505	-6.220649	-1.723137	-1.030562	-3.817433	-1.570942	0.182077	5.437732	-0.793520	2.456860	-2.472120	0.862058	0.113220	0.456969	-1.000000	-1.000000	-1.000000	-1.000000	-1.000000	-1.000000	-1.000000	79.448276	0.000000	-1.000000	-1.000000	779575.000000	1772659447.129259
-44748.540000	-152904.690000	18464.535000	321.210000	2774.295000	7405.695000	3715.065000	6419.700000	2.221672	-9.265163	-0.531542	-0.805882	-2.094358	-0.117116	7.717320	16.443426	-0.793520	2.456860	-2.472120	0.862058	0.113220	0.456969	-1.000000	-1.000000	-1.000000	-1.000000	-1.000000	-1.000000	-1.000000	79.448276	0.000000	-1.000000	-1.000000	779576.000000	1772659447.129269
-44744.940000	-152872.245000	18506.385000	368.730000	2821.860000	7441.605000	3703.905000	6383.610000	4.015153	-8.256385	0.504871	-0.869568	-0.201100	0.855118	10.952121	19.232047	-0.793520	2.456860	-2.472120	0.862058	0.113220	0.456969	-1.000000	-1.000000	-1.000000	-1.000000	-1.000000	-1.000000	-1.000000	79.448276	0.000000	-1.000000	-1.000000	779577.000000	1772659447.134713
-44707.455000	-152825.085000	18557.415000	420.885000	2872.935000	7486.200000	3725.370000	6418.530000	2.188310	-3.476092	0.071876	-1.696186	0.304329	1.033746	8.046380	9.477454	-0.793520	2.456860	-2.472120	0.862058	0.113220	0.456969	-1.000000	-1.000000	-1.000000	-1.000000	-1.000000	-1.000000	-1.000000	79.448276	0.000000	-1.000000	-1.000000	779578.000000	1772659447.134724
-44689.725000	-152813.295000	18563.580000	425.385000	2879.010000	7499.160000	3759.165000	6458.445000	-0.221325	4.399718	0.823902	-0.420249	1.691219	2.522539	2.831986	-4.778328	-0.793520	2.456860	-2.472120	0.862058	0.113220	0.456969	-1.000000	-1.000000	-1.000000	-1.000000	-1.000000	-1.000000	-1.000000	79.448276	0.000000	-1.000000	-1.000000	779579.000000	1772659447.142874
-44727.435000	-152866.665000	18507.780000	369.990000	2828.160000	7451.775000	3745.170000	6440.220000	0.403232	12.030346	3.594377	3.198487	4.449195	5.255074	0.938770	-10.917092	-0.793520	2.456860	-2.472120	0.862058	0.113220	0.456969	-1.000000	-1.000000	-1.000000	-1.000000	-1.000000	-1.000000	-1.000000	79.448276	0.000000	-1.000000	-1.000000	779580.000000	1772659447.142884
-44750.880000	-152896.995000	18475.605000	337.230000	2795.895000	7421.400000	3730.545000	6433.650000	1.291040	12.287597	3.252980	3.379273	3.965184	4.338499	1.938818	-7.525506	-1.464960	1.083460	-3.235120	0.863340	0.114685	0.457640	-1.000000	-1.000000	-1.000000	-1.000000	-1.000000	-1.000000	-1.000000	79.448276	0.000000	-1.000000	-1.000000	779581.000000	1772659447.145027
-44744.535000	-152880.570000	18493.875000	354.960000	2804.355000	7432.920000	3735.045000	6437.835000	-1.537912	3.119663	-3.445827	-3.338367	-2.653081	-2.988799	0.784130	-2.531897	-1.464960	1.083460	-3.235120	0.863340	0.114685	0.457640	-1.000000	-1.000000	-1.000000	-1.000000	-1.000000	-1.000000	-1.000000	79.448276	0.000000	-1.000000	-1.000000	779582.000000	1772659447.145036
-44749.890000	-152880.255000	18491.355000	352.890000	2799.810000	7438.365000	3741.435000	6420.960000	-5.868839	-7.362867	-11.215424	-11.310281	-10.580762	-11.400033	-4.195254	-1.186140	-1.464960	1.083460	-3.235120	0.863340	0.114685	0.457640	-1.000000	-1.000000	-1.000000	-1.000000	-1.000000	-1.000000	-1.000000	79.448276	0.000000	-1.000000	-1.000000	779583.000000	1772659447.145244
-44739.900000	-152868.960000	18511.020000	380.880000	2834.505000	7464.420000	3760.425000	6450.660000	-7.041774	-10.418969	-12.422625	-12.142284	-11.999715	-12.930910	-9.376876	-2.862250	-1.464960	1.083460	-3.235120	0.863340	0.114685	0.457640	-1.000000	-1.000000	-1.000000	-1.000000	-1.000000	-1.000000	-1.000000	79.448276	0.000000	-1.000000	-1.000000	779584.000000	1772659447.145250
-44697.645000	-152839.890000	18539.730000	408.870000	2857.815000	7482.735000	3761.640000	6486.480000	-3.412995	-5.387966	-5.074514	-3.614764	-4.138095	-5.334343	-10.191181	-3.411882	-1.464960	1.083460	-3.235120	0.863340	0.114685	0.457640	-1.000000	-1.000000	-1.000000	-1.000000	-1.000000	-1.000000	-1.000000	79.448276	0.000000	-1.000000	-1.000000	779585.000000	1772659447.154271
-44678.880000	-152825.850000	18541.980000	398.385000	2836.260000	7469.460000	3741.930000	6480.225000	3.056990	1.889053	5.370831	7.655561	6.690527	5.235074	-6.198505	-0.120297	-1.464960	1.083460	-3.235120	0.863340	0.114685	0.457640	-1.000000	-1.000000	-1.000000	-1.000000	-1.000000	-1.000000	-1.000000	79.448276	0.000000	-1.000000	-1.000000	779586.000000	1772659447.154280
-44716.635000	-152866.665000	18498.465000	352.305000	2793.735000	7432.920000	3727.440000	6438.420000	7.587663	4.540158	10.069743	11.356647	9.804317	9.202550	-1.634539	3.596586	-1.464960	1.083460	-3.235120	0.863340	0.114685	0.457640	-1.000000	-1.000000	-1.000000	-1.000000	-1.000000	-1.000000	-1.000000	79.448276	0.000000	-1.000000	-1.000000	779587.000000	1772659447.154290
-44773.515000	-152928.315000	18440.595000	298.440000	2744.055000	7385.490000	3704.760000	6390.360000	5.298024	-0.547888	4.715534	3.509843	1.407713	2.750877	-0.455285	1.604655	-1.464960	1.083460	-3.235120	0.863340	0.114685	0.457640	-1.000000	-1.000000	-1.000000	-1.000000	-1.000000	-1.000000	-1.000000	79.448276	0.000000	-1.000000	-1.000000	779588.000000	1772659447.154294
-44737.965000	-152890.200000	18475.875000	336.375000	2782.665000	7419.780000	3723.525000	6424.560000	-2.983001	-9.189275	-5.471024	-8.637321	-10.443078	-7.775110	-1.921916	-6.222649	-1.464960	1.083460	-3.235120	0.863340	0.114685	0.457640	-1.000000	-1.000000	-1.000000	-1.000000	-1.000000	-1.000000	-1.000000	79.448276	0.000000	-1.000000	-1.000000	779589.000000	1772659447.157415
-44746.605000	-152887.770000	18476.280000	337.905000	2785.140000	7420.365000	3720.375000	6403.545000	-9.521921	-12.015763	-10.035132	-13.102794	-13.457598	-11.515771	-1.880321	-12.478904	-1.464960	1.083460	-3.235120	0.863340	0.114685	0.457640	-1.000000	-1.000000	-1.000000	-1.000000	-1.000000	-1.000000	-1.000000	79.448276	0.000000	-1.000000	-1.000000	779590.000000	1772659447.157424
-44750.655000	-152894.250000	18477.585000	338.805000	2785.230000	7419.195000	3724.335000	6410.700000	-8.268508	-4.536569	-4.388420	-5.493381	-3.799688	-4.371541	1.716022	-10.823945	-4.150720	2.395820	-4.471180	0.863767	0.118286	0.458434	-1.000000	-1.000000	-1.000000	-1.000000	-1.000000	-1.000000	-1.000000	79.448276	0.000000	-1.000000	-1.000000	779591.000000	1772659447.163342
-44742.375000	-152886.465000	18483.885000	341.955000	2780.685000	7413.345000	3719.475000	6421.680000	-0.832877	7.890969	6.328353	7.649010	10.840861	7.475245	6.432224	-1.728286	-4.150720	2.395820	-4.471180	0.863767	0.118286	0.458434	-1.000000	-1.000000	-1.000000	-1.000000	-1.000000	-1.000000	-1.000000	79.448276	0.000000	-1.000000	-1.000000	779592.000000	1772659447.163351
-44755.560000	-152900.865000	18470.970000	331.830000	2775.510000	7410.060000	3718.755000	6416.280000	6.805407	16.314179	13.805943	16.497890	19.556127	14.889549	8.596299	9.254151	-4.150720	2.395820	-4.471180	0.863767	0.118286	0.458434	-1.000000	-1.000000	-1.000000	-1.000000	-1.000000	-1.000000	-1.000000	79.448276	0.000000	-1.000000	-1.000000	779593.000000	1772659447.170879
-44746.290000	-152897.220000	18475.245000	339.750000	2792.745000	7422.525000	3727.575000	6431.760000	8.939902	14.907833	12.597646	15.127463	16.719400	13.310286	7.093914	15.473160	-4.150720	2.395820	-4.471180	0.863767	0.118286	0.458434	-1.000000	-1.000000	-1.000000	-1.000000	-1.000000	-1.000000	-1.000000	79.448276	0.000000	-1.000000	-1.000000	779594.000000	1772659447.170886
-44723.565000	-152880.570000	18491.535000	358.065000	2814.885000	7443.360000	3749.130000	6467.130000	4.612699	4.764647	3.665723	5.346011	5.709393	5.396752	4.175711	14.823335	-4.150720	2.395820	-4.471180	0.863767	0.118286	0.458434	-1.000000	-1.000000	-1.000000	-1.000000	-1.000000	-1.000000	-1.000000	79.448276	0.000000	-1.000000	-1.000000	779595.000000	1772659447.170893
-44733.465000	-152883.045000	18491.310000	355.320000	2795.040000	7439.940000	3740.760000	6443.055000	-0.751176	-5.867595	-5.306631	-4.293283	-4.441194	-1.690174	2.626477	10.892150	-4.150720	2.395820	-4.471180	0.863767	0.118286	0.458434	-1.000000	-1.000000	-1.000000	-1.000000	-1.000000	-1.000000	-1.000000	79.448276	0.000000	-1.000000	-1.000000	779596.000000	1772659447.170897
-44755.785000	-152898.615000	18476.100000	339.075000	2774.295000	7426.755000	3729.960000	6408.360000	-1.781530	-8.948734	-7.105115	-6.746752	-7.953483	-3.261977	2.320392	6.314778	-4.150720	2.395820	-4.471180	0.863767	0.118286	0.458434	-1.000000	-1.000000	-1.000000	-1.000000	-1.000000	-1.000000	-1.000000	79.448276	0.000000	-1.000000	-1.000000	779597.000000	1772659447.173482
-44747.595000	-152890.515000	18482.400000	345.015000	2786.310000	7429.635000	3728.835000	6413.310000	0.681298	-4.499867	-2.428839	-3.189665	-6.388545	-1.170252	0.847257	-0.066632	-4.150720	2.395820	-4.471180	0.863767	0.118286	0.458434	-1.000000	-1.000000	-1.000000	-1.000000	-1.000000	-1.000000	-1.000000	79.448276	0.000000	-1.000000	-1.000000	779598.000000	1772659447.173490
-44698.005000	-152846.955000	18523.215000	385.560000	2827.620000	7464.780000	3757.050000	6474.645000	3.375929	2.137818	3.125333	1.033488	-3.419983	0.424212	-2.499478	-7.076847	-4.150720	2.395820	-4.471180	0.863767	0.118286	0.458434	-1.000000	-1.000000	-1.000000	-1.000000	-1.000000	-1.000000	-1.000000	79.448276	0.000000	-1.000000	-1.000000	779599.000000	1772659447.177328
-44692.920000	-152817.345000	18557.235000	422.640000	2864.745000	7496.820000	3780.855000	6475.410000	5.593543	7.551947	6.503522	3.733530	0.321265	0.838658	-5.148073	-9.669599	-4.150720	2.395820	-4.471180	0.863767	0.118286	0.458434	-1.000000	-1.000000	-1.000000	-1.000000	-1.000000	-1.000000	-1.000000	79.448276	0.000000	-1.000000	-1.000000	779600.000000	1772659447.177336
-44769.555000	-152867.160000	18516.735000	382.635000	2824.020000	7454.430000	3736.350000	6363.765000	5.619263	9.626955	6.858313	4.679364	4.260572	0.829336	-5.250699	-8.015687	-4.379620	2.945180	-3.204600	0.865293	0.120544	0.459349	-1.000000	-1.000000	-1.000000	-1.000000	-1.000000	-1.000000	-1.000000	79.448276	0.000000	-1.000000	-1.000000	779601.000000	1772659447.186759
-44745.795000	-152871.570000	18508.230000	370.755000	2814.705000	7445.880000	3734.505000	6397.920000	-0.106261	5.202129	2.370587	1.669554	4.375124	-1.475099	-4.724126	-8.491242	-4.379620	2.945180	-3.204600	0.865293	0.120544	0.459349	-1.000000	-1.000000	-1.000000	-1.000000	-1.000000	-1.000000	-1.000000	79.448276	0.000000	-1.000000	-1.000000	779602.000000	1772659447.186768
-44723.205000	-152891.505000	18481.230000	342.900000	2791.305000	7426.575000	3734.370000	6447.465000	-9.749125	-5.772023	-7.168790	-6.563705	-2.352331	-7.595045	-5.527169	-11.496275	-4.379620	2.945180	-3.204600	0.865293	0.120544	0.459349	-1.000000	-1.000000	-1.000000	-1.000000	-1.000000	-1.000000	-1.000000	79.448276	0.000000	-1.000000	-1.000000	779603.000000	1772659447.189530
-44719.740000	-152882.010000	18489.285000	347.985000	2787.210000	7425.810000	3729.960000	6450.255000	-15.811495	-17.432537	-17.264614	-16.185319	-12.610245	-14.591072	-6.523596	-10.051474	-4.379620	2.945180	-3.204600	0.865293	0.120544	0.459349	-1.000000	-1.000000	-1.000000	-1.000000	-1.000000	-1.000000	-1.000000	79.448276	0.000000	-1.000000	-1.000000	779604.000000	1772659447.189539
-44680.905000	-152836.650000	18541.035000	404.190000	2842.695000	7477.470000	3761.730000	6512.625000	-12.493653	-20.973018	-19.982388	-19.088053	-17.554980	-15.902157	-4.960184	0.054083	-4.379620	2.945180	-3.204600	0.865293	0.120544	0.459349	-1.000000	-1.000000	-1.000000	-1.000000	-1.000000	-1.000000	-1.000000	79.448276	0.000000	-1.000000	-1.000000	779605.000000	1772659447.189549
-44652.465000	-152793.225000	18586.845000	453.645000	2902.590000	7525.260000	3801.420000	6544.530000	0.141440	-10.962990	-9.676402	-8.983094	-9.435787	-6.286604	1.378334	16.310085	-4.379620	2.945180	-3.204600	0.865293	0.120544	0.459349	-1.000000	-1.000000	-1.000000	-1.000000	-1.000000	-1.000000	-1.000000	79.448276	0.000000	-1.000000	-1.000000	779606.000000	1772659447.189554
-44735.130000	-152881.515000	18487.935000	350.775000	2796.390000	7439.805000	3745.305000	6426.270000	13.957858	6.845747	8.221209	9.051883	7.765672	10.058734	10.185512	28.274523	-4.379620	2.945180	-3.204600	0.865293	0.120544	0.459349	-1.000000	-1.000000	-1.000000	-1.000000	-1.000000	-1.000000	-1.000000	79.448276	0.000000	-1.000000	-1.000000	779607.000000	1772659447.193342
-44793.585000	-152944.515000	18424.440000	287.190000	2722.185000	7375.545000	3704.625000	6366.330000	15.868302	16.617846	17.549220	18.510451	17.246062	18.689788	13.125347	21.607618	-4.379620	2.945180	-3.204600	0.865293	0.120544	0.459349	-1.000000	-1.000000	-1.000000	-1.000000	-1.000000	-1.000000	-1.000000	79.448276	0.000000	-1.000000	-1.000000	779608.000000	1772659447.193350
-44768.700000	-152920.845000	18448.425000	310.185000	2753.325000	7392.285000	3713.400000	6395.760000	2.192546	9.201990	8.938601	9.554818	8.305021	10.437614	5.098057	-4.163318	-4.379620	2.945180	-3.204600	0.865293	0.120544	0.459349	-1.000000	-1.000000	-1.000000	-1.000000	-1.000000	-1.000000	-1.000000	79.448276	0.000000	-1.000000	-1.000000	779609.000000	1772659447.203088
-44752.005000	-152899.875000	18472.365000	336.150000	2784.960000	7423.155000	3723.705000	6404.625000	-13.928896	-5.846724	-7.430939	-7.570861	-8.743018	-5.802499	-7.219718	-28.792328	-4.379620	2.945180	-3.204600	0.865293	0.120544	0.459349	-1.000000	-1.000000	-1.000000	-1.000000	-1.000000	-1.000000	-1.000000	79.448276	0.000000	-1.000000	-1.000000	779610.000000	1772659447.203096
-44748.315000	-152891.640000	18482.175000	347.580000	2794.095000	7433.730000	3727.845000	6407.460000	-17.819253	-12.350165	-14.297010	-15.049965	-15.666455	-13.626057	-12.782179	-33.357401	-1.968540	2.853620	-2.441600	0.861021	0.120910	0.464782	-1.000000	-1.000000	-1.000000	-1.000000	-1.000000	-1.000000	-1.000000	79.448276	0.000000	-1.000000	-1.000000	779611.000000	1772659447.203105
-44748.495000	-152896.230000	18476.640000	342.045000	2786.355000	7426.845000	3728.520000	6417.765000	-8.699219	-5.287714	-6.017946	-6.748212	-6.699264	-7.129974	-8.136243	-18.750075	-1.968540	2.853620	-2.441600	0.861021	0.120910	0.464782	-1.000000	-1.000000	-1.000000	-1.000000	-1.000000	-1.000000	-1.000000	79.448276	0.000000	-1.000000	-1.000000	779612.000000	1772659447.203110
-44742.870000	-152894.610000	18477.405000	340.380000	2782.215000	7420.905000	3727.260000	6428.025000	4.580679	7.830410	9.217548	9.028005	9.404264	6.256874	1.722511	2.198124	-1.968540	2.853620	-2.441600	0.861021	0.120910	0.464782	-1.000000	-1.000000	-1.000000	-1.000000	-1.000000	-1.000000	-1.000000	79.448276	0.000000	-1.000000	-1.000000	779613.000000	1772659447.205400
-44742.825000	-152890.200000	18484.335000	346.680000	2786.805000	7422.255000	3730.725000	6428.205000	13.556752	16.201999	19.023681	19.233704	19.648435	14.857223	9.302478	17.696009	-1.968540	2.853620	-2.441600	0.861021	0.120910	0.464782	-1.000000	-1.000000	-1.000000	-1.000000	-1.000000	-1.000000	-1.000000	79.448276	0.000000	-1.000000	-1.000000	779614.000000	1772659447.205406
-44734.500000	-152880.210000	18495.945000	358.920000	2798.775000	7432.605000	3737.880000	6438.330000	14.688810	14.562786	17.238530	17.247917	17.376286	12.829414	10.206392	22.316379	-1.968540	2.853620	-2.441600	0.861021	0.120910	0.464782	-1.000000	-1.000000	-1.000000	-1.000000	-1.000000	-1.000000	-1.000000	79.448276	0.000000	-1.000000	-1.000000	779615.000000	1772659447.210795
-44706.330000	-152864.145000	18507.195000	371.385000	2812.185000	7444.935000	3752.010000	6478.200000	11.131348	7.079948	8.477149	7.997143	7.622495	4.838777	6.414427	19.587535	-1.968540	2.853620	-2.441600	0.861021	0.120910	0.464782	-1.000000	-1.000000	-1.000000	-1.000000	-1.000000	-1.000000	-1.000000	79.448276	0.000000	-1.000000	-1.000000	779616.000000	1772659447.210804
-44692.290000	-152857.485000	18511.965000	373.500000	2814.390000	7448.895000	3758.760000	6492.240000	8.793324	1.660089	1.447709	0.793101	0.344145	-0.333436	3.206602	16.741569	-1.968540	2.853620	-2.441600	0.861021	0.120910	0.464782	-1.000000	-1.000000	-1.000000	-1.000000	-1.000000	-1.000000	-1.000000	79.448276	0.000000	-1.000000	-1.000000	779617.000000	1772659447.213360
-44748.225000	-152879.130000	18500.355000	365.355000	2807.370000	7445.475000	3743.865000	6411.330000	7.782710	0.060446	-1.524626	-1.885498	-1.764673	-0.427238	2.306021	13.745127	-1.968540	2.853620	-2.441600	0.861021	0.120910	0.464782	-1.000000	-1.000000	-1.000000	-1.000000	-1.000000	-1.000000	-1.000000	79.448276	0.000000	-1.000000	-1.000000	779618.000000	1772659447.213368
-44762.490000	-152882.415000	18495.855000	361.215000	2804.040000	7438.950000	3726.405000	6381.360000	2.199939	-2.265511	-4.408955	-4.228771	-3.555285	-0.241921	0.780925	3.672631	-1.968540	2.853620	-2.441600	0.861021	0.120910	0.464782	-1.000000	-1.000000	-1.000000	-1.000000	-1.000000	-1.000000	-1.000000	79.448276	0.000000	-1.000000	-1.000000	779619.000000	1772659447.217510
-44748.945000	-152880.390000	18499.500000	365.670000	2809.845000	7442.145000	3727.305000	6399.540000	-9.698573	-7.754355	-9.399955	-8.722515	-8.020941	-3.561368	-3.722716	-14.577905	-1.968540	2.853620	-2.441600	0.861021	0.120910	0.464782	-1.000000	-1.000000	-1.000000	-1.000000	-1.000000	-1.000000	-1.000000	79.448276	0.000000	-1.000000	-1.000000	779620.000000	1772659447.217517
-44699.400000	-152855.640000	18520.830000	384.120000	2824.650000	7464.735000	3760.920000	6465.285000	-20.318917	-12.939002	-13.477493	-12.612383	-12.202118	-8.312075	-8.857153	-30.242467	-0.656180	3.998120	-2.044840	0.862486	0.122009	0.463805	-1.000000	-1.000000	-1.000000	-1.000000	-1.000000	-1.000000	-1.000000	79.448276	0.000000	-1.000000	-1.000000	779621.000000	1772659447.221407
-44667.225000	-152822.610000	18549.045000	407.340000	2836.800000	7494.300000	3794.220000	6500.115000	-20.262943	-12.700579	-12.393813	-11.832336	-11.788457	-9.546393	-9.542225	-30.572914	-0.656180	3.998120	-2.044840	0.862486	0.122009	0.463805	-1.000000	-1.000000	-1.000000	-1.000000	-1.000000	-1.000000	-1.000000	79.448276	0.000000	-1.000000	-1.000000	779622.000000	1772659447.221416
-44734.590000	-152875.530000	18504.945000	369.135000	2806.830000	7451.010000	3733.605000	6411.330000	-9.436143	-6.806565	-6.471439	-6.614935	-7.066718	-6.127541	-4.927022	-15.408128	-0.656180	3.998120	-2.044840	0.862486	0.122009	0.463805	-1.000000	-1.000000	-1.000000	-1.000000	-1.000000	-1.000000	-1.000000	79.448276	0.000000	-1.000000	-1.000000	779623.000000	1772659447.225436
-44737.515000	-152892.405000	18484.380000	351.810000	2795.850000	7429.320000	3713.580000	6433.110000	2.505505	-0.773814	-0.813878	-1.488705	-2.210845	-2.305774	-0.592905	2.677498	-0.656180	3.998120	-2.044840	0.862486	0.122009	0.463805	-1.000000	-1.000000	-1.000000	-1.000000	-1.000000	-1.000000	-1.000000	79.448276	0.000000	-1.000000	-1.000000	779624.000000	1772659447.225444
-44731.125000	-152880.705000	18495.720000	361.935000	2803.005000	7439.445000	3732.885000	6433.380000	7.571227	1.336800	1.241668	0.738942	0.551106	-1.360765	-0.619021	12.983238	-0.656180	3.998120	-2.044840	0.862486	0.122009	0.463805	-1.000000	-1.000000	-1.000000	-1.000000	-1.000000	-1.000000	-1.000000	79.448276	0.000000	-1.000000	-1.000000	779625.000000	1772659447.229470
-44753.805000	-152900.145000	18475.470000	339.255000	2777.985000	7420.095000	3732.705000	6410.295000	6.070748	0.933080	1.127593	1.252865	2.027547	-1.950603	-2.352849	14.264396	-0.656180	3.998120	-2.044840	0.862486	0.122009	0.463805	-1.000000	-1.000000	-1.000000	-1.000000	-1.000000	-1.000000	-1.000000	79.448276	0.000000	-1.000000	-1.000000	779626.000000	1772659447.229478
-44754.525000	-152905.230000	18468.270000	330.840000	2770.020000	7414.920000	3735.360000	6424.245000	2.774103	0.823414	1.078428	1.547590	2.655938	-1.841911	-1.385823	11.168631	-0.656180	3.998120	-2.044840	0.862486	0.122009	0.463805	-1.000000	-1.000000	-1.000000	-1.000000	-1.000000	-1.000000	-1.000000	79.448276	0.000000	-1.000000	-1.000000	779627.000000	1772659447.233451
-44713.845000	-152873.550000	18497.835000	359.280000	2796.885000	7437.555000	3747.870000	6477.705000	2.114374	2.479593	2.227746	2.356898	2.758703	-0.048599	3.289769	9.474408	-0.656180	3.998120	-2.044840	0.862486	0.122009	0.463805	-1.000000	-1.000000	-1.000000	-1.000000	-1.000000	-1.000000	-1.000000	79.448276	0.000000	-1.000000	-1.000000	779628.000000	1772659447.233459
-44720.280000	-152867.115000	18508.860000	371.745000	2809.080000	7447.005000	3747.105000	6454.485000	4.844767	6.099987	5.251123	4.684481	3.906490	3.802310	8.911978	10.146194	-0.656180	3.998120	-2.044840	0.862486	0.122009	0.463805	-1.000000	-1.000000	-1.000000	-1.000000	-1.000000	-1.000000	-1.000000	79.448276	0.000000	-1.000000	-1.000000	779629.000000	1772659447.238793
-44795.745000	-152912.790000	18473.400000	342.000000	2782.755000	7423.695000	3721.770000	6350.220000	5.783151	8.730372	8.177206	7.376658	5.998446	7.743874	10.459653	6.102685	-0.656180	3.998120	-2.044840	0.862486	0.122009	0.463805	-1.000000	-1.000000	-1.000000	-1.000000	-1.000000	-1.000000	-1.000000	79.448276	0.000000	-1.000000	-1.000000	779630.000000	1772659447.238801
-44771.940000	-152900.550000	18478.485000	343.845000	2784.195000	7426.530000	3731.760000	6392.250000	-0.312152	6.019595	6.909240	6.811265	6.119591	7.971810	5.041115	-7.790162	-4.181240	6.180300	-1.632820	0.862364	0.124878	0.462889	-1.000000	-1.000000	-1.000000	-1.000000	-1.000000	-1.000000	-1.000000	79.448276	0.000000	-1.000000	-1.000000	779631.000000	1772659447.247983
-44737.920000	-152865.090000	18511.335000	375.795000	2814.210000	7451.415000	3752.235000	6433.380000	-8.469248	-0.088959	2.096449	2.991271	3.656954	4.648770	-2.951849	-21.717705	-4.181240	6.180300	-1.632820	0.862364	0.124878	0.462889	-1.000000	-1.000000	-1.000000	-1.000000	-1.000000	-1.000000	-1.000000	79.448276	0.000000	-1.000000	-1.000000	779632.000000	1772659447.247991
-44718.255000	-152847.900000	18526.860000	391.500000	2829.870000	7464.735000	3754.980000	6434.370000	-8.400788	-2.271817	-0.325900	0.779570	2.057078	2.500600	-5.896665	-21.115926	-4.181240	6.180300	-1.632820	0.862364	0.124878	0.462889	-1.000000	-1.000000	-1.000000	-1.000000	-1.000000	-1.000000	-1.000000	79.448276	0.000000	-1.000000	-1.000000	779633.000000	1772659447.249221
-44734.995000	-152895.015000	18475.245000	337.095000	2776.860000	7416.855000	3720.735000	6430.725000	1.035690	1.049015	1.367582	1.724190	2.418715	2.982750	-2.982330	-5.867420	-4.181240	6.180300	-1.632820	0.862364	0.124878	0.462889	-1.000000	-1.000000	-1.000000	-1.000000	-1.000000	-1.000000	-1.000000	79.448276	0.000000	-1.000000	-1.000000	779634.000000	1772659447.249229
-44758.080000	-152915.130000	18454.635000	317.340000	2758.455000	7402.995000	3710.610000	6420.240000	11.304676	3.663134	2.058100	1.406957	1.121670	2.074878	-0.077592	12.299399	-4.181240	6.180300	-1.632820	0.862364	0.124878	0.462889	-1.000000	-1.000000	-1.000000	-1.000000	-1.000000	-1.000000	-1.000000	79.448276	0.000000	-1.000000	-1.000000	779635.000000	1772659447.249628
-44751.645000	-152896.815000	18476.820000	340.785000	2782.260000	7426.485000	3730.095000	6422.715000	14.175331	1.076135	-1.615614	-2.763286	-3.583348	-2.385918	-0.634888	22.250877	-4.181240	6.180300	-1.632820	0.862364	0.124878	0.462889	-1.000000	-1.000000	-1.000000	-1.000000	-1.000000	-1.000000	-1.000000	79.448276	0.000000	-1.000000	-1.000000	779636.000000	1772659447.249635
-44732.385000	-152881.155000	18496.485000	362.430000	2802.960000	7445.610000	3747.960000	6444.135000	7.846129	-4.596960	-6.763339	-7.567618	-8.283798	-7.191643	-2.402825	19.164382	-4.181240	6.180300	-1.632820	0.862364	0.124878	0.462889	-1.000000	-1.000000	-1.000000	-1.000000	-1.000000	-1.000000	-1.000000	79.448276	0.000000	-1.000000	-1.000000	779637.000000	1772659447.253456
-44723.835000	-152876.790000	18499.185000	366.255000	2808.945000	7450.470000	3745.845000	6442.380000	-2.600255	-8.391056	-8.738997	-8.635739	-8.861211	-8.322431	-2.146584	6.911470	-4.181240	6.180300	-1.632820	0.862364	0.124878	0.462889	-1.000000	-1.000000	-1.000000	-1.000000	-1.000000	-1.000000	-1.000000	79.448276	0.000000	-1.000000	-1.000000	779638.000000	1772659447.253465
-44724.870000	-152855.370000	18524.520000	393.480000	2832.165000	7468.965000	3730.590000	6422.265000	-9.479212	-6.909759	-5.467710	-4.520376	-4.231956	-4.818644	0.137904	-5.266278	-4.181240	6.180300	-1.632820	0.862364	0.124878	0.462889	-1.000000	-1.000000	-1.000000	-1.000000	-1.000000	-1.000000	-1.000000	79.448276	0.000000	-1.000000	-1.000000	779639.000000	1772659447.263055
-44741.070000	-152858.880000	18525.510000	394.245000	2828.160000	7467.795000	3721.185000	6403.185000	-9.633716	-0.734202	1.569286	2.832081	3.224794	1.245710	1.894087	-11.880486	-4.181240	6.180300	-1.632820	0.862364	0.124878	0.462889	-1.000000	-1.000000	-1.000000	-1.000000	-1.000000	-1.000000	-1.000000	79.448276	0.000000	-1.000000	-1.000000	779640.000000	1772659447.263063
-44751.915000	-152881.830000	18497.970000	365.985000	2805.075000	7448.760000	3734.145000	6419.745000	-6.633875	5.072922	7.356506	8.301470	8.223566	5.720051	1.472138	-13.796583	-5.203660	6.592320	-1.358140	0.864927	0.122986	0.461364	-1.000000	-1.000000	-1.000000	-1.000000	-1.000000	-1.000000	-1.000000	79.448276	0.000000	-1.000000	-1.000000	779641.000000	1772659447.263072
-44723.610000	-152873.955000	18499.140000	363.960000	2798.235000	7442.370000	3748.455000	6438.780000	-4.613412	5.534358	7.039104	7.176528	6.511477	5.150127	0.163795	-12.265374	-5.203660	6.592320	-1.358140	0.864927	0.122986	0.461364	-1.000000	-1.000000	-1.000000	-1.000000	-1.000000	-1.000000	-1.000000	79.448276	0.000000	-1.000000	-1.000000	779642.000000	1772659447.263076
-44723.520000	-152874.315000	18500.670000	365.220000	2798.415000	7440.525000	3747.960000	6438.735000	-2.740874	1.888536	1.944935	1.147048	0.251280	0.842462	0.589231	-6.521552	-5.203660	6.592320	-1.358140	0.864927	0.122986	0.461364	-1.000000	-1.000000	-1.000000	-1.000000	-1.000000	-1.000000	-1.000000	79.448276	0.000000	-1.000000	-1.000000	779643.000000	1772659447.266737
-44740.170000	-152884.215000	18493.425000	358.515000	2792.520000	7434.855000	3736.260000	6439.230000	1.251379	-0.898315	-2.324171	-3.710868	-4.448936	-2.751289	2.971078	2.408639	-5.203660	6.592320	-1.358140	0.864927	0.122986	0.461364	-1.000000	-1.000000	-1.000000	-1.000000	-1.000000	-1.000000	-1.000000	79.448276	0.000000	-1.000000	-1.000000	779644.000000	1772659447.266747
-44741.970000	-152893.665000	18484.335000	348.795000	2775.330000	7426.935000	3730.410000	6444.135000	5.375096	-1.631998	-3.781495	-5.142834	-5.497477	-4.033326	4.009786	9.878708	-5.203660	6.592320	-1.358140	0.864927	0.122986	0.461364	-1.000000	-1.000000	-1.000000	-1.000000	-1.000000	-1.000000	-1.000000	79.448276	0.000000	-1.000000	-1.000000	779645.000000	1772659447.269521
-44723.790000	-152881.695000	18494.775000	356.895000	2784.105000	7435.035000	3744.855000	6451.065000	5.944564	-2.486521	-4.454191	-5.329647	-5.318693	-4.506780	1.132754	11.388784	-5.203660	6.592320	-1.358140	0.864927	0.122986	0.461364	-1.000000	-1.000000	-1.000000	-1.000000	-1.000000	-1.000000	-1.000000	79.448276	0.000000	-1.000000	-1.000000	779646.000000	1772659447.269529
-44725.005000	-152881.740000	18492.885000	357.345000	2790.135000	7438.050000	3743.730000	6437.205000	3.150629	-3.724408	-5.052854	-5.349513	-4.998177	-4.560354	-3.632696	7.100724	-5.203660	6.592320	-1.358140	0.864927	0.122986	0.461364	-1.000000	-1.000000	-1.000000	-1.000000	-1.000000	-1.000000	-1.000000	79.448276	0.000000	-1.000000	-1.000000	779647.000000	1772659447.280046
-44728.515000	-152879.580000	18497.880000	363.825000	2791.530000	7442.820000	3741.570000	6436.395000	0.089721	-3.796709	-4.464416	-4.247814	-3.315036	-3.138282	-6.116601	1.020631	-5.203660	6.592320	-1.358140	0.864927	0.122986	0.461364	-1.000000	-1.000000	-1.000000	-1.000000	-1.000000	-1.000000	-1.000000	79.448276	0.000000	-1.000000	-1.000000	779648.000000	1772659447.280055
-44718.300000	-152874.765000	18501.210000	367.380000	2798.370000	7450.110000	3760.515000	6474.915000	-1.087115	-1.958514	-2.033256	-1.319163	0.311053	0.169930	-4.392381	-2.825376	-5.203660	6.592320	-1.358140	0.864927	0.122986	0.461364	-1.000000	-1.000000	-1.000000	-1.000000	-1.000000	-1.000000	-1.000000	79.448276	0.000000	-1.000000	-1.000000	779649.000000	1772659447.280064
-44712.360000	-152876.250000	18492.705000	359.370000	2793.330000	7446.510000	3768.030000	6496.380000	-0.284751	1.423127	1.934889	3.090804	5.044873	4.589366	0.168485	-2.645955	-5.203660	6.592320	-1.358140	0.864927	0.122986	0.461364	-1.000000	-1.000000	-1.000000	-1.000000	-1.000000	-1.000000	-1.000000	79.448276	0.000000	-1.000000	-1.000000	779650.000000	1772659447.280068
-44746.830000	-152903.070000	18465.795000	333.315000	2768.085000	7422.795000	3739.590000	6439.005000	0.487589	4.674464	5.704158	7.123080	8.825981	8.108868	4.025107	-0.594459	-3.250380	6.485500	-1.327620	0.864683	0.118774	0.462645	-1.000000	-1.000000	-1.000000	-1.000000	-1.000000	-1.000000	-1.000000	79.448276	0.000000	-1.000000	-1.000000	779651.000000	1772659447.281452
-44764.740000	-152914.365000	18457.020000	324.720000	2759.940000	7414.245000	3726.315000	6405.255000	-1.150279	5.430144	6.778281	8.162561	9.150319	8.300478	3.971147	-1.572063	-3.250380	6.485500	-1.327620	0.864683	0.118774	0.462645	-1.000000	-1.000000	-1.000000	-1.000000	-1.000000	-1.000000	-1.000000	79.448276	0.000000	-1.000000	-1.000000	779652.000000	1772659447.281460
-44748.585000	-152904.060000	18467.415000	334.755000	2772.180000	7421.220000	3727.890000	6426.045000	-4.361566	3.237790	4.596524	5.519319	5.543042	4.625032	0.156713	-6.885203	-3.250380	6.485500	-1.327620	0.864683	0.118774	0.462645	-1.000000	-1.000000	-1.000000	-1.000000	-1.000000	-1.000000	-1.000000	79.448276	0.000000	-1.000000	-1.000000	779653.000000	1772659447.285392
-44738.730000	-152892.990000	18480.870000	347.625000	2791.305000	7433.685000	3736.305000	6438.105000	-5.619143	0.277291	1.307338	1.372266	0.647704	-0.603266	-4.046027	-11.537813	-3.250380	6.485500	-1.327620	0.864683	0.118774	0.462645	-1.000000	-1.000000	-1.000000	-1.000000	-1.000000	-1.000000	-1.000000	79.448276	0.000000	-1.000000	-1.000000	779654.000000	1772659447.285400
-44737.650000	-152884.755000	18494.685000	364.365000	2798.460000	7447.365000	3745.755000	6440.265000	-3.200680	-1.152499	-0.551887	-1.394275	-2.400893	-4.159318	-5.332568	-9.953443	-3.250380	6.485500	-1.327620	0.864683	0.118774	0.462645	-1.000000	-1.000000	-1.000000	-1.000000	-1.000000	-1.000000	-1.000000	79.448276	0.000000	-1.000000	-1.000000	779655.000000	1772659447.289598
-44736.930000	-152883.270000	18494.910000	364.860000	2788.020000	7444.125000	3743.955000	6435.225000	1.371094	-0.722767	-0.344731	-1.715054	-3.167481	-4.620688	-2.802043	-1.611743	-3.250380	6.485500	-1.327620	0.864683	0.118774	0.462645	-1.000000	-1.000000	-1.000000	-1.000000	-1.000000	-1.000000	-1.000000	79.448276	0.000000	-1.000000	-1.000000	779656.000000	1772659447.289606
-44746.965000	-152887.140000	18489.015000	359.775000	2789.775000	7436.430000	3738.285000	6411.870000	5.359168	0.243177	0.432453	-0.935721	-3.387938	-3.210114	1.749373	8.417253	-3.250380	6.485500	-1.327620	0.864683	0.118774	0.462645	-1.000000	-1.000000	-1.000000	-1.000000	-1.000000	-1.000000	-1.000000	79.448276	0.000000	-1.000000	-1.000000	779657.000000	1772659447.293650
-44740.080000	-152875.665000	18501.435000	372.780000	2806.920000	7445.880000	3745.395000	6416.415000	6.558749	0.520220	0.250558	-0.707565	-3.744745	-1.838094	5.012998	12.961127	-3.250380	6.485500	-1.327620	0.864683	0.118774	0.462645	-1.000000	-1.000000	-1.000000	-1.000000	-1.000000	-1.000000	-1.000000	79.448276	0.000000	-1.000000	-1.000000	779658.000000	1772659447.293658
-44712.585000	-152872.830000	18496.305000	364.725000	2797.020000	7441.785000	3745.845000	6453.900000	5.011568	0.361550	-0.445217	-0.826023	-3.022892	-0.767105	5.045179	9.829953	-3.250380	6.485500	-1.327620	0.864683	0.118774	0.462645	-1.000000	-1.000000	-1.000000	-1.000000	-1.000000	-1.000000	-1.000000	79.448276	0.000000	-1.000000	-1.000000	779659.000000	1772659447.297556
-44719.875000	-152881.065000	18488.745000	356.040000	2788.740000	7434.045000	3737.745000	6445.710000	3.328181	0.781957	-0.396373	-0.343406	-0.580824	0.787797	3.000743	4.676724	-3.250380	6.485500	-1.327620	0.864683	0.118774	0.462645	-1.000000	-1.000000	-1.000000	-1.000000	-1.000000	-1.000000	-1.000000	79.448276	0.000000	-1.000000	-1.000000	779660.000000	1772659447.297565
-44719.515000	-152873.865000	18499.320000	366.795000	2796.795000	7444.035000	3745.350000	6442.425000	3.169625	1.759924	0.411092	0.580792	2.276972	2.692297	1.216407	3.092080	-1.907500	5.859840	-1.983800	0.863096	0.116760	0.465087	-1.000000	-1.000000	-1.000000	-1.000000	-1.000000	-1.000000	-1.000000	79.448276	0.000000	-1.000000	-1.000000	779661.000000	1772659447.304569
-44726.715000	-152882.505000	18492.660000	361.350000	2793.960000	7449.840000	3755.655000	6442.110000	2.684652	1.835464	0.688406	0.820024	3.460926	3.758219	0.677930	3.607773	-1.907500	5.859840	-1.983800	0.863096	0.116760	0.465087	-1.000000	-1.000000	-1.000000	-1.000000	-1.000000	-1.000000	-1.000000	79.448276	0.000000	-1.000000	-1.000000	779662.000000	1772659447.304577
-44730.720000	-152886.240000	18488.700000	355.545000	2786.895000	7440.705000	3748.185000	6435.990000	-0.722453	-0.485470	-1.001844	-0.815489	1.569441	2.682486	0.514493	1.683407	-1.907500	5.859840	-1.983800	0.863096	0.116760	0.465087	-1.000000	-1.000000	-1.000000	-1.000000	-1.000000	-1.000000	-1.000000	79.448276	0.000000	-1.000000	-1.000000	779663.000000	1772659447.305545
-44712.945000	-152863.605000	18512.775000	378.045000	2803.815000	7442.730000	3734.550000	6443.595000	-6.209539	-4.440698	-4.239552	-3.968539	-2.543833	-0.860097	-0.911817	-3.454902	-1.907500	5.859840	-1.983800	0.863096	0.116760	0.465087	-1.000000	-1.000000	-1.000000	-1.000000	-1.000000	-1.000000	-1.000000	79.448276	0.000000	-1.000000	-1.000000	779664.000000	1772659447.305553
-44707.365000	-152862.120000	18513.405000	378.180000	2804.310000	7446.420000	3741.345000	6458.850000	-9.622662	-6.810011	-6.154881	-5.993275	-5.518776	-4.988515	-3.724504	-7.977798	-1.907500	5.859840	-1.983800	0.863096	0.116760	0.465087	-1.000000	-1.000000	-1.000000	-1.000000	-1.000000	-1.000000	-1.000000	79.448276	0.000000	-1.000000	-1.000000	779665.000000	1772659447.313472
-44692.110000	-152857.710000	18508.680000	376.110000	2808.540000	7457.130000	3761.595000	6495.345000	-7.839197	-5.356062	-4.676276	-4.742817	-4.816903	-6.542121	-5.582856	-7.610814	-1.907500	5.859840	-1.983800	0.863096	0.116760	0.465087	-1.000000	-1.000000	-1.000000	-1.000000	-1.000000	-1.000000	-1.000000	79.448276	0.000000	-1.000000	-1.000000	779666.000000	1772659447.313483
-44737.155000	-152885.295000	18485.505000	357.210000	2792.160000	7447.680000	3760.020000	6437.520000	-2.643646	-1.553445	-1.225198	-1.241244	-1.490796	-4.227943	-4.342475	-3.076751	-1.907500	5.859840	-1.983800	0.863096	0.116760	0.465087	-1.000000	-1.000000	-1.000000	-1.000000	-1.000000	-1.000000	-1.000000	79.448276	0.000000	-1.000000	-1.000000	779667.000000	1772659447.318880
-44756.820000	-152897.040000	18477.630000	350.190000	2784.735000	7436.385000	3757.860000	6411.465000	0.521691	1.188503	1.366763	1.940975	1.727585	0.158592	-0.591901	-0.555829	-1.907500	5.859840	-1.983800	0.863096	0.116760	0.465087	-1.000000	-1.000000	-1.000000	-1.000000	-1.000000	-1.000000	-1.000000	79.448276	0.000000	-1.000000	-1.000000	779668.000000	1772659447.318890
-44670.555000	-152836.470000	18532.170000	402.705000	2838.870000	7484.490000	3784.950000	6518.430000	0.352086	2.276616	2.883769	4.242546	4.112805	4.415725	3.713778	-1.971410	-1.907500	5.859840	-1.983800	0.863096	0.116760	0.465087	-1.000000	-1.000000	-1.000000	-1.000000	-1.000000	-1.000000	-1.000000	79.448276	0.000000	-1.000000	-1.000000	779669.000000	1772659447.319106
-44589.645000	-152775.540000	18587.475000	455.265000	2888.190000	7532.820000	3826.125000	6619.095000	3.038086	5.151400	6.011796	7.549009	7.372173	8.376932	7.472758	0.335046	-1.907500	5.859840	-1.983800	0.863096	0.116760	0.465087	-1.000000	-1.000000	-1.000000	-1.000000	-1.000000	-1.000000	-1.000000	79.448276	0.000000	-1.000000	-1.000000	779670.000000	1772659447.319111
-44747.325000	-152889.435000	18485.100000	356.355000	2794.050000	7444.260000	3734.280000	6397.605000	10.204614	9.859163	10.110994	10.836256	10.386994	10.590325	8.567242	8.352151	-4.211760	6.058220	-2.487380	0.865110	0.119507	0.462767	-1.000000	-1.000000	-1.000000	-1.000000	-1.000000	-1.000000	-1.000000	79.448276	0.000000	-1.000000	-1.000000	779671.000000	1772659447.321249
-44842.995000	-152980.290000	18398.160000	271.980000	2710.395000	7358.130000	3643.965000	6291.810000	10.458557	7.915243	7.385800	6.878470	6.189056	5.304365	2.121582	7.999518	-4.211760	6.058220	-2.487380	0.865110	0.119507	0.462767	-1.000000	-1.000000	-1.000000	-1.000000	-1.000000	-1.000000	-1.000000	79.448276	0.000000	-1.000000	-1.000000	779672.000000	1772659447.321254
-44767.530000	-152910.090000	18465.480000	338.085000	2772.945000	7415.235000	3703.455000	6378.390000	-3.549533	-5.486353	-6.065428	-7.347589	-7.815233	-8.853452	-11.638547	-8.682757	-4.211760	6.058220	-2.487380	0.865110	0.119507	0.462767	-1.000000	-1.000000	-1.000000	-1.000000	-1.000000	-1.000000	-1.000000	79.448276	0.000000	-1.000000	-1.000000	779673.000000	1772659447.326480
-44758.215000	-152889.570000	18487.125000	360.135000	2794.140000	7436.880000	3732.300000	6379.110000	-19.997226	-19.672471	-19.678626	-21.003934	-20.964331	-21.243713	-21.544400	-26.549329	-4.211760	6.058220	-2.487380	0.865110	0.119507	0.462767	-1.000000	-1.000000	-1.000000	-1.000000	-1.000000	-1.000000	-1.000000	79.448276	0.000000	-1.000000	-1.000000	779674.000000	1772659447.326488
-44738.415000	-152861.265000	18517.995000	390.645000	2821.860000	7465.005000	3767.625000	6411.555000	-22.496362	-20.188003	-19.485173	-20.470997	-20.417030	-19.884171	-16.915164	-26.964943	-4.211760	6.058220	-2.487380	0.865110	0.119507	0.462767	-1.000000	-1.000000	-1.000000	-1.000000	-1.000000	-1.000000	-1.000000	79.448276	0.000000	-1.000000	-1.000000	779675.000000	1772659447.329388
-44727.480000	-152858.565000	18523.215000	397.935000	2827.305000	7468.605000	3775.455000	6444.180000	-7.754345	-4.898947	-3.680742	-4.342287	-5.095063	-4.367649	0.615253	-6.872569	-4.211760	6.058220	-2.487380	0.865110	0.119507	0.462767	-1.000000	-1.000000	-1.000000	-1.000000	-1.000000	-1.000000	-1.000000	79.448276	0.000000	-1.000000	-1.000000	779676.000000	1772659447.329396
-44749.665000	-152904.150000	18471.690000	346.500000	2780.910000	7425.360000	3726.900000	6431.940000	14.122305	15.097588	16.211679	15.809927	14.145705	14.533553	19.156709	22.176972	-4.211760	6.058220	-2.487380	0.865110	0.119507	0.462767	-1.000000	-1.000000	-1.000000	-1.000000	-1.000000	-1.000000	-1.000000	79.448276	0.000000	-1.000000	-1.000000	779677.000000	1772659447.335818
-44745.570000	-152917.380000	18449.595000	320.805000	2757.060000	7406.685000	3704.535000	6423.435000	27.084894	24.062460	24.116176	24.038593	22.458336	22.745996	25.208474	40.371084	-4.211760	6.058220	-2.487380	0.865110	0.119507	0.462767	-1.000000	-1.000000	-1.000000	-1.000000	-1.000000	-1.000000	-1.000000	79.448276	0.000000	-1.000000	-1.000000	779678.000000	1772659447.335826
-44743.365000	-152917.920000	18446.490000	314.865000	2752.290000	7407.810000	3714.030000	6418.980000	22.133806	15.234918	13.511424	13.729300	13.530336	14.461886	14.622668	34.499356	-4.211760	6.058220	-2.487380	0.865110	0.119507	0.462767	-1.000000	-1.000000	-1.000000	-1.000000	-1.000000	-1.000000	-1.000000	79.448276	0.000000	-1.000000	-1.000000	779679.000000	1772659447.337374
-44729.685000	-152900.775000	18465.705000	335.430000	2770.920000	7421.985000	3727.485000	6443.010000	7.508615	-1.035358	-4.437622	-4.186825	-2.610357	-0.857100	-1.854022	13.586097	-4.211760	6.058220	-2.487380	0.865110	0.119507	0.462767	-1.000000	-1.000000	-1.000000	-1.000000	-1.000000	-1.000000	-1.000000	79.448276	0.000000	-1.000000	-1.000000	779680.000000	1772659447.337379
