Channel1	Channel2	Channel3	Channel4	Channel5	Channel6	Channel7	Channel8	FilteredChannel1	FilteredChannel2	FilteredChannel3	FilteredChannel4	FilteredChannel5	FilteredChannel6	FilteredChannel7	FilteredChannel8	GyroX	GyroY	GyroZ	AccX	AccY	AccZ	PPG1	PPG2	rawPPG1	rawPPG2	rawPPG3	Hr	Hrv	Battery	Trigger	PhysicalTrigger	AutoTrigger	NumMeasurements	Timestamp
-6216.480000	-12075.750000	4601.115000	-1629.315000	-23700.420000	-17524.620000	-1856.115000	-5790.285000	-4.377649	-9.858870	-12.616368	-13.536173	-13.967591	-12.268710	-11.882879	-4.846382	-2.609460	3.540320	3.219860	0.631956	0.234680	0.681822	-1.000000	-1.000000	-1.000000	-1.000000	-1.000000	-1.000000	-1.000000	84.344828	0.000000	-1.000000	-1.000000	725938.000000	1772895163.593389
-6202.620000	-12073.140000	4605.255000	-1622.340000	-23688.990000	-17514.270000	-1863.945000	-5798.565000	-7.769001	-12.682146	-15.615504	-16.060748	-15.390864	-11.560990	-2.322546	1.995797	-2.609460	3.540320	3.219860	0.631956	0.234680	0.681822	-1.000000	-1.000000	-1.000000	-1.000000	-1.000000	-1.000000	-1.000000	84.344828	0.000000	-1.000000	-1.000000	725939.000000	1772895163.597420
-6188.310000	-12069.000000	4607.460000	-1618.065000	-23684.895000	-17514.090000	-1875.870000	-5802.345000	-7.264589	-10.753420	-12.830405	-12.484227	-10.671110	-6.269251	7.522879	6.519226	-2.609460	3.540320	3.219860	0.631956	0.234680	0.681822	-1.000000	-1.000000	-1.000000	-1.000000	-1.000000	-1.000000	-1.000000	84.344828	0.000000	-1.000000	-1.000000	725940.000000	1772895163.597426
-6191.145000	-12060.270000	4612.140000	-1615.095000	-23683.590000	-17513.595000	-1876.095000	-5801.670000	-2.989255	-5.245965	-6.266930	-5.244388	-2.535140	0.761361	13.600382	7.543635	-3.006220	4.837420	0.335720	0.628477	0.233581	0.676451	-1.000000	-1.000000	-1.000000	-1.000000	-1.000000	-1.000000	-1.000000	84.344828	0.000000	-1.000000	-1.000000	725941.000000	1772895163.599909
-6215.175000	-12054.960000	4617.720000	-1611.855000	-23681.835000	-17510.895000	-1862.280000	-5798.115000	2.121131	1.565057	1.295218	2.390219	5.022544	6.029094	13.808924	5.955055	-3.006220	4.837420	0.335720	0.628477	0.233581	0.676451	-1.000000	-1.000000	-1.000000	-1.000000	-1.000000	-1.000000	-1.000000	84.344828	0.000000	-1.000000	-1.000000	725942.000000	1772895163.599916
-6214.905000	-12069.675000	4606.605000	-1622.475000	-23691.735000	-17515.215000	-1839.465000	-5796.990000	4.177267	7.242812	7.761647	8.238405	9.531255	8.161707	9.891165	3.215889	-3.006220	4.837420	0.335720	0.628477	0.233581	0.676451	-1.000000	-1.000000	-1.000000	-1.000000	-1.000000	-1.000000	-1.000000	84.344828	0.000000	-1.000000	-1.000000	725943.000000	1772895163.604124
-6239.295000	-12092.220000	4586.220000	-1643.355000	-23713.875000	-17531.550000	-1835.505000	-5814.540000	1.817969	9.409487	11.207150	10.852482	10.182614	7.613069	5.798282	0.346278	-3.006220	4.837420	0.335720	0.628477	0.233581	0.676451	-1.000000	-1.000000	-1.000000	-1.000000	-1.000000	-1.000000	-1.000000	84.344828	0.000000	-1.000000	-1.000000	725944.000000	1772895163.604131
-6238.170000	-12083.715000	4593.150000	-1636.650000	-23707.215000	-17527.365000	-1842.345000	-5814.540000	-2.457999	7.157817	10.158561	9.284637	7.047463	4.906994	3.278138	-2.184250	-3.006220	4.837420	0.335720	0.628477	0.233581	0.676451	-1.000000	-1.000000	-1.000000	-1.000000	-1.000000	-1.000000	-1.000000	84.344828	0.000000	-1.000000	-1.000000	725945.000000	1772895163.610128
-6230.205000	-12075.570000	4601.070000	-1627.110000	-23696.730000	-17517.735000	-1840.590000	-5822.370000	-4.341942	2.696126	5.655797	4.717967	2.007785	1.201927	1.017506	-3.828229	-3.006220	4.837420	0.335720	0.628477	0.233581	0.676451	-1.000000	-1.000000	-1.000000	-1.000000	-1.000000	-1.000000	-1.000000	84.344828	0.000000	-1.000000	-1.000000	725946.000000	1772895163.610137
-6216.120000	-12071.160000	4603.860000	-1624.455000	-23695.020000	-17517.375000	-1841.715000	-5821.695000	-1.349107	-0.475942	0.793143	0.083282	-1.971943	-1.656704	-2.070611	-3.755319	-3.006220	4.837420	0.335720	0.628477	0.233581	0.676451	-1.000000	-1.000000	-1.000000	-1.000000	-1.000000	-1.000000	-1.000000	84.344828	0.000000	-1.000000	-1.000000	725947.000000	1772895163.611790
-6211.440000	-12070.530000	4604.985000	-1621.170000	-23689.620000	-17514.765000	-1846.125000	-5805.900000	4.592010	-1.153476	-2.411358	-2.825044	-3.609544	-2.932554	-5.145539	-1.383308	-3.006220	4.837420	0.335720	0.628477	0.233581	0.676451	-1.000000	-1.000000	-1.000000	-1.000000	-1.000000	-1.000000	-1.000000	84.344828	0.000000	-1.000000	-1.000000	725948.000000	1772895163.611800
-6211.395000	-12085.290000	4593.285000	-1631.745000	-23697.630000	-17526.150000	-1853.685000	-5787.990000	8.856003	-0.941712	-4.085457	-4.207986	-3.636178	-3.245032	-6.869881	3.014755	-3.006220	4.837420	0.335720	0.628477	0.233581	0.676451	-1.000000	-1.000000	-1.000000	-1.000000	-1.000000	-1.000000	-1.000000	84.344828	0.000000	-1.000000	-1.000000	725949.000000	1772895163.616068
-6230.655000	-12090.240000	4586.670000	-1637.505000	-23700.915000	-17526.465000	-1851.345000	-5780.925000	8.357018	-1.906404	-5.153338	-4.909703	-3.203999	-3.386877	-7.022071	7.631863	-3.006220	4.837420	0.335720	0.628477	0.233581	0.676451	-1.000000	-1.000000	-1.000000	-1.000000	-1.000000	-1.000000	-1.000000	84.344828	0.000000	-1.000000	-1.000000	725950.000000	1772895163.616076
-6245.910000	-12079.305000	4594.860000	-1630.305000	-23695.920000	-17522.325000	-1855.440000	-5797.305000	3.360117	-3.888258	-5.557290	-4.864599	-2.567670	-3.232738	-6.359422	9.229913	-7.248500	7.599480	0.106820	0.624998	0.241149	0.678587	-1.000000	-1.000000	-1.000000	-1.000000	-1.000000	-1.000000	-1.000000	84.344828	0.000000	-1.000000	-1.000000	725951.000000	1772895163.619805
-6235.515000	-12072.915000	4601.520000	-1628.325000	-23700.240000	-17529.570000	-1856.205000	-5807.025000	-3.213119	-4.151627	-3.765736	-2.812290	-0.901272	-1.838933	-5.462051	5.461199	-7.248500	7.599480	0.106820	0.624998	0.241149	0.678587	-1.000000	-1.000000	-1.000000	-1.000000	-1.000000	-1.000000	-1.000000	84.344828	0.000000	-1.000000	-1.000000	725952.000000	1772895163.619817
-6199.875000	-12046.545000	4626.945000	-1612.395000	-23688.540000	-17518.320000	-1843.200000	-5791.590000	-6.745860	-0.435995	1.243986	1.799101	2.200341	1.062613	-3.802749	-1.973867	-7.248500	7.599480	0.106820	0.624998	0.241149	0.678587	-1.000000	-1.000000	-1.000000	-1.000000	-1.000000	-1.000000	-1.000000	84.344828	0.000000	-1.000000	-1.000000	725953.000000	1772895163.625064
-6196.860000	-12038.130000	4636.575000	-1602.945000	-23682.015000	-17512.740000	-1851.795000	-5797.755000	-4.120759	5.962190	7.737103	7.108153	5.477504	4.356924	-0.413750	-8.197181	-7.248500	7.599480	0.106820	0.624998	0.241149	0.678587	-1.000000	-1.000000	-1.000000	-1.000000	-1.000000	-1.000000	-1.000000	84.344828	0.000000	-1.000000	-1.000000	725954.000000	1772895163.625073
-6187.230000	-12031.380000	4634.775000	-1595.070000	-23671.035000	-17499.690000	-1848.915000	-5806.215000	2.342009	10.654321	11.595566	9.809947	6.776667	6.285640	4.100525	-9.914201	-7.248500	7.599480	0.106820	0.624998	0.241149	0.678587	-1.000000	-1.000000	-1.000000	-1.000000	-1.000000	-1.000000	-1.000000	84.344828	0.000000	-1.000000	-1.000000	725955.000000	1772895163.633324
-6197.445000	-12061.125000	4597.515000	-1626.345000	-23698.395000	-17526.915000	-1870.650000	-5806.890000	6.588331	9.415170	8.977217	7.342901	4.511429	5.308921	7.413310	-7.565221	-7.248500	7.599480	0.106820	0.624998	0.241149	0.678587	-1.000000	-1.000000	-1.000000	-1.000000	-1.000000	-1.000000	-1.000000	84.344828	0.000000	-1.000000	-1.000000	725956.000000	1772895163.633336
-6214.680000	-12083.850000	4583.070000	-1641.060000	-23711.805000	-17537.265000	-1866.960000	-5786.055000	4.368006	1.243557	-0.526163	-0.447577	-1.424018	0.873123	7.663024	-3.339042	-7.248500	7.599480	0.106820	0.624998	0.241149	0.678587	-1.000000	-1.000000	-1.000000	-1.000000	-1.000000	-1.000000	-1.000000	84.344828	0.000000	-1.000000	-1.000000	725957.000000	1772895163.635239
-6222.015000	-12100.905000	4580.280000	-1646.865000	-23719.005000	-17542.845000	-1871.370000	-5784.165000	-3.304483	-10.235051	-12.087842	-10.022587	-8.591650	-5.268232	5.097612	0.865442	-7.248500	7.599480	0.106820	0.624998	0.241149	0.678587	-1.000000	-1.000000	-1.000000	-1.000000	-1.000000	-1.000000	-1.000000	84.344828	0.000000	-1.000000	-1.000000	725958.000000	1772895163.635248
-6237.315000	-12105.450000	4576.995000	-1649.295000	-23720.085000	-17545.455000	-1876.500000	-5808.510000	-10.894672	-18.553930	-18.433715	-15.620940	-12.668362	-9.478136	1.282893	3.425739	-7.248500	7.599480	0.106820	0.624998	0.241149	0.678587	-1.000000	-1.000000	-1.000000	-1.000000	-1.000000	-1.000000	-1.000000	84.344828	0.000000	-1.000000	-1.000000	725959.000000	1772895163.635802
-6235.065000	-12094.335000	4581.315000	-1644.210000	-23713.380000	-17539.740000	-1866.465000	-5807.970000	-12.990784	-18.660772	-15.634255	-13.638285	-10.638705	-9.020401	-2.182980	3.372335	-7.248500	7.599480	0.106820	0.624998	0.241149	0.678587	-1.000000	-1.000000	-1.000000	-1.000000	-1.000000	-1.000000	-1.000000	84.344828	0.000000	-1.000000	-1.000000	725960.000000	1772895163.635809
-6216.480000	-12072.060000	4601.250000	-1625.760000	-23694.165000	-17527.860000	-1863.945000	-5789.655000	-8.311827	-9.757373	-5.326213	-4.854935	-2.785662	-3.697577	-3.881404	1.972320	-5.234180	8.591380	0.686700	0.624815	0.237243	0.685118	-1.000000	-1.000000	-1.000000	-1.000000	-1.000000	-1.000000	-1.000000	84.344828	0.000000	-1.000000	-1.000000	725961.000000	1772895163.645862
-6210.270000	-12066.525000	4611.285000	-1615.455000	-23679.495000	-17516.970000	-1853.415000	-5772.150000	0.251322	4.077693	7.160112	6.464839	7.472636	4.078748	-3.190766	1.712071	-5.234180	8.591380	0.686700	0.624815	0.237243	0.685118	-1.000000	-1.000000	-1.000000	-1.000000	-1.000000	-1.000000	-1.000000	84.344828	0.000000	-1.000000	-1.000000	725962.000000	1772895163.645871
-6220.440000	-12070.710000	4613.625000	-1609.470000	-23670.315000	-17505.315000	-1844.055000	-5789.925000	7.856344	15.625342	15.760366	14.679686	14.985933	10.285785	-0.596510	3.157508	-5.234180	8.591380	0.686700	0.624815	0.237243	0.685118	-1.000000	-1.000000	-1.000000	-1.000000	-1.000000	-1.000000	-1.000000	84.344828	0.000000	-1.000000	-1.000000	725963.000000	1772895163.645880
-6235.740000	-12090.510000	4592.925000	-1630.755000	-23696.955000	-17517.870000	-1846.305000	-5805.360000	10.430438	18.998896	16.820799	15.737294	15.504767	11.626158	2.655214	4.164703	-5.234180	8.591380	0.686700	0.624815	0.237243	0.685118	-1.000000	-1.000000	-1.000000	-1.000000	-1.000000	-1.000000	-1.000000	84.344828	0.000000	-1.000000	-1.000000	725964.000000	1772895163.645884
-6225.165000	-12087.135000	4592.385000	-1636.380000	-23718.870000	-17536.500000	-1872.810000	-5800.635000	7.429173	13.760887	11.039242	9.671757	8.276938	7.463558	4.554581	2.392934	-5.234180	8.591380	0.686700	0.624815	0.237243	0.685118	-1.000000	-1.000000	-1.000000	-1.000000	-1.000000	-1.000000	-1.000000	84.344828	0.000000	-1.000000	-1.000000	725965.000000	1772895163.647725
-6200.325000	-12075.030000	4596.660000	-1636.020000	-23714.100000	-17541.990000	-1880.280000	-5767.470000	2.721828	5.006894	2.661081	0.600197	-2.833002	0.063484	3.142732	-1.612051	-5.234180	8.591380	0.686700	0.624815	0.237243	0.685118	-1.000000	-1.000000	-1.000000	-1.000000	-1.000000	-1.000000	-1.000000	84.344828	0.000000	-1.000000	-1.000000	725966.000000	1772895163.647733
-6187.545000	-12047.445000	4616.640000	-1616.760000	-23691.825000	-17516.880000	-1849.005000	-5765.985000	1.147333	-0.995254	-3.609878	-6.136041	-11.119431	-6.407394	-0.915220	-4.482352	-5.234180	8.591380	0.686700	0.624815	0.237243	0.685118	-1.000000	-1.000000	-1.000000	-1.000000	-1.000000	-1.000000	-1.000000	84.344828	0.000000	-1.000000	-1.000000	725967.000000	1772895163.653726
-6179.355000	-12023.730000	4637.835000	-1595.970000	-23668.245000	-17491.185000	-1825.020000	-5774.445000	3.716968	-1.596539	-5.271172	-7.283900	-11.558560	-7.914636	-3.710156	-3.738833	-5.234180	8.591380	0.686700	0.624815	0.237243	0.685118	-1.000000	-1.000000	-1.000000	-1.000000	-1.000000	-1.000000	-1.000000	84.344828	0.000000	-1.000000	-1.000000	725968.000000	1772895163.653756
-6218.640000	-12074.670000	4590.810000	-1647.135000	-23721.300000	-17545.725000	-1868.310000	-5795.685000	6.271215	0.123725	-3.758625	-4.229052	-5.448444	-4.481502	-3.124895	-0.819441	-5.234180	8.591380	0.686700	0.624815	0.237243	0.685118	-1.000000	-1.000000	-1.000000	-1.000000	-1.000000	-1.000000	-1.000000	84.344828	0.000000	-1.000000	-1.000000	725969.000000	1772895163.655773
-6256.755000	-12118.905000	4566.240000	-1662.930000	-23735.070000	-17554.725000	-1866.195000	-5809.545000	2.690428	-2.485249	-4.055183	-2.507489	0.007483	-1.341677	-1.949132	0.264044	-5.234180	8.591380	0.686700	0.624815	0.237243	0.685118	-1.000000	-1.000000	-1.000000	-1.000000	-1.000000	-1.000000	-1.000000	84.344828	0.000000	-1.000000	-1.000000	725970.000000	1772895163.655795
-6256.980000	-12120.795000	4563.135000	-1661.580000	-23730.615000	-17551.935000	-1854.495000	-5808.555000	-8.141447	-11.821544	-8.856603	-5.403115	-0.408184	-2.498962	-2.679639	-2.317406	1.876980	7.370580	-1.113980	0.625120	0.229553	0.686155	-1.000000	-1.000000	-1.000000	-1.000000	-1.000000	-1.000000	-1.000000	84.344828	0.000000	-1.000000	-1.000000	725971.000000	1772895163.666013
-6232.770000	-12105.540000	4570.830000	-1659.375000	-23728.590000	-17547.705000	-1862.775000	-5799.780000	-18.641899	-20.945993	-13.946823	-9.522827	-4.285382	-5.791722	-3.932028	-5.354971	1.876980	7.370580	-1.113980	0.625120	0.229553	0.686155	-1.000000	-1.000000	-1.000000	-1.000000	-1.000000	-1.000000	-1.000000	84.344828	0.000000	-1.000000	-1.000000	725972.000000	1772895163.666023
-6215.805000	-12086.145000	4588.605000	-1641.915000	-23711.715000	-17528.445000	-1860.705000	-5791.410000	-19.100726	-19.934157	-12.305754	-8.755927	-5.173412	-5.981038	-3.357488	-4.177831	1.876980	7.370580	-1.113980	0.625120	0.229553	0.686155	-1.000000	-1.000000	-1.000000	-1.000000	-1.000000	-1.000000	-1.000000	84.344828	0.000000	-1.000000	-1.000000	725973.000000	1772895163.666091
-6214.230000	-12081.780000	4594.455000	-1639.170000	-23708.700000	-17527.365000	-1867.725000	-5795.055000	-7.730673	-6.307541	-1.749496	-0.714186	0.570934	-0.139716	-0.097075	1.284534	1.876980	7.370580	-1.113980	0.625120	0.229553	0.686155	-1.000000	-1.000000	-1.000000	-1.000000	-1.000000	-1.000000	-1.000000	84.344828	0.000000	-1.000000	-1.000000	725974.000000	1772895163.666097
-6222.465000	-12079.170000	4602.510000	-1631.790000	-23701.590000	-17528.490000	-1865.385000	-5805.990000	7.616572	12.198709	12.260799	10.568503	9.951316	8.975938	4.413373	6.086290	1.876980	7.370580	-1.113980	0.625120	0.229553	0.686155	-1.000000	-1.000000	-1.000000	-1.000000	-1.000000	-1.000000	-1.000000	84.344828	0.000000	-1.000000	-1.000000	725975.000000	1772895163.667708
-6229.800000	-12082.995000	4598.550000	-1634.355000	-23701.905000	-17528.670000	-1853.190000	-5813.460000	16.980359	24.059792	20.889338	17.653260	15.729402	14.528517	6.964797	6.155395	1.876980	7.370580	-1.113980	0.625120	0.229553	0.686155	-1.000000	-1.000000	-1.000000	-1.000000	-1.000000	-1.000000	-1.000000	84.344828	0.000000	-1.000000	-1.000000	725976.000000	1772895163.667716
-6218.550000	-12076.695000	4599.945000	-1630.620000	-23697.090000	-17522.595000	-1839.915000	-5799.105000	16.430561	23.017263	19.019097	15.982566	13.321082	12.191788	5.892890	2.764451	1.876980	7.370580	-1.113980	0.625120	0.229553	0.686155	-1.000000	-1.000000	-1.000000	-1.000000	-1.000000	-1.000000	-1.000000	84.344828	0.000000	-1.000000	-1.000000	725977.000000	1772895163.671820
-6208.920000	-12073.005000	4598.325000	-1628.685000	-23695.605000	-17516.835000	-1844.505000	-5803.065000	9.773099	12.445915	9.092683	7.681448	5.001662	4.575548	3.033141	0.166635	1.876980	7.370580	-1.113980	0.625120	0.229553	0.686155	-1.000000	-1.000000	-1.000000	-1.000000	-1.000000	-1.000000	-1.000000	84.344828	0.000000	-1.000000	-1.000000	725978.000000	1772895163.671852
-6211.620000	-12076.605000	4599.945000	-1629.270000	-23702.085000	-17520.840000	-1851.750000	-5813.730000	3.305934	0.886284	-1.958867	-1.421678	-3.532303	-2.553472	0.582722	0.209718	1.876980	7.370580	-1.113980	0.625120	0.229553	0.686155	-1.000000	-1.000000	-1.000000	-1.000000	-1.000000	-1.000000	-1.000000	84.344828	0.000000	-1.000000	-1.000000	725979.000000	1772895163.676766
-6217.200000	-12065.940000	4618.980000	-1609.065000	-23685.210000	-17510.220000	-1844.145000	-5824.845000	-0.510812	-6.126766	-8.773576	-7.280233	-8.810320	-6.411746	-1.494333	1.053056	1.876980	7.370580	-1.113980	0.625120	0.229553	0.686155	-1.000000	-1.000000	-1.000000	-1.000000	-1.000000	-1.000000	-1.000000	84.344828	0.000000	-1.000000	-1.000000	725980.000000	1772895163.676774
-6203.700000	-12042.270000	4642.110000	-1585.755000	-23661.810000	-17490.870000	-1831.455000	-5816.115000	-3.261829	-8.157251	-9.675867	-8.580240	-9.782810	-7.148820	-3.170522	0.559166	1.327620	6.760180	-2.884140	0.628416	0.231689	0.682982	-1.000000	-1.000000	-1.000000	-1.000000	-1.000000	-1.000000	-1.000000	84.344828	0.000000	-1.000000	-1.000000	725981.000000	1772895163.679924
-6196.905000	-12034.305000	4649.940000	-1579.140000	-23652.945000	-17484.930000	-1825.200000	-5799.105000	-6.151806	-6.925236	-6.009969	-5.902220	-6.527274	-5.402178	-3.067841	-0.988511	1.327620	6.760180	-2.884140	0.628416	0.231689	0.682982	-1.000000	-1.000000	-1.000000	-1.000000	-1.000000	-1.000000	-1.000000	84.344828	0.000000	-1.000000	-1.000000	725982.000000	1772895163.679931
-6194.070000	-12053.115000	4630.590000	-1596.420000	-23665.095000	-17493.390000	-1836.630000	-5791.500000	-8.193215	-4.866319	-1.575540	-2.125517	-1.409193	-2.481132	-0.972212	-1.793648	1.327620	6.760180	-2.884140	0.628416	0.231689	0.682982	-1.000000	-1.000000	-1.000000	-1.000000	-1.000000	-1.000000	-1.000000	84.344828	0.000000	-1.000000	-1.000000	725983.000000	1772895163.686913
-6204.870000	-12091.950000	4588.695000	-1638.180000	-23704.335000	-17528.850000	-1868.715000	-5806.530000	-8.060277	-4.870028	-0.886680	-1.366095	1.130062	-0.909582	0.430633	-1.076722	1.327620	6.760180	-2.884140	0.628416	0.231689	0.682982	-1.000000	-1.000000	-1.000000	-1.000000	-1.000000	-1.000000	-1.000000	84.344828	0.000000	-1.000000	-1.000000	725984.000000	1772895163.686922
-6201.585000	-12099.465000	4571.415000	-1659.555000	-23726.880000	-17550.045000	-1870.605000	-5791.545000	-5.720693	-8.116346	-5.606034	-5.609453	-1.939527	-2.914761	-1.929153	0.299506	1.327620	6.760180	-2.884140	0.628416	0.231689	0.682982	-1.000000	-1.000000	-1.000000	-1.000000	-1.000000	-1.000000	-1.000000	84.344828	0.000000	-1.000000	-1.000000	725985.000000	1772895163.692821
-6221.205000	-12098.070000	4569.480000	-1664.550000	-23734.215000	-17556.840000	-1863.045000	-5785.650000	-2.469277	-11.623064	-11.890330	-11.743444	-8.431310	-7.374393	-6.789629	1.363410	1.327620	6.760180	-2.884140	0.628416	0.231689	0.682982	-1.000000	-1.000000	-1.000000	-1.000000	-1.000000	-1.000000	-1.000000	84.344828	0.000000	-1.000000	-1.000000	725986.000000	1772895163.692840
-6234.705000	-12093.795000	4576.590000	-1657.890000	-23728.365000	-17552.295000	-1866.060000	-5808.330000	-0.060594	-10.291480	-13.051959	-13.433914	-11.989907	-9.686329	-8.989156	1.520006	1.327620	6.760180	-2.884140	0.628416	0.231689	0.682982	-1.000000	-1.000000	-1.000000	-1.000000	-1.000000	-1.000000	-1.000000	84.344828	0.000000	-1.000000	-1.000000	725987.000000	1772895163.692850
-6223.995000	-12086.460000	4588.605000	-1642.545000	-23710.590000	-17534.565000	-1858.995000	-5819.445000	0.991254	-2.280688	-5.929311	-7.060235	-7.913299	-6.058495	-5.396306	0.152143	1.327620	6.760180	-2.884140	0.628416	0.231689	0.682982	-1.000000	-1.000000	-1.000000	-1.000000	-1.000000	-1.000000	-1.000000	84.344828	0.000000	-1.000000	-1.000000	725988.000000	1772895163.692853
-6231.015000	-12086.280000	4591.710000	-1638.990000	-23707.935000	-17532.450000	-1861.965000	-5819.220000	1.733307	8.626255	6.049319	4.783848	2.510032	2.738008	2.086740	-2.395215	1.327620	6.760180	-2.884140	0.628416	0.231689	0.682982	-1.000000	-1.000000	-1.000000	-1.000000	-1.000000	-1.000000	-1.000000	84.344828	0.000000	-1.000000	-1.000000	725989.000000	1772895163.695811
-6223.275000	-12085.065000	4590.765000	-1640.970000	-23712.525000	-17539.785000	-1874.880000	-5805.945000	2.673646	15.919810	15.718286	15.256791	12.902225	11.531695	8.641601	-4.446836	1.327620	6.760180	-2.884140	0.628416	0.231689	0.682982	-1.000000	-1.000000	-1.000000	-1.000000	-1.000000	-1.000000	-1.000000	84.344828	0.000000	-1.000000	-1.000000	725990.000000	1772895163.695817
-6205.590000	-12073.545000	4600.530000	-1629.585000	-23701.320000	-17530.920000	-1872.630000	-5785.965000	3.501591	15.869612	18.023256	18.849775	17.212487	15.057020	10.501314	-4.370974	-4.654300	5.600420	-2.044840	0.627501	0.241515	0.691099	-1.000000	-1.000000	-1.000000	-1.000000	-1.000000	-1.000000	-1.000000	84.344828	0.000000	-1.000000	-1.000000	725991.000000	1772895163.699919
-6232.950000	-12084.120000	4595.670000	-1630.710000	-23697.225000	-17518.995000	-1861.830000	-5816.565000	4.025451	10.263407	13.595472	15.506825	14.654276	12.711324	8.049765	-2.087085	-4.654300	5.600420	-2.044840	0.627501	0.241515	0.691099	-1.000000	-1.000000	-1.000000	-1.000000	-1.000000	-1.000000	-1.000000	84.344828	0.000000	-1.000000	-1.000000	725992.000000	1772895163.699927
-6239.115000	-12084.255000	4597.920000	-1627.605000	-23692.590000	-17513.010000	-1850.625000	-5823.405000	3.528908	3.555106	6.779987	9.136329	8.906707	8.038603	4.751487	0.542714	-4.654300	5.600420	-2.044840	0.627501	0.241515	0.691099	-1.000000	-1.000000	-1.000000	-1.000000	-1.000000	-1.000000	-1.000000	84.344828	0.000000	-1.000000	-1.000000	725993.000000	1772895163.703793
-6228.495000	-12096.090000	4583.790000	-1644.345000	-23711.580000	-17533.440000	-1861.695000	-5823.540000	1.726552	-1.445890	1.037589	3.059066	3.370218	3.877620	2.669485	1.535760	-4.654300	5.600420	-2.044840	0.627501	0.241515	0.691099	-1.000000	-1.000000	-1.000000	-1.000000	-1.000000	-1.000000	-1.000000	84.344828	0.000000	-1.000000	-1.000000	725994.000000	1772895163.703800
-6208.920000	-12094.155000	4582.080000	-1646.415000	-23711.850000	-17534.520000	-1860.480000	-5795.910000	0.457372	-4.571435	-3.145330	-2.166322	-1.411103	-0.073159	0.772604	1.319572	-4.654300	5.600420	-2.044840	0.627501	0.241515	0.691099	-1.000000	-1.000000	-1.000000	-1.000000	-1.000000	-1.000000	-1.000000	84.344828	0.000000	-1.000000	-1.000000	725995.000000	1772895163.707998
-6197.490000	-12076.470000	4603.545000	-1622.970000	-23684.220000	-17516.205000	-1848.330000	-5776.110000	1.716529	-6.167020	-6.315082	-6.764617	-5.682829	-4.606810	-1.968551	2.667384	-4.654300	5.600420	-2.044840	0.627501	0.241515	0.691099	-1.000000	-1.000000	-1.000000	-1.000000	-1.000000	-1.000000	-1.000000	84.344828	0.000000	-1.000000	-1.000000	725996.000000	1772895163.708004
-6207.570000	-12075.210000	4607.280000	-1619.055000	-23678.415000	-17513.505000	-1850.760000	-5775.345000	4.281402	-5.962269	-8.045302	-9.773330	-8.457806	-8.642418	-4.657156	6.794456	-4.654300	5.600420	-2.044840	0.627501	0.241515	0.691099	-1.000000	-1.000000	-1.000000	-1.000000	-1.000000	-1.000000	-1.000000	84.344828	0.000000	-1.000000	-1.000000	725997.000000	1772895163.711811
-6231.915000	-12077.100000	4603.680000	-1624.455000	-23683.140000	-17519.625000	-1854.990000	-5789.430000	4.196794	-4.397152	-7.961226	-10.348464	-8.990302	-10.615488	-6.090998	10.224207	-4.654300	5.600420	-2.044840	0.627501	0.241515	0.691099	-1.000000	-1.000000	-1.000000	-1.000000	-1.000000	-1.000000	-1.000000	84.344828	0.000000	-1.000000	-1.000000	725998.000000	1772895163.711816
-6231.645000	-12081.465000	4596.075000	-1636.785000	-23708.835000	-17536.275000	-1855.755000	-5788.800000	-0.948815	-2.927717	-6.764519	-9.070549	-8.197307	-10.192713	-5.847590	7.883356	-4.654300	5.600420	-2.044840	0.627501	0.241515	0.691099	-1.000000	-1.000000	-1.000000	-1.000000	-1.000000	-1.000000	-1.000000	84.344828	0.000000	-1.000000	-1.000000	725999.000000	1772895163.717355
-6208.920000	-12069.810000	4609.260000	-1625.445000	-23705.055000	-17528.040000	-1849.320000	-5787.495000	-8.425098	-2.191640	-5.003144	-6.754670	-7.370423	-7.938831	-4.026096	-0.755131	-4.654300	5.600420	-2.044840	0.627501	0.241515	0.691099	-1.000000	-1.000000	-1.000000	-1.000000	-1.000000	-1.000000	-1.000000	84.344828	0.000000	-1.000000	-1.000000	726000.000000	1772895163.717364
-6210.270000	-12064.500000	4617.180000	-1615.275000	-23689.665000	-17519.580000	-1851.210000	-5802.435000	-11.922711	-0.993228	-1.988637	-3.029601	-5.874804	-4.112882	-1.333064	-10.302219	-5.508860	3.235120	-1.617560	0.627196	0.242309	0.696409	-1.000000	-1.000000	-1.000000	-1.000000	-1.000000	-1.000000	-1.000000	84.344828	0.000000	-1.000000	-1.000000	726001.000000	1772895163.724793
-6212.340000	-12066.705000	4612.140000	-1620.000000	-23689.575000	-17517.510000	-1850.670000	-5801.220000	-8.144119	1.720960	2.622047	2.449880	-1.769149	1.277881	1.010250	-14.700185	-5.508860	3.235120	-1.617560	0.627196	0.242309	0.696409	-1.000000	-1.000000	-1.000000	-1.000000	-1.000000	-1.000000	-1.000000	84.344828	0.000000	-1.000000	-1.000000	726002.000000	1772895163.724801
-6195.465000	-12050.325000	4625.955000	-1603.935000	-23669.280000	-17498.160000	-1845.675000	-5791.590000	-0.052621	5.021666	7.277265	8.258914	5.100828	7.491483	2.293476	-12.188902	-5.508860	3.235120	-1.617560	0.627196	0.242309	0.696409	-1.000000	-1.000000	-1.000000	-1.000000	-1.000000	-1.000000	-1.000000	84.344828	0.000000	-1.000000	-1.000000	726003.000000	1772895163.724810
-6184.215000	-12045.555000	4629.285000	-1601.325000	-23668.605000	-17501.265000	-1853.505000	-5792.940000	7.088200	7.002559	9.645108	11.816338	11.869666	12.421540	2.580697	-5.268610	-5.508860	3.235120	-1.617560	0.627196	0.242309	0.696409	-1.000000	-1.000000	-1.000000	-1.000000	-1.000000	-1.000000	-1.000000	84.344828	0.000000	-1.000000	-1.000000	726004.000000	1772895163.724814
-6184.440000	-12042.900000	4626.495000	-1604.700000	-23673.195000	-17502.930000	-1841.535000	-5788.890000	9.856873	6.030248	7.881322	10.602679	13.917650	12.809099	1.942054	1.971264	-5.508860	3.235120	-1.617560	0.627196	0.242309	0.696409	-1.000000	-1.000000	-1.000000	-1.000000	-1.000000	-1.000000	-1.000000	84.344828	0.000000	-1.000000	-1.000000	726005.000000	1772895163.727654
-6195.870000	-12045.555000	4622.670000	-1608.615000	-23677.920000	-17500.320000	-1810.620000	-5780.520000	7.674920	1.772434	1.874910	4.038585	8.617967	7.140690	1.242762	6.798730	-5.508860	3.235120	-1.617560	0.627196	0.242309	0.696409	-1.000000	-1.000000	-1.000000	-1.000000	-1.000000	-1.000000	-1.000000	84.344828	0.000000	-1.000000	-1.000000	726006.000000	1772895163.727662
-6195.240000	-12043.800000	4630.050000	-1600.110000	-23668.065000	-17495.190000	-1819.215000	-5790.195000	2.467423	-3.887813	-5.433359	-4.596949	-1.070484	-1.558494	1.976128	8.634352	-5.508860	3.235120	-1.617560	0.627196	0.242309	0.696409	-1.000000	-1.000000	-1.000000	-1.000000	-1.000000	-1.000000	-1.000000	84.344828	0.000000	-1.000000	-1.000000	726007.000000	1772895163.731978
-6207.390000	-12063.420000	4621.140000	-1609.920000	-23685.480000	-17506.305000	-1852.605000	-5812.470000	-3.167101	-8.257422	-9.881790	-10.286356	-8.876400	-8.214559	3.048502	7.192314	-5.508860	3.235120	-1.617560	0.627196	0.242309	0.696409	-1.000000	-1.000000	-1.000000	-1.000000	-1.000000	-1.000000	-1.000000	84.344828	0.000000	-1.000000	-1.000000	726008.000000	1772895163.731988
-6222.375000	-12078.000000	4602.915000	-1628.100000	-23701.905000	-17523.945000	-1861.695000	-5812.830000	-7.734311	-10.081450	-9.918628	-10.952666	-11.413310	-10.591589	1.181070	2.703597	-5.508860	3.235120	-1.617560	0.627196	0.242309	0.696409	-1.000000	-1.000000	-1.000000	-1.000000	-1.000000	-1.000000	-1.000000	84.344828	0.000000	-1.000000	-1.000000	726009.000000	1772895163.735729
-6219.630000	-12073.905000	4606.155000	-1623.645000	-23696.325000	-17517.870000	-1830.780000	-5787.945000	-10.060754	-9.198663	-6.940966	-8.080689	-9.703994	-9.697205	-3.554177	-1.815704	-5.508860	3.235120	-1.617560	0.627196	0.242309	0.696409	-1.000000	-1.000000	-1.000000	-1.000000	-1.000000	-1.000000	-1.000000	84.344828	0.000000	-1.000000	-1.000000	726010.000000	1772895163.735737
-6219.765000	-12082.995000	4596.300000	-1636.155000	-23708.655000	-17531.145000	-1844.280000	-5775.120000	-8.733710	-5.505829	-2.591990	-3.614576	-5.761982	-6.797580	-6.871003	-2.562078	-1.403920	2.899400	0.442540	0.631956	0.234985	0.698240	-1.000000	-1.000000	-1.000000	-1.000000	-1.000000	-1.000000	-1.000000	84.344828	0.000000	-1.000000	-1.000000	726011.000000	1772895163.739629
-6213.420000	-12083.265000	4595.085000	-1645.245000	-23717.475000	-17538.345000	-1864.395000	-5783.445000	-3.940106	-0.016722	1.820203	0.816555	-1.331514	-2.937030	-6.265259	0.319036	-1.403920	2.899400	0.442540	0.631956	0.234985	0.698240	-1.000000	-1.000000	-1.000000	-1.000000	-1.000000	-1.000000	-1.000000	84.344828	0.000000	-1.000000	-1.000000	726012.000000	1772895163.739636
-6204.690000	-12079.440000	4594.365000	-1645.380000	-23717.970000	-17538.120000	-1855.530000	-5786.955000	2.099551	5.019674	4.840659	3.571008	1.921724	0.610702	-3.252638	2.919345	-1.403920	2.899400	0.442540	0.631956	0.234985	0.698240	-1.000000	-1.000000	-1.000000	-1.000000	-1.000000	-1.000000	-1.000000	84.344828	0.000000	-1.000000	-1.000000	726013.000000	1772895163.743955
-6229.755000	-12102.075000	4568.895000	-1660.590000	-23729.940000	-17550.495000	-1858.455000	-5808.645000	6.801035	7.669820	5.508114	4.163069	3.480740	3.153663	-0.082131	1.950519	-1.403920	2.899400	0.442540	0.631956	0.234985	0.698240	-1.000000	-1.000000	-1.000000	-1.000000	-1.000000	-1.000000	-1.000000	84.344828	0.000000	-1.000000	-1.000000	726014.000000	1772895163.743963
-6228.315000	-12091.320000	4581.360000	-1641.915000	-23709.780000	-17531.775000	-1837.935000	-5797.305000	8.465529	7.286099	4.002737	3.647848	4.208543	4.782474	2.165273	-2.343859	-1.403920	2.899400	0.442540	0.631956	0.234985	0.698240	-1.000000	-1.000000	-1.000000	-1.000000	-1.000000	-1.000000	-1.000000	84.344828	0.000000	-1.000000	-1.000000	726015.000000	1772895163.747754
-6210.000000	-12063.015000	4611.195000	-1616.040000	-23686.740000	-17512.290000	-1836.720000	-5791.680000	7.359624	5.501282	2.372047	4.000111	5.690136	6.394614	3.962670	-6.253575	-1.403920	2.899400	0.442540	0.631956	0.234985	0.698240	-1.000000	-1.000000	-1.000000	-1.000000	-1.000000	-1.000000	-1.000000	84.344828	0.000000	-1.000000	-1.000000	726016.000000	1772895163.747762
-6195.645000	-12051.720000	4617.405000	-1614.015000	-23688.180000	-17517.015000	-1862.235000	-5782.095000	5.593809	5.277466	3.244539	6.416432	8.654347	8.609395	5.999893	-5.755656	-1.403920	2.899400	0.442540	0.631956	0.234985	0.698240	-1.000000	-1.000000	-1.000000	-1.000000	-1.000000	-1.000000	-1.000000	84.344828	0.000000	-1.000000	-1.000000	726017.000000	1772895163.751706
-6197.130000	-12063.780000	4604.850000	-1629.000000	-23705.505000	-17536.005000	-1880.055000	-5775.300000	4.728510	6.943945	6.227311	9.100135	10.897081	9.726051	6.578202	-0.534549	-1.403920	2.899400	0.442540	0.631956	0.234985	0.698240	-1.000000	-1.000000	-1.000000	-1.000000	-1.000000	-1.000000	-1.000000	84.344828	0.000000	-1.000000	-1.000000	726018.000000	1772895163.751714
-6224.985000	-12090.105000	4598.730000	-1631.745000	-23708.340000	-17538.975000	-1879.380000	-5799.375000	3.596013	6.866562	7.612215	8.427005	8.762682	6.999151	3.287489	5.081918	-1.403920	2.899400	0.442540	0.631956	0.234985	0.698240	-1.000000	-1.000000	-1.000000	-1.000000	-1.000000	-1.000000	-1.000000	84.344828	0.000000	-1.000000	-1.000000	726019.000000	1772895163.755863
-6235.740000	-12090.465000	4600.620000	-1632.420000	-23711.535000	-17540.190000	-1856.610000	-5796.180000	-0.390783	1.861973	4.678448	3.158924	1.670654	0.485853	-2.228815	5.949150	-1.403920	2.899400	0.442540	0.631956	0.234985	0.698240	-1.000000	-1.000000	-1.000000	-1.000000	-1.000000	-1.000000	-1.000000	84.344828	0.000000	-1.000000	-1.000000	726020.000000	1772895163.755895
-6242.895000	-12077.730000	4607.865000	-1624.005000	-23700.015000	-17525.925000	-1843.020000	-5820.255000	-7.330568	-6.294163	-1.425077	-4.041788	-6.685894	-6.244987	-4.795806	1.341802	3.616620	4.181240	-2.075360	0.637327	0.229919	0.692869	-1.000000	-1.000000	-1.000000	-1.000000	-1.000000	-1.000000	-1.000000	84.344828	0.000000	-1.000000	-1.000000	726021.000000	1772895163.759974
-6238.080000	-12061.980000	4617.495000	-1610.370000	-23680.035000	-17503.110000	-1846.395000	-5836.140000	-13.400839	-12.096456	-6.973972	-9.051798	-11.399361	-9.044381	-2.188208	-5.060560	3.616620	4.181240	-2.075360	0.637327	0.229919	0.692869	-1.000000	-1.000000	-1.000000	-1.000000	-1.000000	-1.000000	-1.000000	84.344828	0.000000	-1.000000	-1.000000	726022.000000	1772895163.759981
-6216.615000	-12055.770000	4621.005000	-1612.665000	-23683.410000	-17504.595000	-1862.865000	-5825.970000	-13.413652	-11.321338	-8.626665	-9.414661	-10.072717	-6.488892	1.900835	-8.761958	3.616620	4.181240	-2.075360	0.637327	0.229919	0.692869	-1.000000	-1.000000	-1.000000	-1.000000	-1.000000	-1.000000	-1.000000	84.344828	0.000000	-1.000000	-1.000000	726023.000000	1772895163.763833
-6191.415000	-12065.490000	4609.890000	-1623.015000	-23691.555000	-17511.345000	-1864.665000	-5799.780000	-5.299092	-5.041338	-6.434884	-6.458709	-5.063621	-1.551661	2.494062	-6.762328	3.616620	4.181240	-2.075360	0.637327	0.229919	0.692869	-1.000000	-1.000000	-1.000000	-1.000000	-1.000000	-1.000000	-1.000000	84.344828	0.000000	-1.000000	-1.000000	726024.000000	1772895163.763843
-6193.350000	-12094.065000	4575.510000	-1649.025000	-23712.570000	-17527.590000	-1847.970000	-5780.610000	6.777653	0.916359	-4.227553	-4.163015	-1.369088	0.898923	-0.617453	0.793933	3.616620	4.181240	-2.075360	0.637327	0.229919	0.692869	-1.000000	-1.000000	-1.000000	-1.000000	-1.000000	-1.000000	-1.000000	84.344828	0.000000	-1.000000	-1.000000	726025.000000	1772895163.767859
-6213.420000	-12095.820000	4580.145000	-1647.630000	-23710.320000	-17521.965000	-1831.815000	-5791.905000	14.801609	1.848354	-4.861254	-4.469746	-1.243663	-0.671047	-2.751101	9.767386	3.616620	4.181240	-2.075360	0.637327	0.229919	0.692869	-1.000000	-1.000000	-1.000000	-1.000000	-1.000000	-1.000000	-1.000000	84.344828	0.000000	-1.000000	-1.000000	726026.000000	1772895163.767868
-6226.065000	-12092.175000	4586.490000	-1643.130000	-23707.935000	-17527.860000	-1840.815000	-5795.190000	13.542802	-0.806092	-6.049001	-4.879363	-2.282165	-3.242873	-0.701134	14.156573	3.616620	4.181240	-2.075360	0.637327	0.229919	0.692869	-1.000000	-1.000000	-1.000000	-1.000000	-1.000000	-1.000000	-1.000000	84.344828	0.000000	-1.000000	-1.000000	726027.000000	1772895163.771790
-6230.295000	-12090.780000	4589.010000	-1644.615000	-23711.130000	-17534.385000	-1848.420000	-5796.045000	4.811682	-1.910393	-3.641340	-2.093160	-1.221786	-3.550643	2.998865	11.006273	3.616620	4.181240	-2.075360	0.637327	0.229919	0.692869	-1.000000	-1.000000	-1.000000	-1.000000	-1.000000	-1.000000	-1.000000	84.344828	0.000000	-1.000000	-1.000000	726028.000000	1772895163.771796
-6219.765000	-12079.980000	4596.030000	-1638.135000	-23703.120000	-17529.255000	-1849.815000	-5797.125000	-4.771719	1.034619	2.712843	3.684123	2.264274	-1.332000	3.662825	2.757112	3.616620	4.181240	-2.075360	0.637327	0.229919	0.692869	-1.000000	-1.000000	-1.000000	-1.000000	-1.000000	-1.000000	-1.000000	84.344828	0.000000	-1.000000	-1.000000	726029.000000	1772895163.775668
-6222.015000	-12085.515000	4589.775000	-1641.330000	-23706.900000	-17533.935000	-1858.050000	-5795.235000	-9.547370	5.632011	9.237227	9.083953	5.797603	1.485607	-0.166920	-5.299892	3.616620	4.181240	-2.075360	0.637327	0.229919	0.692869	-1.000000	-1.000000	-1.000000	-1.000000	-1.000000	-1.000000	-1.000000	84.344828	0.000000	-1.000000	-1.000000	726030.000000	1772895163.775673
-6212.970000	-12083.805000	4588.110000	-1640.070000	-23708.025000	-17534.295000	-1863.045000	-5794.965000	-8.261509	7.754121	11.750257	10.726107	6.675754	2.795983	-5.815311	-8.936945	0.747740	4.974760	-1.999060	0.638182	0.237792	0.689573	-1.000000	-1.000000	-1.000000	-1.000000	-1.000000	-1.000000	-1.000000	84.344828	0.000000	-1.000000	-1.000000	726031.000000	1772895163.782717
-6205.095000	-12079.575000	4593.960000	-1636.470000	-23712.255000	-17533.800000	-1862.730000	-5791.275000	-3.450900	5.741425	9.046285	7.892218	4.188848	2.104196	-9.070426	-7.778673	0.747740	4.974760	-1.999060	0.638182	0.237792	0.689573	-1.000000	-1.000000	-1.000000	-1.000000	-1.000000	-1.000000	-1.000000	84.344828	0.000000	-1.000000	-1.000000	726032.000000	1772895163.782724
-6201.540000	-12070.305000	4607.955000	-1623.960000	-23696.820000	-17522.775000	-1851.705000	-5788.080000	1.063194	1.566422	3.644653	2.944809	0.384263	0.971055	-7.375777	-4.821700	0.747740	4.974760	-1.999060	0.638182	0.237792	0.689573	-1.000000	-1.000000	-1.000000	-1.000000	-1.000000	-1.000000	-1.000000	84.344828	0.000000	-1.000000	-1.000000	726033.000000	1772895163.783671
-6224.940000	-12078.900000	4600.890000	-1629.270000	-23703.255000	-17528.085000	-1852.920000	-5801.130000	2.677472	-1.542401	-0.607081	-0.819990	-1.690732	1.225713	-1.567852	-3.026364	0.747740	4.974760	-1.999060	0.638182	0.237792	0.689573	-1.000000	-1.000000	-1.000000	-1.000000	-1.000000	-1.000000	-1.000000	84.344828	0.000000	-1.000000	-1.000000	726034.000000	1772895163.783677
-6225.750000	-12065.535000	4613.220000	-1618.335000	-23696.415000	-17518.005000	-1849.770000	-5806.980000	1.468139	-2.119271	-2.040909	-1.985419	-0.967876	2.946620	4.925197	-2.916796	0.747740	4.974760	-1.999060	0.638182	0.237792	0.689573	-1.000000	-1.000000	-1.000000	-1.000000	-1.000000	-1.000000	-1.000000	84.344828	0.000000	-1.000000	-1.000000	726035.000000	1772895163.787790
-6219.045000	-12063.465000	4615.695000	-1614.960000	-23690.745000	-17515.485000	-1851.750000	-5812.200000	-0.111272	-0.881683	-1.770349	-1.488799	1.070962	4.731341	8.817490	-2.968243	0.747740	4.974760	-1.999060	0.638182	0.237792	0.689573	-1.000000	-1.000000	-1.000000	-1.000000	-1.000000	-1.000000	-1.000000	84.344828	0.000000	-1.000000	-1.000000	726036.000000	1772895163.787798
-6219.945000	-12069.270000	4610.070000	-1616.985000	-23687.055000	-17512.830000	-1847.430000	-5820.570000	0.219942	0.407730	-1.690742	-1.011037	2.464286	5.151223	8.926913	-1.706392	0.747740	4.974760	-1.999060	0.638182	0.237792	0.689573	-1.000000	-1.000000	-1.000000	-1.000000	-1.000000	-1.000000	-1.000000	84.344828	0.000000	-1.000000	-1.000000	726037.000000	1772895163.791801
-6208.605000	-12074.895000	4606.560000	-1618.695000	-23687.190000	-17510.220000	-1841.445000	-5809.725000	2.183946	-0.139267	-2.987032	-1.755660	2.010513	3.367267	6.012616	1.069428	0.747740	4.974760	-1.999060	0.638182	0.237792	0.689573	-1.000000	-1.000000	-1.000000	-1.000000	-1.000000	-1.000000	-1.000000	84.344828	0.000000	-1.000000	-1.000000	726038.000000	1772895163.791807
-6184.350000	-12066.255000	4617.495000	-1607.940000	-23677.605000	-17505.675000	-1837.080000	-5779.665000	4.211313	-2.738590	-5.042893	-3.558768	-0.285910	-0.351165	1.945582	5.123500	0.747740	4.974760	-1.999060	0.638182	0.237792	0.689573	-1.000000	-1.000000	-1.000000	-1.000000	-1.000000	-1.000000	-1.000000	84.344828	0.000000	-1.000000	-1.000000	726039.000000	1772895163.804385
-6194.340000	-12069.315000	4615.065000	-1609.605000	-23678.235000	-17508.105000	-1850.040000	-5786.640000	5.050846	-5.310189	-5.828467	-4.891500	-2.979360	-4.446397	-1.523612	9.513154	0.747740	4.974760	-1.999060	0.638182	0.237792	0.689573	-1.000000	-1.000000	-1.000000	-1.000000	-1.000000	-1.000000	-1.000000	84.344828	0.000000	-1.000000	-1.000000	726040.000000	1772895163.804394
-6231.780000	-12062.655000	4623.480000	-1605.240000	-23676.120000	-17506.530000	-1865.745000	-5836.815000	2.779809	-5.765753	-4.315415	-4.593247	-4.472190	-7.156266	-4.153133	10.628204	-5.661460	4.196500	-0.610400	0.634337	0.245605	0.693236	-1.000000	-1.000000	-1.000000	-1.000000	-1.000000	-1.000000	-1.000000	84.344828	0.000000	-1.000000	-1.000000	726041.000000	1772895163.804406
-6231.510000	-12060.585000	4624.695000	-1607.355000	-23679.990000	-17510.400000	-1876.320000	-5849.190000	-3.489715	-3.577091	-1.220839	-2.815398	-4.359148	-7.554300	-6.650582	4.697792	-5.661460	4.196500	-0.610400	0.634337	0.245605	0.693236	-1.000000	-1.000000	-1.000000	-1.000000	-1.000000	-1.000000	-1.000000	84.344828	0.000000	-1.000000	-1.000000	726042.000000	1772895163.804410
-6223.455000	-12062.160000	4615.155000	-1620.495000	-23693.940000	-17521.740000	-1861.695000	-5804.865000	-9.879588	0.379157	1.995339	-0.528887	-3.274523	-5.827549	-8.415494	-5.396180	-5.661460	4.196500	-0.610400	0.634337	0.245605	0.693236	-1.000000	-1.000000	-1.000000	-1.000000	-1.000000	-1.000000	-1.000000	84.344828	0.000000	-1.000000	-1.000000	726043.000000	1772895163.804415
-6248.070000	-12070.125000	4606.605000	-1626.525000	-23696.235000	-17518.905000	-1840.230000	-5788.080000	-11.004417	3.942830	3.523126	0.890470	-2.192526	-3.031283	-7.061065	-10.821664	-5.661460	4.196500	-0.610400	0.634337	0.245605	0.693236	-1.000000	-1.000000	-1.000000	-1.000000	-1.000000	-1.000000	-1.000000	84.344828	0.000000	-1.000000	-1.000000	726044.000000	1772895163.804418
-6219.990000	-12073.815000	4595.265000	-1633.095000	-23699.070000	-17520.975000	-1847.925000	-5787.000000	-6.023232	4.946495	2.298496	0.716362	-1.558445	-0.150040	-1.489489	-6.771713	-5.661460	4.196500	-0.610400	0.634337	0.245605	0.693236	-1.000000	-1.000000	-1.000000	-1.000000	-1.000000	-1.000000	-1.000000	84.344828	0.000000	-1.000000	-1.000000	726045.000000	1772895163.807762
-6204.375000	-12070.890000	4607.550000	-1621.980000	-23690.340000	-17518.905000	-1866.015000	-5792.985000	2.232558	3.273946	-0.425105	-0.056567	-0.827957	2.329662	5.192216	2.573876	-5.661460	4.196500	-0.610400	0.634337	0.245605	0.693236	-1.000000	-1.000000	-1.000000	-1.000000	-1.000000	-1.000000	-1.000000	84.344828	0.000000	-1.000000	-1.000000	726046.000000	1772895163.807772
-6207.480000	-12067.965000	4612.230000	-1619.955000	-23688.810000	-17518.860000	-1867.410000	-5797.170000	9.778379	0.754166	-1.866897	0.277712	0.726256	3.979670	8.116700	9.114234	-5.661460	4.196500	-0.610400	0.634337	0.245605	0.693236	-1.000000	-1.000000	-1.000000	-1.000000	-1.000000	-1.000000	-1.000000	84.344828	0.000000	-1.000000	-1.000000	726047.000000	1772895163.812967
-6226.425000	-12081.375000	4600.350000	-1628.100000	-23695.155000	-17518.455000	-1855.530000	-5805.270000	12.086618	-1.057083	-0.794876	1.910890	2.773674	4.452793	6.047557	7.750094	-5.661460	4.196500	-0.610400	0.634337	0.245605	0.693236	-1.000000	-1.000000	-1.000000	-1.000000	-1.000000	-1.000000	-1.000000	84.344828	0.000000	-1.000000	-1.000000	726048.000000	1772895163.812977
-6227.685000	-12073.590000	4609.260000	-1617.480000	-23684.445000	-17506.170000	-1832.040000	-5799.240000	7.453304	-1.943148	1.359347	3.432388	4.204734	3.982413	2.514806	0.094019	-5.661460	4.196500	-0.610400	0.634337	0.245605	0.693236	-1.000000	-1.000000	-1.000000	-1.000000	-1.000000	-1.000000	-1.000000	84.344828	0.000000	-1.000000	-1.000000	726049.000000	1772895163.815985
-6209.280000	-12050.775000	4629.780000	-1598.580000	-23666.220000	-17491.050000	-1827.405000	-5800.320000	-0.093884	-1.675441	3.050422	4.093150	4.749995	3.451237	1.515645	-6.982856	-5.661460	4.196500	-0.610400	0.634337	0.245605	0.693236	-1.000000	-1.000000	-1.000000	-1.000000	-1.000000	-1.000000	-1.000000	84.344828	0.000000	-1.000000	-1.000000	726050.000000	1772895163.815992
-6200.640000	-12048.570000	4625.775000	-1607.850000	-23677.155000	-17504.640000	-1849.815000	-5804.370000	-4.457940	0.349457	4.128882	4.283119	4.905077	3.336169	2.823572	-8.267444	-2.411080	3.677660	0.579880	0.629454	0.245178	0.697142	-1.000000	-1.000000	-1.000000	-1.000000	-1.000000	-1.000000	-1.000000	84.344828	0.000000	-1.000000	-1.000000	726051.000000	1772895163.821287
-6212.295000	-12076.020000	4594.590000	-1640.295000	-23707.395000	-17534.610000	-1865.205000	-5807.115000	-3.646892	2.969649	4.047043	3.470532	4.011419	2.403099	2.269927	-5.117215	-2.411080	3.677660	0.579880	0.629454	0.245178	0.697142	-1.000000	-1.000000	-1.000000	-1.000000	-1.000000	-1.000000	-1.000000	84.344828	0.000000	-1.000000	-1.000000	726052.000000	1772895163.821294
-6227.640000	-12099.555000	4573.350000	-1658.610000	-23722.515000	-17546.715000	-1852.380000	-5798.970000	-0.697666	3.136713	1.341214	0.158412	0.509767	-1.108690	-2.558486	-1.826846	-2.411080	3.677660	0.579880	0.629454	0.245178	0.697142	-1.000000	-1.000000	-1.000000	-1.000000	-1.000000	-1.000000	-1.000000	84.344828	0.000000	-1.000000	-1.000000	726053.000000	1772895163.823672
-6224.940000	-12096.270000	4577.220000	-1655.910000	-23722.740000	-17550.315000	-1861.740000	-5803.920000	0.190511	-0.337208	-3.594630	-5.119969	-5.100889	-6.405546	-8.556000	-0.013677	-2.411080	3.677660	0.579880	0.629454	0.245178	0.697142	-1.000000	-1.000000	-1.000000	-1.000000	-1.000000	-1.000000	-1.000000	84.344828	0.000000	-1.000000	-1.000000	726054.000000	1772895163.823677
-6208.605000	-12075.840000	4597.380000	-1635.930000	-23706.405000	-17536.320000	-1863.315000	-5798.115000	-2.162385	-4.527280	-7.390835	-8.847323	-9.359493	-9.839713	-10.726425	1.240378	-2.411080	3.677660	0.579880	0.629454	0.245178	0.697142	-1.000000	-1.000000	-1.000000	-1.000000	-1.000000	-1.000000	-1.000000	84.344828	0.000000	-1.000000	-1.000000	726055.000000	1772895163.827802
-6212.475000	-12075.255000	4601.115000	-1632.555000	-23704.065000	-17531.730000	-1857.960000	-5797.080000	-5.037584	-5.322497	-6.715114	-7.670012	-8.792895	-8.205478	-7.360789	2.648478	-2.411080	3.677660	0.579880	0.629454	0.245178	0.697142	-1.000000	-1.000000	-1.000000	-1.000000	-1.000000	-1.000000	-1.000000	84.344828	0.000000	-1.000000	-1.000000	726056.000000	1772895163.827811
-6219.990000	-12082.140000	4594.995000	-1637.865000	-23709.195000	-17533.755000	-1857.195000	-5799.690000	-5.267578	-1.861161	-1.661956	-1.876717	-3.329164	-1.909421	-0.764954	3.856437	-2.411080	3.677660	0.579880	0.629454	0.245178	0.697142	-1.000000	-1.000000	-1.000000	-1.000000	-1.000000	-1.000000	-1.000000	84.344828	0.000000	-1.000000	-1.000000	726057.000000	1772895163.831827
-6219.990000	-12082.680000	4596.165000	-1637.550000	-23706.810000	-17531.190000	-1852.740000	-5797.845000	-2.412375	2.740420	4.071730	4.523793	3.393944	5.097539	5.102401	4.223281	-2.411080	3.677660	0.579880	0.629454	0.245178	0.697142	-1.000000	-1.000000	-1.000000	-1.000000	-1.000000	-1.000000	-1.000000	84.344828	0.000000	-1.000000	-1.000000	726058.000000	1772895163.831835
-6223.140000	-12085.515000	4593.330000	-1639.080000	-23707.440000	-17531.955000	-1851.705000	-5802.570000	1.419269	4.636846	6.424299	7.350901	7.269945	8.744071	7.724632	3.572039	-2.411080	3.677660	0.579880	0.629454	0.245178	0.697142	-1.000000	-1.000000	-1.000000	-1.000000	-1.000000	-1.000000	-1.000000	84.344828	0.000000	-1.000000	-1.000000	726059.000000	1772895163.840659
-6228.540000	-12087.765000	4590.315000	-1642.680000	-23711.760000	-17537.355000	-1856.070000	-5811.975000	3.707794	2.893985	4.612457	5.926133	7.193713	8.127635	7.333609	1.792149	-2.411080	3.677660	0.579880	0.629454	0.245178	0.697142	-1.000000	-1.000000	-1.000000	-1.000000	-1.000000	-1.000000	-1.000000	84.344828	0.000000	-1.000000	-1.000000	726060.000000	1772895163.840706
-6222.195000	-12079.170000	4598.325000	-1639.980000	-23714.460000	-17539.920000	-1849.140000	-5805.720000	3.945169	0.244990	1.582346	3.061869	5.101798	5.288211	5.300715	-1.119150	-3.097780	4.898460	-0.778260	0.634947	0.238098	0.692808	-1.000000	-1.000000	-1.000000	-1.000000	-1.000000	-1.000000	-1.000000	84.344828	0.000000	-1.000000	-1.000000	726061.000000	1772895163.840761
-6226.515000	-12084.975000	4593.105000	-1643.940000	-23718.195000	-17542.980000	-1853.235000	-5807.880000	3.461057	-0.087923	0.570863	1.540988	3.063300	2.417866	2.495224	-4.037483	-3.097780	4.898460	-0.778260	0.634947	0.238098	0.692808	-1.000000	-1.000000	-1.000000	-1.000000	-1.000000	-1.000000	-1.000000	84.344828	0.000000	-1.000000	-1.000000	726062.000000	1772895163.840787
-6226.155000	-12085.065000	4592.835000	-1639.395000	-23707.710000	-17529.660000	-1850.445000	-5809.140000	2.699599	1.652594	1.350404	1.223946	1.359957	0.220407	-0.413605	-5.246055	-3.097780	4.898460	-0.778260	0.634947	0.238098	0.692808	-1.000000	-1.000000	-1.000000	-1.000000	-1.000000	-1.000000	-1.000000	84.344828	0.000000	-1.000000	-1.000000	726063.000000	1772895163.843868
-6229.620000	-12087.720000	4593.195000	-1638.225000	-23703.840000	-17530.695000	-1860.165000	-5811.435000	0.863948	2.369571	1.080044	0.124473	-0.624846	-1.566145	-2.662388	-4.158785	-3.097780	4.898460	-0.778260	0.634947	0.238098	0.692808	-1.000000	-1.000000	-1.000000	-1.000000	-1.000000	-1.000000	-1.000000	84.344828	0.000000	-1.000000	-1.000000	726064.000000	1772895163.843876
-6220.350000	-12081.555000	4606.155000	-1628.685000	-23693.445000	-17525.565000	-1855.440000	-5798.070000	-1.631548	0.494641	-1.304417	-2.322425	-2.714058	-3.206555	-4.030104	-1.445957	-3.097780	4.898460	-0.778260	0.634947	0.238098	0.692808	-1.000000	-1.000000	-1.000000	-1.000000	-1.000000	-1.000000	-1.000000	84.344828	0.000000	-1.000000	-1.000000	726065.000000	1772895163.847955
-6219.675000	-12078.990000	4610.160000	-1621.890000	-23683.905000	-17517.600000	-1849.500000	-5793.885000	-2.768736	-2.295933	-3.733628	-4.376220	-3.747139	-4.336864	-4.533821	2.012107	-3.097780	4.898460	-0.778260	0.634947	0.238098	0.692808	-1.000000	-1.000000	-1.000000	-1.000000	-1.000000	-1.000000	-1.000000	84.344828	0.000000	-1.000000	-1.000000	726066.000000	1772895163.847962
-6228.315000	-12057.255000	4628.475000	-1598.670000	-23666.625000	-17493.210000	-1841.805000	-5802.255000	-1.701205	-3.494121	-3.970662	-4.133697	-2.932878	-4.020501	-3.811332	5.000042	-3.097780	4.898460	-0.778260	0.634947	0.238098	0.692808	-1.000000	-1.000000	-1.000000	-1.000000	-1.000000	-1.000000	-1.000000	84.344828	0.000000	-1.000000	-1.000000	726067.000000	1772895163.852184
-6231.330000	-12067.245000	4615.695000	-1610.730000	-23684.670000	-17511.480000	-1863.135000	-5816.115000	0.036770	-2.230003	-1.925941	-1.494747	-0.945389	-1.923614	-1.915302	5.720830	-3.097780	4.898460	-0.778260	0.634947	0.238098	0.692808	-1.000000	-1.000000	-1.000000	-1.000000	-1.000000	-1.000000	-1.000000	84.344828	0.000000	-1.000000	-1.000000	726068.000000	1772895163.852200
-6237.585000	-12101.670000	4575.285000	-1658.115000	-23729.715000	-17554.860000	-1865.880000	-5803.065000	0.770057	-0.226585	0.144933	1.068431	-0.033602	0.123060	-0.014949	3.452860	-3.097780	4.898460	-0.778260	0.634947	0.238098	0.692808	-1.000000	-1.000000	-1.000000	-1.000000	-1.000000	-1.000000	-1.000000	84.344828	0.000000	-1.000000	-1.000000	726069.000000	1772895163.855852
-6242.265000	-12104.505000	4572.630000	-1663.245000	-23736.645000	-17559.360000	-1867.050000	-5803.020000	0.255986	-0.183673	-0.388618	0.388871	-2.132289	-0.491365	0.738190	-0.250898	-3.097780	4.898460	-0.778260	0.634947	0.238098	0.692808	-1.000000	-1.000000	-1.000000	-1.000000	-1.000000	-1.000000	-1.000000	84.344828	0.000000	-1.000000	-1.000000	726070.000000	1772895163.855861
-6225.210000	-12081.420000	4599.315000	-1634.310000	-23707.305000	-17534.070000	-1881.045000	-5835.555000	-0.633461	-1.902792	-2.721348	-2.869504	-5.526595	-3.058434	0.393956	-3.519752	1.953280	6.287120	0.228900	0.634337	0.234863	0.694273	-1.000000	-1.000000	-1.000000	-1.000000	-1.000000	-1.000000	-1.000000	84.344828	0.000000	-1.000000	-1.000000	726071.000000	1772895163.861299
-6203.745000	-12068.730000	4612.320000	-1622.340000	-23693.805000	-17523.045000	-1889.910000	-5832.540000	-0.416050	-2.243656	-3.028200	-4.325292	-5.864494	-3.841214	-0.330144	-5.815475	1.953280	6.287120	0.228900	0.634337	0.234863	0.694273	-1.000000	-1.000000	-1.000000	-1.000000	-1.000000	-1.000000	-1.000000	84.344828	0.000000	-1.000000	-1.000000	726072.000000	1772895163.861307
-6207.030000	-12073.365000	4607.820000	-1628.775000	-23698.305000	-17521.965000	-1873.935000	-5792.490000	1.534194	0.301177	0.214559	-1.731105	-1.609860	-0.988437	-0.499107	-6.056270	1.953280	6.287120	0.228900	0.634337	0.234863	0.694273	-1.000000	-1.000000	-1.000000	-1.000000	-1.000000	-1.000000	-1.000000	84.344828	0.000000	-1.000000	-1.000000	726073.000000	1772895163.864403
-6202.800000	-12063.555000	4619.205000	-1615.545000	-23683.770000	-17508.330000	-1854.090000	-5757.120000	3.684733	3.808864	4.441372	2.753075	4.338396	3.696958	0.984196	-2.139313	1.953280	6.287120	0.228900	0.634337	0.234863	0.694273	-1.000000	-1.000000	-1.000000	-1.000000	-1.000000	-1.000000	-1.000000	84.344828	0.000000	-1.000000	-1.000000	726074.000000	1772895163.864411
-6224.895000	-12076.290000	4605.435000	-1626.705000	-23694.615000	-17521.425000	-1859.310000	-5780.295000	3.650114	5.304550	6.191773	5.606944	7.956251	6.835712	3.868739	5.097029	1.953280	6.287120	0.228900	0.634337	0.234863	0.694273	-1.000000	-1.000000	-1.000000	-1.000000	-1.000000	-1.000000	-1.000000	84.344828	0.000000	-1.000000	-1.000000	726075.000000	1772895163.867935
-6239.880000	-12108.825000	4563.405000	-1668.195000	-23737.005000	-17557.290000	-1850.850000	-5802.120000	0.389094	2.701014	3.363633	4.178327	6.485643	5.402797	6.055335	10.311363	1.953280	6.287120	0.228900	0.634337	0.234863	0.694273	-1.000000	-1.000000	-1.000000	-1.000000	-1.000000	-1.000000	-1.000000	84.344828	0.000000	-1.000000	-1.000000	726076.000000	1772895163.867943
-6229.665000	-12113.145000	4555.755000	-1679.580000	-23748.840000	-17565.615000	-1856.835000	-5799.195000	-4.473230	-3.318046	-3.194948	-1.409271	0.297050	-0.498017	5.994269	8.892005	1.953280	6.287120	0.228900	0.634337	0.234863	0.694273	-1.000000	-1.000000	-1.000000	-1.000000	-1.000000	-1.000000	-1.000000	84.344828	0.000000	-1.000000	-1.000000	726077.000000	1772895163.871729
-6223.905000	-12098.655000	4573.485000	-1662.255000	-23730.390000	-17548.245000	-1854.180000	-5800.185000	-7.224827	-7.963958	-8.295465	-6.314551	-5.493679	-5.790875	3.743321	1.668584	1.953280	6.287120	0.228900	0.634337	0.234863	0.694273	-1.000000	-1.000000	-1.000000	-1.000000	-1.000000	-1.000000	-1.000000	84.344828	0.000000	-1.000000	-1.000000	726078.000000	1772895163.871738
-6232.770000	-12090.555000	4585.410000	-1649.610000	-23718.690000	-17537.715000	-1857.645000	-5813.145000	-5.659917	-6.526345	-6.692045	-5.142151	-5.295946	-5.190952	0.099731	-6.609309	1.953280	6.287120	0.228900	0.634337	0.234863	0.694273	-1.000000	-1.000000	-1.000000	-1.000000	-1.000000	-1.000000	-1.000000	84.344828	0.000000	-1.000000	-1.000000	726079.000000	1772895163.878738
-6230.025000	-12094.290000	4582.935000	-1650.150000	-23714.730000	-17534.115000	-1858.950000	-5811.930000	-1.615145	-0.113199	0.505219	1.284487	0.300004	0.438709	-3.484156	-11.013554	1.953280	6.287120	0.228900	0.634337	0.234863	0.694273	-1.000000	-1.000000	-1.000000	-1.000000	-1.000000	-1.000000	-1.000000	84.344828	0.000000	-1.000000	-1.000000	726080.000000	1772895163.878746
-6224.805000	-12090.330000	4586.670000	-1643.175000	-23702.445000	-17530.155000	-1857.600000	-5802.615000	1.581201	5.851908	7.207079	7.192129	5.825979	5.662880	-5.485267	-9.436139	4.425400	5.600420	-3.357200	0.633971	0.235595	0.692076	-1.000000	-1.000000	-1.000000	-1.000000	-1.000000	-1.000000	-1.000000	84.344828	0.000000	-1.000000	-1.000000	726081.000000	1772895163.879921
-6212.655000	-12075.570000	4601.925000	-1629.000000	-23687.100000	-17518.140000	-1855.845000	-5795.505000	2.864798	7.805291	9.167912	8.677898	7.543509	6.747876	-5.697123	-4.119515	4.425400	5.600420	-3.357200	0.633971	0.235595	0.692076	-1.000000	-1.000000	-1.000000	-1.000000	-1.000000	-1.000000	-1.000000	84.344828	0.000000	-1.000000	-1.000000	726082.000000	1772895163.879928
-6204.465000	-12068.235000	4611.105000	-1619.730000	-23676.345000	-17511.345000	-1849.320000	-5795.460000	3.488181	6.214604	6.752366	6.114720	5.574398	3.996339	-5.016845	0.754293	4.425400	5.600420	-3.357200	0.633971	0.235595	0.692076	-1.000000	-1.000000	-1.000000	-1.000000	-1.000000	-1.000000	-1.000000	84.344828	0.000000	-1.000000	-1.000000	726083.000000	1772895163.883730
-6206.130000	-12069.990000	4611.105000	-1621.305000	-23693.625000	-17516.610000	-1844.190000	-5797.395000	4.677410	3.248546	2.756415	1.946708	1.719362	-0.059301	-3.786001	3.479013	4.425400	5.600420	-3.357200	0.633971	0.235595	0.692076	-1.000000	-1.000000	-1.000000	-1.000000	-1.000000	-1.000000	-1.000000	84.344828	0.000000	-1.000000	-1.000000	726084.000000	1772895163.883737
-6191.820000	-12060.045000	4619.835000	-1615.005000	-23695.920000	-17519.175000	-1843.335000	-5793.165000	6.178833	0.941863	0.086235	-1.091658	-1.924355	-2.678032	-1.577997	5.258281	4.425400	5.600420	-3.357200	0.633971	0.235595	0.692076	-1.000000	-1.000000	-1.000000	-1.000000	-1.000000	-1.000000	-1.000000	84.344828	0.000000	-1.000000	-1.000000	726085.000000	1772895163.887864
-6194.700000	-12073.770000	4605.120000	-1628.820000	-23700.735000	-17534.430000	-1876.230000	-5807.430000	6.409586	0.086774	-0.259964	-1.661918	-3.695649	-2.753706	1.025231	6.542007	4.425400	5.600420	-3.357200	0.633971	0.235595	0.692076	-1.000000	-1.000000	-1.000000	-1.000000	-1.000000	-1.000000	-1.000000	84.344828	0.000000	-1.000000	-1.000000	726086.000000	1772895163.887885
-6207.300000	-12080.250000	4598.685000	-1633.905000	-23698.170000	-17533.170000	-1877.895000	-5812.830000	3.676893	-0.796467	-0.495770	-1.483133	-3.766555	-1.863207	2.130641	5.837469	4.425400	5.600420	-3.357200	0.633971	0.235595	0.692076	-1.000000	-1.000000	-1.000000	-1.000000	-1.000000	-1.000000	-1.000000	84.344828	0.000000	-1.000000	-1.000000	726087.000000	1772895163.891810
-6192.540000	-12052.710000	4623.300000	-1609.380000	-23674.230000	-17500.905000	-1833.660000	-5795.730000	-1.803043	-3.160053	-2.968836	-2.946293	-3.511229	-1.814441	1.853477	3.015971	4.425400	5.600420	-3.357200	0.633971	0.235595	0.692076	-1.000000	-1.000000	-1.000000	-1.000000	-1.000000	-1.000000	-1.000000	84.344828	0.000000	-1.000000	-1.000000	726088.000000	1772895163.891819
-6194.430000	-12028.140000	4647.645000	-1587.015000	-23658.705000	-17482.185000	-1807.155000	-5787.630000	-7.333676	-5.273106	-6.093843	-5.148461	-3.149311	-1.836120	3.325615	0.359555	4.425400	5.600420	-3.357200	0.633971	0.235595	0.692076	-1.000000	-1.000000	-1.000000	-1.000000	-1.000000	-1.000000	-1.000000	84.344828	0.000000	-1.000000	-1.000000	726089.000000	1772895163.895799
-6193.080000	-12023.190000	4656.555000	-1583.010000	-23664.105000	-17486.235000	-1817.685000	-5784.705000	-10.157909	-4.523343	-6.455960	-5.371637	-2.242422	-0.637115	7.331396	-0.958984	4.425400	5.600420	-3.357200	0.633971	0.235595	0.692076	-1.000000	-1.000000	-1.000000	-1.000000	-1.000000	-1.000000	-1.000000	84.344828	0.000000	-1.000000	-1.000000	726090.000000	1772895163.895807
-6214.590000	-12061.080000	4618.125000	-1616.040000	-23689.485000	-17509.410000	-1842.975000	-5781.060000	-9.770844	-2.076514	-4.219384	-3.786733	-1.895682	0.385190	9.313796	-2.065941	-3.509800	4.700080	-0.488320	0.632689	0.241943	0.697752	-1.000000	-1.000000	-1.000000	-1.000000	-1.000000	-1.000000	-1.000000	84.344828	0.000000	-1.000000	-1.000000	726091.000000	1772895163.900945
-6225.030000	-12081.330000	4600.305000	-1626.840000	-23693.130000	-17515.350000	-1856.970000	-5810.490000	-7.450619	-1.895350	-3.092519	-3.268026	-3.421602	-1.072829	4.628993	-3.931537	-3.509800	4.700080	-0.488320	0.632689	0.241943	0.697752	-1.000000	-1.000000	-1.000000	-1.000000	-1.000000	-1.000000	-1.000000	84.344828	0.000000	-1.000000	-1.000000	726092.000000	1772895163.900954
-6235.515000	-12081.555000	4604.310000	-1626.075000	-23694.840000	-17520.165000	-1853.460000	-5830.785000	-4.314280	-4.886444	-4.432034	-4.401398	-5.054281	-4.164250	-5.349448	-6.313209	-3.509800	4.700080	-0.488320	0.632689	0.241943	0.697752	-1.000000	-1.000000	-1.000000	-1.000000	-1.000000	-1.000000	-1.000000	84.344828	0.000000	-1.000000	-1.000000	726093.000000	1772895163.906286
-6236.370000	-12067.200000	4622.085000	-1608.300000	-23678.415000	-17508.015000	-1836.855000	-5818.140000	-0.783106	-7.045931	-4.832069	-4.016133	-3.190611	-5.175050	-13.607300	-7.821078	-3.509800	4.700080	-0.488320	0.632689	0.241943	0.697752	-1.000000	-1.000000	-1.000000	-1.000000	-1.000000	-1.000000	-1.000000	84.344828	0.000000	-1.000000	-1.000000	726094.000000	1772895163.906294
-6230.520000	-12064.635000	4621.410000	-1611.180000	-23683.365000	-17511.300000	-1823.895000	-5787.990000	3.004508	-4.183252	-0.843831	0.465029	2.830578	-1.792250	-13.340145	-5.794481	-3.509800	4.700080	-0.488320	0.632689	0.241943	0.697752	-1.000000	-1.000000	-1.000000	-1.000000	-1.000000	-1.000000	-1.000000	84.344828	0.000000	-1.000000	-1.000000	726095.000000	1772895163.907668
-6227.145000	-12073.500000	4604.310000	-1629.090000	-23701.635000	-17523.630000	-1834.740000	-5780.520000	6.972329	3.032649	5.967120	6.877582	8.845740	3.745137	-4.499761	1.175649	-3.509800	4.700080	-0.488320	0.632689	0.241943	0.697752	-1.000000	-1.000000	-1.000000	-1.000000	-1.000000	-1.000000	-1.000000	84.344828	0.000000	-1.000000	-1.000000	726096.000000	1772895163.907674
-6226.155000	-12088.935000	4584.735000	-1649.385000	-23723.775000	-17541.945000	-1865.745000	-5789.565000	10.046434	9.053090	9.770792	9.508299	9.152090	6.125717	5.026584	9.657257	-3.509800	4.700080	-0.488320	0.632689	0.241943	0.697752	-1.000000	-1.000000	-1.000000	-1.000000	-1.000000	-1.000000	-1.000000	84.344828	0.000000	-1.000000	-1.000000	726097.000000	1772895163.911771
-6209.955000	-12077.640000	4593.105000	-1641.870000	-23715.180000	-17532.495000	-1860.930000	-5788.170000	10.541664	9.006652	6.681612	5.213516	2.406818	2.690173	7.156993	13.338421	-3.509800	4.700080	-0.488320	0.632689	0.241943	0.697752	-1.000000	-1.000000	-1.000000	-1.000000	-1.000000	-1.000000	-1.000000	84.344828	0.000000	-1.000000	-1.000000	726098.000000	1772895163.911775
-6206.040000	-12071.925000	4600.485000	-1635.030000	-23705.055000	-17527.545000	-1865.160000	-5804.775000	8.292168	4.017343	-0.486509	-2.419467	-5.965867	-3.030798	2.192179	9.048731	-3.509800	4.700080	-0.488320	0.632689	0.241943	0.697752	-1.000000	-1.000000	-1.000000	-1.000000	-1.000000	-1.000000	-1.000000	84.344828	0.000000	-1.000000	-1.000000	726099.000000	1772895163.915867
-6217.740000	-12074.940000	4601.970000	-1632.420000	-23698.665000	-17523.540000	-1859.805000	-5817.375000	4.516504	-0.426495	-4.936796	-6.462483	-8.700694	-5.106909	-2.931677	-0.743887	-3.509800	4.700080	-0.488320	0.632689	0.241943	0.697752	-1.000000	-1.000000	-1.000000	-1.000000	-1.000000	-1.000000	-1.000000	84.344828	0.000000	-1.000000	-1.000000	726100.000000	1772895163.915875
-6228.270000	-12082.680000	4594.680000	-1639.260000	-23708.205000	-17534.790000	-1873.080000	-5826.600000	0.192465	-0.709626	-2.929341	-3.646037	-3.688943	-1.491910	-3.088763	-9.857556	-3.418240	3.738700	-1.434440	0.631346	0.244079	0.698301	-1.000000	-1.000000	-1.000000	-1.000000	-1.000000	-1.000000	-1.000000	84.344828	0.000000	-1.000000	-1.000000	726101.000000	1772895163.919924
-6225.210000	-12079.260000	4596.075000	-1639.170000	-23710.455000	-17535.330000	-1871.685000	-5819.715000	-4.009126	1.851561	2.914075	3.006640	4.671135	4.616263	0.846703	-12.603839	-3.418240	3.738700	-1.434440	0.631346	0.244079	0.698301	-1.000000	-1.000000	-1.000000	-1.000000	-1.000000	-1.000000	-1.000000	84.344828	0.000000	-1.000000	-1.000000	726102.000000	1772895163.919930
-6216.030000	-12070.395000	4603.455000	-1631.880000	-23704.065000	-17524.035000	-1854.360000	-5808.870000	-6.969491	3.735907	7.202451	7.995032	10.153687	8.673031	5.066591	-7.993634	-3.418240	3.738700	-1.434440	0.631346	0.244079	0.698301	-1.000000	-1.000000	-1.000000	-1.000000	-1.000000	-1.000000	-1.000000	84.344828	0.000000	-1.000000	-1.000000	726103.000000	1772895163.923747
-6210.990000	-12066.660000	4606.965000	-1629.675000	-23703.570000	-17526.105000	-1856.430000	-5810.445000	-7.484873	3.160368	7.162111	8.433610	9.848457	8.607215	7.111534	-0.027401	-3.418240	3.738700	-1.434440	0.631346	0.244079	0.698301	-1.000000	-1.000000	-1.000000	-1.000000	-1.000000	-1.000000	-1.000000	84.344828	0.000000	-1.000000	-1.000000	726104.000000	1772895163.923753
-6201.405000	-12060.450000	4615.155000	-1620.855000	-23695.065000	-17521.245000	-1856.700000	-5803.200000	-5.438696	0.820668	3.915738	5.284946	5.289230	5.109307	6.448460	6.166059	-3.418240	3.738700	-1.434440	0.631346	0.244079	0.698301	-1.000000	-1.000000	-1.000000	-1.000000	-1.000000	-1.000000	-1.000000	84.344828	0.000000	-1.000000	-1.000000	726105.000000	1772895163.927936
-6206.940000	-12064.050000	4615.380000	-1620.180000	-23693.670000	-17517.915000	-1850.715000	-5800.635000	-2.227428	-1.855253	-0.023831	1.057522	-0.105505	0.185971	3.780487	8.159665	-3.418240	3.738700	-1.434440	0.631346	0.244079	0.698301	-1.000000	-1.000000	-1.000000	-1.000000	-1.000000	-1.000000	-1.000000	84.344828	0.000000	-1.000000	-1.000000	726106.000000	1772895163.927992
-6201.990000	-12060.540000	4618.710000	-1615.545000	-23687.280000	-17510.310000	-1851.255000	-5797.170000	0.111131	-4.148314	-3.291591	-2.668492	-4.050934	-4.114933	0.488674	6.582070	-3.418240	3.738700	-1.434440	0.631346	0.244079	0.698301	-1.000000	-1.000000	-1.000000	-1.000000	-1.000000	-1.000000	-1.000000	84.344828	0.000000	-1.000000	-1.000000	726107.000000	1772895163.931859
-6206.490000	-12064.365000	4612.500000	-1620.990000	-23691.420000	-17518.815000	-1868.490000	-5800.320000	0.679701	-5.639119	-5.656945	-5.449970	-6.150288	-6.605898	-2.566037	3.380400	-3.418240	3.738700	-1.434440	0.631346	0.244079	0.698301	-1.000000	-1.000000	-1.000000	-1.000000	-1.000000	-1.000000	-1.000000	84.344828	0.000000	-1.000000	-1.000000	726108.000000	1772895163.931898
-6202.980000	-12057.795000	4617.630000	-1616.175000	-23688.045000	-17519.085000	-1861.335000	-5794.920000	0.550971	-5.364779	-6.607537	-6.797732	-6.627114	-7.026449	-5.041148	0.651806	-3.418240	3.738700	-1.434440	0.631346	0.244079	0.698301	-1.000000	-1.000000	-1.000000	-1.000000	-1.000000	-1.000000	-1.000000	84.344828	0.000000	-1.000000	-1.000000	726109.000000	1772895163.935890
-6208.785000	-12052.170000	4623.435000	-1615.140000	-23684.670000	-17509.860000	-1840.050000	-5799.870000	1.146764	-2.664745	-5.331845	-6.029658	-5.332630	-5.336366	-5.772734	-0.412722	-3.418240	3.738700	-1.434440	0.631346	0.244079	0.698301	-1.000000	-1.000000	-1.000000	-1.000000	-1.000000	-1.000000	-1.000000	84.344828	0.000000	-1.000000	-1.000000	726110.000000	1772895163.935898
-6219.540000	-12058.560000	4628.115000	-1615.005000	-23684.265000	-17502.165000	-1825.830000	-5811.705000	2.079052	1.215267	-2.108543	-3.409565	-2.461501	-1.798116	-3.527999	-0.776653	-4.516960	3.052000	0.366240	0.634764	0.242065	0.698485	-1.000000	-1.000000	-1.000000	-1.000000	-1.000000	-1.000000	-1.000000	84.344828	0.000000	-1.000000	-1.000000	726111.000000	1772895163.941802
-6213.285000	-12057.075000	4624.155000	-1615.815000	-23685.795000	-17509.365000	-1830.870000	-5799.420000	1.791346	3.598935	1.231648	-0.477821	0.564277	1.995521	0.430291	-2.324743	-4.516960	3.052000	0.366240	0.634764	0.242065	0.698485	-1.000000	-1.000000	-1.000000	-1.000000	-1.000000	-1.000000	-1.000000	84.344828	0.000000	-1.000000	-1.000000	726112.000000	1772895163.941810
-6206.940000	-12063.825000	4617.810000	-1610.685000	-23677.245000	-17506.035000	-1837.890000	-5784.075000	0.108233	2.948816	2.677414	1.376952	2.265983	3.845419	2.886208	-4.644261	-4.516960	3.052000	0.366240	0.634764	0.242065	0.698485	-1.000000	-1.000000	-1.000000	-1.000000	-1.000000	-1.000000	-1.000000	84.344828	0.000000	-1.000000	-1.000000	726113.000000	1772895163.943839
-6194.070000	-12066.345000	4616.145000	-1611.945000	-23680.080000	-17508.015000	-1842.390000	-5774.760000	-1.386473	0.080888	1.645640	1.925577	2.414542	3.019526	2.036835	-5.277934	-4.516960	3.052000	0.366240	0.634764	0.242065	0.698485	-1.000000	-1.000000	-1.000000	-1.000000	-1.000000	-1.000000	-1.000000	84.344828	0.000000	-1.000000	-1.000000	726114.000000	1772895163.943862
-6204.465000	-12070.755000	4612.455000	-1621.440000	-23691.465000	-17516.025000	-1840.365000	-5794.695000	-1.416826	-2.936033	-0.761706	1.403187	1.295125	0.374971	-1.116187	-3.436247	-4.516960	3.052000	0.366240	0.634764	0.242065	0.698485	-1.000000	-1.000000	-1.000000	-1.000000	-1.000000	-1.000000	-1.000000	84.344828	0.000000	-1.000000	-1.000000	726115.000000	1772895163.947860
-6213.690000	-12073.590000	4608.090000	-1627.065000	-23696.280000	-17517.465000	-1828.800000	-5798.475000	-0.549711	-4.296255	-2.776695	-0.000079	-0.871478	-2.686456	-3.793989	-1.030607	-4.516960	3.052000	0.366240	0.634764	0.242065	0.698485	-1.000000	-1.000000	-1.000000	-1.000000	-1.000000	-1.000000	-1.000000	84.344828	0.000000	-1.000000	-1.000000	726116.000000	1772895163.947868
-6224.220000	-12090.600000	4587.660000	-1649.160000	-23718.060000	-17537.805000	-1837.890000	-5806.980000	-0.166166	-3.445165	-3.267467	-1.783362	-3.352844	-4.670810	-3.554241	0.191996	-4.516960	3.052000	0.366240	0.634764	0.242065	0.698485	-1.000000	-1.000000	-1.000000	-1.000000	-1.000000	-1.000000	-1.000000	84.344828	0.000000	-1.000000	-1.000000	726117.000000	1772895163.952406
-6216.795000	-12083.085000	4599.270000	-1637.415000	-23706.945000	-17528.670000	-1833.840000	-5789.565000	-0.422939	-1.122078	-2.176534	-2.979892	-4.766492	-4.547643	-0.721924	0.642095	-4.516960	3.052000	0.366240	0.634764	0.242065	0.698485	-1.000000	-1.000000	-1.000000	-1.000000	-1.000000	-1.000000	-1.000000	84.344828	0.000000	-1.000000	-1.000000	726118.000000	1772895163.952413
-6211.170000	-12066.390000	4619.970000	-1617.390000	-23688.675000	-17511.255000	-1827.540000	-5786.235000	-0.118121	1.841979	0.363156	-2.111494	-3.431062	-1.982603	2.004641	1.825314	-4.516960	3.052000	0.366240	0.634764	0.242065	0.698485	-1.000000	-1.000000	-1.000000	-1.000000	-1.000000	-1.000000	-1.000000	84.344828	0.000000	-1.000000	-1.000000	726119.000000	1772895163.956486
-6213.735000	-12064.995000	4620.195000	-1617.435000	-23689.485000	-17514.495000	-1840.725000	-5797.575000	1.464830	5.015421	4.036170	1.542870	1.125610	2.338531	2.375387	3.807333	-4.516960	3.052000	0.366240	0.634764	0.242065	0.698485	-1.000000	-1.000000	-1.000000	-1.000000	-1.000000	-1.000000	-1.000000	84.344828	0.000000	-1.000000	-1.000000	726120.000000	1772895163.956493
-6207.300000	-12062.835000	4615.785000	-1622.115000	-23692.860000	-17520.390000	-1841.535000	-5797.080000	3.248005	7.316678	7.186624	5.998950	6.494636	6.222514	0.342975	4.444177	0.473060	2.639980	-1.602300	0.630919	0.234496	0.700560	-1.000000	-1.000000	-1.000000	-1.000000	-1.000000	-1.000000	-1.000000	84.344828	0.000000	-1.000000	-1.000000	726121.000000	1772895163.959812
-6201.945000	-12055.095000	4624.875000	-1611.270000	-23682.285000	-17506.620000	-1825.065000	-5791.095000	3.525128	7.371924	7.786325	7.989875	9.112095	7.467718	-1.752975	2.141682	0.473060	2.639980	-1.602300	0.630919	0.234496	0.700560	-1.000000	-1.000000	-1.000000	-1.000000	-1.000000	-1.000000	-1.000000	84.344828	0.000000	-1.000000	-1.000000	726122.000000	1772895163.959819
-6193.665000	-12041.505000	4643.055000	-1591.920000	-23662.080000	-17486.640000	-1813.500000	-5780.880000	1.920724	5.170335	5.689599	6.562257	7.915878	6.118291	-1.147702	-1.634472	0.473060	2.639980	-1.602300	0.630919	0.234496	0.700560	-1.000000	-1.000000	-1.000000	-1.000000	-1.000000	-1.000000	-1.000000	84.344828	0.000000	-1.000000	-1.000000	726123.000000	1772895163.963998
-6198.930000	-12052.440000	4630.230000	-1606.095000	-23678.145000	-17505.945000	-1841.445000	-5793.705000	-0.356219	1.779520	2.274968	3.280610	4.508474	3.618122	1.817696	-3.809459	0.473060	2.639980	-1.602300	0.630919	0.234496	0.700560	-1.000000	-1.000000	-1.000000	-1.000000	-1.000000	-1.000000	-1.000000	84.344828	0.000000	-1.000000	-1.000000	726124.000000	1772895163.964007
-6198.750000	-12057.705000	4624.020000	-1611.855000	-23680.620000	-17508.960000	-1845.810000	-5796.405000	-1.811127	-1.973285	-1.431877	-0.411815	0.406433	0.530402	3.647205	-3.036880	0.473060	2.639980	-1.602300	0.630919	0.234496	0.700560	-1.000000	-1.000000	-1.000000	-1.000000	-1.000000	-1.000000	-1.000000	84.344828	0.000000	-1.000000	-1.000000	726125.000000	1772895163.968146
-6206.895000	-12063.375000	4617.720000	-1618.245000	-23687.235000	-17515.440000	-1841.985000	-5798.340000	-1.956402	-5.328862	-4.760218	-3.787571	-3.504611	-2.842907	2.331842	-0.559450	0.473060	2.639980	-1.602300	0.630919	0.234496	0.700560	-1.000000	-1.000000	-1.000000	-1.000000	-1.000000	-1.000000	-1.000000	84.344828	0.000000	-1.000000	-1.000000	726126.000000	1772895163.968154
-6212.880000	-12068.010000	4611.735000	-1625.490000	-23694.570000	-17522.415000	-1843.425000	-5802.795000	-1.632825	-7.519716	-7.155252	-6.398432	-6.541495	-5.730451	-0.671989	1.416121	0.473060	2.639980	-1.602300	0.630919	0.234496	0.700560	-1.000000	-1.000000	-1.000000	-1.000000	-1.000000	-1.000000	-1.000000	84.344828	0.000000	-1.000000	-1.000000	726127.000000	1772895163.971785
-6203.115000	-12061.170000	4618.215000	-1621.800000	-23692.590000	-17522.730000	-1848.195000	-5797.305000	-1.725564	-8.193015	-8.432289	-8.106268	-8.473584	-7.695291	-3.196415	1.654591	0.473060	2.639980	-1.602300	0.630919	0.234496	0.700560	-1.000000	-1.000000	-1.000000	-1.000000	-1.000000	-1.000000	-1.000000	84.344828	0.000000	-1.000000	-1.000000	726128.000000	1772895163.971793
-6208.650000	-12071.205000	4608.315000	-1629.540000	-23700.690000	-17528.715000	-1855.440000	-5800.950000	-1.921444	-7.055705	-8.008308	-8.254815	-8.728665	-8.059766	-4.035609	0.783188	0.473060	2.639980	-1.602300	0.630919	0.234496	0.700560	-1.000000	-1.000000	-1.000000	-1.000000	-1.000000	-1.000000	-1.000000	84.344828	0.000000	-1.000000	-1.000000	726129.000000	1772895163.975982
-6204.555000	-12050.415000	4634.055000	-1597.995000	-23666.265000	-17494.830000	-1814.580000	-5799.105000	-1.698763	-3.886316	-4.886554	-5.585149	-6.116704	-5.474024	-2.380003	-0.094741	0.473060	2.639980	-1.602300	0.630919	0.234496	0.700560	-1.000000	-1.000000	-1.000000	-1.000000	-1.000000	-1.000000	-1.000000	84.344828	0.000000	-1.000000	-1.000000	726130.000000	1772895163.975990
-6195.420000	-12019.410000	4679.145000	-1548.405000	-23615.280000	-17448.480000	-1773.630000	-5793.345000	-1.090998	1.242265	1.361417	0.672319	0.215212	0.829344	2.276125	-0.694007	1.449700	2.655240	-0.824040	0.633971	0.232238	0.700132	-1.000000	-1.000000	-1.000000	-1.000000	-1.000000	-1.000000	-1.000000	84.344828	0.000000	-1.000000	-1.000000	726131.000000	1772895163.980715
-6185.745000	-12018.015000	4687.245000	-1543.005000	-23608.845000	-17445.105000	-1807.695000	-5832.045000	0.042967	7.284115	9.318847	9.139008	8.987002	9.163069	8.106252	-1.379965	1.449700	2.655240	-0.824040	0.633971	0.232238	0.700132	-1.000000	-1.000000	-1.000000	-1.000000	-1.000000	-1.000000	-1.000000	84.344828	0.000000	-1.000000	-1.000000	726132.000000	1772895163.980722
-6184.035000	-12064.545000	4623.435000	-1613.520000	-23682.735000	-17512.830000	-1887.795000	-5848.515000	1.934976	10.956540	14.329802	14.628691	14.840574	14.244419	9.544970	-2.727644	1.449700	2.655240	-0.824040	0.633971	0.232238	0.700132	-1.000000	-1.000000	-1.000000	-1.000000	-1.000000	-1.000000	-1.000000	84.344828	0.000000	-1.000000	-1.000000	726133.000000	1772895163.984007
-6206.535000	-12104.910000	4564.395000	-1676.655000	-23751.045000	-17565.615000	-1875.690000	-5809.590000	3.738758	8.247757	10.550475	10.607432	10.779577	10.019134	2.457729	-3.679528	1.449700	2.655240	-0.824040	0.633971	0.232238	0.700132	-1.000000	-1.000000	-1.000000	-1.000000	-1.000000	-1.000000	-1.000000	84.344828	0.000000	-1.000000	-1.000000	726134.000000	1772895163.984017
-6245.955000	-12083.895000	4590.630000	-1646.820000	-23720.130000	-17545.770000	-1855.440000	-5807.520000	3.225319	-0.547562	-2.007378	-2.856420	-3.319597	-3.075749	-8.843715	-1.542083	1.449700	2.655240	-0.824040	0.633971	0.232238	0.700132	-1.000000	-1.000000	-1.000000	-1.000000	-1.000000	-1.000000	-1.000000	84.344828	0.000000	-1.000000	-1.000000	726135.000000	1772895163.987831
-6227.640000	-12069.540000	4611.600000	-1627.605000	-23702.490000	-17532.045000	-1861.470000	-5802.570000	-0.605185	-9.029247	-14.391061	-15.880174	-17.040159	-15.702937	-15.153173	3.795998	1.449700	2.655240	-0.824040	0.633971	0.232238	0.700132	-1.000000	-1.000000	-1.000000	-1.000000	-1.000000	-1.000000	-1.000000	84.344828	0.000000	-1.000000	-1.000000	726136.000000	1772895163.987839
-6224.715000	-12082.140000	4597.065000	-1642.725000	-23717.340000	-17541.585000	-1863.405000	-5779.530000	-4.949361	-10.881192	-17.156392	-18.297808	-19.489766	-18.319054	-12.039873	8.989538	1.449700	2.655240	-0.824040	0.633971	0.232238	0.700132	-1.000000	-1.000000	-1.000000	-1.000000	-1.000000	-1.000000	-1.000000	84.344828	0.000000	-1.000000	-1.000000	726137.000000	1772895163.992006
-6215.355000	-12074.490000	4602.285000	-1632.645000	-23702.895000	-17526.060000	-1854.495000	-5777.865000	-5.817724	-5.850892	-9.449118	-9.473750	-9.832667	-9.852959	-2.363335	10.948983	1.449700	2.655240	-0.824040	0.633971	0.232238	0.700132	-1.000000	-1.000000	-1.000000	-1.000000	-1.000000	-1.000000	-1.000000	84.344828	0.000000	-1.000000	-1.000000	726138.000000	1772895163.992014
-6211.395000	-12076.695000	4598.640000	-1636.065000	-23707.800000	-17530.515000	-1849.545000	-5785.965000	-2.364170	1.492989	2.051744	3.130750	4.028075	2.914109	7.216770	8.243359	1.449700	2.655240	-0.824040	0.633971	0.232238	0.700132	-1.000000	-1.000000	-1.000000	-1.000000	-1.000000	-1.000000	-1.000000	84.344828	0.000000	-1.000000	-1.000000	726139.000000	1772895163.999766
-6212.475000	-12084.345000	4591.080000	-1646.640000	-23717.520000	-17540.145000	-1854.855000	-5793.165000	2.696809	5.916200	9.327964	10.781144	12.571055	11.152836	10.880736	1.278552	1.449700	2.655240	-0.824040	0.633971	0.232238	0.700132	-1.000000	-1.000000	-1.000000	-1.000000	-1.000000	-1.000000	-1.000000	84.344828	0.000000	-1.000000	-1.000000	726140.000000	1772895163.999776
-6223.545000	-12081.240000	4595.895000	-1639.260000	-23708.070000	-17529.750000	-1849.680000	-5794.515000	5.687106	5.560451	9.317717	10.342478	12.180565	11.255329	8.695620	-6.474356	1.968540	4.944240	-0.701960	0.640257	0.233947	0.699095	-1.000000	-1.000000	-1.000000	-1.000000	-1.000000	-1.000000	-1.000000	84.344828	0.000000	-1.000000	-1.000000	726141.000000	1772895164.000230
-6228.315000	-12071.520000	4608.630000	-1627.245000	-23696.955000	-17518.635000	-1851.300000	-5793.480000	4.912237	3.743594	6.571951	7.045710	8.285332	8.025778	6.015236	-10.592105	1.968540	4.944240	-0.701960	0.640257	0.233947	0.699095	-1.000000	-1.000000	-1.000000	-1.000000	-1.000000	-1.000000	-1.000000	84.344828	0.000000	-1.000000	-1.000000	726142.000000	1772895164.000239
-6206.130000	-12054.150000	4626.630000	-1609.020000	-23679.720000	-17501.760000	-1837.080000	-5789.970000	2.382750	4.745148	7.278743	7.642450	8.100769	7.905670	5.779320	-10.073590	1.968540	4.944240	-0.701960	0.640257	0.233947	0.699095	-1.000000	-1.000000	-1.000000	-1.000000	-1.000000	-1.000000	-1.000000	84.344828	0.000000	-1.000000	-1.000000	726143.000000	1772895164.004116
-6191.820000	-12049.020000	4630.545000	-1606.905000	-23679.225000	-17503.470000	-1825.695000	-5789.385000	1.945611	7.911955	10.838594	11.312577	11.046881	10.386163	5.563192	-7.001249	1.968540	4.944240	-0.701960	0.640257	0.233947	0.699095	-1.000000	-1.000000	-1.000000	-1.000000	-1.000000	-1.000000	-1.000000	84.344828	0.000000	-1.000000	-1.000000	726144.000000	1772895164.004127
-6193.530000	-12053.790000	4616.730000	-1619.955000	-23688.135000	-17513.550000	-1824.840000	-5789.520000	4.124924	8.462135	10.802045	11.129938	10.316950	9.462843	2.774911	-3.383012	1.968540	4.944240	-0.701960	0.640257	0.233947	0.699095	-1.000000	-1.000000	-1.000000	-1.000000	-1.000000	-1.000000	-1.000000	84.344828	0.000000	-1.000000	-1.000000	726145.000000	1772895164.009358
-6203.655000	-12065.400000	4603.230000	-1634.085000	-23696.055000	-17525.070000	-1846.440000	-5799.420000	4.988593	3.478823	3.337674	3.165338	2.244971	1.748495	-2.460300	-0.584596	1.968540	4.944240	-0.701960	0.640257	0.233947	0.699095	-1.000000	-1.000000	-1.000000	-1.000000	-1.000000	-1.000000	-1.000000	84.344828	0.000000	-1.000000	-1.000000	726146.000000	1772895164.009368
-6193.890000	-12055.005000	4622.805000	-1619.505000	-23682.285000	-17516.970000	-1846.575000	-5796.090000	1.449420	-5.156505	-8.382450	-9.332703	-9.845175	-9.934899	-8.858872	0.761126	1.968540	4.944240	-0.701960	0.640257	0.233947	0.699095	-1.000000	-1.000000	-1.000000	-1.000000	-1.000000	-1.000000	-1.000000	84.344828	0.000000	-1.000000	-1.000000	726147.000000	1772895164.012503
-6185.520000	-12047.175000	4634.955000	-1600.470000	-23668.830000	-17503.470000	-1837.710000	-5788.890000	-4.898357	-12.642518	-17.327762	-19.091104	-19.183527	-19.192018	-14.194333	1.629741	1.968540	4.944240	-0.701960	0.640257	0.233947	0.699095	-1.000000	-1.000000	-1.000000	-1.000000	-1.000000	-1.000000	-1.000000	84.344828	0.000000	-1.000000	-1.000000	726148.000000	1772895164.012512
-6184.395000	-12051.990000	4630.680000	-1603.755000	-23680.350000	-17504.145000	-1840.905000	-5784.795000	-9.727457	-14.796007	-18.441825	-20.324386	-20.693347	-20.549048	-15.074291	3.654620	1.968540	4.944240	-0.701960	0.640257	0.233947	0.699095	-1.000000	-1.000000	-1.000000	-1.000000	-1.000000	-1.000000	-1.000000	84.344828	0.000000	-1.000000	-1.000000	726149.000000	1772895164.015842
-6191.370000	-12056.265000	4627.935000	-1607.625000	-23679.945000	-17506.980000	-1840.500000	-5785.020000	-10.068633	-10.792002	-11.861517	-12.711595	-14.087584	-13.161996	-9.443856	6.833439	1.968540	4.944240	-0.701960	0.640257	0.233947	0.699095	-1.000000	-1.000000	-1.000000	-1.000000	-1.000000	-1.000000	-1.000000	84.344828	0.000000	-1.000000	-1.000000	726150.000000	1772895164.015852
-6208.920000	-12055.995000	4629.510000	-1608.525000	-23689.080000	-17508.915000	-1833.120000	-5792.130000	-6.452419	-3.220552	-1.690365	-0.967877	-3.183575	-1.186701	0.716207	8.718465	-3.677660	4.623780	0.213640	0.640379	0.237853	0.697264	-1.000000	-1.000000	-1.000000	-1.000000	-1.000000	-1.000000	-1.000000	84.344828	0.000000	-1.000000	-1.000000	726151.000000	1772895164.020273
-6226.920000	-12059.145000	4628.250000	-1607.355000	-23682.780000	-17504.370000	-1823.895000	-5803.110000	-2.128666	3.770036	6.794479	8.608177	6.629352	9.182160	10.114912	6.563692	-3.677660	4.623780	0.213640	0.640379	0.237853	0.697264	-1.000000	-1.000000	-1.000000	-1.000000	-1.000000	-1.000000	-1.000000	84.344828	0.000000	-1.000000	-1.000000	726152.000000	1772895164.020282
-6235.650000	-12066.615000	4626.225000	-1605.645000	-23669.505000	-17497.575000	-1829.070000	-5815.080000	-0.128433	6.840825	9.859217	11.872237	11.514237	13.669443	13.929305	0.335776	-3.677660	4.623780	0.213640	0.640379	0.237853	0.697264	-1.000000	-1.000000	-1.000000	-1.000000	-1.000000	-1.000000	-1.000000	84.344828	0.000000	-1.000000	-1.000000	726153.000000	1772895164.023797
-6245.055000	-12069.495000	4622.985000	-1611.045000	-23672.295000	-17504.865000	-1845.720000	-5839.515000	-0.562879	5.682441	7.684643	9.224062	11.433681	12.123485	10.934683	-7.178978	-3.677660	4.623780	0.213640	0.640379	0.237853	0.697264	-1.000000	-1.000000	-1.000000	-1.000000	-1.000000	-1.000000	-1.000000	84.344828	0.000000	-1.000000	-1.000000	726154.000000	1772895164.023818
-6228.315000	-12048.705000	4640.625000	-1596.735000	-23674.815000	-17507.250000	-1847.655000	-5831.190000	-0.831256	3.027221	3.655039	4.266064	8.324457	6.953402	3.649624	-12.231592	-3.677660	4.623780	0.213640	0.640379	0.237853	0.697264	-1.000000	-1.000000	-1.000000	-1.000000	-1.000000	-1.000000	-1.000000	84.344828	0.000000	-1.000000	-1.000000	726155.000000	1772895164.031852
-6207.030000	-12040.965000	4643.010000	-1595.070000	-23677.785000	-17505.270000	-1837.575000	-5793.390000	1.598471	1.757761	0.660463	0.037101	3.351743	0.567975	-3.653171	-11.283860	-3.677660	4.623780	0.213640	0.640379	0.237853	0.697264	-1.000000	-1.000000	-1.000000	-1.000000	-1.000000	-1.000000	-1.000000	84.344828	0.000000	-1.000000	-1.000000	726156.000000	1772895164.031861
-6177.465000	-12033.270000	4646.070000	-1588.320000	-23663.115000	-17490.195000	-1825.155000	-5765.490000	6.858456	2.357244	-0.872304	-2.614928	-2.225655	-4.827324	-7.318984	-2.974066	-3.677660	4.623780	0.213640	0.640379	0.237853	0.697264	-1.000000	-1.000000	-1.000000	-1.000000	-1.000000	-1.000000	-1.000000	84.344828	0.000000	-1.000000	-1.000000	726157.000000	1772895164.031870
-6185.295000	-12053.790000	4616.505000	-1618.605000	-23687.865000	-17514.270000	-1854.945000	-5789.070000	12.412190	3.231211	-1.823021	-3.984760	-6.040367	-7.279530	-6.291227	8.920722	-3.677660	4.623780	0.213640	0.640379	0.237853	0.697264	-1.000000	-1.000000	-1.000000	-1.000000	-1.000000	-1.000000	-1.000000	84.344828	0.000000	-1.000000	-1.000000	726158.000000	1772895164.031874
-6196.995000	-12050.595000	4616.955000	-1621.890000	-23694.030000	-17518.455000	-1862.775000	-5800.500000	14.323579	2.582288	-2.891587	-4.529643	-6.684120	-6.541588	-2.874044	16.449302	-3.677660	4.623780	0.213640	0.640379	0.237853	0.697264	-1.000000	-1.000000	-1.000000	-1.000000	-1.000000	-1.000000	-1.000000	84.344828	0.000000	-1.000000	-1.000000	726159.000000	1772895164.035827
-6209.145000	-12061.170000	4610.475000	-1629.945000	-23701.275000	-17517.150000	-1845.675000	-5804.325000	10.107983	-0.032939	-3.848254	-4.394070	-4.849272	-3.916858	-0.186081	14.239509	-3.677660	4.623780	0.213640	0.640379	0.237853	0.697264	-1.000000	-1.000000	-1.000000	-1.000000	-1.000000	-1.000000	-1.000000	84.344828	0.000000	-1.000000	-1.000000	726160.000000	1772895164.035836
-6197.490000	-12076.740000	4602.735000	-1639.530000	-23713.110000	-17527.635000	-1842.525000	-5789.430000	1.321084	-3.701676	-3.960007	-3.536846	-2.325042	-0.961814	1.001214	4.592029	-2.823100	4.242280	0.717220	0.631651	0.240417	0.699705	-1.000000	-1.000000	-1.000000	-1.000000	-1.000000	-1.000000	-1.000000	84.344828	0.000000	-1.000000	-1.000000	726161.000000	1772895164.039848
-6198.435000	-12072.195000	4603.860000	-1637.640000	-23710.095000	-17529.120000	-1848.105000	-5788.800000	-7.365776	-6.691644	-2.752523	-1.939157	-0.625251	1.099066	1.670885	-5.252239	-2.823100	4.242280	0.717220	0.631651	0.240417	0.699705	-1.000000	-1.000000	-1.000000	-1.000000	-1.000000	-1.000000	-1.000000	84.344828	0.000000	-1.000000	-1.000000	726162.000000	1772895164.039856
-6193.440000	-12058.290000	4614.885000	-1624.905000	-23692.995000	-17510.715000	-1832.175000	-5778.990000	-11.897827	-6.815147	-0.007378	0.764207	0.638473	2.397371	2.805313	-9.537265	-2.823100	4.242280	0.717220	0.631651	0.240417	0.699705	-1.000000	-1.000000	-1.000000	-1.000000	-1.000000	-1.000000	-1.000000	84.344828	0.000000	-1.000000	-1.000000	726163.000000	1772895164.047352
-6196.095000	-12051.495000	4623.210000	-1614.240000	-23682.870000	-17502.120000	-1827.720000	-5789.070000	-11.671881	-3.379999	3.579354	4.410071	2.976424	4.075046	4.557884	-7.951646	-2.823100	4.242280	0.717220	0.631651	0.240417	0.699705	-1.000000	-1.000000	-1.000000	-1.000000	-1.000000	-1.000000	-1.000000	84.344828	0.000000	-1.000000	-1.000000	726164.000000	1772895164.047361
-6199.065000	-12054.240000	4625.415000	-1611.405000	-23682.420000	-17506.260000	-1832.805000	-5790.690000	-9.131683	1.470925	6.156133	7.334832	6.080783	5.778670	5.378301	-4.882479	-2.823100	4.242280	0.717220	0.631651	0.240417	0.699705	-1.000000	-1.000000	-1.000000	-1.000000	-1.000000	-1.000000	-1.000000	84.344828	0.000000	-1.000000	-1.000000	726165.000000	1772895164.047734
-6206.040000	-12064.590000	4627.485000	-1608.525000	-23679.630000	-17504.415000	-1836.360000	-5794.920000	-6.804696	4.741579	6.475660	7.853335	7.736358	5.620119	3.415933	-4.166706	-2.823100	4.242280	0.717220	0.631651	0.240417	0.699705	-1.000000	-1.000000	-1.000000	-1.000000	-1.000000	-1.000000	-1.000000	84.344828	0.000000	-1.000000	-1.000000	726166.000000	1772895164.047743
-6215.715000	-12068.640000	4618.710000	-1616.445000	-23683.050000	-17505.900000	-1837.080000	-5802.345000	-4.852046	5.198986	5.010595	6.040553	6.706312	3.203222	-0.476828	-4.968348	-2.823100	4.242280	0.717220	0.631651	0.240417	0.699705	-1.000000	-1.000000	-1.000000	-1.000000	-1.000000	-1.000000	-1.000000	84.344828	0.000000	-1.000000	-1.000000	726167.000000	1772895164.051795
-6217.470000	-12065.580000	4618.485000	-1617.165000	-23684.535000	-17508.870000	-1837.305000	-5814.045000	-1.668622	3.669611	2.661848	2.981032	3.686161	0.081727	-3.673827	-4.206821	-2.823100	4.242280	0.717220	0.631651	0.240417	0.699705	-1.000000	-1.000000	-1.000000	-1.000000	-1.000000	-1.000000	-1.000000	84.344828	0.000000	-1.000000	-1.000000	726168.000000	1772895164.051803
-6206.355000	-12051.180000	4631.175000	-1607.355000	-23678.820000	-17505.630000	-1825.245000	-5819.265000	3.597705	1.958635	0.019462	-0.370306	-0.034924	-2.461410	-4.994089	-1.017929	-2.823100	4.242280	0.717220	0.631651	0.240417	0.699705	-1.000000	-1.000000	-1.000000	-1.000000	-1.000000	-1.000000	-1.000000	84.344828	0.000000	-1.000000	-1.000000	726169.000000	1772895164.056138
-6188.490000	-12032.595000	4649.895000	-1591.200000	-23667.750000	-17497.305000	-1812.645000	-5796.765000	9.664457	1.840582	-1.757215	-2.775867	-3.120534	-3.752805	-4.477652	3.196007	-2.823100	4.242280	0.717220	0.631651	0.240417	0.699705	-1.000000	-1.000000	-1.000000	-1.000000	-1.000000	-1.000000	-1.000000	84.344828	0.000000	-1.000000	-1.000000	726170.000000	1772895164.056148
-6193.890000	-12049.245000	4632.840000	-1607.940000	-23685.255000	-17515.755000	-1830.015000	-5771.250000	13.750617	3.102013	-1.994972	-3.561635	-4.895877	-3.672348	-2.410319	7.394265	-4.730600	3.860780	-2.472120	0.633421	0.242431	0.698057	-1.000000	-1.000000	-1.000000	-1.000000	-1.000000	-1.000000	-1.000000	84.344828	0.000000	-1.000000	-1.000000	726171.000000	1772895164.060055
-6216.525000	-12083.715000	4597.875000	-1643.355000	-23717.025000	-17539.110000	-1854.135000	-5777.415000	12.838455	2.341582	-2.700500	-4.519040	-6.583360	-3.736389	-0.609820	10.768435	-4.730600	3.860780	-2.472120	0.633421	0.242431	0.698057	-1.000000	-1.000000	-1.000000	-1.000000	-1.000000	-1.000000	-1.000000	84.344828	0.000000	-1.000000	-1.000000	726172.000000	1772895164.060063
-6217.785000	-12086.910000	4597.965000	-1648.260000	-23718.465000	-17538.075000	-1853.370000	-5790.870000	5.774728	-3.197963	-6.230422	-7.840338	-9.433063	-5.393470	-1.230534	10.970951	-4.730600	3.860780	-2.472120	0.633421	0.242431	0.698057	-1.000000	-1.000000	-1.000000	-1.000000	-1.000000	-1.000000	-1.000000	84.344828	0.000000	-1.000000	-1.000000	726173.000000	1772895164.065717
-6218.415000	-12084.705000	4600.215000	-1643.130000	-23712.750000	-17540.145000	-1858.050000	-5802.795000	-4.457088	-10.650227	-10.682968	-11.746271	-11.471144	-7.116102	-3.405156	5.878293	-4.730600	3.860780	-2.472120	0.633421	0.242431	0.698057	-1.000000	-1.000000	-1.000000	-1.000000	-1.000000	-1.000000	-1.000000	84.344828	0.000000	-1.000000	-1.000000	726174.000000	1772895164.065726
-6214.770000	-12072.690000	4608.360000	-1624.680000	-23695.020000	-17521.695000	-1842.030000	-5798.790000	-12.021921	-13.440723	-11.052379	-11.205574	-8.797384	-5.641132	-3.747769	-2.794274	-4.730600	3.860780	-2.472120	0.633421	0.242431	0.698057	-1.000000	-1.000000	-1.000000	-1.000000	-1.000000	-1.000000	-1.000000	84.344828	0.000000	-1.000000	-1.000000	726175.000000	1772895164.069686
-6230.205000	-12081.150000	4600.395000	-1627.110000	-23697.630000	-17522.595000	-1839.825000	-5793.030000	-12.787935	-8.205929	-4.920249	-3.550133	-0.252465	0.325020	-0.127490	-9.742262	-4.730600	3.860780	-2.472120	0.633421	0.242431	0.698057	-1.000000	-1.000000	-1.000000	-1.000000	-1.000000	-1.000000	-1.000000	84.344828	0.000000	-1.000000	-1.000000	726176.000000	1772895164.069695
-6221.295000	-12076.605000	4604.805000	-1626.930000	-23696.235000	-17520.030000	-1839.915000	-5792.175000	-7.275196	1.851622	4.771011	7.873471	10.338948	8.183451	5.668072	-10.606666	-4.730600	3.860780	-2.472120	0.633421	0.242431	0.698057	-1.000000	-1.000000	-1.000000	-1.000000	-1.000000	-1.000000	-1.000000	84.344828	0.000000	-1.000000	-1.000000	726177.000000	1772895164.071823
-6222.690000	-12079.395000	4601.835000	-1632.510000	-23701.545000	-17527.005000	-1850.265000	-5800.545000	0.445001	10.285507	12.281604	16.092227	16.815571	13.125588	9.116946	-5.903273	-4.730600	3.860780	-2.472120	0.633421	0.242431	0.698057	-1.000000	-1.000000	-1.000000	-1.000000	-1.000000	-1.000000	-1.000000	84.344828	0.000000	-1.000000	-1.000000	726178.000000	1772895164.071828
-6225.885000	-12079.575000	4601.385000	-1634.985000	-23707.170000	-17534.790000	-1851.480000	-5804.415000	5.851749	12.638473	13.601153	16.253755	15.430660	11.948683	7.333663	-0.333511	-4.730600	3.860780	-2.472120	0.633421	0.242431	0.698057	-1.000000	-1.000000	-1.000000	-1.000000	-1.000000	-1.000000	-1.000000	84.344828	0.000000	-1.000000	-1.000000	726179.000000	1772895164.075972
-6207.435000	-12061.755000	4618.440000	-1618.245000	-23693.175000	-17518.995000	-1822.680000	-5791.455000	7.150141	9.328819	9.423523	9.493175	7.767177	5.767278	2.365060	2.025124	-4.730600	3.860780	-2.472120	0.633421	0.242431	0.698057	-1.000000	-1.000000	-1.000000	-1.000000	-1.000000	-1.000000	-1.000000	84.344828	0.000000	-1.000000	-1.000000	726180.000000	1772895164.075979
-6196.770000	-12052.215000	4630.275000	-1608.750000	-23685.255000	-17512.290000	-1821.735000	-5793.660000	6.192316	4.620546	4.191123	1.600554	-0.531029	-0.853246	-0.917244	1.406668	-4.471180	4.928980	0.412020	0.631773	0.243224	0.700926	-1.000000	-1.000000	-1.000000	-1.000000	-1.000000	-1.000000	-1.000000	84.344828	0.000000	-1.000000	-1.000000	726181.000000	1772895164.079974
-6197.130000	-12050.865000	4639.455000	-1601.730000	-23677.740000	-17507.205000	-1846.980000	-5809.500000	5.140668	1.806777	1.272409	-2.766124	-4.928050	-4.265202	-0.922065	0.419261	-4.471180	4.928980	0.412020	0.631773	0.243224	0.700926	-1.000000	-1.000000	-1.000000	-1.000000	-1.000000	-1.000000	-1.000000	84.344828	0.000000	-1.000000	-1.000000	726182.000000	1772895164.079981
-6197.355000	-12056.760000	4632.885000	-1609.470000	-23683.770000	-17512.695000	-1864.350000	-5802.840000	3.738844	0.296335	0.055816	-3.814615	-5.494859	-4.599278	-0.829220	0.492517	-4.471180	4.928980	0.412020	0.631773	0.243224	0.700926	-1.000000	-1.000000	-1.000000	-1.000000	-1.000000	-1.000000	-1.000000	84.344828	0.000000	-1.000000	-1.000000	726183.000000	1772895164.085462
-6221.070000	-12056.265000	4627.350000	-1612.215000	-23684.490000	-17512.965000	-1866.285000	-5812.740000	0.803760	-1.958716	-1.825516	-4.439062	-5.021262	-4.179955	-3.382795	1.437076	-4.471180	4.928980	0.412020	0.631773	0.243224	0.700926	-1.000000	-1.000000	-1.000000	-1.000000	-1.000000	-1.000000	-1.000000	84.344828	0.000000	-1.000000	-1.000000	726184.000000	1772895164.085470
-6229.170000	-12066.705000	4616.775000	-1615.365000	-23686.515000	-17513.865000	-1861.245000	-5836.680000	-3.646573	-5.324255	-5.239078	-6.093698	-5.219791	-4.461638	-7.194707	1.963547	-4.471180	4.928980	0.412020	0.631773	0.243224	0.700926	-1.000000	-1.000000	-1.000000	-1.000000	-1.000000	-1.000000	-1.000000	84.344828	0.000000	-1.000000	-1.000000	726185.000000	1772895164.088116
-6216.885000	-12076.965000	4607.730000	-1621.845000	-23692.140000	-17518.320000	-1838.745000	-5840.100000	-7.839580	-8.556073	-9.024362	-7.744087	-5.642776	-4.985662	-8.376719	0.789878	-4.471180	4.928980	0.412020	0.631773	0.243224	0.700926	-1.000000	-1.000000	-1.000000	-1.000000	-1.000000	-1.000000	-1.000000	84.344828	0.000000	-1.000000	-1.000000	726186.000000	1772895164.088125
-6204.060000	-12074.670000	4611.915000	-1621.980000	-23692.905000	-17516.655000	-1807.965000	-5801.940000	-9.085958	-10.105916	-11.137408	-7.737207	-5.177870	-4.535828	-4.083279	-0.927771	-4.471180	4.928980	0.412020	0.631773	0.243224	0.700926	-1.000000	-1.000000	-1.000000	-1.000000	-1.000000	-1.000000	-1.000000	84.344828	0.000000	-1.000000	-1.000000	726187.000000	1772895164.091880
-6210.270000	-12055.680000	4627.620000	-1610.415000	-23681.835000	-17506.440000	-1815.885000	-5779.440000	-6.154815	-8.464450	-9.571384	-5.196199	-3.092694	-2.303518	4.409998	-0.184364	-4.471180	4.928980	0.412020	0.631773	0.243224	0.700926	-1.000000	-1.000000	-1.000000	-1.000000	-1.000000	-1.000000	-1.000000	84.344828	0.000000	-1.000000	-1.000000	726188.000000	1772895164.091888
-6226.695000	-12086.955000	4587.660000	-1653.705000	-23724.540000	-17546.805000	-1878.300000	-5792.175000	-1.202049	-3.616788	-4.431563	-1.098319	-0.077272	0.756294	10.549792	3.322305	-4.471180	4.928980	0.412020	0.631773	0.243224	0.700926	-1.000000	-1.000000	-1.000000	-1.000000	-1.000000	-1.000000	-1.000000	84.344828	0.000000	-1.000000	-1.000000	726189.000000	1772895164.096117
-6223.005000	-12090.825000	4587.885000	-1651.005000	-23721.795000	-17548.245000	-1887.570000	-5801.040000	2.168684	1.603793	0.916497	1.707583	1.501416	1.917121	7.859464	6.017138	-4.471180	4.928980	0.412020	0.631773	0.243224	0.700926	-1.000000	-1.000000	-1.000000	-1.000000	-1.000000	-1.000000	-1.000000	84.344828	0.000000	-1.000000	-1.000000	726190.000000	1772895164.096125
-6209.955000	-12081.510000	4596.750000	-1642.455000	-23713.695000	-17546.535000	-1883.745000	-5802.075000	2.951742	4.570919	3.737093	2.062739	0.867667	0.362911	-1.668647	4.953155	-1.709120	5.310480	0.015260	0.627867	0.239135	0.702574	-1.000000	-1.000000	-1.000000	-1.000000	-1.000000	-1.000000	-1.000000	84.344828	0.000000	-1.000000	-1.000000	726191.000000	1772895164.099962
-6223.230000	-12078.270000	4603.365000	-1634.355000	-23704.605000	-17530.020000	-1852.605000	-5800.230000	2.897748	5.697814	4.994111	2.155698	0.390382	-1.131474	-8.865206	0.733820	-1.709120	5.310480	0.015260	0.627867	0.239135	0.702574	-1.000000	-1.000000	-1.000000	-1.000000	-1.000000	-1.000000	-1.000000	84.344828	0.000000	-1.000000	-1.000000	726192.000000	1772895164.100003
-6236.235000	-12060.855000	4620.735000	-1618.470000	-23689.980000	-17514.045000	-1841.400000	-5835.105000	3.305466	6.563222	6.836751	4.179500	2.311719	0.411694	-7.244170	-4.238609	-1.709120	5.310480	0.015260	0.627867	0.239135	0.702574	-1.000000	-1.000000	-1.000000	-1.000000	-1.000000	-1.000000	-1.000000	84.344828	0.000000	-1.000000	-1.000000	726193.000000	1772895164.104164
-6229.215000	-12064.455000	4617.090000	-1622.475000	-23693.130000	-17517.105000	-1855.755000	-5845.320000	3.780202	7.630149	9.473963	7.628717	6.090255	4.818274	1.000499	-7.979121	-1.709120	5.310480	0.015260	0.627867	0.239135	0.702574	-1.000000	-1.000000	-1.000000	-1.000000	-1.000000	-1.000000	-1.000000	84.344828	0.000000	-1.000000	-1.000000	726194.000000	1772895164.104185
-6201.090000	-12073.950000	4603.905000	-1636.020000	-23706.765000	-17532.270000	-1876.905000	-5803.020000	3.652190	7.685322	10.569415	9.608604	8.745574	8.626585	7.628155	-8.735242	-1.709120	5.310480	0.015260	0.627867	0.239135	0.702574	-1.000000	-1.000000	-1.000000	-1.000000	-1.000000	-1.000000	-1.000000	84.344828	0.000000	-1.000000	-1.000000	726195.000000	1772895164.109334
-6202.440000	-12078.585000	4600.800000	-1639.710000	-23714.325000	-17543.745000	-1880.460000	-5777.325000	2.978151	4.799240	7.297518	7.276203	7.256034	7.985747	6.393040	-5.229644	-1.709120	5.310480	0.015260	0.627867	0.239135	0.702574	-1.000000	-1.000000	-1.000000	-1.000000	-1.000000	-1.000000	-1.000000	84.344828	0.000000	-1.000000	-1.000000	726196.000000	1772895164.109342
-6220.710000	-12076.155000	4609.530000	-1630.620000	-23705.055000	-17532.045000	-1850.670000	-5791.770000	1.663474	-1.101280	-0.010468	1.065806	1.746886	2.568710	-0.463745	0.956640	-1.709120	5.310480	0.015260	0.627867	0.239135	0.702574	-1.000000	-1.000000	-1.000000	-1.000000	-1.000000	-1.000000	-1.000000	84.344828	0.000000	-1.000000	-1.000000	726197.000000	1772895164.111737
-6220.845000	-12071.070000	4613.355000	-1627.020000	-23700.240000	-17527.455000	-1847.700000	-5806.350000	-0.733685	-6.861392	-6.969589	-4.882736	-3.843820	-3.462128	-4.556911	5.708742	-1.709120	5.310480	0.015260	0.627867	0.239135	0.702574	-1.000000	-1.000000	-1.000000	-1.000000	-1.000000	-1.000000	-1.000000	84.344828	0.000000	-1.000000	-1.000000	726198.000000	1772895164.111746
-6205.005000	-12058.290000	4623.300000	-1616.445000	-23695.155000	-17511.795000	-1834.740000	-5801.310000	-3.531544	-8.643413	-9.310218	-6.817230	-5.790103	-5.598982	-1.055637	6.483394	-1.709120	5.310480	0.015260	0.627867	0.239135	0.702574	-1.000000	-1.000000	-1.000000	-1.000000	-1.000000	-1.000000	-1.000000	84.344828	0.000000	-1.000000	-1.000000	726199.000000	1772895164.115854
-6205.140000	-12059.325000	4620.465000	-1615.455000	-23684.805000	-17506.215000	-1829.655000	-5797.305000	-4.992072	-5.786448	-6.945122	-4.942860	-4.200637	-3.378502	6.364888	4.192068	-1.709120	5.310480	0.015260	0.627867	0.239135	0.702574	-1.000000	-1.000000	-1.000000	-1.000000	-1.000000	-1.000000	-1.000000	84.344828	0.000000	-1.000000	-1.000000	726200.000000	1772895164.115860
-6224.400000	-12075.165000	4604.400000	-1633.095000	-23698.215000	-17523.495000	-1830.555000	-5805.990000	-4.183206	-1.374564	-3.221137	-2.397229	-1.810733	-0.246258	10.193234	1.215876	-0.137340	5.600420	-0.289940	0.629942	0.236450	0.700010	-1.000000	-1.000000	-1.000000	-1.000000	-1.000000	-1.000000	-1.000000	84.344828	0.000000	-1.000000	-1.000000	726201.000000	1772895164.119894
-6242.355000	-12082.725000	4594.320000	-1645.470000	-23709.330000	-17536.230000	-1836.180000	-5817.735000	-2.068315	0.767218	-1.531497	-2.150466	-1.285965	-0.169909	6.235777	-0.560364	-0.137340	5.600420	-0.289940	0.629942	0.236450	0.700010	-1.000000	-1.000000	-1.000000	-1.000000	-1.000000	-1.000000	-1.000000	84.344828	0.000000	-1.000000	-1.000000	726202.000000	1772895164.119900
-6230.520000	-12068.640000	4604.535000	-1635.795000	-23702.580000	-17526.420000	-1835.415000	-5815.530000	-0.638376	-0.046882	-2.156224	-4.045820	-2.883103	-3.409968	-3.086590	-0.819144	-0.137340	5.600420	-0.289940	0.629942	0.236450	0.700010	-1.000000	-1.000000	-1.000000	-1.000000	-1.000000	-1.000000	-1.000000	84.344828	0.000000	-1.000000	-1.000000	726203.000000	1772895164.123921
-6216.120000	-12067.785000	4600.350000	-1641.645000	-23718.060000	-17532.810000	-1841.895000	-5807.250000	-0.650807	-1.015083	-2.357834	-4.858997	-4.159451	-6.059951	-11.471307	-1.278125	-0.137340	5.600420	-0.289940	0.629942	0.236450	0.700010	-1.000000	-1.000000	-1.000000	-1.000000	-1.000000	-1.000000	-1.000000	84.344828	0.000000	-1.000000	-1.000000	726204.000000	1772895164.123928
-6205.095000	-12070.260000	4611.420000	-1627.245000	-23694.930000	-17518.275000	-1837.080000	-5796.675000	-0.559846	-0.005600	-0.209177	-2.312035	-2.928687	-4.720390	-14.283299	-3.324337	-0.137340	5.600420	-0.289940	0.629942	0.236450	0.700010	-1.000000	-1.000000	-1.000000	-1.000000	-1.000000	-1.000000	-1.000000	84.344828	0.000000	-1.000000	-1.000000	726205.000000	1772895164.127798
-6211.080000	-12069.090000	4618.170000	-1623.240000	-23695.245000	-17511.570000	-1833.300000	-5792.400000	1.453735	2.176951	3.534557	2.726200	0.870176	0.320387	-10.965688	-5.133555	-0.137340	5.600420	-0.289940	0.629942	0.236450	0.700010	-1.000000	-1.000000	-1.000000	-1.000000	-1.000000	-1.000000	-1.000000	84.344828	0.000000	-1.000000	-1.000000	726206.000000	1772895164.127806
-6220.170000	-12072.825000	4612.545000	-1622.115000	-23699.745000	-17511.795000	-1835.910000	-5797.980000	4.446085	3.604610	6.668234	7.448127	5.205497	5.948212	-3.848489	-3.779231	-0.137340	5.600420	-0.289940	0.629942	0.236450	0.700010	-1.000000	-1.000000	-1.000000	-1.000000	-1.000000	-1.000000	-1.000000	84.344828	0.000000	-1.000000	-1.000000	726207.000000	1772895164.133239
-6215.805000	-12063.060000	4624.965000	-1607.490000	-23687.370000	-17506.800000	-1832.085000	-5802.030000	5.307452	3.115550	7.061930	9.059712	7.147301	8.482281	3.496890	0.404014	-0.137340	5.600420	-0.289940	0.629942	0.236450	0.700010	-1.000000	-1.000000	-1.000000	-1.000000	-1.000000	-1.000000	-1.000000	84.344828	0.000000	-1.000000	-1.000000	726208.000000	1772895164.133247
-6206.715000	-12053.655000	4633.830000	-1604.520000	-23686.695000	-17506.800000	-1830.690000	-5799.240000	3.072249	1.334803	4.631384	6.922129	5.546308	6.400802	7.882690	4.256883	-0.137340	5.600420	-0.289940	0.629942	0.236450	0.700010	-1.000000	-1.000000	-1.000000	-1.000000	-1.000000	-1.000000	-1.000000	84.344828	0.000000	-1.000000	-1.000000	726209.000000	1772895164.136032
-6204.600000	-12059.100000	4624.875000	-1614.915000	-23692.545000	-17513.370000	-1835.010000	-5795.640000	0.424385	0.047539	1.333234	2.665861	1.786816	1.441748	8.081215	5.869999	-0.137340	5.600420	-0.289940	0.629942	0.236450	0.700010	-1.000000	-1.000000	-1.000000	-1.000000	-1.000000	-1.000000	-1.000000	84.344828	0.000000	-1.000000	-1.000000	726210.000000	1772895164.136039
-6203.520000	-12064.590000	4618.080000	-1620.045000	-23690.700000	-17516.070000	-1840.275000	-5795.505000	-0.167724	-0.186023	-1.465526	-1.851519	-1.924399	-3.309312	5.116968	5.699395	-3.479280	4.196500	-1.068200	0.627135	0.238098	0.700071	-1.000000	-1.000000	-1.000000	-1.000000	-1.000000	-1.000000	-1.000000	84.344828	0.000000	-1.000000	-1.000000	726211.000000	1772895164.140063
-6207.300000	-12060.990000	4619.520000	-1616.715000	-23679.270000	-17508.645000	-1844.820000	-5800.680000	0.235772	-0.410691	-3.674238	-5.353554	-3.762648	-5.628660	1.217734	3.987369	-3.479280	4.196500	-1.068200	0.627135	0.238098	0.700071	-1.000000	-1.000000	-1.000000	-1.000000	-1.000000	-1.000000	-1.000000	84.344828	0.000000	-1.000000	-1.000000	726212.000000	1772895164.140071
-6201.270000	-12052.845000	4626.945000	-1608.525000	-23672.160000	-17502.525000	-1846.170000	-5801.760000	-0.919500	-1.161006	-5.013511	-6.745867	-2.906203	-4.794875	-1.621875	0.002378	-3.479280	4.196500	-1.068200	0.627135	0.238098	0.700071	-1.000000	-1.000000	-1.000000	-1.000000	-1.000000	-1.000000	-1.000000	84.344828	0.000000	-1.000000	-1.000000	726213.000000	1772895164.143970
-6196.680000	-12055.140000	4622.895000	-1612.755000	-23678.820000	-17508.240000	-1842.615000	-5795.145000	-3.658373	-1.725395	-4.987195	-5.726201	-0.579653	-1.921196	-2.563657	-5.370144	-3.479280	4.196500	-1.068200	0.627135	0.238098	0.700071	-1.000000	-1.000000	-1.000000	-1.000000	-1.000000	-1.000000	-1.000000	84.344828	0.000000	-1.000000	-1.000000	726214.000000	1772895164.143981
-6201.315000	-12065.445000	4624.470000	-1611.945000	-23686.425000	-17510.715000	-1830.060000	-5785.380000	-5.476661	-1.663428	-3.768714	-3.334562	0.638275	0.565364	-1.679462	-8.709052	-3.479280	4.196500	-1.068200	0.627135	0.238098	0.700071	-1.000000	-1.000000	-1.000000	-1.000000	-1.000000	-1.000000	-1.000000	84.344828	0.000000	-1.000000	-1.000000	726215.000000	1772895164.150059
-6214.230000	-12068.865000	4623.210000	-1613.115000	-23691.105000	-17510.670000	-1821.690000	-5787.855000	-4.864293	-1.579543	-1.964128	-1.025417	-0.531637	1.074035	0.598244	-7.211610	-3.479280	4.196500	-1.068200	0.627135	0.238098	0.700071	-1.000000	-1.000000	-1.000000	-1.000000	-1.000000	-1.000000	-1.000000	84.344828	0.000000	-1.000000	-1.000000	726216.000000	1772895164.150066
-6211.215000	-12060.855000	4630.230000	-1603.575000	-23675.040000	-17497.890000	-1812.105000	-5786.505000	-2.744241	-1.925279	-0.155960	0.396000	-2.953899	0.134800	3.175026	-1.756147	-3.479280	4.196500	-1.068200	0.627135	0.238098	0.700071	-1.000000	-1.000000	-1.000000	-1.000000	-1.000000	-1.000000	-1.000000	84.344828	0.000000	-1.000000	-1.000000	726217.000000	1772895164.152013
-6210.315000	-12058.740000	4632.030000	-1604.430000	-23678.865000	-17503.920000	-1825.380000	-5796.765000	-0.412705	-2.003609	1.371964	1.224139	-4.192217	-0.529518	4.257188	3.956737	-3.479280	4.196500	-1.068200	0.627135	0.238098	0.700071	-1.000000	-1.000000	-1.000000	-1.000000	-1.000000	-1.000000	-1.000000	84.344828	0.000000	-1.000000	-1.000000	726218.000000	1772895164.152020
-6217.965000	-12068.055000	4618.395000	-1623.555000	-23701.770000	-17524.395000	-1838.160000	-5813.280000	1.698801	-0.918631	2.608982	2.055340	-3.016169	-0.138833	2.478004	6.410811	-3.479280	4.196500	-1.068200	0.627135	0.238098	0.700071	-1.000000	-1.000000	-1.000000	-1.000000	-1.000000	-1.000000	-1.000000	84.344828	0.000000	-1.000000	-1.000000	726219.000000	1772895164.155971
-6229.440000	-12067.605000	4621.905000	-1618.965000	-23698.440000	-17521.920000	-1840.320000	-5825.295000	2.978594	1.025145	3.280469	2.617552	-0.690097	0.424750	-1.616709	4.331239	-3.479280	4.196500	-1.068200	0.627135	0.238098	0.700071	-1.000000	-1.000000	-1.000000	-1.000000	-1.000000	-1.000000	-1.000000	84.344828	0.000000	-1.000000	-1.000000	726220.000000	1772895164.155980
-6208.740000	-12041.055000	4650.615000	-1587.105000	-23664.240000	-17490.150000	-1834.425000	-5832.630000	2.872888	2.944667	3.405695	2.831321	1.563846	0.788494	-5.374992	-0.795790	-5.753020	2.060100	-2.563680	0.622496	0.238464	0.702513	-1.000000	-1.000000	-1.000000	-1.000000	-1.000000	-1.000000	-1.000000	84.344828	0.000000	-1.000000	-1.000000	726221.000000	1772895164.160061
-6202.755000	-12050.145000	4634.820000	-1602.315000	-23674.905000	-17498.430000	-1832.580000	-5825.970000	2.200218	4.358494	3.372049	3.214458	3.916145	1.783699	-6.165290	-5.577578	-5.753020	2.060100	-2.563680	0.622496	0.238464	0.702513	-1.000000	-1.000000	-1.000000	-1.000000	-1.000000	-1.000000	-1.000000	84.344828	0.000000	-1.000000	-1.000000	726222.000000	1772895164.160068
-6188.535000	-12041.595000	4643.595000	-1599.840000	-23676.615000	-17504.055000	-1826.325000	-5802.255000	2.278865	4.714873	2.691661	3.146022	5.719452	3.034871	-3.690910	-6.544670	-5.753020	2.060100	-2.563680	0.622496	0.238464	0.702513	-1.000000	-1.000000	-1.000000	-1.000000	-1.000000	-1.000000	-1.000000	84.344828	0.000000	-1.000000	-1.000000	726223.000000	1772895164.164044
-6200.505000	-12058.515000	4630.590000	-1620.315000	-23698.845000	-17523.450000	-1835.820000	-5786.865000	3.210056	3.475116	0.689762	1.336741	5.323417	2.690262	-0.023671	-2.268619	-5.753020	2.060100	-2.563680	0.622496	0.238464	0.702513	-1.000000	-1.000000	-1.000000	-1.000000	-1.000000	-1.000000	-1.000000	84.344828	0.000000	-1.000000	-1.000000	726224.000000	1772895164.164053
-6213.015000	-12060.855000	4630.230000	-1615.185000	-23690.475000	-17514.315000	-1835.730000	-5805.540000	3.521468	0.548520	-2.327343	-2.262517	2.110961	-0.079486	2.180939	4.898304	-5.753020	2.060100	-2.563680	0.622496	0.238464	0.702513	-1.000000	-1.000000	-1.000000	-1.000000	-1.000000	-1.000000	-1.000000	84.344828	0.000000	-1.000000	-1.000000	726225.000000	1772895164.167932
-6218.820000	-12079.800000	4599.810000	-1635.660000	-23706.090000	-17527.140000	-1846.485000	-5812.650000	1.541155	-3.646357	-5.630374	-6.177948	-2.706471	-3.867948	1.773321	9.797582	-5.753020	2.060100	-2.563680	0.622496	0.238464	0.702513	-1.000000	-1.000000	-1.000000	-1.000000	-1.000000	-1.000000	-1.000000	84.344828	0.000000	-1.000000	-1.000000	726226.000000	1772895164.167941
-6216.750000	-12081.870000	4595.445000	-1635.795000	-23706.270000	-17526.150000	-1842.255000	-5801.130000	-2.345815	-7.641908	-8.232399	-8.220972	-6.591781	-6.093101	0.051948	9.252348	-5.753020	2.060100	-2.563680	0.622496	0.238464	0.702513	-1.000000	-1.000000	-1.000000	-1.000000	-1.000000	-1.000000	-1.000000	84.344828	0.000000	-1.000000	-1.000000	726227.000000	1772895164.172069
-6208.920000	-12077.415000	4607.820000	-1627.155000	-23696.235000	-17514.630000	-1835.235000	-5794.965000	-5.418533	-8.894827	-8.113531	-6.394596	-6.803878	-4.626242	-0.405089	4.977097	-5.753020	2.060100	-2.563680	0.622496	0.238464	0.702513	-1.000000	-1.000000	-1.000000	-1.000000	-1.000000	-1.000000	-1.000000	84.344828	0.000000	-1.000000	-1.000000	726228.000000	1772895164.172078
-6189.165000	-12075.165000	4606.425000	-1632.555000	-23703.210000	-17526.105000	-1851.390000	-5793.480000	-5.064186	-5.894356	-3.835488	-0.861407	-2.894446	0.080751	1.340814	0.543605	-5.753020	2.060100	-2.563680	0.622496	0.238464	0.702513	-1.000000	-1.000000	-1.000000	-1.000000	-1.000000	-1.000000	-1.000000	84.344828	0.000000	-1.000000	-1.000000	726229.000000	1772895164.176062
-6194.295000	-12077.370000	4605.705000	-1631.070000	-23701.095000	-17525.340000	-1870.650000	-5799.915000	-1.564350	-0.303451	2.625686	4.918248	1.912843	4.294914	3.047372	-2.466403	-5.753020	2.060100	-2.563680	0.622496	0.238464	0.702513	-1.000000	-1.000000	-1.000000	-1.000000	-1.000000	-1.000000	-1.000000	84.344828	0.000000	-1.000000	-1.000000	726230.000000	1772895164.176069
-6196.140000	-12058.425000	4625.145000	-1611.495000	-23684.040000	-17507.880000	-1867.005000	-5787.360000	1.866764	4.877716	7.836347	7.796670	4.502449	5.197019	2.105828	-4.534794	-4.196500	2.914660	-3.845520	0.633604	0.232849	0.699583	-1.000000	-1.000000	-1.000000	-1.000000	-1.000000	-1.000000	-1.000000	84.344828	0.000000	-1.000000	-1.000000	726231.000000	1772895164.180025
-6205.770000	-12066.975000	4616.010000	-1620.270000	-23694.390000	-17517.600000	-1866.645000	-5781.375000	2.389033	8.104209	10.193500	7.884782	5.078325	3.932287	-0.958659	-6.236555	-4.196500	2.914660	-3.845520	0.633604	0.232849	0.699583	-1.000000	-1.000000	-1.000000	-1.000000	-1.000000	-1.000000	-1.000000	84.344828	0.000000	-1.000000	-1.000000	726232.000000	1772895164.180032
-6197.175000	-12056.625000	4630.140000	-1604.340000	-23678.730000	-17502.030000	-1839.240000	-5772.510000	0.441244	8.980780	9.509954	6.471259	4.953231	2.698352	-2.991408	-7.020393	-4.196500	2.914660	-3.845520	0.633604	0.232849	0.699583	-1.000000	-1.000000	-1.000000	-1.000000	-1.000000	-1.000000	-1.000000	84.344828	0.000000	-1.000000	-1.000000	726233.000000	1772895164.183952
-6210.765000	-12063.690000	4625.145000	-1613.295000	-23689.080000	-17512.830000	-1827.315000	-5790.240000	-1.318149	7.485098	6.421199	4.164419	4.231633	1.928816	-1.350636	-5.796993	-4.196500	2.914660	-3.845520	0.633604	0.232849	0.699583	-1.000000	-1.000000	-1.000000	-1.000000	-1.000000	-1.000000	-1.000000	84.344828	0.000000	-1.000000	-1.000000	726234.000000	1772895164.183959
-6221.880000	-12074.490000	4611.780000	-1631.385000	-23709.330000	-17529.075000	-1825.290000	-5799.420000	-1.540429	3.955301	2.214485	0.955156	2.050587	0.618077	3.412646	-2.819805	-4.196500	2.914660	-3.845520	0.633604	0.232849	0.699583	-1.000000	-1.000000	-1.000000	-1.000000	-1.000000	-1.000000	-1.000000	84.344828	0.000000	-1.000000	-1.000000	726235.000000	1772895164.188936
-6224.490000	-12075.975000	4609.305000	-1632.690000	-23709.555000	-17528.130000	-1824.300000	-5810.715000	-1.052523	-0.820521	-2.107728	-3.077108	-1.854973	-1.903525	7.670655	-0.015655	-4.196500	2.914660	-3.845520	0.633604	0.232849	0.699583	-1.000000	-1.000000	-1.000000	-1.000000	-1.000000	-1.000000	-1.000000	84.344828	0.000000	-1.000000	-1.000000	726236.000000	1772895164.188944
-6215.670000	-12064.275000	4619.520000	-1617.840000	-23692.140000	-17512.245000	-1822.140000	-5819.715000	-0.709343	-5.250329	-5.789726	-6.646442	-5.739631	-4.481654	7.915378	1.036930	-4.196500	2.914660	-3.845520	0.633604	0.232849	0.699583	-1.000000	-1.000000	-1.000000	-1.000000	-1.000000	-1.000000	-1.000000	84.344828	0.000000	-1.000000	-1.000000	726237.000000	1772895164.191796
-6222.465000	-12080.475000	4599.495000	-1636.335000	-23710.185000	-17533.080000	-1853.550000	-5832.585000	-0.605548	-7.716828	-8.086846	-8.021964	-7.242601	-5.329087	3.454364	0.488835	-4.196500	2.914660	-3.845520	0.633604	0.232849	0.699583	-1.000000	-1.000000	-1.000000	-1.000000	-1.000000	-1.000000	-1.000000	84.344828	0.000000	-1.000000	-1.000000	726238.000000	1772895164.191804
-6228.090000	-12093.705000	4590.945000	-1645.965000	-23720.625000	-17544.870000	-1876.320000	-5829.930000	-0.702146	-8.128370	-8.889875	-7.206260	-6.242786	-4.583758	-3.993430	-0.312527	-4.196500	2.914660	-3.845520	0.633604	0.232849	0.699583	-1.000000	-1.000000	-1.000000	-1.000000	-1.000000	-1.000000	-1.000000	84.344828	0.000000	-1.000000	-1.000000	726239.000000	1772895164.195863
-6226.290000	-12091.815000	4595.625000	-1640.655000	-23714.325000	-17538.615000	-1871.955000	-5826.420000	-0.638248	-7.308161	-8.287984	-5.367152	-4.189527	-3.520936	-11.336293	-0.184798	-4.196500	2.914660	-3.845520	0.633604	0.232849	0.699583	-1.000000	-1.000000	-1.000000	-1.000000	-1.000000	-1.000000	-1.000000	84.344828	0.000000	-1.000000	-1.000000	726240.000000	1772895164.195870
-6208.650000	-12079.260000	4604.760000	-1632.195000	-23706.315000	-17532.045000	-1859.130000	-5805.270000	0.532641	-4.983326	-5.566981	-2.591647	-1.377783	-1.932810	-14.661479	1.266443	-2.289000	6.317640	-3.525060	0.640074	0.228271	0.696470	-1.000000	-1.000000	-1.000000	-1.000000	-1.000000	-1.000000	-1.000000	84.275862	0.000000	-1.000000	-1.000000	726241.000000	1772895164.202184
-6204.150000	-12074.355000	4606.470000	-1633.455000	-23708.340000	-17533.080000	-1848.150000	-5779.980000	3.339110	-0.377637	-0.396015	1.397999	2.330936	0.902798	-11.624710	4.296464	-2.289000	6.317640	-3.525060	0.640074	0.228271	0.696470	-1.000000	-1.000000	-1.000000	-1.000000	-1.000000	-1.000000	-1.000000	84.275862	0.000000	-1.000000	-1.000000	726242.000000	1772895164.202192
-6205.725000	-12072.870000	4607.460000	-1633.275000	-23709.420000	-17532.720000	-1847.880000	-5787.855000	6.630707	5.592714	5.758449	5.646994	5.855309	4.314817	-3.629129	8.532225	-2.289000	6.317640	-3.525060	0.640074	0.228271	0.696470	-1.000000	-1.000000	-1.000000	-1.000000	-1.000000	-1.000000	-1.000000	84.275862	0.000000	-1.000000	-1.000000	726243.000000	1772895164.203805
-6210.540000	-12076.965000	4610.880000	-1627.965000	-23705.325000	-17529.840000	-1845.225000	-5808.240000	8.058574	10.350896	10.596695	8.800732	7.999348	7.059662	5.353822	11.192802	-2.289000	6.317640	-3.525060	0.640074	0.228271	0.696470	-1.000000	-1.000000	-1.000000	-1.000000	-1.000000	-1.000000	-1.000000	84.275862	0.000000	-1.000000	-1.000000	726244.000000	1772895164.203813
-6207.075000	-12077.955000	4611.285000	-1626.300000	-23702.940000	-17528.985000	-1849.815000	-5812.965000	5.919442	11.269275	12.090745	9.694763	8.030136	7.903521	11.323299	8.771501	-2.289000	6.317640	-3.525060	0.640074	0.228271	0.696470	-1.000000	-1.000000	-1.000000	-1.000000	-1.000000	-1.000000	-1.000000	84.275862	0.000000	-1.000000	-1.000000	726245.000000	1772895164.207947
-6204.555000	-12076.920000	4609.935000	-1625.760000	-23699.205000	-17526.330000	-1847.700000	-5801.400000	0.554629	7.396821	9.129805	7.329316	5.376925	5.849692	12.316552	1.576575	-2.289000	6.317640	-3.525060	0.640074	0.228271	0.696470	-1.000000	-1.000000	-1.000000	-1.000000	-1.000000	-1.000000	-1.000000	84.275862	0.000000	-1.000000	-1.000000	726246.000000	1772895164.207956
-6233.490000	-12067.290000	4619.835000	-1616.895000	-23692.005000	-17518.995000	-1845.405000	-5825.430000	-5.931220	0.870848	3.017651	2.404142	0.930901	1.756010	9.595481	-6.303491	-2.289000	6.317640	-3.525060	0.640074	0.228271	0.696470	-1.000000	-1.000000	-1.000000	-1.000000	-1.000000	-1.000000	-1.000000	84.275862	0.000000	-1.000000	-1.000000	726247.000000	1772895164.211742
-6219.270000	-12045.600000	4638.600000	-1599.660000	-23678.055000	-17503.830000	-1833.660000	-5824.755000	-10.824355	-4.133471	-2.709307	-2.299781	-2.801999	-1.765164	6.036892	-11.514523	-2.289000	6.317640	-3.525060	0.640074	0.228271	0.696470	-1.000000	-1.000000	-1.000000	-1.000000	-1.000000	-1.000000	-1.000000	84.275862	0.000000	-1.000000	-1.000000	726248.000000	1772895164.211747
-6193.980000	-12036.465000	4650.345000	-1589.715000	-23668.425000	-17492.310000	-1816.020000	-5779.170000	-11.309635	-4.975086	-5.271539	-4.458917	-4.066675	-2.951783	3.120269	-12.480580	-2.289000	6.317640	-3.525060	0.640074	0.228271	0.696470	-1.000000	-1.000000	-1.000000	-1.000000	-1.000000	-1.000000	-1.000000	84.275862	0.000000	-1.000000	-1.000000	726249.000000	1772895164.215992
-6178.365000	-12029.670000	4659.705000	-1579.500000	-23654.655000	-17479.620000	-1805.670000	-5760.090000	-6.135980	-2.732337	-4.716494	-4.098848	-3.185542	-2.206087	0.345797	-8.272057	-2.289000	6.317640	-3.525060	0.640074	0.228271	0.696470	-1.000000	-1.000000	-1.000000	-1.000000	-1.000000	-1.000000	-1.000000	84.275862	0.000000	-1.000000	-1.000000	726250.000000	1772895164.216010
-6179.040000	-12032.325000	4657.185000	-1581.975000	-23654.115000	-17479.890000	-1814.535000	-5783.670000	2.270708	-0.541085	-3.010625	-2.772041	-1.570013	-1.054374	-3.286406	-0.795408	0.473060	6.821220	-3.433500	0.632872	0.230712	0.697508	-1.000000	-1.000000	-1.000000	-1.000000	-1.000000	-1.000000	-1.000000	84.275862	0.000000	-1.000000	-1.000000	726251.000000	1772895164.219992
-6205.275000	-12053.745000	4633.245000	-1606.635000	-23679.360000	-17507.565000	-1843.965000	-5794.515000	8.846421	-0.679749	-2.274961	-2.202957	-0.785391	-1.097888	-8.047633	5.157680	0.473060	6.821220	-3.433500	0.632872	0.230712	0.697508	-1.000000	-1.000000	-1.000000	-1.000000	-1.000000	-1.000000	-1.000000	84.275862	0.000000	-1.000000	-1.000000	726252.000000	1772895164.220004
