Channel1	Channel2	Channel3	Channel4	Channel5	Channel6	Channel7	Channel8	FilteredChannel1	FilteredChannel2	FilteredChannel3	FilteredChannel4	FilteredChannel5	FilteredChannel6	FilteredChannel7	FilteredChannel8	GyroX	GyroY	GyroZ	AccX	AccY	AccZ	PPG1	PPG2	rawPPG1	rawPPG2	rawPPG3	Hr	Hrv	Battery	Trigger	PhysicalTrigger	AutoTrigger	NumMeasurements	Timestamp
-6154.740000	-12109.815000	4566.870000	-1633.230000	-23689.170000	-17582.715000	-1872.990000	-5631.210000	-10.372975	-11.845062	-12.472755	-12.270461	-12.362454	-9.817385	-5.041277	-2.299371	0.106820	5.798800	-6.851740	0.635863	0.279968	0.654417	-1.000000	-1.000000	-1.000000	-1.000000	-1.000000	-1.000000	-1.000000	84.482759	0.000000	-1.000000	-1.000000	719800.000000	1772895151.314209
-6140.115000	-12093.570000	4582.395000	-1617.345000	-23665.410000	-17567.730000	-1862.595000	-5622.345000	-10.192066	-12.558247	-14.246049	-14.875269	-14.917560	-12.776186	-7.331402	-5.234353	-9.049180	3.845520	-10.254720	0.630858	0.292602	0.665098	-1.000000	-1.000000	-1.000000	-1.000000	-1.000000	-1.000000	-1.000000	84.482759	0.000000	-1.000000	-1.000000	719801.000000	1772895151.326939
-6132.060000	-12079.755000	4596.930000	-1600.740000	-23634.450000	-17552.880000	-1851.750000	-5613.030000	-6.337782	-9.046206	-11.138366	-12.225652	-11.278277	-10.290388	-5.602232	-6.256588	-9.049180	3.845520	-10.254720	0.630858	0.292602	0.665098	-1.000000	-1.000000	-1.000000	-1.000000	-1.000000	-1.000000	-1.000000	84.482759	0.000000	-1.000000	-1.000000	719802.000000	1772895151.326947
-6135.300000	-12077.595000	4604.535000	-1587.465000	-23604.750000	-17541.495000	-1850.715000	-5618.205000	0.282196	-1.318714	-2.945455	-3.895754	-1.146467	-2.411125	0.118074	-3.863754	-9.049180	3.845520	-10.254720	0.630858	0.292602	0.665098	-1.000000	-1.000000	-1.000000	-1.000000	-1.000000	-1.000000	-1.000000	84.482759	0.000000	-1.000000	-1.000000	719803.000000	1772895151.326956
-6155.775000	-12098.655000	4583.385000	-1610.055000	-23645.970000	-17562.555000	-1867.725000	-5637.060000	6.540350	6.877138	6.371734	6.116831	10.267753	6.636166	6.409168	0.363726	-9.049180	3.845520	-10.254720	0.630858	0.292602	0.665098	-1.000000	-1.000000	-1.000000	-1.000000	-1.000000	-1.000000	-1.000000	84.482759	0.000000	-1.000000	-1.000000	719804.000000	1772895151.326959
-6172.470000	-12117.690000	4558.230000	-1633.815000	-23700.150000	-17590.455000	-1893.015000	-5648.130000	8.255728	9.963702	10.578830	11.147227	13.930704	10.523969	8.356694	2.511665	-9.049180	3.845520	-10.254720	0.630858	0.292602	0.665098	-1.000000	-1.000000	-1.000000	-1.000000	-1.000000	-1.000000	-1.000000	84.482759	0.000000	-1.000000	-1.000000	719805.000000	1772895151.326964
-6163.290000	-12101.760000	4567.140000	-1619.505000	-23673.960000	-17579.025000	-1887.750000	-5650.065000	4.488550	6.433087	7.352731	8.439626	6.292329	6.900042	4.401815	0.834859	-9.049180	3.845520	-10.254720	0.630858	0.292602	0.665098	-1.000000	-1.000000	-1.000000	-1.000000	-1.000000	-1.000000	-1.000000	84.482759	0.000000	-1.000000	-1.000000	719806.000000	1772895151.326967
-6146.730000	-12085.470000	4581.990000	-1618.830000	-23702.895000	-17578.845000	-1885.005000	-5646.420000	-0.445763	1.153590	1.317108	2.359696	-5.508482	0.333485	-1.565425	-2.088900	-9.049180	3.845520	-10.254720	0.630858	0.292602	0.665098	-1.000000	-1.000000	-1.000000	-1.000000	-1.000000	-1.000000	-1.000000	84.482759	0.000000	-1.000000	-1.000000	719807.000000	1772895151.330438
-6152.490000	-12104.280000	4581.045000	-1621.530000	-23702.130000	-17578.125000	-1885.905000	-5636.520000	-1.650100	-0.778520	-1.553253	-1.527312	-12.389397	-3.459717	-4.574569	-2.463322	-9.049180	3.845520	-10.254720	0.630858	0.292602	0.665098	-1.000000	-1.000000	-1.000000	-1.000000	-1.000000	-1.000000	-1.000000	84.482759	0.000000	-1.000000	-1.000000	719808.000000	1772895151.330449
-6152.490000	-12104.280000	4581.045000	-1621.530000	-23702.130000	-17578.125000	-1885.905000	-5636.520000	0.884863	0.212300	-0.312615	-2.130473	-11.616735	-3.390896	-3.313840	0.675576	-9.049180	3.845520	-10.254720	0.630858	0.292602	0.665098	-1.000000	-1.000000	-1.000000	-1.000000	-1.000000	-1.000000	-1.000000	84.482759	0.000000	-1.000000	-1.000000	719809.000000	1772895153.933476
-6152.490000	-12104.280000	4581.045000	-1621.530000	-23702.130000	-17578.125000	-1885.905000	-5636.520000	3.306147	0.681939	1.724478	-1.536795	-5.689345	-1.787578	-0.027742	4.811792	-9.049180	3.845520	-10.254720	0.630858	0.292602	0.665098	-1.000000	-1.000000	-1.000000	-1.000000	-1.000000	-1.000000	-1.000000	84.482759	0.000000	-1.000000	-1.000000	719810.000000	1772895153.933487
-6152.490000	-12104.280000	4581.045000	-1621.530000	-23702.130000	-17578.125000	-1885.905000	-5636.520000	2.856019	-0.871036	1.607816	-1.572630	1.067447	-0.779170	2.393049	6.737861	-9.049180	3.845520	-10.254720	0.630858	0.292602	0.665098	-1.000000	-1.000000	-1.000000	-1.000000	-1.000000	-1.000000	-1.000000	84.482759	0.000000	-1.000000	-1.000000	719811.000000	1772895153.933492
-6152.490000	-12104.280000	4581.045000	-1621.530000	-23702.130000	-17578.125000	-1885.905000	-5636.520000	0.223673	-3.058162	-0.670843	-2.255333	5.501278	-0.680678	2.778295	5.487470	-9.049180	3.845520	-10.254720	0.630858	0.292602	0.665098	-1.000000	-1.000000	-1.000000	-1.000000	-1.000000	-1.000000	-1.000000	84.482759	0.000000	-1.000000	-1.000000	719812.000000	1772895153.933496
-6152.490000	-12104.280000	4581.045000	-1621.530000	-23702.130000	-17578.125000	-1885.905000	-5636.520000	-2.051002	-3.549135	-2.824768	-2.136843	7.798274	-0.305673	1.970427	2.464058	-9.049180	3.845520	-10.254720	0.630858	0.292602	0.665098	-1.000000	-1.000000	-1.000000	-1.000000	-1.000000	-1.000000	-1.000000	84.482759	0.000000	-1.000000	-1.000000	719813.000000	1772895153.933499
-6152.490000	-12104.280000	4581.045000	-1621.530000	-23702.130000	-17578.125000	-1885.905000	-5636.520000	-2.289320	-1.341233	-2.612850	0.009502	9.942102	1.539253	1.453074	-0.452586	-9.049180	3.845520	-10.254720	0.630858	0.292602	0.665098	-1.000000	-1.000000	-1.000000	-1.000000	-1.000000	-1.000000	-1.000000	84.482759	0.000000	-1.000000	-1.000000	719814.000000	1772895153.933503
-6152.490000	-12104.280000	4581.045000	-1621.530000	-23702.130000	-17578.125000	-1885.905000	-5636.520000	-1.018069	2.078882	-0.129230	3.374431	11.781580	4.275487	1.601543	-2.303234	-9.049180	3.845520	-10.254720	0.630858	0.292602	0.665098	-1.000000	-1.000000	-1.000000	-1.000000	-1.000000	-1.000000	-1.000000	84.482759	0.000000	-1.000000	-1.000000	719815.000000	1772895153.933505
-6152.490000	-12104.280000	4581.045000	-1621.530000	-23702.130000	-17578.125000	-1885.905000	-5636.520000	-0.004318	4.084162	2.261545	5.577424	11.013238	5.737008	1.422920	-3.155221	-9.049180	3.845520	-10.254720	0.630858	0.292602	0.665098	-1.000000	-1.000000	-1.000000	-1.000000	-1.000000	-1.000000	-1.000000	84.482759	0.000000	-1.000000	-1.000000	719816.000000	1772895153.933508
-6152.490000	-12104.280000	4581.045000	-1621.530000	-23702.130000	-17578.125000	-1885.905000	-5636.520000	-0.149864	3.649159	2.556330	5.028165	6.413839	4.368837	0.139484	-3.531521	-9.049180	3.845520	-10.254720	0.630858	0.292602	0.665098	-1.000000	-1.000000	-1.000000	-1.000000	-1.000000	-1.000000	-1.000000	84.482759	0.000000	-1.000000	-1.000000	719817.000000	1772895153.933510
-6152.490000	-12104.280000	4581.045000	-1621.530000	-23702.130000	-17578.125000	-1885.905000	-5636.520000	-0.989653	1.661253	0.796046	2.000004	-1.078115	0.556412	-1.890537	-3.680549	-9.049180	3.845520	-10.254720	0.630858	0.292602	0.665098	-1.000000	-1.000000	-1.000000	-1.000000	-1.000000	-1.000000	-1.000000	84.482759	0.000000	-1.000000	-1.000000	719818.000000	1772895153.933513
-6152.490000	-12104.280000	4581.045000	-1621.530000	-23702.130000	-17578.125000	-1885.905000	-5636.520000	-1.736066	-0.753407	-1.661169	-1.994468	-8.953194	-3.822783	-3.717341	-3.331478	-9.049180	3.845520	-10.254720	0.630858	0.292602	0.665098	-1.000000	-1.000000	-1.000000	-1.000000	-1.000000	-1.000000	-1.000000	84.482759	0.000000	-1.000000	-1.000000	719819.000000	1772895153.933515
-6152.490000	-12104.280000	4581.045000	-1621.530000	-23702.130000	-17578.125000	-1885.905000	-5636.520000	-1.801547	-2.705033	-3.331808	-5.104385	-14.169235	-6.628961	-4.436993	-2.142761	-9.049180	3.845520	-10.254720	0.630858	0.292602	0.665098	-1.000000	-1.000000	-1.000000	-1.000000	-1.000000	-1.000000	-1.000000	84.482759	0.000000	-1.000000	-1.000000	719820.000000	1772895153.933517
-6152.490000	-12104.280000	4581.045000	-1621.530000	-23702.130000	-17578.125000	-1885.905000	-5636.520000	-0.906107	-3.389942	-3.283417	-5.924223	-14.486948	-6.574671	-3.580242	-0.176332	-9.049180	3.845520	-10.254720	0.630858	0.292602	0.665098	-1.000000	-1.000000	-1.000000	-1.000000	-1.000000	-1.000000	-1.000000	84.482759	0.000000	-1.000000	-1.000000	719821.000000	1772895153.933520
-6152.490000	-12104.280000	4581.045000	-1621.530000	-23702.130000	-17578.125000	-1885.905000	-5636.520000	0.694194	-2.476124	-1.445680	-4.075327	-9.447482	-3.699584	-1.335606	1.979840	-9.049180	3.845520	-10.254720	0.630858	0.292602	0.665098	-1.000000	-1.000000	-1.000000	-1.000000	-1.000000	-1.000000	-1.000000	84.482759	0.000000	-1.000000	-1.000000	719822.000000	1772895153.933522
-6152.490000	-12104.280000	4581.045000	-1621.530000	-23702.130000	-17578.125000	-1885.905000	-5636.520000	2.206650	-0.516016	1.289172	-0.526694	-1.155080	0.608808	1.415251	3.467501	-9.049180	3.845520	-10.254720	0.630858	0.292602	0.665098	-1.000000	-1.000000	-1.000000	-1.000000	-1.000000	-1.000000	-1.000000	84.482759	0.000000	-1.000000	-1.000000	719823.000000	1772895153.933524
-6152.490000	-12104.280000	4581.045000	-1621.530000	-23702.130000	-17578.125000	-1885.905000	-5636.520000	2.713733	1.254738	3.371016	2.807033	6.475123	4.190372	3.376185	3.656849	-9.049180	3.845520	-10.254720	0.630858	0.292602	0.665098	-1.000000	-1.000000	-1.000000	-1.000000	-1.000000	-1.000000	-1.000000	84.482759	0.000000	-1.000000	-1.000000	719824.000000	1772895153.933527
-6152.490000	-12104.280000	4581.045000	-1621.530000	-23702.130000	-17578.125000	-1885.905000	-5636.520000	1.905301	1.941197	3.633171	4.327450	10.229405	5.395632	3.653865	2.482262	-9.049180	3.845520	-10.254720	0.630858	0.292602	0.665098	-1.000000	-1.000000	-1.000000	-1.000000	-1.000000	-1.000000	-1.000000	84.482759	0.000000	-1.000000	-1.000000	719825.000000	1772895153.933529
-6152.490000	-12104.280000	4581.045000	-1621.530000	-23702.130000	-17578.125000	-1885.905000	-5636.520000	0.331442	1.578925	2.128023	3.642333	9.154462	3.993029	2.347805	0.481650	-9.049180	3.845520	-10.254720	0.630858	0.292602	0.665098	-1.000000	-1.000000	-1.000000	-1.000000	-1.000000	-1.000000	-1.000000	84.482759	0.000000	-1.000000	-1.000000	719826.000000	1772895153.933532
-6152.490000	-12104.280000	4581.045000	-1621.530000	-23702.130000	-17578.125000	-1885.905000	-5636.520000	-1.164087	0.627990	-0.156480	1.450052	4.497605	1.042347	0.288591	-1.433379	-9.049180	3.845520	-10.254720	0.630858	0.292602	0.665098	-1.000000	-1.000000	-1.000000	-1.000000	-1.000000	-1.000000	-1.000000	84.482759	0.000000	-1.000000	-1.000000	719827.000000	1772895153.933536
-6152.490000	-12104.280000	4581.045000	-1621.530000	-23702.130000	-17578.125000	-1885.905000	-5636.520000	-1.955798	-0.425952	-2.051322	-1.012673	-1.148079	-1.850459	-1.517701	-2.452047	-9.049180	3.845520	-10.254720	0.630858	0.292602	0.665098	-1.000000	-1.000000	-1.000000	-1.000000	-1.000000	-1.000000	-1.000000	84.482759	0.000000	-1.000000	-1.000000	719828.000000	1772895153.933541
-6152.490000	-12104.280000	4581.045000	-1621.530000	-23702.130000	-17578.125000	-1885.905000	-5636.520000	-1.789203	-1.100214	-2.757135	-2.585276	-5.176266	-3.383210	-2.332554	-2.261781	-9.049180	3.845520	-10.254720	0.630858	0.292602	0.665098	-1.000000	-1.000000	-1.000000	-1.000000	-1.000000	-1.000000	-1.000000	84.482759	0.000000	-1.000000	-1.000000	719829.000000	1772895153.933543
-6152.490000	-12104.280000	4581.045000	-1621.530000	-23702.130000	-17578.125000	-1885.905000	-5636.520000	-0.842298	-1.092744	-2.104539	-2.660713	-6.034951	-3.069929	-1.950955	-1.133683	-9.049180	3.845520	-10.254720	0.630858	0.292602	0.665098	-1.000000	-1.000000	-1.000000	-1.000000	-1.000000	-1.000000	-1.000000	84.482759	0.000000	-1.000000	-1.000000	719830.000000	1772895153.933545
-6152.490000	-12104.280000	4581.045000	-1621.530000	-23702.130000	-17578.125000	-1885.905000	-5636.520000	0.363060	-0.473189	-0.545274	-1.408514	-3.827964	-1.330552	-0.719243	0.269817	-9.049180	3.845520	-10.254720	0.630858	0.292602	0.665098	-1.000000	-1.000000	-1.000000	-1.000000	-1.000000	-1.000000	-1.000000	84.482759	0.000000	-1.000000	-1.000000	719831.000000	1772895153.933547
-6152.490000	-12104.280000	4581.045000	-1621.530000	-23702.130000	-17578.125000	-1885.905000	-5636.520000	1.202845	0.309357	1.048764	0.327230	-0.217521	0.758124	0.636227	1.266511	-9.049180	3.845520	-10.254720	0.630858	0.292602	0.665098	-1.000000	-1.000000	-1.000000	-1.000000	-1.000000	-1.000000	-1.000000	84.482759	0.000000	-1.000000	-1.000000	719832.000000	1772895153.933550
-6152.490000	-12104.280000	4581.045000	-1621.530000	-23702.130000	-17578.125000	-1885.905000	-5636.520000	1.297457	0.760040	1.854315	1.572815	2.736033	2.088915	1.409523	1.477213	-9.049180	3.845520	-10.254720	0.630858	0.292602	0.665098	-1.000000	-1.000000	-1.000000	-1.000000	-1.000000	-1.000000	-1.000000	84.482759	0.000000	-1.000000	-1.000000	719833.000000	1772895153.933552
-6152.490000	-12104.280000	4581.045000	-1621.530000	-23702.130000	-17578.125000	-1885.905000	-5636.520000	0.743111	0.730676	1.602573	1.807594	3.750341	2.138778	1.332997	0.943776	-9.049180	3.845520	-10.254720	0.630858	0.292602	0.665098	-1.000000	-1.000000	-1.000000	-1.000000	-1.000000	-1.000000	-1.000000	84.482759	0.000000	-1.000000	-1.000000	719834.000000	1772895153.933554
-6152.490000	-12104.280000	4581.045000	-1621.530000	-23702.130000	-17578.125000	-1885.905000	-5636.520000	-0.053213	0.361334	0.623373	1.110887	2.709802	1.118857	0.619192	0.056347	-9.049180	3.845520	-10.254720	0.630858	0.292602	0.665098	-1.000000	-1.000000	-1.000000	-1.000000	-1.000000	-1.000000	-1.000000	84.482759	0.000000	-1.000000	-1.000000	719835.000000	1772895153.933557
-6152.490000	-12104.280000	4581.045000	-1621.530000	-23702.130000	-17578.125000	-1885.905000	-5636.520000	-0.677135	-0.129078	-0.478167	-0.016213	0.499051	-0.276712	-0.267919	-0.686706	-9.049180	3.845520	-10.254720	0.630858	0.292602	0.665098	-1.000000	-1.000000	-1.000000	-1.000000	-1.000000	-1.000000	-1.000000	84.482759	0.000000	-1.000000	-1.000000	719836.000000	1772895153.933559
-6152.490000	-12104.280000	4581.045000	-1621.530000	-23702.130000	-17578.125000	-1885.905000	-5636.520000	-0.868461	-0.500205	-1.158642	-0.955683	-1.595847	-1.300104	-0.869581	-0.948544	-9.049180	3.845520	-10.254720	0.630858	0.292602	0.665098	-1.000000	-1.000000	-1.000000	-1.000000	-1.000000	-1.000000	-1.000000	84.482759	0.000000	-1.000000	-1.000000	719837.000000	1772895153.933561
-6152.490000	-12104.280000	4581.045000	-1621.530000	-23702.130000	-17578.125000	-1885.905000	-5636.520000	-0.601964	-0.576560	-1.163746	-1.274739	-2.554493	-1.513616	-0.940654	-0.686297	-9.049180	3.845520	-10.254720	0.630858	0.292602	0.665098	-1.000000	-1.000000	-1.000000	-1.000000	-1.000000	-1.000000	-1.000000	84.482759	0.000000	-1.000000	-1.000000	719838.000000	1772895153.933563
-6152.490000	-12104.280000	4581.045000	-1621.530000	-23702.130000	-17578.125000	-1885.905000	-5636.520000	-0.073448	-0.340874	-0.588649	-0.897462	-2.046319	-0.931225	-0.524119	-0.123244	-9.049180	3.845520	-10.254720	0.630858	0.292602	0.665098	-1.000000	-1.000000	-1.000000	-1.000000	-1.000000	-1.000000	-1.000000	84.482759	0.000000	-1.000000	-1.000000	719839.000000	1772895153.933566
-6152.490000	-12104.280000	4581.045000	-1621.530000	-23702.130000	-17578.125000	-1885.905000	-5636.520000	0.413547	0.046346	0.200184	-0.117555	-0.561945	0.036428	0.100196	0.406230	-9.049180	3.845520	-10.254720	0.630858	0.292602	0.665098	-1.000000	-1.000000	-1.000000	-1.000000	-1.000000	-1.000000	-1.000000	84.482759	0.000000	-1.000000	-1.000000	719840.000000	1772895153.933568
-6152.490000	-12104.280000	4581.045000	-1621.530000	-23702.130000	-17578.125000	-1885.905000	-5636.520000	0.607461	0.341461	0.760456	0.594211	0.963045	0.831816	0.573217	0.644400	-9.049180	3.845520	-10.254720	0.630858	0.292602	0.665098	-1.000000	-1.000000	-1.000000	-1.000000	-1.000000	-1.000000	-1.000000	84.482759	0.000000	-1.000000	-1.000000	719841.000000	1772895153.933570
-6152.490000	-12104.280000	4581.045000	-1621.530000	-23702.130000	-17578.125000	-1885.905000	-5636.520000	0.457321	0.408248	0.839044	0.889156	1.758355	1.078886	0.675917	0.518662	-9.049180	3.845520	-10.254720	0.630858	0.292602	0.665098	-1.000000	-1.000000	-1.000000	-1.000000	-1.000000	-1.000000	-1.000000	84.482759	0.000000	-1.000000	-1.000000	719842.000000	1772895153.933572
-6152.490000	-12104.280000	4581.045000	-1621.530000	-23702.130000	-17578.125000	-1885.905000	-5636.520000	0.107040	0.270606	0.484820	0.694927	1.550765	0.745690	0.424174	0.149062	-9.049180	3.845520	-10.254720	0.630858	0.292602	0.665098	-1.000000	-1.000000	-1.000000	-1.000000	-1.000000	-1.000000	-1.000000	84.482759	0.000000	-1.000000	-1.000000	719843.000000	1772895153.933575
-6152.490000	-12104.280000	4581.045000	-1621.530000	-23702.130000	-17578.125000	-1885.905000	-5636.520000	-0.237022	0.027443	-0.050014	0.187766	0.602533	0.094309	0.002525	-0.237937	-9.049180	3.845520	-10.254720	0.630858	0.292602	0.665098	-1.000000	-1.000000	-1.000000	-1.000000	-1.000000	-1.000000	-1.000000	84.482759	0.000000	-1.000000	-1.000000	719844.000000	1772895153.933577
-6152.490000	-12104.280000	4581.045000	-1621.530000	-23702.130000	-17578.125000	-1885.905000	-5636.520000	-0.410854	-0.195669	-0.473819	-0.333762	-0.500033	-0.500235	-0.354369	-0.444625	-9.049180	3.845520	-10.254720	0.630858	0.292602	0.665098	-1.000000	-1.000000	-1.000000	-1.000000	-1.000000	-1.000000	-1.000000	84.482759	0.000000	-1.000000	-1.000000	719845.000000	1772895153.933579
-6152.490000	-12104.280000	4581.045000	-1621.530000	-23702.130000	-17578.125000	-1885.905000	-5636.520000	-0.354685	-0.292111	-0.597955	-0.611218	-1.190772	-0.754937	-0.481173	-0.395800	-9.049180	3.845520	-10.254720	0.630858	0.292602	0.665098	-1.000000	-1.000000	-1.000000	-1.000000	-1.000000	-1.000000	-1.000000	84.482759	0.000000	-1.000000	-1.000000	719846.000000	1772895153.933582
-6152.490000	-12104.280000	4581.045000	-1621.530000	-23702.130000	-17578.125000	-1885.905000	-5636.520000	-0.129297	-0.227426	-0.406272	-0.540936	-1.179499	-0.594692	-0.349286	-0.155825	-9.049180	3.845520	-10.254720	0.630858	0.292602	0.665098	-1.000000	-1.000000	-1.000000	-1.000000	-1.000000	-1.000000	-1.000000	84.482759	0.000000	-1.000000	-1.000000	719847.000000	1772895153.933584
-6152.490000	-12104.280000	4581.045000	-1621.530000	-23702.130000	-17578.125000	-1885.905000	-5636.520000	0.129412	-0.052877	-0.037080	-0.206963	-0.571979	-0.159031	-0.059992	0.124414	-9.049180	3.845520	-10.254720	0.630858	0.292602	0.665098	-1.000000	-1.000000	-1.000000	-1.000000	-1.000000	-1.000000	-1.000000	84.482759	0.000000	-1.000000	-1.000000	719848.000000	1772895153.933586
-6152.490000	-12104.280000	4581.045000	-1621.530000	-23702.130000	-17578.125000	-1885.905000	-5636.520000	0.282791	0.120255	0.295111	0.178183	0.223933	0.288790	0.215308	0.299026	-9.049180	3.845520	-10.254720	0.630858	0.292602	0.665098	-1.000000	-1.000000	-1.000000	-1.000000	-1.000000	-1.000000	-1.000000	84.482759	0.000000	-1.000000	-1.000000	719849.000000	1772895153.933589
-6152.490000	-12104.280000	4581.045000	-1621.530000	-23702.130000	-17578.125000	-1885.905000	-5636.520000	0.267041	0.199724	0.424006	0.410623	0.778839	0.520015	0.337147	0.297651	-9.049180	3.845520	-10.254720	0.630858	0.292602	0.665098	-1.000000	-1.000000	-1.000000	-1.000000	-1.000000	-1.000000	-1.000000	84.482759	0.000000	-1.000000	-1.000000	719850.000000	1772895153.933591
-6152.490000	-12104.280000	4581.045000	-1621.530000	-23702.130000	-17578.125000	-1885.905000	-5636.520000	0.121132	0.168168	0.319542	0.401494	0.859124	0.454600	0.271260	0.147443	-9.049180	3.845520	-10.254720	0.630858	0.292602	0.665098	-1.000000	-1.000000	-1.000000	-1.000000	-1.000000	-1.000000	-1.000000	84.482759	0.000000	-1.000000	-1.000000	719851.000000	1772895153.933594
-6152.490000	-12104.280000	4581.045000	-1621.530000	-23702.130000	-17578.125000	-1885.905000	-5636.520000	-0.059950	0.061627	0.073945	0.195033	0.499955	0.173339	0.081865	-0.052955	-9.049180	3.845520	-10.254720	0.630858	0.292602	0.665098	-1.000000	-1.000000	-1.000000	-1.000000	-1.000000	-1.000000	-1.000000	84.482759	0.000000	-1.000000	-1.000000	719852.000000	1772895153.933596
-6152.490000	-12104.280000	4581.045000	-1621.530000	-23702.130000	-17578.125000	-1885.905000	-5636.520000	-0.183092	-0.059392	-0.168749	-0.075510	-0.050289	-0.148934	-0.117989	-0.195217	-9.049180	3.845520	-10.254720	0.630858	0.292602	0.665098	-1.000000	-1.000000	-1.000000	-1.000000	-1.000000	-1.000000	-1.000000	84.482759	0.000000	-1.000000	-1.000000	719853.000000	1772895153.933599
-6152.490000	-12104.280000	4581.045000	-1621.530000	-23702.130000	-17578.125000	-1885.905000	-5636.520000	-0.196619	-0.133655	-0.289836	-0.266783	-0.490896	-0.346546	-0.228009	-0.217710	-9.049180	3.845520	-10.254720	0.630858	0.292602	0.665098	-1.000000	-1.000000	-1.000000	-1.000000	-1.000000	-1.000000	-1.000000	84.482759	0.000000	-1.000000	-1.000000	719854.000000	1772895153.933601
-6152.490000	-12104.280000	4581.045000	-1621.530000	-23702.130000	-17578.125000	-1885.905000	-5636.520000	-0.110301	-0.130349	-0.248837	-0.295961	-0.619219	-0.341444	-0.207967	-0.127872	-9.049180	3.845520	-10.254720	0.630858	0.292602	0.665098	-1.000000	-1.000000	-1.000000	-1.000000	-1.000000	-1.000000	-1.000000	84.482759	0.000000	-1.000000	-1.000000	719855.000000	1772895153.933603
-6152.490000	-12104.280000	4581.045000	-1621.530000	-23702.130000	-17578.125000	-1885.905000	-5636.520000	0.018624	-0.060497	-0.089287	-0.171484	-0.414973	-0.165896	-0.086554	0.011520	-9.049180	3.845520	-10.254720	0.630858	0.292602	0.665098	-1.000000	-1.000000	-1.000000	-1.000000	-1.000000	-1.000000	-1.000000	84.482759	0.000000	-1.000000	-1.000000	719856.000000	1772895153.933605
-6152.490000	-12104.280000	4581.045000	-1621.530000	-23702.130000	-17578.125000	-1885.905000	-5636.520000	0.118756	0.029924	0.091342	0.019909	-0.035049	0.065755	0.060070	0.123084	-9.049180	3.845520	-10.254720	0.630858	0.292602	0.665098	-1.000000	-1.000000	-1.000000	-1.000000	-1.000000	-1.000000	-1.000000	84.482759	0.000000	-1.000000	-1.000000	719857.000000	1772895153.933608
-6152.490000	-12104.280000	4581.045000	-1621.530000	-23702.130000	-17578.125000	-1885.905000	-5636.520000	0.142518	0.088934	0.197000	0.170060	0.300323	0.227425	0.152774	0.155937	-9.049180	3.845520	-10.254720	0.630858	0.292602	0.665098	-1.000000	-1.000000	-1.000000	-1.000000	-1.000000	-1.000000	-1.000000	84.482759	0.000000	-1.000000	-1.000000	719858.000000	1772895153.933610
-6152.490000	-12104.280000	4581.045000	-1621.530000	-23702.130000	-17578.125000	-1885.905000	-5636.520000	0.091026	0.093615	0.186694	0.211249	0.433009	0.249659	0.154105	0.105739	-9.049180	3.845520	-10.254720	0.630858	0.292602	0.665098	-1.000000	-1.000000	-1.000000	-1.000000	-1.000000	-1.000000	-1.000000	84.482759	0.000000	-1.000000	-1.000000	719859.000000	1772895153.933613
-6152.490000	-12104.280000	4581.045000	-1621.530000	-23702.130000	-17578.125000	-1885.905000	-5636.520000	0.003224	0.052428	0.085344	0.140978	0.329052	0.143854	0.078815	0.010554	-9.049180	3.845520	-10.254720	0.630858	0.292602	0.665098	-1.000000	-1.000000	-1.000000	-1.000000	-1.000000	-1.000000	-1.000000	84.482759	0.000000	-1.000000	-1.000000	719860.000000	1772895153.933615
-6152.490000	-12104.280000	4581.045000	-1621.530000	-23702.130000	-17578.125000	-1885.905000	-5636.520000	-0.072231	-0.008214	-0.042060	0.011795	0.077973	-0.016657	-0.023626	-0.074746	-9.049180	3.845520	-10.254720	0.630858	0.292602	0.665098	-1.000000	-1.000000	-1.000000	-1.000000	-1.000000	-1.000000	-1.000000	84.482759	0.000000	-1.000000	-1.000000	719861.000000	1772895153.933617
-6152.490000	-12104.280000	4581.045000	-1621.530000	-23702.130000	-17578.125000	-1885.905000	-5636.520000	-0.100096	-0.055803	-0.128389	-0.103014	-0.172511	-0.143387	-0.098099	-0.109261	-9.049180	3.845520	-10.254720	0.630858	0.292602	0.665098	-1.000000	-1.000000	-1.000000	-1.000000	-1.000000	-1.000000	-1.000000	84.482759	0.000000	-1.000000	-1.000000	719862.000000	1772895153.933620
-6152.490000	-12104.280000	4581.045000	-1621.530000	-23702.130000	-17578.125000	-1885.905000	-5636.520000	-0.073834	-0.068524	-0.137598	-0.148859	-0.298612	-0.179087	-0.112204	-0.083717	-9.049180	3.845520	-10.254720	0.630858	0.292602	0.665098	-1.000000	-1.000000	-1.000000	-1.000000	-1.000000	-1.000000	-1.000000	84.482759	0.000000	-1.000000	-1.000000	719863.000000	1772895153.933622
-6152.490000	-12104.280000	4581.045000	-1621.530000	-23702.130000	-17578.125000	-1885.905000	-5636.520000	-0.014668	-0.044720	-0.076780	-0.112993	-0.254994	-0.119745	-0.068078	-0.020359	-9.049180	3.845520	-10.254720	0.630858	0.292602	0.665098	-1.000000	-1.000000	-1.000000	-1.000000	-1.000000	-1.000000	-1.000000	84.482759	0.000000	-1.000000	-1.000000	719864.000000	1772895153.933625
-6152.490000	-12104.280000	4581.045000	-1621.530000	-23702.130000	-17578.125000	-1885.905000	-5636.520000	0.043024	-0.001442	0.013516	-0.025756	-0.089947	-0.009441	0.003674	0.043102	-9.049180	3.845520	-10.254720	0.630858	0.292602	0.665098	-1.000000	-1.000000	-1.000000	-1.000000	-1.000000	-1.000000	-1.000000	84.482759	0.000000	-1.000000	-1.000000	719865.000000	1772895153.933627
-6152.490000	-12104.280000	4581.045000	-1621.530000	-23702.130000	-17578.125000	-1885.905000	-5636.520000	0.069866	0.035254	0.082784	0.060310	0.093210	0.088068	0.062199	0.075145	-9.049180	3.845520	-10.254720	0.630858	0.292602	0.665098	-1.000000	-1.000000	-1.000000	-1.000000	-1.000000	-1.000000	-1.000000	84.482759	0.000000	-1.000000	-1.000000	719866.000000	1772895153.933629
-6152.490000	-12104.280000	4581.045000	-1621.530000	-23702.130000	-17578.125000	-1885.905000	-5636.520000	0.057230	0.047955	0.099327	0.102431	0.200882	0.126054	0.080159	0.064686	-9.049180	3.845520	-10.254720	0.630858	0.292602	0.665098	-1.000000	-1.000000	-1.000000	-1.000000	-1.000000	-1.000000	-1.000000	84.482759	0.000000	-1.000000	-1.000000	719867.000000	1772895153.933631
-6152.490000	-12104.280000	4581.045000	-1621.530000	-23702.130000	-17578.125000	-1885.905000	-5636.520000	0.018348	0.035239	0.063745	0.086902	0.191470	0.095112	0.055430	0.023514	-9.049180	3.845520	-10.254720	0.630858	0.292602	0.665098	-1.000000	-1.000000	-1.000000	-1.000000	-1.000000	-1.000000	-1.000000	84.482759	0.000000	-1.000000	-1.000000	719868.000000	1772895153.933634
-6152.490000	-12104.280000	4581.045000	-1621.530000	-23702.130000	-17578.125000	-1885.905000	-5636.520000	-0.023389	0.007213	0.002184	0.030595	0.088154	0.021678	0.007094	-0.022842	-9.049180	3.845520	-10.254720	0.630858	0.292602	0.665098	-1.000000	-1.000000	-1.000000	-1.000000	-1.000000	-1.000000	-1.000000	84.482759	0.000000	-1.000000	-1.000000	719869.000000	1772895153.933636
-6152.490000	-12104.280000	4581.045000	-1621.530000	-23702.130000	-17578.125000	-1885.905000	-5636.520000	-0.046981	-0.020168	-0.050693	-0.032061	-0.042635	-0.050859	-0.037096	-0.050450	-9.049180	3.845520	-10.254720	0.630858	0.292602	0.665098	-1.000000	-1.000000	-1.000000	-1.000000	-1.000000	-1.000000	-1.000000	84.482759	0.000000	-1.000000	-1.000000	719870.000000	1772895153.933638
-6152.490000	-12104.280000	4581.045000	-1621.530000	-23702.130000	-17578.125000	-1885.905000	-5636.520000	-0.043457	-0.033311	-0.070046	-0.068989	-0.131920	-0.086682	-0.055834	-0.048492	-9.049180	3.845520	-10.254720	0.630858	0.292602	0.665098	-1.000000	-1.000000	-1.000000	-1.000000	-1.000000	-1.000000	-1.000000	84.482759	0.000000	-1.000000	-1.000000	719871.000000	1772895153.933641
-6152.490000	-12104.280000	4581.045000	-1621.530000	-23702.130000	-17578.125000	-1885.905000	-5636.520000	-0.018813	-0.027805	-0.051555	-0.065741	-0.141293	-0.073705	-0.043828	-0.022574	-9.049180	3.845520	-10.254720	0.630858	0.292602	0.665098	-1.000000	-1.000000	-1.000000	-1.000000	-1.000000	-1.000000	-1.000000	84.482759	0.000000	-1.000000	-1.000000	719872.000000	1772895153.933643
-6152.490000	-12104.280000	4581.045000	-1621.530000	-23702.130000	-17578.125000	-1885.905000	-5636.520000	0.011558	-0.008921	-0.010003	-0.029911	-0.078050	-0.025752	-0.011605	0.010521	-9.049180	3.845520	-10.254720	0.630858	0.292602	0.665098	-1.000000	-1.000000	-1.000000	-1.000000	-1.000000	-1.000000	-1.000000	84.482759	0.000000	-1.000000	-1.000000	719873.000000	1772895153.933645
-6152.490000	-12104.280000	4581.045000	-1621.530000	-23702.130000	-17578.125000	-1885.905000	-5636.520000	0.031402	0.011477	0.030113	0.015202	0.014027	0.027530	0.021435	0.033175	-9.049180	3.845520	-10.254720	0.630858	0.292602	0.665098	-1.000000	-1.000000	-1.000000	-1.000000	-1.000000	-1.000000	-1.000000	84.482759	0.000000	-1.000000	-1.000000	719874.000000	1772895153.933649
-6152.490000	-12104.280000	4581.045000	-1621.530000	-23702.130000	-17578.125000	-1885.905000	-5636.520000	0.032261	0.022620	0.048693	0.045481	0.084484	0.058596	0.038457	0.035764	-9.049180	3.845520	-10.254720	0.630858	0.292602	0.665098	-1.000000	-1.000000	-1.000000	-1.000000	-1.000000	-1.000000	-1.000000	84.482759	0.000000	-1.000000	-1.000000	719875.000000	1772895153.933651
-6152.490000	-12104.280000	4581.045000	-1621.530000	-23702.130000	-17578.125000	-1885.905000	-5636.520000	0.016953	0.020827	0.040006	0.048309	0.101785	0.055508	0.033647	0.020078	-9.049180	3.845520	-10.254720	0.630858	0.292602	0.665098	-1.000000	-1.000000	-1.000000	-1.000000	-1.000000	-1.000000	-1.000000	84.482759	0.000000	-1.000000	-1.000000	719876.000000	1772895153.933654
-6152.490000	-12104.280000	4581.045000	-1621.530000	-23702.130000	-17578.125000	-1885.905000	-5636.520000	-0.004279	0.009106	0.012808	0.026634	0.065583	0.025222	0.012894	-0.003131	-9.049180	3.845520	-10.254720	0.630858	0.292602	0.665098	-1.000000	-1.000000	-1.000000	-1.000000	-1.000000	-1.000000	-1.000000	84.482759	0.000000	-1.000000	-1.000000	719877.000000	1772895153.933657
-6152.490000	-12104.280000	4581.045000	-1621.530000	-23702.130000	-17578.125000	-1885.905000	-5636.520000	-0.020052	-0.005352	-0.016455	-0.004882	0.002516	-0.012815	-0.010972	-0.021078	-9.049180	3.845520	-10.254720	0.630858	0.292602	0.665098	-1.000000	-1.000000	-1.000000	-1.000000	-1.000000	-1.000000	-1.000000	84.482759	0.000000	-1.000000	-1.000000	719878.000000	1772895153.933659
-6152.490000	-12104.280000	4581.045000	-1621.530000	-23702.130000	-17578.125000	-1885.905000	-5636.520000	-0.023326	-0.014879	-0.032888	-0.029005	-0.051899	-0.038443	-0.025556	-0.025653	-9.049180	3.845520	-10.254720	0.630858	0.292602	0.665098	-1.000000	-1.000000	-1.000000	-1.000000	-1.000000	-1.000000	-1.000000	84.482759	0.000000	-1.000000	-1.000000	719879.000000	1772895153.933662
-6152.490000	-12104.280000	4581.045000	-1621.530000	-23702.130000	-17578.125000	-1885.905000	-5636.520000	-0.014452	-0.015520	-0.030388	-0.034910	-0.071927	-0.040906	-0.025101	-0.016659	-9.049180	3.845520	-10.254720	0.630858	0.292602	0.665098	-1.000000	-1.000000	-1.000000	-1.000000	-1.000000	-1.000000	-1.000000	84.482759	0.000000	-1.000000	-1.000000	719880.000000	1772895153.933664
-6152.490000	-12104.280000	4581.045000	-1621.530000	-23702.130000	-17578.125000	-1885.905000	-5636.520000	0.000303	-0.008213	-0.013071	-0.022374	-0.052638	-0.022492	-0.012116	-0.000743	-9.049180	3.845520	-10.254720	0.630858	0.292602	0.665098	-1.000000	-1.000000	-1.000000	-1.000000	-1.000000	-1.000000	-1.000000	84.482759	0.000000	-1.000000	-1.000000	719881.000000	1772895153.933668
-6152.490000	-12104.280000	4581.045000	-1621.530000	-23702.130000	-17578.125000	-1885.905000	-5636.520000	0.012655	0.002155	0.008143	-0.000583	-0.010041	0.004309	0.004981	0.013049	-9.049180	3.845520	-10.254720	0.630858	0.292602	0.665098	-1.000000	-1.000000	-1.000000	-1.000000	-1.000000	-1.000000	-1.000000	84.482759	0.000000	-1.000000	-1.000000	719882.000000	1772895153.933670
-6152.490000	-12104.280000	4581.045000	-1621.530000	-23702.130000	-17578.125000	-1885.905000	-5636.520000	0.016686	0.009707	0.021897	0.018007	0.030779	0.024706	0.016879	0.018198	-9.049180	3.845520	-10.254720	0.630858	0.292602	0.665098	-1.000000	-1.000000	-1.000000	-1.000000	-1.000000	-1.000000	-1.000000	84.482759	0.000000	-1.000000	-1.000000	719883.000000	1772895153.933673
-6152.490000	-12104.280000	4581.045000	-1621.530000	-23702.130000	-17578.125000	-1885.905000	-5636.520000	0.011758	0.011224	0.022526	0.024688	0.049903	0.029566	0.018505	0.013468	-9.049180	3.845520	-10.254720	0.630858	0.292602	0.665098	-1.000000	-1.000000	-1.000000	-1.000000	-1.000000	-1.000000	-1.000000	84.482759	0.000000	-1.000000	-1.000000	719884.000000	1772895153.933676
-6152.490000	-12104.280000	4581.045000	-1621.530000	-23702.130000	-17578.125000	-1885.905000	-5636.520000	0.001807	0.006997	0.011841	0.018011	0.041113	0.018905	0.010694	0.002776	-9.049180	3.845520	-10.254720	0.630858	0.292602	0.665098	-1.000000	-1.000000	-1.000000	-1.000000	-1.000000	-1.000000	-1.000000	84.482759	0.000000	-1.000000	-1.000000	719885.000000	1772895153.933679
-6152.490000	-12104.280000	4581.045000	-1621.530000	-23702.130000	-17578.125000	-1885.905000	-5636.520000	-0.007466	-0.000045	-0.003044	0.003422	0.013278	0.000520	-0.001176	-0.007580	-9.049180	3.845520	-10.254720	0.630858	0.292602	0.665098	-1.000000	-1.000000	-1.000000	-1.000000	-1.000000	-1.000000	-1.000000	84.482759	0.000000	-1.000000	-1.000000	719886.000000	1772895153.933681
-6152.490000	-12104.280000	4581.045000	-1621.530000	-23702.130000	-17578.125000	-1885.905000	-5636.520000	-0.011541	-0.005952	-0.014053	-0.010568	-0.016750	-0.015204	-0.010547	-0.012499	-9.049180	3.845520	-10.254720	0.630858	0.292602	0.665098	-1.000000	-1.000000	-1.000000	-1.000000	-1.000000	-1.000000	-1.000000	84.482759	0.000000	-1.000000	-1.000000	719887.000000	1772895153.933684
-6152.490000	-12104.280000	4581.045000	-1621.530000	-23702.130000	-17578.125000	-1885.905000	-5636.520000	-0.009197	-0.007952	-0.016318	-0.017087	-0.033701	-0.020864	-0.013145	-0.010373	-9.049180	3.845520	-10.254720	0.630858	0.292602	0.665098	-1.000000	-1.000000	-1.000000	-1.000000	-1.000000	-1.000000	-1.000000	84.482759	0.000000	-1.000000	-1.000000	719888.000000	1772895153.933686
-6152.490000	-12104.280000	4581.045000	-1621.530000	-23702.130000	-17578.125000	-1885.905000	-5636.520000	-0.002618	-0.005654	-0.010092	-0.014041	-0.031084	-0.015212	-0.008747	-0.003375	-9.049180	3.845520	-10.254720	0.630858	0.292602	0.665098	-1.000000	-1.000000	-1.000000	-1.000000	-1.000000	-1.000000	-1.000000	84.482759	0.000000	-1.000000	-1.000000	719889.000000	1772895153.933688
-6152.490000	-12104.280000	4581.045000	-1621.530000	-23702.130000	-17578.125000	-1885.905000	-5636.520000	0.004286	-0.000816	0.000250	-0.004409	-0.013240	-0.002800	-0.000595	0.004223	-9.049180	3.845520	-10.254720	0.630858	0.292602	0.665098	-1.000000	-1.000000	-1.000000	-1.000000	-1.000000	-1.000000	-1.000000	84.482759	0.000000	-1.000000	-1.000000	719890.000000	1772895153.933691
-6152.490000	-12104.280000	4581.045000	-1621.530000	-23702.130000	-17578.125000	-1885.905000	-5636.520000	0.007961	0.003652	0.008830	0.005885	0.008367	0.009042	0.006590	0.008544	-9.049180	3.845520	-10.254720	0.630858	0.292602	0.665098	-1.000000	-1.000000	-1.000000	-1.000000	-1.000000	-1.000000	-1.000000	84.482759	0.000000	-1.000000	-1.000000	719891.000000	1772895153.933693
-6152.490000	-12104.280000	4581.045000	-1621.530000	-23702.130000	-17578.125000	-1885.905000	-5636.520000	0.007084	0.005585	0.011643	0.011631	0.022472	0.014525	0.009383	0.007946	-9.049180	3.845520	-10.254720	0.630858	0.292602	0.665098	-1.000000	-1.000000	-1.000000	-1.000000	-1.000000	-1.000000	-1.000000	84.482759	0.000000	-1.000000	-1.000000	719892.000000	1772895153.933695
-6152.490000	-12104.280000	4581.045000	-1621.530000	-23702.130000	-17578.125000	-1885.905000	-5636.520000	0.002843	0.004471	0.008208	0.010670	0.023156	0.011893	0.007092	0.003491	-9.049180	3.845520	-10.254720	0.630858	0.292602	0.665098	-1.000000	-1.000000	-1.000000	-1.000000	-1.000000	-1.000000	-1.000000	84.482759	0.000000	-1.000000	-1.000000	719893.000000	1772895153.933698
-6152.490000	-12104.280000	4581.045000	-1621.530000	-23702.130000	-17578.125000	-1885.905000	-5636.520000	-0.002124	0.001327	0.001238	0.004557	0.012235	0.003764	0.001667	-0.001975	-9.049180	3.845520	-10.254720	0.630858	0.292602	0.665098	-1.000000	-1.000000	-1.000000	-1.000000	-1.000000	-1.000000	-1.000000	84.482759	0.000000	-1.000000	-1.000000	719894.000000	1772895153.933700
-6152.490000	-12104.280000	4581.045000	-1621.530000	-23702.130000	-17578.125000	-1885.905000	-5636.520000	-0.005239	-0.001978	-0.005248	-0.002864	-0.003027	-0.004952	-0.003701	-0.005571	-9.049180	3.845520	-10.254720	0.630858	0.292602	0.665098	-1.000000	-1.000000	-1.000000	-1.000000	-1.000000	-1.000000	-1.000000	84.482759	0.000000	-1.000000	-1.000000	719895.000000	1772895153.933702
-6152.490000	-12104.280000	4581.045000	-1621.530000	-23702.130000	-17578.125000	-1885.905000	-5636.520000	-0.005224	-0.003751	-0.008077	-0.007671	-0.014336	-0.009801	-0.006332	-0.005794	-9.049180	3.845520	-10.254720	0.630858	0.292602	0.665098	-1.000000	-1.000000	-1.000000	-1.000000	-1.000000	-1.000000	-1.000000	84.482759	0.000000	-1.000000	-1.000000	719896.000000	1772895153.933704
-6152.490000	-12104.280000	4581.045000	-1621.530000	-23702.130000	-17578.125000	-1885.905000	-5636.520000	-0.002596	-0.003370	-0.006439	-0.007898	-0.016685	-0.008999	-0.005365	-0.003064	-9.049180	3.845520	-10.254720	0.630858	0.292602	0.665098	-1.000000	-1.000000	-1.000000	-1.000000	-1.000000	-1.000000	-1.000000	84.482759	0.000000	-1.000000	-1.000000	719897.000000	1772895153.933707
-6152.490000	-12104.280000	4581.045000	-1621.530000	-23702.130000	-17578.125000	-1885.905000	-5636.520000	0.000948	-0.001324	-0.001817	-0.004110	-0.010238	-0.003793	-0.001819	0.000788	-9.049180	3.845520	-10.254720	0.630858	0.292602	0.665098	-1.000000	-1.000000	-1.000000	-1.000000	-1.000000	-1.000000	-1.000000	84.482759	0.000000	-1.000000	-1.000000	719898.000000	1772895153.933709
-6152.490000	-12104.280000	4581.045000	-1621.530000	-23702.130000	-17578.125000	-1885.905000	-5636.520000	0.003475	0.001077	0.002992	0.001131	0.000313	0.002489	0.002113	0.003661	-9.049180	3.845520	-10.254720	0.630858	0.292602	0.665098	-1.000000	-1.000000	-1.000000	-1.000000	-1.000000	-1.000000	-1.000000	84.482759	0.000000	-1.000000	-1.000000	719899.000000	1772895153.933711
-6152.490000	-12104.280000	4581.045000	-1621.530000	-23702.130000	-17578.125000	-1885.905000	-5636.520000	0.003878	0.002564	0.005551	0.004992	0.009097	0.006555	0.004399	0.004281	-9.049180	3.845520	-10.254720	0.630858	0.292602	0.665098	-1.000000	-1.000000	-1.000000	-1.000000	-1.000000	-1.000000	-1.000000	84.482759	0.000000	-1.000000	-1.000000	719900.000000	1772895153.933713
-6152.490000	-12104.280000	4581.045000	-1621.530000	-23702.130000	-17578.125000	-1885.905000	-5636.520000	0.002301	0.002560	0.004940	0.005758	0.011993	0.006715	0.004167	0.002683	-9.049180	3.845520	-10.254720	0.630858	0.292602	0.665098	-1.000000	-1.000000	-1.000000	-1.000000	-1.000000	-1.000000	-1.000000	84.482759	0.000000	-1.000000	-1.000000	719901.000000	1772895153.933715
-6152.490000	-12104.280000	4581.045000	-1621.530000	-23702.130000	-17578.125000	-1885.905000	-5636.520000	-0.000152	0.001305	0.001973	0.003544	0.008487	0.003514	0.001928	0.000023	-9.049180	3.845520	-10.254720	0.630858	0.292602	0.665098	-1.000000	-1.000000	-1.000000	-1.000000	-1.000000	-1.000000	-1.000000	84.482759	0.000000	-1.000000	-1.000000	719902.000000	1772895153.933717
-6152.490000	-12104.280000	4581.045000	-1621.530000	-23702.130000	-17578.125000	-1885.905000	-5636.520000	-0.002131	-0.000393	-0.001506	-0.000084	0.001342	-0.000925	-0.000885	-0.002208	-9.049180	3.845520	-10.254720	0.630858	0.292602	0.665098	-1.000000	-1.000000	-1.000000	-1.000000	-1.000000	-1.000000	-1.000000	84.482759	0.000000	-1.000000	-1.000000	719903.000000	1772895153.933720
-6152.490000	-12104.280000	4581.045000	-1621.530000	-23702.130000	-17578.125000	-1885.905000	-5636.520000	-0.002713	-0.001606	-0.003673	-0.003085	-0.005305	-0.004185	-0.002776	-0.002962	-9.049180	3.845520	-10.254720	0.630858	0.292602	0.665098	-1.000000	-1.000000	-1.000000	-1.000000	-1.000000	-1.000000	-1.000000	84.482759	0.000000	-1.000000	-1.000000	719904.000000	1772895153.933722
-6152.490000	-12104.280000	4581.045000	-1621.530000	-23702.130000	-17578.125000	-1885.905000	-5636.520000	-0.001836	-0.001814	-0.003662	-0.004070	-0.008227	-0.004837	-0.002951	-0.002096	-9.049180	3.845520	-10.254720	0.630858	0.292602	0.665098	-1.000000	-1.000000	-1.000000	-1.000000	-1.000000	-1.000000	-1.000000	84.482759	0.000000	-1.000000	-1.000000	719905.000000	1772895153.933724
-6152.490000	-12104.280000	4581.045000	-1621.530000	-23702.130000	-17578.125000	-1885.905000	-5636.520000	-0.000161	-0.001064	-0.001816	-0.002853	-0.006527	-0.002953	-0.001590	-0.000298	-9.049180	3.845520	-10.254720	0.630858	0.292602	0.665098	-1.000000	-1.000000	-1.000000	-1.000000	-1.000000	-1.000000	-1.000000	84.482759	0.000000	-1.000000	-1.000000	719906.000000	1772895153.933727
-6152.490000	-12104.280000	4581.045000	-1621.530000	-23702.130000	-17578.125000	-1885.905000	-5636.520000	0.001350	0.000124	0.000660	-0.000391	-0.001793	0.000123	0.000391	0.001386	-9.049180	3.845520	-10.254720	0.630858	0.292602	0.665098	-1.000000	-1.000000	-1.000000	-1.000000	-1.000000	-1.000000	-1.000000	84.482759	0.000000	-1.000000	-1.000000	719907.000000	1772895153.933729
-6152.490000	-12104.280000	4581.045000	-1621.530000	-23702.130000	-17578.125000	-1885.905000	-5636.520000	0.001961	0.001071	0.002418	0.001881	0.003117	0.002661	0.001892	0.002136	-9.049180	3.845520	-10.254720	0.630858	0.292602	0.665098	-1.000000	-1.000000	-1.000000	-1.000000	-1.000000	-1.000000	-1.000000	84.482759	0.000000	-1.000000	-1.000000	719908.000000	1772895153.933731
-6152.490000	-12104.280000	4581.045000	-1621.530000	-23702.130000	-17578.125000	-1885.905000	-5636.520000	0.001513	0.001352	0.002701	0.002870	0.005750	0.003486	0.002249	0.001721	-9.049180	3.845520	-10.254720	0.630858	0.292602	0.665098	-1.000000	-1.000000	-1.000000	-1.000000	-1.000000	-1.000000	-1.000000	84.482759	0.000000	-1.000000	-1.000000	719909.000000	1772895153.933734
-6152.490000	-12104.280000	4581.045000	-1621.530000	-23702.130000	-17578.125000	-1885.905000	-5636.520000	0.000399	0.000933	0.001596	0.002275	0.005123	0.002449	0.001458	0.000534	-9.049180	3.845520	-10.254720	0.630858	0.292602	0.665098	-1.000000	-1.000000	-1.000000	-1.000000	-1.000000	-1.000000	-1.000000	84.482759	0.000000	-1.000000	-1.000000	719910.000000	1772895153.933736
-6152.490000	-12104.280000	4581.045000	-1621.530000	-23702.130000	-17578.125000	-1885.905000	-5636.520000	-0.000723	0.000131	-0.000120	0.000652	0.002090	0.000369	0.000101	-0.000711	-9.049180	3.845520	-10.254720	0.630858	0.292602	0.665098	-1.000000	-1.000000	-1.000000	-1.000000	-1.000000	-1.000000	-1.000000	84.482759	0.000000	-1.000000	-1.000000	719911.000000	1772895153.933738
-6152.490000	-12104.280000	4581.045000	-1621.530000	-23702.130000	-17578.125000	-1885.905000	-5636.520000	-0.001293	-0.000596	-0.001502	-0.001036	-0.001481	-0.001559	-0.001064	-0.001385	-9.049180	3.845520	-10.254720	0.630858	0.292602	0.665098	-1.000000	-1.000000	-1.000000	-1.000000	-1.000000	-1.000000	-1.000000	84.482759	0.000000	-1.000000	-1.000000	719912.000000	1772895153.933740
-6152.490000	-12104.280000	4581.045000	-1621.530000	-23702.130000	-17578.125000	-1885.905000	-5636.520000	-0.001109	-0.000891	-0.001904	-0.001927	-0.003702	-0.002388	-0.001476	-0.001239	-9.049180	3.845520	-10.254720	0.630858	0.292602	0.665098	-1.000000	-1.000000	-1.000000	-1.000000	-1.000000	-1.000000	-1.000000	84.482759	0.000000	-1.000000	-1.000000	719913.000000	1772895153.933742
-6152.490000	-12104.280000	4581.045000	-1621.530000	-23702.130000	-17578.125000	-1885.905000	-5636.520000	-0.000388	-0.000684	-0.001293	-0.001714	-0.003699	-0.001889	-0.001060	-0.000478	-9.049180	3.845520	-10.254720	0.630858	0.292602	0.665098	-1.000000	-1.000000	-1.000000	-1.000000	-1.000000	-1.000000	-1.000000	84.482759	0.000000	-1.000000	-1.000000	719914.000000	1772895153.933745
-6152.490000	-12104.280000	4581.045000	-1621.530000	-23702.130000	-17578.125000	-1885.905000	-5636.520000	0.000434	-0.000144	-0.000115	-0.000659	-0.001792	-0.000504	-0.000141	0.000423	-9.049180	3.845520	-10.254720	0.630858	0.292602	0.665098	-1.000000	-1.000000	-1.000000	-1.000000	-1.000000	-1.000000	-1.000000	84.482759	0.000000	-1.000000	-1.000000	719915.000000	1772895153.933747
-6152.490000	-12104.280000	4581.045000	-1621.530000	-23702.130000	-17578.125000	-1885.905000	-5636.520000	0.000921	0.000393	0.000934	0.000557	0.000725	0.000916	0.000730	0.000990	-9.049180	3.845520	-10.254720	0.630858	0.292602	0.665098	-1.000000	-1.000000	-1.000000	-1.000000	-1.000000	-1.000000	-1.000000	84.482759	0.000000	-1.000000	-1.000000	719916.000000	1772895153.933749
-6152.490000	-12104.280000	4581.045000	-1621.530000	-23702.130000	-17578.125000	-1885.905000	-5636.520000	0.000889	0.000667	0.001364	0.001321	0.002540	0.001676	0.001135	0.000995	-9.049180	3.845520	-10.254720	0.630858	0.292602	0.665098	-1.000000	-1.000000	-1.000000	-1.000000	-1.000000	-1.000000	-1.000000	84.482759	0.000000	-1.000000	-1.000000	719917.000000	1772895153.933751
-6152.490000	-12104.280000	4581.045000	-1621.530000	-23702.130000	-17578.125000	-1885.905000	-5636.520000	0.000432	0.000579	0.001047	0.001305	0.002820	0.001482	0.000937	0.000520	-9.049180	3.845520	-10.254720	0.630858	0.292602	0.665098	-1.000000	-1.000000	-1.000000	-1.000000	-1.000000	-1.000000	-1.000000	84.482759	0.000000	-1.000000	-1.000000	719918.000000	1772895153.933753
-6152.490000	-12104.280000	4581.045000	-1621.530000	-23702.130000	-17578.125000	-1885.905000	-5636.520000	-0.000151	0.000235	0.000270	0.000657	0.001700	0.000598	0.000338	-0.000118	-9.049180	3.845520	-10.254720	0.630858	0.292602	0.665098	-1.000000	-1.000000	-1.000000	-1.000000	-1.000000	-1.000000	-1.000000	84.482759	0.000000	-1.000000	-1.000000	719919.000000	1772895153.933756
-6152.490000	-12104.280000	4581.045000	-1621.530000	-23702.130000	-17578.125000	-1885.905000	-5636.520000	-0.000555	-0.000161	-0.000518	-0.000216	-0.000069	-0.000441	-0.000309	-0.000579	-9.049180	3.845520	-10.254720	0.630858	0.292602	0.665098	-1.000000	-1.000000	-1.000000	-1.000000	-1.000000	-1.000000	-1.000000	84.482759	0.000000	-1.000000	-1.000000	719920.000000	1772895153.933758
-6152.490000	-12104.280000	4581.045000	-1621.530000	-23702.130000	-17578.125000	-1885.905000	-5636.520000	-0.000599	-0.000394	-0.000910	-0.000828	-0.001476	-0.001077	-0.000664	-0.000657	-9.049180	3.845520	-10.254720	0.630858	0.292602	0.665098	-1.000000	-1.000000	-1.000000	-1.000000	-1.000000	-1.000000	-1.000000	84.482759	0.000000	-1.000000	-1.000000	719921.000000	1772895153.933760
-6152.490000	-12104.280000	4581.045000	-1621.530000	-23702.130000	-17578.125000	-1885.905000	-5636.520000	-0.000327	-0.000384	-0.000786	-0.000929	-0.001903	-0.001072	-0.000606	-0.000377	-9.049180	3.845520	-10.254720	0.630858	0.292602	0.665098	-1.000000	-1.000000	-1.000000	-1.000000	-1.000000	-1.000000	-1.000000	84.482759	0.000000	-1.000000	-1.000000	719922.000000	1772895153.933763
-6152.490000	-12104.280000	4581.045000	-1621.530000	-23702.130000	-17578.125000	-1885.905000	-5636.520000	0.000085	-0.000163	-0.000276	-0.000534	-0.001261	-0.000513	-0.000220	0.000068	-9.049180	3.845520	-10.254720	0.630858	0.292602	0.665098	-1.000000	-1.000000	-1.000000	-1.000000	-1.000000	-1.000000	-1.000000	84.482759	0.000000	-1.000000	-1.000000	719923.000000	1772895153.933765
-6152.490000	-12104.280000	4581.045000	-1621.530000	-23702.130000	-17578.125000	-1885.905000	-5636.520000	0.000400	0.000116	0.000294	0.000066	-0.000069	0.000218	0.000242	0.000425	-9.049180	3.845520	-10.254720	0.630858	0.292602	0.665098	-1.000000	-1.000000	-1.000000	-1.000000	-1.000000	-1.000000	-1.000000	84.482759	0.000000	-1.000000	-1.000000	719924.000000	1772895153.933767
-6152.490000	-12104.280000	4581.045000	-1621.530000	-23702.130000	-17578.125000	-1885.905000	-5636.520000	0.000483	0.000310	0.000637	0.000553	0.001015	0.000742	0.000542	0.000535	-9.049180	3.845520	-10.254720	0.630858	0.292602	0.665098	-1.000000	-1.000000	-1.000000	-1.000000	-1.000000	-1.000000	-1.000000	84.482759	0.000000	-1.000000	-1.000000	719925.000000	1772895153.933769
-6152.490000	-12104.280000	4581.045000	-1621.530000	-23702.130000	-17578.125000	-1885.905000	-5636.520000	0.000324	0.000331	0.000612	0.000690	0.001448	0.000819	0.000552	0.000377	-9.049180	3.845520	-10.254720	0.630858	0.292602	0.665098	-1.000000	-1.000000	-1.000000	-1.000000	-1.000000	-1.000000	-1.000000	84.482759	0.000000	-1.000000	-1.000000	719926.000000	1772895153.933772
-6152.490000	-12104.280000	4581.045000	-1621.530000	-23702.130000	-17578.125000	-1885.905000	-5636.520000	0.000044	0.000201	0.000294	0.000473	0.001130	0.000490	0.000315	0.000076	-9.049180	3.845520	-10.254720	0.630858	0.292602	0.665098	-1.000000	-1.000000	-1.000000	-1.000000	-1.000000	-1.000000	-1.000000	84.482759	0.000000	-1.000000	-1.000000	719927.000000	1772895153.933774
-6152.490000	-12104.280000	4581.045000	-1621.530000	-23702.130000	-17578.125000	-1885.905000	-5636.520000	-0.000201	0.000003	-0.000116	0.000059	0.000328	-0.000025	-0.000013	-0.000199	-9.049180	3.845520	-10.254720	0.630858	0.292602	0.665098	-1.000000	-1.000000	-1.000000	-1.000000	-1.000000	-1.000000	-1.000000	84.482759	0.000000	-1.000000	-1.000000	719928.000000	1772895153.933776
-6152.490000	-12104.280000	4581.045000	-1621.530000	-23702.130000	-17578.125000	-1885.905000	-5636.520000	-0.000292	-0.000149	-0.000395	-0.000309	-0.000475	-0.000432	-0.000254	-0.000312	-9.049180	3.845520	-10.254720	0.630858	0.292602	0.665098	-1.000000	-1.000000	-1.000000	-1.000000	-1.000000	-1.000000	-1.000000	84.482759	0.000000	-1.000000	-1.000000	719929.000000	1772895153.933778
-6152.490000	-12104.280000	4581.045000	-1621.530000	-23702.130000	-17578.125000	-1885.905000	-5636.520000	-0.000210	-0.000190	-0.000428	-0.000459	-0.000882	-0.000551	-0.000302	-0.000234	-9.049180	3.845520	-10.254720	0.630858	0.292602	0.665098	-1.000000	-1.000000	-1.000000	-1.000000	-1.000000	-1.000000	-1.000000	84.482759	0.000000	-1.000000	-1.000000	719930.000000	1772895153.933780
-6152.490000	-12104.280000	4581.045000	-1621.530000	-23702.130000	-17578.125000	-1885.905000	-5636.520000	-0.000022	-0.000115	-0.000235	-0.000347	-0.000751	-0.000365	-0.000164	-0.000033	-9.049180	3.845520	-10.254720	0.630858	0.292602	0.665098	-1.000000	-1.000000	-1.000000	-1.000000	-1.000000	-1.000000	-1.000000	84.482759	0.000000	-1.000000	-1.000000	719931.000000	1772895153.933783
-6152.490000	-12104.280000	4581.045000	-1621.530000	-23702.130000	-17578.125000	-1885.905000	-5636.520000	0.000161	0.000020	0.000052	-0.000072	-0.000231	-0.000015	0.000065	0.000170	-9.049180	3.845520	-10.254720	0.630858	0.292602	0.665098	-1.000000	-1.000000	-1.000000	-1.000000	-1.000000	-1.000000	-1.000000	84.482759	0.000000	-1.000000	-1.000000	719932.000000	1772895153.933785
-6152.490000	-12104.280000	4581.045000	-1621.530000	-23702.130000	-17578.125000	-1885.905000	-5636.520000	0.000248	0.000137	0.000272	0.000202	0.000351	0.000296	0.000250	0.000274	-9.049180	3.845520	-10.254720	0.630858	0.292602	0.665098	-1.000000	-1.000000	-1.000000	-1.000000	-1.000000	-1.000000	-1.000000	84.482759	0.000000	-1.000000	-1.000000	719933.000000	1772895153.933787
-6152.490000	-12104.280000	4581.045000	-1621.530000	-23702.130000	-17578.125000	-1885.905000	-5636.520000	0.000211	0.000182	0.000330	0.000342	0.000705	0.000423	0.000312	0.000242	-9.049180	3.845520	-10.254720	0.630858	0.292602	0.665098	-1.000000	-1.000000	-1.000000	-1.000000	-1.000000	-1.000000	-1.000000	84.482759	0.000000	-1.000000	-1.000000	719934.000000	1772895153.933789
-6152.490000	-12104.280000	4581.045000	-1621.530000	-23702.130000	-17578.125000	-1885.905000	-5636.520000	0.000087	0.000141	0.000218	0.000293	0.000676	0.000325	0.000232	0.000111	-9.049180	3.845520	-10.254720	0.630858	0.292602	0.665098	-1.000000	-1.000000	-1.000000	-1.000000	-1.000000	-1.000000	-1.000000	84.482759	0.000000	-1.000000	-1.000000	719935.000000	1772895153.933792
-6152.490000	-12104.280000	4581.045000	-1621.530000	-23702.130000	-17578.125000	-1885.905000	-5636.520000	-0.000047	0.000052	0.000024	0.000117	0.000354	0.000094	0.000080	-0.000037	-9.049180	3.845520	-10.254720	0.630858	0.292602	0.665098	-1.000000	-1.000000	-1.000000	-1.000000	-1.000000	-1.000000	-1.000000	84.482759	0.000000	-1.000000	-1.000000	719936.000000	1772895153.933794
-6152.490000	-12104.280000	4581.045000	-1621.530000	-23702.130000	-17578.125000	-1885.905000	-5636.520000	-0.000124	-0.000038	-0.000149	-0.000087	-0.000071	-0.000141	-0.000065	-0.000127	-9.049180	3.845520	-10.254720	0.630858	0.292602	0.665098	-1.000000	-1.000000	-1.000000	-1.000000	-1.000000	-1.000000	-1.000000	84.482759	0.000000	-1.000000	-1.000000	719937.000000	1772895153.933797
-6152.490000	-12104.280000	4581.045000	-1621.530000	-23702.130000	-17578.125000	-1885.905000	-5636.520000	-0.000113	-0.000079	-0.000210	-0.000203	-0.000353	-0.000255	-0.000124	-0.000122	-9.049180	3.845520	-10.254720	0.630858	0.292602	0.665098	-1.000000	-1.000000	-1.000000	-1.000000	-1.000000	-1.000000	-1.000000	84.482759	0.000000	-1.000000	-1.000000	719938.000000	1772895153.933799
-6152.490000	-12104.280000	4581.045000	-1621.530000	-23702.130000	-17578.125000	-1885.905000	-5636.520000	-0.000036	-0.000063	-0.000155	-0.000197	-0.000393	-0.000219	-0.000089	-0.000041	-9.049180	3.845520	-10.254720	0.630858	0.292602	0.665098	-1.000000	-1.000000	-1.000000	-1.000000	-1.000000	-1.000000	-1.000000	84.482759	0.000000	-1.000000	-1.000000	719939.000000	1772895153.933801
-6152.490000	-12104.280000	4581.045000	-1621.530000	-23702.130000	-17578.125000	-1885.905000	-5636.520000	0.000061	-0.000002	-0.000021	-0.000081	-0.000188	-0.000064	0.000015	0.000065	-9.049180	3.845520	-10.254720	0.630858	0.292602	0.665098	-1.000000	-1.000000	-1.000000	-1.000000	-1.000000	-1.000000	-1.000000	84.482759	0.000000	-1.000000	-1.000000	719940.000000	1772895153.933804
-6152.490000	-12104.280000	4581.045000	-1621.530000	-23702.130000	-17578.125000	-1885.905000	-5636.520000	0.000123	0.000060	0.000104	0.000058	0.000097	0.000102	0.000117	0.000137	-9.049180	3.845520	-10.254720	0.630858	0.292602	0.665098	-1.000000	-1.000000	-1.000000	-1.000000	-1.000000	-1.000000	-1.000000	84.482759	0.000000	-1.000000	-1.000000	719941.000000	1772895153.933806
-6152.490000	-12104.280000	4581.045000	-1621.530000	-23702.130000	-17578.125000	-1885.905000	-5636.520000	0.000129	0.000098	0.000168	0.000160	0.000331	0.000207	0.000175	0.000147	-9.049180	3.845520	-10.254720	0.630858	0.292602	0.665098	-1.000000	-1.000000	-1.000000	-1.000000	-1.000000	-1.000000	-1.000000	84.482759	0.000000	-1.000000	-1.000000	719942.000000	1772895153.933808
-6152.490000	-12104.280000	4581.045000	-1621.530000	-23702.130000	-17578.125000	-1885.905000	-5636.520000	0.000079	0.000092	0.000139	0.000167	0.000381	0.000195	0.000158	0.000096	-9.049180	3.845520	-10.254720	0.630858	0.292602	0.665098	-1.000000	-1.000000	-1.000000	-1.000000	-1.000000	-1.000000	-1.000000	84.482759	0.000000	-1.000000	-1.000000	719943.000000	1772895153.933810
-6152.490000	-12104.280000	4581.045000	-1621.530000	-23702.130000	-17578.125000	-1885.905000	-5636.520000	0.000012	0.000056	0.000055	0.000102	0.000275	0.000103	0.000094	0.000023	-9.049180	3.845520	-10.254720	0.630858	0.292602	0.665098	-1.000000	-1.000000	-1.000000	-1.000000	-1.000000	-1.000000	-1.000000	84.482759	0.000000	-1.000000	-1.000000	719944.000000	1772895153.933813
-6152.490000	-12104.280000	4581.045000	-1621.530000	-23702.130000	-17578.125000	-1885.905000	-5636.520000	-0.000040	0.000007	-0.000041	-0.000002	0.000067	-0.000023	0.000015	-0.000036	-9.049180	3.845520	-10.254720	0.630858	0.292602	0.665098	-1.000000	-1.000000	-1.000000	-1.000000	-1.000000	-1.000000	-1.000000	84.482759	0.000000	-1.000000	-1.000000	719945.000000	1772895153.933815
-6152.490000	-12104.280000	4581.045000	-1621.530000	-23702.130000	-17578.125000	-1885.905000	-5636.520000	-0.000050	-0.000022	-0.000092	-0.000076	-0.000102	-0.000102	-0.000031	-0.000051	-9.049180	3.845520	-10.254720	0.630858	0.292602	0.665098	-1.000000	-1.000000	-1.000000	-1.000000	-1.000000	-1.000000	-1.000000	84.482759	0.000000	-1.000000	-1.000000	719946.000000	1772895153.933817
-6152.490000	-12104.280000	4581.045000	-1621.530000	-23702.130000	-17578.125000	-1885.905000	-5636.520000	-0.000024	-0.000026	-0.000087	-0.000099	-0.000174	-0.000114	-0.000032	-0.000024	-9.049180	3.845520	-10.254720	0.630858	0.292602	0.665098	-1.000000	-1.000000	-1.000000	-1.000000	-1.000000	-1.000000	-1.000000	84.482759	0.000000	-1.000000	-1.000000	719947.000000	1772895153.933819
-6152.490000	-12104.280000	4581.045000	-1621.530000	-23702.130000	-17578.125000	-1885.905000	-5636.520000	0.000025	-0.000001	-0.000031	-0.000057	-0.000110	-0.000053	0.000010	0.000028	-9.049180	3.845520	-10.254720	0.630858	0.292602	0.665098	-1.000000	-1.000000	-1.000000	-1.000000	-1.000000	-1.000000	-1.000000	84.482759	0.000000	-1.000000	-1.000000	719948.000000	1772895153.933822
-6152.490000	-12104.280000	4581.045000	-1621.530000	-23702.130000	-17578.125000	-1885.905000	-5636.520000	0.000063	0.000030	0.000035	0.000009	0.000020	0.000029	0.000063	0.000071	-9.049180	3.845520	-10.254720	0.630858	0.292602	0.665098	-1.000000	-1.000000	-1.000000	-1.000000	-1.000000	-1.000000	-1.000000	84.482759	0.000000	-1.000000	-1.000000	719949.000000	1772895153.933824
-6152.490000	-12104.280000	4581.045000	-1621.530000	-23702.130000	-17578.125000	-1885.905000	-5636.520000	0.000077	0.000055	0.000081	0.000071	0.000155	0.000097	0.000102	0.000088	-9.049180	3.845520	-10.254720	0.630858	0.292602	0.665098	-1.000000	-1.000000	-1.000000	-1.000000	-1.000000	-1.000000	-1.000000	84.482759	0.000000	-1.000000	-1.000000	719950.000000	1772895153.933826
-6152.490000	-12104.280000	4581.045000	-1621.530000	-23702.130000	-17578.125000	-1885.905000	-5636.520000	0.000060	0.000059	0.000082	0.000091	0.000213	0.000111	0.000107	0.000073	-9.049180	3.845520	-10.254720	0.630858	0.292602	0.665098	-1.000000	-1.000000	-1.000000	-1.000000	-1.000000	-1.000000	-1.000000	84.482759	0.000000	-1.000000	-1.000000	719951.000000	1772895153.933829
-6152.490000	-12104.280000	4581.045000	-1621.530000	-23702.130000	-17578.125000	-1885.905000	-5636.520000	0.000030	0.000047	0.000050	0.000072	0.000189	0.000079	0.000082	0.000039	-9.049180	3.845520	-10.254720	0.630858	0.292602	0.665098	-1.000000	-1.000000	-1.000000	-1.000000	-1.000000	-1.000000	-1.000000	84.482759	0.000000	-1.000000	-1.000000	719952.000000	1772895153.933831
-6152.490000	-12104.280000	4581.045000	-1621.530000	-23702.130000	-17578.125000	-1885.905000	-5636.520000	-0.000001	0.000023	0.000001	0.000024	0.000098	0.000019	0.000044	0.000005	-9.049180	3.845520	-10.254720	0.630858	0.292602	0.665098	-1.000000	-1.000000	-1.000000	-1.000000	-1.000000	-1.000000	-1.000000	84.482759	0.000000	-1.000000	-1.000000	719953.000000	1772895153.933833
-6152.490000	-12104.280000	4581.045000	-1621.530000	-23702.130000	-17578.125000	-1885.905000	-5636.520000	-0.000014	0.000005	-0.000034	-0.000020	0.000003	-0.000030	0.000013	-0.000011	-9.049180	3.845520	-10.254720	0.630858	0.292602	0.665098	-1.000000	-1.000000	-1.000000	-1.000000	-1.000000	-1.000000	-1.000000	84.482759	0.000000	-1.000000	-1.000000	719954.000000	1772895153.933835
-6152.490000	-12104.280000	4581.045000	-1621.530000	-23702.130000	-17578.125000	-1885.905000	-5636.520000	-0.000008	-0.000002	-0.000042	-0.000042	-0.000053	-0.000050	0.000004	-0.000005	-9.049180	3.845520	-10.254720	0.630858	0.292602	0.665098	-1.000000	-1.000000	-1.000000	-1.000000	-1.000000	-1.000000	-1.000000	84.482759	0.000000	-1.000000	-1.000000	719955.000000	1772895153.933838
-6152.490000	-12104.280000	4581.045000	-1621.530000	-23702.130000	-17578.125000	-1885.905000	-5636.520000	0.000013	0.000005	-0.000022	-0.000032	-0.000046	-0.000032	0.000017	0.000017	-9.049180	3.845520	-10.254720	0.630858	0.292602	0.665098	-1.000000	-1.000000	-1.000000	-1.000000	-1.000000	-1.000000	-1.000000	84.482759	0.000000	-1.000000	-1.000000	719956.000000	1772895153.933840
-6152.490000	-12104.280000	4581.045000	-1621.530000	-23702.130000	-17578.125000	-1885.905000	-5636.520000	0.000035	0.000020	0.000011	-0.000002	0.000011	0.000007	0.000043	0.000041	-9.049180	3.845520	-10.254720	0.630858	0.292602	0.665098	-1.000000	-1.000000	-1.000000	-1.000000	-1.000000	-1.000000	-1.000000	84.482759	0.000000	-1.000000	-1.000000	719957.000000	1772895153.933842
-6152.490000	-12104.280000	4581.045000	-1621.530000	-23702.130000	-17578.125000	-1885.905000	-5636.520000	0.000047	0.000034	0.000037	0.000030	0.000077	0.000044	0.000065	0.000055	-9.049180	3.845520	-10.254720	0.630858	0.292602	0.665098	-1.000000	-1.000000	-1.000000	-1.000000	-1.000000	-1.000000	-1.000000	84.482759	0.000000	-1.000000	-1.000000	719958.000000	1772895153.933844
-6152.490000	-12104.280000	4581.045000	-1621.530000	-23702.130000	-17578.125000	-1885.905000	-5636.520000	0.000044	0.000040	0.000048	0.000050	0.000125	0.000063	0.000075	0.000053	-9.049180	3.845520	-10.254720	0.630858	0.292602	0.665098	-1.000000	-1.000000	-1.000000	-1.000000	-1.000000	-1.000000	-1.000000	84.482759	0.000000	-1.000000	-1.000000	719959.000000	1772895153.933846
-6152.490000	-12104.280000	4581.045000	-1621.530000	-23702.130000	-17578.125000	-1885.905000	-5636.520000	0.000030	0.000036	0.000036	0.000046	0.000124	0.000054	0.000066	0.000039	-9.049180	3.845520	-10.254720	0.630858	0.292602	0.665098	-1.000000	-1.000000	-1.000000	-1.000000	-1.000000	-1.000000	-1.000000	84.482759	0.000000	-1.000000	-1.000000	719960.000000	1772895153.933849
-6152.490000	-12104.280000	4581.045000	-1621.530000	-23702.130000	-17578.125000	-1885.905000	-5636.520000	0.000015	0.000027	0.000015	0.000028	0.000093	0.000029	0.000050	0.000021	-9.049180	3.845520	-10.254720	0.630858	0.292602	0.665098	-1.000000	-1.000000	-1.000000	-1.000000	-1.000000	-1.000000	-1.000000	84.482759	0.000000	-1.000000	-1.000000	719961.000000	1772895153.933851
-6152.490000	-12104.280000	4581.045000	-1621.530000	-23702.130000	-17578.125000	-1885.905000	-5636.520000	0.000004	0.000015	-0.000008	0.000002	0.000040	-0.000000	0.000031	0.000009	-9.049180	3.845520	-10.254720	0.630858	0.292602	0.665098	-1.000000	-1.000000	-1.000000	-1.000000	-1.000000	-1.000000	-1.000000	84.482759	0.000000	-1.000000	-1.000000	719962.000000	1772895153.933853
-6152.490000	-12104.280000	4581.045000	-1621.530000	-23702.130000	-17578.125000	-1885.905000	-5636.520000	0.000004	0.000010	-0.000015	-0.000011	0.000007	-0.000014	0.000024	0.000008	-9.049180	3.845520	-10.254720	0.630858	0.292602	0.665098	-1.000000	-1.000000	-1.000000	-1.000000	-1.000000	-1.000000	-1.000000	84.482759	0.000000	-1.000000	-1.000000	719963.000000	1772895153.933855
-6152.490000	-12104.280000	4581.045000	-1621.530000	-23702.130000	-17578.125000	-1885.905000	-5636.520000	0.000012	0.000010	-0.000012	-0.000015	-0.000005	-0.000014	0.000025	0.000016	-9.049180	3.845520	-10.254720	0.630858	0.292602	0.665098	-1.000000	-1.000000	-1.000000	-1.000000	-1.000000	-1.000000	-1.000000	84.482759	0.000000	-1.000000	-1.000000	719964.000000	1772895153.933858
-6152.490000	-12104.280000	4581.045000	-1621.530000	-23702.130000	-17578.125000	-1885.905000	-5636.520000	0.000024	0.000017	0.000004	-0.000000	0.000019	0.000004	0.000037	0.000029	-9.049180	3.845520	-10.254720	0.630858	0.292602	0.665098	-1.000000	-1.000000	-1.000000	-1.000000	-1.000000	-1.000000	-1.000000	84.482759	0.000000	-1.000000	-1.000000	719965.000000	1772895153.933860
-6152.490000	-12104.280000	4581.045000	-1621.530000	-23702.130000	-17578.125000	-1885.905000	-5636.520000	0.000031	0.000024	0.000018	0.000014	0.000047	0.000022	0.000048	0.000037	-9.049180	3.845520	-10.254720	0.630858	0.292602	0.665098	-1.000000	-1.000000	-1.000000	-1.000000	-1.000000	-1.000000	-1.000000	84.482759	0.000000	-1.000000	-1.000000	719966.000000	1772895153.933862
-6152.490000	-12104.280000	4581.045000	-1621.530000	-23702.130000	-17578.125000	-1885.905000	-5636.520000	0.000033	0.000030	0.000028	0.000029	0.000080	0.000037	0.000056	0.000040	-9.049180	3.845520	-10.254720	0.630858	0.292602	0.665098	-1.000000	-1.000000	-1.000000	-1.000000	-1.000000	-1.000000	-1.000000	84.482759	0.000000	-1.000000	-1.000000	719967.000000	1772895153.933865
-6152.490000	-12104.280000	4581.045000	-1621.530000	-23702.130000	-17578.125000	-1885.905000	-5636.520000	0.000027	0.000028	0.000024	0.000029	0.000084	0.000035	0.000054	0.000034	-9.049180	3.845520	-10.254720	0.630858	0.292602	0.665098	-1.000000	-1.000000	-1.000000	-1.000000	-1.000000	-1.000000	-1.000000	84.482759	0.000000	-1.000000	-1.000000	719968.000000	1772895153.933867
-6152.490000	-12104.280000	4581.045000	-1621.530000	-23702.130000	-17578.125000	-1885.905000	-5636.520000	0.000020	0.000025	0.000017	0.000024	0.000078	0.000028	0.000048	0.000026	-9.049180	3.845520	-10.254720	0.630858	0.292602	0.665098	-1.000000	-1.000000	-1.000000	-1.000000	-1.000000	-1.000000	-1.000000	84.482759	0.000000	-1.000000	-1.000000	719969.000000	1772895153.933869
-6152.490000	-12104.280000	4581.045000	-1621.530000	-23702.130000	-17578.125000	-1885.905000	-5636.520000	0.000012	0.000019	0.000004	0.000010	0.000050	0.000011	0.000037	0.000018	-9.049180	3.845520	-10.254720	0.630858	0.292602	0.665098	-1.000000	-1.000000	-1.000000	-1.000000	-1.000000	-1.000000	-1.000000	84.482759	0.000000	-1.000000	-1.000000	719970.000000	1772895153.933872
-6152.490000	-12104.280000	4581.045000	-1621.530000	-23702.130000	-17578.125000	-1885.905000	-5636.520000	0.000011	0.000016	-0.000002	0.000003	0.000033	0.000003	0.000032	0.000016	-9.049180	3.845520	-10.254720	0.630858	0.292602	0.665098	-1.000000	-1.000000	-1.000000	-1.000000	-1.000000	-1.000000	-1.000000	84.482759	0.000000	-1.000000	-1.000000	719971.000000	1772895153.933874
-6152.490000	-12104.280000	4581.045000	-1621.530000	-23702.130000	-17578.125000	-1885.905000	-5636.520000	0.000013	0.000014	-0.000003	-0.000003	0.000019	-0.000002	0.000030	0.000018	-9.049180	3.845520	-10.254720	0.630858	0.292602	0.665098	-1.000000	-1.000000	-1.000000	-1.000000	-1.000000	-1.000000	-1.000000	84.482759	0.000000	-1.000000	-1.000000	719972.000000	1772895153.933876
-6152.490000	-12104.280000	4581.045000	-1621.530000	-23702.130000	-17578.125000	-1885.905000	-5636.520000	0.000019	0.000017	0.000004	0.000003	0.000027	0.000006	0.000035	0.000024	-9.049180	3.845520	-10.254720	0.630858	0.292602	0.665098	-1.000000	-1.000000	-1.000000	-1.000000	-1.000000	-1.000000	-1.000000	84.482759	0.000000	-1.000000	-1.000000	719973.000000	1772895153.933878
-6152.490000	-12104.280000	4581.045000	-1621.530000	-23702.130000	-17578.125000	-1885.905000	-5636.520000	0.000023	0.000020	0.000010	0.000009	0.000039	0.000014	0.000040	0.000028	-9.049180	3.845520	-10.254720	0.630858	0.292602	0.665098	-1.000000	-1.000000	-1.000000	-1.000000	-1.000000	-1.000000	-1.000000	84.482759	0.000000	-1.000000	-1.000000	719974.000000	1772895153.933881
-6152.490000	-12104.280000	4581.045000	-1621.530000	-23702.130000	-17578.125000	-1885.905000	-5636.520000	0.000025	0.000023	0.000017	0.000018	0.000057	0.000024	0.000045	0.000031	-9.049180	3.845520	-10.254720	0.630858	0.292602	0.665098	-1.000000	-1.000000	-1.000000	-1.000000	-1.000000	-1.000000	-1.000000	84.482759	0.000000	-1.000000	-1.000000	719975.000000	1772895153.933883
-6152.490000	-12104.280000	4581.045000	-1621.530000	-23702.130000	-17578.125000	-1885.905000	-5636.520000	0.000023	0.000023	0.000017	0.000019	0.000063	0.000025	0.000046	0.000029	-9.049180	3.845520	-10.254720	0.630858	0.292602	0.665098	-1.000000	-1.000000	-1.000000	-1.000000	-1.000000	-1.000000	-1.000000	84.482759	0.000000	-1.000000	-1.000000	719976.000000	1772895153.933885
-6152.490000	-12104.280000	4581.045000	-1621.530000	-23702.130000	-17578.125000	-1885.905000	-5636.520000	0.000020	0.000022	0.000014	0.000019	0.000062	0.000023	0.000043	0.000026	-9.049180	3.845520	-10.254720	0.630858	0.292602	0.665098	-1.000000	-1.000000	-1.000000	-1.000000	-1.000000	-1.000000	-1.000000	84.482759	0.000000	-1.000000	-1.000000	719977.000000	1772895153.933888
-6152.490000	-12104.280000	4581.045000	-1621.530000	-23702.130000	-17578.125000	-1885.905000	-5636.520000	0.000016	0.000019	0.000008	0.000012	0.000051	0.000015	0.000038	0.000021	-9.049180	3.845520	-10.254720	0.630858	0.292602	0.665098	-1.000000	-1.000000	-1.000000	-1.000000	-1.000000	-1.000000	-1.000000	84.482759	0.000000	-1.000000	-1.000000	719978.000000	1772895153.933890
-6152.490000	-12104.280000	4581.045000	-1621.530000	-23702.130000	-17578.125000	-1885.905000	-5636.520000	0.000014	0.000017	0.000004	0.000008	0.000040	0.000009	0.000034	0.000019	-9.049180	3.845520	-10.254720	0.630858	0.292602	0.665098	-1.000000	-1.000000	-1.000000	-1.000000	-1.000000	-1.000000	-1.000000	84.482759	0.000000	-1.000000	-1.000000	719979.000000	1772895153.933893
-6152.490000	-12104.280000	4581.045000	-1621.530000	-23702.130000	-17578.125000	-1885.905000	-5636.520000	0.000014	0.000016	0.000002	0.000004	0.000032	0.000006	0.000033	0.000019	-9.049180	3.845520	-10.254720	0.630858	0.292602	0.665098	-1.000000	-1.000000	-1.000000	-1.000000	-1.000000	-1.000000	-1.000000	84.482759	0.000000	-1.000000	-1.000000	719980.000000	1772895153.933896
-6152.490000	-12104.280000	4581.045000	-1621.530000	-23702.130000	-17578.125000	-1885.905000	-5636.520000	0.000017	0.000016	0.000004	0.000005	0.000032	0.000008	0.000033	0.000021	-9.049180	3.845520	-10.254720	0.630858	0.292602	0.665098	-1.000000	-1.000000	-1.000000	-1.000000	-1.000000	-1.000000	-1.000000	84.482759	0.000000	-1.000000	-1.000000	719981.000000	1772895153.933898
-6152.490000	-12104.280000	4581.045000	-1621.530000	-23702.130000	-17578.125000	-1885.905000	-5636.520000	0.000019	0.000018	0.000008	0.000008	0.000038	0.000012	0.000036	0.000024	-9.049180	3.845520	-10.254720	0.630858	0.292602	0.665098	-1.000000	-1.000000	-1.000000	-1.000000	-1.000000	-1.000000	-1.000000	84.482759	0.000000	-1.000000	-1.000000	719982.000000	1772895153.933901
-6152.490000	-12104.280000	4581.045000	-1621.530000	-23702.130000	-17578.125000	-1885.905000	-5636.520000	0.000020	0.000019	0.000011	0.000012	0.000044	0.000016	0.000038	0.000026	-9.049180	3.845520	-10.254720	0.630858	0.292602	0.665098	-1.000000	-1.000000	-1.000000	-1.000000	-1.000000	-1.000000	-1.000000	84.482759	0.000000	-1.000000	-1.000000	719983.000000	1772895153.933903
-6152.490000	-12104.280000	4581.045000	-1621.530000	-23702.130000	-17578.125000	-1885.905000	-5636.520000	0.000020	0.000020	0.000013	0.000015	0.000051	0.000019	0.000040	0.000025	-9.049180	3.845520	-10.254720	0.630858	0.292602	0.665098	-1.000000	-1.000000	-1.000000	-1.000000	-1.000000	-1.000000	-1.000000	84.482759	0.000000	-1.000000	-1.000000	719984.000000	1772895153.933906
-6152.490000	-12104.280000	4581.045000	-1621.530000	-23702.130000	-17578.125000	-1885.905000	-5636.520000	0.000018	0.000020	0.000011	0.000014	0.000050	0.000017	0.000038	0.000024	-9.049180	3.845520	-10.254720	0.630858	0.292602	0.665098	-1.000000	-1.000000	-1.000000	-1.000000	-1.000000	-1.000000	-1.000000	84.482759	0.000000	-1.000000	-1.000000	719985.000000	1772895153.933908
-6152.490000	-12104.280000	4581.045000	-1621.530000	-23702.130000	-17578.125000	-1885.905000	-5636.520000	0.000017	0.000019	0.000009	0.000013	0.000048	0.000016	0.000037	0.000022	-9.049180	3.845520	-10.254720	0.630858	0.292602	0.665098	-1.000000	-1.000000	-1.000000	-1.000000	-1.000000	-1.000000	-1.000000	84.482759	0.000000	-1.000000	-1.000000	719986.000000	1772895153.933911
-6152.490000	-12104.280000	4581.045000	-1621.530000	-23702.130000	-17578.125000	-1885.905000	-5636.520000	0.000015	0.000017	0.000006	0.000009	0.000040	0.000011	0.000034	0.000020	-9.049180	3.845520	-10.254720	0.630858	0.292602	0.665098	-1.000000	-1.000000	-1.000000	-1.000000	-1.000000	-1.000000	-1.000000	84.482759	0.000000	-1.000000	-1.000000	719987.000000	1772895153.933914
-6152.490000	-12104.280000	4581.045000	-1621.530000	-23702.130000	-17578.125000	-1885.905000	-5636.520000	0.000015	0.000017	0.000006	0.000008	0.000038	0.000010	0.000033	0.000019	-9.049180	3.845520	-10.254720	0.630858	0.292602	0.665098	-1.000000	-1.000000	-1.000000	-1.000000	-1.000000	-1.000000	-1.000000	84.482759	0.000000	-1.000000	-1.000000	719988.000000	1772895153.933916
-6152.490000	-12104.280000	4581.045000	-1621.530000	-23702.130000	-17578.125000	-1885.905000	-5636.520000	0.000015	0.000016	0.000005	0.000006	0.000033	0.000009	0.000032	0.000020	-9.049180	3.845520	-10.254720	0.630858	0.292602	0.665098	-1.000000	-1.000000	-1.000000	-1.000000	-1.000000	-1.000000	-1.000000	84.482759	0.000000	-1.000000	-1.000000	719989.000000	1772895153.933918
-6152.490000	-12104.280000	4581.045000	-1621.530000	-23702.130000	-17578.125000	-1885.905000	-5636.520000	0.000017	0.000017	0.000007	0.000009	0.000038	0.000012	0.000034	0.000021	-9.049180	3.845520	-10.254720	0.630858	0.292602	0.665098	-1.000000	-1.000000	-1.000000	-1.000000	-1.000000	-1.000000	-1.000000	84.482759	0.000000	-1.000000	-1.000000	719990.000000	1772895153.933921
-6152.490000	-12104.280000	4581.045000	-1621.530000	-23702.130000	-17578.125000	-1885.905000	-5636.520000	0.000017	0.000017	0.000008	0.000009	0.000038	0.000012	0.000034	0.000022	-9.049180	3.845520	-10.254720	0.630858	0.292602	0.665098	-1.000000	-1.000000	-1.000000	-1.000000	-1.000000	-1.000000	-1.000000	84.482759	0.000000	-1.000000	-1.000000	719991.000000	1772895153.933923
-6152.490000	-12104.280000	4581.045000	-1621.530000	-23702.130000	-17578.125000	-1885.905000	-5636.520000	0.000018	0.000018	0.000010	0.000012	0.000045	0.000016	0.000036	0.000023	-9.049180	3.845520	-10.254720	0.630858	0.292602	0.665098	-1.000000	-1.000000	-1.000000	-1.000000	-1.000000	-1.000000	-1.000000	84.482759	0.000000	-1.000000	-1.000000	719992.000000	1772895153.933926
-6152.490000	-12104.280000	4581.045000	-1621.530000	-23702.130000	-17578.125000	-1885.905000	-5636.520000	0.000017	0.000017	0.000009	0.000011	0.000042	0.000014	0.000035	0.000022	-9.049180	3.845520	-10.254720	0.630858	0.292602	0.665098	-1.000000	-1.000000	-1.000000	-1.000000	-1.000000	-1.000000	-1.000000	84.482759	0.000000	-1.000000	-1.000000	719993.000000	1772895153.933928
-6152.490000	-12104.280000	4581.045000	-1621.530000	-23702.130000	-17578.125000	-1885.905000	-5636.520000	0.000016	0.000018	0.000009	0.000012	0.000044	0.000015	0.000035	0.000021	-9.049180	3.845520	-10.254720	0.630858	0.292602	0.665098	-1.000000	-1.000000	-1.000000	-1.000000	-1.000000	-1.000000	-1.000000	84.482759	0.000000	-1.000000	-1.000000	719994.000000	1772895153.933930
-6152.490000	-12104.280000	4581.045000	-1621.530000	-23702.130000	-17578.125000	-1885.905000	-5636.520000	0.000015	0.000016	0.000006	0.000009	0.000038	0.000011	0.000032	0.000019	-9.049180	3.845520	-10.254720	0.630858	0.292602	0.665098	-1.000000	-1.000000	-1.000000	-1.000000	-1.000000	-1.000000	-1.000000	84.482759	0.000000	-1.000000	-1.000000	719995.000000	1772895153.933933
-6152.490000	-12104.280000	4581.045000	-1621.530000	-23702.130000	-17578.125000	-1885.905000	-5636.520000	0.000015	0.000016	0.000007	0.000009	0.000038	0.000011	0.000032	0.000019	-9.049180	3.845520	-10.254720	0.630858	0.292602	0.665098	-1.000000	-1.000000	-1.000000	-1.000000	-1.000000	-1.000000	-1.000000	84.482759	0.000000	-1.000000	-1.000000	719996.000000	1772895153.933935
-6152.490000	-12104.280000	4581.045000	-1621.530000	-23702.130000	-17578.125000	-1885.905000	-5636.520000	0.000015	0.000015	0.000005	0.000007	0.000034	0.000009	0.000031	0.000019	-9.049180	3.845520	-10.254720	0.630858	0.292602	0.665098	-1.000000	-1.000000	-1.000000	-1.000000	-1.000000	-1.000000	-1.000000	84.482759	0.000000	-1.000000	-1.000000	719997.000000	1772895153.933937
-6152.490000	-12104.280000	4581.045000	-1621.530000	-23702.130000	-17578.125000	-1885.905000	-5636.520000	0.000016	0.000016	0.000007	0.000009	0.000037	0.000011	0.000032	0.000020	-9.049180	3.845520	-10.254720	0.630858	0.292602	0.665098	-1.000000	-1.000000	-1.000000	-1.000000	-1.000000	-1.000000	-1.000000	84.482759	0.000000	-1.000000	-1.000000	719998.000000	1772895153.933940
-6152.490000	-12104.280000	4581.045000	-1621.530000	-23702.130000	-17578.125000	-1885.905000	-5636.520000	0.000015	0.000016	0.000007	0.000008	0.000036	0.000011	0.000032	0.000020	-9.049180	3.845520	-10.254720	0.630858	0.292602	0.665098	-1.000000	-1.000000	-1.000000	-1.000000	-1.000000	-1.000000	-1.000000	84.482759	0.000000	-1.000000	-1.000000	719999.000000	1772895153.933942
-6152.490000	-12104.280000	4581.045000	-1621.530000	-23702.130000	-17578.125000	-1885.905000	-5636.520000	0.000016	0.000016	0.000008	0.000010	0.000039	0.000013	0.000032	0.000020	-9.049180	3.845520	-10.254720	0.630858	0.292602	0.665098	-1.000000	-1.000000	-1.000000	-1.000000	-1.000000	-1.000000	-1.000000	84.482759	0.000000	-1.000000	-1.000000	720000.000000	1772895153.933944
-6152.490000	-12104.280000	4581.045000	-1621.530000	-23702.130000	-17578.125000	-1885.905000	-5636.520000	0.000015	0.000016	0.000008	0.000009	0.000038	0.000012	0.000032	0.000020	-9.049180	3.845520	-10.254720	0.630858	0.292602	0.665098	-1.000000	-1.000000	-1.000000	-1.000000	-1.000000	-1.000000	-1.000000	84.482759	0.000000	-1.000000	-1.000000	720001.000000	1772895153.933946
-6152.490000	-12104.280000	4581.045000	-1621.530000	-23702.130000	-17578.125000	-1885.905000	-5636.520000	0.000015	0.000016	0.000008	0.000010	0.000039	0.000013	0.000032	0.000020	-9.049180	3.845520	-10.254720	0.630858	0.292602	0.665098	-1.000000	-1.000000	-1.000000	-1.000000	-1.000000	-1.000000	-1.000000	84.482759	0.000000	-1.000000	-1.000000	720002.000000	1772895153.933949
-6152.490000	-12104.280000	4581.045000	-1621.530000	-23702.130000	-17578.125000	-1885.905000	-5636.520000	0.000014	0.000015	0.000007	0.000009	0.000037	0.000011	0.000031	0.000019	-9.049180	3.845520	-10.254720	0.630858	0.292602	0.665098	-1.000000	-1.000000	-1.000000	-1.000000	-1.000000	-1.000000	-1.000000	84.482759	0.000000	-1.000000	-1.000000	720003.000000	1772895153.933951
-6152.490000	-12104.280000	4581.045000	-1621.530000	-23702.130000	-17578.125000	-1885.905000	-5636.520000	0.000014	0.000015	0.000006	0.000008	0.000036	0.000011	0.000030	0.000018	-9.049180	3.845520	-10.254720	0.630858	0.292602	0.665098	-1.000000	-1.000000	-1.000000	-1.000000	-1.000000	-1.000000	-1.000000	84.482759	0.000000	-1.000000	-1.000000	720004.000000	1772895153.933953
-6152.490000	-12104.280000	4581.045000	-1621.530000	-23702.130000	-17578.125000	-1885.905000	-5636.520000	0.000014	0.000015	0.000006	0.000008	0.000034	0.000010	0.000030	0.000018	-9.049180	3.845520	-10.254720	0.630858	0.292602	0.665098	-1.000000	-1.000000	-1.000000	-1.000000	-1.000000	-1.000000	-1.000000	84.482759	0.000000	-1.000000	-1.000000	720005.000000	1772895153.933956
-6152.490000	-12104.280000	4581.045000	-1621.530000	-23702.130000	-17578.125000	-1885.905000	-5636.520000	0.000014	0.000015	0.000006	0.000008	0.000034	0.000010	0.000029	0.000018	-9.049180	3.845520	-10.254720	0.630858	0.292602	0.665098	-1.000000	-1.000000	-1.000000	-1.000000	-1.000000	-1.000000	-1.000000	84.482759	0.000000	-1.000000	-1.000000	720006.000000	1772895153.933958
-6152.490000	-12104.280000	4581.045000	-1621.530000	-23702.130000	-17578.125000	-1885.905000	-5636.520000	0.000014	0.000015	0.000007	0.000008	0.000035	0.000011	0.000030	0.000018	-9.049180	3.845520	-10.254720	0.630858	0.292602	0.665098	-1.000000	-1.000000	-1.000000	-1.000000	-1.000000	-1.000000	-1.000000	84.482759	0.000000	-1.000000	-1.000000	720007.000000	1772895153.933960
-6152.490000	-12104.280000	4581.045000	-1621.530000	-23702.130000	-17578.125000	-1885.905000	-5636.520000	0.000014	0.000015	0.000007	0.000008	0.000035	0.000011	0.000029	0.000018	-9.049180	3.845520	-10.254720	0.630858	0.292602	0.665098	-1.000000	-1.000000	-1.000000	-1.000000	-1.000000	-1.000000	-1.000000	84.482759	0.000000	-1.000000	-1.000000	720008.000000	1772895153.933962
-6152.490000	-12104.280000	4581.045000	-1621.530000	-23702.130000	-17578.125000	-1885.905000	-5636.520000	0.000014	0.000015	0.000007	0.000009	0.000036	0.000012	0.000030	0.000018	-9.049180	3.845520	-10.254720	0.630858	0.292602	0.665098	-1.000000	-1.000000	-1.000000	-1.000000	-1.000000	-1.000000	-1.000000	84.482759	0.000000	-1.000000	-1.000000	720009.000000	1772895153.933964
-6152.490000	-12104.280000	4581.045000	-1621.530000	-23702.130000	-17578.125000	-1885.905000	-5636.520000	0.000014	0.000015	0.000007	0.000008	0.000035	0.000011	0.000029	0.000018	-9.049180	3.845520	-10.254720	0.630858	0.292602	0.665098	-1.000000	-1.000000	-1.000000	-1.000000	-1.000000	-1.000000	-1.000000	84.482759	0.000000	-1.000000	-1.000000	720010.000000	1772895153.933967
-6152.490000	-12104.280000	4581.045000	-1621.530000	-23702.130000	-17578.125000	-1885.905000	-5636.520000	0.000014	0.000015	0.000007	0.000009	0.000036	0.000011	0.000029	0.000018	-9.049180	3.845520	-10.254720	0.630858	0.292602	0.665098	-1.000000	-1.000000	-1.000000	-1.000000	-1.000000	-1.000000	-1.000000	84.482759	0.000000	-1.000000	-1.000000	720011.000000	1772895153.933969
-6152.490000	-12104.280000	4581.045000	-1621.530000	-23702.130000	-17578.125000	-1885.905000	-5636.520000	0.000013	0.000014	0.000006	0.000008	0.000033	0.000010	0.000028	0.000017	-9.049180	3.845520	-10.254720	0.630858	0.292602	0.665098	-1.000000	-1.000000	-1.000000	-1.000000	-1.000000	-1.000000	-1.000000	84.482759	0.000000	-1.000000	-1.000000	720012.000000	1772895153.933971
-6152.490000	-12104.280000	4581.045000	-1621.530000	-23702.130000	-17578.125000	-1885.905000	-5636.520000	0.000013	0.000014	0.000006	0.000008	0.000034	0.000010	0.000028	0.000017	-9.049180	3.845520	-10.254720	0.630858	0.292602	0.665098	-1.000000	-1.000000	-1.000000	-1.000000	-1.000000	-1.000000	-1.000000	84.482759	0.000000	-1.000000	-1.000000	720013.000000	1772895153.933973
-6152.490000	-12104.280000	4581.045000	-1621.530000	-23702.130000	-17578.125000	-1885.905000	-5636.520000	0.000013	0.000014	0.000006	0.000007	0.000031	0.000009	0.000027	0.000017	-9.049180	3.845520	-10.254720	0.630858	0.292602	0.665098	-1.000000	-1.000000	-1.000000	-1.000000	-1.000000	-1.000000	-1.000000	84.482759	0.000000	-1.000000	-1.000000	720014.000000	1772895153.933976
-6152.490000	-12104.280000	4581.045000	-1621.530000	-23702.130000	-17578.125000	-1885.905000	-5636.520000	0.000014	0.000014	0.000007	0.000008	0.000033	0.000011	0.000028	0.000017	-9.049180	3.845520	-10.254720	0.630858	0.292602	0.665098	-1.000000	-1.000000	-1.000000	-1.000000	-1.000000	-1.000000	-1.000000	84.482759	0.000000	-1.000000	-1.000000	720015.000000	1772895153.933978
-6152.490000	-12104.280000	4581.045000	-1621.530000	-23702.130000	-17578.125000	-1885.905000	-5636.520000	0.000013	0.000014	0.000006	0.000007	0.000031	0.000010	0.000027	0.000017	-9.049180	3.845520	-10.254720	0.630858	0.292602	0.665098	-1.000000	-1.000000	-1.000000	-1.000000	-1.000000	-1.000000	-1.000000	84.482759	0.000000	-1.000000	-1.000000	720016.000000	1772895153.933980
-6152.490000	-12104.280000	4581.045000	-1621.530000	-23702.130000	-17578.125000	-1885.905000	-5636.520000	0.000013	0.000014	0.000007	0.000008	0.000034	0.000011	0.000028	0.000017	-9.049180	3.845520	-10.254720	0.630858	0.292602	0.665098	-1.000000	-1.000000	-1.000000	-1.000000	-1.000000	-1.000000	-1.000000	84.482759	0.000000	-1.000000	-1.000000	720017.000000	1772895153.933982
-6152.490000	-12104.280000	4581.045000	-1621.530000	-23702.130000	-17578.125000	-1885.905000	-5636.520000	0.000013	0.000013	0.000006	0.000007	0.000031	0.000010	0.000027	0.000017	-9.049180	3.845520	-10.254720	0.630858	0.292602	0.665098	-1.000000	-1.000000	-1.000000	-1.000000	-1.000000	-1.000000	-1.000000	84.482759	0.000000	-1.000000	-1.000000	720018.000000	1772895153.933985
-6152.490000	-12104.280000	4581.045000	-1621.530000	-23702.130000	-17578.125000	-1885.905000	-5636.520000	0.000013	0.000014	0.000007	0.000008	0.000033	0.000011	0.000027	0.000017	-9.049180	3.845520	-10.254720	0.630858	0.292602	0.665098	-1.000000	-1.000000	-1.000000	-1.000000	-1.000000	-1.000000	-1.000000	84.482759	0.000000	-1.000000	-1.000000	720019.000000	1772895153.933987
-6152.490000	-12104.280000	4581.045000	-1621.530000	-23702.130000	-17578.125000	-1885.905000	-5636.520000	0.000012	0.000013	0.000006	0.000007	0.000031	0.000009	0.000026	0.000016	-9.049180	3.845520	-10.254720	0.630858	0.292602	0.665098	-1.000000	-1.000000	-1.000000	-1.000000	-1.000000	-1.000000	-1.000000	84.482759	0.000000	-1.000000	-1.000000	720020.000000	1772895153.933989
-6152.490000	-12104.280000	4581.045000	-1621.530000	-23702.130000	-17578.125000	-1885.905000	-5636.520000	0.000013	0.000013	0.000006	0.000008	0.000032	0.000010	0.000026	0.000016	-9.049180	3.845520	-10.254720	0.630858	0.292602	0.665098	-1.000000	-1.000000	-1.000000	-1.000000	-1.000000	-1.000000	-1.000000	84.482759	0.000000	-1.000000	-1.000000	720021.000000	1772895153.933991
-6152.490000	-12104.280000	4581.045000	-1621.530000	-23702.130000	-17578.125000	-1885.905000	-5636.520000	0.000012	0.000013	0.000005	0.000007	0.000030	0.000009	0.000026	0.000016	-9.049180	3.845520	-10.254720	0.630858	0.292602	0.665098	-1.000000	-1.000000	-1.000000	-1.000000	-1.000000	-1.000000	-1.000000	84.482759	0.000000	-1.000000	-1.000000	720022.000000	1772895153.933994
-6152.490000	-12104.280000	4581.045000	-1621.530000	-23702.130000	-17578.125000	-1885.905000	-5636.520000	0.000013	0.000013	0.000006	0.000008	0.000031	0.000010	0.000026	0.000016	-9.049180	3.845520	-10.254720	0.630858	0.292602	0.665098	-1.000000	-1.000000	-1.000000	-1.000000	-1.000000	-1.000000	-1.000000	84.482759	0.000000	-1.000000	-1.000000	720023.000000	1772895153.933996
-6152.490000	-12104.280000	4581.045000	-1621.530000	-23702.130000	-17578.125000	-1885.905000	-5636.520000	0.000012	0.000013	0.000006	0.000007	0.000030	0.000009	0.000025	0.000016	-9.049180	3.845520	-10.254720	0.630858	0.292602	0.665098	-1.000000	-1.000000	-1.000000	-1.000000	-1.000000	-1.000000	-1.000000	84.482759	0.000000	-1.000000	-1.000000	720024.000000	1772895153.933998
-6152.490000	-12104.280000	4581.045000	-1621.530000	-23702.130000	-17578.125000	-1885.905000	-5636.520000	0.000012	0.000013	0.000006	0.000008	0.000031	0.000010	0.000026	0.000016	-9.049180	3.845520	-10.254720	0.630858	0.292602	0.665098	-1.000000	-1.000000	-1.000000	-1.000000	-1.000000	-1.000000	-1.000000	84.482759	0.000000	-1.000000	-1.000000	720025.000000	1772895153.934000
-6152.490000	-12104.280000	4581.045000	-1621.530000	-23702.130000	-17578.125000	-1885.905000	-5636.520000	0.000012	0.000013	0.000006	0.000007	0.000030	0.000009	0.000025	0.000015	-9.049180	3.845520	-10.254720	0.630858	0.292602	0.665098	-1.000000	-1.000000	-1.000000	-1.000000	-1.000000	-1.000000	-1.000000	84.482759	0.000000	-1.000000	-1.000000	720026.000000	1772895153.934003
-6152.490000	-12104.280000	4581.045000	-1621.530000	-23702.130000	-17578.125000	-1885.905000	-5636.520000	0.000012	0.000013	0.000006	0.000007	0.000030	0.000010	0.000025	0.000015	-9.049180	3.845520	-10.254720	0.630858	0.292602	0.665098	-1.000000	-1.000000	-1.000000	-1.000000	-1.000000	-1.000000	-1.000000	84.482759	0.000000	-1.000000	-1.000000	720027.000000	1772895153.934005
-6152.490000	-12104.280000	4581.045000	-1621.530000	-23702.130000	-17578.125000	-1885.905000	-5636.520000	0.000012	0.000012	0.000006	0.000007	0.000029	0.000009	0.000025	0.000015	-9.049180	3.845520	-10.254720	0.630858	0.292602	0.665098	-1.000000	-1.000000	-1.000000	-1.000000	-1.000000	-1.000000	-1.000000	84.482759	0.000000	-1.000000	-1.000000	720028.000000	1772895153.934007
-6152.490000	-12104.280000	4581.045000	-1621.530000	-23702.130000	-17578.125000	-1885.905000	-5636.520000	0.000012	0.000012	0.000006	0.000007	0.000029	0.000009	0.000024	0.000015	-9.049180	3.845520	-10.254720	0.630858	0.292602	0.665098	-1.000000	-1.000000	-1.000000	-1.000000	-1.000000	-1.000000	-1.000000	84.482759	0.000000	-1.000000	-1.000000	720029.000000	1772895153.934010
-6152.490000	-12104.280000	4581.045000	-1621.530000	-23702.130000	-17578.125000	-1885.905000	-5636.520000	0.000012	0.000012	0.000005	0.000007	0.000029	0.000009	0.000024	0.000015	-9.049180	3.845520	-10.254720	0.630858	0.292602	0.665098	-1.000000	-1.000000	-1.000000	-1.000000	-1.000000	-1.000000	-1.000000	84.482759	0.000000	-1.000000	-1.000000	720030.000000	1772895153.934012
-6152.490000	-12104.280000	4581.045000	-1621.530000	-23702.130000	-17578.125000	-1885.905000	-5636.520000	0.000012	0.000012	0.000005	0.000007	0.000028	0.000009	0.000024	0.000015	-9.049180	3.845520	-10.254720	0.630858	0.292602	0.665098	-1.000000	-1.000000	-1.000000	-1.000000	-1.000000	-1.000000	-1.000000	84.482759	0.000000	-1.000000	-1.000000	720031.000000	1772895153.934014
-6152.490000	-12104.280000	4581.045000	-1621.530000	-23702.130000	-17578.125000	-1885.905000	-5636.520000	0.000011	0.000012	0.000005	0.000007	0.000028	0.000009	0.000024	0.000015	-9.049180	3.845520	-10.254720	0.630858	0.292602	0.665098	-1.000000	-1.000000	-1.000000	-1.000000	-1.000000	-1.000000	-1.000000	84.482759	0.000000	-1.000000	-1.000000	720032.000000	1772895153.934016
-6152.490000	-12104.280000	4581.045000	-1621.530000	-23702.130000	-17578.125000	-1885.905000	-5636.520000	0.000011	0.000012	0.000005	0.000007	0.000028	0.000009	0.000024	0.000015	-9.049180	3.845520	-10.254720	0.630858	0.292602	0.665098	-1.000000	-1.000000	-1.000000	-1.000000	-1.000000	-1.000000	-1.000000	84.482759	0.000000	-1.000000	-1.000000	720033.000000	1772895153.934018
-6152.490000	-12104.280000	4581.045000	-1621.530000	-23702.130000	-17578.125000	-1885.905000	-5636.520000	0.000011	0.000012	0.000006	0.000007	0.000028	0.000009	0.000024	0.000014	-9.049180	3.845520	-10.254720	0.630858	0.292602	0.665098	-1.000000	-1.000000	-1.000000	-1.000000	-1.000000	-1.000000	-1.000000	84.482759	0.000000	-1.000000	-1.000000	720034.000000	1772895153.934021
-6152.490000	-12104.280000	4581.045000	-1621.530000	-23702.130000	-17578.125000	-1885.905000	-5636.520000	0.000011	0.000012	0.000005	0.000006	0.000027	0.000008	0.000023	0.000014	-9.049180	3.845520	-10.254720	0.630858	0.292602	0.665098	-1.000000	-1.000000	-1.000000	-1.000000	-1.000000	-1.000000	-1.000000	84.482759	0.000000	-1.000000	-1.000000	720035.000000	1772895153.934023
-6152.490000	-12104.280000	4581.045000	-1621.530000	-23702.130000	-17578.125000	-1885.905000	-5636.520000	0.000011	0.000012	0.000005	0.000007	0.000028	0.000009	0.000023	0.000014	-9.049180	3.845520	-10.254720	0.630858	0.292602	0.665098	-1.000000	-1.000000	-1.000000	-1.000000	-1.000000	-1.000000	-1.000000	84.482759	0.000000	-1.000000	-1.000000	720036.000000	1772895153.934025
-6152.490000	-12104.280000	4581.045000	-1621.530000	-23702.130000	-17578.125000	-1885.905000	-5636.520000	0.000011	0.000011	0.000005	0.000006	0.000027	0.000008	0.000023	0.000014	-9.049180	3.845520	-10.254720	0.630858	0.292602	0.665098	-1.000000	-1.000000	-1.000000	-1.000000	-1.000000	-1.000000	-1.000000	84.482759	0.000000	-1.000000	-1.000000	720037.000000	1772895153.934027
-6152.490000	-12104.280000	4581.045000	-1621.530000	-23702.130000	-17578.125000	-1885.905000	-5636.520000	0.000011	0.000012	0.000005	0.000007	0.000028	0.000009	0.000023	0.000014	-9.049180	3.845520	-10.254720	0.630858	0.292602	0.665098	-1.000000	-1.000000	-1.000000	-1.000000	-1.000000	-1.000000	-1.000000	84.482759	0.000000	-1.000000	-1.000000	720038.000000	1772895153.934030
-6152.490000	-12104.280000	4581.045000	-1621.530000	-23702.130000	-17578.125000	-1885.905000	-5636.520000	0.000011	0.000011	0.000005	0.000006	0.000026	0.000008	0.000022	0.000014	-9.049180	3.845520	-10.254720	0.630858	0.292602	0.665098	-1.000000	-1.000000	-1.000000	-1.000000	-1.000000	-1.000000	-1.000000	84.482759	0.000000	-1.000000	-1.000000	720039.000000	1772895153.934032
-6152.490000	-12104.280000	4581.045000	-1621.530000	-23702.130000	-17578.125000	-1885.905000	-5636.520000	0.000011	0.000011	0.000005	0.000007	0.000027	0.000009	0.000023	0.000014	-9.049180	3.845520	-10.254720	0.630858	0.292602	0.665098	-1.000000	-1.000000	-1.000000	-1.000000	-1.000000	-1.000000	-1.000000	84.482759	0.000000	-1.000000	-1.000000	720040.000000	1772895153.934035
-6152.490000	-12104.280000	4581.045000	-1621.530000	-23702.130000	-17578.125000	-1885.905000	-5636.520000	0.000010	0.000011	0.000005	0.000006	0.000026	0.000008	0.000022	0.000013	-9.049180	3.845520	-10.254720	0.630858	0.292602	0.665098	-1.000000	-1.000000	-1.000000	-1.000000	-1.000000	-1.000000	-1.000000	84.482759	0.000000	-1.000000	-1.000000	720041.000000	1772895153.934037
-6152.490000	-12104.280000	4581.045000	-1621.530000	-23702.130000	-17578.125000	-1885.905000	-5636.520000	0.000011	0.000011	0.000005	0.000007	0.000027	0.000008	0.000022	0.000013	-9.049180	3.845520	-10.254720	0.630858	0.292602	0.665098	-1.000000	-1.000000	-1.000000	-1.000000	-1.000000	-1.000000	-1.000000	84.482759	0.000000	-1.000000	-1.000000	720042.000000	1772895153.934039
-6152.490000	-12104.280000	4581.045000	-1621.530000	-23702.130000	-17578.125000	-1885.905000	-5636.520000	0.000010	0.000011	0.000005	0.000006	0.000025	0.000008	0.000021	0.000013	-9.049180	3.845520	-10.254720	0.630858	0.292602	0.665098	-1.000000	-1.000000	-1.000000	-1.000000	-1.000000	-1.000000	-1.000000	84.482759	0.000000	-1.000000	-1.000000	720043.000000	1772895153.934042
-6152.490000	-12104.280000	4581.045000	-1621.530000	-23702.130000	-17578.125000	-1885.905000	-5636.520000	0.000010	0.000011	0.000005	0.000007	0.000026	0.000008	0.000022	0.000013	-9.049180	3.845520	-10.254720	0.630858	0.292602	0.665098	-1.000000	-1.000000	-1.000000	-1.000000	-1.000000	-1.000000	-1.000000	84.482759	0.000000	-1.000000	-1.000000	720044.000000	1772895153.934044
-6152.490000	-12104.280000	4581.045000	-1621.530000	-23702.130000	-17578.125000	-1885.905000	-5636.520000	0.000010	0.000011	0.000005	0.000006	0.000025	0.000007	0.000021	0.000013	-9.049180	3.845520	-10.254720	0.630858	0.292602	0.665098	-1.000000	-1.000000	-1.000000	-1.000000	-1.000000	-1.000000	-1.000000	84.482759	0.000000	-1.000000	-1.000000	720045.000000	1772895153.934046
-6152.490000	-12104.280000	4581.045000	-1621.530000	-23702.130000	-17578.125000	-1885.905000	-5636.520000	0.000010	0.000011	0.000005	0.000006	0.000026	0.000008	0.000021	0.000013	-9.049180	3.845520	-10.254720	0.630858	0.292602	0.665098	-1.000000	-1.000000	-1.000000	-1.000000	-1.000000	-1.000000	-1.000000	84.482759	0.000000	-1.000000	-1.000000	720046.000000	1772895153.934048
-6152.490000	-12104.280000	4581.045000	-1621.530000	-23702.130000	-17578.125000	-1885.905000	-5636.520000	0.000010	0.000010	0.000004	0.000006	0.000024	0.000007	0.000021	0.000013	-9.049180	3.845520	-10.254720	0.630858	0.292602	0.665098	-1.000000	-1.000000	-1.000000	-1.000000	-1.000000	-1.000000	-1.000000	84.482759	0.000000	-1.000000	-1.000000	720047.000000	1772895153.934050
-6152.490000	-12104.280000	4581.045000	-1621.530000	-23702.130000	-17578.125000	-1885.905000	-5636.520000	0.000010	0.000011	0.000005	0.000006	0.000025	0.000008	0.000021	0.000013	-9.049180	3.845520	-10.254720	0.630858	0.292602	0.665098	-1.000000	-1.000000	-1.000000	-1.000000	-1.000000	-1.000000	-1.000000	84.482759	0.000000	-1.000000	-1.000000	720048.000000	1772895153.934053
-6152.490000	-12104.280000	4581.045000	-1621.530000	-23702.130000	-17578.125000	-1885.905000	-5636.520000	0.000010	0.000010	0.000004	0.000006	0.000024	0.000007	0.000020	0.000012	-9.049180	3.845520	-10.254720	0.630858	0.292602	0.665098	-1.000000	-1.000000	-1.000000	-1.000000	-1.000000	-1.000000	-1.000000	84.482759	0.000000	-1.000000	-1.000000	720049.000000	1772895153.934055
-6152.490000	-12104.280000	4581.045000	-1621.530000	-23702.130000	-17578.125000	-1885.905000	-5636.520000	0.000010	0.000010	0.000005	0.000006	0.000025	0.000008	0.000020	0.000012	-9.049180	3.845520	-10.254720	0.630858	0.292602	0.665098	-1.000000	-1.000000	-1.000000	-1.000000	-1.000000	-1.000000	-1.000000	84.482759	0.000000	-1.000000	-1.000000	720050.000000	1772895153.934058
-6152.490000	-12104.280000	4581.045000	-1621.530000	-23702.130000	-17578.125000	-1885.905000	-5636.520000	0.000010	0.000010	0.000004	0.000006	0.000024	0.000007	0.000020	0.000012	-9.049180	3.845520	-10.254720	0.630858	0.292602	0.665098	-1.000000	-1.000000	-1.000000	-1.000000	-1.000000	-1.000000	-1.000000	84.482759	0.000000	-1.000000	-1.000000	720051.000000	1772895153.934060
-6152.490000	-12104.280000	4581.045000	-1621.530000	-23702.130000	-17578.125000	-1885.905000	-5636.520000	0.000010	0.000010	0.000005	0.000006	0.000024	0.000008	0.000020	0.000012	-9.049180	3.845520	-10.254720	0.630858	0.292602	0.665098	-1.000000	-1.000000	-1.000000	-1.000000	-1.000000	-1.000000	-1.000000	84.482759	0.000000	-1.000000	-1.000000	720052.000000	1772895153.934062
-6152.490000	-12104.280000	4581.045000	-1621.530000	-23702.130000	-17578.125000	-1885.905000	-5636.520000	0.000009	0.000010	0.000004	0.000006	0.000023	0.000007	0.000020	0.000012	-9.049180	3.845520	-10.254720	0.630858	0.292602	0.665098	-1.000000	-1.000000	-1.000000	-1.000000	-1.000000	-1.000000	-1.000000	84.482759	0.000000	-1.000000	-1.000000	720053.000000	1772895153.934064
-6152.490000	-12104.280000	4581.045000	-1621.530000	-23702.130000	-17578.125000	-1885.905000	-5636.520000	0.000009	0.000010	0.000005	0.000006	0.000024	0.000007	0.000020	0.000012	-9.049180	3.845520	-10.254720	0.630858	0.292602	0.665098	-1.000000	-1.000000	-1.000000	-1.000000	-1.000000	-1.000000	-1.000000	84.482759	0.000000	-1.000000	-1.000000	720054.000000	1772895153.934067
-6152.490000	-12104.280000	4581.045000	-1621.530000	-23702.130000	-17578.125000	-1885.905000	-5636.520000	0.000009	0.000010	0.000004	0.000006	0.000023	0.000007	0.000020	0.000012	-9.049180	3.845520	-10.254720	0.630858	0.292602	0.665098	-1.000000	-1.000000	-1.000000	-1.000000	-1.000000	-1.000000	-1.000000	84.482759	0.000000	-1.000000	-1.000000	720055.000000	1772895153.934069
-6152.490000	-12104.280000	4581.045000	-1621.530000	-23702.130000	-17578.125000	-1885.905000	-5636.520000	0.000009	0.000010	0.000004	0.000006	0.000023	0.000007	0.000019	0.000012	-9.049180	3.845520	-10.254720	0.630858	0.292602	0.665098	-1.000000	-1.000000	-1.000000	-1.000000	-1.000000	-1.000000	-1.000000	84.482759	0.000000	-1.000000	-1.000000	720056.000000	1772895153.934071
-6152.490000	-12104.280000	4581.045000	-1621.530000	-23702.130000	-17578.125000	-1885.905000	-5636.520000	0.000009	0.000010	0.000004	0.000006	0.000023	0.000007	0.000019	0.000012	-9.049180	3.845520	-10.254720	0.630858	0.292602	0.665098	-1.000000	-1.000000	-1.000000	-1.000000	-1.000000	-1.000000	-1.000000	84.482759	0.000000	-1.000000	-1.000000	720057.000000	1772895153.934073
-6152.490000	-12104.280000	4581.045000	-1621.530000	-23702.130000	-17578.125000	-1885.905000	-5636.520000	0.000009	0.000010	0.000004	0.000005	0.000022	0.000007	0.000019	0.000011	-9.049180	3.845520	-10.254720	0.630858	0.292602	0.665098	-1.000000	-1.000000	-1.000000	-1.000000	-1.000000	-1.000000	-1.000000	84.482759	0.000000	-1.000000	-1.000000	720058.000000	1772895153.934076
-6152.490000	-12104.280000	4581.045000	-1621.530000	-23702.130000	-17578.125000	-1885.905000	-5636.520000	0.000009	0.000010	0.000004	0.000005	0.000023	0.000007	0.000019	0.000011	-9.049180	3.845520	-10.254720	0.630858	0.292602	0.665098	-1.000000	-1.000000	-1.000000	-1.000000	-1.000000	-1.000000	-1.000000	84.482759	0.000000	-1.000000	-1.000000	720059.000000	1772895153.934078
-6152.490000	-12104.280000	4581.045000	-1621.530000	-23702.130000	-17578.125000	-1885.905000	-5636.520000	0.000009	0.000009	0.000004	0.000005	0.000022	0.000007	0.000019	0.000011	-9.049180	3.845520	-10.254720	0.630858	0.292602	0.665098	-1.000000	-1.000000	-1.000000	-1.000000	-1.000000	-1.000000	-1.000000	84.482759	0.000000	-1.000000	-1.000000	720060.000000	1772895153.934080
-6152.490000	-12104.280000	4581.045000	-1621.530000	-23702.130000	-17578.125000	-1885.905000	-5636.520000	0.000009	0.000009	0.000004	0.000005	0.000022	0.000007	0.000019	0.000011	-9.049180	3.845520	-10.254720	0.630858	0.292602	0.665098	-1.000000	-1.000000	-1.000000	-1.000000	-1.000000	-1.000000	-1.000000	84.482759	0.000000	-1.000000	-1.000000	720061.000000	1772895153.934083
-6152.490000	-12104.280000	4581.045000	-1621.530000	-23702.130000	-17578.125000	-1885.905000	-5636.520000	0.000009	0.000009	0.000004	0.000005	0.000021	0.000007	0.000018	0.000011	-9.049180	3.845520	-10.254720	0.630858	0.292602	0.665098	-1.000000	-1.000000	-1.000000	-1.000000	-1.000000	-1.000000	-1.000000	84.482759	0.000000	-1.000000	-1.000000	720062.000000	1772895153.934084
-6152.490000	-12104.280000	4581.045000	-1621.530000	-23702.130000	-17578.125000	-1885.905000	-5636.520000	0.000009	0.000009	0.000004	0.000005	0.000022	0.000007	0.000018	0.000011	-9.049180	3.845520	-10.254720	0.630858	0.292602	0.665098	-1.000000	-1.000000	-1.000000	-1.000000	-1.000000	-1.000000	-1.000000	84.482759	0.000000	-1.000000	-1.000000	720063.000000	1772895153.934087
-6152.490000	-12104.280000	4581.045000	-1621.530000	-23702.130000	-17578.125000	-1885.905000	-5636.520000	0.000009	0.000009	0.000004	0.000005	0.000021	0.000006	0.000018	0.000011	-9.049180	3.845520	-10.254720	0.630858	0.292602	0.665098	-1.000000	-1.000000	-1.000000	-1.000000	-1.000000	-1.000000	-1.000000	84.482759	0.000000	-1.000000	-1.000000	720064.000000	1772895153.934089
-6152.490000	-12104.280000	4581.045000	-1621.530000	-23702.130000	-17578.125000	-1885.905000	-5636.520000	0.000009	0.000009	0.000004	0.000005	0.000022	0.000007	0.000018	0.000011	-9.049180	3.845520	-10.254720	0.630858	0.292602	0.665098	-1.000000	-1.000000	-1.000000	-1.000000	-1.000000	-1.000000	-1.000000	84.482759	0.000000	-1.000000	-1.000000	720065.000000	1772895153.934091
-6152.490000	-12104.280000	4581.045000	-1621.530000	-23702.130000	-17578.125000	-1885.905000	-5636.520000	0.000008	0.000009	0.000004	0.000005	0.000021	0.000006	0.000018	0.000011	-9.049180	3.845520	-10.254720	0.630858	0.292602	0.665098	-1.000000	-1.000000	-1.000000	-1.000000	-1.000000	-1.000000	-1.000000	84.482759	0.000000	-1.000000	-1.000000	720066.000000	1772895153.934093
-6152.490000	-12104.280000	4581.045000	-1621.530000	-23702.130000	-17578.125000	-1885.905000	-5636.520000	0.000008	0.000009	0.000004	0.000005	0.000021	0.000007	0.000018	0.000011	-9.049180	3.845520	-10.254720	0.630858	0.292602	0.665098	-1.000000	-1.000000	-1.000000	-1.000000	-1.000000	-1.000000	-1.000000	84.482759	0.000000	-1.000000	-1.000000	720067.000000	1772895153.934096
-6152.490000	-12104.280000	4581.045000	-1621.530000	-23702.130000	-17578.125000	-1885.905000	-5636.520000	0.000008	0.000009	0.000004	0.000005	0.000020	0.000006	0.000017	0.000010	-9.049180	3.845520	-10.254720	0.630858	0.292602	0.665098	-1.000000	-1.000000	-1.000000	-1.000000	-1.000000	-1.000000	-1.000000	84.482759	0.000000	-1.000000	-1.000000	720068.000000	1772895153.934098
-6152.490000	-12104.280000	4581.045000	-1621.530000	-23702.130000	-17578.125000	-1885.905000	-5636.520000	0.000008	0.000009	0.000004	0.000005	0.000021	0.000007	0.000017	0.000010	-9.049180	3.845520	-10.254720	0.630858	0.292602	0.665098	-1.000000	-1.000000	-1.000000	-1.000000	-1.000000	-1.000000	-1.000000	84.482759	0.000000	-1.000000	-1.000000	720069.000000	1772895153.934100
-6152.490000	-12104.280000	4581.045000	-1621.530000	-23702.130000	-17578.125000	-1885.905000	-5636.520000	0.000008	0.000009	0.000004	0.000005	0.000020	0.000006	0.000017	0.000010	-9.049180	3.845520	-10.254720	0.630858	0.292602	0.665098	-1.000000	-1.000000	-1.000000	-1.000000	-1.000000	-1.000000	-1.000000	84.482759	0.000000	-1.000000	-1.000000	720070.000000	1772895153.934103
-6152.490000	-12104.280000	4581.045000	-1621.530000	-23702.130000	-17578.125000	-1885.905000	-5636.520000	0.000008	0.000009	0.000004	0.000005	0.000021	0.000006	0.000017	0.000010	-9.049180	3.845520	-10.254720	0.630858	0.292602	0.665098	-1.000000	-1.000000	-1.000000	-1.000000	-1.000000	-1.000000	-1.000000	84.482759	0.000000	-1.000000	-1.000000	720071.000000	1772895153.934105
-6152.490000	-12104.280000	4581.045000	-1621.530000	-23702.130000	-17578.125000	-1885.905000	-5636.520000	0.000008	0.000008	0.000004	0.000005	0.000020	0.000006	0.000017	0.000010	-9.049180	3.845520	-10.254720	0.630858	0.292602	0.665098	-1.000000	-1.000000	-1.000000	-1.000000	-1.000000	-1.000000	-1.000000	84.482759	0.000000	-1.000000	-1.000000	720072.000000	1772895153.934107
-6152.490000	-12104.280000	4581.045000	-1621.530000	-23702.130000	-17578.125000	-1885.905000	-5636.520000	0.000008	0.000009	0.000004	0.000005	0.000020	0.000006	0.000017	0.000010	-9.049180	3.845520	-10.254720	0.630858	0.292602	0.665098	-1.000000	-1.000000	-1.000000	-1.000000	-1.000000	-1.000000	-1.000000	84.482759	0.000000	-1.000000	-1.000000	720073.000000	1772895153.934109
-6152.490000	-12104.280000	4581.045000	-1621.530000	-23702.130000	-17578.125000	-1885.905000	-5636.520000	0.000008	0.000008	0.000004	0.000005	0.000019	0.000006	0.000016	0.000010	-9.049180	3.845520	-10.254720	0.630858	0.292602	0.665098	-1.000000	-1.000000	-1.000000	-1.000000	-1.000000	-1.000000	-1.000000	84.482759	0.000000	-1.000000	-1.000000	720074.000000	1772895153.934112
-6152.490000	-12104.280000	4581.045000	-1621.530000	-23702.130000	-17578.125000	-1885.905000	-5636.520000	0.000008	0.000008	0.000004	0.000005	0.000020	0.000006	0.000016	0.000010	-9.049180	3.845520	-10.254720	0.630858	0.292602	0.665098	-1.000000	-1.000000	-1.000000	-1.000000	-1.000000	-1.000000	-1.000000	84.482759	0.000000	-1.000000	-1.000000	720075.000000	1772895153.934114
-6152.490000	-12104.280000	4581.045000	-1621.530000	-23702.130000	-17578.125000	-1885.905000	-5636.520000	0.000008	0.000008	0.000004	0.000005	0.000019	0.000006	0.000016	0.000010	-9.049180	3.845520	-10.254720	0.630858	0.292602	0.665098	-1.000000	-1.000000	-1.000000	-1.000000	-1.000000	-1.000000	-1.000000	84.482759	0.000000	-1.000000	-1.000000	720076.000000	1772895153.934116
-6152.490000	-12104.280000	4581.045000	-1621.530000	-23702.130000	-17578.125000	-1885.905000	-5636.520000	0.000008	0.000008	0.000004	0.000005	0.000019	0.000006	0.000016	0.000010	-9.049180	3.845520	-10.254720	0.630858	0.292602	0.665098	-1.000000	-1.000000	-1.000000	-1.000000	-1.000000	-1.000000	-1.000000	84.482759	0.000000	-1.000000	-1.000000	720077.000000	1772895153.934119
-6152.490000	-12104.280000	4581.045000	-1621.530000	-23702.130000	-17578.125000	-1885.905000	-5636.520000	0.000008	0.000008	0.000004	0.000004	0.000019	0.000006	0.000016	0.000009	-9.049180	3.845520	-10.254720	0.630858	0.292602	0.665098	-1.000000	-1.000000	-1.000000	-1.000000	-1.000000	-1.000000	-1.000000	84.482759	0.000000	-1.000000	-1.000000	720078.000000	1772895153.934121
-6152.490000	-12104.280000	4581.045000	-1621.530000	-23702.130000	-17578.125000	-1885.905000	-5636.520000	0.000008	0.000008	0.000004	0.000005	0.000019	0.000006	0.000016	0.000009	-9.049180	3.845520	-10.254720	0.630858	0.292602	0.665098	-1.000000	-1.000000	-1.000000	-1.000000	-1.000000	-1.000000	-1.000000	84.482759	0.000000	-1.000000	-1.000000	720079.000000	1772895153.934123
-6152.490000	-12104.280000	4581.045000	-1621.530000	-23702.130000	-17578.125000	-1885.905000	-5636.520000	0.000007	0.000008	0.000004	0.000004	0.000019	0.000006	0.000016	0.000009	-9.049180	3.845520	-10.254720	0.630858	0.292602	0.665098	-1.000000	-1.000000	-1.000000	-1.000000	-1.000000	-1.000000	-1.000000	84.482759	0.000000	-1.000000	-1.000000	720080.000000	1772895153.934125
-6152.490000	-12104.280000	4581.045000	-1621.530000	-23702.130000	-17578.125000	-1885.905000	-5636.520000	0.000007	0.000008	0.000004	0.000004	0.000018	0.000006	0.000015	0.000009	-9.049180	3.845520	-10.254720	0.630858	0.292602	0.665098	-1.000000	-1.000000	-1.000000	-1.000000	-1.000000	-1.000000	-1.000000	84.482759	0.000000	-1.000000	-1.000000	720081.000000	1772895153.934128
-6152.490000	-12104.280000	4581.045000	-1621.530000	-23702.130000	-17578.125000	-1885.905000	-5636.520000	0.000007	0.000008	0.000004	0.000004	0.000018	0.000006	0.000015	0.000009	-9.049180	3.845520	-10.254720	0.630858	0.292602	0.665098	-1.000000	-1.000000	-1.000000	-1.000000	-1.000000	-1.000000	-1.000000	84.482759	0.000000	-1.000000	-1.000000	720082.000000	1772895153.934130
-6152.490000	-12104.280000	4581.045000	-1621.530000	-23702.130000	-17578.125000	-1885.905000	-5636.520000	0.000007	0.000008	0.000003	0.000004	0.000018	0.000006	0.000015	0.000009	-9.049180	3.845520	-10.254720	0.630858	0.292602	0.665098	-1.000000	-1.000000	-1.000000	-1.000000	-1.000000	-1.000000	-1.000000	84.482759	0.000000	-1.000000	-1.000000	720083.000000	1772895153.934132
-6152.490000	-12104.280000	4581.045000	-1621.530000	-23702.130000	-17578.125000	-1885.905000	-5636.520000	0.000007	0.000008	0.000003	0.000004	0.000018	0.000006	0.000015	0.000009	-9.049180	3.845520	-10.254720	0.630858	0.292602	0.665098	-1.000000	-1.000000	-1.000000	-1.000000	-1.000000	-1.000000	-1.000000	84.482759	0.000000	-1.000000	-1.000000	720084.000000	1772895153.934134
-6152.490000	-12104.280000	4581.045000	-1621.530000	-23702.130000	-17578.125000	-1885.905000	-5636.520000	0.000007	0.000008	0.000003	0.000004	0.000018	0.000005	0.000015	0.000009	-9.049180	3.845520	-10.254720	0.630858	0.292602	0.665098	-1.000000	-1.000000	-1.000000	-1.000000	-1.000000	-1.000000	-1.000000	84.482759	0.000000	-1.000000	-1.000000	720085.000000	1772895153.934137
-6152.490000	-12104.280000	4581.045000	-1621.530000	-23702.130000	-17578.125000	-1885.905000	-5636.520000	0.000007	0.000008	0.000003	0.000004	0.000018	0.000006	0.000015	0.000009	-9.049180	3.845520	-10.254720	0.630858	0.292602	0.665098	-1.000000	-1.000000	-1.000000	-1.000000	-1.000000	-1.000000	-1.000000	84.482759	0.000000	-1.000000	-1.000000	720086.000000	1772895153.934157
-6152.490000	-12104.280000	4581.045000	-1621.530000	-23702.130000	-17578.125000	-1885.905000	-5636.520000	0.000007	0.000007	0.000003	0.000004	0.000017	0.000005	0.000014	0.000009	-9.049180	3.845520	-10.254720	0.630858	0.292602	0.665098	-1.000000	-1.000000	-1.000000	-1.000000	-1.000000	-1.000000	-1.000000	84.482759	0.000000	-1.000000	-1.000000	720087.000000	1772895153.934159
-6152.490000	-12104.280000	4581.045000	-1621.530000	-23702.130000	-17578.125000	-1885.905000	-5636.520000	0.000007	0.000007	0.000003	0.000004	0.000018	0.000005	0.000015	0.000009	-9.049180	3.845520	-10.254720	0.630858	0.292602	0.665098	-1.000000	-1.000000	-1.000000	-1.000000	-1.000000	-1.000000	-1.000000	84.482759	0.000000	-1.000000	-1.000000	720088.000000	1772895153.934161
-6152.490000	-12104.280000	4581.045000	-1621.530000	-23702.130000	-17578.125000	-1885.905000	-5636.520000	0.000007	0.000007	0.000003	0.000004	0.000017	0.000005	0.000014	0.000009	-9.049180	3.845520	-10.254720	0.630858	0.292602	0.665098	-1.000000	-1.000000	-1.000000	-1.000000	-1.000000	-1.000000	-1.000000	84.482759	0.000000	-1.000000	-1.000000	720089.000000	1772895153.934164
-6152.490000	-12104.280000	4581.045000	-1621.530000	-23702.130000	-17578.125000	-1885.905000	-5636.520000	0.000007	0.000007	0.000003	0.000004	0.000017	0.000005	0.000014	0.000008	-9.049180	3.845520	-10.254720	0.630858	0.292602	0.665098	-1.000000	-1.000000	-1.000000	-1.000000	-1.000000	-1.000000	-1.000000	84.482759	0.000000	-1.000000	-1.000000	720090.000000	1772895153.934166
-6152.490000	-12104.280000	4581.045000	-1621.530000	-23702.130000	-17578.125000	-1885.905000	-5636.520000	0.000007	0.000007	0.000003	0.000004	0.000017	0.000005	0.000014	0.000008	-9.049180	3.845520	-10.254720	0.630858	0.292602	0.665098	-1.000000	-1.000000	-1.000000	-1.000000	-1.000000	-1.000000	-1.000000	84.482759	0.000000	-1.000000	-1.000000	720091.000000	1772895153.934168
-6152.490000	-12104.280000	4581.045000	-1621.530000	-23702.130000	-17578.125000	-1885.905000	-5636.520000	0.000007	0.000007	0.000003	0.000004	0.000017	0.000005	0.000014	0.000008	-9.049180	3.845520	-10.254720	0.630858	0.292602	0.665098	-1.000000	-1.000000	-1.000000	-1.000000	-1.000000	-1.000000	-1.000000	84.482759	0.000000	-1.000000	-1.000000	720092.000000	1772895153.934171
-6152.490000	-12104.280000	4581.045000	-1621.530000	-23702.130000	-17578.125000	-1885.905000	-5636.520000	0.000007	0.000007	0.000003	0.000004	0.000016	0.000005	0.000014	0.000008	-9.049180	3.845520	-10.254720	0.630858	0.292602	0.665098	-1.000000	-1.000000	-1.000000	-1.000000	-1.000000	-1.000000	-1.000000	84.482759	0.000000	-1.000000	-1.000000	720093.000000	1772895153.934173
-6152.490000	-12104.280000	4581.045000	-1621.530000	-23702.130000	-17578.125000	-1885.905000	-5636.520000	0.000007	0.000007	0.000003	0.000004	0.000017	0.000005	0.000014	0.000008	-9.049180	3.845520	-10.254720	0.630858	0.292602	0.665098	-1.000000	-1.000000	-1.000000	-1.000000	-1.000000	-1.000000	-1.000000	84.482759	0.000000	-1.000000	-1.000000	720094.000000	1772895153.934175
-6152.490000	-12104.280000	4581.045000	-1621.530000	-23702.130000	-17578.125000	-1885.905000	-5636.520000	0.000006	0.000007	0.000003	0.000004	0.000016	0.000005	0.000013	0.000008	-9.049180	3.845520	-10.254720	0.630858	0.292602	0.665098	-1.000000	-1.000000	-1.000000	-1.000000	-1.000000	-1.000000	-1.000000	84.482759	0.000000	-1.000000	-1.000000	720095.000000	1772895153.934178
-6152.490000	-12104.280000	4581.045000	-1621.530000	-23702.130000	-17578.125000	-1885.905000	-5636.520000	0.000006	0.000007	0.000003	0.000004	0.000016	0.000005	0.000014	0.000008	-9.049180	3.845520	-10.254720	0.630858	0.292602	0.665098	-1.000000	-1.000000	-1.000000	-1.000000	-1.000000	-1.000000	-1.000000	84.482759	0.000000	-1.000000	-1.000000	720096.000000	1772895153.934180
-6152.490000	-12104.280000	4581.045000	-1621.530000	-23702.130000	-17578.125000	-1885.905000	-5636.520000	0.000006	0.000007	0.000003	0.000004	0.000016	0.000005	0.000013	0.000008	-9.049180	3.845520	-10.254720	0.630858	0.292602	0.665098	-1.000000	-1.000000	-1.000000	-1.000000	-1.000000	-1.000000	-1.000000	84.482759	0.000000	-1.000000	-1.000000	720097.000000	1772895153.934183
-6152.490000	-12104.280000	4581.045000	-1621.530000	-23702.130000	-17578.125000	-1885.905000	-5636.520000	0.000006	0.000007	0.000003	0.000004	0.000016	0.000005	0.000013	0.000008	-9.049180	3.845520	-10.254720	0.630858	0.292602	0.665098	-1.000000	-1.000000	-1.000000	-1.000000	-1.000000	-1.000000	-1.000000	84.482759	0.000000	-1.000000	-1.000000	720098.000000	1772895153.934185
-6152.490000	-12104.280000	4581.045000	-1621.530000	-23702.130000	-17578.125000	-1885.905000	-5636.520000	0.000006	0.000007	0.000003	0.000004	0.000015	0.000005	0.000013	0.000008	-9.049180	3.845520	-10.254720	0.630858	0.292602	0.665098	-1.000000	-1.000000	-1.000000	-1.000000	-1.000000	-1.000000	-1.000000	84.482759	0.000000	-1.000000	-1.000000	720099.000000	1772895153.934187
-6152.490000	-12104.280000	4581.045000	-1621.530000	-23702.130000	-17578.125000	-1885.905000	-5636.520000	0.000006	0.000007	0.000003	0.000004	0.000016	0.000005	0.000013	0.000008	-9.049180	3.845520	-10.254720	0.630858	0.292602	0.665098	-1.000000	-1.000000	-1.000000	-1.000000	-1.000000	-1.000000	-1.000000	84.482759	0.000000	-1.000000	-1.000000	720100.000000	1772895153.934190
-6152.490000	-12104.280000	4581.045000	-1621.530000	-23702.130000	-17578.125000	-1885.905000	-5636.520000	0.000006	0.000007	0.000003	0.000004	0.000015	0.000005	0.000013	0.000008	-9.049180	3.845520	-10.254720	0.630858	0.292602	0.665098	-1.000000	-1.000000	-1.000000	-1.000000	-1.000000	-1.000000	-1.000000	84.482759	0.000000	-1.000000	-1.000000	720101.000000	1772895153.934192
-6152.490000	-12104.280000	4581.045000	-1621.530000	-23702.130000	-17578.125000	-1885.905000	-5636.520000	0.000006	0.000007	0.000003	0.000004	0.000015	0.000005	0.000013	0.000008	-9.049180	3.845520	-10.254720	0.630858	0.292602	0.665098	-1.000000	-1.000000	-1.000000	-1.000000	-1.000000	-1.000000	-1.000000	84.482759	0.000000	-1.000000	-1.000000	720102.000000	1772895153.934194
-6152.490000	-12104.280000	4581.045000	-1621.530000	-23702.130000	-17578.125000	-1885.905000	-5636.520000	0.000006	0.000006	0.000003	0.000004	0.000015	0.000005	0.000013	0.000007	-9.049180	3.845520	-10.254720	0.630858	0.292602	0.665098	-1.000000	-1.000000	-1.000000	-1.000000	-1.000000	-1.000000	-1.000000	84.482759	0.000000	-1.000000	-1.000000	720103.000000	1772895153.934197
-6152.490000	-12104.280000	4581.045000	-1621.530000	-23702.130000	-17578.125000	-1885.905000	-5636.520000	0.000006	0.000006	0.000003	0.000004	0.000015	0.000005	0.000012	0.000007	-9.049180	3.845520	-10.254720	0.630858	0.292602	0.665098	-1.000000	-1.000000	-1.000000	-1.000000	-1.000000	-1.000000	-1.000000	84.482759	0.000000	-1.000000	-1.000000	720104.000000	1772895153.934199
-6152.490000	-12104.280000	4581.045000	-1621.530000	-23702.130000	-17578.125000	-1885.905000	-5636.520000	0.000006	0.000006	0.000003	0.000004	0.000015	0.000005	0.000012	0.000007	-9.049180	3.845520	-10.254720	0.630858	0.292602	0.665098	-1.000000	-1.000000	-1.000000	-1.000000	-1.000000	-1.000000	-1.000000	84.482759	0.000000	-1.000000	-1.000000	720105.000000	1772895153.934201
-6152.490000	-12104.280000	4581.045000	-1621.530000	-23702.130000	-17578.125000	-1885.905000	-5636.520000	0.000006	0.000006	0.000003	0.000004	0.000015	0.000005	0.000012	0.000007	-9.049180	3.845520	-10.254720	0.630858	0.292602	0.665098	-1.000000	-1.000000	-1.000000	-1.000000	-1.000000	-1.000000	-1.000000	84.482759	0.000000	-1.000000	-1.000000	720106.000000	1772895153.934204
-6152.490000	-12104.280000	4581.045000	-1621.530000	-23702.130000	-17578.125000	-1885.905000	-5636.520000	0.000006	0.000006	0.000003	0.000004	0.000015	0.000004	0.000012	0.000007	-9.049180	3.845520	-10.254720	0.630858	0.292602	0.665098	-1.000000	-1.000000	-1.000000	-1.000000	-1.000000	-1.000000	-1.000000	84.482759	0.000000	-1.000000	-1.000000	720107.000000	1772895153.934206
-6152.490000	-12104.280000	4581.045000	-1621.530000	-23702.130000	-17578.125000	-1885.905000	-5636.520000	0.000006	0.000006	0.000003	0.000004	0.000014	0.000004	0.000012	0.000007	-9.049180	3.845520	-10.254720	0.630858	0.292602	0.665098	-1.000000	-1.000000	-1.000000	-1.000000	-1.000000	-1.000000	-1.000000	84.482759	0.000000	-1.000000	-1.000000	720108.000000	1772895153.934208
-6152.490000	-12104.280000	4581.045000	-1621.530000	-23702.130000	-17578.125000	-1885.905000	-5636.520000	0.000006	0.000006	0.000003	0.000004	0.000014	0.000004	0.000012	0.000007	-9.049180	3.845520	-10.254720	0.630858	0.292602	0.665098	-1.000000	-1.000000	-1.000000	-1.000000	-1.000000	-1.000000	-1.000000	84.482759	0.000000	-1.000000	-1.000000	720109.000000	1772895153.934211
-6152.490000	-12104.280000	4581.045000	-1621.530000	-23702.130000	-17578.125000	-1885.905000	-5636.520000	0.000006	0.000006	0.000003	0.000003	0.000014	0.000004	0.000012	0.000007	-9.049180	3.845520	-10.254720	0.630858	0.292602	0.665098	-1.000000	-1.000000	-1.000000	-1.000000	-1.000000	-1.000000	-1.000000	84.482759	0.000000	-1.000000	-1.000000	720110.000000	1772895153.934213
-6152.490000	-12104.280000	4581.045000	-1621.530000	-23702.130000	-17578.125000	-1885.905000	-5636.520000	0.000006	0.000006	0.000003	0.000004	0.000014	0.000004	0.000012	0.000007	-9.049180	3.845520	-10.254720	0.630858	0.292602	0.665098	-1.000000	-1.000000	-1.000000	-1.000000	-1.000000	-1.000000	-1.000000	84.482759	0.000000	-1.000000	-1.000000	720111.000000	1772895153.934216
-6152.490000	-12104.280000	4581.045000	-1621.530000	-23702.130000	-17578.125000	-1885.905000	-5636.520000	0.000005	0.000006	0.000003	0.000003	0.000014	0.000004	0.000012	0.000007	-9.049180	3.845520	-10.254720	0.630858	0.292602	0.665098	-1.000000	-1.000000	-1.000000	-1.000000	-1.000000	-1.000000	-1.000000	84.482759	0.000000	-1.000000	-1.000000	720112.000000	1772895153.934218
-6152.490000	-12104.280000	4581.045000	-1621.530000	-23702.130000	-17578.125000	-1885.905000	-5636.520000	0.000005	0.000006	0.000003	0.000003	0.000014	0.000004	0.000012	0.000007	-9.049180	3.845520	-10.254720	0.630858	0.292602	0.665098	-1.000000	-1.000000	-1.000000	-1.000000	-1.000000	-1.000000	-1.000000	84.482759	0.000000	-1.000000	-1.000000	720113.000000	1772895153.934220
-6152.490000	-12104.280000	4581.045000	-1621.530000	-23702.130000	-17578.125000	-1885.905000	-5636.520000	0.000005	0.000006	0.000003	0.000003	0.000014	0.000004	0.000011	0.000007	-9.049180	3.845520	-10.254720	0.630858	0.292602	0.665098	-1.000000	-1.000000	-1.000000	-1.000000	-1.000000	-1.000000	-1.000000	84.482759	0.000000	-1.000000	-1.000000	720114.000000	1772895153.934223
-6152.490000	-12104.280000	4581.045000	-1621.530000	-23702.130000	-17578.125000	-1885.905000	-5636.520000	0.000005	0.000006	0.000003	0.000003	0.000014	0.000004	0.000011	0.000007	-9.049180	3.845520	-10.254720	0.630858	0.292602	0.665098	-1.000000	-1.000000	-1.000000	-1.000000	-1.000000	-1.000000	-1.000000	84.482759	0.000000	-1.000000	-1.000000	720115.000000	1772895153.934225
