Channel1	Channel2	Channel3	Channel4	Channel5	Channel6	Channel7	Channel8	FilteredChannel1	FilteredChannel2	FilteredChannel3	FilteredChannel4	FilteredChannel5	FilteredChannel6	FilteredChannel7	FilteredChannel8	GyroX	GyroY	GyroZ	AccX	AccY	AccZ	PPG1	PPG2	rawPPG1	rawPPG2	rawPPG3	Hr	Hrv	Battery	Trigger	PhysicalTrigger	AutoTrigger	NumMeasurements	Timestamp
-5109.930000	-10730.295000	4696.380000	-1313.595000	-23695.740000	-17737.650000	-1908.720000	-2853.945000	-5.146482	-11.740807	-8.019906	-5.110857	-3.264928	-1.660199	9.308755	7.446809	0.076300	3.128300	-3.250380	0.748716	0.080017	0.623900	-1.000000	-1.000000	-1.000000	-1.000000	-1.000000	-1.000000	-1.000000	85.034483	0.000000	-1.000000	-1.000000	658309.000000	1772895028.315701
-5094.090000	-10721.970000	4695.030000	-1319.220000	-23717.430000	-17746.200000	-1912.905000	-2864.205000	-4.770753	-4.885324	1.080298	3.853744	5.963259	5.799669	14.348153	7.881633	0.076300	3.128300	-3.250380	0.748716	0.080017	0.623900	-1.000000	-1.000000	-1.000000	-1.000000	-1.000000	-1.000000	-1.000000	85.034483	0.000000	-1.000000	-1.000000	658310.000000	1772895028.315711
-5095.530000	-10730.025000	4686.120000	-1329.885000	-23721.525000	-17757.495000	-1923.795000	-2889.495000	-1.558820	1.878543	6.435610	7.484731	7.092929	7.256269	10.659223	2.658633	-2.029580	3.799740	-2.746800	0.750120	0.083740	0.625059	-1.000000	-1.000000	-1.000000	-1.000000	-1.000000	-1.000000	-1.000000	85.034483	0.000000	-1.000000	-1.000000	658311.000000	1772895028.319819
-5101.245000	-10732.995000	4685.805000	-1325.475000	-23710.905000	-17751.690000	-1913.760000	-2877.615000	3.373002	6.990616	7.235017	5.903636	2.167601	3.759018	1.591576	-4.846181	-2.029580	3.799740	-2.746800	0.750120	0.083740	0.625059	-1.000000	-1.000000	-1.000000	-1.000000	-1.000000	-1.000000	-1.000000	85.034483	0.000000	-1.000000	-1.000000	658312.000000	1772895028.319828
-5102.505000	-10731.690000	4687.920000	-1321.020000	-23698.620000	-17743.590000	-1899.315000	-2865.960000	6.918874	9.987250	6.156009	3.512293	-1.223503	0.629246	-5.527375	-9.458299	-2.029580	3.799740	-2.746800	0.750120	0.083740	0.625059	-1.000000	-1.000000	-1.000000	-1.000000	-1.000000	-1.000000	-1.000000	85.034483	0.000000	-1.000000	-1.000000	658313.000000	1772895028.323843
-5107.455000	-10733.715000	4687.605000	-1324.530000	-23699.700000	-17747.595000	-1908.270000	-2877.975000	6.768681	10.570838	5.582177	3.451216	1.028194	1.167181	-6.651807	-8.704044	-2.029580	3.799740	-2.746800	0.750120	0.083740	0.625059	-1.000000	-1.000000	-1.000000	-1.000000	-1.000000	-1.000000	-1.000000	85.034483	0.000000	-1.000000	-1.000000	658314.000000	1772895028.323850
-5112.450000	-10714.545000	4710.060000	-1302.255000	-23675.715000	-17727.660000	-1907.550000	-2884.365000	3.059090	8.780766	5.693102	5.017621	6.382255	3.898539	-4.087637	-5.176179	-2.029580	3.799740	-2.746800	0.750120	0.083740	0.625059	-1.000000	-1.000000	-1.000000	-1.000000	-1.000000	-1.000000	-1.000000	85.034483	0.000000	-1.000000	-1.000000	658315.000000	1772895028.328565
-5114.070000	-10707.975000	4715.910000	-1300.770000	-23697.045000	-17727.075000	-1910.025000	-2891.925000	-1.695053	6.104660	5.838466	6.198689	9.899758	5.753226	-2.165436	-2.540691	-2.029580	3.799740	-2.746800	0.750120	0.083740	0.625059	-1.000000	-1.000000	-1.000000	-1.000000	-1.000000	-1.000000	-1.000000	85.034483	0.000000	-1.000000	-1.000000	658316.000000	1772895028.328575
-5095.305000	-10705.680000	4716.180000	-1301.040000	-23701.185000	-17732.565000	-1901.430000	-2885.040000	-3.902331	4.190492	5.437022	5.792143	8.512856	5.118932	-2.259740	-1.344532	-2.029580	3.799740	-2.746800	0.750120	0.083740	0.625059	-1.000000	-1.000000	-1.000000	-1.000000	-1.000000	-1.000000	-1.000000	85.034483	0.000000	-1.000000	-1.000000	658317.000000	1772895028.331739
-5060.475000	-10714.095000	4705.380000	-1307.970000	-23700.420000	-17736.930000	-1886.760000	-2861.190000	-1.231416	2.475428	3.575007	3.326695	2.877847	2.107927	-2.620492	0.337735	-2.029580	3.799740	-2.746800	0.750120	0.083740	0.625059	-1.000000	-1.000000	-1.000000	-1.000000	-1.000000	-1.000000	-1.000000	85.034483	0.000000	-1.000000	-1.000000	658318.000000	1772895028.331746
-5049.090000	-10715.040000	4703.535000	-1309.050000	-23699.475000	-17739.090000	-1896.120000	-2857.005000	5.136446	-0.822072	-0.388661	-0.850518	-3.320959	-1.906326	-1.272854	4.393407	-2.029580	3.799740	-2.746800	0.750120	0.083740	0.625059	-1.000000	-1.000000	-1.000000	-1.000000	-1.000000	-1.000000	-1.000000	85.034483	0.000000	-1.000000	-1.000000	658319.000000	1772895028.335826
-5084.055000	-10719.090000	4700.025000	-1314.180000	-23704.200000	-17745.615000	-1919.205000	-2870.280000	10.062620	-5.621218	-5.443585	-5.303628	-6.900553	-5.131370	1.263119	9.974011	-2.029580	3.799740	-2.746800	0.750120	0.083740	0.625059	-1.000000	-1.000000	-1.000000	-1.000000	-1.000000	-1.000000	-1.000000	85.034483	0.000000	-1.000000	-1.000000	658320.000000	1772895028.335833
-5128.515000	-10717.335000	4710.195000	-1305.720000	-23699.070000	-17746.155000	-1934.640000	-2896.920000	7.675718	-9.451909	-8.955621	-7.999788	-7.282537	-6.389687	2.387359	12.614035	-4.364360	4.318580	-2.823100	0.747801	0.086975	0.624571	-1.000000	-1.000000	-1.000000	-1.000000	-1.000000	-1.000000	-1.000000	85.034483	0.000000	-1.000000	-1.000000	658321.000000	1772895028.339836
-5099.715000	-10700.955000	4724.685000	-1290.645000	-23685.255000	-17733.915000	-1927.125000	-2897.190000	-2.474781	-9.793530	-8.594768	-7.411474	-5.356333	-5.415361	0.764741	8.323875	-4.364360	4.318580	-2.823100	0.747801	0.086975	0.624571	-1.000000	-1.000000	-1.000000	-1.000000	-1.000000	-1.000000	-1.000000	85.034483	0.000000	-1.000000	-1.000000	658322.000000	1772895028.339844
-5057.730000	-10676.745000	4746.780000	-1267.020000	-23656.365000	-17707.680000	-1896.885000	-2877.435000	-12.690778	-5.909626	-4.215235	-3.468372	-1.971333	-2.385212	-1.404173	-1.003666	-4.364360	4.318580	-2.823100	0.747801	0.086975	0.624571	-1.000000	-1.000000	-1.000000	-1.000000	-1.000000	-1.000000	-1.000000	85.034483	0.000000	-1.000000	-1.000000	658323.000000	1772895028.343737
-5049.675000	-10659.240000	4761.765000	-1248.705000	-23637.240000	-17679.690000	-1862.685000	-2871.990000	-13.998607	0.729411	1.860857	2.069518	2.171169	2.084413	-0.351679	-8.692886	-4.364360	4.318580	-2.823100	0.747801	0.086975	0.624571	-1.000000	-1.000000	-1.000000	-1.000000	-1.000000	-1.000000	-1.000000	85.034483	0.000000	-1.000000	-1.000000	658324.000000	1772895028.343745
-5085.450000	-10672.515000	4752.540000	-1257.255000	-23640.345000	-17684.190000	-1869.480000	-2882.430000	-6.053458	6.738985	6.189318	6.260304	5.933091	6.345196	4.520691	-10.148486	-4.364360	4.318580	-2.823100	0.747801	0.086975	0.624571	-1.000000	-1.000000	-1.000000	-1.000000	-1.000000	-1.000000	-1.000000	85.034483	0.000000	-1.000000	-1.000000	658325.000000	1772895028.351621
-5099.040000	-10708.380000	4712.490000	-1300.140000	-23677.740000	-17723.835000	-1908.810000	-2882.295000	2.739476	8.089676	5.900791	6.141189	7.074072	7.522034	8.389429	-6.625400	-4.364360	4.318580	-2.823100	0.747801	0.086975	0.624571	-1.000000	-1.000000	-1.000000	-1.000000	-1.000000	-1.000000	-1.000000	85.034483	0.000000	-1.000000	-1.000000	658326.000000	1772895028.351632
-5124.195000	-10746.810000	4675.950000	-1336.770000	-23720.265000	-17759.655000	-1934.955000	-2884.770000	4.400965	2.654112	0.109036	0.260899	2.889593	3.012545	5.362840	-2.271553	-4.364360	4.318580	-2.823100	0.747801	0.086975	0.624571	-1.000000	-1.000000	-1.000000	-1.000000	-1.000000	-1.000000	-1.000000	85.034483	0.000000	-1.000000	-1.000000	658327.000000	1772895028.357841
-5120.145000	-10740.600000	4687.290000	-1324.440000	-23720.265000	-17748.990000	-1921.995000	-2900.655000	-1.169931	-6.918301	-8.265545	-8.693044	-6.143775	-5.828524	-3.898421	0.312255	-4.364360	4.318580	-2.823100	0.747801	0.086975	0.624571	-1.000000	-1.000000	-1.000000	-1.000000	-1.000000	-1.000000	-1.000000	85.034483	0.000000	-1.000000	-1.000000	658328.000000	1772895028.357848
-5097.330000	-10735.965000	4685.715000	-1324.440000	-23712.750000	-17744.445000	-1911.735000	-2895.480000	-6.297718	-13.646256	-13.079177	-14.112708	-14.240491	-12.732249	-11.430937	1.339218	-4.364360	4.318580	-2.823100	0.747801	0.086975	0.624571	-1.000000	-1.000000	-1.000000	-1.000000	-1.000000	-1.000000	-1.000000	85.034483	0.000000	-1.000000	-1.000000	658329.000000	1772895028.357856
-5099.490000	-10738.215000	4677.435000	-1335.330000	-23722.695000	-17759.205000	-1922.265000	-2896.740000	-3.443128	-12.093062	-10.435078	-11.580342	-15.186894	-12.395324	-10.689458	2.412522	-4.364360	4.318580	-2.823100	0.747801	0.086975	0.624571	-1.000000	-1.000000	-1.000000	-1.000000	-1.000000	-1.000000	-1.000000	85.034483	0.000000	-1.000000	-1.000000	658330.000000	1772895028.357860
-5113.395000	-10731.240000	4685.400000	-1331.415000	-23723.190000	-17764.605000	-1928.475000	-2888.100000	5.601045	-3.416542	-2.335462	-3.165228	-8.567016	-5.911722	-3.390829	4.096480	-3.921820	4.608520	-1.495480	0.746031	0.084106	0.624144	-1.000000	-1.000000	-1.000000	-1.000000	-1.000000	-1.000000	-1.000000	85.034483	0.000000	-1.000000	-1.000000	658331.000000	1772895028.359820
-5094.675000	-10710.495000	4708.935000	-1309.320000	-23704.830000	-17753.040000	-1937.340000	-2887.830000	11.993594	6.706896	6.386221	5.836546	1.021007	1.543093	3.431310	5.027189	-3.921820	4.608520	-1.495480	0.746031	0.084106	0.624144	-1.000000	-1.000000	-1.000000	-1.000000	-1.000000	-1.000000	-1.000000	85.034483	0.000000	-1.000000	-1.000000	658332.000000	1772895028.359828
-5085.180000	-10704.780000	4714.695000	-1302.030000	-23694.750000	-17740.305000	-1936.890000	-2894.985000	11.110603	13.359917	12.235090	11.740032	9.139006	6.287399	4.758454	3.781181	-3.921820	4.608520	-1.495480	0.746031	0.084106	0.624144	-1.000000	-1.000000	-1.000000	-1.000000	-1.000000	-1.000000	-1.000000	85.034483	0.000000	-1.000000	-1.000000	658333.000000	1772895028.363834
-5112.270000	-10728.945000	4694.490000	-1318.320000	-23706.315000	-17744.310000	-1922.895000	-2898.990000	5.686011	14.613795	13.868621	13.555435	13.900244	8.333064	1.902068	0.634172	-3.921820	4.608520	-1.495480	0.746031	0.084106	0.624144	-1.000000	-1.000000	-1.000000	-1.000000	-1.000000	-1.000000	-1.000000	85.034483	0.000000	-1.000000	-1.000000	658334.000000	1772895028.363842
-5115.825000	-10730.070000	4696.650000	-1314.765000	-23702.445000	-17742.465000	-1922.580000	-2897.640000	-0.358441	11.197579	11.757810	12.165302	15.240915	9.618106	0.351933	-2.817192	-3.921820	4.608520	-1.495480	0.746031	0.084106	0.624144	-1.000000	-1.000000	-1.000000	-1.000000	-1.000000	-1.000000	-1.000000	85.034483	0.000000	-1.000000	-1.000000	658335.000000	1772895028.367679
-5097.375000	-10725.930000	4694.985000	-1318.995000	-23706.405000	-17748.450000	-1927.440000	-2887.560000	-4.645517	5.775277	7.719425	9.157610	13.860292	10.897376	3.083425	-4.605171	-3.921820	4.608520	-1.495480	0.746031	0.084106	0.624144	-1.000000	-1.000000	-1.000000	-1.000000	-1.000000	-1.000000	-1.000000	85.034483	0.000000	-1.000000	-1.000000	658336.000000	1772895028.367684
-5102.055000	-10727.910000	4688.055000	-1326.825000	-23709.240000	-17753.715000	-1929.960000	-2890.350000	-5.641935	0.755141	2.931887	4.902801	9.821541	10.250572	7.334464	-3.340402	-3.921820	4.608520	-1.495480	0.746031	0.084106	0.624144	-1.000000	-1.000000	-1.000000	-1.000000	-1.000000	-1.000000	-1.000000	85.034483	0.000000	-1.000000	-1.000000	658337.000000	1772895028.371891
-5112.540000	-10721.430000	4696.380000	-1317.105000	-23698.395000	-17743.860000	-1924.020000	-2904.030000	-4.014764	-3.305101	-2.459953	-0.947039	2.883897	5.645664	8.547007	0.080261	-3.921820	4.608520	-1.495480	0.746031	0.084106	0.624144	-1.000000	-1.000000	-1.000000	-1.000000	-1.000000	-1.000000	-1.000000	85.034483	0.000000	-1.000000	-1.000000	658338.000000	1772895028.371896
-5095.350000	-10710.225000	4705.650000	-1310.490000	-23701.995000	-17738.370000	-1899.315000	-2884.905000	-1.988102	-6.283156	-7.259361	-6.852980	-5.316481	-1.509024	5.672318	2.926378	-3.921820	4.608520	-1.495480	0.746031	0.084106	0.624144	-1.000000	-1.000000	-1.000000	-1.000000	-1.000000	-1.000000	-1.000000	85.034483	0.000000	-1.000000	-1.000000	658339.000000	1772895028.375719
-5089.725000	-10701.000000	4719.105000	-1295.640000	-23689.620000	-17728.200000	-1884.870000	-2864.250000	-0.604855	-7.692271	-9.644387	-10.256670	-11.819542	-7.614546	1.354152	3.770915	-3.921820	4.608520	-1.495480	0.746031	0.084106	0.624144	-1.000000	-1.000000	-1.000000	-1.000000	-1.000000	-1.000000	-1.000000	85.034483	0.000000	-1.000000	-1.000000	658340.000000	1772895028.375728
-5100.165000	-10700.280000	4733.685000	-1279.575000	-23672.430000	-17719.785000	-1898.775000	-2871.495000	-0.179930	-7.686432	-9.185034	-10.220454	-14.481527	-10.557331	-2.217095	3.118552	-0.534100	5.356260	-2.319520	0.749205	0.078796	0.620970	-1.000000	-1.000000	-1.000000	-1.000000	-1.000000	-1.000000	-1.000000	85.034483	0.000000	-1.000000	-1.000000	658341.000000	1772895028.379925
-5078.790000	-10690.605000	4738.095000	-1275.165000	-23664.465000	-17711.280000	-1905.120000	-2854.215000	-0.663835	-6.509269	-6.406703	-7.271232	-12.407426	-10.232411	-5.371322	1.794231	-0.534100	5.356260	-2.319520	0.749205	0.078796	0.620970	-1.000000	-1.000000	-1.000000	-1.000000	-1.000000	-1.000000	-1.000000	85.034483	0.000000	-1.000000	-1.000000	658342.000000	1772895028.379932
-5085.180000	-10721.070000	4699.800000	-1311.840000	-23693.310000	-17735.355000	-1912.410000	-2852.595000	-0.399542	-3.771852	-2.275194	-2.765711	-6.490638	-7.354697	-8.596171	0.505374	-0.534100	5.356260	-2.319520	0.749205	0.078796	0.620970	-1.000000	-1.000000	-1.000000	-1.000000	-1.000000	-1.000000	-1.000000	85.034483	0.000000	-1.000000	-1.000000	658343.000000	1772895028.383827
-5108.130000	-10746.450000	4673.970000	-1338.210000	-23716.080000	-17752.860000	-1916.505000	-2878.470000	1.224980	-0.388941	0.873227	0.633894	-0.078566	-3.531915	-10.522515	-0.940260	-0.534100	5.356260	-2.319520	0.749205	0.078796	0.620970	-1.000000	-1.000000	-1.000000	-1.000000	-1.000000	-1.000000	-1.000000	85.034483	0.000000	-1.000000	-1.000000	658344.000000	1772895028.383832
-5111.235000	-10746.405000	4672.350000	-1343.520000	-23725.620000	-17759.970000	-1920.870000	-2887.920000	1.783311	1.373118	0.997820	0.826089	3.282666	-0.656773	-9.309684	-3.659401	-0.534100	5.356260	-2.319520	0.749205	0.078796	0.620970	-1.000000	-1.000000	-1.000000	-1.000000	-1.000000	-1.000000	-1.000000	85.034483	0.000000	-1.000000	-1.000000	658345.000000	1772895028.387750
-5106.150000	-10730.115000	4689.630000	-1330.740000	-23725.665000	-17760.870000	-1921.230000	-2887.785000	-0.082474	1.272565	-0.586149	-0.899726	2.967939	0.718260	-4.863596	-7.027645	-0.534100	5.356260	-2.319520	0.749205	0.078796	0.620970	-1.000000	-1.000000	-1.000000	-1.000000	-1.000000	-1.000000	-1.000000	85.034483	0.000000	-1.000000	-1.000000	658346.000000	1772895028.387755
-5105.565000	-10716.480000	4707.180000	-1313.280000	-23707.305000	-17749.350000	-1920.870000	-2889.090000	-2.345345	1.454279	-0.496735	-1.131228	1.332623	1.488307	0.849535	-8.254801	-0.534100	5.356260	-2.319520	0.749205	0.078796	0.620970	-1.000000	-1.000000	-1.000000	-1.000000	-1.000000	-1.000000	-1.000000	85.034483	0.000000	-1.000000	-1.000000	658347.000000	1772895028.392036
-5108.580000	-10728.765000	4694.895000	-1320.480000	-23709.015000	-17750.205000	-1928.700000	-2897.235000	-2.988960	2.826572	2.217248	1.498612	1.138773	2.619072	4.964687	-6.112294	-0.534100	5.356260	-2.319520	0.749205	0.078796	0.620970	-1.000000	-1.000000	-1.000000	-1.000000	-1.000000	-1.000000	-1.000000	85.034483	0.000000	-1.000000	-1.000000	658348.000000	1772895028.392042
-5099.535000	-10731.915000	4683.555000	-1326.780000	-23710.455000	-17748.855000	-1926.540000	-2889.045000	-2.068943	3.573722	4.513403	4.475645	2.548904	3.783625	5.691704	-2.255259	-0.534100	5.356260	-2.319520	0.749205	0.078796	0.620970	-1.000000	-1.000000	-1.000000	-1.000000	-1.000000	-1.000000	-1.000000	85.034483	0.000000	-1.000000	-1.000000	658349.000000	1772895028.400067
-5101.740000	-10730.070000	4688.595000	-1323.495000	-23707.530000	-17749.530000	-1926.765000	-2888.595000	-0.285180	2.128523	3.302230	4.528054	3.359038	3.752923	4.051924	1.667404	-0.534100	5.356260	-2.319520	0.749205	0.078796	0.620970	-1.000000	-1.000000	-1.000000	-1.000000	-1.000000	-1.000000	-1.000000	85.034483	0.000000	-1.000000	-1.000000	658350.000000	1772895028.400075
-5108.580000	-10733.715000	4690.710000	-1320.480000	-23705.730000	-17745.660000	-1916.685000	-2884.455000	1.576841	-0.285619	-0.110020	2.010935	2.609328	2.416475	2.751337	5.010588	0.228900	7.065380	-1.876980	0.747374	0.081177	0.621886	-1.000000	-1.000000	-1.000000	-1.000000	-1.000000	-1.000000	-1.000000	85.034483	0.000000	-1.000000	-1.000000	658351.000000	1772895028.400084
-5111.145000	-10738.575000	4685.805000	-1324.170000	-23708.610000	-17745.795000	-1914.345000	-2879.055000	2.718579	-0.965909	-1.398796	0.503050	1.935594	1.475328	3.350822	7.218530	0.228900	7.065380	-1.876980	0.747374	0.081177	0.621886	-1.000000	-1.000000	-1.000000	-1.000000	-1.000000	-1.000000	-1.000000	85.034483	0.000000	-1.000000	-1.000000	658352.000000	1772895028.400088
-5099.895000	-10723.770000	4702.230000	-1307.430000	-23694.525000	-17737.875000	-1919.115000	-2892.465000	3.309331	1.427884	1.669503	2.417905	3.088908	2.454825	5.022967	8.032192	0.228900	7.065380	-1.876980	0.747374	0.081177	0.621886	-1.000000	-1.000000	-1.000000	-1.000000	-1.000000	-1.000000	-1.000000	85.034483	0.000000	-1.000000	-1.000000	658353.000000	1772895028.403834
-5101.155000	-10728.270000	4697.190000	-1311.795000	-23698.665000	-17743.680000	-1927.170000	-2927.115000	3.878875	5.194963	6.718267	6.208391	5.434216	4.520489	5.435903	6.780564	0.228900	7.065380	-1.876980	0.747374	0.081177	0.621886	-1.000000	-1.000000	-1.000000	-1.000000	-1.000000	-1.000000	-1.000000	85.034483	0.000000	-1.000000	-1.000000	658354.000000	1772895028.403838
-5086.485000	-10720.305000	4696.605000	-1314.270000	-23700.060000	-17741.025000	-1912.995000	-2915.910000	4.055094	6.583784	8.677295	7.504060	6.023462	4.984377	3.140491	2.687272	0.228900	7.065380	-1.876980	0.747374	0.081177	0.621886	-1.000000	-1.000000	-1.000000	-1.000000	-1.000000	-1.000000	-1.000000	85.034483	0.000000	-1.000000	-1.000000	658355.000000	1772895028.407933
-5105.250000	-10718.550000	4698.090000	-1314.135000	-23697.765000	-17738.010000	-1902.465000	-2883.870000	2.898322	3.432498	4.497650	3.290935	2.485989	2.093071	-0.760994	-2.219921	0.228900	7.065380	-1.876980	0.747374	0.081177	0.621886	-1.000000	-1.000000	-1.000000	-1.000000	-1.000000	-1.000000	-1.000000	85.034483	0.000000	-1.000000	-1.000000	658356.000000	1772895028.407943
-5112.270000	-10721.115000	4702.815000	-1311.615000	-23694.120000	-17740.440000	-1904.895000	-2875.500000	-0.339816	-2.570461	-3.554472	-4.668783	-4.068684	-3.169484	-4.001824	-4.088866	0.228900	7.065380	-1.876980	0.747374	0.081177	0.621886	-1.000000	-1.000000	-1.000000	-1.000000	-1.000000	-1.000000	-1.000000	85.034483	0.000000	-1.000000	-1.000000	658357.000000	1772895028.411788
-5102.505000	-10711.170000	4712.760000	-1301.040000	-23680.440000	-17732.790000	-1907.280000	-2887.515000	-4.902798	-7.650616	-10.008690	-11.287628	-9.731829	-7.985026	-5.460070	-2.258268	0.228900	7.065380	-1.876980	0.747374	0.081177	0.621886	-1.000000	-1.000000	-1.000000	-1.000000	-1.000000	-1.000000	-1.000000	85.034483	0.000000	-1.000000	-1.000000	658358.000000	1772895028.411795
-5113.980000	-10724.265000	4700.925000	-1308.420000	-23683.500000	-17739.405000	-1929.465000	-2888.505000	-8.137748	-9.112319	-11.252111	-12.650729	-11.125806	-9.795272	-5.642842	0.062032	0.228900	7.065380	-1.876980	0.747374	0.081177	0.621886	-1.000000	-1.000000	-1.000000	-1.000000	-1.000000	-1.000000	-1.000000	85.034483	0.000000	-1.000000	-1.000000	658359.000000	1772895028.415742
-5108.040000	-10735.695000	4682.970000	-1332.090000	-23716.125000	-17763.345000	-1956.330000	-2892.600000	-7.779147	-6.884502	-7.852415	-8.799126	-8.135343	-8.104567	-5.968078	0.012467	0.228900	7.065380	-1.876980	0.747374	0.081177	0.621886	-1.000000	-1.000000	-1.000000	-1.000000	-1.000000	-1.000000	-1.000000	85.034483	0.000000	-1.000000	-1.000000	658360.000000	1772895028.415750
-5101.200000	-10722.060000	4693.275000	-1323.675000	-23712.435000	-17758.260000	-1945.890000	-2904.705000	-3.648229	-2.508745	-2.535126	-2.617340	-3.429494	-4.375202	-6.748921	-2.294604	-2.136400	6.775440	-2.533160	0.745909	0.088989	0.623534	-1.000000	-1.000000	-1.000000	-1.000000	-1.000000	-1.000000	-1.000000	85.034483	0.000000	-1.000000	-1.000000	658361.000000	1772895028.419880
-5077.125000	-10706.580000	4712.265000	-1304.460000	-23686.200000	-17742.510000	-1919.115000	-2888.190000	2.596327	2.459819	2.653154	3.304614	1.013553	0.135622	-5.469284	-4.208688	-2.136400	6.775440	-2.533160	0.745909	0.088989	0.623534	-1.000000	-1.000000	-1.000000	-1.000000	-1.000000	-1.000000	-1.000000	85.034483	0.000000	-1.000000	-1.000000	658362.000000	1772895028.419888
-5095.755000	-10708.380000	4714.020000	-1303.920000	-23703.030000	-17741.430000	-1907.415000	-2884.995000	7.934717	6.402678	6.642916	7.727360	4.918937	4.914099	0.362514	-2.711595	-2.136400	6.775440	-2.533160	0.745909	0.088989	0.623534	-1.000000	-1.000000	-1.000000	-1.000000	-1.000000	-1.000000	-1.000000	85.034483	0.000000	-1.000000	-1.000000	658363.000000	1772895028.423902
-5131.305000	-10726.695000	4697.730000	-1316.610000	-23702.625000	-17747.055000	-1916.550000	-2900.610000	8.623239	7.157934	8.015398	9.379822	7.274099	8.472531	8.471361	1.594228	-2.136400	6.775440	-2.533160	0.745909	0.088989	0.623534	-1.000000	-1.000000	-1.000000	-1.000000	-1.000000	-1.000000	-1.000000	85.034483	0.000000	-1.000000	-1.000000	658364.000000	1772895028.423908
-5115.330000	-10724.400000	4697.460000	-1315.575000	-23704.965000	-17746.965000	-1924.605000	-2908.485000	3.469616	3.649247	5.499994	7.118547	6.590642	8.663620	12.907025	3.923555	-2.136400	6.775440	-2.533160	0.745909	0.088989	0.623534	-1.000000	-1.000000	-1.000000	-1.000000	-1.000000	-1.000000	-1.000000	85.034483	0.000000	-1.000000	-1.000000	658365.000000	1772895028.429376
-5079.195000	-10703.025000	4718.430000	-1293.570000	-23695.515000	-17723.250000	-1900.440000	-2885.040000	-3.065738	-1.743268	0.403882	2.131282	3.247961	5.444935	10.590187	1.627631	-2.136400	6.775440	-2.533160	0.745909	0.088989	0.623534	-1.000000	-1.000000	-1.000000	-1.000000	-1.000000	-1.000000	-1.000000	85.034483	0.000000	-1.000000	-1.000000	658366.000000	1772895028.429383
-5089.770000	-10721.070000	4697.460000	-1314.045000	-23709.195000	-17738.955000	-1915.425000	-2870.595000	-5.220129	-5.047433	-3.980588	-2.607237	-0.906231	1.078513	4.139323	-1.915198	-2.136400	6.775440	-2.533160	0.745909	0.088989	0.623534	-1.000000	-1.000000	-1.000000	-1.000000	-1.000000	-1.000000	-1.000000	85.034483	0.000000	-1.000000	-1.000000	658367.000000	1772895028.431692
-5111.640000	-10743.930000	4671.405000	-1342.125000	-23734.530000	-17767.350000	-1932.525000	-2867.310000	-2.692826	-4.977947	-5.884783	-5.486133	-4.259066	-2.785418	-2.203524	-2.272976	-2.136400	6.775440	-2.533160	0.745909	0.088989	0.623534	-1.000000	-1.000000	-1.000000	-1.000000	-1.000000	-1.000000	-1.000000	85.034483	0.000000	-1.000000	-1.000000	658368.000000	1772895028.431698
-5126.535000	-10748.250000	4671.135000	-1344.915000	-23735.295000	-17773.155000	-1939.815000	-2881.125000	0.157944	-3.040934	-5.517779	-6.431163	-5.532393	-5.698914	-6.185550	0.564423	-2.136400	6.775440	-2.533160	0.745909	0.088989	0.623534	-1.000000	-1.000000	-1.000000	-1.000000	-1.000000	-1.000000	-1.000000	85.034483	0.000000	-1.000000	-1.000000	658369.000000	1772895028.435802
-5120.190000	-10738.845000	4682.070000	-1332.900000	-23719.995000	-17763.345000	-1933.965000	-2888.415000	0.003508	-0.898286	-3.373199	-5.301344	-3.872328	-6.863887	-7.469506	3.292721	-2.136400	6.775440	-2.533160	0.745909	0.088989	0.623534	-1.000000	-1.000000	-1.000000	-1.000000	-1.000000	-1.000000	-1.000000	85.034483	0.000000	-1.000000	-1.000000	658370.000000	1772895028.435809
-5138.100000	-10745.460000	4679.010000	-1332.450000	-23716.215000	-17761.905000	-1935.810000	-2920.095000	-2.756321	0.608110	-0.297201	-2.359135	0.023119	-5.526394	-6.840967	2.890045	-4.364360	6.287120	-2.136400	0.748472	0.087585	0.623167	-1.000000	-1.000000	-1.000000	-1.000000	-1.000000	-1.000000	-1.000000	85.034483	0.000000	-1.000000	-1.000000	658371.000000	1772895028.439939
-5134.230000	-10741.725000	4685.085000	-1327.545000	-23715.990000	-17758.530000	-1944.990000	-2939.130000	-5.123974	1.414761	2.526930	1.304757	4.158090	-2.098120	-5.395963	-1.414545	-4.364360	6.287120	-2.136400	0.748472	0.087585	0.623167	-1.000000	-1.000000	-1.000000	-1.000000	-1.000000	-1.000000	-1.000000	85.034483	0.000000	-1.000000	-1.000000	658372.000000	1772895028.439960
-5115.375000	-10741.725000	4683.420000	-1327.005000	-23711.850000	-17752.275000	-1944.405000	-2913.345000	-3.593782	2.193126	4.555592	4.582294	6.625262	2.113170	-3.520788	-6.817533	-4.364360	6.287120	-2.136400	0.748472	0.087585	0.623167	-1.000000	-1.000000	-1.000000	-1.000000	-1.000000	-1.000000	-1.000000	85.034483	0.000000	-1.000000	-1.000000	658373.000000	1772895028.448587
-5103.900000	-10732.635000	4685.040000	-1327.500000	-23707.845000	-17752.365000	-1940.490000	-2882.115000	2.426036	3.324746	5.453648	6.337278	6.352001	5.402846	-0.868465	-8.023153	-4.364360	6.287120	-2.136400	0.748472	0.087585	0.623167	-1.000000	-1.000000	-1.000000	-1.000000	-1.000000	-1.000000	-1.000000	85.034483	0.000000	-1.000000	-1.000000	658374.000000	1772895028.448594
-5104.575000	-10718.955000	4699.395000	-1314.765000	-23709.330000	-17751.015000	-1933.830000	-2878.650000	8.710686	4.200271	4.680873	5.575326	3.411478	6.069745	2.449532	-2.675856	-4.364360	6.287120	-2.136400	0.748472	0.087585	0.623167	-1.000000	-1.000000	-1.000000	-1.000000	-1.000000	-1.000000	-1.000000	85.034483	0.000000	-1.000000	-1.000000	658375.000000	1772895028.448603
-5092.605000	-10712.250000	4712.085000	-1298.115000	-23688.450000	-17730.090000	-1918.035000	-2871.900000	10.719813	4.571065	3.134733	3.371351	-0.383247	4.358534	5.948106	5.496261	-4.364360	6.287120	-2.136400	0.748472	0.087585	0.623167	-1.000000	-1.000000	-1.000000	-1.000000	-1.000000	-1.000000	-1.000000	85.034483	0.000000	-1.000000	-1.000000	658376.000000	1772895028.448607
-5099.085000	-10718.100000	4709.475000	-1297.530000	-23680.935000	-17720.820000	-1910.565000	-2864.745000	8.279170	4.883947	2.800882	2.483234	-1.890359	3.135589	9.460460	10.884473	-4.364360	6.287120	-2.136400	0.748472	0.087585	0.623167	-1.000000	-1.000000	-1.000000	-1.000000	-1.000000	-1.000000	-1.000000	85.034483	0.000000	-1.000000	-1.000000	658377.000000	1772895028.451814
-5119.605000	-10740.375000	4682.385000	-1329.885000	-23727.780000	-17750.520000	-1918.620000	-2877.885000	3.327688	4.100923	2.991378	2.818440	-0.793732	3.483009	11.589642	10.929129	-4.364360	6.287120	-2.136400	0.748472	0.087585	0.623167	-1.000000	-1.000000	-1.000000	-1.000000	-1.000000	-1.000000	-1.000000	85.034483	0.000000	-1.000000	-1.000000	658378.000000	1772895028.451820
-5126.670000	-10759.500000	4658.670000	-1355.490000	-23749.650000	-17781.345000	-1936.170000	-2901.420000	-3.070352	-0.116267	0.107923	0.399004	-1.553896	1.913543	9.221072	6.121137	-4.364360	6.287120	-2.136400	0.748472	0.087585	0.623167	-1.000000	-1.000000	-1.000000	-1.000000	-1.000000	-1.000000	-1.000000	85.034483	0.000000	-1.000000	-1.000000	658379.000000	1772895028.457101
-5121.495000	-10751.715000	4666.995000	-1346.265000	-23738.625000	-17775.180000	-1931.580000	-2905.425000	-9.026498	-7.296920	-6.747079	-6.416874	-6.574210	-4.178406	1.265699	-1.155517	-4.364360	6.287120	-2.136400	0.748472	0.087585	0.623167	-1.000000	-1.000000	-1.000000	-1.000000	-1.000000	-1.000000	-1.000000	85.034483	0.000000	-1.000000	-1.000000	658380.000000	1772895028.457110
-5116.680000	-10745.190000	4671.135000	-1344.150000	-23734.890000	-17770.095000	-1924.290000	-2893.905000	-11.261982	-12.735740	-12.951602	-13.108344	-11.478364	-11.357606	-8.340694	-7.109925	-2.227960	5.142620	-2.685760	0.750853	0.080566	0.625120	-1.000000	-1.000000	-1.000000	-1.000000	-1.000000	-1.000000	-1.000000	85.034483	0.000000	-1.000000	-1.000000	658381.000000	1772895028.459830
-5119.695000	-10741.815000	4668.705000	-1345.365000	-23733.720000	-17769.105000	-1937.385000	-2894.535000	-8.664581	-12.049406	-13.213760	-13.943755	-10.844837	-13.803769	-13.929410	-9.233630	-2.227960	5.142620	-2.685760	0.750853	0.080566	0.625120	-1.000000	-1.000000	-1.000000	-1.000000	-1.000000	-1.000000	-1.000000	85.034483	0.000000	-1.000000	-1.000000	658382.000000	1772895028.459837
-5108.670000	-10712.025000	4702.320000	-1312.605000	-23701.725000	-17739.495000	-1928.925000	-2899.305000	-3.619916	-5.279429	-6.629549	-7.542757	-3.834875	-9.087902	-13.322776	-8.429877	-2.227960	5.142620	-2.685760	0.750853	0.080566	0.625120	-1.000000	-1.000000	-1.000000	-1.000000	-1.000000	-1.000000	-1.000000	85.034483	0.000000	-1.000000	-1.000000	658383.000000	1772895028.463832
-5109.030000	-10717.470000	4699.890000	-1316.025000	-23709.915000	-17748.315000	-1936.665000	-2905.245000	1.078245	3.866594	3.495439	2.956443	6.253432	0.596616	-8.189686	-6.776505	-2.227960	5.142620	-2.685760	0.750853	0.080566	0.625120	-1.000000	-1.000000	-1.000000	-1.000000	-1.000000	-1.000000	-1.000000	85.034483	0.000000	-1.000000	-1.000000	658384.000000	1772895028.463851
-5104.800000	-10744.020000	4680.450000	-1327.635000	-23719.995000	-17758.305000	-1939.050000	-2890.890000	4.297190	10.390086	11.742167	11.920808	13.819735	9.706692	-1.624964	-4.639538	-2.227960	5.142620	-2.685760	0.750853	0.080566	0.625120	-1.000000	-1.000000	-1.000000	-1.000000	-1.000000	-1.000000	-1.000000	85.034483	0.000000	-1.000000	-1.000000	658385.000000	1772895028.467728
-5091.705000	-10728.540000	4699.845000	-1312.020000	-23705.685000	-17747.865000	-1931.265000	-2882.070000	6.233045	11.046736	13.959984	14.908423	14.734631	13.237829	3.794871	-0.909106	-2.227960	5.142620	-2.685760	0.750853	0.080566	0.625120	-1.000000	-1.000000	-1.000000	-1.000000	-1.000000	-1.000000	-1.000000	85.034483	0.000000	-1.000000	-1.000000	658386.000000	1772895028.467736
-5085.000000	-10723.950000	4695.930000	-1319.220000	-23711.670000	-17747.370000	-1917.810000	-2876.580000	7.570799	7.206246	10.667892	12.098974	10.153506	11.068924	7.325253	4.907635	-2.227960	5.142620	-2.685760	0.750853	0.080566	0.625120	-1.000000	-1.000000	-1.000000	-1.000000	-1.000000	-1.000000	-1.000000	85.034483	0.000000	-1.000000	-1.000000	658387.000000	1772895028.472080
-5108.040000	-10732.140000	4686.660000	-1328.085000	-23717.970000	-17750.745000	-1904.400000	-2883.915000	7.792159	2.619268	5.069090	6.342064	3.865989	6.488309	9.498937	11.164398	-2.227960	5.142620	-2.685760	0.750853	0.080566	0.625120	-1.000000	-1.000000	-1.000000	-1.000000	-1.000000	-1.000000	-1.000000	85.034483	0.000000	-1.000000	-1.000000	658388.000000	1772895028.472088
-5117.760000	-10729.710000	4697.100000	-1315.485000	-23703.480000	-17742.780000	-1902.465000	-2893.815000	4.918249	-0.981496	-0.752407	-0.215280	-1.954043	1.782882	10.166550	14.305346	-2.227960	5.142620	-2.685760	0.750853	0.080566	0.625120	-1.000000	-1.000000	-1.000000	-1.000000	-1.000000	-1.000000	-1.000000	85.034483	0.000000	-1.000000	-1.000000	658389.000000	1772895028.483457
-5126.625000	-10739.565000	4695.075000	-1311.525000	-23694.615000	-17737.875000	-1909.845000	-2899.395000	-1.566339	-3.897508	-5.596264	-5.802518	-6.233104	-2.419928	8.070407	11.111446	-2.227960	5.142620	-2.685760	0.750853	0.080566	0.625120	-1.000000	-1.000000	-1.000000	-1.000000	-1.000000	-1.000000	-1.000000	85.034483	0.000000	-1.000000	-1.000000	658390.000000	1772895028.483472
-5108.265000	-10719.495000	4713.030000	-1295.865000	-23679.090000	-17723.880000	-1910.070000	-2885.535000	-8.701398	-6.204961	-8.217178	-8.667747	-7.997956	-5.604138	2.763729	2.098239	0.274680	5.035800	-2.868880	0.751341	0.078308	0.627318	-1.000000	-1.000000	-1.000000	-1.000000	-1.000000	-1.000000	-1.000000	85.034483	0.000000	-1.000000	-1.000000	658391.000000	1772895028.483485
-5084.865000	-10685.880000	4737.780000	-1274.985000	-23662.530000	-17706.240000	-1912.635000	-2887.560000	-11.771646	-6.746255	-7.919019	-8.256697	-7.156043	-7.034231	-4.050745	-7.757348	0.274680	5.035800	-2.868880	0.751341	0.078308	0.627318	-1.000000	-1.000000	-1.000000	-1.000000	-1.000000	-1.000000	-1.000000	85.034483	0.000000	-1.000000	-1.000000	658392.000000	1772895028.483491
-5063.220000	-10674.945000	4745.520000	-1269.540000	-23662.755000	-17701.245000	-1899.720000	-2865.195000	-7.977040	-3.798552	-4.681530	-5.144208	-4.439328	-6.065560	-9.248259	-12.843290	0.274680	5.035800	-2.868880	0.751341	0.078308	0.627318	-1.000000	-1.000000	-1.000000	-1.000000	-1.000000	-1.000000	-1.000000	85.034483	0.000000	-1.000000	-1.000000	658393.000000	1772895028.484218
-5078.160000	-10700.595000	4723.605000	-1288.215000	-23677.200000	-17719.425000	-1899.855000	-2857.050000	0.619682	2.049972	0.167147	-0.896909	-1.245206	-3.192743	-10.210966	-11.016381	0.274680	5.035800	-2.868880	0.751341	0.078308	0.627318	-1.000000	-1.000000	-1.000000	-1.000000	-1.000000	-1.000000	-1.000000	85.034483	0.000000	-1.000000	-1.000000	658394.000000	1772895028.484225
-5094.945000	-10719.495000	4703.445000	-1306.395000	-23698.440000	-17736.480000	-1908.495000	-2875.005000	7.778650	6.271360	3.205177	1.683514	0.334202	-0.790073	-7.132314	-4.692715	0.274680	5.035800	-2.868880	0.751341	0.078308	0.627318	-1.000000	-1.000000	-1.000000	-1.000000	-1.000000	-1.000000	-1.000000	85.034483	0.000000	-1.000000	-1.000000	658395.000000	1772895028.487931
-5103.945000	-10733.670000	4688.685000	-1323.675000	-23716.305000	-17751.555000	-1918.935000	-2899.980000	8.431221	4.673526	1.848299	0.797988	-0.799738	-0.857866	-3.000159	1.149953	0.274680	5.035800	-2.868880	0.751341	0.078308	0.627318	-1.000000	-1.000000	-1.000000	-1.000000	-1.000000	-1.000000	-1.000000	85.034483	0.000000	-1.000000	-1.000000	658396.000000	1772895028.487941
-5123.475000	-10749.240000	4679.370000	-1332.495000	-23721.615000	-17760.105000	-1930.140000	-2929.815000	3.153223	-1.804415	-2.525782	-2.346832	-3.405948	-2.791586	-0.710676	2.815301	0.274680	5.035800	-2.868880	0.751341	0.078308	0.627318	-1.000000	-1.000000	-1.000000	-1.000000	-1.000000	-1.000000	-1.000000	85.034483	0.000000	-1.000000	-1.000000	658397.000000	1772895028.491938
-5126.265000	-10750.680000	4683.960000	-1325.430000	-23713.380000	-17748.450000	-1922.400000	-2930.355000	-3.493782	-8.373354	-6.184008	-4.927481	-5.027442	-4.260278	-0.517807	0.434689	0.274680	5.035800	-2.868880	0.751341	0.078308	0.627318	-1.000000	-1.000000	-1.000000	-1.000000	-1.000000	-1.000000	-1.000000	85.034483	0.000000	-1.000000	-1.000000	658398.000000	1772895028.491945
-5117.445000	-10751.355000	4678.110000	-1332.405000	-23721.210000	-17753.670000	-1929.960000	-2912.850000	-7.147313	-10.523706	-6.295745	-4.782726	-4.008317	-3.301401	-0.298797	-2.520843	0.274680	5.035800	-2.868880	0.751341	0.078308	0.627318	-1.000000	-1.000000	-1.000000	-1.000000	-1.000000	-1.000000	-1.000000	85.034483	0.000000	-1.000000	-1.000000	658399.000000	1772895028.495889
-5103.315000	-10736.820000	4682.115000	-1332.675000	-23723.280000	-17762.940000	-1939.005000	-2884.005000	-6.112809	-7.118110	-2.971291	-2.062656	-0.920690	-0.313403	1.405765	-2.079816	0.274680	5.035800	-2.868880	0.751341	0.078308	0.627318	-1.000000	-1.000000	-1.000000	-1.000000	-1.000000	-1.000000	-1.000000	85.034483	0.000000	-1.000000	-1.000000	658400.000000	1772895028.495896
-5102.730000	-10723.140000	4690.260000	-1326.555000	-23716.440000	-17758.890000	-1937.880000	-2878.830000	-1.936427	-0.523633	1.389051	1.297434	2.391881	2.460954	3.735898	2.756674	-1.693860	3.143560	-1.541260	0.753599	0.083435	0.631712	-1.000000	-1.000000	-1.000000	-1.000000	-1.000000	-1.000000	-1.000000	85.034483	0.000000	-1.000000	-1.000000	658401.000000	1772895028.502369
-5100.030000	-10732.095000	4677.480000	-1338.435000	-23727.465000	-17765.910000	-1938.780000	-2884.140000	2.292892	6.151085	4.906520	4.008538	5.016639	3.951732	5.144345	8.447489	-1.693860	3.143560	-1.541260	0.753599	0.083435	0.631712	-1.000000	-1.000000	-1.000000	-1.000000	-1.000000	-1.000000	-1.000000	85.034483	0.000000	-1.000000	-1.000000	658402.000000	1772895028.502378
-5100.930000	-10729.980000	4681.215000	-1333.305000	-23722.155000	-17757.810000	-1922.535000	-2880.315000	4.774101	10.885643	7.224351	6.085529	7.030963	5.041703	5.195388	10.082661	-1.693860	3.143560	-1.541260	0.753599	0.083435	0.631712	-1.000000	-1.000000	-1.000000	-1.000000	-1.000000	-1.000000	-1.000000	85.034483	0.000000	-1.000000	-1.000000	658403.000000	1772895028.503827
-5115.330000	-10740.105000	4673.520000	-1340.685000	-23728.455000	-17765.505000	-1923.795000	-2892.060000	5.502833	12.567574	8.540737	7.816775	8.547500	6.647557	4.661310	6.555199	-1.693860	3.143560	-1.541260	0.753599	0.083435	0.631712	-1.000000	-1.000000	-1.000000	-1.000000	-1.000000	-1.000000	-1.000000	85.034483	0.000000	-1.000000	-1.000000	658404.000000	1772895028.503835
-5138.010000	-10760.535000	4671.000000	-1340.775000	-23729.355000	-17767.890000	-1928.025000	-2910.690000	4.590563	10.482333	8.638621	8.820437	9.097665	8.108459	4.028292	0.768753	-1.693860	3.143560	-1.541260	0.753599	0.083435	0.631712	-1.000000	-1.000000	-1.000000	-1.000000	-1.000000	-1.000000	-1.000000	85.034483	0.000000	-1.000000	-1.000000	658405.000000	1772895028.508090
-5139.315000	-10747.890000	4690.440000	-1321.245000	-23713.020000	-17753.805000	-1925.235000	-2916.315000	2.171303	4.968332	7.000942	8.137374	7.663530	7.735276	2.751002	-3.974906	-1.693860	3.143560	-1.541260	0.753599	0.083435	0.631712	-1.000000	-1.000000	-1.000000	-1.000000	-1.000000	-1.000000	-1.000000	85.034483	0.000000	-1.000000	-1.000000	658406.000000	1772895028.508096
-5116.230000	-10735.605000	4690.170000	-1323.765000	-23715.045000	-17758.170000	-1939.590000	-2908.440000	-0.366541	-1.439005	3.768572	5.272149	3.818130	4.603480	0.255148	-6.106447	-1.693860	3.143560	-1.541260	0.753599	0.083435	0.631712	-1.000000	-1.000000	-1.000000	-1.000000	-1.000000	-1.000000	-1.000000	85.034483	0.000000	-1.000000	-1.000000	658407.000000	1772895028.511915
-5082.705000	-10734.345000	4689.585000	-1323.990000	-23715.990000	-17761.095000	-1946.880000	-2893.095000	-0.996026	-5.789254	-0.469539	0.499704	-1.673791	-0.738817	-3.202050	-5.888009	-1.693860	3.143560	-1.541260	0.753599	0.083435	0.631712	-1.000000	-1.000000	-1.000000	-1.000000	-1.000000	-1.000000	-1.000000	85.034483	0.000000	-1.000000	-1.000000	658408.000000	1772895028.511924
-5066.100000	-10715.445000	4713.660000	-1298.520000	-23689.215000	-17733.825000	-1927.800000	-2896.515000	0.774672	-7.444845	-4.922047	-4.890654	-6.866602	-6.108412	-6.002486	-4.592428	-1.693860	3.143560	-1.541260	0.753599	0.083435	0.631712	-1.000000	-1.000000	-1.000000	-1.000000	-1.000000	-1.000000	-1.000000	85.034483	0.000000	-1.000000	-1.000000	658409.000000	1772895028.516032
-5087.790000	-10718.505000	4706.685000	-1306.485000	-23695.380000	-17740.215000	-1931.805000	-2900.520000	2.729059	-7.205250	-8.045322	-8.585990	-9.289729	-8.601481	-6.085511	-3.419403	-1.693860	3.143560	-1.541260	0.753599	0.083435	0.631712	-1.000000	-1.000000	-1.000000	-1.000000	-1.000000	-1.000000	-1.000000	85.034483	0.000000	-1.000000	-1.000000	658410.000000	1772895028.516040
-5114.790000	-10726.875000	4698.000000	-1315.440000	-23706.225000	-17751.825000	-1940.085000	-2898.855000	1.457503	-5.592088	-8.556161	-9.161380	-8.166891	-7.439943	-3.612247	-2.586689	-3.143560	3.235120	-1.617560	0.755796	0.083862	0.632445	-1.000000	-1.000000	-1.000000	-1.000000	-1.000000	-1.000000	-1.000000	84.965517	0.000000	-1.000000	-1.000000	658411.000000	1772895028.519885
-5112.090000	-10734.840000	4690.665000	-1324.080000	-23716.440000	-17759.520000	-1943.235000	-2884.545000	-3.710441	-3.155981	-6.731630	-7.274577	-5.183280	-4.612145	-1.023114	-1.079566	-3.143560	3.235120	-1.617560	0.755796	0.083862	0.632445	-1.000000	-1.000000	-1.000000	-1.000000	-1.000000	-1.000000	-1.000000	84.965517	0.000000	-1.000000	-1.000000	658412.000000	1772895028.519908
-5127.975000	-10747.665000	4672.845000	-1345.590000	-23737.140000	-17777.295000	-1942.965000	-2876.265000	-8.958720	-0.653399	-3.876201	-4.527685	-2.519436	-2.275842	0.108635	2.413032	-3.143560	3.235120	-1.617560	0.755796	0.083862	0.632445	-1.000000	-1.000000	-1.000000	-1.000000	-1.000000	-1.000000	-1.000000	84.965517	0.000000	-1.000000	-1.000000	658413.000000	1772895028.524382
-5165.460000	-10777.185000	4650.750000	-1364.670000	-23751.180000	-17787.870000	-1938.330000	-2898.675000	-10.180311	1.057173	-1.663944	-2.562441	-1.485049	-1.339000	0.455114	7.308627	-3.143560	3.235120	-1.617560	0.755796	0.083862	0.632445	-1.000000	-1.000000	-1.000000	-1.000000	-1.000000	-1.000000	-1.000000	84.965517	0.000000	-1.000000	-1.000000	658414.000000	1772895028.524392
-5154.525000	-10773.720000	4657.095000	-1355.715000	-23742.000000	-17780.265000	-1933.830000	-2903.310000	-7.141503	0.994763	-1.264105	-2.176425	-2.027010	-1.564655	1.292980	10.155239	-3.143560	3.235120	-1.617560	0.755796	0.083862	0.632445	-1.000000	-1.000000	-1.000000	-1.000000	-1.000000	-1.000000	-1.000000	84.965517	0.000000	-1.000000	-1.000000	658415.000000	1772895028.529448
-5133.780000	-10760.355000	4668.120000	-1344.555000	-23731.605000	-17770.005000	-1932.705000	-2888.820000	-1.987760	-0.445694	-1.540335	-1.872920	-2.168684	-1.364610	3.006055	7.797199	-3.143560	3.235120	-1.617560	0.755796	0.083862	0.632445	-1.000000	-1.000000	-1.000000	-1.000000	-1.000000	-1.000000	-1.000000	84.965517	0.000000	-1.000000	-1.000000	658416.000000	1772895028.529455
-5118.750000	-10733.175000	4692.510000	-1319.670000	-23708.700000	-17747.595000	-1922.265000	-2878.380000	3.206039	-0.936627	0.102858	0.789709	0.358712	1.041090	4.888870	1.057845	-3.143560	3.235120	-1.617560	0.755796	0.083862	0.632445	-1.000000	-1.000000	-1.000000	-1.000000	-1.000000	-1.000000	-1.000000	84.965517	0.000000	-1.000000	-1.000000	658417.000000	1772895028.531723
-5105.745000	-10726.920000	4696.920000	-1317.780000	-23704.605000	-17745.120000	-1921.365000	-2882.295000	7.044758	1.097966	4.204538	5.722730	5.162881	5.173213	5.463128	-6.060294	-3.143560	3.235120	-1.617560	0.755796	0.083862	0.632445	-1.000000	-1.000000	-1.000000	-1.000000	-1.000000	-1.000000	-1.000000	84.965517	0.000000	-1.000000	-1.000000	658418.000000	1772895028.531732
-5101.785000	-10732.590000	4688.730000	-1328.850000	-23713.785000	-17755.155000	-1922.220000	-2880.225000	9.406621	4.540961	8.400217	9.946054	9.254762	8.282200	3.639186	-9.839159	-3.143560	3.235120	-1.617560	0.755796	0.083862	0.632445	-1.000000	-1.000000	-1.000000	-1.000000	-1.000000	-1.000000	-1.000000	84.965517	0.000000	-1.000000	-1.000000	658419.000000	1772895028.535764
-5105.745000	-10736.055000	4685.445000	-1329.840000	-23716.890000	-17760.330000	-1929.420000	-2894.805000	10.578617	6.892958	9.876907	10.577645	9.927288	8.042878	-0.114642	-9.269293	-3.143560	3.235120	-1.617560	0.755796	0.083862	0.632445	-1.000000	-1.000000	-1.000000	-1.000000	-1.000000	-1.000000	-1.000000	84.965517	0.000000	-1.000000	-1.000000	658420.000000	1772895028.535772
-5116.005000	-10743.390000	4677.660000	-1332.090000	-23721.570000	-17759.520000	-1923.615000	-2899.845000	9.609167	6.499553	7.621605	7.317762	6.873370	4.589134	-4.060826	-6.066280	-2.365300	4.089680	0.183120	0.759275	0.082336	0.628966	-1.000000	-1.000000	-1.000000	-1.000000	-1.000000	-1.000000	-1.000000	84.965517	0.000000	-1.000000	-1.000000	658421.000000	1772895028.539736
-5120.865000	-10749.105000	4672.530000	-1336.095000	-23720.265000	-17757.225000	-1918.440000	-2892.870000	5.683084	3.678647	2.898040	2.304124	2.053066	0.230161	-6.209009	-2.114706	-2.365300	4.089680	0.183120	0.759275	0.082336	0.628966	-1.000000	-1.000000	-1.000000	-1.000000	-1.000000	-1.000000	-1.000000	84.965517	0.000000	-1.000000	-1.000000	658422.000000	1772895028.539745
-5113.215000	-10734.525000	4686.750000	-1323.855000	-23700.195000	-17746.290000	-1915.155000	-2886.345000	0.323358	0.357497	-1.799945	-1.975635	-1.977683	-2.676838	-5.563539	2.427092	-2.365300	4.089680	0.183120	0.759275	0.082336	0.628966	-1.000000	-1.000000	-1.000000	-1.000000	-1.000000	-1.000000	-1.000000	84.965517	0.000000	-1.000000	-1.000000	658423.000000	1772895028.543726
-5104.080000	-10730.880000	4687.065000	-1327.950000	-23705.415000	-17754.435000	-1928.880000	-2890.890000	-4.286474	-1.824592	-4.606115	-4.515685	-4.008852	-3.724855	-3.010117	7.052988	-2.365300	4.089680	0.183120	0.759275	0.082336	0.628966	-1.000000	-1.000000	-1.000000	-1.000000	-1.000000	-1.000000	-1.000000	84.965517	0.000000	-1.000000	-1.000000	658424.000000	1772895028.543732
-5109.480000	-10738.440000	4682.835000	-1328.220000	-23704.290000	-17755.470000	-1935.945000	-2891.790000	-7.922820	-3.353121	-5.703160	-6.019223	-4.930928	-4.311640	-0.607132	9.044113	-2.365300	4.089680	0.183120	0.759275	0.082336	0.628966	-1.000000	-1.000000	-1.000000	-1.000000	-1.000000	-1.000000	-1.000000	84.965517	0.000000	-1.000000	-1.000000	658425.000000	1772895028.549666
-5108.580000	-10732.905000	4692.330000	-1320.255000	-23714.595000	-17753.490000	-1929.915000	-2889.270000	-11.191360	-5.769150	-6.470330	-7.421371	-6.373531	-5.641809	0.242546	6.344293	-2.365300	4.089680	0.183120	0.759275	0.082336	0.628966	-1.000000	-1.000000	-1.000000	-1.000000	-1.000000	-1.000000	-1.000000	84.965517	0.000000	-1.000000	-1.000000	658426.000000	1772895028.549674
-5114.205000	-10735.290000	4693.230000	-1317.420000	-23700.555000	-17750.295000	-1936.125000	-2892.690000	-13.092045	-8.594927	-6.917122	-7.996651	-8.123265	-6.890013	-0.104047	0.583933	-2.365300	4.089680	0.183120	0.759275	0.082336	0.628966	-1.000000	-1.000000	-1.000000	-1.000000	-1.000000	-1.000000	-1.000000	84.965517	0.000000	-1.000000	-1.000000	658427.000000	1772895028.552212
-5115.330000	-10725.390000	4704.255000	-1307.385000	-23698.665000	-17742.465000	-1940.310000	-2901.600000	-11.452001	-8.963154	-5.290822	-5.765835	-7.541749	-5.668547	-0.338431	-4.605105	-2.365300	4.089680	0.183120	0.759275	0.082336	0.628966	-1.000000	-1.000000	-1.000000	-1.000000	-1.000000	-1.000000	-1.000000	84.965517	0.000000	-1.000000	-1.000000	658428.000000	1772895028.552218
-5118.660000	-10722.060000	4705.380000	-1308.735000	-23708.250000	-17745.390000	-1942.290000	-2923.110000	-5.427139	-4.788765	-0.678558	-0.304845	-3.027842	-0.943168	0.337623	-6.927722	-2.365300	4.089680	0.183120	0.759275	0.082336	0.628966	-1.000000	-1.000000	-1.000000	-1.000000	-1.000000	-1.000000	-1.000000	84.965517	0.000000	-1.000000	-1.000000	658429.000000	1772895028.557508
-5129.145000	-10736.325000	4690.530000	-1320.255000	-23709.735000	-17754.435000	-1938.150000	-2928.330000	3.140615	2.548939	5.076539	5.823120	3.395044	5.034884	1.738716	-6.369041	-2.365300	4.089680	0.183120	0.759275	0.082336	0.628966	-1.000000	-1.000000	-1.000000	-1.000000	-1.000000	-1.000000	-1.000000	84.965517	0.000000	-1.000000	-1.000000	658430.000000	1772895028.557516
-5127.930000	-10745.370000	4682.790000	-1327.905000	-23712.165000	-17751.195000	-1917.045000	-2896.380000	10.742320	8.815286	8.404004	8.903044	8.046243	8.531010	3.311800	-3.466167	-2.075360	3.128300	1.022420	0.757139	0.083679	0.628233	-1.000000	-1.000000	-1.000000	-1.000000	-1.000000	-1.000000	-1.000000	84.965517	0.000000	-1.000000	-1.000000	658431.000000	1772895028.559782
-5107.680000	-10723.455000	4704.570000	-1306.395000	-23690.070000	-17725.995000	-1896.210000	-2862.855000	14.378162	10.418728	7.193294	7.280898	8.680641	7.927357	5.005346	1.997207	-2.075360	3.128300	1.022420	0.757139	0.083679	0.628233	-1.000000	-1.000000	-1.000000	-1.000000	-1.000000	-1.000000	-1.000000	84.965517	0.000000	-1.000000	-1.000000	658432.000000	1772895028.559788
-5091.930000	-10707.075000	4718.745000	-1293.435000	-23680.575000	-17720.505000	-1895.085000	-2858.535000	13.115903	7.531899	3.030453	2.952741	6.051722	4.894803	6.793866	8.936208	-2.075360	3.128300	1.022420	0.757139	0.083679	0.628233	-1.000000	-1.000000	-1.000000	-1.000000	-1.000000	-1.000000	-1.000000	84.965517	0.000000	-1.000000	-1.000000	658433.000000	1772895028.563717
-5106.465000	-10737.720000	4686.210000	-1329.255000	-23730.165000	-17758.890000	-1931.895000	-2890.260000	7.869398	2.547268	-1.310790	-1.359327	1.860865	1.129148	6.829102	12.899703	-2.075360	3.128300	1.022420	0.757139	0.083679	0.628233	-1.000000	-1.000000	-1.000000	-1.000000	-1.000000	-1.000000	-1.000000	84.965517	0.000000	-1.000000	-1.000000	658434.000000	1772895028.563723
-5115.375000	-10766.430000	4660.605000	-1352.205000	-23745.015000	-17780.220000	-1962.990000	-2923.965000	0.260125	-3.491887	-5.498908	-5.577133	-3.755527	-3.938686	2.018281	8.988892	-2.075360	3.128300	1.022420	0.757139	0.083679	0.628233	-1.000000	-1.000000	-1.000000	-1.000000	-1.000000	-1.000000	-1.000000	84.965517	0.000000	-1.000000	-1.000000	658435.000000	1772895028.576328
-5096.565000	-10748.565000	4677.390000	-1336.050000	-23731.515000	-17768.880000	-1944.450000	-2916.090000	-6.993428	-9.459543	-9.380374	-9.508898	-9.514546	-9.656561	-6.996992	-2.202576	-2.075360	3.128300	1.022420	0.757139	0.083679	0.628233	-1.000000	-1.000000	-1.000000	-1.000000	-1.000000	-1.000000	-1.000000	84.965517	0.000000	-1.000000	-1.000000	658436.000000	1772895028.576336
-5115.870000	-10732.095000	4693.545000	-1321.470000	-23716.170000	-17756.055000	-1932.390000	-2916.495000	-10.501475	-11.670419	-10.001498	-10.042967	-11.158516	-11.993514	-13.849984	-13.217532	-2.075360	3.128300	1.022420	0.757139	0.083679	0.628233	-1.000000	-1.000000	-1.000000	-1.000000	-1.000000	-1.000000	-1.000000	84.965517	0.000000	-1.000000	-1.000000	658437.000000	1772895028.576344
-5129.550000	-10717.335000	4707.045000	-1310.490000	-23704.470000	-17748.855000	-1939.275000	-2918.070000	-9.322549	-7.074646	-4.697968	-4.626026	-5.664827	-7.669638	-12.899340	-16.151872	-2.075360	3.128300	1.022420	0.757139	0.083679	0.628233	-1.000000	-1.000000	-1.000000	-1.000000	-1.000000	-1.000000	-1.000000	84.965517	0.000000	-1.000000	-1.000000	658438.000000	1772895028.576348
-5112.360000	-10719.045000	4701.690000	-1315.260000	-23705.280000	-17750.070000	-1946.070000	-2911.905000	-5.068973	2.823494	4.969847	4.946999	4.691091	1.783746	-5.393667	-9.658114	-2.075360	3.128300	1.022420	0.757139	0.083679	0.628233	-1.000000	-1.000000	-1.000000	-1.000000	-1.000000	-1.000000	-1.000000	84.965517	0.000000	-1.000000	-1.000000	658439.000000	1772895028.576352
-5112.000000	-10730.745000	4687.380000	-1325.925000	-23710.455000	-17751.870000	-1927.350000	-2900.115000	0.370357	12.144453	13.262221	13.021797	13.300639	10.659509	2.908300	0.853948	-2.075360	3.128300	1.022420	0.757139	0.083679	0.628233	-1.000000	-1.000000	-1.000000	-1.000000	-1.000000	-1.000000	-1.000000	84.965517	0.000000	-1.000000	-1.000000	658440.000000	1772895028.576355
-5120.820000	-10752.120000	4671.720000	-1341.720000	-23724.810000	-17766.630000	-1932.705000	-2891.790000	4.346004	14.065565	13.928526	13.763087	13.999072	13.090272	7.654918	8.500855	-3.601360	2.334780	1.556520	0.751829	0.088074	0.628477	-1.000000	-1.000000	-1.000000	-1.000000	-1.000000	-1.000000	-1.000000	84.965517	0.000000	-1.000000	-1.000000	658441.000000	1772895028.581291
-5122.395000	-10760.715000	4667.490000	-1345.950000	-23728.905000	-17773.470000	-1946.520000	-2893.185000	4.310884	6.369021	5.745570	6.093971	6.159779	7.681537	7.996237	10.147241	-3.601360	2.334780	1.556520	0.751829	0.088074	0.628477	-1.000000	-1.000000	-1.000000	-1.000000	-1.000000	-1.000000	-1.000000	84.965517	0.000000	-1.000000	-1.000000	658442.000000	1772895028.581301
-5120.640000	-10737.630000	4691.655000	-1321.065000	-23714.955000	-17749.215000	-1921.995000	-2916.855000	1.137891	-5.120394	-5.046777	-4.100330	-3.973165	-0.636887	6.042877	7.260343	-3.601360	2.334780	1.556520	0.751829	0.088074	0.628477	-1.000000	-1.000000	-1.000000	-1.000000	-1.000000	-1.000000	-1.000000	84.965517	0.000000	-1.000000	-1.000000	658443.000000	1772895028.583957
-5134.185000	-10735.605000	4697.685000	-1311.255000	-23704.065000	-17733.915000	-1902.420000	-2941.965000	-1.837723	-11.151110	-9.923119	-8.714933	-8.702015	-4.717469	5.254333	2.626059	-3.601360	2.334780	1.556520	0.751829	0.088074	0.628477	-1.000000	-1.000000	-1.000000	-1.000000	-1.000000	-1.000000	-1.000000	84.965517	0.000000	-1.000000	-1.000000	658444.000000	1772895028.583964
-5112.045000	-10725.930000	4701.195000	-1310.805000	-23694.255000	-17732.295000	-1896.165000	-2913.210000	-2.460355	-8.257954	-6.536337	-5.571582	-6.134920	-2.451676	6.398233	-1.713027	-3.601360	2.334780	1.556520	0.751829	0.088074	0.628477	-1.000000	-1.000000	-1.000000	-1.000000	-1.000000	-1.000000	-1.000000	84.965517	0.000000	-1.000000	-1.000000	658445.000000	1772895028.588047
-5099.805000	-10732.455000	4688.100000	-1328.220000	-23710.320000	-17756.865000	-1918.305000	-2877.795000	0.040711	-0.958019	-0.082104	0.145009	-0.700713	1.535759	6.072498	-3.208091	-3.601360	2.334780	1.556520	0.751829	0.088074	0.628477	-1.000000	-1.000000	-1.000000	-1.000000	-1.000000	-1.000000	-1.000000	84.965517	0.000000	-1.000000	-1.000000	658446.000000	1772895028.588064
-5093.280000	-10753.245000	4665.735000	-1350.405000	-23728.095000	-17775.585000	-1937.880000	-2871.495000	5.102663	4.160611	3.086193	2.263934	1.972972	1.570948	1.029103	-0.117008	-3.601360	2.334780	1.556520	0.751829	0.088074	0.628477	-1.000000	-1.000000	-1.000000	-1.000000	-1.000000	-1.000000	-1.000000	84.965517	0.000000	-1.000000	-1.000000	658447.000000	1772895028.591901
-5107.230000	-10760.940000	4658.040000	-1360.665000	-23751.315000	-17786.340000	-1944.945000	-2889.945000	9.227840	3.973620	1.056727	-0.715097	-0.434582	-3.379308	-7.793959	4.534967	-3.601360	2.334780	1.556520	0.751829	0.088074	0.628477	-1.000000	-1.000000	-1.000000	-1.000000	-1.000000	-1.000000	-1.000000	84.965517	0.000000	-1.000000	-1.000000	658448.000000	1772895028.591921
-5117.625000	-10739.880000	4681.485000	-1340.370000	-23746.005000	-17777.115000	-1942.965000	-2901.510000	7.976576	0.475847	-2.864631	-5.109959	-5.619415	-9.269740	-15.849853	4.691128	-3.601360	2.334780	1.556520	0.751829	0.088074	0.628477	-1.000000	-1.000000	-1.000000	-1.000000	-1.000000	-1.000000	-1.000000	84.965517	0.000000	-1.000000	-1.000000	658449.000000	1772895028.595743
-5098.545000	-10732.725000	4692.015000	-1326.510000	-23722.920000	-17762.130000	-1926.810000	-2893.770000	1.062708	-1.628416	-3.657509	-5.680001	-8.327648	-10.551122	-17.829919	-1.627308	-3.601360	2.334780	1.556520	0.751829	0.088074	0.628477	-1.000000	-1.000000	-1.000000	-1.000000	-1.000000	-1.000000	-1.000000	84.965517	0.000000	-1.000000	-1.000000	658450.000000	1772895028.595809
-5075.370000	-10721.970000	4708.890000	-1304.145000	-23695.605000	-17737.560000	-1916.055000	-2884.275000	-6.380598	0.196288	0.455967	-0.438662	-4.288670	-4.523608	-10.928615	-9.325510	-7.050120	2.090620	1.403920	0.753111	0.085876	0.626158	-1.000000	-1.000000	-1.000000	-1.000000	-1.000000	-1.000000	-1.000000	84.965517	0.000000	-1.000000	-1.000000	658451.000000	1772895028.603380
-5102.550000	-10738.530000	4688.685000	-1322.955000	-23710.365000	-17747.505000	-1923.795000	-2887.245000	-9.182450	3.834987	6.150323	7.121669	5.190405	5.793132	1.846913	-11.236824	-7.050120	2.090620	1.403920	0.753111	0.085876	0.626158	-1.000000	-1.000000	-1.000000	-1.000000	-1.000000	-1.000000	-1.000000	84.965517	0.000000	-1.000000	-1.000000	658452.000000	1772895028.603388
-5127.300000	-10728.990000	4696.380000	-1315.620000	-23704.290000	-17740.035000	-1920.195000	-2902.230000	-7.654525	5.119590	8.159104	10.822723	13.127040	13.343263	12.721409	-5.571766	-7.050120	2.090620	1.403920	0.753111	0.085876	0.626158	-1.000000	-1.000000	-1.000000	-1.000000	-1.000000	-1.000000	-1.000000	84.965517	0.000000	-1.000000	-1.000000	658453.000000	1772895028.603904
-5128.470000	-10739.745000	4688.280000	-1324.845000	-23713.020000	-17752.770000	-1936.755000	-2928.285000	-5.612676	2.224983	4.471902	7.675989	13.422194	13.197514	15.577362	1.969799	-7.050120	2.090620	1.403920	0.753111	0.085876	0.626158	-1.000000	-1.000000	-1.000000	-1.000000	-1.000000	-1.000000	-1.000000	84.965517	0.000000	-1.000000	-1.000000	658454.000000	1772895028.603911
-5132.295000	-10742.040000	4687.425000	-1327.365000	-23712.255000	-17757.405000	-1924.875000	-2926.080000	-4.729896	-2.988455	-2.073092	0.320354	6.367785	6.411891	10.757119	4.349708	-7.050120	2.090620	1.403920	0.753111	0.085876	0.626158	-1.000000	-1.000000	-1.000000	-1.000000	-1.000000	-1.000000	-1.000000	84.965517	0.000000	-1.000000	-1.000000	658455.000000	1772895028.616436
-5132.565000	-10746.765000	4682.250000	-1333.665000	-23717.790000	-17761.095000	-1918.305000	-2913.300000	-3.608313	-6.801120	-6.773517	-6.057331	-2.698461	-2.008286	3.633681	1.044266	-7.050120	2.090620	1.403920	0.753111	0.085876	0.626158	-1.000000	-1.000000	-1.000000	-1.000000	-1.000000	-1.000000	-1.000000	84.965517	0.000000	-1.000000	-1.000000	658456.000000	1772895028.616462
-5106.915000	-10727.145000	4698.945000	-1316.790000	-23702.805000	-17741.340000	-1911.420000	-2905.515000	-0.269077	-6.455457	-6.833076	-7.894834	-8.174997	-7.250210	-0.977383	-2.307421	-7.050120	2.090620	1.403920	0.753111	0.085876	0.626158	-1.000000	-1.000000	-1.000000	-1.000000	-1.000000	-1.000000	-1.000000	84.965517	0.000000	-1.000000	-1.000000	658457.000000	1772895028.616478
-5086.170000	-10718.685000	4699.080000	-1318.365000	-23703.705000	-17736.975000	-1903.095000	-2869.245000	5.922943	-2.187806	-3.116928	-5.314088	-8.026387	-7.424615	-2.282826	-0.764991	-7.050120	2.090620	1.403920	0.753111	0.085876	0.626158	-1.000000	-1.000000	-1.000000	-1.000000	-1.000000	-1.000000	-1.000000	84.965517	0.000000	-1.000000	-1.000000	658458.000000	1772895028.616482
-5106.060000	-10733.130000	4686.165000	-1329.030000	-23711.715000	-17751.240000	-1913.670000	-2875.095000	12.115256	2.881204	0.835590	-1.548043	-4.761393	-4.434462	-2.245980	5.335666	-7.050120	2.090620	1.403920	0.753111	0.085876	0.626158	-1.000000	-1.000000	-1.000000	-1.000000	-1.000000	-1.000000	-1.000000	84.965517	0.000000	-1.000000	-1.000000	658459.000000	1772895028.625977
-5113.395000	-10733.670000	4689.360000	-1326.105000	-23718.645000	-17753.940000	-1915.470000	-2891.115000	13.048538	5.114415	1.969179	0.123679	-2.468041	-2.112789	-2.984576	10.898034	-7.050120	2.090620	1.403920	0.753111	0.085876	0.626158	-1.000000	-1.000000	-1.000000	-1.000000	-1.000000	-1.000000	-1.000000	84.965517	0.000000	-1.000000	-1.000000	658460.000000	1772895028.625986
-5103.270000	-10727.820000	4696.470000	-1322.145000	-23717.970000	-17754.750000	-1916.190000	-2892.915000	7.444960	3.610695	0.607445	-0.436107	-2.506175	-2.219184	-4.845797	10.933319	-3.280900	2.914660	1.800680	0.758970	0.078186	0.623656	-1.000000	-1.000000	-1.000000	-1.000000	-1.000000	-1.000000	-1.000000	84.965517	0.000000	-1.000000	-1.000000	658461.000000	1772895028.625996
-5086.620000	-10728.765000	4692.960000	-1324.440000	-23714.460000	-17751.195000	-1916.910000	-2898.630000	0.135273	0.450497	-0.714751	-1.019383	-3.011015	-3.132026	-6.263919	5.194580	-3.280900	2.914660	1.800680	0.758970	0.078186	0.623656	-1.000000	-1.000000	-1.000000	-1.000000	-1.000000	-1.000000	-1.000000	84.965517	0.000000	-1.000000	-1.000000	658462.000000	1772895028.626000
-5077.080000	-10721.610000	4702.905000	-1311.030000	-23697.810000	-17733.240000	-1907.505000	-2905.380000	-3.848864	-1.875406	-0.419815	0.027342	-1.567799	-2.064955	-5.314342	-2.732630	-3.280900	2.914660	1.800680	0.758970	0.078186	0.623656	-1.000000	-1.000000	-1.000000	-1.000000	-1.000000	-1.000000	-1.000000	84.965517	0.000000	-1.000000	-1.000000	658463.000000	1772895028.626622
-5075.910000	-10711.305000	4711.815000	-1300.140000	-23686.020000	-17726.175000	-1899.765000	-2898.855000	-3.846378	-1.794838	1.646686	3.044431	2.722458	2.342829	-1.423785	-9.055818	-3.280900	2.914660	1.800680	0.758970	0.078186	0.623656	-1.000000	-1.000000	-1.000000	-1.000000	-1.000000	-1.000000	-1.000000	84.965517	0.000000	-1.000000	-1.000000	658464.000000	1772895028.626637
-5111.460000	-10699.695000	4726.395000	-1287.270000	-23677.830000	-17720.640000	-1897.155000	-2890.440000	-2.931852	0.728515	4.659585	6.928857	8.273211	8.163813	3.638166	-11.449465	-3.280900	2.914660	1.800680	0.758970	0.078186	0.623656	-1.000000	-1.000000	-1.000000	-1.000000	-1.000000	-1.000000	-1.000000	84.965517	0.000000	-1.000000	-1.000000	658465.000000	1772895028.628866
-5134.680000	-10708.020000	4718.970000	-1296.045000	-23688.315000	-17731.395000	-1914.390000	-2917.890000	-5.023220	3.381924	6.421386	8.838454	11.367762	10.904713	6.575565	-9.916639	-3.280900	2.914660	1.800680	0.758970	0.078186	0.623656	-1.000000	-1.000000	-1.000000	-1.000000	-1.000000	-1.000000	-1.000000	84.965517	0.000000	-1.000000	-1.000000	658466.000000	1772895028.628873
-5135.805000	-10718.370000	4712.895000	-1300.770000	-23688.855000	-17733.600000	-1935.720000	-2929.005000	-10.575855	3.048130	4.599598	6.126823	8.865191	7.499749	4.895122	-7.070607	-3.280900	2.914660	1.800680	0.758970	0.078186	0.623656	-1.000000	-1.000000	-1.000000	-1.000000	-1.000000	-1.000000	-1.000000	84.965517	0.000000	-1.000000	-1.000000	658467.000000	1772895028.633641
-5104.665000	-10719.405000	4698.720000	-1319.625000	-23707.620000	-17749.890000	-1950.930000	-2899.305000	-14.311274	-0.700720	-0.757335	-0.867591	1.215920	-0.602463	-0.839205	-4.393701	-3.280900	2.914660	1.800680	0.758970	0.078186	0.623656	-1.000000	-1.000000	-1.000000	-1.000000	-1.000000	-1.000000	-1.000000	84.965517	0.000000	-1.000000	-1.000000	658468.000000	1772895028.633649
-5088.645000	-10718.595000	4694.085000	-1326.285000	-23716.305000	-17758.530000	-1950.795000	-2875.500000	-9.834326	-4.995550	-7.014604	-8.894770	-7.785902	-8.919846	-6.850755	0.446827	-3.280900	2.914660	1.800680	0.758970	0.078186	0.623656	-1.000000	-1.000000	-1.000000	-1.000000	-1.000000	-1.000000	-1.000000	84.965517	0.000000	-1.000000	-1.000000	658469.000000	1772895028.639923
-5089.500000	-10709.460000	4708.125000	-1312.020000	-23702.940000	-17744.715000	-1927.575000	-2881.800000	2.633992	-6.678213	-10.707690	-13.705015	-13.480728	-13.120182	-8.585262	8.589016	-3.280900	2.914660	1.800680	0.758970	0.078186	0.623656	-1.000000	-1.000000	-1.000000	-1.000000	-1.000000	-1.000000	-1.000000	84.965517	0.000000	-1.000000	-1.000000	658470.000000	1772895028.639931
-5111.235000	-10729.530000	4699.755000	-1316.790000	-23705.280000	-17741.340000	-1903.005000	-2892.600000	14.973477	-4.978948	-9.507069	-12.295476	-12.891266	-10.984103	-3.704417	15.756590	-4.272800	2.945180	2.502640	0.759764	0.075134	0.625670	-1.000000	-1.000000	-1.000000	-1.000000	-1.000000	-1.000000	-1.000000	84.965517	0.000000	-1.000000	-1.000000	658471.000000	1772895028.640190
-5120.145000	-10732.815000	4693.050000	-1321.965000	-23707.215000	-17746.605000	-1910.295000	-2898.135000	18.464111	-1.733937	-4.212946	-5.474940	-6.849476	-3.913924	5.520832	16.284819	-4.272800	2.945180	2.502640	0.759764	0.075134	0.625670	-1.000000	-1.000000	-1.000000	-1.000000	-1.000000	-1.000000	-1.000000	84.965517	0.000000	-1.000000	-1.000000	658472.000000	1772895028.640197
-5115.285000	-10742.220000	4682.835000	-1329.210000	-23712.570000	-17754.795000	-1923.840000	-2888.865000	11.759530	0.675626	1.635800	2.451625	0.692489	3.668776	12.617573	8.867813	-4.272800	2.945180	2.502640	0.759764	0.075134	0.625670	-1.000000	-1.000000	-1.000000	-1.000000	-1.000000	-1.000000	-1.000000	84.965517	0.000000	-1.000000	-1.000000	658473.000000	1772895028.645341
-5123.790000	-10751.895000	4675.185000	-1337.580000	-23723.820000	-17764.875000	-1939.230000	-2894.445000	1.167453	1.182730	4.729415	7.206542	5.847523	7.636979	12.054535	-2.449840	-4.272800	2.945180	2.502640	0.759764	0.075134	0.625670	-1.000000	-1.000000	-1.000000	-1.000000	-1.000000	-1.000000	-1.000000	84.965517	0.000000	-1.000000	-1.000000	658474.000000	1772895028.645349
-5103.045000	-10719.180000	4709.205000	-1302.795000	-23691.780000	-17732.340000	-1921.140000	-2893.815000	-5.914630	0.883313	4.904571	7.944220	7.541376	7.375271	4.607719	-11.498311	-4.272800	2.945180	2.502640	0.759764	0.075134	0.625670	-1.000000	-1.000000	-1.000000	-1.000000	-1.000000	-1.000000	-1.000000	84.965517	0.000000	-1.000000	-1.000000	658475.000000	1772895028.650576
-5099.805000	-10711.890000	4717.935000	-1291.860000	-23678.190000	-17718.840000	-1906.650000	-2899.440000	-6.592118	2.471180	5.130320	7.486355	7.817571	5.922424	-3.248547	-14.317200	-4.272800	2.945180	2.502640	0.759764	0.075134	0.625670	-1.000000	-1.000000	-1.000000	-1.000000	-1.000000	-1.000000	-1.000000	84.965517	0.000000	-1.000000	-1.000000	658476.000000	1772895028.650586
-5112.855000	-10732.455000	4697.595000	-1312.695000	-23699.970000	-17737.605000	-1900.980000	-2897.910000	-3.502948	6.241086	6.932318	7.842827	8.309464	5.686713	-5.755128	-11.405232	-4.272800	2.945180	2.502640	0.759764	0.075134	0.625670	-1.000000	-1.000000	-1.000000	-1.000000	-1.000000	-1.000000	-1.000000	84.965517	0.000000	-1.000000	-1.000000	658477.000000	1772895028.653566
-5113.170000	-10746.900000	4680.585000	-1334.205000	-23727.915000	-17768.610000	-1913.850000	-2879.190000	-1.413326	8.232551	7.502188	6.911314	7.151498	4.892106	-3.272612	-5.738890	-4.272800	2.945180	2.502640	0.759764	0.075134	0.625670	-1.000000	-1.000000	-1.000000	-1.000000	-1.000000	-1.000000	-1.000000	84.965517	0.000000	-1.000000	-1.000000	658478.000000	1772895028.653573
-5113.170000	-10749.690000	4682.160000	-1331.370000	-23724.405000	-17766.180000	-1917.495000	-2875.500000	-2.042626	5.162921	3.747974	2.007128	1.852318	0.535349	-0.867173	0.657973	-4.272800	2.945180	2.502640	0.759764	0.075134	0.625670	-1.000000	-1.000000	-1.000000	-1.000000	-1.000000	-1.000000	-1.000000	84.965517	0.000000	-1.000000	-1.000000	658479.000000	1772895028.658060
-5139.720000	-10759.050000	4673.295000	-1337.400000	-23724.900000	-17763.030000	-1929.780000	-2899.800000	-3.534396	-1.299530	-3.080391	-5.411071	-5.960840	-6.350492	-2.365534	6.336638	-4.272800	2.945180	2.502640	0.759764	0.075134	0.625670	-1.000000	-1.000000	-1.000000	-1.000000	-1.000000	-1.000000	-1.000000	84.965517	0.000000	-1.000000	-1.000000	658480.000000	1772895028.658067
-5149.755000	-10750.230000	4678.515000	-1333.260000	-23718.105000	-17754.390000	-1926.675000	-2922.795000	-4.128693	-6.604776	-8.593858	-10.797910	-11.361928	-10.937118	-6.567521	8.516916	-6.378680	1.831200	1.632820	0.758116	0.076172	0.625243	-1.000000	-1.000000	-1.000000	-1.000000	-1.000000	-1.000000	-1.000000	84.965517	0.000000	-1.000000	-1.000000	658481.000000	1772895028.664566
-5124.420000	-10732.995000	4688.460000	-1323.990000	-23707.935000	-17744.715000	-1922.355000	-2921.895000	-2.976365	-7.264225	-9.233751	-10.704291	-10.682190	-9.424368	-8.775427	5.331343	-6.378680	1.831200	1.632820	0.758116	0.076172	0.625243	-1.000000	-1.000000	-1.000000	-1.000000	-1.000000	-1.000000	-1.000000	84.965517	0.000000	-1.000000	-1.000000	658482.000000	1772895028.664572
-5101.965000	-10735.785000	4686.300000	-1325.205000	-23707.710000	-17744.760000	-1920.870000	-2893.680000	0.983182	-3.130307	-4.893900	-5.341604	-4.335165	-2.526279	-5.660792	-0.417608	-6.378680	1.831200	1.632820	0.758116	0.076172	0.625243	-1.000000	-1.000000	-1.000000	-1.000000	-1.000000	-1.000000	-1.000000	84.965517	0.000000	-1.000000	-1.000000	658483.000000	1772895028.664580
-5109.120000	-10742.490000	4683.870000	-1327.185000	-23709.420000	-17749.845000	-1927.125000	-2889.045000	6.769955	2.061238	0.811016	1.369944	3.212004	4.787884	1.245862	-3.190673	-6.378680	1.831200	1.632820	0.758116	0.076172	0.625243	-1.000000	-1.000000	-1.000000	-1.000000	-1.000000	-1.000000	-1.000000	84.965517	0.000000	-1.000000	-1.000000	658484.000000	1772895028.664584
-5105.835000	-10736.955000	4690.170000	-1319.355000	-23694.930000	-17741.925000	-1921.455000	-2889.585000	10.310365	4.146470	4.045218	5.327472	7.309920	7.719522	7.270041	-0.958057	-6.378680	1.831200	1.632820	0.758116	0.076172	0.625243	-1.000000	-1.000000	-1.000000	-1.000000	-1.000000	-1.000000	-1.000000	84.965517	0.000000	-1.000000	-1.000000	658485.000000	1772895028.667936
-5109.840000	-10736.190000	4686.570000	-1326.645000	-23704.290000	-17750.880000	-1931.940000	-2905.065000	8.647418	2.935411	4.473460	6.035040	7.431539	6.137627	9.109541	2.821499	-6.378680	1.831200	1.632820	0.758116	0.076172	0.625243	-1.000000	-1.000000	-1.000000	-1.000000	-1.000000	-1.000000	-1.000000	84.965517	0.000000	-1.000000	-1.000000	658486.000000	1772895028.667943
-5108.265000	-10723.230000	4699.485000	-1317.105000	-23697.135000	-17751.645000	-1948.365000	-2912.580000	2.770235	1.192059	3.993652	5.333862	5.750549	3.103268	6.476355	3.419188	-6.378680	1.831200	1.632820	0.758116	0.076172	0.625243	-1.000000	-1.000000	-1.000000	-1.000000	-1.000000	-1.000000	-1.000000	84.965517	0.000000	-1.000000	-1.000000	658487.000000	1772895028.673184
-5096.250000	-10713.195000	4709.250000	-1306.800000	-23691.195000	-17745.480000	-1941.435000	-2908.440000	-3.618320	0.992145	3.805164	4.429326	3.599113	0.701211	1.247588	0.015411	-6.378680	1.831200	1.632820	0.758116	0.076172	0.625243	-1.000000	-1.000000	-1.000000	-1.000000	-1.000000	-1.000000	-1.000000	84.965517	0.000000	-1.000000	-1.000000	658488.000000	1772895028.673252
-5070.105000	-10710.450000	4713.390000	-1303.110000	-23707.845000	-17739.675000	-1913.040000	-2887.920000	-6.182461	2.219588	3.787712	3.430206	0.849158	-0.796829	-2.947671	-3.316800	-6.378680	1.831200	1.632820	0.758116	0.076172	0.625243	-1.000000	-1.000000	-1.000000	-1.000000	-1.000000	-1.000000	-1.000000	84.965517	0.000000	-1.000000	-1.000000	658489.000000	1772895028.675917
-5097.600000	-10732.005000	4698.315000	-1312.245000	-23703.930000	-17733.420000	-1899.270000	-2889.495000	-3.674440	2.592720	2.725685	1.686887	-2.901467	-1.678035	-2.731337	-2.392590	-6.378680	1.831200	1.632820	0.758116	0.076172	0.625243	-1.000000	-1.000000	-1.000000	-1.000000	-1.000000	-1.000000	-1.000000	84.965517	0.000000	-1.000000	-1.000000	658490.000000	1772895028.675924
-5141.340000	-10736.460000	4697.910000	-1312.785000	-23702.220000	-17734.590000	-1902.330000	-2908.215000	-0.836822	-0.382942	-0.648822	-1.512903	-6.711274	-2.204021	1.434987	1.644315	-5.432560	0.122080	2.166920	0.759886	0.078125	0.622618	-1.000000	-1.000000	-1.000000	-1.000000	-1.000000	-1.000000	-1.000000	84.965517	0.000000	-1.000000	-1.000000	658491.000000	1772895028.683559
-5149.845000	-10738.845000	4694.445000	-1319.940000	-23713.245000	-17747.460000	-1927.215000	-2928.555000	-3.379828	-6.032126	-5.626546	-5.630881	-8.667723	-2.780859	5.040227	3.378019	-5.432560	0.122080	2.166920	0.759886	0.078125	0.622618	-1.000000	-1.000000	-1.000000	-1.000000	-1.000000	-1.000000	-1.000000	84.965517	0.000000	-1.000000	-1.000000	658492.000000	1772895028.683566
-5128.065000	-10740.195000	4687.785000	-1325.340000	-23714.955000	-17748.990000	-1931.850000	-2914.020000	-9.725187	-10.459531	-9.594462	-8.905705	-7.991974	-3.751256	3.819592	0.001711	-5.432560	0.122080	2.166920	0.759886	0.078125	0.622618	-1.000000	-1.000000	-1.000000	-1.000000	-1.000000	-1.000000	-1.000000	84.965517	0.000000	-1.000000	-1.000000	658493.000000	1772895028.683991
-5122.620000	-10740.915000	4684.500000	-1327.680000	-23711.715000	-17753.400000	-1932.210000	-2906.280000	-12.313302	-10.241813	-10.204339	-9.489109	-5.028274	-4.489893	-1.968098	-5.025166	-5.432560	0.122080	2.166920	0.759886	0.078125	0.622618	-1.000000	-1.000000	-1.000000	-1.000000	-1.000000	-1.000000	-1.000000	84.965517	0.000000	-1.000000	-1.000000	658494.000000	1772895028.683995
-5126.895000	-10732.680000	4697.955000	-1314.090000	-23695.650000	-17743.365000	-1926.720000	-2920.320000	-6.804170	-5.037867	-6.641255	-6.253349	-0.035886	-3.428196	-7.724438	-6.615261	-5.432560	0.122080	2.166920	0.759886	0.078125	0.622618	-1.000000	-1.000000	-1.000000	-1.000000	-1.000000	-1.000000	-1.000000	84.965517	0.000000	-1.000000	-1.000000	658495.000000	1772895028.687813
-5123.250000	-10746.495000	4681.665000	-1332.630000	-23715.540000	-17757.765000	-1923.840000	-2903.805000	3.760909	2.327329	-0.350736	-0.187334	5.697786	-0.089149	-8.829626	-3.499548	-5.432560	0.122080	2.166920	0.759886	0.078125	0.622618	-1.000000	-1.000000	-1.000000	-1.000000	-1.000000	-1.000000	-1.000000	84.965517	0.000000	-1.000000	-1.000000	658496.000000	1772895028.687817
-5094.630000	-10736.010000	4686.615000	-1335.510000	-23736.735000	-17767.620000	-1930.365000	-2877.615000	13.232885	7.825608	5.243369	5.172780	8.794134	3.328765	-4.897394	2.434499	-5.432560	0.122080	2.166920	0.759886	0.078125	0.622618	-1.000000	-1.000000	-1.000000	-1.000000	-1.000000	-1.000000	-1.000000	84.965517	0.000000	-1.000000	-1.000000	658497.000000	1772895028.691834
-5126.040000	-10735.470000	4689.405000	-1332.405000	-23730.795000	-17768.880000	-1945.260000	-2900.250000	17.043361	9.436031	7.692670	6.987710	7.021155	4.083784	0.039295	7.987871	-5.432560	0.122080	2.166920	0.759886	0.078125	0.622618	-1.000000	-1.000000	-1.000000	-1.000000	-1.000000	-1.000000	-1.000000	84.965517	0.000000	-1.000000	-1.000000	658498.000000	1772895028.691844
-5130.495000	-10737.900000	4686.435000	-1329.840000	-23714.550000	-17758.305000	-1939.590000	-2920.725000	13.671214	7.956718	7.273783	5.768816	2.419403	2.167591	2.026600	9.209908	-5.432560	0.122080	2.166920	0.759886	0.078125	0.622618	-1.000000	-1.000000	-1.000000	-1.000000	-1.000000	-1.000000	-1.000000	84.965517	0.000000	-1.000000	-1.000000	658499.000000	1772895028.695790
-5109.300000	-10739.565000	4678.875000	-1331.100000	-23710.545000	-17750.880000	-1918.890000	-2910.195000	5.878907	4.940477	5.176228	3.642688	-1.023802	0.163435	1.631606	4.797039	-5.432560	0.122080	2.166920	0.759886	0.078125	0.622618	-1.000000	-1.000000	-1.000000	-1.000000	-1.000000	-1.000000	-1.000000	84.965517	0.000000	-1.000000	-1.000000	658500.000000	1772895028.695797
-5113.890000	-10751.490000	4662.810000	-1346.850000	-23728.815000	-17767.665000	-1927.215000	-2897.955000	-1.294616	1.279798	1.971463	1.734138	-1.623236	0.084082	2.297856	-1.615616	-3.662400	-0.076300	2.151660	0.757933	0.075928	0.620604	-1.000000	-1.000000	-1.000000	-1.000000	-1.000000	-1.000000	-1.000000	84.965517	0.000000	-1.000000	-1.000000	658501.000000	1772895028.699748
-5123.970000	-10745.505000	4673.115000	-1342.215000	-23740.875000	-17764.380000	-1935.495000	-2914.380000	-5.830722	-2.358297	-1.533331	0.054097	-1.013741	1.325874	4.779614	-5.745690	-3.662400	-0.076300	2.151660	0.757933	0.075928	0.620604	-1.000000	-1.000000	-1.000000	-1.000000	-1.000000	-1.000000	-1.000000	84.965517	0.000000	-1.000000	-1.000000	658502.000000	1772895028.699752
-5106.330000	-10751.580000	4674.060000	-1338.390000	-23736.780000	-17765.550000	-1939.185000	-2908.890000	-8.490636	-4.920961	-3.633815	-1.156921	-1.312179	2.248053	6.290346	-6.686607	-3.662400	-0.076300	2.151660	0.757933	0.075928	0.620604	-1.000000	-1.000000	-1.000000	-1.000000	-1.000000	-1.000000	-1.000000	84.965517	0.000000	-1.000000	-1.000000	658503.000000	1772895028.703949
-5085.180000	-10755.585000	4676.895000	-1333.710000	-23726.295000	-17763.480000	-1931.580000	-2899.710000	-8.696520	-5.677399	-3.320549	-1.383755	-2.325980	2.138031	4.786163	-5.066658	-3.662400	-0.076300	2.151660	0.757933	0.075928	0.620604	-1.000000	-1.000000	-1.000000	-1.000000	-1.000000	-1.000000	-1.000000	84.965517	0.000000	-1.000000	-1.000000	658504.000000	1772895028.703956
-5089.725000	-10735.605000	4694.040000	-1321.335000	-23714.595000	-17749.125000	-1908.450000	-2886.525000	-5.673377	-4.464623	-1.070193	-0.433934	-1.947826	1.454885	1.434151	-1.610268	-3.662400	-0.076300	2.151660	0.757933	0.075928	0.620604	-1.000000	-1.000000	-1.000000	-1.000000	-1.000000	-1.000000	-1.000000	84.965517	0.000000	-1.000000	-1.000000	658505.000000	1772895028.707916
-5119.110000	-10723.995000	4697.820000	-1320.255000	-23713.425000	-17748.720000	-1908.720000	-2880.765000	-1.874221	-1.268247	2.014993	1.367698	1.167951	1.158631	-1.118620	2.001335	-3.662400	-0.076300	2.151660	0.757933	0.075928	0.620604	-1.000000	-1.000000	-1.000000	-1.000000	-1.000000	-1.000000	-1.000000	84.965517	0.000000	-1.000000	-1.000000	658506.000000	1772895028.707924
-5130.090000	-10736.865000	4687.920000	-1327.365000	-23719.500000	-17758.440000	-1927.845000	-2895.840000	-0.484352	2.755315	4.151670	2.631964	5.087144	1.001611	-2.051771	4.139880	-3.662400	-0.076300	2.151660	0.757933	0.075928	0.620604	-1.000000	-1.000000	-1.000000	-1.000000	-1.000000	-1.000000	-1.000000	84.965517	0.000000	-1.000000	-1.000000	658507.000000	1772895028.711820
-5119.920000	-10737.045000	4689.810000	-1326.780000	-23720.805000	-17761.230000	-1937.475000	-2899.755000	-1.063292	5.139369	3.645898	1.744106	5.846786	-0.543566	-3.076566	4.319380	-3.662400	-0.076300	2.151660	0.757933	0.075928	0.620604	-1.000000	-1.000000	-1.000000	-1.000000	-1.000000	-1.000000	-1.000000	84.965517	0.000000	-1.000000	-1.000000	658508.000000	1772895028.711825
-5088.285000	-10723.365000	4698.495000	-1322.910000	-23719.950000	-17761.725000	-1939.770000	-2880.675000	-0.681868	4.641963	0.969546	-0.981725	2.109423	-3.609850	-5.380869	2.878943	-3.662400	-0.076300	2.151660	0.757933	0.075928	0.620604	-1.000000	-1.000000	-1.000000	-1.000000	-1.000000	-1.000000	-1.000000	84.965517	0.000000	-1.000000	-1.000000	658509.000000	1772895028.717548
-5082.165000	-10704.960000	4718.295000	-1299.825000	-23693.985000	-17734.995000	-1916.865000	-2874.195000	2.383807	2.724288	-1.322287	-3.038584	-2.776998	-5.602644	-7.011407	0.864204	-3.662400	-0.076300	2.151660	0.757933	0.075928	0.620604	-1.000000	-1.000000	-1.000000	-1.000000	-1.000000	-1.000000	-1.000000	84.965517	0.000000	-1.000000	-1.000000	658510.000000	1772895028.717554
-5089.860000	-10695.555000	4730.670000	-1282.545000	-23671.530000	-17706.555000	-1890.585000	-2880.630000	6.610387	1.463993	-1.315244	-2.142935	-4.080492	-3.494060	-4.519579	-0.636637	-0.717220	-0.564620	1.617560	0.750914	0.077209	0.614745	-1.000000	-1.000000	-1.000000	-1.000000	-1.000000	-1.000000	-1.000000	84.965517	0.000000	-1.000000	-1.000000	658511.000000	1772895028.719836
-5096.430000	-10700.910000	4723.920000	-1292.220000	-23682.915000	-17718.210000	-1897.065000	-2891.430000	8.053313	1.041149	0.141156	0.941358	-1.034753	2.297098	2.390022	-1.652039	-0.717220	-0.564620	1.617560	0.750914	0.077209	0.614745	-1.000000	-1.000000	-1.000000	-1.000000	-1.000000	-1.000000	-1.000000	84.965517	0.000000	-1.000000	-1.000000	658512.000000	1772895028.719841
-5094.720000	-10714.905000	4707.810000	-1312.290000	-23704.965000	-17741.925000	-1912.005000	-2891.385000	4.252265	-0.138175	0.278129	2.558330	1.937113	6.869392	8.785012	-3.051334	-0.717220	-0.564620	1.617560	0.750914	0.077209	0.614745	-1.000000	-1.000000	-1.000000	-1.000000	-1.000000	-1.000000	-1.000000	84.965517	0.000000	-1.000000	-1.000000	658513.000000	1772895028.723823
-5110.020000	-10736.640000	4690.530000	-1324.395000	-23711.580000	-17746.290000	-1909.755000	-2901.195000	-2.886943	-3.742017	-2.859957	-0.122251	0.486958	5.382336	8.961629	-5.147192	-0.717220	-0.564620	1.617560	0.750914	0.077209	0.614745	-1.000000	-1.000000	-1.000000	-1.000000	-1.000000	-1.000000	-1.000000	84.965517	0.000000	-1.000000	-1.000000	658514.000000	1772895028.723832
-5123.295000	-10738.800000	4692.870000	-1317.510000	-23703.390000	-17738.235000	-1913.670000	-2910.780000	-8.630673	-9.248244	-8.010304	-5.676066	-4.496533	-1.406633	2.712376	-6.872250	-0.717220	-0.564620	1.617560	0.750914	0.077209	0.614745	-1.000000	-1.000000	-1.000000	-1.000000	-1.000000	-1.000000	-1.000000	84.965517	0.000000	-1.000000	-1.000000	658515.000000	1772895028.729281
-5124.780000	-10728.315000	4703.985000	-1307.520000	-23695.245000	-17730.540000	-1915.290000	-2915.595000	-9.331462	-12.696679	-10.780189	-9.240384	-8.227359	-7.784192	-4.742675	-6.195139	-0.717220	-0.564620	1.617560	0.750914	0.077209	0.614745	-1.000000	-1.000000	-1.000000	-1.000000	-1.000000	-1.000000	-1.000000	84.965517	0.000000	-1.000000	-1.000000	658516.000000	1772895028.729287
-5099.805000	-10714.995000	4713.570000	-1299.105000	-23687.325000	-17726.580000	-1908.045000	-2896.965000	-4.988589	-9.852157	-7.516292	-7.102073	-7.066376	-8.847895	-8.164401	-1.972756	-0.717220	-0.564620	1.617560	0.750914	0.077209	0.614745	-1.000000	-1.000000	-1.000000	-1.000000	-1.000000	-1.000000	-1.000000	84.965517	0.000000	-1.000000	-1.000000	658517.000000	1772895028.733476
-5124.555000	-10728.720000	4701.960000	-1313.595000	-23701.995000	-17741.430000	-1914.030000	-2903.220000	0.997625	-1.326687	0.545934	-0.404788	-1.674143	-4.640376	-6.254152	4.164149	-0.717220	-0.564620	1.617560	0.750914	0.077209	0.614745	-1.000000	-1.000000	-1.000000	-1.000000	-1.000000	-1.000000	-1.000000	84.965517	0.000000	-1.000000	-1.000000	658518.000000	1772895028.733485
-5125.905000	-10729.620000	4697.145000	-1321.290000	-23707.710000	-17748.315000	-1914.165000	-2914.560000	4.493362	7.317765	7.910213	5.690728	3.645019	0.477809	-1.801484	8.525045	-0.717220	-0.564620	1.617560	0.750914	0.077209	0.614745	-1.000000	-1.000000	-1.000000	-1.000000	-1.000000	-1.000000	-1.000000	84.965517	0.000000	-1.000000	-1.000000	658519.000000	1772895028.738003
-5103.720000	-10720.665000	4702.410000	-1312.155000	-23693.445000	-17738.100000	-1909.395000	-2909.565000	4.536934	11.159546	10.017713	7.031758	5.252399	2.509792	1.439912	8.761866	-0.717220	-0.564620	1.617560	0.750914	0.077209	0.614745	-1.000000	-1.000000	-1.000000	-1.000000	-1.000000	-1.000000	-1.000000	84.965517	0.000000	-1.000000	-1.000000	658520.000000	1772895028.738026
-5106.240000	-10728.090000	4696.065000	-1316.430000	-23695.740000	-17741.520000	-1917.585000	-2904.255000	3.540375	9.902793	7.120354	4.403763	3.843776	1.914523	2.241599	5.887841	-4.089680	0.671440	2.533160	0.744383	0.083923	0.611266	-1.000000	-1.000000	-1.000000	-1.000000	-1.000000	-1.000000	-1.000000	84.965517	0.000000	-1.000000	-1.000000	658521.000000	1772895028.744112
-5115.915000	-10729.620000	4699.260000	-1314.810000	-23694.390000	-17743.590000	-1921.005000	-2904.930000	3.077394	6.137893	2.755210	1.568613	2.552345	1.748799	1.684192	2.299793	-4.089680	0.671440	2.533160	0.744383	0.083923	0.611266	-1.000000	-1.000000	-1.000000	-1.000000	-1.000000	-1.000000	-1.000000	84.965517	0.000000	-1.000000	-1.000000	658522.000000	1772895028.744121
-5097.960000	-10712.970000	4715.775000	-1297.035000	-23676.975000	-17731.305000	-1917.540000	-2899.890000	3.017638	2.563901	0.243531	1.102512	3.042832	3.341896	1.027801	-0.454200	-4.089680	0.671440	2.533160	0.744383	0.083923	0.611266	-1.000000	-1.000000	-1.000000	-1.000000	-1.000000	-1.000000	-1.000000	84.965517	0.000000	-1.000000	-1.000000	658523.000000	1772895028.744130
-5085.270000	-10704.105000	4716.855000	-1298.565000	-23693.895000	-17733.195000	-1918.215000	-2893.365000	3.767821	0.902227	0.598495	2.736406	4.221175	5.409216	1.077386	-1.500070	-4.089680	0.671440	2.533160	0.744383	0.083923	0.611266	-1.000000	-1.000000	-1.000000	-1.000000	-1.000000	-1.000000	-1.000000	84.965517	0.000000	-1.000000	-1.000000	658524.000000	1772895028.744134
-5084.955000	-10699.425000	4717.440000	-1297.620000	-23697.765000	-17727.570000	-1917.945000	-2894.445000	4.922485	0.805222	1.964839	3.961596	3.412893	5.816263	1.931555	-0.879795	-4.089680	0.671440	2.533160	0.744383	0.083923	0.611266	-1.000000	-1.000000	-1.000000	-1.000000	-1.000000	-1.000000	-1.000000	84.965517	0.000000	-1.000000	-1.000000	658525.000000	1772895028.747976
-5097.915000	-10716.615000	4702.545000	-1308.780000	-23690.520000	-17730.270000	-1925.055000	-2901.105000	3.741028	0.057364	1.488910	2.459197	-0.302778	3.683750	2.646913	-0.411890	-4.089680	0.671440	2.533160	0.744383	0.083923	0.611266	-1.000000	-1.000000	-1.000000	-1.000000	-1.000000	-1.000000	-1.000000	84.965517	0.000000	-1.000000	-1.000000	658526.000000	1772895028.747983
-5106.780000	-10736.865000	4694.895000	-1313.505000	-23689.305000	-17732.160000	-1919.475000	-2901.420000	-1.363343	-3.061674	-1.770779	-1.590208	-4.402435	0.068552	2.187746	-1.786329	-4.089680	0.671440	2.533160	0.744383	0.083923	0.611266	-1.000000	-1.000000	-1.000000	-1.000000	-1.000000	-1.000000	-1.000000	84.965517	0.000000	-1.000000	-1.000000	658527.000000	1772895028.755134
-5103.180000	-10731.330000	4703.220000	-1306.890000	-23692.770000	-17734.995000	-1913.580000	-2895.660000	-7.986178	-7.712864	-5.942228	-5.795630	-6.077324	-3.437671	0.623355	-3.994915	-4.089680	0.671440	2.533160	0.744383	0.083923	0.611266	-1.000000	-1.000000	-1.000000	-1.000000	-1.000000	-1.000000	-1.000000	84.965517	0.000000	-1.000000	-1.000000	658528.000000	1772895028.755145
-5097.735000	-10715.265000	4713.840000	-1304.595000	-23711.715000	-17743.320000	-1904.040000	-2899.305000	-12.131411	-10.518705	-7.812621	-7.555407	-5.369080	-5.903187	-0.929216	-4.798637	-4.089680	0.671440	2.533160	0.744383	0.083923	0.611266	-1.000000	-1.000000	-1.000000	-1.000000	-1.000000	-1.000000	-1.000000	84.965517	0.000000	-1.000000	-1.000000	658529.000000	1772895028.755996
-5096.565000	-10727.505000	4701.285000	-1318.905000	-23721.345000	-17758.170000	-1904.130000	-2895.165000	-11.332687	-8.385569	-5.601809	-5.937797	-3.955487	-6.849364	-1.260463	-3.585069	-4.089680	0.671440	2.533160	0.744383	0.083923	0.611266	-1.000000	-1.000000	-1.000000	-1.000000	-1.000000	-1.000000	-1.000000	84.965517	0.000000	-1.000000	-1.000000	658530.000000	1772895028.756004
-5105.745000	-10733.805000	4695.300000	-1324.350000	-23723.730000	-17765.595000	-1907.370000	-2887.020000	-5.825843	-2.085131	-0.907023	-2.381067	-2.651160	-6.138798	-0.371799	-1.154829	-5.981920	0.961380	1.831200	0.740721	0.086731	0.612486	-1.000000	-1.000000	-1.000000	-1.000000	-1.000000	-1.000000	-1.000000	84.965517	0.000000	-1.000000	-1.000000	658531.000000	1772895028.759949
-5115.240000	-10716.885000	4715.235000	-1303.605000	-23704.920000	-17750.070000	-1910.970000	-2890.440000	1.293113	4.473029	3.105796	0.934604	-0.950146	-3.940408	0.389961	1.523962	-5.981920	0.961380	1.831200	0.740721	0.086731	0.612486	-1.000000	-1.000000	-1.000000	-1.000000	-1.000000	-1.000000	-1.000000	84.965517	0.000000	-1.000000	-1.000000	658532.000000	1772895028.759957
-5096.565000	-10700.640000	4726.395000	-1291.140000	-23688.090000	-17730.900000	-1905.210000	-2892.420000	6.305497	8.365450	5.119567	3.404319	2.269414	-0.164236	0.060593	3.323174	-5.981920	0.961380	1.831200	0.740721	0.086731	0.612486	-1.000000	-1.000000	-1.000000	-1.000000	-1.000000	-1.000000	-1.000000	84.965517	0.000000	-1.000000	-1.000000	658533.000000	1772895028.763856
-5102.055000	-10722.870000	4705.200000	-1308.330000	-23696.145000	-17731.755000	-1912.320000	-2904.930000	7.862328	8.807523	5.356687	5.170106	6.806995	4.774765	-0.991317	3.170899	-5.981920	0.961380	1.831200	0.740721	0.086731	0.612486	-1.000000	-1.000000	-1.000000	-1.000000	-1.000000	-1.000000	-1.000000	84.965517	0.000000	-1.000000	-1.000000	658534.000000	1772895028.763863
-5103.495000	-10731.105000	4698.270000	-1313.730000	-23698.080000	-17732.205000	-1909.890000	-2900.565000	6.879687	5.996191	3.748144	5.400154	9.779109	8.800979	-1.917036	1.115248	-5.981920	0.961380	1.831200	0.740721	0.086731	0.612486	-1.000000	-1.000000	-1.000000	-1.000000	-1.000000	-1.000000	-1.000000	84.965517	0.000000	-1.000000	-1.000000	658535.000000	1772895028.767861
-5126.445000	-10727.190000	4707.270000	-1303.290000	-23688.990000	-17725.140000	-1899.855000	-2916.180000	4.499588	1.478738	0.808855	3.624134	8.495300	9.616076	-2.106487	-1.435481	-5.981920	0.961380	1.831200	0.740721	0.086731	0.612486	-1.000000	-1.000000	-1.000000	-1.000000	-1.000000	-1.000000	-1.000000	84.965517	0.000000	-1.000000	-1.000000	658536.000000	1772895028.767871
-5161.140000	-10738.305000	4703.490000	-1303.515000	-23688.855000	-17728.155000	-1915.740000	-2961.630000	0.567759	-2.591275	-1.980732	0.838747	3.645747	6.754329	-1.649831	-3.689388	-5.981920	0.961380	1.831200	0.740721	0.086731	0.612486	-1.000000	-1.000000	-1.000000	-1.000000	-1.000000	-1.000000	-1.000000	84.965517	0.000000	-1.000000	-1.000000	658537.000000	1772895028.775526
-5149.530000	-10741.815000	4693.680000	-1316.340000	-23701.995000	-17739.135000	-1925.640000	-2964.015000	-4.859014	-5.275068	-3.695048	-1.748819	-1.861151	1.606678	-1.497724	-5.983195	-5.981920	0.961380	1.831200	0.740721	0.086731	0.612486	-1.000000	-1.000000	-1.000000	-1.000000	-1.000000	-1.000000	-1.000000	84.965517	0.000000	-1.000000	-1.000000	658538.000000	1772895028.775534
-5105.970000	-10740.240000	4686.525000	-1327.410000	-23715.855000	-17749.980000	-1918.440000	-2905.425000	-8.167178	-6.039179	-4.130951	-3.510736	-5.826005	-3.678453	-1.937236	-6.473667	-5.981920	0.961380	1.831200	0.740721	0.086731	0.612486	-1.000000	-1.000000	-1.000000	-1.000000	-1.000000	-1.000000	-1.000000	84.965517	0.000000	-1.000000	-1.000000	658539.000000	1772895028.775873
-5078.745000	-10738.170000	4688.100000	-1324.980000	-23712.030000	-17745.705000	-1915.605000	-2886.885000	-4.432009	-4.280097	-3.286014	-4.242217	-7.778833	-7.269818	-1.631429	-1.489391	-5.981920	0.961380	1.831200	0.740721	0.086731	0.612486	-1.000000	-1.000000	-1.000000	-1.000000	-1.000000	-1.000000	-1.000000	84.965517	0.000000	-1.000000	-1.000000	658540.000000	1772895028.775878
-5069.205000	-10718.910000	4710.375000	-1300.095000	-23689.620000	-17731.395000	-1914.885000	-2911.365000	5.699266	-0.777544	-1.472069	-3.821227	-7.692986	-8.212308	0.462073	7.972417	-2.762060	3.006220	1.312360	0.741270	0.082336	0.611937	-1.000000	-1.000000	-1.000000	-1.000000	-1.000000	-1.000000	-1.000000	84.965517	0.000000	-1.000000	-1.000000	658541.000000	1772895028.780087
-5066.010000	-10704.960000	4720.320000	-1293.120000	-23685.120000	-17731.980000	-1924.425000	-2904.390000	14.859783	2.853281	1.116004	-1.824068	-5.175321	-6.550094	3.293618	15.099524	-2.762060	3.006220	1.312360	0.741270	0.082336	0.611937	-1.000000	-1.000000	-1.000000	-1.000000	-1.000000	-1.000000	-1.000000	84.965517	0.000000	-1.000000	-1.000000	658542.000000	1772895028.780094
-5075.505000	-10709.955000	4713.030000	-1302.480000	-23691.465000	-17734.230000	-1930.005000	-2876.760000	15.745959	5.734898	4.302369	1.667656	-0.748752	-3.236820	4.758731	15.034132	-2.762060	3.006220	1.312360	0.741270	0.082336	0.611937	-1.000000	-1.000000	-1.000000	-1.000000	-1.000000	-1.000000	-1.000000	84.965517	0.000000	-1.000000	-1.000000	658543.000000	1772895028.785136
-5091.075000	-10717.605000	4707.180000	-1306.845000	-23692.725000	-17729.865000	-1916.640000	-2874.195000	7.239433	7.104329	6.711629	4.904250	3.448921	0.425886	3.942575	9.115418	-2.762060	3.006220	1.312360	0.741270	0.082336	0.611937	-1.000000	-1.000000	-1.000000	-1.000000	-1.000000	-1.000000	-1.000000	84.965517	0.000000	-1.000000	-1.000000	658544.000000	1772895028.785146
-5131.080000	-10714.050000	4718.700000	-1293.165000	-23680.080000	-17717.670000	-1890.405000	-2902.770000	-5.976363	5.791074	6.330489	5.639635	5.379765	3.461310	2.107454	1.029794	-2.762060	3.006220	1.312360	0.741270	0.082336	0.611937	-1.000000	-1.000000	-1.000000	-1.000000	-1.000000	-1.000000	-1.000000	84.965517	0.000000	-1.000000	-1.000000	658545.000000	1772895028.787990
-5132.925000	-10727.505000	4704.390000	-1309.590000	-23696.955000	-17734.455000	-1887.795000	-2922.480000	-17.276484	1.658467	2.791567	3.389116	4.761933	5.255728	1.445032	-6.613724	-2.762060	3.006220	1.312360	0.741270	0.082336	0.611937	-1.000000	-1.000000	-1.000000	-1.000000	-1.000000	-1.000000	-1.000000	84.965517	0.000000	-1.000000	-1.000000	658546.000000	1772895028.787997
-5109.255000	-10725.165000	4699.575000	-1317.330000	-23705.190000	-17743.635000	-1898.235000	-2911.680000	-21.296427	-3.592566	-2.150836	-0.402119	2.593580	5.266471	2.227412	-12.285628	-2.762060	3.006220	1.312360	0.741270	0.082336	0.611937	-1.000000	-1.000000	-1.000000	-1.000000	-1.000000	-1.000000	-1.000000	84.965517	0.000000	-1.000000	-1.000000	658547.000000	1772895028.791909
-5098.185000	-10722.645000	4701.645000	-1315.665000	-23702.715000	-17742.690000	-1905.975000	-2896.155000	-16.458980	-7.359371	-5.968360	-3.607710	0.174673	3.483788	2.080081	-15.122630	-2.762060	3.006220	1.312360	0.741270	0.082336	0.611937	-1.000000	-1.000000	-1.000000	-1.000000	-1.000000	-1.000000	-1.000000	84.965517	0.000000	-1.000000	-1.000000	658548.000000	1772895028.791916
-5112.225000	-10730.745000	4700.835000	-1311.345000	-23693.580000	-17735.805000	-1908.540000	-2901.825000	-6.107594	-8.130941	-7.110173	-4.850521	-1.506353	0.751202	-0.825962	-14.348622	-2.762060	3.006220	1.312360	0.741270	0.082336	0.611937	-1.000000	-1.000000	-1.000000	-1.000000	-1.000000	-1.000000	-1.000000	84.965517	0.000000	-1.000000	-1.000000	658549.000000	1772895028.797412
-5110.065000	-10732.365000	4700.205000	-1312.785000	-23701.905000	-17740.890000	-1918.080000	-2897.280000	3.962482	-6.754714	-6.105168	-4.488406	-2.501720	-2.035926	-5.336800	-9.201965	-2.762060	3.006220	1.312360	0.741270	0.082336	0.611937	-1.000000	-1.000000	-1.000000	-1.000000	-1.000000	-1.000000	-1.000000	84.965517	0.000000	-1.000000	-1.000000	658550.000000	1772895028.797417
-5080.005000	-10709.145000	4722.030000	-1291.320000	-23685.885000	-17723.880000	-1897.605000	-2875.230000	10.308082	-4.336213	-3.868206	-3.146467	-3.104540	-3.948850	-8.221776	-0.471769	1.220800	4.593260	0.061040	0.743040	0.079834	0.610655	-1.000000	-1.000000	-1.000000	-1.000000	-1.000000	-1.000000	-1.000000	84.965517	0.000000	-1.000000	-1.000000	658551.000000	1772895028.801036
-5058.315000	-10688.355000	4737.060000	-1275.885000	-23665.005000	-17704.395000	-1874.115000	-2869.245000	13.716465	-0.026908	0.144320	-0.046871	-2.224984	-3.468381	-6.505275	8.547137	1.220800	4.593260	0.061040	0.743040	0.079834	0.610655	-1.000000	-1.000000	-1.000000	-1.000000	-1.000000	-1.000000	-1.000000	84.965517	0.000000	-1.000000	-1.000000	658552.000000	1772895028.801044
-5068.755000	-10702.755000	4719.195000	-1297.890000	-23683.005000	-17725.275000	-1884.780000	-2881.035000	15.778635	6.212891	5.420045	4.418519	0.722940	-0.512951	-0.748763	13.807498	1.220800	4.593260	0.061040	0.743040	0.079834	0.610655	-1.000000	-1.000000	-1.000000	-1.000000	-1.000000	-1.000000	-1.000000	84.965517	0.000000	-1.000000	-1.000000	658553.000000	1772895028.803942
-5096.880000	-10739.925000	4685.220000	-1332.765000	-23714.595000	-17760.645000	-1918.665000	-2893.455000	15.388799	10.481404	8.083346	6.390091	3.025544	1.680376	3.946921	13.569417	1.220800	4.593260	0.061040	0.743040	0.079834	0.610655	-1.000000	-1.000000	-1.000000	-1.000000	-1.000000	-1.000000	-1.000000	84.965517	0.000000	-1.000000	-1.000000	658554.000000	1772895028.803949
-5119.740000	-10755.405000	4676.265000	-1337.850000	-23717.565000	-17761.950000	-1919.790000	-2900.565000	9.587222	8.390968	4.954552	2.977559	1.830379	0.332160	3.205774	8.966681	1.220800	4.593260	0.061040	0.743040	0.079834	0.610655	-1.000000	-1.000000	-1.000000	-1.000000	-1.000000	-1.000000	-1.000000	84.965517	0.000000	-1.000000	-1.000000	658555.000000	1772895028.810040
-5109.030000	-10738.620000	4691.610000	-1323.495000	-23720.265000	-17751.330000	-1915.830000	-2900.565000	-2.368243	0.859962	-1.607808	-2.953380	-1.520642	-2.585893	-1.260087	1.750054	1.220800	4.593260	0.061040	0.743040	0.079834	0.610655	-1.000000	-1.000000	-1.000000	-1.000000	-1.000000	-1.000000	-1.000000	84.965517	0.000000	-1.000000	-1.000000	658556.000000	1772895028.810048
-5110.695000	-10715.670000	4709.160000	-1310.400000	-23708.970000	-17741.970000	-1919.115000	-2903.490000	-15.749070	-6.045563	-5.839148	-5.857398	-3.561072	-3.093630	-4.207972	-6.268070	1.220800	4.593260	0.061040	0.743040	0.079834	0.610655	-1.000000	-1.000000	-1.000000	-1.000000	-1.000000	-1.000000	-1.000000	84.965517	0.000000	-1.000000	-1.000000	658557.000000	1772895028.811854
-5108.850000	-10706.130000	4720.545000	-1298.655000	-23694.345000	-17727.660000	-1913.580000	-2911.320000	-22.908649	-6.987074	-4.460785	-3.505045	-2.547098	-0.088268	-2.760309	-12.027265	1.220800	4.593260	0.061040	0.743040	0.079834	0.610655	-1.000000	-1.000000	-1.000000	-1.000000	-1.000000	-1.000000	-1.000000	84.965517	0.000000	-1.000000	-1.000000	658558.000000	1772895028.811861
-5103.270000	-10701.675000	4731.255000	-1284.615000	-23678.865000	-17712.990000	-1902.780000	-2911.545000	-19.758943	-2.189206	0.885804	1.891322	1.046373	4.457630	2.101996	-12.767723	1.220800	4.593260	0.061040	0.743040	0.079834	0.610655	-1.000000	-1.000000	-1.000000	-1.000000	-1.000000	-1.000000	-1.000000	84.965517	0.000000	-1.000000	-1.000000	658559.000000	1772895028.815940
-5113.575000	-10714.995000	4719.870000	-1294.020000	-23685.795000	-17727.030000	-1912.005000	-2915.505000	-9.006259	3.282885	5.602598	6.220389	4.967554	7.349583	6.916240	-8.804132	1.220800	4.593260	0.061040	0.743040	0.079834	0.610655	-1.000000	-1.000000	-1.000000	-1.000000	-1.000000	-1.000000	-1.000000	84.965517	0.000000	-1.000000	-1.000000	658560.000000	1772895028.815948
-5112.720000	-10727.415000	4705.560000	-1310.220000	-23703.030000	-17747.550000	-1927.170000	-2903.445000	2.822491	4.372375	5.689382	6.096023	5.904164	5.607801	7.575724	-2.565795	-3.097780	6.226080	0.106820	0.740171	0.083496	0.613158	-1.000000	-1.000000	-1.000000	-1.000000	-1.000000	-1.000000	-1.000000	84.965517	0.000000	-1.000000	-1.000000	658561.000000	1772895028.820264
-5094.630000	-10709.190000	4722.390000	-1293.255000	-23687.190000	-17734.905000	-1921.320000	-2895.120000	11.472670	1.006241	1.394832	1.820541	2.863326	-0.298836	3.107918	4.414928	-3.097780	6.226080	0.106820	0.740171	0.083496	0.613158	-1.000000	-1.000000	-1.000000	-1.000000	-1.000000	-1.000000	-1.000000	84.965517	0.000000	-1.000000	-1.000000	658562.000000	1772895028.820268
-5075.190000	-10702.395000	4724.010000	-1292.940000	-23675.580000	-17721.675000	-1899.315000	-2887.200000	16.995793	-1.815911	-2.577737	-2.160753	-0.652789	-5.144036	-2.176620	11.315822	-3.097780	6.226080	0.106820	0.740171	0.083496	0.613158	-1.000000	-1.000000	-1.000000	-1.000000	-1.000000	-1.000000	-1.000000	84.965517	0.000000	-1.000000	-1.000000	658563.000000	1772895028.823822
-5092.470000	-10725.345000	4699.935000	-1316.970000	-23693.040000	-17740.935000	-1904.940000	-2893.230000	19.322712	-0.706860	-2.898007	-2.728253	-1.171192	-4.784099	-3.352760	15.671172	-3.097780	6.226080	0.106820	0.740171	0.083496	0.613158	-1.000000	-1.000000	-1.000000	-1.000000	-1.000000	-1.000000	-1.000000	84.965517	0.000000	-1.000000	-1.000000	658564.000000	1772895028.823826
-5092.290000	-10720.890000	4704.885000	-1312.065000	-23689.215000	-17739.765000	-1911.330000	-2887.965000	15.716670	1.653482	-1.524358	-1.781546	0.167150	-1.256552	-0.657051	14.175474	-3.097780	6.226080	0.106820	0.740171	0.083496	0.613158	-1.000000	-1.000000	-1.000000	-1.000000	-1.000000	-1.000000	-1.000000	84.965517	0.000000	-1.000000	-1.000000	658565.000000	1772895028.827968
-5095.080000	-10715.445000	4714.110000	-1305.180000	-23697.900000	-17732.565000	-1900.035000	-2883.870000	5.315907	1.238579	-1.533227	-2.125287	0.065794	0.972832	2.161177	6.643430	-3.097780	6.226080	0.106820	0.740171	0.083496	0.613158	-1.000000	-1.000000	-1.000000	-1.000000	-1.000000	-1.000000	-1.000000	84.965517	0.000000	-1.000000	-1.000000	658566.000000	1772895028.827975
-5099.850000	-10715.580000	4714.110000	-1305.045000	-23703.975000	-17733.240000	-1901.655000	-2893.545000	-7.676527	-2.022257	-2.953720	-3.671373	-2.880669	0.255984	2.676131	-3.107310	-3.097780	6.226080	0.106820	0.740171	0.083496	0.613158	-1.000000	-1.000000	-1.000000	-1.000000	-1.000000	-1.000000	-1.000000	84.965517	0.000000	-1.000000	-1.000000	658567.000000	1772895028.831924
-5088.555000	-10701.675000	4727.205000	-1286.910000	-23674.455000	-17715.465000	-1897.155000	-2905.830000	-17.145081	-5.110866	-3.893735	-4.553440	-6.791143	-1.954301	0.766413	-10.972950	-3.097780	6.226080	0.106820	0.740171	0.083496	0.613158	-1.000000	-1.000000	-1.000000	-1.000000	-1.000000	-1.000000	-1.000000	84.965517	0.000000	-1.000000	-1.000000	658568.000000	1772895028.831931
-5090.265000	-10715.490000	4709.970000	-1300.320000	-23688.720000	-17729.730000	-1907.415000	-2912.715000	-18.977500	-5.220222	-2.842455	-3.144905	-7.853914	-3.075837	-2.384135	-14.968712	-3.097780	6.226080	0.106820	0.740171	0.083496	0.613158	-1.000000	-1.000000	-1.000000	-1.000000	-1.000000	-1.000000	-1.000000	84.965517	0.000000	-1.000000	-1.000000	658569.000000	1772895028.836489
-5083.650000	-10730.610000	4704.345000	-1307.115000	-23698.170000	-17735.085000	-1914.030000	-2899.395000	-13.005749	-2.355550	-0.088335	0.317082	-4.503188	-1.831534	-5.045959	-14.301640	-3.097780	6.226080	0.106820	0.740171	0.083496	0.613158	-1.000000	-1.000000	-1.000000	-1.000000	-1.000000	-1.000000	-1.000000	84.965517	0.000000	-1.000000	-1.000000	658570.000000	1772895028.836496
-5079.600000	-10741.365000	4699.665000	-1314.405000	-23705.640000	-17742.330000	-1923.795000	-2889.675000	-2.900464	0.837354	2.563303	3.629048	0.799258	0.631355	-6.061349	-8.750362	-5.066320	5.539380	-0.763000	0.743528	0.081787	0.617979	-1.000000	-1.000000	-1.000000	-1.000000	-1.000000	-1.000000	-1.000000	84.965517	0.000000	-1.000000	-1.000000	658571.000000	1772895028.840060
-5083.515000	-10718.640000	4716.585000	-1299.690000	-23690.745000	-17728.020000	-1912.095000	-2893.950000	6.181545	2.627635	4.095230	5.172498	4.900392	2.558275	-5.260834	0.022279	-5.066320	5.539380	-0.763000	0.743528	0.081787	0.617979	-1.000000	-1.000000	-1.000000	-1.000000	-1.000000	-1.000000	-1.000000	84.965517	0.000000	-1.000000	-1.000000	658572.000000	1772895028.840067
-5104.575000	-10691.595000	4744.305000	-1271.655000	-23665.320000	-17707.140000	-1901.610000	-2906.190000	10.296087	4.297450	5.478924	5.785548	7.293224	3.879675	-2.520975	7.902547	-5.066320	5.539380	-0.763000	0.743528	0.081787	0.617979	-1.000000	-1.000000	-1.000000	-1.000000	-1.000000	-1.000000	-1.000000	84.965517	0.000000	-1.000000	-1.000000	658573.000000	1772895028.844000
-5110.425000	-10689.165000	4740.930000	-1278.225000	-23675.580000	-17718.390000	-1909.260000	-2929.905000	8.338356	6.936513	7.176612	6.434253	8.653363	5.022897	1.894440	10.587469	-5.066320	5.539380	-0.763000	0.743528	0.081787	0.617979	-1.000000	-1.000000	-1.000000	-1.000000	-1.000000	-1.000000	-1.000000	84.965517	0.000000	-1.000000	-1.000000	658574.000000	1772895028.844008
-5092.290000	-10705.950000	4726.890000	-1292.445000	-23688.540000	-17731.260000	-1907.955000	-2911.815000	2.826782	8.176250	6.805257	5.381375	7.827434	4.427730	5.895718	7.252003	-5.066320	5.539380	-0.763000	0.743528	0.081787	0.617979	-1.000000	-1.000000	-1.000000	-1.000000	-1.000000	-1.000000	-1.000000	84.965517	0.000000	-1.000000	-1.000000	658575.000000	1772895028.850808
-5097.150000	-10711.755000	4722.660000	-1294.380000	-23685.165000	-17730.945000	-1900.080000	-2894.805000	-1.788158	4.803629	1.926647	0.520530	3.272105	0.432312	7.075940	1.969204	-5.066320	5.539380	-0.763000	0.743528	0.081787	0.617979	-1.000000	-1.000000	-1.000000	-1.000000	-1.000000	-1.000000	-1.000000	84.965517	0.000000	-1.000000	-1.000000	658576.000000	1772895028.850816
-5102.505000	-10724.625000	4702.500000	-1311.345000	-23693.895000	-17733.870000	-1876.815000	-2879.325000	-3.195690	-2.809219	-6.156748	-6.928264	-3.956376	-5.437788	5.536525	-0.091717	-5.066320	5.539380	-0.763000	0.743528	0.081787	0.617979	-1.000000	-1.000000	-1.000000	-1.000000	-1.000000	-1.000000	-1.000000	84.965517	0.000000	-1.000000	-1.000000	658577.000000	1772895028.852021
-5094.810000	-10725.660000	4700.745000	-1312.470000	-23697.585000	-17734.905000	-1882.620000	-2897.640000	-2.133074	-10.272551	-12.889350	-12.759346	-10.219101	-9.192668	3.379598	1.813633	-5.066320	5.539380	-0.763000	0.743528	0.081787	0.617979	-1.000000	-1.000000	-1.000000	-1.000000	-1.000000	-1.000000	-1.000000	84.965517	0.000000	-1.000000	-1.000000	658578.000000	1772895028.852025
-5086.710000	-10708.290000	4724.460000	-1292.580000	-23687.820000	-17726.985000	-1893.600000	-2903.445000	0.023976	-12.336835	-13.547267	-12.653305	-11.565821	-7.779674	1.689172	3.565926	-5.066320	5.539380	-0.763000	0.743528	0.081787	0.617979	-1.000000	-1.000000	-1.000000	-1.000000	-1.000000	-1.000000	-1.000000	84.965517	0.000000	-1.000000	-1.000000	658579.000000	1772895028.855844
-5080.275000	-10688.940000	4744.620000	-1272.240000	-23664.015000	-17704.890000	-1887.165000	-2909.745000	2.216744	-6.882275	-6.493601	-5.272788	-6.563115	-1.456967	-0.239555	1.426302	-5.066320	5.539380	-0.763000	0.743528	0.081787	0.617979	-1.000000	-1.000000	-1.000000	-1.000000	-1.000000	-1.000000	-1.000000	84.965517	0.000000	-1.000000	-1.000000	658580.000000	1772895028.855850
-5099.220000	-10697.265000	4735.530000	-1281.735000	-23671.800000	-17708.805000	-1893.105000	-2931.030000	3.419022	2.655324	4.559841	5.635238	2.021855	6.218303	-2.957123	-3.992804	-0.900340	6.378680	-2.838360	0.753050	0.073486	0.619444	-1.000000	-1.000000	-1.000000	-1.000000	-1.000000	-1.000000	-1.000000	84.965517	0.000000	-1.000000	-1.000000	658581.000000	1772895028.860048
-5096.745000	-10703.295000	4730.625000	-1285.470000	-23674.365000	-17712.675000	-1895.265000	-2923.515000	2.997550	9.223747	12.214505	12.890267	8.493070	10.325125	-5.836787	-8.852209	-0.900340	6.378680	-2.838360	0.753050	0.073486	0.619444	-1.000000	-1.000000	-1.000000	-1.000000	-1.000000	-1.000000	-1.000000	84.965517	0.000000	-1.000000	-1.000000	658582.000000	1772895028.860055
-5055.255000	-10701.315000	4717.710000	-1298.745000	-23680.395000	-17726.445000	-1901.430000	-2863.080000	1.776785	8.479917	11.540762	11.841637	8.958984	8.169069	-7.499066	-8.499902	-0.900340	6.378680	-2.838360	0.753050	0.073486	0.619444	-1.000000	-1.000000	-1.000000	-1.000000	-1.000000	-1.000000	-1.000000	84.965517	0.000000	-1.000000	-1.000000	658583.000000	1772895028.863982
-5058.315000	-10702.080000	4713.570000	-1302.750000	-23681.160000	-17736.345000	-1916.010000	-2860.290000	1.323438	2.584561	4.126483	4.188225	4.472418	1.358018	-7.052044	-1.112935	-0.900340	6.378680	-2.838360	0.753050	0.073486	0.619444	-1.000000	-1.000000	-1.000000	-1.000000	-1.000000	-1.000000	-1.000000	84.965517	0.000000	-1.000000	-1.000000	658584.000000	1772895028.863991
-5081.580000	-10698.390000	4723.560000	-1287.720000	-23659.515000	-17713.170000	-1896.570000	-2887.740000	1.117915	-3.101249	-4.113309	-4.259105	-1.013071	-5.677364	-4.804181	8.203609	-0.900340	6.378680	-2.838360	0.753050	0.073486	0.619444	-1.000000	-1.000000	-1.000000	-1.000000	-1.000000	-1.000000	-1.000000	84.965517	0.000000	-1.000000	-1.000000	658585.000000	1772895028.867895
-5096.880000	-10716.525000	4713.885000	-1299.690000	-23685.390000	-17721.495000	-1895.355000	-2893.635000	-1.067161	-5.156045	-7.714573	-8.144179	-4.173473	-8.574494	-1.314895	11.244776	-0.900340	6.378680	-2.838360	0.753050	0.073486	0.619444	-1.000000	-1.000000	-1.000000	-1.000000	-1.000000	-1.000000	-1.000000	84.965517	0.000000	-1.000000	-1.000000	658586.000000	1772895028.867902
-5104.755000	-10736.685000	4702.950000	-1310.265000	-23696.550000	-17739.585000	-1916.055000	-2893.050000	-5.635665	-4.069060	-5.641589	-6.394600	-4.548459	-6.367068	2.695938	5.786029	-0.900340	6.378680	-2.838360	0.753050	0.073486	0.619444	-1.000000	-1.000000	-1.000000	-1.000000	-1.000000	-1.000000	-1.000000	84.965517	0.000000	-1.000000	-1.000000	658587.000000	1772895028.871871
-5105.880000	-10729.665000	4704.930000	-1311.615000	-23707.035000	-17743.005000	-1920.105000	-2898.720000	-10.123574	-2.510974	-1.473857	-2.398391	-4.042321	-2.191611	5.698916	-3.144095	-0.900340	6.378680	-2.838360	0.753050	0.073486	0.619444	-1.000000	-1.000000	-1.000000	-1.000000	-1.000000	-1.000000	-1.000000	84.965517	0.000000	-1.000000	-1.000000	658588.000000	1772895028.871878
-5113.620000	-10723.995000	4718.070000	-1296.315000	-23693.085000	-17730.990000	-1904.535000	-2902.140000	-11.200899	-1.831042	1.144570	0.381663	-3.955819	0.598689	6.578264	-9.323000	-0.900340	6.378680	-2.838360	0.753050	0.073486	0.619444	-1.000000	-1.000000	-1.000000	-1.000000	-1.000000	-1.000000	-1.000000	84.965517	0.000000	-1.000000	-1.000000	658589.000000	1772895028.875899
-5125.950000	-10729.980000	4711.095000	-1301.715000	-23692.995000	-17731.665000	-1892.880000	-2898.450000	-7.187632	-1.219460	1.754169	1.493563	-3.374979	1.572472	5.982401	-9.481851	-0.900340	6.378680	-2.838360	0.753050	0.073486	0.619444	-1.000000	-1.000000	-1.000000	-1.000000	-1.000000	-1.000000	-1.000000	84.965517	0.000000	-1.000000	-1.000000	658590.000000	1772895028.875907
-5103.495000	-10729.755000	4699.575000	-1319.085000	-23712.795000	-17748.495000	-1903.050000	-2894.580000	0.507090	0.206059	1.449372	1.783740	-1.167510	1.894302	5.024048	-4.520280	-0.808780	6.332900	-2.395820	0.754515	0.072693	0.624632	-1.000000	-1.000000	-1.000000	-1.000000	-1.000000	-1.000000	-1.000000	84.965517	0.000000	-1.000000	-1.000000	658591.000000	1772895028.880080
-5088.375000	-10737.765000	4689.225000	-1328.445000	-23717.925000	-17748.180000	-1908.720000	-2895.255000	8.238234	2.194683	0.894537	1.489596	1.884744	2.251541	3.552098	1.005636	-0.808780	6.332900	-2.395820	0.754515	0.072693	0.624632	-1.000000	-1.000000	-1.000000	-1.000000	-1.000000	-1.000000	-1.000000	84.965517	0.000000	-1.000000	-1.000000	658592.000000	1772895028.880088
-5109.120000	-10739.205000	4690.845000	-1325.835000	-23712.300000	-17743.725000	-1912.140000	-2894.310000	12.518495	3.753107	0.400475	0.760709	4.119575	2.751062	0.903858	3.171953	-0.808780	6.332900	-2.395820	0.754515	0.072693	0.624632	-1.000000	-1.000000	-1.000000	-1.000000	-1.000000	-1.000000	-1.000000	84.965517	0.000000	-1.000000	-1.000000	658593.000000	1772895028.883902
-5120.865000	-10739.295000	4688.415000	-1329.300000	-23717.970000	-17755.335000	-1921.635000	-2902.230000	11.830054	4.197683	0.262247	0.113777	4.685554	2.830229	-2.979133	2.493032	-0.808780	6.332900	-2.395820	0.754515	0.072693	0.624632	-1.000000	-1.000000	-1.000000	-1.000000	-1.000000	-1.000000	-1.000000	84.965517	0.000000	-1.000000	-1.000000	658594.000000	1772895028.883927
-5097.510000	-10730.340000	4696.605000	-1320.750000	-23706.540000	-17746.380000	-1911.195000	-2902.770000	7.474797	4.109638	0.922772	0.339573	4.274555	1.977486	-6.820569	1.658109	-0.808780	6.332900	-2.395820	0.754515	0.072693	0.624632	-1.000000	-1.000000	-1.000000	-1.000000	-1.000000	-1.000000	-1.000000	84.965517	0.000000	-1.000000	-1.000000	658595.000000	1772895028.889168
-5094.495000	-10734.750000	4695.750000	-1317.915000	-23694.570000	-17735.625000	-1894.680000	-2894.760000	2.631991	4.315962	2.444616	1.915425	4.500699	1.228983	-7.552481	1.993417	-0.808780	6.332900	-2.395820	0.754515	0.072693	0.624632	-1.000000	-1.000000	-1.000000	-1.000000	-1.000000	-1.000000	-1.000000	84.965517	0.000000	-1.000000	-1.000000	658596.000000	1772895028.889175
-5113.980000	-10737.405000	4697.640000	-1316.880000	-23691.870000	-17737.470000	-1902.285000	-2898.135000	-0.887008	3.878435	3.557429	3.767632	5.471097	1.545230	-3.535794	3.207009	-0.808780	6.332900	-2.395820	0.754515	0.072693	0.624632	-1.000000	-1.000000	-1.000000	-1.000000	-1.000000	-1.000000	-1.000000	84.965517	0.000000	-1.000000	-1.000000	658597.000000	1772895028.891906
-5113.755000	-10729.260000	4705.695000	-1309.365000	-23690.790000	-17738.010000	-1921.365000	-2903.580000	-3.487159	1.331059	2.745013	3.905773	5.075238	1.706402	1.915605	4.151142	-0.808780	6.332900	-2.395820	0.754515	0.072693	0.624632	-1.000000	-1.000000	-1.000000	-1.000000	-1.000000	-1.000000	-1.000000	84.965517	0.000000	-1.000000	-1.000000	658598.000000	1772895028.891914
-5107.230000	-10726.470000	4701.735000	-1317.555000	-23717.880000	-17749.890000	-1934.460000	-2911.725000	-5.285672	-2.506441	0.316165	1.801744	1.479362	0.175134	3.723851	3.415367	-0.808780	6.332900	-2.395820	0.754515	0.072693	0.624632	-1.000000	-1.000000	-1.000000	-1.000000	-1.000000	-1.000000	-1.000000	84.965517	0.000000	-1.000000	-1.000000	658599.000000	1772895028.896040
-5103.630000	-10727.820000	4699.710000	-1318.905000	-23714.865000	-17746.020000	-1923.390000	-2914.020000	-6.052188	-5.296327	-1.937094	-1.051732	-4.406837	-2.422296	1.139646	0.226828	-0.808780	6.332900	-2.395820	0.754515	0.072693	0.624632	-1.000000	-1.000000	-1.000000	-1.000000	-1.000000	-1.000000	-1.000000	84.965517	0.000000	-1.000000	-1.000000	658600.000000	1772895028.896048
-5107.455000	-10727.820000	4699.125000	-1319.490000	-23712.795000	-17747.730000	-1922.130000	-2927.340000	-6.180131	-5.692453	-2.689812	-2.860315	-9.195292	-4.099879	-1.912572	-4.566903	-4.608520	5.234180	-2.105880	0.749693	0.076843	0.630431	-1.000000	-1.000000	-1.000000	-1.000000	-1.000000	-1.000000	-1.000000	84.965517	0.000000	-1.000000	-1.000000	658601.000000	1772895028.899976
-5090.490000	-10724.580000	4703.805000	-1313.730000	-23703.570000	-17745.705000	-1924.470000	-2914.020000	-4.980634	-3.938459	-2.023100	-3.068440	-9.964208	-3.892508	-2.078754	-8.163774	-4.608520	5.234180	-2.105880	0.749693	0.076843	0.630431	-1.000000	-1.000000	-1.000000	-1.000000	-1.000000	-1.000000	-1.000000	84.965517	0.000000	-1.000000	-1.000000	658602.000000	1772895028.899983
-5082.570000	-10725.030000	4705.875000	-1310.220000	-23695.830000	-17743.095000	-1931.130000	-2893.545000	-1.034500	-1.186507	-0.803599	-2.140632	-6.288148	-2.212124	0.221151	-7.179846	-4.608520	5.234180	-2.105880	0.749693	0.076843	0.630431	-1.000000	-1.000000	-1.000000	-1.000000	-1.000000	-1.000000	-1.000000	84.965517	0.000000	-1.000000	-1.000000	658603.000000	1772895028.903946
-5100.030000	-10724.355000	4710.555000	-1307.655000	-23694.795000	-17734.320000	-1915.515000	-2891.565000	4.088213	1.219155	0.187943	-0.795358	-0.120118	0.170488	2.700832	-0.948138	-4.608520	5.234180	-2.105880	0.749693	0.076843	0.630431	-1.000000	-1.000000	-1.000000	-1.000000	-1.000000	-1.000000	-1.000000	84.965517	0.000000	-1.000000	-1.000000	658604.000000	1772895028.903953
-5121.540000	-10731.555000	4701.915000	-1317.735000	-23706.090000	-17743.680000	-1912.500000	-2901.870000	6.090574	2.231015	0.344230	-0.008050	4.916998	2.104295	3.919099	6.596006	-4.608520	5.234180	-2.105880	0.749693	0.076843	0.630431	-1.000000	-1.000000	-1.000000	-1.000000	-1.000000	-1.000000	-1.000000	84.965517	0.000000	-1.000000	-1.000000	658605.000000	1772895028.908032
-5107.230000	-10723.140000	4707.495000	-1310.040000	-23693.355000	-17737.695000	-1906.155000	-2892.690000	3.457594	1.565262	-0.664272	-0.531957	5.964261	2.366884	3.776659	10.300667	-4.608520	5.234180	-2.105880	0.749693	0.076843	0.630431	-1.000000	-1.000000	-1.000000	-1.000000	-1.000000	-1.000000	-1.000000	84.965517	0.000000	-1.000000	-1.000000	658606.000000	1772895028.908064
-5089.680000	-10706.265000	4727.835000	-1287.855000	-23678.730000	-17718.120000	-1894.590000	-2888.730000	-0.366956	0.203278	-1.983052	-1.522344	3.829295	1.357648	3.086682	8.632412	-4.608520	5.234180	-2.105880	0.749693	0.076843	0.630431	-1.000000	-1.000000	-1.000000	-1.000000	-1.000000	-1.000000	-1.000000	84.965517	0.000000	-1.000000	-1.000000	658607.000000	1772895028.912016
-5090.445000	-10713.870000	4717.170000	-1303.740000	-23704.830000	-17738.955000	-1913.400000	-2893.140000	-1.765870	-0.424626	-1.896318	-1.122726	1.581760	0.739618	2.378763	3.558396	-4.608520	5.234180	-2.105880	0.749693	0.076843	0.630431	-1.000000	-1.000000	-1.000000	-1.000000	-1.000000	-1.000000	-1.000000	84.965517	0.000000	-1.000000	-1.000000	658608.000000	1772895028.912026
-5102.280000	-10738.260000	4687.470000	-1335.780000	-23733.045000	-17769.330000	-1939.455000	-2896.920000	-1.117818	-0.428379	-0.496125	0.362147	-0.007661	0.297908	0.390467	-2.344283	-4.608520	5.234180	-2.105880	0.749693	0.076843	0.630431	-1.000000	-1.000000	-1.000000	-1.000000	-1.000000	-1.000000	-1.000000	84.965517	0.000000	-1.000000	-1.000000	658609.000000	1772895028.916013
-5105.970000	-10732.545000	4696.560000	-1323.495000	-23716.665000	-17752.590000	-1924.245000	-2912.535000	-0.736415	-1.058767	0.166135	0.610689	-2.322236	-1.507495	-3.847991	-7.074045	-4.608520	5.234180	-2.105880	0.749693	0.076843	0.630431	-1.000000	-1.000000	-1.000000	-1.000000	-1.000000	-1.000000	-1.000000	84.965517	0.000000	-1.000000	-1.000000	658610.000000	1772895028.916020
-5107.905000	-10744.380000	4690.350000	-1326.015000	-23713.920000	-17745.345000	-1912.320000	-2913.120000	-1.493418	-2.346042	-0.592391	-0.771664	-4.753220	-3.654543	-7.712256	-9.545169	-5.402040	4.181240	-0.595140	0.752073	0.080444	0.631651	-1.000000	-1.000000	-1.000000	-1.000000	-1.000000	-1.000000	-1.000000	84.965517	0.000000	-1.000000	-1.000000	658611.000000	1772895028.919788
-5098.410000	-10757.925000	4680.360000	-1332.855000	-23721.840000	-17755.290000	-1916.190000	-2900.565000	-2.497820	-3.273087	-1.656016	-2.065379	-5.203913	-3.752876	-7.582887	-9.369630	-5.402040	4.181240	-0.595140	0.752073	0.080444	0.631651	-1.000000	-1.000000	-1.000000	-1.000000	-1.000000	-1.000000	-1.000000	84.965517	0.000000	-1.000000	-1.000000	658612.000000	1772895028.919794
-5084.055000	-10751.940000	4688.145000	-1324.530000	-23712.795000	-17745.975000	-1904.760000	-2896.740000	-1.843248	-3.074787	-1.977161	-2.002240	-3.128293	-1.674442	-3.519760	-6.155518	-5.402040	4.181240	-0.595140	0.752073	0.080444	0.631651	-1.000000	-1.000000	-1.000000	-1.000000	-1.000000	-1.000000	-1.000000	84.965517	0.000000	-1.000000	-1.000000	658613.000000	1772895028.925259
-5120.370000	-10749.870000	4690.530000	-1321.290000	-23705.415000	-17741.070000	-1907.055000	-2919.735000	1.209819	-1.195770	-0.818317	-0.207987	0.655291	1.252743	1.474544	-0.642771	-5.402040	4.181240	-0.595140	0.752073	0.080444	0.631651	-1.000000	-1.000000	-1.000000	-1.000000	-1.000000	-1.000000	-1.000000	84.965517	0.000000	-1.000000	-1.000000	658614.000000	1772895028.925270
-5125.320000	-10730.475000	4697.910000	-1316.295000	-23697.315000	-17735.535000	-1910.700000	-2911.005000	3.847669	2.169602	1.672710	2.526003	4.608999	3.799329	4.598216	4.453713	-5.402040	4.181240	-0.595140	0.752073	0.080444	0.631651	-1.000000	-1.000000	-1.000000	-1.000000	-1.000000	-1.000000	-1.000000	84.965517	0.000000	-1.000000	-1.000000	658615.000000	1772895028.931769
-5125.140000	-10748.115000	4675.635000	-1341.180000	-23722.065000	-17758.890000	-1926.720000	-2894.895000	2.761188	5.318116	3.691227	4.006795	6.563240	4.490827	4.528216	7.088733	-5.402040	4.181240	-0.595140	0.752073	0.080444	0.631651	-1.000000	-1.000000	-1.000000	-1.000000	-1.000000	-1.000000	-1.000000	84.965517	0.000000	-1.000000	-1.000000	658616.000000	1772895028.931778
-5126.085000	-10741.995000	4684.410000	-1332.405000	-23720.580000	-17752.590000	-1927.170000	-2904.570000	-1.266189	6.321346	3.742626	3.057890	5.525689	2.848380	2.053683	7.461400	-5.402040	4.181240	-0.595140	0.752073	0.080444	0.631651	-1.000000	-1.000000	-1.000000	-1.000000	-1.000000	-1.000000	-1.000000	84.965517	0.000000	-1.000000	-1.000000	658617.000000	1772895028.931824
-5127.705000	-10741.950000	4688.055000	-1328.715000	-23725.620000	-17753.355000	-1927.440000	-2910.690000	-4.421644	5.161636	2.848910	1.449274	2.778894	0.667456	-0.328593	6.156179	-5.402040	4.181240	-0.595140	0.752073	0.080444	0.631651	-1.000000	-1.000000	-1.000000	-1.000000	-1.000000	-1.000000	-1.000000	84.965517	0.000000	-1.000000	-1.000000	658618.000000	1772895028.931829
-5109.210000	-10724.625000	4706.235000	-1310.310000	-23702.940000	-17739.900000	-1919.115000	-2899.035000	-3.742929	3.324353	2.758320	1.307306	0.109813	-0.292104	-0.931015	3.673747	-5.402040	4.181240	-0.595140	0.752073	0.080444	0.631651	-1.000000	-1.000000	-1.000000	-1.000000	-1.000000	-1.000000	-1.000000	84.965517	0.000000	-1.000000	-1.000000	658619.000000	1772895028.938769
-5094.270000	-10717.560000	4708.125000	-1311.030000	-23701.815000	-17741.565000	-1915.830000	-2888.100000	0.794800	2.059166	3.499844	2.417379	-1.495835	-0.214650	-0.144795	1.075445	-5.402040	4.181240	-0.595140	0.752073	0.080444	0.631651	-1.000000	-1.000000	-1.000000	-1.000000	-1.000000	-1.000000	-1.000000	84.965517	0.000000	-1.000000	-1.000000	658620.000000	1772895028.938778
-5113.845000	-10720.440000	4710.870000	-1306.755000	-23695.470000	-17739.900000	-1921.140000	-2902.770000	6.043111	1.518021	3.758556	3.090006	-1.782303	-0.066315	0.740084	-1.195176	-3.723440	5.646200	-0.503580	0.754271	0.078064	0.627867	-1.000000	-1.000000	-1.000000	-1.000000	-1.000000	-1.000000	-1.000000	84.965517	0.000000	-1.000000	-1.000000	658621.000000	1772895028.941359
-5104.935000	-10715.670000	4718.295000	-1297.080000	-23688.225000	-17736.390000	-1921.590000	-2896.830000	8.020694	0.592755	2.269212	2.050763	-1.292174	-0.460176	0.593672	-3.395283	-3.723440	5.646200	-0.503580	0.754271	0.078064	0.627867	-1.000000	-1.000000	-1.000000	-1.000000	-1.000000	-1.000000	-1.000000	84.965517	0.000000	-1.000000	-1.000000	658622.000000	1772895028.941366
-5089.140000	-10712.790000	4717.980000	-1299.780000	-23693.445000	-17738.280000	-1920.915000	-2892.240000	6.200356	-1.803587	-1.087769	-0.670789	-1.115007	-1.487850	-0.654277	-4.701252	-3.723440	5.646200	-0.503580	0.754271	0.078064	0.627867	-1.000000	-1.000000	-1.000000	-1.000000	-1.000000	-1.000000	-1.000000	84.965517	0.000000	-1.000000	-1.000000	658623.000000	1772895028.943788
