Channel1	Channel2	Channel3	Channel4	Channel5	Channel6	Channel7	Channel8	FilteredChannel1	FilteredChannel2	FilteredChannel3	FilteredChannel4	FilteredChannel5	FilteredChannel6	FilteredChannel7	FilteredChannel8	GyroX	GyroY	GyroZ	AccX	AccY	AccZ	PPG1	PPG2	rawPPG1	rawPPG2	rawPPG3	Hr	Hrv	Battery	Trigger	PhysicalTrigger	AutoTrigger	NumMeasurements	Timestamp
-53452.530000	-141324.975000	18126.360000	-1871.955000	-1905.030000	5418.045000	-583.245000	9401.670000	2.706505	0.455275	0.098990	0.065109	0.606370	0.133079	-2.227074	4.227302	-2.990960	3.433500	-0.320460	0.855711	0.188842	0.454528	-1.000000	-1.000000	-1.000000	-1.000000	-1.000000	-1.000000	-1.000000	81.517241	0.000000	-1.000000	-1.000000	568649.000000	1772659025.083117
-53454.060000	-141310.890000	18143.190000	-1855.305000	-1889.955000	5432.085000	-578.385000	9383.130000	2.232719	1.029478	1.720567	1.903438	2.248101	1.403093	-1.579316	5.507689	-2.990960	3.433500	-0.320460	0.855711	0.188842	0.454528	-1.000000	-1.000000	-1.000000	-1.000000	-1.000000	-1.000000	-1.000000	81.517241	0.000000	-1.000000	-1.000000	568650.000000	1772659025.083128
-53435.655000	-141291.855000	18166.680000	-1828.980000	-1858.905000	5465.835000	-559.530000	9391.500000	-0.647760	-0.951632	0.147153	0.591273	1.006817	0.526049	-1.584379	3.028808	-2.960440	3.921820	-0.106820	0.854490	0.187622	0.454284	-1.000000	-1.000000	-1.000000	-1.000000	-1.000000	-1.000000	-1.000000	81.379310	0.000000	-1.000000	-1.000000	568651.000000	1772659025.086000
-53410.950000	-141284.700000	18173.295000	-1819.080000	-1845.180000	5482.305000	-540.450000	9429.705000	-3.760338	-3.168643	-2.084683	-1.331933	-0.560095	-0.243526	-1.355619	-1.983097	-2.960440	3.921820	-0.106820	0.854490	0.187622	0.454284	-1.000000	-1.000000	-1.000000	-1.000000	-1.000000	-1.000000	-1.000000	81.379310	0.000000	-1.000000	-1.000000	568652.000000	1772659025.086286
-53416.215000	-141294.510000	18158.985000	-1836.540000	-1866.150000	5460.480000	-540.720000	9436.500000	-3.918834	-3.134901	-2.326877	-1.369142	-0.240622	0.781892	0.435958	-4.532776	-2.960440	3.921820	-0.106820	0.854490	0.187622	0.454284	-1.000000	-1.000000	-1.000000	-1.000000	-1.000000	-1.000000	-1.000000	81.379310	0.000000	-1.000000	-1.000000	568653.000000	1772659025.089683
-53451.810000	-141337.755000	18110.610000	-1888.290000	-1920.825000	5406.030000	-576.090000	9408.285000	-1.198118	-1.613541	-1.400773	-0.668235	0.296790	1.525852	3.028764	-1.685827	-2.960440	3.921820	-0.106820	0.854490	0.187622	0.454284	-1.000000	-1.000000	-1.000000	-1.000000	-1.000000	-1.000000	-1.000000	81.379310	0.000000	-1.000000	-1.000000	568654.000000	1772659025.089692
-53477.145000	-141352.155000	18095.895000	-1903.590000	-1936.710000	5391.585000	-590.850000	9375.570000	0.303131	-1.914852	-2.569825	-2.630619	-2.574087	-1.680878	3.079874	2.458612	-2.960440	3.921820	-0.106820	0.854490	0.187622	0.454284	-1.000000	-1.000000	-1.000000	-1.000000	-1.000000	-1.000000	-1.000000	81.379310	0.000000	-1.000000	-1.000000	568655.000000	1772659025.093703
-53454.915000	-141324.030000	18125.685000	-1873.215000	-1908.270000	5416.785000	-573.120000	9392.535000	-1.350872	-4.245077	-5.751118	-6.810376	-7.956044	-7.725598	-0.534656	2.867431	-2.960440	3.921820	-0.106820	0.854490	0.187622	0.454284	-1.000000	-1.000000	-1.000000	-1.000000	-1.000000	-1.000000	-1.000000	81.379310	0.000000	-1.000000	-1.000000	568656.000000	1772659025.093713
-53427.510000	-141310.980000	18140.985000	-1857.600000	-1891.890000	5429.160000	-572.130000	9414.720000	-2.572060	-4.054779	-5.796926	-7.460329	-9.404587	-10.059727	-4.129946	0.284215	-2.960440	3.921820	-0.106820	0.854490	0.187622	0.454284	-1.000000	-1.000000	-1.000000	-1.000000	-1.000000	-1.000000	-1.000000	81.379310	0.000000	-1.000000	-1.000000	568657.000000	1772659025.099494
-53432.865000	-141304.320000	18150.165000	-1846.845000	-1879.785000	5442.570000	-570.195000	9398.340000	0.280243	1.452249	0.639956	-0.859586	-2.782252	-4.387221	-4.012327	-1.589294	-2.960440	3.921820	-0.106820	0.854490	0.187622	0.454284	-1.000000	-1.000000	-1.000000	-1.000000	-1.000000	-1.000000	-1.000000	81.379310	0.000000	-1.000000	-1.000000	568658.000000	1772659025.099501
-53451.315000	-141308.505000	18151.020000	-1842.165000	-1872.090000	5452.875000	-577.440000	9362.835000	5.130134	8.641085	9.673526	9.094754	8.041962	5.992533	-0.811408	-1.871637	-2.960440	3.921820	-0.106820	0.854490	0.187622	0.454284	-1.000000	-1.000000	-1.000000	-1.000000	-1.000000	-1.000000	-1.000000	81.379310	0.000000	-1.000000	-1.000000	568659.000000	1772659025.101691
-53442.945000	-141317.865000	18139.230000	-1854.855000	-1884.285000	5439.870000	-583.605000	9387.945000	6.554235	11.149229	13.775287	14.431732	14.668030	13.122466	1.774758	-2.573731	-2.960440	3.921820	-0.106820	0.854490	0.187622	0.454284	-1.000000	-1.000000	-1.000000	-1.000000	-1.000000	-1.000000	-1.000000	81.379310	0.000000	-1.000000	-1.000000	568660.000000	1772659025.101699
-53447.130000	-141331.230000	18123.390000	-1872.405000	-1902.015000	5422.950000	-576.720000	9408.420000	2.571503	6.458169	9.258918	10.705736	11.912721	11.517923	1.324643	-3.834541	-1.403920	4.761120	0.259420	0.853086	0.187255	0.454345	-1.000000	-1.000000	-1.000000	-1.000000	-1.000000	-1.000000	-1.000000	81.379310	0.000000	-1.000000	-1.000000	568661.000000	1772659025.105767
-53447.535000	-141330.015000	18119.970000	-1879.245000	-1911.060000	5414.220000	-571.050000	9409.005000	-3.281269	-1.802977	-0.385163	0.933956	2.354339	3.121212	-0.459909	-2.909073	-1.403920	4.761120	0.259420	0.853086	0.187255	0.454345	-1.000000	-1.000000	-1.000000	-1.000000	-1.000000	-1.000000	-1.000000	81.379310	0.000000	-1.000000	-1.000000	568662.000000	1772659025.105776
-53444.475000	-141320.070000	18129.735000	-1870.785000	-1903.095000	5424.345000	-559.710000	9407.385000	-5.748160	-7.062713	-7.661587	-7.160882	-6.147385	-4.604372	0.103524	1.679111	-1.403920	4.761120	0.259420	0.853086	0.187255	0.454345	-1.000000	-1.000000	-1.000000	-1.000000	-1.000000	-1.000000	-1.000000	81.379310	0.000000	-1.000000	-1.000000	568663.000000	1772659025.110970
-53452.890000	-141312.285000	18143.145000	-1855.710000	-1888.965000	5434.965000	-567.810000	9389.070000	-2.723647	-5.611717	-7.689543	-8.074727	-7.696345	-5.944343	3.870009	7.748696	-1.403920	4.761120	0.259420	0.853086	0.187255	0.454345	-1.000000	-1.000000	-1.000000	-1.000000	-1.000000	-1.000000	-1.000000	81.379310	0.000000	-1.000000	-1.000000	568664.000000	1772659025.110979
-53449.695000	-141303.645000	18157.770000	-1839.645000	-1875.240000	5444.820000	-575.415000	9384.885000	2.628785	0.184816	-2.068155	-2.872425	-3.058491	-1.762972	7.246492	10.560486	-1.403920	4.761120	0.259420	0.853086	0.187255	0.454345	-1.000000	-1.000000	-1.000000	-1.000000	-1.000000	-1.000000	-1.000000	81.379310	0.000000	-1.000000	-1.000000	568665.000000	1772659025.113654
-53396.370000	-141272.685000	18184.545000	-1813.545000	-1847.790000	5474.565000	-532.530000	9468.180000	5.901788	5.280917	4.102787	3.478040	2.902027	3.262023	6.808884	7.920114	-1.403920	4.761120	0.259420	0.853086	0.187255	0.454345	-1.000000	-1.000000	-1.000000	-1.000000	-1.000000	-1.000000	-1.000000	81.379310	0.000000	-1.000000	-1.000000	568666.000000	1772659025.113664
-53374.545000	-141267.780000	18185.130000	-1813.455000	-1846.035000	5476.545000	-526.230000	9501.660000	6.855342	6.918779	7.018955	6.848715	6.115181	5.590646	3.639727	4.429300	-1.403920	4.761120	0.259420	0.853086	0.187255	0.454345	-1.000000	-1.000000	-1.000000	-1.000000	-1.000000	-1.000000	-1.000000	81.379310	0.000000	-1.000000	-1.000000	568667.000000	1772659025.120775
-53466.660000	-141335.595000	18119.205000	-1879.245000	-1909.215000	5416.110000	-586.125000	9347.130000	5.878777	3.988241	4.425507	4.527516	3.936831	3.011364	-0.449857	2.724258	-1.403920	4.761120	0.259420	0.853086	0.187255	0.454345	-1.000000	-1.000000	-1.000000	-1.000000	-1.000000	-1.000000	-1.000000	81.379310	0.000000	-1.000000	-1.000000	568668.000000	1772659025.120781
-53462.205000	-141337.305000	18113.085000	-1885.095000	-1914.345000	5413.365000	-585.720000	9369.495000	0.023029	-3.802764	-3.999752	-3.951673	-4.157926	-4.914792	-6.210818	-3.419970	-1.403920	4.761120	0.259420	0.853086	0.187255	0.454345	-1.000000	-1.000000	-1.000000	-1.000000	-1.000000	-1.000000	-1.000000	81.379310	0.000000	-1.000000	-1.000000	568669.000000	1772659025.121898
-53448.975000	-141325.470000	18124.830000	-1869.570000	-1896.255000	5430.600000	-569.970000	9402.255000	-9.796166	-12.333868	-13.213105	-13.218616	-12.927148	-13.132160	-12.300077	-15.455231	-1.403920	4.761120	0.259420	0.853086	0.187255	0.454345	-1.000000	-1.000000	-1.000000	-1.000000	-1.000000	-1.000000	-1.000000	81.379310	0.000000	-1.000000	-1.000000	568670.000000	1772659025.121902
-53474.490000	-141341.175000	18107.910000	-1887.795000	-1913.670000	5415.705000	-574.065000	9367.695000	-16.246181	-14.847119	-15.608007	-15.260098	-14.440644	-14.093535	-13.984407	-23.501269	-1.052940	5.203660	0.595140	0.851194	0.187561	0.454711	-1.000000	-1.000000	-1.000000	-1.000000	-1.000000	-1.000000	-1.000000	81.379310	0.000000	-1.000000	-1.000000	568671.000000	1772659025.125859
-53466.030000	-141344.055000	18103.410000	-1896.165000	-1923.615000	5406.660000	-579.330000	9379.485000	-14.244828	-9.433802	-9.271282	-8.352747	-7.171820	-6.578520	-9.037495	-19.710796	-1.052940	5.203660	0.595140	0.851194	0.187561	0.454711	-1.000000	-1.000000	-1.000000	-1.000000	-1.000000	-1.000000	-1.000000	81.379310	0.000000	-1.000000	-1.000000	568672.000000	1772659025.125867
-53455.230000	-141329.340000	18121.635000	-1875.285000	-1904.895000	5421.060000	-574.515000	9390.105000	-4.847995	-0.017434	1.060986	2.085908	3.128250	3.624305	-0.061543	-5.309694	-1.052940	5.203660	0.595140	0.851194	0.187561	0.454711	-1.000000	-1.000000	-1.000000	-1.000000	-1.000000	-1.000000	-1.000000	81.379310	0.000000	-1.000000	-1.000000	568673.000000	1772659025.130002
-53451.225000	-141318.495000	18135.315000	-1863.450000	-1895.355000	5428.260000	-575.145000	9383.985000	6.748420	8.382190	9.723754	10.112108	10.384841	10.507907	8.321001	11.861102	-1.052940	5.203660	0.595140	0.851194	0.187561	0.454711	-1.000000	-1.000000	-1.000000	-1.000000	-1.000000	-1.000000	-1.000000	81.379310	0.000000	-1.000000	-1.000000	568674.000000	1772659025.130011
-53451.405000	-141314.085000	18145.980000	-1852.470000	-1884.150000	5441.220000	-568.440000	9385.560000	13.672289	12.287155	13.485625	12.890056	12.031445	11.608980	11.966567	21.250474	-1.052940	5.203660	0.595140	0.851194	0.187561	0.454711	-1.000000	-1.000000	-1.000000	-1.000000	-1.000000	-1.000000	-1.000000	81.379310	0.000000	-1.000000	-1.000000	568675.000000	1772659025.139529
-53447.850000	-141309.180000	18151.470000	-1847.205000	-1880.820000	5444.460000	-565.740000	9395.595000	12.725311	11.068134	12.271157	10.938212	9.086172	8.180602	9.892502	18.619614	-1.052940	5.203660	0.595140	0.851194	0.187561	0.454711	-1.000000	-1.000000	-1.000000	-1.000000	-1.000000	-1.000000	-1.000000	81.379310	0.000000	-1.000000	-1.000000	568676.000000	1772659025.139538
-53433.135000	-141291.900000	18167.850000	-1833.570000	-1871.460000	5450.220000	-562.005000	9397.440000	7.896554	7.846609	9.128706	7.639502	5.304096	4.159026	5.558368	10.820830	-1.052940	5.203660	0.595140	0.851194	0.187561	0.454711	-1.000000	-1.000000	-1.000000	-1.000000	-1.000000	-1.000000	-1.000000	81.379310	0.000000	-1.000000	-1.000000	568677.000000	1772659025.142535
-53432.370000	-141291.720000	18166.770000	-1834.380000	-1873.170000	5445.585000	-569.340000	9389.610000	4.649984	5.925347	6.866123	5.737131	3.540944	2.344127	2.494197	5.287833	-1.052940	5.203660	0.595140	0.851194	0.187561	0.454711	-1.000000	-1.000000	-1.000000	-1.000000	-1.000000	-1.000000	-1.000000	81.379310	0.000000	-1.000000	-1.000000	568678.000000	1772659025.142548
-53436.240000	-141295.320000	18158.355000	-1836.135000	-1869.030000	5449.185000	-578.655000	9389.700000	3.268061	4.543811	4.543414	4.146965	2.816456	1.723839	0.257209	1.362788	-1.052940	5.203660	0.595140	0.851194	0.187561	0.454711	-1.000000	-1.000000	-1.000000	-1.000000	-1.000000	-1.000000	-1.000000	81.379310	0.000000	-1.000000	-1.000000	568679.000000	1772659025.142559
-53419.095000	-141279.165000	18169.020000	-1822.995000	-1853.730000	5464.935000	-561.960000	9404.460000	1.525395	1.490035	0.152211	0.878860	1.213086	0.517020	-2.536932	-3.061032	-1.052940	5.203660	0.595140	0.851194	0.187561	0.454711	-1.000000	-1.000000	-1.000000	-1.000000	-1.000000	-1.000000	-1.000000	81.379310	0.000000	-1.000000	-1.000000	568680.000000	1772659025.142563
-53397.765000	-141269.895000	18177.345000	-1817.145000	-1848.240000	5474.070000	-532.350000	9449.235000	-0.772598	-2.919166	-5.575130	-3.616961	-1.257829	-1.117981	-4.379867	-5.886780	-3.158820	4.913720	-0.289940	0.851377	0.189514	0.452391	-1.000000	-1.000000	-1.000000	-1.000000	-1.000000	-1.000000	-1.000000	81.379310	0.000000	-1.000000	-1.000000	568681.000000	1772659025.145823
-53411.715000	-141298.290000	18144.405000	-1853.505000	-1884.330000	5441.400000	-550.935000	9442.800000	-3.114500	-7.533895	-10.985048	-8.560709	-4.774034	-3.306139	-3.400133	-5.056372	-3.158820	4.913720	-0.289940	0.851377	0.189514	0.452391	-1.000000	-1.000000	-1.000000	-1.000000	-1.000000	-1.000000	-1.000000	81.379310	0.000000	-1.000000	-1.000000	568682.000000	1772659025.145831
-53448.165000	-141327.180000	18124.560000	-1869.750000	-1897.695000	5428.530000	-565.560000	9412.245000	-6.678423	-12.594243	-15.833084	-14.271983	-10.409299	-7.490782	-1.479687	-3.147523	-3.158820	4.913720	-0.289940	0.851377	0.189514	0.452391	-1.000000	-1.000000	-1.000000	-1.000000	-1.000000	-1.000000	-1.000000	81.379310	0.000000	-1.000000	-1.000000	568683.000000	1772659025.149773
-53419.230000	-141298.605000	18154.620000	-1841.175000	-1872.270000	5449.995000	-552.960000	9449.955000	-11.741083	-16.927611	-18.613342	-18.712142	-16.200959	-12.697393	-1.765548	-4.037611	-3.158820	4.913720	-0.289940	0.851377	0.189514	0.452391	-1.000000	-1.000000	-1.000000	-1.000000	-1.000000	-1.000000	-1.000000	81.379310	0.000000	-1.000000	-1.000000	568684.000000	1772659025.149780
-53437.230000	-141291.495000	18167.760000	-1827.045000	-1859.715000	5458.680000	-565.605000	9385.425000	-14.505878	-15.976352	-15.055531	-16.585125	-16.355092	-13.979374	-3.777071	-7.057513	-3.158820	4.913720	-0.289940	0.851377	0.189514	0.452391	-1.000000	-1.000000	-1.000000	-1.000000	-1.000000	-1.000000	-1.000000	81.379310	0.000000	-1.000000	-1.000000	568685.000000	1772659025.155059
-53467.830000	-141308.865000	18153.765000	-1839.870000	-1871.145000	5450.400000	-570.645000	9328.680000	-11.757411	-7.360659	-3.752909	-5.781384	-7.819146	-7.905365	-4.815886	-10.093798	-3.158820	4.913720	-0.289940	0.851377	0.189514	0.452391	-1.000000	-1.000000	-1.000000	-1.000000	-1.000000	-1.000000	-1.000000	81.379310	0.000000	-1.000000	-1.000000	568686.000000	1772659025.155067
-53462.250000	-141314.895000	18146.790000	-1849.095000	-1881.945000	5440.410000	-562.455000	9370.125000	-5.231758	4.597894	9.843541	8.280817	4.958909	2.603457	-3.499565	-12.232574	-3.158820	4.913720	-0.289940	0.851377	0.189514	0.452391	-1.000000	-1.000000	-1.000000	-1.000000	-1.000000	-1.000000	-1.000000	81.379310	0.000000	-1.000000	-1.000000	568687.000000	1772659025.160868
-53476.065000	-141361.290000	18092.655000	-1903.815000	-1931.805000	5395.545000	-588.555000	9399.870000	1.964087	12.804989	17.768972	16.988974	13.702436	10.614512	-0.386514	-9.702643	-3.158820	4.913720	-0.289940	0.851377	0.189514	0.452391	-1.000000	-1.000000	-1.000000	-1.000000	-1.000000	-1.000000	-1.000000	81.379310	0.000000	-1.000000	-1.000000	568688.000000	1772659025.160879
-53478.495000	-141357.330000	18095.085000	-1898.685000	-1922.040000	5407.380000	-582.435000	9387.405000	7.618103	13.013663	15.635362	15.383003	13.251916	11.128693	2.260315	0.044417	-3.158820	4.913720	-0.289940	0.851377	0.189514	0.452391	-1.000000	-1.000000	-1.000000	-1.000000	-1.000000	-1.000000	-1.000000	81.379310	0.000000	-1.000000	-1.000000	568689.000000	1772659025.162117
-53473.680000	-141349.680000	18104.805000	-1889.190000	-1916.280000	5413.410000	-575.055000	9377.910000	10.015850	6.913174	6.129076	6.256450	5.938781	5.575536	2.693940	11.459693	-3.158820	4.913720	-0.289940	0.851377	0.189514	0.452391	-1.000000	-1.000000	-1.000000	-1.000000	-1.000000	-1.000000	-1.000000	81.379310	0.000000	-1.000000	-1.000000	568690.000000	1772659025.162125
-53476.965000	-141353.955000	18101.250000	-1892.925000	-1918.980000	5412.240000	-573.795000	9384.615000	9.489365	0.826898	-2.773401	-2.153243	-0.849859	0.152576	2.076005	16.929299	-2.990960	5.600420	-0.976640	0.851316	0.189025	0.454894	-1.000000	-1.000000	-1.000000	-1.000000	-1.000000	-1.000000	-1.000000	81.379310	0.000000	-1.000000	-1.000000	568691.000000	1772659025.167360
-53451.720000	-141337.800000	18116.010000	-1879.245000	-1904.895000	5425.245000	-571.905000	9397.530000	8.285934	-0.356661	-5.123824	-4.074768	-2.126927	-0.808923	2.420718	15.080447	-2.990960	5.600420	-0.976640	0.851316	0.189025	0.454894	-1.000000	-1.000000	-1.000000	-1.000000	-1.000000	-1.000000	-1.000000	81.379310	0.000000	-1.000000	-1.000000	568692.000000	1772659025.167364
-53443.215000	-141320.565000	18137.295000	-1858.095000	-1885.770000	5439.420000	-574.650000	9395.865000	7.833960	2.958585	-1.322750	-0.262159	1.283675	1.970942	3.648896	9.315585	-2.990960	5.600420	-0.976640	0.851316	0.189025	0.454894	-1.000000	-1.000000	-1.000000	-1.000000	-1.000000	-1.000000	-1.000000	81.379310	0.000000	-1.000000	-1.000000	568693.000000	1772659025.169828
-53441.910000	-141318.270000	18141.210000	-1854.810000	-1885.095000	5438.745000	-558.855000	9420.345000	7.584273	6.954146	4.347055	4.958230	5.527519	5.155649	4.577803	4.322210	-2.990960	5.600420	-0.976640	0.851316	0.189025	0.454894	-1.000000	-1.000000	-1.000000	-1.000000	-1.000000	-1.000000	-1.000000	81.379310	0.000000	-1.000000	-1.000000	568694.000000	1772659025.169837
-53395.425000	-141280.830000	18174.150000	-1825.830000	-1861.965000	5456.115000	-535.455000	9474.840000	6.794890	8.631107	8.193108	8.117812	7.594507	6.249822	4.991744	4.041263	-2.990960	5.600420	-0.976640	0.851316	0.189025	0.454894	-1.000000	-1.000000	-1.000000	-1.000000	-1.000000	-1.000000	-1.000000	81.379310	0.000000	-1.000000	-1.000000	568695.000000	1772659025.175620
-53408.970000	-141282.990000	18172.845000	-1827.090000	-1865.205000	5451.390000	-545.220000	9431.010000	5.299821	7.833859	9.270877	8.525847	7.045227	5.104877	4.948991	6.581649	-2.990960	5.600420	-0.976640	0.851316	0.189025	0.454894	-1.000000	-1.000000	-1.000000	-1.000000	-1.000000	-1.000000	-1.000000	81.379310	0.000000	-1.000000	-1.000000	568696.000000	1772659025.175628
-53461.170000	-141334.920000	18120.285000	-1877.040000	-1910.610000	5412.555000	-575.775000	9372.870000	1.278355	4.608033	7.272285	6.189964	4.171040	2.260913	3.165137	3.454283	-2.990960	5.600420	-0.976640	0.851316	0.189025	0.454894	-1.000000	-1.000000	-1.000000	-1.000000	-1.000000	-1.000000	-1.000000	81.379310	0.000000	-1.000000	-1.000000	568697.000000	1772659025.177688
-53440.065000	-141318.045000	18137.160000	-1859.490000	-1891.845000	5432.850000	-559.890000	9407.070000	-7.176069	-2.288855	0.904802	0.090810	-1.612334	-2.570676	-1.715071	-9.314844	-2.990960	5.600420	-0.976640	0.851316	0.189025	0.454894	-1.000000	-1.000000	-1.000000	-1.000000	-1.000000	-1.000000	-1.000000	81.379310	0.000000	-1.000000	-1.000000	568698.000000	1772659025.177692
-53458.830000	-141326.640000	18130.365000	-1866.420000	-1897.560000	5429.700000	-564.930000	9388.530000	-16.972826	-11.385919	-8.526036	-8.554766	-8.914628	-8.146584	-8.053520	-23.560510	-2.990960	5.600420	-0.976640	0.851316	0.189025	0.454894	-1.000000	-1.000000	-1.000000	-1.000000	-1.000000	-1.000000	-1.000000	81.379310	0.000000	-1.000000	-1.000000	568699.000000	1772659025.181708
-53467.515000	-141329.970000	18133.110000	-1861.155000	-1892.790000	5432.130000	-570.690000	9380.565000	-22.019533	-17.697284	-15.968196	-15.114351	-13.655865	-11.223510	-11.997978	-28.420249	-2.990960	5.600420	-0.976640	0.851316	0.189025	0.454894	-1.000000	-1.000000	-1.000000	-1.000000	-1.000000	-1.000000	-1.000000	81.379310	0.000000	-1.000000	-1.000000	568700.000000	1772659025.181714
-53436.510000	-141305.220000	18159.255000	-1836.315000	-1870.470000	5450.580000	-570.555000	9399.735000	-19.080255	-17.500236	-17.168010	-15.769366	-13.059958	-9.986571	-11.258469	-20.893938	-2.304260	5.020540	-1.312360	0.850828	0.185668	0.455809	-1.000000	-1.000000	-1.000000	-1.000000	-1.000000	-1.000000	-1.000000	81.379310	0.000000	-1.000000	-1.000000	568701.000000	1772659025.185814
-53444.745000	-141304.095000	18161.730000	-1833.975000	-1867.005000	5454.405000	-579.330000	9384.165000	-8.923646	-10.818289	-11.670633	-10.336451	-7.610269	-5.208792	-6.427431	-5.026330	-2.304260	5.020540	-1.312360	0.850828	0.185668	0.455809	-1.000000	-1.000000	-1.000000	-1.000000	-1.000000	-1.000000	-1.000000	81.379310	0.000000	-1.000000	-1.000000	568702.000000	1772659025.185822
-53453.700000	-141318.945000	18147.420000	-1847.655000	-1879.515000	5447.835000	-561.645000	9386.550000	4.054486	-1.145607	-2.801436	-2.101841	-0.342003	0.722831	0.023354	11.542545	-2.304260	5.020540	-1.312360	0.850828	0.185668	0.455809	-1.000000	-1.000000	-1.000000	-1.000000	-1.000000	-1.000000	-1.000000	81.379310	0.000000	-1.000000	-1.000000	568703.000000	1772659025.190632
-53449.965000	-141318.630000	18148.320000	-1847.295000	-1881.090000	5442.705000	-543.960000	9411.030000	13.385555	6.335913	4.422908	4.312557	4.874850	4.874921	5.631241	21.196186	-2.304260	5.020540	-1.312360	0.850828	0.185668	0.455809	-1.000000	-1.000000	-1.000000	-1.000000	-1.000000	-1.000000	-1.000000	81.379310	0.000000	-1.000000	-1.000000	568704.000000	1772659025.190641
-53426.025000	-141305.535000	18154.845000	-1841.670000	-1874.970000	5448.015000	-538.290000	9445.410000	16.168539	9.430373	7.860334	7.140192	6.719688	6.148145	9.595246	22.414803	-2.304260	5.020540	-1.312360	0.850828	0.185668	0.455809	-1.000000	-1.000000	-1.000000	-1.000000	-1.000000	-1.000000	-1.000000	81.379310	0.000000	-1.000000	-1.000000	568705.000000	1772659025.202923
-53437.680000	-141335.730000	18113.085000	-1883.295000	-1913.715000	5412.375000	-573.885000	9416.835000	14.900846	10.013614	8.886600	7.808174	6.620686	5.529500	11.315983	19.044019	-2.304260	5.020540	-1.312360	0.850828	0.185668	0.455809	-1.000000	-1.000000	-1.000000	-1.000000	-1.000000	-1.000000	-1.000000	81.379310	0.000000	-1.000000	-1.000000	568706.000000	1772659025.202932
-53445.420000	-141334.965000	18115.110000	-1881.495000	-1910.430000	5416.605000	-577.575000	9397.125000	11.580691	8.994973	7.814780	6.590443	4.915383	3.225033	8.692509	12.333373	-2.304260	5.020540	-1.312360	0.850828	0.185668	0.455809	-1.000000	-1.000000	-1.000000	-1.000000	-1.000000	-1.000000	-1.000000	81.379310	0.000000	-1.000000	-1.000000	568707.000000	1772659025.202943
-53431.965000	-141309.855000	18143.235000	-1853.775000	-1884.240000	5440.545000	-564.255000	9410.670000	6.054095	6.053052	4.579081	3.484554	1.797730	-0.225139	1.679182	1.626780	-2.304260	5.020540	-1.312360	0.850828	0.185668	0.455809	-1.000000	-1.000000	-1.000000	-1.000000	-1.000000	-1.000000	-1.000000	81.379310	0.000000	-1.000000	-1.000000	568708.000000	1772659025.202947
-53472.240000	-141337.755000	18122.355000	-1873.845000	-1903.455000	5421.825000	-582.435000	9362.610000	-1.067355	2.241945	1.107243	0.433283	-0.800288	-2.573042	-5.619243	-10.288163	-2.304260	5.020540	-1.312360	0.850828	0.185668	0.455809	-1.000000	-1.000000	-1.000000	-1.000000	-1.000000	-1.000000	-1.000000	81.379310	0.000000	-1.000000	-1.000000	568709.000000	1772659025.207575
-53457.390000	-141330.285000	18127.080000	-1869.930000	-1899.945000	5423.985000	-579.150000	9380.385000	-8.734187	-2.019517	-1.832058	-1.895704	-2.389261	-3.232959	-9.265132	-19.099578	-2.304260	5.020540	-1.312360	0.850828	0.185668	0.455809	-1.000000	-1.000000	-1.000000	-1.000000	-1.000000	-1.000000	-1.000000	81.379310	0.000000	-1.000000	-1.000000	568710.000000	1772659025.207585
-53431.065000	-141311.385000	18145.080000	-1853.370000	-1886.535000	5434.335000	-566.145000	9409.590000	-14.049965	-6.037120	-4.228626	-3.694926	-3.449373	-3.046866	-8.153013	-20.628569	-1.709120	4.425400	-1.510740	0.851499	0.185913	0.456298	-1.000000	-1.000000	-1.000000	-1.000000	-1.000000	-1.000000	-1.000000	81.379310	0.000000	-1.000000	-1.000000	568711.000000	1772659025.207596
-53419.230000	-141303.555000	18151.920000	-1847.520000	-1881.720000	5436.540000	-557.505000	9438.435000	-12.690377	-7.007193	-4.295640	-3.432407	-2.813987	-1.632932	-3.580644	-12.600515	-1.709120	4.425400	-1.510740	0.851499	0.185913	0.456298	-1.000000	-1.000000	-1.000000	-1.000000	-1.000000	-1.000000	-1.000000	81.379310	0.000000	-1.000000	-1.000000	568712.000000	1772659025.207600
-53425.440000	-141302.205000	18151.020000	-1849.005000	-1881.630000	5434.110000	-560.835000	9432.225000	-4.886383	-3.755386	-1.249970	-0.428524	0.138176	1.215067	1.409762	0.936435	-1.709120	4.425400	-1.510740	0.851499	0.185913	0.456298	-1.000000	-1.000000	-1.000000	-1.000000	-1.000000	-1.000000	-1.000000	81.379310	0.000000	-1.000000	-1.000000	568713.000000	1772659025.211178
-53410.365000	-141281.640000	18174.195000	-1825.470000	-1857.420000	5456.700000	-545.040000	9444.735000	4.123960	1.753124	3.411056	3.938149	4.291858	4.663302	4.621413	11.985089	-1.709120	4.425400	-1.510740	0.851499	0.185913	0.456298	-1.000000	-1.000000	-1.000000	-1.000000	-1.000000	-1.000000	-1.000000	81.379310	0.000000	-1.000000	-1.000000	568714.000000	1772659025.211187
-53464.365000	-141334.470000	18127.260000	-1869.300000	-1895.400000	5426.910000	-573.165000	9379.260000	8.977229	6.281231	7.351536	7.574065	7.784714	7.459868	5.973753	14.971345	-1.709120	4.425400	-1.510740	0.851499	0.185913	0.456298	-1.000000	-1.000000	-1.000000	-1.000000	-1.000000	-1.000000	-1.000000	81.379310	0.000000	-1.000000	-1.000000	568715.000000	1772659025.213871
-53499.690000	-141372.270000	18091.125000	-1903.770000	-1927.755000	5399.685000	-596.295000	9330.615000	6.481702	5.608575	6.703818	6.859174	7.162004	6.848653	4.942006	8.363111	-1.709120	4.425400	-1.510740	0.851499	0.185913	0.456298	-1.000000	-1.000000	-1.000000	-1.000000	-1.000000	-1.000000	-1.000000	81.379310	0.000000	-1.000000	-1.000000	568716.000000	1772659025.213878
-53465.580000	-141339.780000	18125.730000	-1870.380000	-1897.560000	5426.955000	-574.785000	9376.155000	-1.603670	-1.504020	-0.488766	-0.171008	0.411420	1.021561	0.976292	-3.844755	-1.709120	4.425400	-1.510740	0.851499	0.185913	0.456298	-1.000000	-1.000000	-1.000000	-1.000000	-1.000000	-1.000000	-1.000000	81.379310	0.000000	-1.000000	-1.000000	568717.000000	1772659025.217907
-53456.580000	-141327.675000	18137.160000	-1860.705000	-1889.280000	5434.830000	-569.205000	9386.640000	-7.750508	-9.050957	-9.067369	-8.701548	-8.056204	-6.358058	-3.228053	-11.840395	-1.709120	4.425400	-1.510740	0.851499	0.185913	0.456298	-1.000000	-1.000000	-1.000000	-1.000000	-1.000000	-1.000000	-1.000000	81.379310	0.000000	-1.000000	-1.000000	568718.000000	1772659025.217915
-53404.245000	-141271.740000	18196.425000	-1800.855000	-1830.960000	5486.445000	-536.130000	9444.105000	-5.736511	-9.336828	-11.122096	-11.068369	-10.863616	-8.946716	-3.779854	-8.392084	-1.709120	4.425400	-1.510740	0.851499	0.185913	0.456298	-1.000000	-1.000000	-1.000000	-1.000000	-1.000000	-1.000000	-1.000000	81.379310	0.000000	-1.000000	-1.000000	568719.000000	1772659025.222022
-53400.510000	-141272.595000	18196.245000	-1799.505000	-1829.790000	5486.400000	-540.180000	9433.305000	3.146343	-1.166628	-4.306772	-4.712319	-5.209086	-4.339800	-0.393962	3.407175	-1.709120	4.425400	-1.510740	0.851499	0.185913	0.456298	-1.000000	-1.000000	-1.000000	-1.000000	-1.000000	-1.000000	-1.000000	81.379310	0.000000	-1.000000	-1.000000	568720.000000	1772659025.222032
-53473.815000	-141349.095000	18117.135000	-1879.245000	-1909.080000	5412.555000	-586.215000	9358.245000	10.851786	8.205387	5.009186	4.395340	3.446901	2.678477	2.625228	12.217965	-3.616620	3.402980	-0.991900	0.853513	0.187438	0.456054	-1.000000	-1.000000	-1.000000	-1.000000	-1.000000	-1.000000	-1.000000	81.379310	0.000000	-1.000000	-1.000000	568721.000000	1772659025.225776
-53466.300000	-141333.795000	18127.845000	-1873.035000	-1907.010000	5413.635000	-582.075000	9359.505000	9.312687	9.503691	7.401293	6.876171	5.926190	4.184531	0.834901	8.740150	-3.616620	3.402980	-0.991900	0.853513	0.187438	0.456054	-1.000000	-1.000000	-1.000000	-1.000000	-1.000000	-1.000000	-1.000000	81.379310	0.000000	-1.000000	-1.000000	568722.000000	1772659025.225784
-53442.405000	-141318.135000	18142.875000	-1858.905000	-1893.465000	5426.685000	-572.310000	9389.475000	-0.235134	2.344283	1.667149	1.185360	0.384722	-1.186785	-4.394287	-3.529509	-3.616620	3.402980	-0.991900	0.853513	0.187438	0.456054	-1.000000	-1.000000	-1.000000	-1.000000	-1.000000	-1.000000	-1.000000	81.379310	0.000000	-1.000000	-1.000000	568723.000000	1772659025.230119
-53432.460000	-141325.425000	18137.700000	-1861.515000	-1893.015000	5427.990000	-571.230000	9414.945000	-7.719928	-4.517742	-4.151141	-4.799887	-5.569301	-6.509290	-6.999770	-10.976102	-3.616620	3.402980	-0.991900	0.853513	0.187438	0.456054	-1.000000	-1.000000	-1.000000	-1.000000	-1.000000	-1.000000	-1.000000	81.379310	0.000000	-1.000000	-1.000000	568724.000000	1772659025.230128
-53454.465000	-141329.610000	18141.435000	-1854.405000	-1883.565000	5439.015000	-572.220000	9380.610000	-6.338973	-4.643076	-3.731137	-4.419980	-5.035980	-5.605035	-3.578035	-5.676421	-3.616620	3.402980	-0.991900	0.853513	0.187438	0.456054	-1.000000	-1.000000	-1.000000	-1.000000	-1.000000	-1.000000	-1.000000	81.379310	0.000000	-1.000000	-1.000000	568725.000000	1772659025.233910
-53463.555000	-141335.325000	18134.145000	-1859.805000	-1884.780000	5437.035000	-579.150000	9373.860000	0.135333	-0.207671	1.035851	0.860910	0.977921	0.571880	2.972590	5.610574	-3.616620	3.402980	-0.991900	0.853513	0.187438	0.456054	-1.000000	-1.000000	-1.000000	-1.000000	-1.000000	-1.000000	-1.000000	81.379310	0.000000	-1.000000	-1.000000	568726.000000	1772659025.233918
-53433.810000	-141317.235000	18144.270000	-1852.605000	-1877.490000	5442.705000	-570.060000	9398.250000	3.976139	2.819895	4.132884	4.918601	6.340505	6.283898	7.167625	11.138168	-3.616620	3.402980	-0.991900	0.853513	0.187438	0.456054	-1.000000	-1.000000	-1.000000	-1.000000	-1.000000	-1.000000	-1.000000	81.379310	0.000000	-1.000000	-1.000000	568727.000000	1772659025.237814
-53413.875000	-141295.680000	18167.355000	-1829.880000	-1857.690000	5461.650000	-538.920000	9441.090000	2.499660	1.641533	2.405391	3.904967	6.451739	7.029839	6.560223	7.358084	-3.616620	3.402980	-0.991900	0.853513	0.187438	0.456054	-1.000000	-1.000000	-1.000000	-1.000000	-1.000000	-1.000000	-1.000000	81.379310	0.000000	-1.000000	-1.000000	568728.000000	1772659025.237822
-53478.315000	-141345.855000	18121.005000	-1874.655000	-1903.590000	5416.110000	-576.585000	9371.160000	-2.077620	-2.012920	-2.145025	-0.742992	1.815962	3.027898	2.828393	-1.137290	-3.616620	3.402980	-0.991900	0.853513	0.187438	0.456054	-1.000000	-1.000000	-1.000000	-1.000000	-1.000000	-1.000000	-1.000000	81.379310	0.000000	-1.000000	-1.000000	568729.000000	1772659025.242044
-53473.995000	-141339.600000	18127.485000	-1869.795000	-1900.710000	5417.370000	-573.660000	9368.595000	-6.326236	-4.639740	-5.096607	-4.463843	-3.236813	-1.864758	-1.155077	-8.599804	-3.616620	3.402980	-0.991900	0.853513	0.187438	0.456054	-1.000000	-1.000000	-1.000000	-1.000000	-1.000000	-1.000000	-1.000000	81.379310	0.000000	-1.000000	-1.000000	568730.000000	1772659025.242056
-53459.055000	-141337.170000	18127.710000	-1869.660000	-1899.360000	5422.545000	-568.665000	9386.460000	-7.100828	-4.001965	-3.810307	-4.046131	-4.770084	-3.898475	-3.420572	-11.279961	-3.799740	3.036740	-1.587040	0.853330	0.188781	0.456054	-1.000000	-1.000000	-1.000000	-1.000000	-1.000000	-1.000000	-1.000000	81.379310	0.000000	-1.000000	-1.000000	568731.000000	1772659025.246252
-53462.205000	-141348.735000	18115.740000	-1882.665000	-1910.745000	5412.195000	-587.565000	9379.890000	-3.469087	-0.759969	0.384423	-0.406029	-2.610501	-2.532612	-3.613923	-8.290676	-3.799740	3.036740	-1.587040	0.853330	0.188781	0.456054	-1.000000	-1.000000	-1.000000	-1.000000	-1.000000	-1.000000	-1.000000	81.379310	0.000000	-1.000000	-1.000000	568732.000000	1772659025.246260
-53442.360000	-141332.220000	18131.085000	-1868.265000	-1895.445000	5427.180000	-577.440000	9393.570000	2.734090	3.070806	4.418522	3.379579	0.791667	0.219396	-2.652239	-1.696567	-3.799740	3.036740	-1.587040	0.853330	0.188781	0.456054	-1.000000	-1.000000	-1.000000	-1.000000	-1.000000	-1.000000	-1.000000	81.379310	0.000000	-1.000000	-1.000000	568733.000000	1772659025.249865
-53435.475000	-141326.280000	18136.125000	-1861.830000	-1887.975000	5434.830000	-564.525000	9402.930000	8.992826	6.221305	6.550545	5.403464	3.440938	2.508984	-0.999570	5.715957	-3.799740	3.036740	-1.587040	0.853330	0.188781	0.456054	-1.000000	-1.000000	-1.000000	-1.000000	-1.000000	-1.000000	-1.000000	81.379310	0.000000	-1.000000	-1.000000	568734.000000	1772659025.249874
-53424.765000	-141311.475000	18151.920000	-1845.090000	-1871.145000	5450.850000	-548.055000	9420.210000	12.673980	7.676526	6.399653	5.365602	4.545676	3.600775	1.553498	11.405954	-3.799740	3.036740	-1.587040	0.853330	0.188781	0.456054	-1.000000	-1.000000	-1.000000	-1.000000	-1.000000	-1.000000	-1.000000	81.379310	0.000000	-1.000000	-1.000000	568735.000000	1772659025.254674
-53432.595000	-141305.940000	18160.020000	-1837.620000	-1865.970000	5451.705000	-557.055000	9402.660000	10.672453	6.041662	3.927583	3.439688	3.735082	3.110307	3.837689	11.875128	-3.799740	3.036740	-1.587040	0.853330	0.188781	0.456054	-1.000000	-1.000000	-1.000000	-1.000000	-1.000000	-1.000000	-1.000000	81.379310	0.000000	-1.000000	-1.000000	568736.000000	1772659025.254683
-53466.795000	-141341.355000	18126.045000	-1870.245000	-1898.820000	5420.115000	-587.655000	9369.135000	1.902269	0.692114	-0.743085	-0.352794	0.679170	0.511807	3.028694	4.559130	-3.799740	3.036740	-1.587040	0.853330	0.188781	0.456054	-1.000000	-1.000000	-1.000000	-1.000000	-1.000000	-1.000000	-1.000000	81.379310	0.000000	-1.000000	-1.000000	568737.000000	1772659025.257872
-53434.260000	-141310.440000	18154.980000	-1844.370000	-1875.870000	5439.735000	-580.455000	9381.555000	-8.648175	-5.596246	-5.460065	-4.333347	-3.055626	-2.881499	-1.223508	-6.613355	-3.799740	3.036740	-1.587040	0.853330	0.188781	0.456054	-1.000000	-1.000000	-1.000000	-1.000000	-1.000000	-1.000000	-1.000000	81.379310	0.000000	-1.000000	-1.000000	568738.000000	1772659025.257879
-53411.040000	-141291.495000	18171.585000	-1827.225000	-1857.195000	5461.245000	-552.240000	9425.880000	-12.596799	-7.521889	-6.135162	-4.834953	-3.747723	-3.475036	-4.711458	-12.318710	-3.799740	3.036740	-1.587040	0.853330	0.188781	0.456054	-1.000000	-1.000000	-1.000000	-1.000000	-1.000000	-1.000000	-1.000000	81.379310	0.000000	-1.000000	-1.000000	568739.000000	1772659025.261899
-53443.215000	-141327.315000	18133.335000	-1864.035000	-1894.005000	5427.945000	-552.690000	9431.910000	-7.907773	-3.908018	-2.303520	-1.363455	-0.714345	-0.473305	-3.554715	-7.822807	-3.799740	3.036740	-1.587040	0.853330	0.188781	0.456054	-1.000000	-1.000000	-1.000000	-1.000000	-1.000000	-1.000000	-1.000000	81.379310	0.000000	-1.000000	-1.000000	568740.000000	1772659025.261906
-53480.070000	-141360.435000	18103.275000	-1889.955000	-1918.710000	5401.755000	-579.645000	9364.725000	-1.304532	0.166825	1.064815	1.514101	1.666136	1.921509	1.082646	1.488379	-2.136400	2.227960	-1.800680	0.853086	0.188171	0.457152	-1.000000	-1.000000	-1.000000	-1.000000	-1.000000	-1.000000	-1.000000	81.379310	0.000000	-1.000000	-1.000000	568741.000000	1772659025.266009
-53457.300000	-141336.180000	18132.030000	-1862.640000	-1888.695000	5432.940000	-577.170000	9362.070000	0.687252	0.136836	0.094126	0.237687	-0.014707	0.284109	4.457309	5.996615	-2.136400	2.227960	-1.800680	0.853086	0.188171	0.457152	-1.000000	-1.000000	-1.000000	-1.000000	-1.000000	-1.000000	-1.000000	81.379310	0.000000	-1.000000	-1.000000	568742.000000	1772659025.266017
-53447.355000	-141312.555000	18159.705000	-1836.630000	-1865.025000	5454.585000	-562.275000	9377.235000	-1.237158	-2.515630	-2.977957	-3.066686	-3.508462	-3.236594	3.593430	2.368544	-2.136400	2.227960	-1.800680	0.853086	0.188171	0.457152	-1.000000	-1.000000	-1.000000	-1.000000	-1.000000	-1.000000	-1.000000	81.379310	0.000000	-1.000000	-1.000000	568743.000000	1772659025.270209
-53449.245000	-141304.095000	18171.900000	-1823.625000	-1852.560000	5465.250000	-537.120000	9406.845000	-2.668488	-3.455393	-3.543266	-4.021593	-4.473517	-4.315487	0.168314	-3.964574	-2.136400	2.227960	-1.800680	0.853086	0.188171	0.457152	-1.000000	-1.000000	-1.000000	-1.000000	-1.000000	-1.000000	-1.000000	81.379310	0.000000	-1.000000	-1.000000	568744.000000	1772659025.270219
-53449.740000	-141318.630000	18154.710000	-1841.175000	-1870.605000	5447.070000	-545.670000	9418.230000	-1.439744	-1.398690	-0.789835	-1.691650	-2.042856	-2.002946	-2.170897	-5.864117	-2.136400	2.227960	-1.800680	0.853086	0.188171	0.457152	-1.000000	-1.000000	-1.000000	-1.000000	-1.000000	-1.000000	-1.000000	81.379310	0.000000	-1.000000	-1.000000	568745.000000	1772659025.273934
-53472.195000	-141353.730000	18117.810000	-1877.625000	-1903.365000	5418.180000	-574.650000	9385.200000	2.018923	1.575773	2.322476	1.272501	1.210993	1.273087	-1.923741	-1.113949	-2.136400	2.227960	-1.800680	0.853086	0.188171	0.457152	-1.000000	-1.000000	-1.000000	-1.000000	-1.000000	-1.000000	-1.000000	81.379310	0.000000	-1.000000	-1.000000	568746.000000	1772659025.273942
-53477.955000	-141378.210000	18087.660000	-1908.990000	-1935.495000	5389.830000	-594.270000	9376.695000	5.299335	2.325848	2.235782	1.459700	1.915241	2.257284	-1.052380	5.765286	-2.136400	2.227960	-1.800680	0.853086	0.188171	0.457152	-1.000000	-1.000000	-1.000000	-1.000000	-1.000000	-1.000000	-1.000000	81.379310	0.000000	-1.000000	-1.000000	568747.000000	1772659025.277917
-53466.570000	-141348.465000	18120.195000	-1877.670000	-1907.145000	5413.725000	-576.900000	9390.420000	5.510796	-0.260324	-1.621659	-1.838633	-0.962295	-0.299932	-2.110510	7.910592	-2.136400	2.227960	-1.800680	0.853086	0.188171	0.457152	-1.000000	-1.000000	-1.000000	-1.000000	-1.000000	-1.000000	-1.000000	81.379310	0.000000	-1.000000	-1.000000	568748.000000	1772659025.277924
-53460.720000	-141341.130000	18127.395000	-1869.840000	-1898.685000	5422.545000	-572.940000	9397.215000	3.503233	-2.101140	-4.156741	-3.897961	-3.200349	-2.764171	-3.923895	4.064272	-2.136400	2.227960	-1.800680	0.853086	0.188171	0.457152	-1.000000	-1.000000	-1.000000	-1.000000	-1.000000	-1.000000	-1.000000	81.379310	0.000000	-1.000000	-1.000000	568749.000000	1772659025.281828
-53433.540000	-141334.290000	18128.295000	-1870.695000	-1899.810000	5422.950000	-574.695000	9405.225000	3.041549	1.351008	-0.428997	-0.074994	-0.203895	-0.656524	-2.946637	-0.255320	-2.136400	2.227960	-1.800680	0.853086	0.188171	0.457152	-1.000000	-1.000000	-1.000000	-1.000000	-1.000000	-1.000000	-1.000000	81.379310	0.000000	-1.000000	-1.000000	568750.000000	1772659025.281838
-53432.145000	-141331.545000	18133.875000	-1863.315000	-1889.910000	5431.950000	-577.845000	9397.935000	4.912564	7.765775	6.700578	6.839928	5.781877	4.457380	1.161367	-0.666276	-2.044840	2.044840	-1.617560	0.853574	0.188293	0.457030	-1.000000	-1.000000	-1.000000	-1.000000	-1.000000	-1.000000	-1.000000	81.379310	0.000000	-1.000000	-1.000000	568751.000000	1772659025.286101
-53428.455000	-141312.645000	18156.195000	-1843.200000	-1870.695000	5446.890000	-583.695000	9390.285000	5.720664	10.688954	10.320287	10.284268	8.867944	7.310397	4.667939	0.661426	-2.044840	2.044840	-1.617560	0.853574	0.188293	0.457030	-1.000000	-1.000000	-1.000000	-1.000000	-1.000000	-1.000000	-1.000000	81.379310	0.000000	-1.000000	-1.000000	568752.000000	1772659025.286112
-53450.055000	-141319.755000	18152.100000	-1848.330000	-1875.780000	5444.235000	-569.205000	9379.710000	2.367787	7.150055	7.563432	7.575480	6.641359	5.575372	4.421138	-0.918208	-2.044840	2.044840	-1.617560	0.853574	0.188293	0.457030	-1.000000	-1.000000	-1.000000	-1.000000	-1.000000	-1.000000	-1.000000	81.379310	0.000000	-1.000000	-1.000000	568753.000000	1772659025.293060
-53452.395000	-141315.885000	18159.660000	-1841.805000	-1875.915000	5440.095000	-559.035000	9381.060000	-4.302121	-0.029284	1.389034	1.537164	1.499978	1.345944	1.863449	-5.628992	-2.044840	2.044840	-1.617560	0.853574	0.188293	0.457030	-1.000000	-1.000000	-1.000000	-1.000000	-1.000000	-1.000000	-1.000000	81.379310	0.000000	-1.000000	-1.000000	568754.000000	1772659025.293069
-53413.065000	-141297.345000	18177.030000	-1822.905000	-1858.365000	5455.530000	-547.875000	9426.015000	-9.478452	-5.154017	-2.711173	-2.460358	-1.986554	-1.431054	1.254311	-7.971852	-2.044840	2.044840	-1.617560	0.853574	0.188293	0.457030	-1.000000	-1.000000	-1.000000	-1.000000	-1.000000	-1.000000	-1.000000	81.379310	0.000000	-1.000000	-1.000000	568755.000000	1772659025.295296
-53432.730000	-141334.740000	18127.530000	-1869.480000	-1897.380000	5423.310000	-566.235000	9413.370000	-9.019947	-5.546265	-2.732651	-2.306082	-1.905219	-1.235779	3.574441	-3.595142	-2.044840	2.044840	-1.617560	0.853574	0.188293	0.457030	-1.000000	-1.000000	-1.000000	-1.000000	-1.000000	-1.000000	-1.000000	81.379310	0.000000	-1.000000	-1.000000	568756.000000	1772659025.295304
-53456.445000	-141352.020000	18107.910000	-1886.805000	-1912.230000	5411.295000	-576.945000	9402.570000	-4.627165	-4.523112	-2.785532	-2.004161	-1.579211	-0.977458	4.762590	4.024688	-2.044840	2.044840	-1.617560	0.853574	0.188293	0.457030	-1.000000	-1.000000	-1.000000	-1.000000	-1.000000	-1.000000	-1.000000	81.379310	0.000000	-1.000000	-1.000000	568757.000000	1772659025.300432
-53449.920000	-141336.900000	18129.285000	-1867.140000	-1895.760000	5428.530000	-567.585000	9412.740000	-1.131039	-5.559235	-6.049314	-4.963992	-4.054426	-3.185157	1.626763	8.198919	-2.044840	2.044840	-1.617560	0.853574	0.188293	0.457030	-1.000000	-1.000000	-1.000000	-1.000000	-1.000000	-1.000000	-1.000000	81.379310	0.000000	-1.000000	-1.000000	568758.000000	1772659025.300442
-53448.210000	-141344.415000	18121.590000	-1878.480000	-1908.135000	5416.020000	-577.395000	9402.120000	-0.566710	-7.300905	-9.586942	-8.720139	-7.479273	-6.226764	-3.958377	6.788628	-2.044840	2.044840	-1.617560	0.853574	0.188293	0.457030	-1.000000	-1.000000	-1.000000	-1.000000	-1.000000	-1.000000	-1.000000	81.379310	0.000000	-1.000000	-1.000000	568759.000000	1772659025.301850
-53448.435000	-141345.495000	18119.295000	-1882.305000	-1912.860000	5408.730000	-579.555000	9404.100000	-1.636831	-7.193051	-9.743511	-9.812406	-9.035209	-7.833644	-8.218529	1.857234	-2.044840	2.044840	-1.617560	0.853574	0.188293	0.457030	-1.000000	-1.000000	-1.000000	-1.000000	-1.000000	-1.000000	-1.000000	81.379310	0.000000	-1.000000	-1.000000	568760.000000	1772659025.301856
-53437.815000	-141333.390000	18133.110000	-1864.755000	-1891.665000	5430.555000	-562.365000	9419.985000	-1.869945	-4.711489	-6.364738	-7.587746	-7.833246	-7.261537	-8.957231	-3.248461	-1.693860	2.273740	-0.976640	0.856199	0.188659	0.454039	-1.000000	-1.000000	-1.000000	-1.000000	-1.000000	-1.000000	-1.000000	81.379310	0.000000	-1.000000	-1.000000	568761.000000	1772659025.306281
-53422.740000	-141316.605000	18152.055000	-1846.080000	-1870.695000	5449.905000	-553.545000	9430.560000	0.859599	0.058266	-0.410645	-2.131709	-3.078062	-3.406395	-5.797049	-5.282490	-1.693860	2.273740	-0.976640	0.856199	0.188659	0.454039	-1.000000	-1.000000	-1.000000	-1.000000	-1.000000	-1.000000	-1.000000	81.379310	0.000000	-1.000000	-1.000000	568762.000000	1772659025.306288
-53442.540000	-141325.515000	18144.270000	-1855.305000	-1879.740000	5439.195000	-574.470000	9398.745000	5.958565	6.425119	6.927050	5.693833	4.987404	3.884175	-0.397605	-3.733386	-1.693860	2.273740	-0.976640	0.856199	0.188659	0.454039	-1.000000	-1.000000	-1.000000	-1.000000	-1.000000	-1.000000	-1.000000	81.379310	0.000000	-1.000000	-1.000000	568763.000000	1772659025.311504
-53435.295000	-141318.585000	18149.580000	-1851.390000	-1878.525000	5441.130000	-552.780000	9428.220000	9.217794	11.667032	12.846555	12.556312	12.693403	11.185913	4.327421	-1.524639	-1.693860	2.273740	-0.976640	0.856199	0.188659	0.454039	-1.000000	-1.000000	-1.000000	-1.000000	-1.000000	-1.000000	-1.000000	81.379310	0.000000	-1.000000	-1.000000	568764.000000	1772659025.311512
-53407.080000	-141303.150000	18162.810000	-1837.845000	-1864.305000	5458.680000	-525.285000	9472.095000	8.038828	13.356941	15.016353	15.376863	15.953573	14.470311	7.270883	0.010290	-1.693860	2.273740	-0.976640	0.856199	0.188659	0.454039	-1.000000	-1.000000	-1.000000	-1.000000	-1.000000	-1.000000	-1.000000	81.379310	0.000000	-1.000000	-1.000000	568765.000000	1772659025.314008
-53488.170000	-141360.750000	18118.485000	-1878.255000	-1901.250000	5421.915000	-581.490000	9341.505000	3.836020	10.760213	12.743365	13.222905	13.345701	12.271405	8.394402	1.093582	-1.693860	2.273740	-0.976640	0.856199	0.188659	0.454039	-1.000000	-1.000000	-1.000000	-1.000000	-1.000000	-1.000000	-1.000000	81.379310	0.000000	-1.000000	-1.000000	568766.000000	1772659025.314015
-53483.670000	-141354.000000	18125.010000	-1872.900000	-1897.650000	5422.365000	-592.650000	9342.450000	-2.624783	3.227521	5.286536	5.700353	5.037006	4.596254	5.639454	-1.312233	-1.693860	2.273740	-0.976640	0.856199	0.188659	0.454039	-1.000000	-1.000000	-1.000000	-1.000000	-1.000000	-1.000000	-1.000000	81.379310	0.000000	-1.000000	-1.000000	568767.000000	1772659025.317972
-53456.895000	-141331.860000	18143.505000	-1857.015000	-1883.880000	5435.505000	-573.840000	9389.295000	-9.730537	-6.929894	-5.408840	-4.920319	-5.986603	-5.842017	-1.212615	-6.961590	-1.693860	2.273740	-0.976640	0.856199	0.188659	0.454039	-1.000000	-1.000000	-1.000000	-1.000000	-1.000000	-1.000000	-1.000000	81.379310	0.000000	-1.000000	-1.000000	568768.000000	1772659025.317980
-53432.640000	-141316.245000	18155.925000	-1847.610000	-1877.400000	5440.770000	-560.430000	9414.270000	-12.113709	-13.400546	-13.409226	-12.864453	-13.862422	-13.303404	-7.288011	-8.219258	-1.693860	2.273740	-0.976640	0.856199	0.188659	0.454039	-1.000000	-1.000000	-1.000000	-1.000000	-1.000000	-1.000000	-1.000000	81.379310	0.000000	-1.000000	-1.000000	568769.000000	1772659025.322063
-53424.585000	-141306.255000	18165.735000	-1838.205000	-1869.570000	5446.260000	-559.665000	9407.250000	-6.629713	-12.255908	-14.462273	-14.217158	-14.991538	-14.179367	-8.295760	-1.115921	-1.693860	2.273740	-0.976640	0.856199	0.188659	0.454039	-1.000000	-1.000000	-1.000000	-1.000000	-1.000000	-1.000000	-1.000000	81.379310	0.000000	-1.000000	-1.000000	568770.000000	1772659025.322071
-53459.280000	-141350.220000	18120.780000	-1882.710000	-1912.680000	5406.435000	-578.880000	9393.795000	2.873510	-5.946030	-9.964002	-10.310001	-10.865928	-9.956207	-4.984634	9.026059	-4.120200	2.655240	-0.824040	0.856321	0.189575	0.454100	-1.000000	-1.000000	-1.000000	-1.000000	-1.000000	-1.000000	-1.000000	81.379310	0.000000	-1.000000	-1.000000	568771.000000	1772659025.325952
-53428.185000	-141329.700000	18138.960000	-1866.780000	-1898.055000	5419.980000	-557.775000	9456.030000	9.603475	0.074058	-4.343507	-5.110972	-5.279528	-4.333511	-0.383670	15.424372	-4.120200	2.655240	-0.824040	0.856321	0.189575	0.454100	-1.000000	-1.000000	-1.000000	-1.000000	-1.000000	-1.000000	-1.000000	81.379310	0.000000	-1.000000	-1.000000	568772.000000	1772659025.325956
-53434.665000	-141320.520000	18154.080000	-1845.135000	-1873.665000	5441.220000	-560.565000	9423.450000	10.268311	3.258335	0.315345	-0.319152	0.195834	1.024082	3.306761	15.262770	-4.120200	2.655240	-0.824040	0.856321	0.189575	0.454100	-1.000000	-1.000000	-1.000000	-1.000000	-1.000000	-1.000000	-1.000000	81.379310	0.000000	-1.000000	-1.000000	568773.000000	1772659025.334334
-53484.705000	-141353.190000	18124.560000	-1868.040000	-1890.090000	5424.840000	-593.280000	9329.220000	5.600439	4.448096	4.481425	4.631963	5.972166	6.203817	4.448633	7.237416	-4.120200	2.655240	-0.824040	0.856321	0.189575	0.454100	-1.000000	-1.000000	-1.000000	-1.000000	-1.000000	-1.000000	-1.000000	81.379310	0.000000	-1.000000	-1.000000	568774.000000	1772659025.334345
-53450.865000	-141325.515000	18147.780000	-1848.915000	-1872.495000	5444.865000	-571.410000	9367.605000	-1.077100	4.887715	7.849252	9.052823	11.032545	10.347937	3.100644	-5.918100	-4.120200	2.655240	-0.824040	0.856321	0.189575	0.454100	-1.000000	-1.000000	-1.000000	-1.000000	-1.000000	-1.000000	-1.000000	81.379310	0.000000	-1.000000	-1.000000	568775.000000	1772659025.334389
-53442.045000	-141321.240000	18152.820000	-1846.215000	-1872.090000	5444.910000	-565.605000	9391.905000	-4.849239	5.422640	9.464690	11.147421	13.154003	11.971648	1.983928	-14.860411	-4.120200	2.655240	-0.824040	0.856321	0.189575	0.454100	-1.000000	-1.000000	-1.000000	-1.000000	-1.000000	-1.000000	-1.000000	81.379310	0.000000	-1.000000	-1.000000	568776.000000	1772659025.334394
-53445.105000	-141336.045000	18134.145000	-1867.590000	-1896.345000	5419.935000	-570.015000	9408.285000	-4.179584	5.101719	8.071970	9.163393	10.345699	9.525941	2.371855	-13.488992	-4.120200	2.655240	-0.824040	0.856321	0.189575	0.454100	-1.000000	-1.000000	-1.000000	-1.000000	-1.000000	-1.000000	-1.000000	81.379310	0.000000	-1.000000	-1.000000	568777.000000	1772659025.345475
-53446.095000	-141340.860000	18123.435000	-1880.190000	-1904.940000	5418.585000	-554.175000	9417.105000	-2.382588	1.596580	2.396815	2.164693	2.016061	2.215062	2.325177	-5.221387	-4.120200	2.655240	-0.824040	0.856321	0.189575	0.454100	-1.000000	-1.000000	-1.000000	-1.000000	-1.000000	-1.000000	-1.000000	81.379310	0.000000	-1.000000	-1.000000	568778.000000	1772659025.345486
-53487.180000	-141375.870000	18090.405000	-1909.215000	-1928.745000	5395.950000	-594.405000	9346.680000	-2.590853	-4.910869	-6.185262	-7.658118	-8.816228	-7.419742	0.206898	2.479701	-4.120200	2.655240	-0.824040	0.856321	0.189575	0.454100	-1.000000	-1.000000	-1.000000	-1.000000	-1.000000	-1.000000	-1.000000	81.379310	0.000000	-1.000000	-1.000000	568779.000000	1772659025.345498
-53467.065000	-141350.535000	18118.260000	-1880.010000	-1900.215000	5420.430000	-589.455000	9352.170000	-4.411599	-10.330209	-12.598697	-14.441274	-15.699341	-13.628883	-3.512828	3.965468	-4.120200	2.655240	-0.824040	0.856321	0.189575	0.454100	-1.000000	-1.000000	-1.000000	-1.000000	-1.000000	-1.000000	-1.000000	81.379310	0.000000	-1.000000	-1.000000	568780.000000	1772659025.345502
-53456.265000	-141335.190000	18136.665000	-1862.550000	-1883.115000	5438.520000	-560.115000	9389.340000	-4.962960	-9.953227	-11.609026	-12.764203	-13.452565	-11.888334	-6.471374	-0.527702	-4.303320	3.036740	0.549360	0.857664	0.188110	0.453551	-1.000000	-1.000000	-1.000000	-1.000000	-1.000000	-1.000000	-1.000000	81.379310	0.000000	-1.000000	-1.000000	568781.000000	1772659025.350745
-53429.895000	-141316.875000	18156.780000	-1844.190000	-1870.380000	5444.235000	-548.235000	9437.760000	-1.663032	-2.853207	-2.762829	-2.905798	-3.199500	-3.243821	-5.571282	-3.599500	-4.303320	3.036740	0.549360	0.857664	0.188110	0.453551	-1.000000	-1.000000	-1.000000	-1.000000	-1.000000	-1.000000	-1.000000	81.379310	0.000000	-1.000000	-1.000000	568782.000000	1772659025.350754
-53392.770000	-141282.810000	18191.610000	-1808.820000	-1836.540000	5474.115000	-539.415000	9469.800000	6.304830	7.918290	9.609431	9.866418	9.118884	7.070203	0.217487	3.039283	-4.303320	3.036740	0.549360	0.857664	0.188110	0.453551	-1.000000	-1.000000	-1.000000	-1.000000	-1.000000	-1.000000	-1.000000	81.379310	0.000000	-1.000000	-1.000000	568783.000000	1772659025.350821
-53460.900000	-141334.020000	18143.505000	-1854.855000	-1878.120000	5437.980000	-589.815000	9367.110000	14.895356	16.410876	18.584556	18.613978	16.935953	13.453935	7.058264	15.991511	-4.303320	3.036740	0.549360	0.857664	0.188110	0.453551	-1.000000	-1.000000	-1.000000	-1.000000	-1.000000	-1.000000	-1.000000	81.379310	0.000000	-1.000000	-1.000000	568784.000000	1772659025.350828
-53473.230000	-141353.100000	18124.470000	-1874.430000	-1896.930000	5421.645000	-588.555000	9365.175000	15.069905	15.339674	16.922038	16.885021	15.055006	11.738676	8.305301	19.587179	-4.303320	3.036740	0.549360	0.857664	0.188110	0.453551	-1.000000	-1.000000	-1.000000	-1.000000	-1.000000	-1.000000	-1.000000	81.379310	0.000000	-1.000000	-1.000000	568785.000000	1772659025.353928
-53459.280000	-141353.145000	18119.475000	-1880.595000	-1904.265000	5418.180000	-558.000000	9409.320000	3.549546	3.384339	3.880715	4.358885	3.777338	2.474841	2.462349	6.212800	-4.303320	3.036740	0.549360	0.857664	0.188110	0.453551	-1.000000	-1.000000	-1.000000	-1.000000	-1.000000	-1.000000	-1.000000	81.379310	0.000000	-1.000000	-1.000000	568786.000000	1772659025.353936
-53459.055000	-141351.390000	18115.920000	-1885.635000	-1911.510000	5410.935000	-558.270000	9409.725000	-11.259023	-11.285510	-11.966346	-10.816949	-9.612089	-8.160960	-4.604998	-12.963941	-4.303320	3.036740	0.549360	0.857664	0.188110	0.453551	-1.000000	-1.000000	-1.000000	-1.000000	-1.000000	-1.000000	-1.000000	81.379310	0.000000	-1.000000	-1.000000	568787.000000	1772659025.357855
-53446.185000	-141334.470000	18133.920000	-1867.770000	-1893.915000	5426.730000	-553.815000	9414.180000	-18.124180	-18.223820	-19.978486	-18.714953	-16.574996	-13.285808	-6.688120	-22.121219	-4.303320	3.036740	0.549360	0.857664	0.188110	0.453551	-1.000000	-1.000000	-1.000000	-1.000000	-1.000000	-1.000000	-1.000000	81.379310	0.000000	-1.000000	-1.000000	568788.000000	1772659025.357862
-53439.030000	-141338.295000	18128.925000	-1873.305000	-1897.785000	5422.905000	-561.375000	9414.765000	-13.283158	-13.755763	-16.180519	-15.600081	-13.845064	-10.514914	-3.217910	-16.630879	-4.303320	3.036740	0.549360	0.857664	0.188110	0.453551	-1.000000	-1.000000	-1.000000	-1.000000	-1.000000	-1.000000	-1.000000	81.379310	0.000000	-1.000000	-1.000000	568789.000000	1772659025.362104
-53363.160000	-141272.865000	18190.260000	-1815.210000	-1843.290000	5474.070000	-520.380000	9515.070000	-1.131689	-2.307075	-4.734278	-5.237837	-4.555780	-2.665097	1.635548	-3.055194	-4.303320	3.036740	0.549360	0.857664	0.188110	0.453551	-1.000000	-1.000000	-1.000000	-1.000000	-1.000000	-1.000000	-1.000000	81.379310	0.000000	-1.000000	-1.000000	568790.000000	1772659025.362114
-53440.200000	-141309.945000	18163.125000	-1839.645000	-1866.555000	5451.165000	-557.055000	9381.510000	10.569901	8.981789	7.264325	5.881342	5.624054	5.617883	4.047635	8.895743	-2.548420	3.052000	-0.412020	0.857115	0.186462	0.452391	-1.000000	-1.000000	-1.000000	-1.000000	-1.000000	-1.000000	-1.000000	81.379310	0.000000	-1.000000	-1.000000	568791.000000	1772659025.368781
-53507.700000	-141362.280000	18118.170000	-1880.640000	-1902.465000	5420.115000	-592.065000	9294.435000	13.046984	13.116104	12.917677	11.400278	10.832884	9.548520	2.426247	9.760160	-2.548420	3.052000	-0.412020	0.857115	0.186462	0.452391	-1.000000	-1.000000	-1.000000	-1.000000	-1.000000	-1.000000	-1.000000	81.379310	0.000000	-1.000000	-1.000000	568792.000000	1772659025.368790
-53421.165000	-141317.505000	18155.475000	-1845.540000	-1869.480000	5452.605000	-545.580000	9439.335000	4.407066	7.700513	9.508840	8.782733	8.569538	7.084347	-1.710227	-0.223666	-2.548420	3.052000	-0.412020	0.857115	0.186462	0.452391	-1.000000	-1.000000	-1.000000	-1.000000	-1.000000	-1.000000	-1.000000	81.379310	0.000000	-1.000000	-1.000000	568793.000000	1772659025.370549
-53426.115000	-141322.860000	18146.835000	-1853.865000	-1881.090000	5437.350000	-554.580000	9430.245000	-5.123982	-0.769064	2.326512	2.834184	3.113765	2.038061	-3.845355	-7.059227	-2.548420	3.052000	-0.412020	0.857115	0.186462	0.452391	-1.000000	-1.000000	-1.000000	-1.000000	-1.000000	-1.000000	-1.000000	81.379310	0.000000	-1.000000	-1.000000	568794.000000	1772659025.370557
-53494.155000	-141363.855000	18111.285000	-1886.580000	-1913.940000	5401.980000	-594.900000	9320.760000	-7.516809	-5.389566	-2.489778	-1.005242	-0.677642	-1.556332	-2.973245	-4.114852	-2.548420	3.052000	-0.412020	0.857115	0.186462	0.452391	-1.000000	-1.000000	-1.000000	-1.000000	-1.000000	-1.000000	-1.000000	81.379310	0.000000	-1.000000	-1.000000	568795.000000	1772659025.374414
-53467.605000	-141343.335000	18129.780000	-1870.065000	-1899.540000	5415.660000	-581.040000	9360.720000	-5.599776	-6.019891	-4.235145	-2.428966	-2.552192	-3.703244	-2.370749	0.284516	-2.548420	3.052000	-0.412020	0.857115	0.186462	0.452391	-1.000000	-1.000000	-1.000000	-1.000000	-1.000000	-1.000000	-1.000000	81.379310	0.000000	-1.000000	-1.000000	568796.000000	1772659025.374422
-53460.225000	-141349.275000	18121.410000	-1879.605000	-1906.920000	5410.980000	-582.300000	9389.070000	-3.001471	-4.559754	-4.089192	-2.775762	-3.465907	-4.782458	-2.521140	1.675477	-2.548420	3.052000	-0.412020	0.857115	0.186462	0.452391	-1.000000	-1.000000	-1.000000	-1.000000	-1.000000	-1.000000	-1.000000	81.379310	0.000000	-1.000000	-1.000000	568797.000000	1772659025.378781
-53464.230000	-141350.760000	18122.895000	-1874.745000	-1896.885000	5422.365000	-576.765000	9384.615000	-0.418540	-2.435026	-3.210637	-2.987371	-3.828787	-4.499485	-1.539509	2.729416	-2.548420	3.052000	-0.412020	0.857115	0.186462	0.452391	-1.000000	-1.000000	-1.000000	-1.000000	-1.000000	-1.000000	-1.000000	81.379310	0.000000	-1.000000	-1.000000	568798.000000	1772659025.378789
-53466.525000	-141339.915000	18135.810000	-1859.985000	-1882.485000	5437.035000	-559.305000	9380.025000	0.792080	-1.343892	-2.971655	-3.743128	-3.977509	-3.181005	0.758772	3.389496	-2.548420	3.052000	-0.412020	0.857115	0.186462	0.452391	-1.000000	-1.000000	-1.000000	-1.000000	-1.000000	-1.000000	-1.000000	81.379310	0.000000	-1.000000	-1.000000	568799.000000	1772659025.381870
-53465.040000	-141333.345000	18143.910000	-1853.415000	-1879.695000	5437.980000	-562.995000	9373.860000	1.337508	-0.591025	-2.507925	-3.694744	-2.970611	-0.696407	4.096448	3.971045	-2.548420	3.052000	-0.412020	0.857115	0.186462	0.452391	-1.000000	-1.000000	-1.000000	-1.000000	-1.000000	-1.000000	-1.000000	81.379310	0.000000	-1.000000	-1.000000	568800.000000	1772659025.381880
-53431.785000	-141319.260000	18155.205000	-1845.180000	-1873.620000	5440.185000	-569.835000	9404.730000	4.710388	2.699409	0.810834	-0.414848	0.621331	3.259114	7.982523	7.603307	-2.472120	2.929920	-0.183120	0.856382	0.187683	0.451842	-1.000000	-1.000000	-1.000000	-1.000000	-1.000000	-1.000000	-1.000000	81.379310	0.000000	-1.000000	-1.000000	568801.000000	1772659025.385906
-53420.355000	-141315.210000	18158.805000	-1840.815000	-1866.690000	5448.330000	-580.590000	9399.645000	10.458328	8.204755	6.594163	5.397681	5.739806	7.193903	9.464920	11.751787	-2.472120	2.929920	-0.183120	0.856382	0.187683	0.451842	-1.000000	-1.000000	-1.000000	-1.000000	-1.000000	-1.000000	-1.000000	81.379310	0.000000	-1.000000	-1.000000	568802.000000	1772659025.385913
-53443.485000	-141326.730000	18148.185000	-1851.615000	-1877.265000	5440.815000	-574.020000	9388.125000	13.082458	11.574853	10.754514	9.748342	9.176672	8.792273	5.868459	9.529259	-2.472120	2.929920	-0.183120	0.856382	0.187683	0.451842	-1.000000	-1.000000	-1.000000	-1.000000	-1.000000	-1.000000	-1.000000	81.379310	0.000000	-1.000000	-1.000000	568803.000000	1772659025.389894
-53465.580000	-141342.030000	18131.580000	-1868.130000	-1896.525000	5422.320000	-554.490000	9411.570000	9.062366	9.566913	9.964549	9.456572	8.585269	7.089920	-0.377350	1.446526	-2.472120	2.929920	-0.183120	0.856382	0.187683	0.451842	-1.000000	-1.000000	-1.000000	-1.000000	-1.000000	-1.000000	-1.000000	81.379310	0.000000	-1.000000	-1.000000	568804.000000	1772659025.389904
-53452.530000	-141340.185000	18129.420000	-1870.920000	-1897.920000	5420.970000	-560.115000	9412.110000	-0.119260	2.562186	3.966188	4.154985	3.621765	2.285383	-4.459775	-5.938371	-2.472120	2.929920	-0.183120	0.856382	0.187683	0.451842	-1.000000	-1.000000	-1.000000	-1.000000	-1.000000	-1.000000	-1.000000	81.379310	0.000000	-1.000000	-1.000000	568805.000000	1772659025.393763
-53440.965000	-141349.095000	18119.925000	-1878.030000	-1900.800000	5420.160000	-570.195000	9412.245000	-9.990191	-6.393350	-4.768900	-3.906258	-3.865334	-4.285822	-5.289585	-10.072250	-2.472120	2.929920	-0.183120	0.856382	0.187683	0.451842	-1.000000	-1.000000	-1.000000	-1.000000	-1.000000	-1.000000	-1.000000	81.379310	0.000000	-1.000000	-1.000000	568806.000000	1772659025.393771
-53484.390000	-141380.370000	18093.780000	-1901.790000	-1921.680000	5403.960000	-577.395000	9379.665000	-16.285231	-13.756874	-12.648219	-11.336510	-10.787596	-10.286392	-5.346953	-12.729002	-2.472120	2.929920	-0.183120	0.856382	0.187683	0.451842	-1.000000	-1.000000	-1.000000	-1.000000	-1.000000	-1.000000	-1.000000	81.379310	0.000000	-1.000000	-1.000000	568807.000000	1772659025.398686
-53477.955000	-141362.370000	18113.310000	-1883.430000	-1906.515000	5414.805000	-575.190000	9385.695000	-17.239227	-17.018512	-16.639875	-15.283732	-14.463257	-13.462039	-6.186636	-14.053635	-2.472120	2.929920	-0.183120	0.856382	0.187683	0.451842	-1.000000	-1.000000	-1.000000	-1.000000	-1.000000	-1.000000	-1.000000	81.379310	0.000000	-1.000000	-1.000000	568808.000000	1772659025.398694
-53419.365000	-141316.605000	18155.520000	-1844.010000	-1871.505000	5445.315000	-552.510000	9430.110000	-11.671606	-13.468120	-13.676832	-12.789246	-12.124034	-11.329864	-5.977583	-10.512729	-2.472120	2.929920	-0.183120	0.856382	0.187683	0.451842	-1.000000	-1.000000	-1.000000	-1.000000	-1.000000	-1.000000	-1.000000	81.379310	0.000000	-1.000000	-1.000000	568809.000000	1772659025.403487
-53409.690000	-141316.020000	18151.965000	-1850.715000	-1880.190000	5434.560000	-565.920000	9420.975000	0.089804	-2.308887	-2.947879	-2.932032	-2.946584	-3.123012	-2.381787	-0.925682	-2.472120	2.929920	-0.183120	0.856382	0.187683	0.451842	-1.000000	-1.000000	-1.000000	-1.000000	-1.000000	-1.000000	-1.000000	81.379310	0.000000	-1.000000	-1.000000	568810.000000	1772659025.403494
-53445.510000	-141345.180000	18122.715000	-1879.740000	-1907.370000	5410.620000	-590.085000	9375.255000	11.999152	10.797234	9.921917	9.027722	8.121423	6.766930	2.868919	8.455422	-4.593260	3.860780	-0.869820	0.856626	0.188903	0.450438	-1.000000	-1.000000	-1.000000	-1.000000	-1.000000	-1.000000	-1.000000	81.379310	0.000000	-1.000000	-1.000000	568811.000000	1772659025.410091
-53449.290000	-141342.930000	18128.835000	-1872.270000	-1898.820000	5420.520000	-577.980000	9375.885000	16.738356	17.716493	16.988577	15.606027	14.248494	12.357804	5.681692	10.872673	-4.593260	3.860780	-0.869820	0.856626	0.188903	0.450438	-1.000000	-1.000000	-1.000000	-1.000000	-1.000000	-1.000000	-1.000000	81.379310	0.000000	-1.000000	-1.000000	568812.000000	1772659025.410100
-53432.145000	-141320.025000	18156.600000	-1844.955000	-1872.000000	5444.820000	-560.565000	9390.375000	13.325090	15.959602	15.961527	14.799367	13.856634	12.437948	4.933588	6.686462	-4.593260	3.860780	-0.869820	0.856626	0.188903	0.450438	-1.000000	-1.000000	-1.000000	-1.000000	-1.000000	-1.000000	-1.000000	81.379310	0.000000	-1.000000	-1.000000	568813.000000	1772659025.410253
-53420.040000	-141303.330000	18177.255000	-1824.930000	-1856.565000	5454.405000	-566.370000	9392.130000	5.814003	9.162424	10.435452	10.059265	10.048599	9.638582	2.801726	0.741598	-4.593260	3.860780	-0.869820	0.856626	0.188903	0.450438	-1.000000	-1.000000	-1.000000	-1.000000	-1.000000	-1.000000	-1.000000	81.379310	0.000000	-1.000000	-1.000000	568814.000000	1772659025.410262
-53441.640000	-141334.830000	18148.770000	-1851.975000	-1882.755000	5431.635000	-577.080000	9395.505000	-1.871929	1.650899	4.146742	4.604222	5.155933	5.494948	1.107740	-2.800826	-4.593260	3.860780	-0.869820	0.856626	0.188903	0.450438	-1.000000	-1.000000	-1.000000	-1.000000	-1.000000	-1.000000	-1.000000	81.379310	0.000000	-1.000000	-1.000000	568815.000000	1772659025.414036
-53445.960000	-141358.365000	18117.945000	-1882.620000	-1909.035000	5414.130000	-555.255000	9442.260000	-7.298363	-5.102566	-2.515227	-1.646560	-1.236360	-0.537845	0.121149	-1.509556	-4.593260	3.860780	-0.869820	0.856626	0.188903	0.450438	-1.000000	-1.000000	-1.000000	-1.000000	-1.000000	-1.000000	-1.000000	81.379310	0.000000	-1.000000	-1.000000	568816.000000	1772659025.414044
-53466.570000	-141365.520000	18107.370000	-1886.760000	-1908.225000	5414.535000	-561.690000	9404.685000	-9.555939	-11.319379	-10.498533	-9.621729	-9.360939	-8.127880	-0.172103	4.047294	-4.593260	3.860780	-0.869820	0.856626	0.188903	0.450438	-1.000000	-1.000000	-1.000000	-1.000000	-1.000000	-1.000000	-1.000000	81.379310	0.000000	-1.000000	-1.000000	568817.000000	1772659025.422051
-53424.315000	-141319.890000	18152.460000	-1841.355000	-1863.090000	5455.170000	-542.250000	9439.605000	-9.605684	-15.619732	-17.668639	-16.745671	-15.926612	-13.893071	0.010739	8.476335	-4.593260	3.860780	-0.869820	0.856626	0.188903	0.450438	-1.000000	-1.000000	-1.000000	-1.000000	-1.000000	-1.000000	-1.000000	81.379310	0.000000	-1.000000	-1.000000	568818.000000	1772659025.422058
-53352.090000	-141262.695000	18208.845000	-1789.020000	-1813.635000	5501.205000	-497.880000	9544.770000	-6.890690	-13.627517	-17.715881	-16.597545	-14.880534	-12.600907	1.094606	8.586910	-4.593260	3.860780	-0.869820	0.856626	0.188903	0.450438	-1.000000	-1.000000	-1.000000	-1.000000	-1.000000	-1.000000	-1.000000	81.379310	0.000000	-1.000000	-1.000000	568819.000000	1772659025.422312
-53404.245000	-141285.150000	18195.570000	-1802.430000	-1831.320000	5478.030000	-533.205000	9436.770000	0.759748	-2.694373	-6.567203	-5.622022	-3.804068	-2.629051	3.658889	7.196525	-4.593260	3.860780	-0.869820	0.856626	0.188903	0.450438	-1.000000	-1.000000	-1.000000	-1.000000	-1.000000	-1.000000	-1.000000	81.379310	0.000000	-1.000000	-1.000000	568820.000000	1772659025.422319
-53478.855000	-141331.635000	18153.315000	-1844.955000	-1872.720000	5438.790000	-579.510000	9310.230000	9.090518	10.912637	9.412976	9.470520	10.037139	9.020668	4.282690	1.995181	-4.608520	2.624720	-0.427280	0.856321	0.186462	0.450560	-1.000000	-1.000000	-1.000000	-1.000000	-1.000000	-1.000000	-1.000000	81.379310	0.000000	-1.000000	-1.000000	568821.000000	1772659025.426034
-53500.185000	-141386.400000	18089.010000	-1911.915000	-1934.235000	5388.570000	-599.130000	9322.380000	8.645039	15.138647	16.598729	15.420081	14.204034	11.474030	-1.821450	-12.767155	-4.608520	2.624720	-0.427280	0.856321	0.186462	0.450560	-1.000000	-1.000000	-1.000000	-1.000000	-1.000000	-1.000000	-1.000000	81.379310	0.000000	-1.000000	-1.000000	568822.000000	1772659025.426043
-53469.045000	-141370.785000	18103.320000	-1899.450000	-1927.125000	5391.720000	-591.885000	9368.100000	-1.693007	5.486062	8.397861	6.270217	4.057188	1.625093	-12.202260	-29.757378	-4.608520	2.624720	-0.427280	0.856321	0.186462	0.450560	-1.000000	-1.000000	-1.000000	-1.000000	-1.000000	-1.000000	-1.000000	81.379310	0.000000	-1.000000	-1.000000	568823.000000	1772659025.430188
-53467.110000	-141346.125000	18136.530000	-1864.935000	-1894.230000	5422.590000	-576.090000	9359.235000	-11.410488	-8.395814	-6.229635	-8.597235	-10.695678	-11.260702	-17.962842	-33.112553	-4.608520	2.624720	-0.427280	0.856321	0.186462	0.450560	-1.000000	-1.000000	-1.000000	-1.000000	-1.000000	-1.000000	-1.000000	81.379310	0.000000	-1.000000	-1.000000	568824.000000	1772659025.430196
-53476.695000	-141371.325000	18103.860000	-1897.560000	-1918.890000	5408.280000	-576.315000	9376.380000	-10.901280	-13.365561	-12.871508	-14.655629	-16.045793	-14.956493	-13.423041	-17.665695	-4.608520	2.624720	-0.427280	0.856321	0.186462	0.450560	-1.000000	-1.000000	-1.000000	-1.000000	-1.000000	-1.000000	-1.000000	81.379310	0.000000	-1.000000	-1.000000	568825.000000	1772659025.435071
-53451.495000	-141352.875000	18121.635000	-1875.690000	-1891.755000	5430.870000	-570.825000	9397.260000	-1.016534	-6.944668	-7.618622	-8.195596	-8.526741	-6.855654	-1.179647	7.891089	-4.608520	2.624720	-0.427280	0.856321	0.186462	0.450560	-1.000000	-1.000000	-1.000000	-1.000000	-1.000000	-1.000000	-1.000000	81.379310	0.000000	-1.000000	-1.000000	568826.000000	1772659025.435078
-53438.040000	-141339.105000	18137.385000	-1860.165000	-1876.905000	5443.155000	-560.745000	9407.610000	9.864043	3.249322	2.372803	3.250700	4.265497	5.660876	11.243487	29.497284	-4.608520	2.624720	-0.427280	0.856321	0.186462	0.450560	-1.000000	-1.000000	-1.000000	-1.000000	-1.000000	-1.000000	-1.000000	81.379310	0.000000	-1.000000	-1.000000	568827.000000	1772659025.438016
-53435.115000	-141342.390000	18131.580000	-1868.490000	-1887.795000	5431.995000	-549.990000	9429.705000	14.066598	9.312227	8.957432	11.070811	13.191967	13.812459	17.532634	36.261339	-4.608520	2.624720	-0.427280	0.856321	0.186462	0.450560	-1.000000	-1.000000	-1.000000	-1.000000	-1.000000	-1.000000	-1.000000	81.379310	0.000000	-1.000000	-1.000000	568828.000000	1772659025.438022
-53460.270000	-141362.730000	18112.410000	-1887.975000	-1908.540000	5411.025000	-567.945000	9398.610000	10.887707	9.055521	9.196866	11.764694	14.048805	13.801197	16.424783	28.635952	-4.608520	2.624720	-0.427280	0.856321	0.186462	0.450560	-1.000000	-1.000000	-1.000000	-1.000000	-1.000000	-1.000000	-1.000000	81.379310	0.000000	-1.000000	-1.000000	568829.000000	1772659025.445326
-53482.680000	-141390.810000	18084.060000	-1917.090000	-1939.770000	5381.100000	-595.125000	9370.665000	5.099982	5.226725	5.270142	7.247096	8.507210	7.616462	10.396311	15.442587	-4.608520	2.624720	-0.427280	0.856321	0.186462	0.450560	-1.000000	-1.000000	-1.000000	-1.000000	-1.000000	-1.000000	-1.000000	81.379310	0.000000	-1.000000	-1.000000	568830.000000	1772659025.445336
-53451.135000	-141354.135000	18122.265000	-1879.695000	-1903.140000	5414.670000	-571.950000	9395.910000	0.512636	1.840794	1.560884	2.268420	1.736984	0.418716	2.642375	2.441941	-3.418240	2.868880	-1.129240	0.855039	0.184204	0.450499	-1.000000	-1.000000	-1.000000	-1.000000	-1.000000	-1.000000	-1.000000	81.379310	0.000000	-1.000000	-1.000000	568831.000000	1772659025.445944
-53437.275000	-141331.860000	18147.510000	-1854.630000	-1878.480000	5437.530000	-557.280000	9409.005000	-1.948651	1.551381	1.378679	0.810638	-1.306814	-2.880444	-3.633284	-9.253403	-3.418240	2.868880	-1.129240	0.855039	0.184204	0.450499	-1.000000	-1.000000	-1.000000	-1.000000	-1.000000	-1.000000	-1.000000	81.379310	0.000000	-1.000000	-1.000000	568832.000000	1772659025.445951
-53420.130000	-141307.065000	18175.545000	-1826.595000	-1851.975000	5462.280000	-545.625000	9427.815000	-2.433041	4.078278	4.476209	3.105473	0.479388	-1.074743	-6.463116	-17.872854	-3.418240	2.868880	-1.129240	0.855039	0.184204	0.450499	-1.000000	-1.000000	-1.000000	-1.000000	-1.000000	-1.000000	-1.000000	81.379310	0.000000	-1.000000	-1.000000	568833.000000	1772659025.450440
-53417.160000	-141302.385000	18179.325000	-1822.770000	-1848.735000	5464.080000	-560.880000	9397.665000	-1.645051	6.666337	7.749251	6.160885	4.066571	2.802977	-6.513357	-21.208803	-3.418240	2.868880	-1.129240	0.855039	0.184204	0.450499	-1.000000	-1.000000	-1.000000	-1.000000	-1.000000	-1.000000	-1.000000	81.379310	0.000000	-1.000000	-1.000000	568834.000000	1772659025.450447
-53445.465000	-141329.970000	18155.835000	-1843.290000	-1866.645000	5447.115000	-576.540000	9367.245000	-2.046383	5.353766	6.916584	5.588263	4.466871	3.820988	-6.188840	-20.321368	-3.418240	2.868880	-1.129240	0.855039	0.184204	0.450499	-1.000000	-1.000000	-1.000000	-1.000000	-1.000000	-1.000000	-1.000000	81.379310	0.000000	-1.000000	-1.000000	568835.000000	1772659025.453910
-53466.435000	-141347.655000	18139.140000	-1859.130000	-1882.215000	5431.050000	-575.640000	9375.435000	-6.679707	-2.809949	-1.253822	-1.910862	-1.888197	-1.384425	-7.279515	-18.116858	-3.418240	2.868880	-1.129240	0.855039	0.184204	0.450499	-1.000000	-1.000000	-1.000000	-1.000000	-1.000000	-1.000000	-1.000000	81.379310	0.000000	-1.000000	-1.000000	568836.000000	1772659025.453918
-53457.795000	-141340.995000	18141.795000	-1858.230000	-1881.810000	5432.760000	-566.055000	9388.080000	-13.670328	-14.770326	-13.932137	-13.635104	-12.329982	-10.363309	-8.483318	-13.715986	-3.418240	2.868880	-1.129240	0.855039	0.184204	0.450499	-1.000000	-1.000000	-1.000000	-1.000000	-1.000000	-1.000000	-1.000000	81.379310	0.000000	-1.000000	-1.000000	568837.000000	1772659025.459078
-53428.770000	-141330.060000	18146.160000	-1856.520000	-1880.730000	5436.900000	-550.800000	9414.585000	-15.011271	-21.312106	-22.001075	-20.934981	-18.548842	-15.512335	-5.922430	-2.575224	-3.418240	2.868880	-1.129240	0.855039	0.184204	0.450499	-1.000000	-1.000000	-1.000000	-1.000000	-1.000000	-1.000000	-1.000000	81.379310	0.000000	-1.000000	-1.000000	568838.000000	1772659025.459086
-53440.830000	-141348.735000	18125.100000	-1874.295000	-1897.560000	5422.635000	-555.615000	9420.255000	-5.625136	-16.091909	-18.717498	-17.502121	-14.764720	-11.641205	1.998575	15.250562	-3.418240	2.868880	-1.129240	0.855039	0.184204	0.450499	-1.000000	-1.000000	-1.000000	-1.000000	-1.000000	-1.000000	-1.000000	81.379310	0.000000	-1.000000	-1.000000	568839.000000	1772659025.462020
-53446.095000	-141351.030000	18122.895000	-1874.970000	-1897.020000	5423.580000	-558.360000	9419.670000	8.631612	-3.053566	-6.994067	-6.119097	-3.935729	-1.745574	10.841161	30.315117	-3.418240	2.868880	-1.129240	0.855039	0.184204	0.450499	-1.000000	-1.000000	-1.000000	-1.000000	-1.000000	-1.000000	-1.000000	81.379310	0.000000	-1.000000	-1.000000	568840.000000	1772659025.462029
-53443.845000	-141347.790000	18134.235000	-1867.275000	-1891.800000	5425.020000	-562.725000	9413.280000	16.904983	8.082549	4.419568	4.807882	5.821041	6.460449	13.679006	31.514714	-3.570840	2.777320	-1.510740	0.854917	0.184204	0.450194	-1.000000	-1.000000	-1.000000	-1.000000	-1.000000	-1.000000	-1.000000	81.379310	0.000000	-1.000000	-1.000000	568841.000000	1772659025.467298
-53392.410000	-141298.200000	18184.095000	-1822.365000	-1851.120000	5459.535000	-550.215000	9442.845000	15.220855	12.210145	10.618598	10.371604	9.939962	8.773495	8.393622	17.481329	-3.570840	2.777320	-1.510740	0.854917	0.184204	0.450194	-1.000000	-1.000000	-1.000000	-1.000000	-1.000000	-1.000000	-1.000000	81.379310	0.000000	-1.000000	-1.000000	568842.000000	1772659025.467305
-53372.745000	-141254.730000	18232.155000	-1773.315000	-1803.285000	5504.760000	-522.315000	9454.770000	8.492489	12.072014	13.544035	12.444052	10.552397	7.668992	-0.040335	-1.944327	-3.570840	2.777320	-1.510740	0.854917	0.184204	0.450194	-1.000000	-1.000000	-1.000000	-1.000000	-1.000000	-1.000000	-1.000000	81.379310	0.000000	-1.000000	-1.000000	568843.000000	1772659025.470121
-53425.890000	-141296.580000	18192.780000	-1805.175000	-1828.440000	5481.945000	-541.890000	9419.220000	2.146590	11.482118	15.540865	13.831104	11.006932	7.201376	-5.177230	-15.732847	-3.570840	2.777320	-1.510740	0.854917	0.184204	0.450194	-1.000000	-1.000000	-1.000000	-1.000000	-1.000000	-1.000000	-1.000000	81.379310	0.000000	-1.000000	-1.000000	568844.000000	1772659025.470128
-53476.740000	-141393.645000	18087.165000	-1909.260000	-1925.595000	5396.670000	-582.165000	9373.455000	-3.929177	8.129181	12.940933	11.616134	9.198552	6.112468	-6.229928	-21.269615	-3.570840	2.777320	-1.510740	0.854917	0.184204	0.450194	-1.000000	-1.000000	-1.000000	-1.000000	-1.000000	-1.000000	-1.000000	81.379310	0.000000	-1.000000	-1.000000	568845.000000	1772659025.474048
-53480.070000	-141405.660000	18071.325000	-1927.665000	-1943.460000	5383.620000	-575.505000	9380.250000	-11.251352	-2.327485	0.915013	1.007063	0.522680	-0.043310	-6.641187	-21.458070	-3.570840	2.777320	-1.510740	0.854917	0.184204	0.450194	-1.000000	-1.000000	-1.000000	-1.000000	-1.000000	-1.000000	-1.000000	81.379310	0.000000	-1.000000	-1.000000	568846.000000	1772659025.474058
-53474.220000	-141376.545000	18101.025000	-1902.375000	-1922.805000	5400.180000	-571.590000	9376.560000	-16.933019	-15.749184	-15.479963	-13.944840	-12.110550	-9.641815	-7.193702	-17.320289	-3.570840	2.777320	-1.510740	0.854917	0.184204	0.450194	-1.000000	-1.000000	-1.000000	-1.000000	-1.000000	-1.000000	-1.000000	81.379310	0.000000	-1.000000	-1.000000	568847.000000	1772659025.479104
-53462.115000	-141338.250000	18146.790000	-1853.190000	-1874.970000	5437.395000	-577.575000	9353.880000	-15.858845	-20.653982	-22.839227	-20.921938	-18.066714	-14.245929	-5.711831	-9.122195	-3.570840	2.777320	-1.510740	0.854917	0.184204	0.450194	-1.000000	-1.000000	-1.000000	-1.000000	-1.000000	-1.000000	-1.000000	81.379310	0.000000	-1.000000	-1.000000	568848.000000	1772659025.479112
-53469.315000	-141336.360000	18153.585000	-1843.920000	-1864.170000	5450.220000	-580.995000	9338.445000	-6.816762	-11.281583	-14.001143	-12.838431	-10.887105	-8.471399	-1.663248	0.256068	-3.570840	2.777320	-1.510740	0.854917	0.184204	0.450194	-1.000000	-1.000000	-1.000000	-1.000000	-1.000000	-1.000000	-1.000000	81.379310	0.000000	-1.000000	-1.000000	568849.000000	1772659025.481960
-53430.165000	-141332.715000	18142.785000	-1859.895000	-1884.060000	5432.040000	-567.450000	9414.945000	5.776357	5.611489	3.848273	3.909119	3.894377	3.453022	3.163999	8.364021	-3.570840	2.777320	-1.510740	0.854917	0.184204	0.450194	-1.000000	-1.000000	-1.000000	-1.000000	-1.000000	-1.000000	-1.000000	81.379310	0.000000	-1.000000	-1.000000	568850.000000	1772659025.481967
-53389.395000	-141313.860000	18149.355000	-1853.865000	-1878.705000	5438.880000	-536.490000	9479.160000	15.807816	17.609802	16.487323	15.758326	14.038759	11.671038	7.117551	16.190600	-4.196500	3.677660	-2.304260	0.854002	0.185668	0.448607	-1.000000	-1.000000	-1.000000	-1.000000	-1.000000	-1.000000	-1.000000	81.379310	0.000000	-1.000000	-1.000000	568851.000000	1772659025.486024
-53456.580000	-141359.625000	18117.630000	-1882.485000	-1906.515000	5412.195000	-563.625000	9387.495000	18.840507	17.134823	15.461632	14.402097	12.032524	9.896329	9.034220	22.827494	-4.196500	3.677660	-2.304260	0.854002	0.185668	0.448607	-1.000000	-1.000000	-1.000000	-1.000000	-1.000000	-1.000000	-1.000000	81.379310	0.000000	-1.000000	-1.000000	568852.000000	1772659025.486029
-53470.710000	-141376.275000	18103.410000	-1898.415000	-1921.545000	5398.020000	-579.690000	9366.885000	13.525535	6.419732	4.324981	3.249860	1.276262	0.828766	7.648015	21.939999	-4.196500	3.677660	-2.304260	0.854002	0.185668	0.448607	-1.000000	-1.000000	-1.000000	-1.000000	-1.000000	-1.000000	-1.000000	81.379310	0.000000	-1.000000	-1.000000	568853.000000	1772659025.492805
-53453.385000	-141351.885000	18127.710000	-1872.765000	-1897.245000	5418.270000	-571.140000	9377.280000	3.794294	-4.375058	-5.144932	-6.076253	-7.158833	-6.226939	3.504442	10.863802	-4.196500	3.677660	-2.304260	0.854002	0.185668	0.448607	-1.000000	-1.000000	-1.000000	-1.000000	-1.000000	-1.000000	-1.000000	81.379310	0.000000	-1.000000	-1.000000	568854.000000	1772659025.492815
-53455.635000	-141354.270000	18126.630000	-1873.485000	-1896.840000	5421.330000	-562.365000	9386.370000	-3.834083	-6.562066	-4.509861	-5.028292	-5.190854	-4.376042	-0.638069	-3.883771	-4.196500	3.677660	-2.304260	0.854002	0.185668	0.448607	-1.000000	-1.000000	-1.000000	-1.000000	-1.000000	-1.000000	-1.000000	81.379310	0.000000	-1.000000	-1.000000	568855.000000	1772659025.493950
-53456.805000	-141366.330000	18112.545000	-1885.860000	-1906.740000	5415.570000	-565.155000	9399.015000	-6.815639	-1.834050	2.692804	2.992188	3.758227	3.542656	-2.841331	-13.913742	-4.196500	3.677660	-2.304260	0.854002	0.185668	0.448607	-1.000000	-1.000000	-1.000000	-1.000000	-1.000000	-1.000000	-1.000000	81.379310	0.000000	-1.000000	-1.000000	568856.000000	1772659025.493958
-53457.570000	-141358.140000	18124.605000	-1872.045000	-1895.085000	5424.750000	-569.160000	9388.620000	-6.888489	1.704321	6.534674	7.722657	9.413486	8.776007	-3.302577	-15.443672	-4.196500	3.677660	-2.304260	0.854002	0.185668	0.448607	-1.000000	-1.000000	-1.000000	-1.000000	-1.000000	-1.000000	-1.000000	81.379310	0.000000	-1.000000	-1.000000	568857.000000	1772659025.497869
-53444.520000	-141342.570000	18140.760000	-1856.340000	-1880.640000	5436.135000	-568.215000	9389.565000	-6.012371	0.188989	2.859368	4.438247	6.616874	6.613734	-3.102627	-10.517447	-4.196500	3.677660	-2.304260	0.854002	0.185668	0.448607	-1.000000	-1.000000	-1.000000	-1.000000	-1.000000	-1.000000	-1.000000	81.379310	0.000000	-1.000000	-1.000000	568858.000000	1772659025.497876
-53430.840000	-141330.330000	18153.315000	-1843.695000	-1865.790000	5452.335000	-558.540000	9397.935000	-5.329285	-3.755053	-4.105399	-2.790578	-0.892027	-0.084300	-3.154832	-5.424201	-4.196500	3.677660	-2.304260	0.854002	0.185668	0.448607	-1.000000	-1.000000	-1.000000	-1.000000	-1.000000	-1.000000	-1.000000	81.379310	0.000000	-1.000000	-1.000000	568859.000000	1772659025.501832
-53440.245000	-141341.985000	18139.410000	-1856.925000	-1876.095000	5443.695000	-562.140000	9390.420000	-5.351491	-6.476818	-8.789319	-8.144125	-7.020161	-5.973763	-3.750350	-4.625486	-4.196500	3.677660	-2.304260	0.854002	0.185668	0.448607	-1.000000	-1.000000	-1.000000	-1.000000	-1.000000	-1.000000	-1.000000	81.379310	0.000000	-1.000000	-1.000000	568860.000000	1772659025.501838
-53438.580000	-141337.485000	18143.955000	-1850.850000	-1868.580000	5451.120000	-548.820000	9399.105000	-4.204117	-5.780087	-8.657566	-8.852200	-8.565352	-7.869638	-3.664547	-5.011627	-5.188400	5.371520	-2.151660	0.856016	0.185913	0.444213	-1.000000	-1.000000	-1.000000	-1.000000	-1.000000	-1.000000	-1.000000	81.379310	0.000000	-1.000000	-1.000000	568861.000000	1772659025.506011
-53407.170000	-141288.255000	18195.165000	-1801.620000	-1825.740000	5486.355000	-532.980000	9403.785000	1.105497	-0.064494	-2.831283	-3.839677	-4.398098	-4.485447	-0.657795	-0.465885	-5.188400	5.371520	-2.151660	0.856016	0.185913	0.444213	-1.000000	-1.000000	-1.000000	-1.000000	-1.000000	-1.000000	-1.000000	81.379310	0.000000	-1.000000	-1.000000	568862.000000	1772659025.506019
-53431.920000	-141308.505000	18177.705000	-1820.205000	-1846.440000	5464.755000	-554.220000	9384.300000	9.126086	9.030588	6.858793	5.311783	3.771336	2.599695	4.636326	8.231843	-5.188400	5.371520	-2.151660	0.856016	0.185913	0.444213	-1.000000	-1.000000	-1.000000	-1.000000	-1.000000	-1.000000	-1.000000	81.379310	0.000000	-1.000000	-1.000000	568863.000000	1772659025.510103
-53461.845000	-141361.515000	18124.650000	-1872.450000	-1897.335000	5417.280000	-575.370000	9403.290000	13.118982	14.163864	13.217872	11.615879	9.224089	7.170654	7.390239	13.958346	-5.188400	5.371520	-2.151660	0.856016	0.185913	0.444213	-1.000000	-1.000000	-1.000000	-1.000000	-1.000000	-1.000000	-1.000000	81.379310	0.000000	-1.000000	-1.000000	568864.000000	1772659025.510111
-53426.385000	-141341.670000	18141.480000	-1856.700000	-1881.450000	5433.525000	-556.020000	9447.345000	8.755537	8.931383	9.397023	8.239085	5.753273	3.782999	4.473440	13.015059	-5.188400	5.371520	-2.151660	0.856016	0.185913	0.444213	-1.000000	-1.000000	-1.000000	-1.000000	-1.000000	-1.000000	-1.000000	81.379310	0.000000	-1.000000	-1.000000	568865.000000	1772659025.514102
-53421.615000	-141338.205000	18140.715000	-1859.580000	-1882.800000	5433.795000	-557.100000	9424.665000	-0.306649	-3.790057	-2.651807	-3.146770	-4.642787	-5.292218	-1.264517	7.978414	-5.188400	5.371520	-2.151660	0.856016	0.185913	0.444213	-1.000000	-1.000000	-1.000000	-1.000000	-1.000000	-1.000000	-1.000000	81.379310	0.000000	-1.000000	-1.000000	568866.000000	1772659025.514110
-53453.340000	-141375.735000	18100.980000	-1898.055000	-1917.090000	5409.495000	-568.710000	9395.910000	-8.207420	-15.631627	-14.964578	-14.858146	-14.555029	-13.105482	-5.395629	0.894927	-5.188400	5.371520	-2.151660	0.856016	0.185913	0.444213	-1.000000	-1.000000	-1.000000	-1.000000	-1.000000	-1.000000	-1.000000	81.379310	0.000000	-1.000000	-1.000000	568867.000000	1772659025.517959
-53436.015000	-141352.020000	18127.035000	-1869.300000	-1888.560000	5436.360000	-547.740000	9421.380000	-12.927799	-20.826529	-21.039866	-20.368074	-18.228272	-14.833201	-6.439133	-8.141503	-5.188400	5.371520	-2.151660	0.856016	0.185913	0.444213	-1.000000	-1.000000	-1.000000	-1.000000	-1.000000	-1.000000	-1.000000	81.379310	0.000000	-1.000000	-1.000000	568868.000000	1772659025.517966
-53416.530000	-141332.895000	18141.885000	-1858.635000	-1884.195000	5436.405000	-553.950000	9444.465000	-12.842677	-16.496730	-17.024089	-15.862584	-12.937523	-8.979872	-4.600506	-14.984547	-5.188400	5.371520	-2.151660	0.856016	0.185913	0.444213	-1.000000	-1.000000	-1.000000	-1.000000	-1.000000	-1.000000	-1.000000	81.379310	0.000000	-1.000000	-1.000000	568869.000000	1772659025.523274
-53463.465000	-141361.560000	18119.070000	-1878.570000	-1904.580000	5412.645000	-582.435000	9379.980000	-6.651819	-3.551616	-3.658948	-2.399309	-0.404247	1.989004	-1.222396	-14.466868	-5.188400	5.371520	-2.151660	0.856016	0.185913	0.444213	-1.000000	-1.000000	-1.000000	-1.000000	-1.000000	-1.000000	-1.000000	81.379310	0.000000	-1.000000	-1.000000	568870.000000	1772659025.523283
-53456.040000	-141353.595000	18127.530000	-1869.660000	-1896.930000	5418.720000	-564.075000	9391.185000	1.699902	10.518202	11.221773	12.153197	12.151139	11.589650	1.267031	-8.220365	-3.616620	6.088740	-2.792580	0.853697	0.184570	0.444884	-1.000000	-1.000000	-1.000000	-1.000000	-1.000000	-1.000000	-1.000000	81.379310	0.000000	-1.000000	-1.000000	568871.000000	1772659025.526044
-53372.565000	-141281.775000	18193.095000	-1808.055000	-1841.355000	5468.760000	-526.590000	9485.100000	8.365463	19.019328	20.386514	20.853032	19.152901	15.887275	2.982572	0.153320	-3.616620	6.088740	-2.792580	0.853697	0.184570	0.444884	-1.000000	-1.000000	-1.000000	-1.000000	-1.000000	-1.000000	-1.000000	81.379310	0.000000	-1.000000	-1.000000	568872.000000	1772659025.526052
-53428.005000	-141325.290000	18153.180000	-1847.790000	-1879.515000	5436.675000	-558.090000	9405.045000	13.768705	21.944333	23.273201	23.236146	20.893719	16.398421	5.764718	8.790144	-3.616620	6.088740	-2.792580	0.853697	0.184570	0.444884	-1.000000	-1.000000	-1.000000	-1.000000	-1.000000	-1.000000	-1.000000	81.379310	0.000000	-1.000000	-1.000000	568873.000000	1772659025.530114
-53455.230000	-141354.000000	18125.055000	-1874.295000	-1901.070000	5419.845000	-569.970000	9376.470000	14.916997	18.592106	19.291689	18.776784	16.950137	13.245288	7.615372	11.943216	-3.616620	6.088740	-2.792580	0.853697	0.184570	0.444884	-1.000000	-1.000000	-1.000000	-1.000000	-1.000000	-1.000000	-1.000000	81.379310	0.000000	-1.000000	-1.000000	568874.000000	1772659025.530120
-53455.185000	-141355.755000	18124.740000	-1869.030000	-1888.695000	5431.680000	-586.260000	9358.245000	7.229015	6.744534	6.886624	6.270473	5.989712	4.775381	4.803327	5.330494	-3.616620	6.088740	-2.792580	0.853697	0.184570	0.444884	-1.000000	-1.000000	-1.000000	-1.000000	-1.000000	-1.000000	-1.000000	81.379310	0.000000	-1.000000	-1.000000	568875.000000	1772659025.534186
-53470.485000	-141363.495000	18121.410000	-1870.470000	-1888.245000	5433.840000	-589.230000	9347.130000	-5.951574	-9.309509	-9.207192	-9.303646	-7.608856	-6.085339	-2.159958	-5.900805	-3.616620	6.088740	-2.792580	0.853697	0.184570	0.444884	-1.000000	-1.000000	-1.000000	-1.000000	-1.000000	-1.000000	-1.000000	81.379310	0.000000	-1.000000	-1.000000	568876.000000	1772659025.534196
-53460.495000	-141352.740000	18132.345000	-1863.675000	-1886.265000	5437.845000	-558.045000	9395.955000	-16.227814	-20.914846	-20.432963	-19.806160	-16.823426	-13.769740	-8.626322	-12.703508	-3.616620	6.088740	-2.792580	0.853697	0.184570	0.444884	-1.000000	-1.000000	-1.000000	-1.000000	-1.000000	-1.000000	-1.000000	81.379310	0.000000	-1.000000	-1.000000	568877.000000	1772659025.538093
-53449.965000	-141343.020000	18141.570000	-1859.895000	-1888.110000	5432.130000	-559.440000	9391.500000	-17.544830	-22.400938	-21.677884	-20.958984	-18.305000	-15.251506	-9.531617	-9.478529	-3.616620	6.088740	-2.792580	0.853697	0.184570	0.444884	-1.000000	-1.000000	-1.000000	-1.000000	-1.000000	-1.000000	-1.000000	81.379310	0.000000	-1.000000	-1.000000	568878.000000	1772659025.538101
-53455.365000	-141348.195000	18137.430000	-1865.655000	-1897.470000	5418.900000	-569.655000	9366.300000	-8.953379	-13.714286	-13.435711	-13.630244	-12.891501	-10.939907	-3.862168	2.399543	-3.616620	6.088740	-2.792580	0.853697	0.184570	0.444884	-1.000000	-1.000000	-1.000000	-1.000000	-1.000000	-1.000000	-1.000000	81.379310	0.000000	-1.000000	-1.000000	568879.000000	1772659025.541949
-53439.030000	-141332.805000	18152.055000	-1850.535000	-1883.070000	5433.030000	-559.125000	9389.880000	4.279900	-0.379198	-1.176677	-2.696878	-4.358811	-3.981353	3.791561	14.533819	-3.616620	6.088740	-2.792580	0.853697	0.184570	0.444884	-1.000000	-1.000000	-1.000000	-1.000000	-1.000000	-1.000000	-1.000000	81.379310	0.000000	-1.000000	-1.000000	568880.000000	1772659025.541956
-53436.240000	-141324.885000	18158.625000	-1838.520000	-1865.385000	5449.455000	-565.110000	9386.190000	13.795114	10.181118	8.352454	6.279315	3.268427	2.282475	7.835394	18.049388	-2.884140	5.997180	-1.785420	0.855528	0.183166	0.443908	-1.000000	-1.000000	-1.000000	-1.000000	-1.000000	-1.000000	-1.000000	81.379310	0.000000	-1.000000	-1.000000	568881.000000	1772659025.546117
-53424.990000	-141326.415000	18153.405000	-1837.800000	-1858.770000	5457.060000	-559.125000	9400.230000	15.441816	14.358360	12.121700	11.035681	8.631973	6.884613	6.836327	11.901568	-2.884140	5.997180	-1.785420	0.855528	0.183166	0.443908	-1.000000	-1.000000	-1.000000	-1.000000	-1.000000	-1.000000	-1.000000	81.379310	0.000000	-1.000000	-1.000000	568882.000000	1772659025.546126
-53400.645000	-141322.770000	18149.580000	-1842.345000	-1863.180000	5456.070000	-537.345000	9450.360000	11.741519	13.201121	11.120389	12.080384	11.698122	9.838344	3.701850	3.562284	-2.884140	5.997180	-1.785420	0.855528	0.183166	0.443908	-1.000000	-1.000000	-1.000000	-1.000000	-1.000000	-1.000000	-1.000000	81.379310	0.000000	-1.000000	-1.000000	568883.000000	1772659025.552947
-53413.605000	-141337.305000	18136.170000	-1860.075000	-1883.565000	5437.665000	-537.750000	9441.855000	6.675682	8.819637	7.147796	9.656062	11.046464	9.709099	1.857406	0.202016	-2.884140	5.997180	-1.785420	0.855528	0.183166	0.443908	-1.000000	-1.000000	-1.000000	-1.000000	-1.000000	-1.000000	-1.000000	81.379310	0.000000	-1.000000	-1.000000	568884.000000	1772659025.552957
-53430.705000	-141344.730000	18134.280000	-1860.345000	-1883.295000	5437.305000	-549.405000	9411.120000	1.086197	2.327945	1.377774	3.682688	5.326555	4.954950	1.256323	0.328757	-2.884140	5.997180	-1.785420	0.855528	0.183166	0.443908	-1.000000	-1.000000	-1.000000	-1.000000	-1.000000	-1.000000	-1.000000	81.379310	0.000000	-1.000000	-1.000000	568885.000000	1772659025.554307
-53428.635000	-141333.210000	18147.420000	-1848.015000	-1871.865000	5447.970000	-545.805000	9411.570000	-5.723220	-4.970526	-4.604498	-3.913664	-3.246768	-2.668564	-0.861030	-2.974427	-2.884140	5.997180	-1.785420	0.855528	0.183166	0.443908	-1.000000	-1.000000	-1.000000	-1.000000	-1.000000	-1.000000	-1.000000	81.379310	0.000000	-1.000000	-1.000000	568886.000000	1772659025.554315
-53458.740000	-141347.160000	18135.135000	-1861.020000	-1886.895000	5429.745000	-566.010000	9366.570000	-12.545809	-10.460703	-8.396799	-9.323336	-9.647058	-8.503485	-5.193368	-11.551262	-2.884140	5.997180	-1.785420	0.855528	0.183166	0.443908	-1.000000	-1.000000	-1.000000	-1.000000	-1.000000	-1.000000	-1.000000	81.379310	0.000000	-1.000000	-1.000000	568887.000000	1772659025.558020
-53448.165000	-141330.015000	18147.870000	-1849.320000	-1874.880000	5442.165000	-558.990000	9363.240000	-16.478613	-11.740629	-8.493192	-10.082911	-10.636279	-9.369756	-9.153968	-19.916585	-2.884140	5.997180	-1.785420	0.855528	0.183166	0.443908	-1.000000	-1.000000	-1.000000	-1.000000	-1.000000	-1.000000	-1.000000	81.379310	0.000000	-1.000000	-1.000000	568888.000000	1772659025.558027
-53437.320000	-141316.200000	18163.710000	-1829.745000	-1853.055000	5464.305000	-548.100000	9377.505000	-15.256042	-8.470195	-5.341499	-6.621453	-6.711492	-5.635253	-9.801195	-21.990842	-2.884140	5.997180	-1.785420	0.855528	0.183166	0.443908	-1.000000	-1.000000	-1.000000	-1.000000	-1.000000	-1.000000	-1.000000	81.379310	0.000000	-1.000000	-1.000000	568889.000000	1772659025.562024
-53436.420000	-141339.780000	18142.020000	-1851.255000	-1875.105000	5444.505000	-550.485000	9421.650000	-8.633785	-2.592530	-0.721323	-1.234586	-0.778011	-0.065355	-6.021729	-14.801679	-2.884140	5.997180	-1.785420	0.855528	0.183166	0.443908	-1.000000	-1.000000	-1.000000	-1.000000	-1.000000	-1.000000	-1.000000	81.379310	0.000000	-1.000000	-1.000000	568890.000000	1772659025.562032
-53425.485000	-141336.225000	18143.640000	-1850.040000	-1873.710000	5445.810000	-554.445000	9422.370000	1.175441	2.818358	3.172336	3.228063	3.629796	3.851669	0.465986	0.425448	-2.487380	5.814060	-2.105880	0.854612	0.182678	0.442748	-1.000000	-1.000000	-1.000000	-1.000000	-1.000000	-1.000000	-1.000000	81.379310	0.000000	-1.000000	-1.000000	568891.000000	1772659025.565897
-53422.515000	-141336.045000	18142.470000	-1850.490000	-1870.245000	5450.220000	-563.985000	9406.305000	10.177407	5.837946	5.127624	5.250634	4.944160	4.535333	5.808816	16.193917	-2.487380	5.814060	-2.105880	0.854612	0.182678	0.442748	-1.000000	-1.000000	-1.000000	-1.000000	-1.000000	-1.000000	-1.000000	81.379310	0.000000	-1.000000	-1.000000	568892.000000	1772659025.565904
-53445.195000	-141371.550000	18104.535000	-1891.620000	-1912.410000	5412.555000	-565.740000	9413.820000	14.695016	6.175190	4.895681	4.820149	3.849770	2.842836	7.218309	23.563051	-2.487380	5.814060	-2.105880	0.854612	0.182678	0.442748	-1.000000	-1.000000	-1.000000	-1.000000	-1.000000	-1.000000	-1.000000	81.379310	0.000000	-1.000000	-1.000000	568893.000000	1772659025.570016
-53445.960000	-141363.765000	18112.860000	-1885.455000	-1909.620000	5413.545000	-555.390000	9415.260000	13.252959	3.906778	2.176102	1.931934	0.912228	-0.279220	5.220663	20.301329	-2.487380	5.814060	-2.105880	0.854612	0.182678	0.442748	-1.000000	-1.000000	-1.000000	-1.000000	-1.000000	-1.000000	-1.000000	81.379310	0.000000	-1.000000	-1.000000	568894.000000	1772659025.570023
-53438.805000	-141351.570000	18128.565000	-1868.535000	-1895.895000	5424.030000	-555.570000	9419.085000	7.454186	0.369466	-1.725641	-1.967772	-2.519437	-3.356001	2.485731	10.758661	-2.487380	5.814060	-2.105880	0.854612	0.182678	0.442748	-1.000000	-1.000000	-1.000000	-1.000000	-1.000000	-1.000000	-1.000000	81.379310	0.000000	-1.000000	-1.000000	568895.000000	1772659025.574116
-53401.320000	-141320.070000	18159.120000	-1839.555000	-1872.315000	5443.065000	-544.140000	9463.950000	1.692611	-1.250380	-3.174961	-3.132135	-3.137495	-3.409801	1.345088	1.778736	-2.487380	5.814060	-2.105880	0.854612	0.182678	0.442748	-1.000000	-1.000000	-1.000000	-1.000000	-1.000000	-1.000000	-1.000000	81.379310	0.000000	-1.000000	-1.000000	568896.000000	1772659025.574123
-53438.220000	-141344.505000	18138.060000	-1859.220000	-1890.585000	5425.740000	-565.740000	9394.695000	-1.053275	0.285001	-0.656580	-0.131005	0.146894	0.248378	1.657967	-2.864008	-2.487380	5.814060	-2.105880	0.854612	0.182678	0.442748	-1.000000	-1.000000	-1.000000	-1.000000	-1.000000	-1.000000	-1.000000	81.379310	0.000000	-1.000000	-1.000000	568897.000000	1772659025.577929
-53447.895000	-141359.130000	18122.940000	-1872.855000	-1899.675000	5421.690000	-570.825000	9377.370000	-2.890382	1.844796	2.392558	3.272941	3.609269	3.860212	0.956342	-6.785824	-2.487380	5.814060	-2.105880	0.854612	0.182678	0.442748	-1.000000	-1.000000	-1.000000	-1.000000	-1.000000	-1.000000	-1.000000	81.379310	0.000000	-1.000000	-1.000000	568898.000000	1772659025.577937
-53432.910000	-141344.820000	18139.050000	-1854.405000	-1878.930000	5443.560000	-554.940000	9399.015000	-6.231365	0.854001	2.661220	3.529153	4.012454	4.439577	-1.661731	-13.641201	-2.487380	5.814060	-2.105880	0.854612	0.182678	0.442748	-1.000000	-1.000000	-1.000000	-1.000000	-1.000000	-1.000000	-1.000000	81.379310	0.000000	-1.000000	-1.000000	568899.000000	1772659025.582134
-53439.120000	-141336.630000	18151.515000	-1840.860000	-1867.680000	5451.210000	-554.670000	9391.860000	-9.341219	-0.983676	1.353811	1.917125	2.679294	3.295090	-3.849483	-19.453312	-2.487380	5.814060	-2.105880	0.854612	0.182678	0.442748	-1.000000	-1.000000	-1.000000	-1.000000	-1.000000	-1.000000	-1.000000	81.379310	0.000000	-1.000000	-1.000000	568900.000000	1772659025.582144
-53452.845000	-141352.200000	18136.530000	-1853.955000	-1878.795000	5439.645000	-563.760000	9382.905000	-9.566893	-1.249861	0.944812	1.183040	2.005650	2.450291	-3.575371	-18.098078	-1.922760	5.447820	-2.166920	0.853086	0.183715	0.443602	-1.000000	-1.000000	-1.000000	-1.000000	-1.000000	-1.000000	-1.000000	81.379310	0.000000	-1.000000	-1.000000	568901.000000	1772659025.586079
-53435.070000	-141342.615000	18141.255000	-1852.470000	-1877.040000	5445.135000	-548.775000	9406.305000	-5.893819	0.265971	1.705625	1.772023	2.297358	2.133182	-1.352989	-8.398159	-1.922760	5.447820	-2.166920	0.853086	0.183715	0.443602	-1.000000	-1.000000	-1.000000	-1.000000	-1.000000	-1.000000	-1.000000	81.379310	0.000000	-1.000000	-1.000000	568902.000000	1772659025.586087
-53432.955000	-141324.345000	18161.055000	-1832.400000	-1858.050000	5463.495000	-530.730000	9408.330000	0.998980	2.403414	2.404813	2.372201	2.553460	1.893685	1.409543	5.679419	-1.922760	5.447820	-2.166920	0.853086	0.183715	0.443602	-1.000000	-1.000000	-1.000000	-1.000000	-1.000000	-1.000000	-1.000000	81.379310	0.000000	-1.000000	-1.000000	568903.000000	1772659025.589956
-53401.005000	-141299.640000	18184.680000	-1808.865000	-1835.370000	5480.595000	-516.465000	9452.745000	8.346847	3.767764	2.016376	1.809325	1.901305	1.373521	3.905504	18.156772	-1.922760	5.447820	-2.166920	0.853086	0.183715	0.443602	-1.000000	-1.000000	-1.000000	-1.000000	-1.000000	-1.000000	-1.000000	81.379310	0.000000	-1.000000	-1.000000	568904.000000	1772659025.589963
-53299.350000	-141245.190000	18227.295000	-1773.675000	-1803.690000	5510.430000	-481.320000	9587.205000	13.933810	4.000277	0.863777	0.325378	0.523016	0.575056	5.842644	26.069314	-1.922760	5.447820	-2.166920	0.853086	0.183715	0.443602	-1.000000	-1.000000	-1.000000	-1.000000	-1.000000	-1.000000	-1.000000	81.379310	0.000000	-1.000000	-1.000000	568905.000000	1772659025.595556
-53404.065000	-141329.295000	18145.125000	-1856.205000	-1883.925000	5437.170000	-552.285000	9428.895000	16.583684	3.022790	-0.702328	-1.801239	-1.664347	-1.083081	6.045751	28.447621	-1.922760	5.447820	-2.166920	0.853086	0.183715	0.443602	-1.000000	-1.000000	-1.000000	-1.000000	-1.000000	-1.000000	-1.000000	81.310345	0.000000	-1.000000	-1.000000	568906.000000	1772659025.595564
-53511.795000	-141412.410000	18071.595000	-1925.460000	-1952.145000	5368.770000	-623.745000	9281.520000	10.969856	-1.949913	-5.030613	-6.681452	-7.020719	-6.215172	1.037530	17.984377	-1.922760	5.447820	-2.166920	0.853086	0.183715	0.443602	-1.000000	-1.000000	-1.000000	-1.000000	-1.000000	-1.000000	-1.000000	81.310345	0.000000	-1.000000	-1.000000	568907.000000	1772659025.600149
-53474.985000	-141375.690000	18110.340000	-1885.680000	-1913.265000	5402.835000	-596.565000	9346.185000	-6.576313	-12.233979	-13.085845	-14.670609	-15.705696	-15.103650	-10.131366	-9.807240	-1.922760	5.447820	-2.166920	0.853086	0.183715	0.443602	-1.000000	-1.000000	-1.000000	-1.000000	-1.000000	-1.000000	-1.000000	81.310345	0.000000	-1.000000	-1.000000	568908.000000	1772659025.600157
-53459.910000	-141358.455000	18131.625000	-1864.350000	-1890.720000	5424.705000	-579.825000	9377.010000	-25.977869	-20.637631	-18.388080	-19.034816	-20.512331	-20.561098	-19.825876	-39.043482	-1.922760	5.447820	-2.166920	0.853086	0.183715	0.443602	-1.000000	-1.000000	-1.000000	-1.000000	-1.000000	-1.000000	-1.000000	81.310345	0.000000	-1.000000	-1.000000	568909.000000	1772659025.602027
-53456.130000	-141354.900000	18133.785000	-1862.730000	-1886.670000	5429.520000	-570.510000	9386.955000	-31.329286	-17.639947	-13.022497	-12.311451	-13.595179	-14.420216	-18.371830	-46.547465	-1.922760	5.447820	-2.166920	0.853086	0.183715	0.443602	-1.000000	-1.000000	-1.000000	-1.000000	-1.000000	-1.000000	-1.000000	81.310345	0.000000	-1.000000	-1.000000	568910.000000	1772659025.602034
-53422.695000	-141334.920000	18149.130000	-1849.905000	-1877.760000	5437.980000	-554.940000	9409.410000	-17.921945	-2.895048	2.070321	3.862697	3.397933	2.135046	-5.166843	-27.095981	-0.854560	5.051060	-3.036740	0.853330	0.183593	0.445555	-1.000000	-1.000000	-1.000000	-1.000000	-1.000000	-1.000000	-1.000000	81.310345	0.000000	-1.000000	-1.000000	568911.000000	1772659025.606035
-53408.790000	-141321.690000	18164.790000	-1832.580000	-1861.515000	5449.410000	-555.615000	9417.420000	5.626879	14.588491	17.671386	19.794727	20.315928	19.196735	11.309029	5.334932	-0.854560	5.051060	-3.036740	0.853330	0.183593	0.445555	-1.000000	-1.000000	-1.000000	-1.000000	-1.000000	-1.000000	-1.000000	81.310345	0.000000	-1.000000	-1.000000	568912.000000	1772659025.606043
-53395.470000	-141312.420000	18174.195000	-1821.510000	-1848.015000	5460.615000	-553.005000	9439.200000	24.987053	24.274770	24.353398	26.079391	27.309383	26.863993	21.165874	30.834393	-0.854560	5.051060	-3.036740	0.853330	0.183593	0.445555	-1.000000	-1.000000	-1.000000	-1.000000	-1.000000	-1.000000	-1.000000	81.310345	0.000000	-1.000000	-1.000000	568913.000000	1772659025.610835
-53451.405000	-141361.155000	18124.020000	-1872.630000	-1894.230000	5427.135000	-561.510000	9393.255000	28.469243	20.696541	18.423931	19.474176	21.096872	21.691296	19.818677	35.846652	-0.854560	5.051060	-3.036740	0.853330	0.183593	0.445555	-1.000000	-1.000000	-1.000000	-1.000000	-1.000000	-1.000000	-1.000000	81.310345	0.000000	-1.000000	-1.000000	568914.000000	1772659025.610842
-53488.440000	-141389.820000	18097.515000	-1899.585000	-1921.815000	5404.230000	-576.495000	9349.605000	15.878927	7.220058	4.207083	4.579909	6.279300	8.065941	10.808417	22.558093	-0.854560	5.051060	-3.036740	0.853330	0.183593	0.445555	-1.000000	-1.000000	-1.000000	-1.000000	-1.000000	-1.000000	-1.000000	81.310345	0.000000	-1.000000	-1.000000	568915.000000	1772659025.613967
-53470.260000	-141376.995000	18107.100000	-1891.170000	-1913.130000	5412.555000	-575.280000	9359.955000	-0.936385	-6.026709	-8.615936	-9.065376	-7.859721	-5.229021	1.723601	5.396082	-0.854560	5.051060	-3.036740	0.853330	0.183593	0.445555	-1.000000	-1.000000	-1.000000	-1.000000	-1.000000	-1.000000	-1.000000	81.310345	0.000000	-1.000000	-1.000000	568916.000000	1772659025.613974
-53433.405000	-141354.315000	18129.915000	-1867.590000	-1889.640000	5431.005000	-571.095000	9407.340000	-10.061854	-11.275509	-13.215938	-14.644453	-14.537346	-12.063492	-3.557443	-4.649226	-0.854560	5.051060	-3.036740	0.853330	0.183593	0.445555	-1.000000	-1.000000	-1.000000	-1.000000	-1.000000	-1.000000	-1.000000	81.310345	0.000000	-1.000000	-1.000000	568917.000000	1772659025.618179
-53412.120000	-141330.960000	18153.270000	-1845.360000	-1870.830000	5443.110000	-586.305000	9402.525000	-8.605359	-8.252947	-9.702532	-11.824641	-13.024564	-12.037717	-6.443785	-7.030958	-0.854560	5.051060	-3.036740	0.853330	0.183593	0.445555	-1.000000	-1.000000	-1.000000	-1.000000	-1.000000	-1.000000	-1.000000	81.310345	0.000000	-1.000000	-1.000000	568918.000000	1772659025.618187
-53418.870000	-141319.935000	18168.390000	-1827.765000	-1853.910000	5460.255000	-569.160000	9387.180000	-1.414270	-1.109919	-1.879099	-3.877408	-6.101036	-7.562008	-8.901344	-6.639327	-0.854560	5.051060	-3.036740	0.853330	0.183593	0.445555	-1.000000	-1.000000	-1.000000	-1.000000	-1.000000	-1.000000	-1.000000	81.310345	0.000000	-1.000000	-1.000000	568919.000000	1772659025.622016
-53437.320000	-141340.770000	18148.635000	-1847.745000	-1872.900000	5444.280000	-554.130000	9404.730000	3.523925	4.471629	4.984686	4.057197	1.608103	-1.974658	-10.235610	-7.559962	-0.854560	5.051060	-3.036740	0.853330	0.183593	0.445555	-1.000000	-1.000000	-1.000000	-1.000000	-1.000000	-1.000000	-1.000000	81.310345	0.000000	-1.000000	-1.000000	568920.000000	1772659025.622023
-53407.755000	-141315.075000	18168.345000	-1830.870000	-1858.590000	5461.560000	-521.145000	9451.440000	1.280109	4.050918	6.031271	6.554088	4.958047	1.141988	-8.191111	-9.298213	0.610400	6.149780	-2.868880	0.855833	0.184753	0.447326	-1.000000	-1.000000	-1.000000	-1.000000	-1.000000	-1.000000	-1.000000	81.310345	0.000000	-1.000000	-1.000000	568921.000000	1772659025.627700
-53423.280000	-141322.725000	18162.315000	-1837.665000	-1868.805000	5447.115000	-545.850000	9404.730000	-5.874125	-1.498311	1.154469	2.599660	2.424926	0.531365	-2.542672	-9.406351	0.610400	6.149780	-2.868880	0.855833	0.184753	0.447326	-1.000000	-1.000000	-1.000000	-1.000000	-1.000000	-1.000000	-1.000000	81.310345	0.000000	-1.000000	-1.000000	568922.000000	1772659025.627710
-53459.235000	-141366.915000	18124.830000	-1870.380000	-1898.730000	5418.270000	-569.205000	9380.745000	-11.237056	-6.845270	-4.589653	-3.092985	-2.223546	-1.683467	3.415685	-7.055914	0.610400	6.149780	-2.868880	0.855833	0.184753	0.447326	-1.000000	-1.000000	-1.000000	-1.000000	-1.000000	-1.000000	-1.000000	81.310345	0.000000	-1.000000	-1.000000	568923.000000	1772659025.630091
-53460.540000	-141386.580000	18095.130000	-1904.445000	-1931.355000	5390.955000	-572.850000	9410.580000	-9.566969	-7.806638	-6.608094	-5.604191	-4.430555	-2.719137	6.384011	-1.020748	0.610400	6.149780	-2.868880	0.855833	0.184753	0.447326	-1.000000	-1.000000	-1.000000	-1.000000	-1.000000	-1.000000	-1.000000	81.310345	0.000000	-1.000000	-1.000000	568924.000000	1772659025.630100
-53456.130000	-141382.440000	18098.100000	-1902.465000	-1926.090000	5399.145000	-572.310000	9401.310000	-1.786070	-4.874248	-5.156262	-4.886964	-3.767818	-2.158718	5.816024	7.964714	0.610400	6.149780	-2.868880	0.855833	0.184753	0.447326	-1.000000	-1.000000	-1.000000	-1.000000	-1.000000	-1.000000	-1.000000	81.310345	0.000000	-1.000000	-1.000000	568925.000000	1772659025.633985
-53444.655000	-141362.550000	18121.455000	-1876.590000	-1900.080000	5421.195000	-565.920000	9402.705000	5.854970	-1.149014	-2.931610	-3.422395	-2.287812	-1.008031	2.939128	13.432486	0.610400	6.149780	-2.868880	0.855833	0.184753	0.447326	-1.000000	-1.000000	-1.000000	-1.000000	-1.000000	-1.000000	-1.000000	81.310345	0.000000	-1.000000	-1.000000	568926.000000	1772659025.633992
-53433.810000	-141344.550000	18140.805000	-1857.555000	-1883.565000	5433.705000	-559.035000	9404.055000	8.520765	1.736593	-0.714384	-1.607421	-0.404520	0.740956	-0.196205	10.314592	0.610400	6.149780	-2.868880	0.855833	0.184753	0.447326	-1.000000	-1.000000	-1.000000	-1.000000	-1.000000	-1.000000	-1.000000	81.310345	0.000000	-1.000000	-1.000000	568927.000000	1772659025.638075
-53443.890000	-141356.070000	18129.105000	-1870.290000	-1897.155000	5425.425000	-555.660000	9397.350000	6.460090	3.816747	1.955504	1.205876	2.204093	3.102795	-2.078031	1.298988	0.610400	6.149780	-2.868880	0.855833	0.184753	0.447326	-1.000000	-1.000000	-1.000000	-1.000000	-1.000000	-1.000000	-1.000000	81.310345	0.000000	-1.000000	-1.000000	568928.000000	1772659025.638083
-53460.180000	-141377.985000	18105.120000	-1894.995000	-1920.915000	5411.655000	-547.155000	9399.420000	2.094704	4.430897	3.936946	3.636930	4.023989	4.541092	-2.921204	-7.828594	0.610400	6.149780	-2.868880	0.855833	0.184753	0.447326	-1.000000	-1.000000	-1.000000	-1.000000	-1.000000	-1.000000	-1.000000	81.310345	0.000000	-1.000000	-1.000000	568929.000000	1772659025.642134
-53447.310000	-141366.375000	18116.055000	-1884.690000	-1912.320000	5415.030000	-549.090000	9415.440000	-2.770607	2.506058	3.355264	3.501289	3.143390	3.470609	-3.442603	-13.173528	0.610400	6.149780	-2.868880	0.855833	0.184753	0.447326	-1.000000	-1.000000	-1.000000	-1.000000	-1.000000	-1.000000	-1.000000	81.310345	0.000000	-1.000000	-1.000000	568930.000000	1772659025.642143
-53423.595000	-141343.560000	18141.570000	-1856.070000	-1880.955000	5432.805000	-557.280000	9434.520000	-5.247962	-0.041533	1.581124	2.041536	1.178134	1.155697	-3.183148	-11.552917	-2.502640	5.783540	-2.624720	0.855222	0.185730	0.449340	-1.000000	-1.000000	-1.000000	-1.000000	-1.000000	-1.000000	-1.000000	81.310345	0.000000	-1.000000	-1.000000	568931.000000	1772659025.647633
-53397.900000	-141313.320000	18175.185000	-1821.105000	-1847.385000	5460.165000	-545.130000	9457.785000	-1.159174	1.852795	3.517114	4.137348	3.126177	1.723531	-0.676710	-1.009925	-2.502640	5.783540	-2.624720	0.855222	0.185730	0.449340	-1.000000	-1.000000	-1.000000	-1.000000	-1.000000	-1.000000	-1.000000	81.310345	0.000000	-1.000000	-1.000000	568932.000000	1772659025.647642
-53326.845000	-141242.670000	18244.845000	-1754.190000	-1786.005000	5519.205000	-499.095000	9534.285000	9.630709	10.324438	11.586231	12.198685	11.155130	7.525209	4.669089	14.712937	-2.502640	5.783540	-2.624720	0.855222	0.185730	0.449340	-1.000000	-1.000000	-1.000000	-1.000000	-1.000000	-1.000000	-1.000000	81.310345	0.000000	-1.000000	-1.000000	568933.000000	1772659025.650138
-53413.965000	-141297.075000	18196.245000	-1798.560000	-1827.405000	5480.010000	-556.830000	9373.410000	19.163269	19.231652	20.091381	20.533897	19.321403	14.294491	10.025145	24.568845	-2.502640	5.783540	-2.624720	0.855222	0.185730	0.449340	-1.000000	-1.000000	-1.000000	-1.000000	-1.000000	-1.000000	-1.000000	81.310345	0.000000	-1.000000	-1.000000	568934.000000	1772659025.650146
-53495.955000	-141382.440000	18111.330000	-1881.990000	-1902.555000	5416.605000	-596.385000	9306.855000	15.150268	16.488508	17.029988	17.229516	16.086021	12.350415	9.213474	16.038576	-2.502640	5.783540	-2.624720	0.855222	0.185730	0.449340	-1.000000	-1.000000	-1.000000	-1.000000	-1.000000	-1.000000	-1.000000	81.310345	0.000000	-1.000000	-1.000000	568935.000000	1772659025.654277
-53476.290000	-141386.895000	18108.630000	-1886.355000	-1910.340000	5408.190000	-585.270000	9376.110000	-5.716054	-3.546140	-3.463803	-3.492491	-3.705929	-3.240622	-0.458880	-9.422573	-2.502640	5.783540	-2.624720	0.855222	0.185730	0.449340	-1.000000	-1.000000	-1.000000	-1.000000	-1.000000	-1.000000	-1.000000	81.310345	0.000000	-1.000000	-1.000000	568936.000000	1772659025.654283
-53448.480000	-141370.335000	18121.320000	-1876.680000	-1905.120000	5407.830000	-583.695000	9393.345000	-29.181095	-29.446077	-30.086012	-30.392591	-29.182523	-24.018885	-12.913909	-31.768303	-2.502640	5.783540	-2.624720	0.855222	0.185730	0.449340	-1.000000	-1.000000	-1.000000	-1.000000	-1.000000	-1.000000	-1.000000	81.310345	0.000000	-1.000000	-1.000000	568937.000000	1772659025.658001
-53424.765000	-141339.555000	18144.495000	-1857.465000	-1887.435000	5427.000000	-563.940000	9410.265000	-36.220853	-41.433643	-42.966515	-43.697951	-41.743802	-34.683868	-18.893915	-33.204916	-2.502640	5.783540	-2.624720	0.855222	0.185730	0.449340	-1.000000	-1.000000	-1.000000	-1.000000	-1.000000	-1.000000	-1.000000	81.310345	0.000000	-1.000000	-1.000000	568938.000000	1772659025.658006
-53422.380000	-141337.665000	18146.655000	-1856.565000	-1886.760000	5430.330000	-547.425000	9426.015000	-21.702564	-30.325903	-32.671440	-33.890909	-32.423366	-27.143617	-13.757607	-14.412312	-2.502640	5.783540	-2.624720	0.855222	0.185730	0.449340	-1.000000	-1.000000	-1.000000	-1.000000	-1.000000	-1.000000	-1.000000	81.310345	0.000000	-1.000000	-1.000000	568939.000000	1772659025.662172
-53444.520000	-141358.320000	18129.330000	-1871.235000	-1900.305000	5416.065000	-573.120000	9385.920000	3.411460	-4.239098	-6.880491	-8.369452	-8.143118	-6.301384	-0.131164	10.830906	-2.502640	5.783540	-2.624720	0.855222	0.185730	0.449340	-1.000000	-1.000000	-1.000000	-1.000000	-1.000000	-1.000000	-1.000000	81.310345	0.000000	-1.000000	-1.000000	568940.000000	1772659025.662179
-53441.955000	-141352.155000	18141.570000	-1855.215000	-1882.845000	5429.160000	-586.440000	9380.385000	22.789338	19.964477	18.058330	16.915386	16.049789	15.041108	13.062953	26.471331	-1.770160	6.775440	-3.052000	0.854734	0.187194	0.452086	-1.000000	-1.000000	-1.000000	-1.000000	-1.000000	-1.000000	-1.000000	81.310345	0.000000	-1.000000	-1.000000	568941.000000	1772659025.670425
-53424.900000	-141337.845000	18156.690000	-1840.095000	-1866.870000	5444.325000	-577.395000	9402.570000	26.758561	29.777747	29.731963	29.727328	28.624425	26.055093	17.279266	24.931275	-1.770160	6.775440	-3.052000	0.854734	0.187194	0.452086	-1.000000	-1.000000	-1.000000	-1.000000	-1.000000	-1.000000	-1.000000	81.310345	0.000000	-1.000000	-1.000000	568942.000000	1772659025.670430
-53427.420000	-141338.745000	18152.910000	-1846.305000	-1872.045000	5444.010000	-555.975000	9418.500000	18.680778	25.108245	27.137569	28.487292	27.954742	24.866408	12.836660	14.094255	-1.770160	6.775440	-3.052000	0.854734	0.187194	0.452086	-1.000000	-1.000000	-1.000000	-1.000000	-1.000000	-1.000000	-1.000000	81.310345	0.000000	-1.000000	-1.000000	568943.000000	1772659025.670611
-53439.120000	-141348.690000	18141.705000	-1859.580000	-1887.480000	5427.990000	-557.505000	9413.910000	8.798002	14.711837	17.641100	19.557024	19.665976	16.786133	6.762324	6.763445	-1.770160	6.775440	-3.052000	0.854734	0.187194	0.452086	-1.000000	-1.000000	-1.000000	-1.000000	-1.000000	-1.000000	-1.000000	81.310345	0.000000	-1.000000	-1.000000	568944.000000	1772659025.670618
-53424.405000	-141336.000000	18155.970000	-1843.785000	-1873.125000	5442.390000	-539.820000	9424.125000	2.309727	5.677059	7.873698	9.258819	9.527496	7.338653	3.051530	4.405710	-1.770160	6.775440	-3.052000	0.854734	0.187194	0.452086	-1.000000	-1.000000	-1.000000	-1.000000	-1.000000	-1.000000	-1.000000	81.310345	0.000000	-1.000000	-1.000000	568945.000000	1772659025.674186
-53406.315000	-141325.290000	18164.295000	-1835.190000	-1865.115000	5449.770000	-529.335000	9437.310000	-2.108266	-0.731012	-0.043197	0.394978	0.486735	-0.719789	0.538555	0.404774	-1.770160	6.775440	-3.052000	0.854734	0.187194	0.452086	-1.000000	-1.000000	-1.000000	-1.000000	-1.000000	-1.000000	-1.000000	81.310345	0.000000	-1.000000	-1.000000	568946.000000	1772659025.674196
-53366.850000	-141301.755000	18182.475000	-1818.450000	-1848.420000	5467.860000	-509.130000	9520.155000	-5.771738	-5.588156	-6.066010	-6.191838	-6.203071	-6.332435	-2.481261	-6.531215	-1.770160	6.775440	-3.052000	0.854734	0.187194	0.452086	-1.000000	-1.000000	-1.000000	-1.000000	-1.000000	-1.000000	-1.000000	81.310345	0.000000	-1.000000	-1.000000	568947.000000	1772659025.679680
-53284.680000	-141216.030000	18268.830000	-1731.555000	-1760.445000	5549.895000	-443.970000	9651.645000	-6.431422	-7.761009	-8.721482	-8.898414	-8.805919	-8.057129	-4.860368	-9.124929	-1.770160	6.775440	-3.052000	0.854734	0.187194	0.452086	-1.000000	-1.000000	-1.000000	-1.000000	-1.000000	-1.000000	-1.000000	81.310345	0.000000	-1.000000	-1.000000	568948.000000	1772659025.679689
-53409.330000	-141274.890000	18235.215000	-1756.980000	-1783.980000	5519.295000	-518.895000	9432.000000	-3.173479	-5.324440	-6.075797	-6.109609	-5.846759	-4.772622	-4.560158	-4.022184	-1.770160	6.775440	-3.052000	0.854734	0.187194	0.452086	-1.000000	-1.000000	-1.000000	-1.000000	-1.000000	-1.000000	-1.000000	81.310345	0.000000	-1.000000	-1.000000	568949.000000	1772659025.683704
-53481.690000	-141336.045000	18169.785000	-1825.920000	-1849.320000	5464.350000	-568.800000	9274.230000	-3.372260	-2.878245	-2.535852	-2.455237	-2.051687	-1.154695	-4.527729	-4.257944	-1.770160	6.775440	-3.052000	0.854734	0.187194	0.452086	-1.000000	-1.000000	-1.000000	-1.000000	-1.000000	-1.000000	-1.000000	81.310345	0.000000	-1.000000	-1.000000	568950.000000	1772659025.683710
-53499.735000	-141387.930000	18107.955000	-1894.140000	-1918.575000	5399.370000	-619.290000	9259.605000	-13.364276	-8.043206	-6.494684	-6.586330	-6.103978	-5.207558	-9.811953	-21.453304	-1.876980	6.332900	-2.426340	0.857481	0.187500	0.453734	-1.000000	-1.000000	-1.000000	-1.000000	-1.000000	-1.000000	-1.000000	81.310345	0.000000	-1.000000	-1.000000	568951.000000	1772659025.687618
-53470.845000	-141397.155000	18096.120000	-1904.985000	-1930.905000	5386.860000	-617.220000	9343.395000	-24.940522	-18.959430	-17.639169	-18.376760	-18.065306	-16.727508	-18.463900	-41.485203	-1.876980	6.332900	-2.426340	0.857481	0.187500	0.453734	-1.000000	-1.000000	-1.000000	-1.000000	-1.000000	-1.000000	-1.000000	81.310345	0.000000	-1.000000	-1.000000	568952.000000	1772659025.687626
-53472.465000	-141408.045000	18074.520000	-1925.370000	-1948.500000	5376.915000	-595.530000	9369.180000	-23.975137	-24.936699	-25.612158	-27.013493	-27.169138	-25.509928	-21.870962	-39.241696	-1.876980	6.332900	-2.426340	0.857481	0.187500	0.453734	-1.000000	-1.000000	-1.000000	-1.000000	-1.000000	-1.000000	-1.000000	81.310345	0.000000	-1.000000	-1.000000	568953.000000	1772659025.690916
-53465.220000	-141393.285000	18085.005000	-1912.770000	-1935.765000	5386.995000	-578.880000	9380.160000	-7.648459	-18.441956	-21.708007	-23.062185	-23.574129	-22.131473	-13.619947	-9.214746	-1.876980	6.332900	-2.426340	0.857481	0.187500	0.453734	-1.000000	-1.000000	-1.000000	-1.000000	-1.000000	-1.000000	-1.000000	81.310345	0.000000	-1.000000	-1.000000	568954.000000	1772659025.690926
-53445.015000	-141368.850000	18115.920000	-1878.345000	-1902.105000	5416.560000	-567.090000	9402.435000	14.066838	-1.205215	-5.821909	-6.207568	-6.638419	-6.056579	3.964775	30.262296	-1.876980	6.332900	-2.426340	0.857481	0.187500	0.453734	-1.000000	-1.000000	-1.000000	-1.000000	-1.000000	-1.000000	-1.000000	81.310345	0.000000	-1.000000	-1.000000	568955.000000	1772659025.694677
-53433.855000	-141350.895000	18139.230000	-1857.330000	-1881.945000	5433.705000	-567.450000	9399.690000	28.524792	18.180496	14.974904	16.009433	15.885739	14.991444	21.187741	54.254274	-1.876980	6.332900	-2.426340	0.857481	0.187500	0.453734	-1.000000	-1.000000	-1.000000	-1.000000	-1.000000	-1.000000	-1.000000	81.310345	0.000000	-1.000000	-1.000000	568956.000000	1772659025.694686
-53419.635000	-141340.725000	18151.290000	-1846.215000	-1869.795000	5443.695000	-569.610000	9406.755000	29.442216	30.010646	30.509997	32.442377	32.445179	30.083696	28.553549	50.040990	-1.876980	6.332900	-2.426340	0.857481	0.187500	0.453734	-1.000000	-1.000000	-1.000000	-1.000000	-1.000000	-1.000000	-1.000000	81.310345	0.000000	-1.000000	-1.000000	568957.000000	1772659025.697966
-53439.930000	-141359.895000	18137.610000	-1860.345000	-1886.850000	5429.070000	-569.655000	9405.810000	20.706757	30.071218	33.975342	35.475968	35.239552	32.402828	24.576878	27.568485	-1.876980	6.332900	-2.426340	0.857481	0.187500	0.453734	-1.000000	-1.000000	-1.000000	-1.000000	-1.000000	-1.000000	-1.000000	81.310345	0.000000	-1.000000	-1.000000	568958.000000	1772659025.697973
-53454.555000	-141379.110000	18115.965000	-1886.490000	-1916.055000	5402.655000	-571.230000	9405.495000	10.625599	21.243401	26.143326	26.115981	25.331298	23.310067	15.387876	8.045304	-1.876980	6.332900	-2.426340	0.857481	0.187500	0.453734	-1.000000	-1.000000	-1.000000	-1.000000	-1.000000	-1.000000	-1.000000	81.310345	0.000000	-1.000000	-1.000000	568959.000000	1772659025.707119
-53437.995000	-141356.565000	18137.745000	-1862.145000	-1889.055000	5430.735000	-549.405000	9418.230000	3.017445	9.462502	13.101831	11.618225	10.317412	9.743447	7.170367	0.279346	-1.876980	6.332900	-2.426340	0.857481	0.187500	0.453734	-1.000000	-1.000000	-1.000000	-1.000000	-1.000000	-1.000000	-1.000000	81.310345	0.000000	-1.000000	-1.000000	568960.000000	1772659025.707126
-53422.380000	-141339.465000	18151.650000	-1841.940000	-1864.305000	5452.200000	-543.780000	9429.660000	-2.891512	-0.032524	1.456441	-0.282951	-1.434045	-0.844816	1.452819	-3.621803	-2.060100	5.875100	-2.258480	0.859861	0.186950	0.453246	-1.000000	-1.000000	-1.000000	-1.000000	-1.000000	-1.000000	-1.000000	81.310345	0.000000	-1.000000	-1.000000	568961.000000	1772659025.707135
-53381.520000	-141310.620000	18170.775000	-1822.095000	-1845.630000	5468.760000	-526.815000	9482.985000	-7.710680	-5.111912	-5.599453	-6.194830	-6.243053	-5.351655	-3.851440	-11.926215	-2.060100	5.875100	-2.258480	0.859861	0.186950	0.453246	-1.000000	-1.000000	-1.000000	-1.000000	-1.000000	-1.000000	-1.000000	81.310345	0.000000	-1.000000	-1.000000	568962.000000	1772659025.707139
-53400.870000	-141318.315000	18163.080000	-1835.145000	-1861.380000	5455.395000	-531.720000	9441.360000	-10.969270	-7.504518	-9.407654	-8.455711	-7.083429	-6.594389	-10.486871	-23.118804	-2.060100	5.875100	-2.258480	0.859861	0.186950	0.453246	-1.000000	-1.000000	-1.000000	-1.000000	-1.000000	-1.000000	-1.000000	81.310345	0.000000	-1.000000	-1.000000	568963.000000	1772659025.710236
