Channel1	Channel2	Channel3	Channel4	Channel5	Channel6	Channel7	Channel8	FilteredChannel1	FilteredChannel2	FilteredChannel3	FilteredChannel4	FilteredChannel5	FilteredChannel6	FilteredChannel7	FilteredChannel8	GyroX	GyroY	GyroZ	AccX	AccY	AccZ	PPG1	PPG2	rawPPG1	rawPPG2	rawPPG3	Hr	Hrv	Battery	Trigger	PhysicalTrigger	AutoTrigger	NumMeasurements	Timestamp
11330.460000	-6895.845000	14329.890000	14184.540000	-21425.940000	-14946.300000	7960.815000	12108.330000	-0.493397	-0.380447	-0.582566	-0.819226	-0.704401	-1.027158	-2.290133	-6.527481	-1.968540	2.044840	-1.205540	0.873716	-0.022827	0.460997	-1.000000	-1.000000	-1.000000	-1.000000	-1.000000	-1.000000	-1.000000	65.034483	0.000000	-1.000000	-1.000000	1889009.000000	1773691335.269389
11341.080000	-6896.790000	14329.260000	14189.310000	-21416.085000	-14935.815000	7979.940000	12127.050000	1.751130	3.975677	3.895945	3.413869	3.512694	2.515360	-3.253586	-5.108967	-1.968540	2.044840	-1.205540	0.873716	-0.022827	0.460997	-1.000000	-1.000000	-1.000000	-1.000000	-1.000000	-1.000000	-1.000000	65.034483	0.000000	-1.000000	-1.000000	1889010.000000	1773691335.269400
11335.995000	-6890.940000	14334.795000	14192.190000	-21420.900000	-14945.895000	7972.380000	12116.790000	3.083301	5.335131	5.535704	5.334203	5.779294	4.821104	-1.402275	-0.949133	-0.885080	2.823100	-1.632820	0.874143	-0.022278	0.460387	-1.000000	-1.000000	-1.000000	-1.000000	-1.000000	-1.000000	-1.000000	65.034483	0.000000	-1.000000	-1.000000	1889011.000000	1773691335.282227
11342.880000	-6867.990000	14356.800000	14210.145000	-21411.810000	-14949.720000	7952.805000	12102.525000	2.934416	4.103104	4.510033	4.698578	5.392471	4.753920	1.801307	3.219811	-0.885080	2.823100	-1.632820	0.874143	-0.022278	0.460387	-1.000000	-1.000000	-1.000000	-1.000000	-1.000000	-1.000000	-1.000000	65.034483	0.000000	-1.000000	-1.000000	1889012.000000	1773691335.282242
11342.745000	-6862.320000	14359.905000	14211.495000	-21409.830000	-14955.615000	7935.390000	12096.855000	1.717005	2.749578	3.077909	3.198171	3.430388	2.738395	2.565040	4.317663	-0.885080	2.823100	-1.632820	0.874143	-0.022278	0.460387	-1.000000	-1.000000	-1.000000	-1.000000	-1.000000	-1.000000	-1.000000	65.034483	0.000000	-1.000000	-1.000000	1889013.000000	1773691335.283453
11323.395000	-6900.525000	14320.170000	14177.385000	-21425.400000	-14954.400000	7956.900000	12103.245000	0.361186	2.361147	2.361683	2.024052	1.439596	0.206368	-0.320439	2.233729	-0.885080	2.823100	-1.632820	0.874143	-0.022278	0.460387	-1.000000	-1.000000	-1.000000	-1.000000	-1.000000	-1.000000	-1.000000	65.034483	0.000000	-1.000000	-1.000000	1889014.000000	1773691335.283464
11313.900000	-6925.680000	14293.170000	14151.645000	-21445.560000	-14967.000000	7994.160000	12110.760000	-0.943596	0.963925	0.573835	0.030776	-0.578555	-1.779254	-3.155811	-0.253928	-0.885080	2.823100	-1.632820	0.874143	-0.022278	0.460387	-1.000000	-1.000000	-1.000000	-1.000000	-1.000000	-1.000000	-1.000000	65.034483	0.000000	-1.000000	-1.000000	1889015.000000	1773691335.283474
11307.780000	-6925.635000	14292.180000	14146.830000	-21456.000000	-14977.890000	7990.650000	12099.825000	-2.451241	-3.220129	-3.910231	-4.090335	-3.533845	-3.112149	-1.634333	-0.828792	-0.885080	2.823100	-1.632820	0.874143	-0.022278	0.460387	-1.000000	-1.000000	-1.000000	-1.000000	-1.000000	-1.000000	-1.000000	65.034483	0.000000	-1.000000	-1.000000	1889016.000000	1773691335.283479
11314.305000	-6923.070000	14296.095000	14151.105000	-21455.145000	-14977.710000	7987.005000	12102.030000	-3.733692	-8.176407	-8.972164	-8.634163	-6.733770	-3.825509	3.430515	0.020852	-0.885080	2.823100	-1.632820	0.874143	-0.022278	0.460387	-1.000000	-1.000000	-1.000000	-1.000000	-1.000000	-1.000000	-1.000000	65.034483	0.000000	-1.000000	-1.000000	1889017.000000	1773691335.286916
11314.710000	-6923.025000	14300.550000	14158.530000	-21446.865000	-14967.090000	7976.025000	12108.420000	-3.945621	-9.896969	-10.439647	-9.934960	-7.763075	-3.380322	6.873833	0.355664	-0.885080	2.823100	-1.632820	0.874143	-0.022278	0.460387	-1.000000	-1.000000	-1.000000	-1.000000	-1.000000	-1.000000	-1.000000	65.034483	0.000000	-1.000000	-1.000000	1889018.000000	1773691335.286922
11329.740000	-6911.055000	14316.120000	14174.685000	-21430.530000	-14954.040000	7974.315000	12120.705000	-2.575871	-6.381496	-6.173433	-5.926289	-4.837956	-1.160451	4.888082	-0.456044	-0.885080	2.823100	-1.632820	0.874143	-0.022278	0.460387	-1.000000	-1.000000	-1.000000	-1.000000	-1.000000	-1.000000	-1.000000	65.034483	0.000000	-1.000000	-1.000000	1889019.000000	1773691335.289333
11329.920000	-6907.770000	14317.155000	14173.965000	-21431.565000	-14956.335000	7974.945000	12110.985000	0.343885	0.811677	2.029081	1.873720	1.368759	2.660199	-1.241668	-1.235390	-0.885080	2.823100	-1.632820	0.874143	-0.022278	0.460387	-1.000000	-1.000000	-1.000000	-1.000000	-1.000000	-1.000000	-1.000000	65.034483	0.000000	-1.000000	-1.000000	1889020.000000	1773691335.289392
11326.545000	-6904.035000	14319.180000	14176.620000	-21429.765000	-14956.380000	7974.360000	12105.585000	3.682876	7.608424	9.430729	9.106519	7.688222	6.570389	-6.614974	-0.906605	1.190280	3.418240	-1.876980	0.873716	-0.021912	0.461058	-1.000000	-1.000000	-1.000000	-1.000000	-1.000000	-1.000000	-1.000000	65.034483	0.000000	-1.000000	-1.000000	1889021.000000	1773691335.294584
11325.960000	-6901.515000	14319.720000	14175.855000	-21429.720000	-14952.555000	7975.845000	12105.810000	5.661158	10.714719	12.245874	12.110381	10.713906	8.404653	-7.527434	0.221621	1.190280	3.418240	-1.876980	0.873716	-0.021912	0.461058	-1.000000	-1.000000	-1.000000	-1.000000	-1.000000	-1.000000	-1.000000	65.034483	0.000000	-1.000000	-1.000000	1889022.000000	1773691335.294595
11327.580000	-6897.870000	14322.780000	14178.915000	-21422.205000	-14941.035000	7981.605000	12091.455000	5.729344	10.343498	10.836398	10.921831	9.627707	7.152773	-4.582042	0.927923	1.190280	3.418240	-1.876980	0.873716	-0.021912	0.461058	-1.000000	-1.000000	-1.000000	-1.000000	-1.000000	-1.000000	-1.000000	65.034483	0.000000	-1.000000	-1.000000	1889023.000000	1773691335.297302
11321.325000	-6898.815000	14321.610000	14176.755000	-21427.380000	-14953.275000	7981.020000	12089.205000	4.508092	8.395623	7.699485	7.703397	6.045673	3.570328	-1.131773	0.234839	1.190280	3.418240	-1.876980	0.873716	-0.021912	0.461058	-1.000000	-1.000000	-1.000000	-1.000000	-1.000000	-1.000000	-1.000000	65.034483	0.000000	-1.000000	-1.000000	1889024.000000	1773691335.297313
11317.095000	-6894.090000	14329.080000	14184.585000	-21421.755000	-14956.020000	7971.480000	12092.445000	2.220271	5.290060	3.864575	3.634702	1.733296	-0.961332	0.564649	-1.265691	1.190280	3.418240	-1.876980	0.873716	-0.021912	0.461058	-1.000000	-1.000000	-1.000000	-1.000000	-1.000000	-1.000000	-1.000000	65.034483	0.000000	-1.000000	-1.000000	1889025.000000	1773691335.301125
11316.375000	-6897.600000	14329.620000	14187.960000	-21417.210000	-14954.850000	7967.880000	12103.695000	-1.203825	0.491464	-0.892786	-1.139592	-2.348588	-5.230794	0.759553	-1.864127	1.190280	3.418240	-1.876980	0.873716	-0.021912	0.461058	-1.000000	-1.000000	-1.000000	-1.000000	-1.000000	-1.000000	-1.000000	65.034483	0.000000	-1.000000	-1.000000	1889026.000000	1773691335.301137
11332.800000	-6881.715000	14344.380000	14197.860000	-21421.215000	-14961.780000	7954.740000	12110.895000	-4.812129	-5.188979	-5.954406	-6.016500	-5.820680	-8.331825	0.593607	-0.828341	1.190280	3.418240	-1.876980	0.873716	-0.021912	0.461058	-1.000000	-1.000000	-1.000000	-1.000000	-1.000000	-1.000000	-1.000000	65.034483	0.000000	-1.000000	-1.000000	1889027.000000	1773691335.309536
11359.080000	-6863.130000	14359.860000	14208.435000	-21416.715000	-14958.855000	7959.780000	12109.050000	-6.380025	-9.279058	-9.455509	-9.546994	-8.432755	-9.582539	0.736408	1.012136	1.190280	3.418240	-1.876980	0.873716	-0.021912	0.461058	-1.000000	-1.000000	-1.000000	-1.000000	-1.000000	-1.000000	-1.000000	65.034483	0.000000	-1.000000	-1.000000	1889028.000000	1773691335.309547
11346.705000	-6887.745000	14335.920000	14187.780000	-21424.500000	-14959.215000	7964.730000	12109.860000	-4.494909	-10.121668	-10.141266	-10.563135	-9.433251	-8.140544	1.607111	2.556538	1.190280	3.418240	-1.876980	0.873716	-0.021912	0.461058	-1.000000	-1.000000	-1.000000	-1.000000	-1.000000	-1.000000	-1.000000	65.034483	0.000000	-1.000000	-1.000000	1889029.000000	1773691335.309858
11318.805000	-6913.890000	14313.060000	14170.095000	-21425.535000	-14950.395000	7973.730000	12113.010000	-0.992979	-8.993481	-9.011186	-9.470857	-8.040844	-3.668766	3.402384	3.348251	1.190280	3.418240	-1.876980	0.873716	-0.021912	0.461058	-1.000000	-1.000000	-1.000000	-1.000000	-1.000000	-1.000000	-1.000000	65.034483	0.000000	-1.000000	-1.000000	1889030.000000	1773691335.310002
11310.030000	-6929.595000	14293.485000	14149.170000	-21443.220000	-14965.065000	7969.365000	12106.530000	0.682042	-7.883376	-7.615500	-7.376893	-4.570448	2.201848	5.159283	3.173090	0.000000	3.235120	-2.182180	0.871641	-0.019348	0.462645	-1.000000	-1.000000	-1.000000	-1.000000	-1.000000	-1.000000	-1.000000	65.034483	0.000000	-1.000000	-1.000000	1889031.000000	1773691335.313131
11316.780000	-6922.845000	14297.445000	14151.285000	-21446.280000	-14974.110000	7957.305000	12112.470000	-0.236563	-6.301945	-5.627942	-4.431000	-0.441130	6.270069	4.710568	1.946718	0.000000	3.235120	-2.182180	0.871641	-0.019348	0.462645	-1.000000	-1.000000	-1.000000	-1.000000	-1.000000	-1.000000	-1.000000	65.034483	0.000000	-1.000000	-1.000000	1889032.000000	1773691335.313141
11329.650000	-6903.495000	14316.840000	14168.340000	-21430.665000	-14956.380000	7963.425000	12122.685000	-1.170617	-2.196312	-1.503660	0.048369	3.277482	6.962370	1.157157	0.332027	0.000000	3.235120	-2.182180	0.871641	-0.019348	0.462645	-1.000000	-1.000000	-1.000000	-1.000000	-1.000000	-1.000000	-1.000000	65.034483	0.000000	-1.000000	-1.000000	1889033.000000	1773691335.322994
11332.125000	-6890.220000	14332.005000	14182.470000	-21415.365000	-14934.915000	7981.380000	12115.800000	0.249796	4.896782	5.093908	6.041173	6.580956	6.031692	-2.948147	-0.976016	0.000000	3.235120	-2.182180	0.871641	-0.019348	0.462645	-1.000000	-1.000000	-1.000000	-1.000000	-1.000000	-1.000000	-1.000000	65.034483	0.000000	-1.000000	-1.000000	1889034.000000	1773691335.323005
11331.000000	-6903.675000	14319.585000	14171.580000	-21429.090000	-14946.300000	7976.610000	12107.520000	3.259955	12.100356	11.623600	11.358843	8.871100	5.342376	-4.057920	-2.512186	0.000000	3.235120	-2.182180	0.871641	-0.019348	0.462645	-1.000000	-1.000000	-1.000000	-1.000000	-1.000000	-1.000000	-1.000000	65.034483	0.000000	-1.000000	-1.000000	1889035.000000	1773691335.323017
11330.145000	-6916.185000	14307.030000	14162.715000	-21436.245000	-14951.835000	7979.355000	12117.195000	4.759116	14.432938	13.570881	12.369514	8.241291	4.074660	-1.709626	-4.718393	0.000000	3.235120	-2.182180	0.871641	-0.019348	0.462645	-1.000000	-1.000000	-1.000000	-1.000000	-1.000000	-1.000000	-1.000000	65.034483	0.000000	-1.000000	-1.000000	1889036.000000	1773691335.323022
11334.060000	-6901.380000	14323.590000	14181.030000	-21418.830000	-14949.270000	7971.840000	12114.585000	2.737039	9.494824	8.864832	7.819889	4.183430	0.928323	1.397428	-6.112010	0.000000	3.235120	-2.182180	0.871641	-0.019348	0.462645	-1.000000	-1.000000	-1.000000	-1.000000	-1.000000	-1.000000	-1.000000	65.034483	0.000000	-1.000000	-1.000000	1889037.000000	1773691335.325258
11324.655000	-6909.840000	14314.320000	14172.390000	-21415.140000	-14928.840000	7975.125000	12105.810000	-1.283711	0.912359	1.048224	1.088636	-0.684990	-2.994467	2.359750	-5.016588	0.000000	3.235120	-2.182180	0.871641	-0.019348	0.462645	-1.000000	-1.000000	-1.000000	-1.000000	-1.000000	-1.000000	-1.000000	65.034483	0.000000	-1.000000	-1.000000	1889038.000000	1773691335.325269
11332.395000	-6895.215000	14327.910000	14183.730000	-21396.465000	-14909.670000	7976.790000	12102.210000	-3.608406	-4.930823	-4.040662	-3.089182	-3.066013	-4.935880	0.517261	-1.884751	0.000000	3.235120	-2.182180	0.871641	-0.019348	0.462645	-1.000000	-1.000000	-1.000000	-1.000000	-1.000000	-1.000000	-1.000000	65.034483	0.000000	-1.000000	-1.000000	1889039.000000	1773691335.329278
11324.430000	-6877.800000	14346.630000	14200.245000	-21385.440000	-14907.465000	7975.350000	12096.585000	-2.254740	-4.561266	-3.393512	-2.571896	-1.717165	-3.351229	-2.448900	1.554018	0.000000	3.235120	-2.182180	0.871641	-0.019348	0.462645	-1.000000	-1.000000	-1.000000	-1.000000	-1.000000	-1.000000	-1.000000	65.034483	0.000000	-1.000000	-1.000000	1889040.000000	1773691335.329303
11292.480000	-6873.030000	14357.970000	14211.720000	-21396.600000	-14949.540000	7959.420000	12083.265000	0.586245	0.268847	1.352550	1.188595	1.564448	-0.217731	-4.486675	3.677570	-3.021480	3.372460	-1.327620	0.872068	-0.015137	0.463866	-1.000000	-1.000000	-1.000000	-1.000000	-1.000000	-1.000000	-1.000000	65.241379	0.000000	-1.000000	-1.000000	1889041.000000	1773691335.333596
11323.485000	-6864.255000	14367.780000	14218.290000	-21405.195000	-14955.165000	7948.800000	12094.605000	1.359505	4.324861	5.287711	4.133705	2.669965	0.056735	-5.023038	3.666492	-3.021480	3.372460	-1.327620	0.872068	-0.015137	0.463866	-1.000000	-1.000000	-1.000000	-1.000000	-1.000000	-1.000000	-1.000000	65.241379	0.000000	-1.000000	-1.000000	1889042.000000	1773691335.333605
11373.435000	-6861.690000	14366.745000	14216.805000	-21400.200000	-14932.620000	7979.670000	12127.005000	0.724000	3.729214	4.380438	2.838584	-0.836958	-3.794567	-4.172880	2.851991	-3.021480	3.372460	-1.327620	0.872068	-0.015137	0.463866	-1.000000	-1.000000	-1.000000	-1.000000	-1.000000	-1.000000	-1.000000	65.241379	0.000000	-1.000000	-1.000000	1889043.000000	1773691335.338703
11370.510000	-6892.155000	14336.280000	14192.235000	-21410.055000	-14933.430000	7976.205000	12121.785000	2.052616	-1.258603	-1.501245	-2.701940	-6.586041	-7.386255	-1.250624	3.434979	-3.021480	3.372460	-1.327620	0.872068	-0.015137	0.463866	-1.000000	-1.000000	-1.000000	-1.000000	-1.000000	-1.000000	-1.000000	65.241379	0.000000	-1.000000	-1.000000	1889044.000000	1773691335.338716
11355.255000	-6920.460000	14303.970000	14159.835000	-21447.765000	-14985.630000	7972.155000	12118.005000	4.634011	-8.254112	-9.805444	-10.039954	-10.621258	-6.897194	3.369788	4.815451	-3.021480	3.372460	-1.327620	0.872068	-0.015137	0.463866	-1.000000	-1.000000	-1.000000	-1.000000	-1.000000	-1.000000	-1.000000	65.241379	0.000000	-1.000000	-1.000000	1889045.000000	1773691335.341400
11318.535000	-6931.890000	14290.920000	14146.245000	-21457.980000	-15003.405000	7972.515000	12114.180000	3.970380	-14.393331	-16.995142	-16.099629	-11.671743	-4.132533	7.052098	4.393873	-3.021480	3.372460	-1.327620	0.872068	-0.015137	0.463866	-1.000000	-1.000000	-1.000000	-1.000000	-1.000000	-1.000000	-1.000000	65.241379	0.000000	-1.000000	-1.000000	1889046.000000	1773691335.341414
11303.595000	-6930.045000	14289.435000	14142.465000	-21456.090000	-14987.205000	7972.560000	12114.630000	-1.831430	-15.985720	-18.810869	-17.343743	-9.851237	-2.175137	7.457904	1.429111	-3.021480	3.372460	-1.327620	0.872068	-0.015137	0.463866	-1.000000	-1.000000	-1.000000	-1.000000	-1.000000	-1.000000	-1.000000	65.241379	0.000000	-1.000000	-1.000000	1889047.000000	1773691335.345352
11302.245000	-6920.775000	14300.055000	14151.870000	-21447.495000	-14977.215000	7976.430000	12107.835000	-9.344055	-10.483956	-12.497840	-11.339863	-4.739480	-0.461236	4.519017	-2.470958	-3.021480	3.372460	-1.327620	0.872068	-0.015137	0.463866	-1.000000	-1.000000	-1.000000	-1.000000	-1.000000	-1.000000	-1.000000	65.241379	0.000000	-1.000000	-1.000000	1889048.000000	1773691335.345362
11305.890000	-6912.315000	14313.960000	14166.945000	-21434.490000	-14968.755000	7974.945000	12093.660000	-12.736036	0.476522	0.149408	0.501689	3.305324	3.407164	0.210208	-5.460536	-3.021480	3.372460	-1.327620	0.872068	-0.015137	0.463866	-1.000000	-1.000000	-1.000000	-1.000000	-1.000000	-1.000000	-1.000000	65.241379	0.000000	-1.000000	-1.000000	1889049.000000	1773691335.349406
11318.310000	-6904.485000	14322.195000	14175.585000	-21432.240000	-14974.335000	7970.580000	12098.745000	-8.573403	11.724585	13.356311	13.086403	12.056590	9.756096	-2.940937	-6.595338	-3.021480	3.372460	-1.327620	0.872068	-0.015137	0.463866	-1.000000	-1.000000	-1.000000	-1.000000	-1.000000	-1.000000	-1.000000	65.241379	0.000000	-1.000000	-1.000000	1889050.000000	1773691335.349417
11331.270000	-6893.235000	14332.455000	14185.305000	-21422.295000	-14957.955000	7977.015000	12109.635000	0.858432	18.143169	21.083609	20.752631	17.980316	15.381207	-3.826728	-5.696604	-3.906560	3.189340	-0.900340	0.870298	-0.015503	0.467101	-1.000000	-1.000000	-1.000000	-1.000000	-1.000000	-1.000000	-1.000000	65.241379	0.000000	-1.000000	-1.000000	1889051.000000	1773691335.355576
11337.030000	-6884.280000	14342.760000	14196.555000	-21411.225000	-14947.245000	7973.100000	12111.705000	9.081685	17.867987	20.883690	20.867356	18.284478	15.995871	-3.344418	-3.344738	-3.906560	3.189340	-0.900340	0.870298	-0.015503	0.467101	-1.000000	-1.000000	-1.000000	-1.000000	-1.000000	-1.000000	-1.000000	65.241379	0.000000	-1.000000	-1.000000	1889052.000000	1773691335.355587
11338.155000	-6884.190000	14341.320000	14195.070000	-21409.470000	-14943.015000	7975.980000	12113.955000	11.432126	12.847676	14.887208	15.054696	13.126562	10.631260	-2.726213	-0.508403	-3.906560	3.189340	-0.900340	0.870298	-0.015503	0.467101	-1.000000	-1.000000	-1.000000	-1.000000	-1.000000	-1.000000	-1.000000	65.241379	0.000000	-1.000000	-1.000000	1889053.000000	1773691335.358604
11330.280000	-6889.140000	14334.705000	14187.780000	-21414.960000	-14950.755000	7971.120000	12099.780000	8.526248	6.236769	6.854432	6.782224	5.174177	2.546632	-2.032997	2.037529	-3.906560	3.189340	-0.900340	0.870298	-0.015503	0.467101	-1.000000	-1.000000	-1.000000	-1.000000	-1.000000	-1.000000	-1.000000	65.241379	0.000000	-1.000000	-1.000000	1889054.000000	1773691335.358615
11326.095000	-6894.270000	14328.540000	14180.760000	-21418.965000	-14951.115000	7974.225000	12101.220000	4.048570	-0.212627	-0.878100	-1.427776	-2.893794	-4.616285	-0.910573	3.587401	-3.906560	3.189340	-0.900340	0.870298	-0.015503	0.467101	-1.000000	-1.000000	-1.000000	-1.000000	-1.000000	-1.000000	-1.000000	65.241379	0.000000	-1.000000	-1.000000	1889055.000000	1773691335.361834
11329.560000	-6892.200000	14333.355000	14185.935000	-21411.180000	-14939.010000	7983.585000	12112.155000	0.946908	-6.025396	-7.391500	-8.215559	-9.531085	-9.731290	0.558504	4.000986	-3.906560	3.189340	-0.900340	0.870298	-0.015503	0.467101	-1.000000	-1.000000	-1.000000	-1.000000	-1.000000	-1.000000	-1.000000	65.241379	0.000000	-1.000000	-1.000000	1889056.000000	1773691335.361844
11330.550000	-6900.165000	14322.240000	14174.280000	-21421.755000	-14944.230000	7981.380000	12114.945000	-0.350445	-10.837623	-12.216444	-12.816468	-13.803285	-12.792565	2.029386	4.106711	-3.906560	3.189340	-0.900340	0.870298	-0.015503	0.467101	-1.000000	-1.000000	-1.000000	-1.000000	-1.000000	-1.000000	-1.000000	65.241379	0.000000	-1.000000	-1.000000	1889057.000000	1773691335.365631
11324.835000	-6899.805000	14322.780000	14174.100000	-21426.840000	-14957.325000	7974.765000	12098.880000	-1.130672	-13.900902	-15.035095	-15.045745	-15.186929	-13.354057	2.926975	4.214226	-3.906560	3.189340	-0.900340	0.870298	-0.015503	0.467101	-1.000000	-1.000000	-1.000000	-1.000000	-1.000000	-1.000000	-1.000000	65.241379	0.000000	-1.000000	-1.000000	1889058.000000	1773691335.365641
11321.010000	-6891.165000	14333.175000	14185.215000	-21420.630000	-14960.295000	7973.595000	12097.440000	-2.913944	-14.032217	-15.060946	-14.514223	-13.355373	-11.171825	2.671680	3.039627	-3.906560	3.189340	-0.900340	0.870298	-0.015503	0.467101	-1.000000	-1.000000	-1.000000	-1.000000	-1.000000	-1.000000	-1.000000	65.241379	0.000000	-1.000000	-1.000000	1889059.000000	1773691335.369418
11336.670000	-6882.030000	14339.925000	14189.535000	-21418.470000	-14950.980000	7975.485000	12112.920000	-6.048950	-10.305592	-11.206862	-10.429645	-8.305471	-6.912081	1.153822	-0.294154	-3.906560	3.189340	-0.900340	0.870298	-0.015503	0.467101	-1.000000	-1.000000	-1.000000	-1.000000	-1.000000	-1.000000	-1.000000	65.241379	0.000000	-1.000000	-1.000000	1889060.000000	1773691335.369429
11349.945000	-6884.910000	14334.255000	14182.200000	-21425.895000	-14957.685000	7968.915000	12124.845000	-8.482596	-3.259968	-3.800989	-3.271421	-1.359071	-1.810850	-1.037560	-4.021795	-2.075360	3.357200	0.656180	0.871275	-0.020081	0.466857	-1.000000	-1.000000	-1.000000	-1.000000	-1.000000	-1.000000	-1.000000	65.241379	0.000000	-1.000000	-1.000000	1889061.000000	1773691335.373772
11339.550000	-6887.430000	14338.485000	14190.255000	-21413.205000	-14945.310000	7972.155000	12113.955000	-7.443181	4.767170	4.828437	4.755733	5.365130	3.306152	-2.755975	-5.433869	-2.075360	3.357200	0.656180	0.871275	-0.020081	0.466857	-1.000000	-1.000000	-1.000000	-1.000000	-1.000000	-1.000000	-1.000000	65.241379	0.000000	-1.000000	-1.000000	1889062.000000	1773691335.373782
11335.320000	-6887.925000	14338.620000	14190.795000	-21411.270000	-14943.825000	7968.780000	12104.910000	-2.672734	10.796568	11.772808	11.270455	10.468261	8.175830	-2.989851	-4.018327	-2.075360	3.357200	0.656180	0.871275	-0.020081	0.466857	-1.000000	-1.000000	-1.000000	-1.000000	-1.000000	-1.000000	-1.000000	65.241379	0.000000	-1.000000	-1.000000	1889063.000000	1773691335.377340
11330.010000	-6893.415000	14330.205000	14179.680000	-21422.160000	-14954.310000	7962.030000	12099.195000	3.359297	12.700508	14.636969	14.243641	12.705791	11.406091	-1.863262	-1.568914	-2.075360	3.357200	0.656180	0.871275	-0.020081	0.466857	-1.000000	-1.000000	-1.000000	-1.000000	-1.000000	-1.000000	-1.000000	65.241379	0.000000	-1.000000	-1.000000	1889064.000000	1773691335.377351
11326.185000	-6897.240000	14327.190000	14177.070000	-21421.935000	-14950.620000	7973.370000	12105.810000	7.428784	9.909254	12.105566	12.138024	10.639587	10.538252	-0.421613	0.062274	-2.075360	3.357200	0.656180	0.871275	-0.020081	0.466857	-1.000000	-1.000000	-1.000000	-1.000000	-1.000000	-1.000000	-1.000000	65.241379	0.000000	-1.000000	-1.000000	1889065.000000	1773691335.381763
11323.440000	-6908.130000	14318.235000	14168.610000	-21431.565000	-14959.305000	7974.135000	12112.650000	7.602001	3.658125	5.071057	5.458021	4.668116	5.399713	0.915364	0.828357	-2.075360	3.357200	0.656180	0.871275	-0.020081	0.466857	-1.000000	-1.000000	-1.000000	-1.000000	-1.000000	-1.000000	-1.000000	65.241379	0.000000	-1.000000	-1.000000	1889066.000000	1773691335.381774
11336.355000	-6901.290000	14324.085000	14173.560000	-21428.730000	-14957.235000	7974.045000	12121.830000	4.601582	-3.321423	-3.296118	-2.800451	-2.359819	-0.900022	2.382893	2.017784	-2.075360	3.357200	0.656180	0.871275	-0.020081	0.466857	-1.000000	-1.000000	-1.000000	-1.000000	-1.000000	-1.000000	-1.000000	65.241379	0.000000	-1.000000	-1.000000	1889067.000000	1773691335.385239
11344.320000	-6896.565000	14330.160000	14182.020000	-21422.115000	-14949.990000	7974.945000	12133.440000	0.850217	-8.027693	-9.294974	-8.913186	-7.187238	-4.975653	3.531105	3.923489	-2.075360	3.357200	0.656180	0.871275	-0.020081	0.466857	-1.000000	-1.000000	-1.000000	-1.000000	-1.000000	-1.000000	-1.000000	65.241379	0.000000	-1.000000	-1.000000	1889068.000000	1773691335.385250
11354.130000	-6884.280000	14341.005000	14193.720000	-21412.755000	-14944.590000	7972.875000	12141.135000	-1.903724	-8.550890	-10.449382	-10.222893	-7.924074	-5.636908	3.391777	4.994502	-2.075360	3.357200	0.656180	0.871275	-0.020081	0.466857	-1.000000	-1.000000	-1.000000	-1.000000	-1.000000	-1.000000	-1.000000	65.241379	0.000000	-1.000000	-1.000000	1889069.000000	1773691335.389297
11349.000000	-6882.885000	14337.855000	14188.185000	-21416.130000	-14940.315000	7973.055000	12127.095000	-3.307253	-4.811600	-6.551189	-6.427250	-4.777370	-3.656034	1.760938	3.524258	-2.075360	3.357200	0.656180	0.871275	-0.020081	0.466857	-1.000000	-1.000000	-1.000000	-1.000000	-1.000000	-1.000000	-1.000000	65.241379	0.000000	-1.000000	-1.000000	1889070.000000	1773691335.389305
11329.380000	-6887.520000	14332.905000	14183.685000	-21416.760000	-14936.760000	7967.250000	12091.995000	-3.627034	1.139237	-0.090434	-0.198222	-0.104587	-0.610422	-0.600295	-0.754611	0.518840	3.998120	1.007160	0.873716	-0.023315	0.465514	-1.000000	-1.000000	-1.000000	-1.000000	-1.000000	-1.000000	-1.000000	65.241379	0.000000	-1.000000	-1.000000	1889071.000000	1773691335.393195
11330.010000	-6881.850000	14339.025000	14189.760000	-21412.845000	-14937.255000	7962.885000	12089.430000	-3.168665	6.038133	5.281330	4.750612	3.266787	1.828774	-2.719449	-6.239798	0.518840	3.998120	1.007160	0.873716	-0.023315	0.465514	-1.000000	-1.000000	-1.000000	-1.000000	-1.000000	-1.000000	-1.000000	65.241379	0.000000	-1.000000	-1.000000	1889072.000000	1773691335.393206
11338.470000	-6880.005000	14341.950000	14192.460000	-21410.775000	-14943.420000	7964.955000	12094.920000	-1.844054	7.648237	7.447352	6.621804	4.223512	2.477184	-3.845826	-9.766975	0.518840	3.998120	1.007160	0.873716	-0.023315	0.465514	-1.000000	-1.000000	-1.000000	-1.000000	-1.000000	-1.000000	-1.000000	65.241379	0.000000	-1.000000	-1.000000	1889073.000000	1773691335.401778
11349.810000	-6872.130000	14348.385000	14198.670000	-21407.715000	-14944.230000	7952.625000	12088.395000	0.641181	5.976518	6.528352	5.816705	3.360317	1.158459	-3.819560	-8.798352	0.518840	3.998120	1.007160	0.873716	-0.023315	0.465514	-1.000000	-1.000000	-1.000000	-1.000000	-1.000000	-1.000000	-1.000000	65.241379	0.000000	-1.000000	-1.000000	1889074.000000	1773691335.401789
11364.210000	-6854.760000	14366.925000	14218.920000	-21388.590000	-14917.410000	7979.445000	12105.360000	3.851606	2.768222	3.969376	3.718252	2.002404	-0.625900	-2.695264	-3.588947	0.518840	3.998120	1.007160	0.873716	-0.023315	0.465514	-1.000000	-1.000000	-1.000000	-1.000000	-1.000000	-1.000000	-1.000000	65.241379	0.000000	-1.000000	-1.000000	1889075.000000	1773691335.401802
11348.865000	-6873.885000	14351.085000	14208.210000	-21393.990000	-14912.505000	8008.695000	12105.810000	5.889546	-0.453198	0.999213	1.376870	1.122531	-0.661978	0.286509	3.335687	0.518840	3.998120	1.007160	0.873716	-0.023315	0.465514	-1.000000	-1.000000	-1.000000	-1.000000	-1.000000	-1.000000	-1.000000	65.241379	0.000000	-1.000000	-1.000000	1889076.000000	1773691335.401807
11348.100000	-6881.940000	14339.520000	14195.745000	-21409.020000	-14932.755000	7999.110000	12108.555000	4.286544	-3.933983	-2.630352	-1.653253	-0.030618	0.697079	4.994388	8.515784	0.518840	3.998120	1.007160	0.873716	-0.023315	0.465514	-1.000000	-1.000000	-1.000000	-1.000000	-1.000000	-1.000000	-1.000000	65.241379	0.000000	-1.000000	-1.000000	1889077.000000	1773691335.405276
11346.930000	-6899.940000	14319.045000	14175.180000	-21430.755000	-14958.405000	7979.760000	12122.190000	-1.058709	-8.025750	-7.211526	-6.002807	-2.967011	0.323291	8.189577	9.582329	0.518840	3.998120	1.007160	0.873716	-0.023315	0.465514	-1.000000	-1.000000	-1.000000	-1.000000	-1.000000	-1.000000	-1.000000	65.241379	0.000000	-1.000000	-1.000000	1889078.000000	1773691335.405288
11310.840000	-6908.355000	14309.505000	14159.745000	-21451.815000	-14983.830000	7970.040000	12117.510000	-7.069512	-11.190102	-11.099757	-10.336055	-7.407940	-3.618391	6.280074	7.374940	0.518840	3.998120	1.007160	0.873716	-0.023315	0.465514	-1.000000	-1.000000	-1.000000	-1.000000	-1.000000	-1.000000	-1.000000	65.241379	0.000000	-1.000000	-1.000000	1889079.000000	1773691335.409295
11308.050000	-6900.030000	14319.270000	14169.105000	-21437.685000	-14970.240000	7977.555000	12107.295000	-10.223172	-10.799153	-11.388082	-11.713041	-10.605933	-8.844289	-0.124797	4.454296	0.518840	3.998120	1.007160	0.873716	-0.023315	0.465514	-1.000000	-1.000000	-1.000000	-1.000000	-1.000000	-1.000000	-1.000000	65.241379	0.000000	-1.000000	-1.000000	1889080.000000	1773691335.409305
11313.495000	-6904.305000	14317.920000	14175.180000	-21418.515000	-14944.815000	7985.745000	12099.285000	-8.608590	-5.608968	-6.486992	-7.892168	-8.971259	-10.088099	-6.376392	1.763558	0.427280	3.952340	-0.122080	0.873838	-0.022034	0.465697	-1.000000	-1.000000	-1.000000	-1.000000	-1.000000	-1.000000	-1.000000	65.241379	0.000000	-1.000000	-1.000000	1889081.000000	1773691335.413316
11319.210000	-6908.715000	14311.035000	14166.045000	-21429.405000	-14954.175000	7982.415000	12114.360000	-2.694251	2.375710	1.718565	0.154747	-1.656078	-4.136224	-8.355211	-1.211650	0.427280	3.952340	-0.122080	0.873838	-0.022034	0.465697	-1.000000	-1.000000	-1.000000	-1.000000	-1.000000	-1.000000	-1.000000	65.241379	0.000000	-1.000000	-1.000000	1889082.000000	1773691335.413324
11332.890000	-6900.615000	14317.470000	14169.555000	-21430.575000	-14958.495000	7976.430000	12128.355000	4.698574	9.155379	8.914303	8.182671	7.338867	5.811824	-5.858343	-3.887503	0.427280	3.952340	-0.122080	0.873838	-0.022034	0.465697	-1.000000	-1.000000	-1.000000	-1.000000	-1.000000	-1.000000	-1.000000	65.241379	0.000000	-1.000000	-1.000000	1889083.000000	1773691335.417199
11330.955000	-6901.470000	14317.110000	14169.645000	-21432.240000	-14958.135000	7968.960000	12119.400000	10.062815	11.844304	11.773477	11.991795	12.423218	12.785210	-2.066180	-5.148464	0.427280	3.952340	-0.122080	0.873838	-0.022034	0.465697	-1.000000	-1.000000	-1.000000	-1.000000	-1.000000	-1.000000	-1.000000	65.241379	0.000000	-1.000000	-1.000000	1889084.000000	1773691335.417208
11326.320000	-6905.700000	14318.235000	14174.280000	-21426.525000	-14951.340000	7963.605000	12109.680000	11.120048	10.185762	10.025580	10.624626	11.381394	12.750574	-0.356112	-5.466476	0.427280	3.952340	-0.122080	0.873838	-0.022034	0.465697	-1.000000	-1.000000	-1.000000	-1.000000	-1.000000	-1.000000	-1.000000	65.241379	0.000000	-1.000000	-1.000000	1889085.000000	1773691335.422082
11329.380000	-6902.325000	14321.565000	14178.285000	-21421.755000	-14945.265000	7965.045000	12112.065000	7.752225	6.004930	5.942504	6.449172	6.544321	7.595776	-0.823880	-5.838523	0.427280	3.952340	-0.122080	0.873838	-0.022034	0.465697	-1.000000	-1.000000	-1.000000	-1.000000	-1.000000	-1.000000	-1.000000	65.241379	0.000000	-1.000000	-1.000000	1889086.000000	1773691335.422091
11328.345000	-6897.060000	14327.505000	14183.235000	-21415.140000	-14937.120000	7962.750000	12108.285000	2.145780	1.856157	2.346151	2.734494	2.016428	2.268822	-0.582311	-5.867431	0.427280	3.952340	-0.122080	0.873838	-0.022034	0.465697	-1.000000	-1.000000	-1.000000	-1.000000	-1.000000	-1.000000	-1.000000	65.241379	0.000000	-1.000000	-1.000000	1889087.000000	1773691335.426514
11321.460000	-6903.765000	14320.485000	14175.045000	-21425.580000	-14955.480000	7966.890000	12101.400000	-2.289529	-0.688447	0.445868	0.910394	-0.091974	-0.391563	2.168504	-4.190560	0.427280	3.952340	-0.122080	0.873838	-0.022034	0.465697	-1.000000	-1.000000	-1.000000	-1.000000	-1.000000	-1.000000	-1.000000	65.241379	0.000000	-1.000000	-1.000000	1889088.000000	1773691335.426526
11302.785000	-6898.770000	14324.580000	14175.630000	-21429.945000	-14966.595000	7977.285000	12097.620000	-3.906233	-2.010946	-0.794666	-0.274196	-1.223113	-1.997086	6.099184	-0.253225	0.427280	3.952340	-0.122080	0.873838	-0.022034	0.465697	-1.000000	-1.000000	-1.000000	-1.000000	-1.000000	-1.000000	-1.000000	65.241379	0.000000	-1.000000	-1.000000	1889089.000000	1773691335.429752
11287.485000	-6893.685000	14331.780000	14183.235000	-21418.605000	-14952.420000	7987.455000	12094.920000	-4.366325	-2.995564	-2.522973	-2.374997	-3.538757	-5.026530	8.615272	4.507546	0.427280	3.952340	-0.122080	0.873838	-0.022034	0.465697	-1.000000	-1.000000	-1.000000	-1.000000	-1.000000	-1.000000	-1.000000	65.241379	0.000000	-1.000000	-1.000000	1889090.000000	1773691335.429763
11324.790000	-6882.390000	14345.100000	14194.035000	-21412.710000	-14948.145000	7984.530000	12100.815000	-5.228983	-3.496882	-4.098741	-4.710022	-6.226594	-8.212703	8.177330	7.454344	-3.418240	2.945180	-0.503580	0.874448	-0.018799	0.464354	-1.000000	-1.000000	-1.000000	-1.000000	-1.000000	-1.000000	-1.000000	65.241379	0.000000	-1.000000	-1.000000	1889091.000000	1773691335.433187
11364.255000	-6878.340000	14349.150000	14198.400000	-21407.760000	-14940.495000	7981.335000	12112.605000	-4.679006	-3.181999	-4.404272	-5.566649	-6.782443	-8.316680	4.751355	7.116116	-3.418240	2.945180	-0.503580	0.874448	-0.018799	0.464354	-1.000000	-1.000000	-1.000000	-1.000000	-1.000000	-1.000000	-1.000000	65.241379	0.000000	-1.000000	-1.000000	1889092.000000	1773691335.433198
11371.725000	-6885.315000	14340.420000	14191.110000	-21413.340000	-14941.980000	7976.565000	12123.540000	-0.402556	-2.442983	-3.632165	-4.688699	-4.621971	-4.716036	-0.665405	4.641570	-3.418240	2.945180	-0.503580	0.874448	-0.018799	0.464354	-1.000000	-1.000000	-1.000000	-1.000000	-1.000000	-1.000000	-1.000000	65.241379	0.000000	-1.000000	-1.000000	1889093.000000	1773691335.437198
11363.175000	-6887.880000	14333.760000	14183.100000	-21424.140000	-14955.750000	7968.195000	12124.125000	5.755669	-1.893581	-2.873939	-3.298999	-1.561828	0.034482	-6.199299	2.274953	-3.418240	2.945180	-0.503580	0.874448	-0.018799	0.464354	-1.000000	-1.000000	-1.000000	-1.000000	-1.000000	-1.000000	-1.000000	65.241379	0.000000	-1.000000	-1.000000	1889094.000000	1773691335.437207
11361.060000	-6880.095000	14339.070000	14185.035000	-21421.305000	-14952.105000	7971.030000	12127.095000	8.837948	-1.604501	-2.601743	-2.358740	0.418203	3.010975	-9.511519	0.785054	-3.418240	2.945180	-0.503580	0.874448	-0.018799	0.464354	-1.000000	-1.000000	-1.000000	-1.000000	-1.000000	-1.000000	-1.000000	65.241379	0.000000	-1.000000	-1.000000	1889095.000000	1773691335.441233
11342.295000	-6899.265000	14325.660000	14177.520000	-21415.230000	-14936.940000	7979.310000	12115.170000	6.038096	-1.289963	-2.285364	-1.604963	1.188282	3.756551	-8.876113	-0.519962	-3.418240	2.945180	-0.503580	0.874448	-0.018799	0.464354	-1.000000	-1.000000	-1.000000	-1.000000	-1.000000	-1.000000	-1.000000	65.241379	0.000000	-1.000000	-1.000000	1889096.000000	1773691335.441244
11343.870000	-6892.920000	14333.895000	14188.545000	-21399.165000	-14924.475000	7991.280000	12103.110000	-0.776082	-0.985006	-1.378524	-0.264323	2.128317	4.184463	-4.412502	-2.211428	-3.418240	2.945180	-0.503580	0.874448	-0.018799	0.464354	-1.000000	-1.000000	-1.000000	-1.000000	-1.000000	-1.000000	-1.000000	65.241379	0.000000	-1.000000	-1.000000	1889097.000000	1773691335.445093
11361.960000	-6864.525000	14357.970000	14206.140000	-21395.475000	-14932.125000	7992.990000	12104.055000	-6.717593	-0.307960	0.485035	2.061346	3.886319	5.203225	1.466755	-4.039224	-3.418240	2.945180	-0.503580	0.874448	-0.018799	0.464354	-1.000000	-1.000000	-1.000000	-1.000000	-1.000000	-1.000000	-1.000000	65.241379	0.000000	-1.000000	-1.000000	1889098.000000	1773691335.445104
11375.280000	-6853.230000	14362.425000	14201.595000	-21418.605000	-14964.300000	7982.055000	12109.680000	-7.703559	1.719296	3.349218	4.727442	4.841372	4.604614	5.335791	-5.043939	-3.418240	2.945180	-0.503580	0.874448	-0.018799	0.464354	-1.000000	-1.000000	-1.000000	-1.000000	-1.000000	-1.000000	-1.000000	65.241379	0.000000	-1.000000	-1.000000	1889099.000000	1773691335.449199
11349.090000	-6896.655000	14326.470000	14177.880000	-21421.530000	-14950.800000	7989.210000	12113.280000	-4.821749	3.880947	5.267656	5.496355	2.684047	0.252613	5.380365	-4.501179	-3.418240	2.945180	-0.503580	0.874448	-0.018799	0.464354	-1.000000	-1.000000	-1.000000	-1.000000	-1.000000	-1.000000	-1.000000	65.241379	0.000000	-1.000000	-1.000000	1889100.000000	1773691335.449229
11324.070000	-6908.805000	14320.800000	14178.105000	-21410.145000	-14925.015000	7989.210000	12116.250000	-3.515940	2.714843	3.338604	2.507975	-2.037005	-5.482570	2.766696	-2.751580	-4.013380	3.097780	-1.190280	0.873350	-0.019775	0.465453	-1.000000	-1.000000	-1.000000	-1.000000	-1.000000	-1.000000	-1.000000	65.241379	0.000000	-1.000000	-1.000000	1889101.000000	1773691335.453209
11327.220000	-6894.765000	14334.885000	14188.680000	-21400.740000	-14917.815000	7980.930000	12121.200000	-6.145391	-1.971736	-1.588215	-2.425992	-5.511106	-7.514875	-0.084805	-0.610099	-4.013380	3.097780	-1.190280	0.873350	-0.019775	0.465453	-1.000000	-1.000000	-1.000000	-1.000000	-1.000000	-1.000000	-1.000000	65.241379	0.000000	-1.000000	-1.000000	1889102.000000	1773691335.453219
11339.055000	-6887.070000	14337.945000	14190.390000	-21402.585000	-14918.490000	7976.295000	12118.095000	-8.426289	-5.619010	-4.858919	-5.069753	-4.695938	-3.905545	-1.758392	1.326744	-4.013380	3.097780	-1.190280	0.873350	-0.019775	0.465453	-1.000000	-1.000000	-1.000000	-1.000000	-1.000000	-1.000000	-1.000000	65.241379	0.000000	-1.000000	-1.000000	1889103.000000	1773691335.457289
11348.820000	-6880.590000	14342.670000	14193.765000	-21408.795000	-14935.815000	7977.375000	12119.535000	-4.933253	-4.487471	-3.550255	-3.409810	-0.592903	1.986398	-2.125640	2.664949	-4.013380	3.097780	-1.190280	0.873350	-0.019775	0.465453	-1.000000	-1.000000	-1.000000	-1.000000	-1.000000	-1.000000	-1.000000	65.241379	0.000000	-1.000000	-1.000000	1889104.000000	1773691335.457300
11344.095000	-6883.830000	14344.290000	14198.310000	-21403.080000	-14942.880000	7979.895000	12105.495000	4.604295	0.794870	1.099223	0.965211	3.182660	4.863777	-1.699087	3.299559	-4.013380	3.097780	-1.190280	0.873350	-0.019775	0.465453	-1.000000	-1.000000	-1.000000	-1.000000	-1.000000	-1.000000	-1.000000	65.241379	0.000000	-1.000000	-1.000000	1889105.000000	1773691335.461264
11339.820000	-6882.615000	14344.785000	14197.635000	-21403.395000	-14942.700000	7969.275000	12092.625000	14.700516	6.306974	5.480808	4.738676	4.009470	2.592626	-1.304424	3.105892	-4.013380	3.097780	-1.190280	0.873350	-0.019775	0.465453	-1.000000	-1.000000	-1.000000	-1.000000	-1.000000	-1.000000	-1.000000	65.241379	0.000000	-1.000000	-1.000000	1889106.000000	1773691335.461271
11337.435000	-6884.505000	14340.645000	14190.255000	-21412.485000	-14951.610000	7955.865000	12095.055000	18.501256	7.698365	6.075930	5.005771	1.854430	-2.142475	-1.644933	1.783333	-4.013380	3.097780	-1.190280	0.873350	-0.019775	0.465453	-1.000000	-1.000000	-1.000000	-1.000000	-1.000000	-1.000000	-1.000000	65.241379	0.000000	-1.000000	-1.000000	1889107.000000	1773691335.465413
11334.960000	-6893.865000	14335.605000	14187.870000	-21409.605000	-14944.950000	7966.575000	12103.560000	13.216307	3.772899	2.228594	1.508489	-1.215690	-4.878171	-2.222525	-0.257973	-4.013380	3.097780	-1.190280	0.873350	-0.019775	0.465453	-1.000000	-1.000000	-1.000000	-1.000000	-1.000000	-1.000000	-1.000000	65.241379	0.000000	-1.000000	-1.000000	1889108.000000	1773691335.465421
11358.945000	-6877.755000	14349.825000	14202.405000	-21390.615000	-14919.255000	7983.270000	12112.245000	2.533111	-1.881885	-2.667618	-2.662120	-2.572787	-3.336172	-1.307281	-1.749192	-4.013380	3.097780	-1.190280	0.873350	-0.019775	0.465453	-1.000000	-1.000000	-1.000000	-1.000000	-1.000000	-1.000000	-1.000000	65.241379	0.000000	-1.000000	-1.000000	1889109.000000	1773691335.469374
11368.350000	-6878.970000	14347.845000	14202.990000	-21387.915000	-14908.995000	8007.300000	12119.985000	-6.159180	-4.283467	-4.409766	-3.997068	-1.213567	1.207475	2.263782	-1.710255	-4.013380	3.097780	-1.190280	0.873350	-0.019775	0.465453	-1.000000	-1.000000	-1.000000	-1.000000	-1.000000	-1.000000	-1.000000	65.241379	0.000000	-1.000000	-1.000000	1889110.000000	1773691335.469386
11338.515000	-6897.195000	14331.105000	14187.735000	-21409.740000	-14940.045000	8002.620000	12114.630000	-8.815405	-2.741901	-2.733174	-2.354869	1.114755	5.148309	7.424043	-0.403402	-3.738700	3.235120	-1.434440	0.874754	-0.019775	0.465697	-1.000000	-1.000000	-1.000000	-1.000000	-1.000000	-1.000000	-1.000000	65.241379	0.000000	-1.000000	-1.000000	1889111.000000	1773691335.473290
11319.840000	-6899.310000	14328.315000	14184.405000	-21413.205000	-14945.130000	8003.295000	12108.510000	-8.027244	-0.878664	-0.837068	-0.465865	1.687531	5.213588	10.832430	0.823874	-3.738700	3.235120	-1.434440	0.874754	-0.019775	0.465697	-1.000000	-1.000000	-1.000000	-1.000000	-1.000000	-1.000000	-1.000000	65.241379	0.000000	-1.000000	-1.000000	1889112.000000	1773691335.473300
11345.175000	-6878.160000	14348.520000	14202.495000	-21396.780000	-14933.430000	7996.635000	12110.310000	-7.241198	-0.787259	-0.433659	0.090457	0.144230	1.709613	9.200959	1.005954	-3.738700	3.235120	-1.434440	0.874754	-0.019775	0.465697	-1.000000	-1.000000	-1.000000	-1.000000	-1.000000	-1.000000	-1.000000	65.241379	0.000000	-1.000000	-1.000000	1889113.000000	1773691335.479689
11357.055000	-6870.015000	14354.145000	14206.455000	-21394.170000	-14933.295000	7983.945000	12113.145000	-5.540861	-0.806179	-0.193675	0.246069	-1.380324	-1.797648	2.150961	0.770304	-3.738700	3.235120	-1.434440	0.874754	-0.019775	0.465697	-1.000000	-1.000000	-1.000000	-1.000000	-1.000000	-1.000000	-1.000000	65.241379	0.000000	-1.000000	-1.000000	1889114.000000	1773691335.479700
11346.255000	-6871.455000	14354.055000	14206.770000	-21389.490000	-14924.880000	7986.150000	12112.110000	-1.285711	0.510652	0.964890	0.932860	-1.287725	-2.595117	-7.014409	1.181565	-3.738700	3.235120	-1.434440	0.874754	-0.019775	0.465697	-1.000000	-1.000000	-1.000000	-1.000000	-1.000000	-1.000000	-1.000000	65.241379	0.000000	-1.000000	-1.000000	1889115.000000	1773691335.481335
11335.095000	-6886.260000	14338.260000	14190.075000	-21406.860000	-14940.945000	7987.815000	12112.875000	3.453424	1.878957	1.996714	1.555363	0.090366	-0.859069	-13.101356	1.813913	-3.738700	3.235120	-1.434440	0.874754	-0.019775	0.465697	-1.000000	-1.000000	-1.000000	-1.000000	-1.000000	-1.000000	-1.000000	65.241379	0.000000	-1.000000	-1.000000	1889116.000000	1773691335.481342
11340.810000	-6898.365000	14323.770000	14172.255000	-21427.965000	-14961.690000	7993.035000	12128.985000	5.304929	1.465465	1.358764	0.854392	0.861561	0.741795	-12.939476	1.413410	-3.738700	3.235120	-1.434440	0.874754	-0.019775	0.465697	-1.000000	-1.000000	-1.000000	-1.000000	-1.000000	-1.000000	-1.000000	65.241379	0.000000	-1.000000	-1.000000	1889117.000000	1773691335.485118
11340.405000	-6899.760000	14322.645000	14170.365000	-21432.465000	-14965.470000	7983.945000	12123.855000	3.512846	-0.804588	-1.093359	-1.632789	-0.904225	-0.906504	-7.905621	-0.280952	-3.738700	3.235120	-1.434440	0.874754	-0.019775	0.465697	-1.000000	-1.000000	-1.000000	-1.000000	-1.000000	-1.000000	-1.000000	65.241379	0.000000	-1.000000	-1.000000	1889118.000000	1773691335.485127
11335.635000	-6910.155000	14313.555000	14166.270000	-21427.740000	-14951.745000	7982.325000	12117.735000	0.033124	-3.354247	-3.753154	-4.442465	-4.247463	-5.097537	-1.938188	-2.644973	-3.738700	3.235120	-1.434440	0.874754	-0.019775	0.465697	-1.000000	-1.000000	-1.000000	-1.000000	-1.000000	-1.000000	-1.000000	65.241379	0.000000	-1.000000	-1.000000	1889119.000000	1773691335.495078
11335.410000	-6907.050000	14318.190000	14173.425000	-21414.465000	-14937.795000	7981.830000	12114.135000	-2.201466	-4.195366	-4.379348	-4.881445	-5.192597	-6.645176	2.358433	-4.686311	-3.738700	3.235120	-1.434440	0.874754	-0.019775	0.465697	-1.000000	-1.000000	-1.000000	-1.000000	-1.000000	-1.000000	-1.000000	65.241379	0.000000	-1.000000	-1.000000	1889120.000000	1773691335.495090
11338.065000	-6895.890000	14329.035000	14182.200000	-21408.075000	-14932.620000	7982.280000	12109.545000	-1.410214	-2.307114	-1.906775	-1.609986	-1.219697	-1.967979	4.834913	-5.153746	-1.373400	3.967600	-0.915600	0.875608	-0.021362	0.467284	-1.000000	-1.000000	-1.000000	-1.000000	-1.000000	-1.000000	-1.000000	65.241379	0.000000	-1.000000	-1.000000	1889121.000000	1773691335.495102
11333.835000	-6897.015000	14326.965000	14180.445000	-21406.905000	-14925.015000	7986.330000	12106.530000	1.146087	1.303134	2.289882	3.542559	5.301208	6.272448	6.209344	-3.488213	-1.373400	3.967600	-0.915600	0.875608	-0.021362	0.467284	-1.000000	-1.000000	-1.000000	-1.000000	-1.000000	-1.000000	-1.000000	65.241379	0.000000	-1.000000	-1.000000	1889122.000000	1773691335.495107
11335.995000	-6893.460000	14329.350000	14180.760000	-21411.450000	-14942.655000	7985.340000	12111.255000	2.590546	4.196371	5.305282	6.983198	9.372870	11.862776	6.892316	-0.311167	-1.373400	3.967600	-0.915600	0.875608	-0.021362	0.467284	-1.000000	-1.000000	-1.000000	-1.000000	-1.000000	-1.000000	-1.000000	65.241379	0.000000	-1.000000	-1.000000	1889123.000000	1773691335.497550
11335.230000	-6894.450000	14327.820000	14177.475000	-21419.865000	-14965.740000	7981.695000	12109.320000	1.959735	4.816748	5.455836	6.737474	8.167890	10.357435	6.604443	3.082274	-1.373400	3.967600	-0.915600	0.875608	-0.021362	0.467284	-1.000000	-1.000000	-1.000000	-1.000000	-1.000000	-1.000000	-1.000000	65.241379	0.000000	-1.000000	-1.000000	1889124.000000	1773691335.497569
11333.745000	-6893.595000	14330.835000	14181.435000	-21416.130000	-14957.055000	7979.985000	12106.485000	0.518581	3.749770	3.632122	3.938741	3.122611	2.609304	4.605066	5.037075	-1.373400	3.967600	-0.915600	0.875608	-0.021362	0.467284	-1.000000	-1.000000	-1.000000	-1.000000	-1.000000	-1.000000	-1.000000	65.241379	0.000000	-1.000000	-1.000000	1889125.000000	1773691335.503783
11339.550000	-6883.380000	14343.885000	14195.655000	-21401.280000	-14936.895000	7985.295000	12105.855000	-0.598913	2.558621	1.920106	1.264333	-1.750916	-5.546786	0.891751	4.271571	-1.373400	3.967600	-0.915600	0.875608	-0.021362	0.467284	-1.000000	-1.000000	-1.000000	-1.000000	-1.000000	-1.000000	-1.000000	65.241379	0.000000	-1.000000	-1.000000	1889126.000000	1773691335.503795
11342.070000	-6884.505000	14341.635000	14194.350000	-21401.415000	-14933.610000	7981.065000	12106.710000	-1.106817	1.985930	1.361376	0.248926	-3.550993	-8.595215	-3.114213	1.317521	-1.373400	3.967600	-0.915600	0.875608	-0.021362	0.467284	-1.000000	-1.000000	-1.000000	-1.000000	-1.000000	-1.000000	-1.000000	65.241379	0.000000	-1.000000	-1.000000	1889127.000000	1773691335.505336
11343.060000	-6889.455000	14336.370000	14189.355000	-21403.800000	-14932.845000	7980.795000	12114.270000	-0.815165	1.477923	1.162264	0.099897	-2.725141	-6.086707	-5.591568	-1.422663	-1.373400	3.967600	-0.915600	0.875608	-0.021362	0.467284	-1.000000	-1.000000	-1.000000	-1.000000	-1.000000	-1.000000	-1.000000	65.241379	0.000000	-1.000000	-1.000000	1889128.000000	1773691335.505350
11340.630000	-6887.115000	14336.280000	14188.995000	-21403.350000	-14929.515000	7986.195000	12115.485000	0.211460	0.063589	-0.113720	-0.920827	-1.697476	-1.496190	-5.588450	-1.786669	-1.373400	3.967600	-0.915600	0.875608	-0.021362	0.467284	-1.000000	-1.000000	-1.000000	-1.000000	-1.000000	-1.000000	-1.000000	65.241379	0.000000	-1.000000	-1.000000	1889129.000000	1773691335.516082
11333.520000	-6894.360000	14328.045000	14181.210000	-21407.805000	-14934.555000	7985.745000	12109.950000	0.987380	-2.664077	-3.048338	-3.534479	-2.147677	1.616610	-3.377816	0.127601	-1.373400	3.967600	-0.915600	0.875608	-0.021362	0.467284	-1.000000	-1.000000	-1.000000	-1.000000	-1.000000	-1.000000	-1.000000	65.241379	0.000000	-1.000000	-1.000000	1889130.000000	1773691335.516095
11333.025000	-6896.070000	14328.135000	14182.560000	-21398.895000	-14930.325000	7982.460000	12100.635000	0.377500	-5.985755	-6.654410	-6.695685	-3.673720	1.885227	-0.318945	2.151542	-1.312360	3.601360	-0.015260	0.875791	-0.020142	0.467406	-1.000000	-1.000000	-1.000000	-1.000000	-1.000000	-1.000000	-1.000000	65.241379	0.000000	-1.000000	-1.000000	1889131.000000	1773691335.516291
11340.945000	-6882.795000	14340.690000	14192.955000	-21398.580000	-14934.735000	7982.955000	12106.935000	-1.240356	-7.938384	-8.538503	-8.038916	-4.308076	0.562974	1.990893	2.262107	-1.312360	3.601360	-0.015260	0.875791	-0.020142	0.467406	-1.000000	-1.000000	-1.000000	-1.000000	-1.000000	-1.000000	-1.000000	65.241379	0.000000	-1.000000	-1.000000	1889132.000000	1773691335.516301
11341.710000	-6886.620000	14336.865000	14189.535000	-21404.790000	-14940.720000	7975.260000	12110.355000	-2.168460	-6.524431	-6.618200	-5.710599	-2.631171	-0.165393	2.701009	0.534821	-1.312360	3.601360	-0.015260	0.875791	-0.020142	0.467406	-1.000000	-1.000000	-1.000000	-1.000000	-1.000000	-1.000000	-1.000000	65.241379	0.000000	-1.000000	-1.000000	1889133.000000	1773691335.517331
11337.120000	-6899.040000	14325.570000	14180.625000	-21406.590000	-14929.380000	7969.320000	12105.495000	-1.563567	-2.084177	-1.593804	-0.632794	0.520590	0.326115	1.696041	-1.544771	-1.312360	3.601360	-0.015260	0.875791	-0.020142	0.467406	-1.000000	-1.000000	-1.000000	-1.000000	-1.000000	-1.000000	-1.000000	65.241379	0.000000	-1.000000	-1.000000	1889134.000000	1773691335.517342
11350.710000	-6883.920000	14338.305000	14191.920000	-21401.505000	-14927.265000	7977.060000	12108.600000	-0.183338	2.683851	3.419220	4.055214	2.985070	0.944613	-0.364778	-2.868942	-1.312360	3.601360	-0.015260	0.875791	-0.020142	0.467406	-1.000000	-1.000000	-1.000000	-1.000000	-1.000000	-1.000000	-1.000000	65.241379	0.000000	-1.000000	-1.000000	1889135.000000	1773691335.521427
11345.580000	-6885.405000	14336.010000	14189.535000	-21402.045000	-14928.075000	7978.815000	12112.335000	1.057262	5.715328	6.206689	6.221794	3.557094	0.622051	-1.856161	-2.949621	-1.312360	3.601360	-0.015260	0.875791	-0.020142	0.467406	-1.000000	-1.000000	-1.000000	-1.000000	-1.000000	-1.000000	-1.000000	65.241379	0.000000	-1.000000	-1.000000	1889136.000000	1773691335.521508
11341.935000	-6885.540000	14337.900000	14192.145000	-21403.845000	-14936.175000	7989.390000	12115.935000	1.676032	6.619024	6.627490	5.924050	2.598550	-0.709147	-1.398281	-1.738173	-1.312360	3.601360	-0.015260	0.875791	-0.020142	0.467406	-1.000000	-1.000000	-1.000000	-1.000000	-1.000000	-1.000000	-1.000000	65.241379	0.000000	-1.000000	-1.000000	1889137.000000	1773691335.528044
11335.815000	-6896.880000	14324.625000	14178.915000	-21418.470000	-14965.155000	7989.165000	12106.530000	1.325061	5.275597	5.019483	3.881096	0.806859	-2.728987	0.719244	0.089778	-1.312360	3.601360	-0.015260	0.875791	-0.020142	0.467406	-1.000000	-1.000000	-1.000000	-1.000000	-1.000000	-1.000000	-1.000000	65.241379	0.000000	-1.000000	-1.000000	1889138.000000	1773691335.528056
11299.905000	-6896.520000	14325.930000	14179.365000	-21415.455000	-14956.785000	7978.995000	12084.480000	-0.298688	1.913873	1.792723	0.760445	-1.322889	-4.858889	2.701905	1.242702	-1.312360	3.601360	-0.015260	0.875791	-0.020142	0.467406	-1.000000	-1.000000	-1.000000	-1.000000	-1.000000	-1.000000	-1.000000	65.241379	0.000000	-1.000000	-1.000000	1889139.000000	1773691335.529392
11297.205000	-6866.370000	14359.320000	14208.255000	-21397.635000	-14946.390000	7960.320000	12081.420000	-3.226264	-1.646450	-1.399326	-1.954842	-2.678640	-5.231179	2.577625	0.733158	-1.312360	3.601360	-0.015260	0.875791	-0.020142	0.467406	-1.000000	-1.000000	-1.000000	-1.000000	-1.000000	-1.000000	-1.000000	65.241379	0.000000	-1.000000	-1.000000	1889140.000000	1773691335.529403
11340.990000	-6862.905000	14362.110000	14208.840000	-21400.335000	-14948.550000	7964.595000	12096.585000	-5.458475	-2.904310	-2.281644	-2.385207	-1.833989	-1.937702	-0.013186	-0.792075	-1.205540	2.823100	0.701960	0.875608	-0.019653	0.467406	-1.000000	-1.000000	-1.000000	-1.000000	-1.000000	-1.000000	-1.000000	65.241379	0.000000	-1.000000	-1.000000	1889141.000000	1773691335.533327
11371.410000	-6879.330000	14348.070000	14202.045000	-21396.915000	-14937.615000	7980.885000	12114.855000	-3.135024	-1.527058	-0.744212	-0.545393	1.098149	4.106089	-2.799131	-1.162390	-1.205540	2.823100	0.701960	0.875608	-0.019653	0.467406	-1.000000	-1.000000	-1.000000	-1.000000	-1.000000	-1.000000	-1.000000	65.241379	0.000000	-1.000000	-1.000000	1889142.000000	1773691335.533337
11375.685000	-6900.480000	14322.915000	14181.840000	-21406.725000	-14933.475000	7986.555000	12123.765000	4.382294	-0.050554	0.475369	1.106938	3.931559	9.282887	-2.878901	1.057670	-1.205540	2.823100	0.701960	0.875608	-0.019653	0.467406	-1.000000	-1.000000	-1.000000	-1.000000	-1.000000	-1.000000	-1.000000	65.241379	0.000000	-1.000000	-1.000000	1889143.000000	1773691335.537338
11347.290000	-6912.855000	14309.235000	14169.285000	-21417.795000	-14939.955000	7986.960000	12111.750000	11.508026	-1.157065	-1.321593	0.017600	4.075057	10.165988	-0.105738	4.445222	-1.205540	2.823100	0.701960	0.875608	-0.019653	0.467406	-1.000000	-1.000000	-1.000000	-1.000000	-1.000000	-1.000000	-1.000000	65.241379	0.000000	-1.000000	-1.000000	1889144.000000	1773691335.537349
11318.085000	-6912.180000	14312.070000	14170.230000	-21417.525000	-14941.800000	7989.390000	12099.375000	11.238626	-4.489682	-5.447731	-3.588068	0.945152	6.056479	2.912332	5.513573	-1.205540	2.823100	0.701960	0.875608	-0.019653	0.467406	-1.000000	-1.000000	-1.000000	-1.000000	-1.000000	-1.000000	-1.000000	65.241379	0.000000	-1.000000	-1.000000	1889145.000000	1773691335.541561
11318.985000	-6908.040000	14317.515000	14172.660000	-21414.735000	-14938.065000	7983.630000	12096.180000	2.446161	-6.679541	-7.989263	-6.484154	-3.113288	-0.390817	3.608656	2.354757	-1.205540	2.823100	0.701960	0.875608	-0.019653	0.467406	-1.000000	-1.000000	-1.000000	-1.000000	-1.000000	-1.000000	-1.000000	65.241379	0.000000	-1.000000	-1.000000	1889146.000000	1773691335.541603
11337.975000	-6908.670000	14313.690000	14166.045000	-21422.790000	-14949.765000	7971.570000	12109.590000	-8.306149	-4.809427	-5.779013	-5.652450	-4.991780	-5.232989	1.318464	-2.697260	-1.205540	2.823100	0.701960	0.875608	-0.019653	0.467406	-1.000000	-1.000000	-1.000000	-1.000000	-1.000000	-1.000000	-1.000000	65.241379	0.000000	-1.000000	-1.000000	1889147.000000	1773691335.545297
11350.710000	-6908.670000	14311.395000	14161.770000	-21429.270000	-14963.715000	7964.955000	12124.845000	-12.348997	0.515769	0.204093	-1.415648	-3.975960	-6.901203	-2.404894	-4.922168	-1.205540	2.823100	0.701960	0.875608	-0.019653	0.467406	-1.000000	-1.000000	-1.000000	-1.000000	-1.000000	-1.000000	-1.000000	65.241379	0.000000	-1.000000	-1.000000	1889148.000000	1773691335.545309
11335.455000	-6904.890000	14315.130000	14162.085000	-21435.030000	-14978.025000	7960.320000	12119.895000	-7.392817	5.586710	5.666163	2.955539	-1.916225	-6.808401	-4.893869	-2.398839	-1.205540	2.823100	0.701960	0.875608	-0.019653	0.467406	-1.000000	-1.000000	-1.000000	-1.000000	-1.000000	-1.000000	-1.000000	65.241379	0.000000	-1.000000	-1.000000	1889149.000000	1773691335.549198
11322.090000	-6902.100000	14320.395000	14168.340000	-21425.400000	-14965.290000	7949.250000	12099.465000	0.084064	7.387756	7.489735	4.945546	-0.281007	-6.042033	-4.785180	1.371793	-1.205540	2.823100	0.701960	0.875608	-0.019653	0.467406	-1.000000	-1.000000	-1.000000	-1.000000	-1.000000	-1.000000	-1.000000	65.241379	0.000000	-1.000000	-1.000000	1889150.000000	1773691335.549206
11326.005000	-6905.430000	14315.355000	14166.090000	-21424.635000	-14958.045000	7942.230000	12094.965000	2.603276	6.321011	6.411153	5.044025	1.270656	-3.954821	-3.140476	1.446279	-3.723440	2.456860	0.106820	0.876524	-0.017578	0.466796	-1.000000	-1.000000	-1.000000	-1.000000	-1.000000	-1.000000	-1.000000	65.241379	0.000000	-1.000000	-1.000000	1889151.000000	1773691335.553379
11333.655000	-6903.450000	14317.290000	14171.400000	-21416.310000	-14949.855000	7954.695000	12111.570000	-0.135199	4.491110	4.779140	4.903313	3.324393	-0.133395	-1.378216	-2.457851	-3.723440	2.456860	0.106820	0.876524	-0.017578	0.466796	-1.000000	-1.000000	-1.000000	-1.000000	-1.000000	-1.000000	-1.000000	65.241379	0.000000	-1.000000	-1.000000	1889152.000000	1773691335.553387
11345.310000	-6893.730000	14329.170000	14185.845000	-21396.465000	-14922.630000	7981.380000	12123.540000	-2.391342	3.125727	3.812060	5.228631	5.723526	4.760684	0.916372	-5.573847	-3.723440	2.456860	0.106820	0.876524	-0.017578	0.466796	-1.000000	-1.000000	-1.000000	-1.000000	-1.000000	-1.000000	-1.000000	65.241379	0.000000	-1.000000	-1.000000	1889153.000000	1773691335.557405
11343.510000	-6893.820000	14332.680000	14185.035000	-21409.830000	-14937.525000	7984.755000	12112.560000	0.354222	2.074177	3.171632	5.387117	7.374569	9.181900	4.573575	-3.968383	-3.723440	2.456860	0.106820	0.876524	-0.017578	0.466796	-1.000000	-1.000000	-1.000000	-1.000000	-1.000000	-1.000000	-1.000000	65.241379	0.000000	-1.000000	-1.000000	1889154.000000	1773691335.557417
11344.590000	-6892.650000	14331.060000	14180.310000	-21414.240000	-14941.755000	7991.055000	12106.665000	6.475375	0.458828	1.700996	3.921346	6.315114	10.558200	8.373939	1.045365	-3.723440	2.456860	0.106820	0.876524	-0.017578	0.466796	-1.000000	-1.000000	-1.000000	-1.000000	-1.000000	-1.000000	-1.000000	65.241379	0.000000	-1.000000	-1.000000	1889155.000000	1773691335.561296
11333.700000	-6895.395000	14329.980000	14179.725000	-21411.765000	-14937.525000	7992.855000	12097.620000	10.277326	-2.124248	-1.179205	0.209983	1.925740	7.462974	9.960509	5.001135	-3.723440	2.456860	0.106820	0.876524	-0.017578	0.466796	-1.000000	-1.000000	-1.000000	-1.000000	-1.000000	-1.000000	-1.000000	65.241379	0.000000	-1.000000	-1.000000	1889156.000000	1773691335.561306
11328.345000	-6894.765000	14331.195000	14180.670000	-21415.320000	-14948.595000	7987.950000	12097.620000	7.899620	-5.111150	-4.792373	-4.551240	-3.715978	1.525598	8.056209	4.947450	-3.723440	2.456860	0.106820	0.876524	-0.017578	0.466796	-1.000000	-1.000000	-1.000000	-1.000000	-1.000000	-1.000000	-1.000000	65.241379	0.000000	-1.000000	-1.000000	1889157.000000	1773691335.565412
11337.525000	-6885.045000	14342.400000	14194.035000	-21404.115000	-14947.740000	7985.205000	12114.315000	0.691440	-7.288251	-7.643134	-8.161013	-7.662410	-4.339566	2.983978	1.894555	-3.723440	2.456860	0.106820	0.876524	-0.017578	0.466796	-1.000000	-1.000000	-1.000000	-1.000000	-1.000000	-1.000000	-1.000000	65.241379	0.000000	-1.000000	-1.000000	1889158.000000	1773691335.565423
11351.970000	-6883.155000	14343.480000	14196.195000	-21403.305000	-14948.190000	7982.460000	12124.665000	-6.285733	-7.113024	-8.007999	-8.664500	-8.176027	-8.191193	-3.502684	-0.459567	-3.723440	2.456860	0.106820	0.876524	-0.017578	0.466796	-1.000000	-1.000000	-1.000000	-1.000000	-1.000000	-1.000000	-1.000000	65.241379	0.000000	-1.000000	-1.000000	1889159.000000	1773691335.569384
11360.880000	-6886.215000	14340.645000	14194.845000	-21399.840000	-14931.900000	7984.710000	12127.320000	-8.745484	-3.998422	-5.203594	-5.748353	-5.565440	-9.261199	-8.874251	0.049790	-3.723440	2.456860	0.106820	0.876524	-0.017578	0.466796	-1.000000	-1.000000	-1.000000	-1.000000	-1.000000	-1.000000	-1.000000	65.241379	0.000000	-1.000000	-1.000000	1889160.000000	1773691335.569421
11363.040000	-6873.570000	14352.930000	14204.790000	-21392.055000	-14926.005000	7983.540000	12124.305000	-6.232419	0.707889	-0.472447	-1.127700	-1.638312	-7.395196	-11.379930	1.752141	-4.486440	2.258480	0.381500	0.876035	-0.018616	0.465941	-1.000000	-1.000000	-1.000000	-1.000000	-1.000000	-1.000000	-1.000000	65.241379	0.000000	-1.000000	-1.000000	1889161.000000	1773691335.573431
11360.790000	-6862.905000	14361.705000	14211.765000	-21387.015000	-14924.340000	7984.080000	12118.905000	-1.378566	4.852936	3.943087	2.865491	1.696561	-3.456612	-10.930328	1.769993	-4.486440	2.258480	0.381500	0.876035	-0.018616	0.465941	-1.000000	-1.000000	-1.000000	-1.000000	-1.000000	-1.000000	-1.000000	65.241379	0.000000	-1.000000	-1.000000	1889162.000000	1773691335.573443
11336.310000	-6876.630000	14349.060000	14199.390000	-21393.180000	-14927.940000	7978.860000	12100.005000	2.298164	6.636836	5.987315	4.605395	3.454076	0.870806	-8.226293	-0.652779	-4.486440	2.258480	0.381500	0.876035	-0.018616	0.465941	-1.000000	-1.000000	-1.000000	-1.000000	-1.000000	-1.000000	-1.000000	65.241379	0.000000	-1.000000	-1.000000	1889163.000000	1773691335.577430
11328.480000	-6878.880000	14348.205000	14197.545000	-21391.515000	-14928.390000	7964.325000	12083.895000	2.355783	5.053858	4.681901	3.665698	3.633407	4.227923	-4.051785	-4.182381	-4.486440	2.258480	0.381500	0.876035	-0.018616	0.465941	-1.000000	-1.000000	-1.000000	-1.000000	-1.000000	-1.000000	-1.000000	65.241379	0.000000	-1.000000	-1.000000	1889164.000000	1773691335.577466
11335.230000	-6867.630000	14362.110000	14212.755000	-21375.585000	-14915.925000	7966.530000	12086.055000	-0.500774	1.016063	1.187761	1.219386	2.874789	5.970206	0.604710	-6.794187	-4.486440	2.258480	0.381500	0.876035	-0.018616	0.465941	-1.000000	-1.000000	-1.000000	-1.000000	-1.000000	-1.000000	-1.000000	65.241379	0.000000	-1.000000	-1.000000	1889165.000000	1773691335.582018
11332.620000	-6883.965000	14345.235000	14197.905000	-21386.790000	-14920.740000	7992.630000	12103.065000	-2.968717	-3.089466	-2.181457	-0.948712	1.894148	6.167945	5.294451	-6.488242	-4.486440	2.258480	0.381500	0.876035	-0.018616	0.465941	-1.000000	-1.000000	-1.000000	-1.000000	-1.000000	-1.000000	-1.000000	65.241379	0.000000	-1.000000	-1.000000	1889166.000000	1773691335.582064
11334.285000	-6909.660000	14311.980000	14162.760000	-21424.320000	-14953.140000	7989.345000	12118.230000	-2.902471	-6.024378	-4.744326	-2.807834	0.048287	4.494955	9.898776	-2.473240	-4.486440	2.258480	0.381500	0.876035	-0.018616	0.465941	-1.000000	-1.000000	-1.000000	-1.000000	-1.000000	-1.000000	-1.000000	65.241379	0.000000	-1.000000	-1.000000	1889167.000000	1773691335.587161
11332.665000	-6917.220000	14301.630000	14151.195000	-21437.730000	-14965.470000	7979.805000	12112.020000	-1.028773	-7.780214	-7.029752	-5.394503	-3.951168	-0.127385	12.664576	3.479297	-4.486440	2.258480	0.381500	0.876035	-0.018616	0.465941	-1.000000	-1.000000	-1.000000	-1.000000	-1.000000	-1.000000	-1.000000	65.241379	0.000000	-1.000000	-1.000000	1889168.000000	1773691335.587168
11322.405000	-6910.875000	14311.260000	14162.355000	-21425.985000	-14951.880000	7985.880000	12095.910000	0.744434	-7.467362	-7.868153	-7.478292	-8.575727	-6.629529	11.026960	7.561966	-4.486440	2.258480	0.381500	0.876035	-0.018616	0.465941	-1.000000	-1.000000	-1.000000	-1.000000	-1.000000	-1.000000	-1.000000	65.241379	0.000000	-1.000000	-1.000000	1889169.000000	1773691335.589350
11324.430000	-6907.545000	14315.265000	14165.730000	-21425.085000	-14949.540000	7977.645000	12087.450000	1.384141	-4.027931	-5.192540	-6.193904	-9.822112	-10.864266	4.771386	6.900626	-4.486440	2.258480	0.381500	0.876035	-0.018616	0.465941	-1.000000	-1.000000	-1.000000	-1.000000	-1.000000	-1.000000	-1.000000	65.241379	0.000000	-1.000000	-1.000000	1889170.000000	1773691335.589361
11338.650000	-6893.955000	14330.745000	14181.750000	-21405.825000	-14933.430000	7967.790000	12084.975000	1.747952	1.842750	0.964009	-0.665250	-5.390962	-9.202889	-3.524478	2.395174	-4.578000	2.350040	0.610400	0.876035	-0.020691	0.462889	-1.000000	-1.000000	-1.000000	-1.000000	-1.000000	-1.000000	-1.000000	65.241379	0.000000	-1.000000	-1.000000	1889171.000000	1773691335.593315
11352.735000	-6882.390000	14342.580000	14194.080000	-21392.550000	-14921.370000	7973.145000	12105.495000	3.646527	8.271826	8.474549	7.294492	3.543463	-1.531800	-10.052399	-1.728814	-4.578000	2.350040	0.610400	0.876035	-0.020691	0.462889	-1.000000	-1.000000	-1.000000	-1.000000	-1.000000	-1.000000	-1.000000	65.241379	0.000000	-1.000000	-1.000000	1889172.000000	1773691335.593323
11350.215000	-6881.220000	14341.860000	14190.300000	-21400.605000	-14935.860000	7991.370000	12130.470000	7.017560	12.954176	14.192599	14.092347	12.668755	8.125366	-11.240498	-1.453454	-4.578000	2.350040	0.610400	0.876035	-0.020691	0.462889	-1.000000	-1.000000	-1.000000	-1.000000	-1.000000	-1.000000	-1.000000	65.241379	0.000000	-1.000000	-1.000000	1889173.000000	1773691335.600612
11339.055000	-6900.480000	14319.450000	14166.135000	-21426.435000	-14969.205000	7983.720000	12126.915000	8.751701	13.078124	14.485691	15.231257	16.058318	13.242123	-6.455966	2.961543	-4.578000	2.350040	0.610400	0.876035	-0.020691	0.462889	-1.000000	-1.000000	-1.000000	-1.000000	-1.000000	-1.000000	-1.000000	65.241379	0.000000	-1.000000	-1.000000	1889174.000000	1773691335.600624
11346.165000	-6895.935000	14326.335000	14177.070000	-21413.295000	-14952.960000	7984.035000	12127.455000	5.894082	7.591948	8.203702	9.037343	11.134342	10.310453	0.454478	6.521460	-4.578000	2.350040	0.610400	0.876035	-0.020691	0.462889	-1.000000	-1.000000	-1.000000	-1.000000	-1.000000	-1.000000	-1.000000	65.241379	0.000000	-1.000000	-1.000000	1889175.000000	1773691335.601413
11336.040000	-6892.650000	14332.050000	14184.720000	-21409.245000	-14943.645000	7975.755000	12124.125000	-0.922883	-0.385137	-0.673510	-0.224025	2.138341	3.001307	4.738179	4.606162	-4.578000	2.350040	0.610400	0.876035	-0.020691	0.462889	-1.000000	-1.000000	-1.000000	-1.000000	-1.000000	-1.000000	-1.000000	65.241379	0.000000	-1.000000	-1.000000	1889176.000000	1773691335.601423
11336.805000	-6886.890000	14338.935000	14193.135000	-21402.945000	-14936.580000	7973.190000	12119.265000	-8.205425	-6.136054	-6.537658	-6.367741	-4.461307	-2.352883	4.845441	-2.178846	-4.578000	2.350040	0.610400	0.876035	-0.020691	0.462889	-1.000000	-1.000000	-1.000000	-1.000000	-1.000000	-1.000000	-1.000000	65.241379	0.000000	-1.000000	-1.000000	1889177.000000	1773691335.605222
11305.035000	-6880.950000	14346.495000	14199.930000	-21396.015000	-14931.675000	7974.630000	12104.505000	-12.556065	-7.707313	-7.534598	-7.386310	-6.362948	-3.637791	2.169269	-9.179503	-4.578000	2.350040	0.610400	0.876035	-0.020691	0.462889	-1.000000	-1.000000	-1.000000	-1.000000	-1.000000	-1.000000	-1.000000	65.241379	0.000000	-1.000000	-1.000000	1889178.000000	1773691335.605233
11286.450000	-6894.405000	14333.670000	14185.710000	-21408.480000	-14938.110000	7982.640000	12103.110000	-12.976043	-6.575908	-5.915433	-5.771190	-5.575973	-2.963244	-0.703578	-12.113998	-4.578000	2.350040	0.610400	0.876035	-0.020691	0.462889	-1.000000	-1.000000	-1.000000	-1.000000	-1.000000	-1.000000	-1.000000	65.241379	0.000000	-1.000000	-1.000000	1889179.000000	1773691335.609424
11335.905000	-6892.605000	14328.045000	14174.145000	-21426.885000	-14972.445000	7977.060000	12121.695000	-9.706727	-5.286630	-4.861606	-4.984971	-5.238710	-3.312853	-1.590089	-9.399829	-4.578000	2.350040	0.610400	0.876035	-0.020691	0.462889	-1.000000	-1.000000	-1.000000	-1.000000	-1.000000	-1.000000	-1.000000	65.241379	0.000000	-1.000000	-1.000000	1889180.000000	1773691335.609432
11365.470000	-6876.810000	14336.280000	14174.730000	-21432.105000	-14986.395000	7967.655000	12122.820000	-2.013546	-4.624976	-5.362299	-6.169171	-6.772203	-6.166904	-0.612990	-2.485461	-2.365300	2.548420	0.518840	0.874998	-0.023132	0.460570	-1.000000	-1.000000	-1.000000	-1.000000	-1.000000	-1.000000	-1.000000	65.241379	0.000000	-1.000000	-1.000000	1889181.000000	1773691335.619287
11357.100000	-6888.780000	14329.260000	14175.540000	-21417.615000	-14960.025000	7974.720000	12098.160000	8.928273	-3.376954	-5.632969	-7.191959	-8.077639	-9.022353	0.294825	4.287173	-2.365300	2.548420	0.518840	0.874998	-0.023132	0.460570	-1.000000	-1.000000	-1.000000	-1.000000	-1.000000	-1.000000	-1.000000	65.241379	0.000000	-1.000000	-1.000000	1889182.000000	1773691335.619304
11354.805000	-6891.075000	14329.080000	14179.410000	-21407.625000	-14940.720000	7984.035000	12102.165000	17.510459	-0.764335	-3.584625	-5.054776	-5.370023	-6.606764	0.284142	6.621611	-2.365300	2.548420	0.518840	0.874998	-0.023132	0.460570	-1.000000	-1.000000	-1.000000	-1.000000	-1.000000	-1.000000	-1.000000	65.241379	0.000000	-1.000000	-1.000000	1889183.000000	1773691335.619576
11349.405000	-6896.025000	14324.985000	14175.900000	-21410.325000	-14935.545000	7980.030000	12108.600000	18.037784	2.419056	0.782194	0.600868	1.914944	2.342546	0.194691	4.406159	-2.365300	2.548420	0.518840	0.874998	-0.023132	0.460570	-1.000000	-1.000000	-1.000000	-1.000000	-1.000000	-1.000000	-1.000000	65.241379	0.000000	-1.000000	-1.000000	1889184.000000	1773691335.619582
11344.410000	-6897.015000	14327.460000	14181.570000	-21401.055000	-14928.120000	7970.805000	12104.820000	9.891946	4.652096	5.332315	6.812117	9.703004	12.273230	0.539130	1.089358	-2.365300	2.548420	0.518840	0.874998	-0.023132	0.460570	-1.000000	-1.000000	-1.000000	-1.000000	-1.000000	-1.000000	-1.000000	65.241379	0.000000	-1.000000	-1.000000	1889185.000000	1773691335.621390
11341.935000	-6892.830000	14337.810000	14194.530000	-21389.490000	-14919.570000	7969.590000	12103.380000	-2.163359	4.856465	7.691262	10.149650	13.326174	16.352889	0.731768	-0.293416	-2.365300	2.548420	0.518840	0.874998	-0.023132	0.460570	-1.000000	-1.000000	-1.000000	-1.000000	-1.000000	-1.000000	-1.000000	65.241379	0.000000	-1.000000	-1.000000	1889186.000000	1773691335.621396
11338.425000	-6897.555000	14333.490000	14189.535000	-21396.015000	-14928.075000	7967.160000	12097.530000	-11.336909	3.151240	6.970723	9.307957	11.047065	12.082454	0.150737	0.885627	-2.365300	2.548420	0.518840	0.874998	-0.023132	0.460570	-1.000000	-1.000000	-1.000000	-1.000000	-1.000000	-1.000000	-1.000000	65.241379	0.000000	-1.000000	-1.000000	1889187.000000	1773691335.628373
11342.655000	-6892.020000	14335.785000	14190.930000	-21387.645000	-14920.515000	7975.035000	12095.190000	-13.544705	0.767920	3.968696	5.280072	4.497161	2.288806	-0.866108	3.032372	-2.365300	2.548420	0.518840	0.874998	-0.023132	0.460570	-1.000000	-1.000000	-1.000000	-1.000000	-1.000000	-1.000000	-1.000000	65.241379	0.000000	-1.000000	-1.000000	1889188.000000	1773691335.628384
11346.030000	-6888.555000	14337.990000	14190.750000	-21387.420000	-14916.105000	7992.855000	12097.395000	-10.263883	-0.924067	0.374137	0.330382	-2.535967	-6.916336	-0.955930	3.660846	-2.365300	2.548420	0.518840	0.874998	-0.023132	0.460570	-1.000000	-1.000000	-1.000000	-1.000000	-1.000000	-1.000000	-1.000000	65.241379	0.000000	-1.000000	-1.000000	1889189.000000	1773691335.629407
11335.545000	-6895.980000	14329.215000	14179.050000	-21411.135000	-14940.225000	7986.825000	12090.510000	-5.941769	-1.610779	-2.501642	-3.640669	-7.167658	-10.984471	0.730984	1.688450	-2.365300	2.548420	0.518840	0.874998	-0.023132	0.460570	-1.000000	-1.000000	-1.000000	-1.000000	-1.000000	-1.000000	-1.000000	65.241379	0.000000	-1.000000	-1.000000	1889190.000000	1773691335.629413
11331.630000	-6902.370000	14323.365000	14174.010000	-21420.270000	-14955.255000	7976.475000	12092.175000	-2.954237	-1.726617	-4.181845	-6.002590	-9.426011	-10.715977	2.592272	-1.433270	-2.975700	2.472120	-0.610400	0.873472	-0.020630	0.460204	-1.000000	-1.000000	-1.000000	-1.000000	-1.000000	-1.000000	-1.000000	65.241379	0.000000	-1.000000	-1.000000	1889191.000000	1773691335.634290
11330.235000	-6906.105000	14317.425000	14168.700000	-21418.875000	-14942.295000	7975.035000	12116.565000	-0.611105	-1.398863	-4.481786	-6.683145	-10.071943	-9.214243	2.055336	-3.145011	-2.975700	2.472120	-0.610400	0.873472	-0.020630	0.460204	-1.000000	-1.000000	-1.000000	-1.000000	-1.000000	-1.000000	-1.000000	65.241379	0.000000	-1.000000	-1.000000	1889192.000000	1773691335.634302
11324.115000	-6911.730000	14312.070000	14163.570000	-21425.040000	-14940.855000	7975.035000	12114.585000	2.155791	-0.662902	-3.511922	-5.696140	-8.586829	-7.089724	-0.850853	-2.153678	-2.975700	2.472120	-0.610400	0.873472	-0.020630	0.460204	-1.000000	-1.000000	-1.000000	-1.000000	-1.000000	-1.000000	-1.000000	65.241379	0.000000	-1.000000	-1.000000	1889193.000000	1773691335.637266
11333.115000	-6892.560000	14335.110000	14187.285000	-21411.990000	-14942.070000	7979.715000	12097.080000	5.247248	0.326472	-1.622906	-3.226079	-4.556007	-3.466648	-3.416720	0.262700	-2.975700	2.472120	-0.610400	0.873472	-0.020630	0.460204	-1.000000	-1.000000	-1.000000	-1.000000	-1.000000	-1.000000	-1.000000	65.241379	0.000000	-1.000000	-1.000000	1889194.000000	1773691335.637273
11350.845000	-6862.995000	14365.035000	14215.500000	-21393.450000	-14943.195000	7982.775000	12094.695000	8.187575	1.947104	1.273231	0.694197	1.270497	1.165884	-3.420375	1.585303	-2.975700	2.472120	-0.610400	0.873472	-0.020630	0.460204	-1.000000	-1.000000	-1.000000	-1.000000	-1.000000	-1.000000	-1.000000	65.241379	0.000000	-1.000000	-1.000000	1889195.000000	1773691335.641308
11368.530000	-6844.770000	14383.890000	14232.960000	-21377.160000	-14929.830000	7980.705000	12097.845000	10.600424	4.679746	5.295281	5.833770	7.592395	5.545165	-1.130585	0.933422	-2.975700	2.472120	-0.610400	0.873472	-0.020630	0.460204	-1.000000	-1.000000	-1.000000	-1.000000	-1.000000	-1.000000	-1.000000	65.241379	0.000000	-1.000000	-1.000000	1889196.000000	1773691335.641320
11360.070000	-6864.930000	14363.370000	14212.755000	-21392.280000	-14940.090000	7987.185000	12101.580000	10.927688	7.013896	8.678999	10.138613	12.239335	8.714997	1.411112	-0.546623	-2.975700	2.472120	-0.610400	0.873472	-0.020630	0.460204	-1.000000	-1.000000	-1.000000	-1.000000	-1.000000	-1.000000	-1.000000	65.241379	0.000000	-1.000000	-1.000000	1889197.000000	1773691335.645420
11343.960000	-6895.215000	14321.745000	14167.710000	-21426.390000	-14961.825000	7991.595000	12107.835000	6.630109	5.290509	7.490057	9.543892	12.042409	9.404940	2.465664	-1.520091	-2.975700	2.472120	-0.610400	0.873472	-0.020630	0.460204	-1.000000	-1.000000	-1.000000	-1.000000	-1.000000	-1.000000	-1.000000	65.241379	0.000000	-1.000000	-1.000000	1889198.000000	1773691335.645428
11322.720000	-6901.830000	14307.480000	14149.530000	-21443.220000	-14976.540000	7977.600000	12116.430000	-2.389963	-1.885048	-0.196975	1.911920	5.665823	6.686636	1.750029	-1.172551	-2.975700	2.472120	-0.610400	0.873472	-0.020630	0.460204	-1.000000	-1.000000	-1.000000	-1.000000	-1.000000	-1.000000	-1.000000	65.241379	0.000000	-1.000000	-1.000000	1889199.000000	1773691335.649404
11311.335000	-6902.730000	14315.760000	14166.495000	-21413.745000	-14939.370000	7986.510000	12074.310000	-12.227589	-10.391838	-10.215181	-8.741898	-3.418400	2.055745	0.101102	-0.212282	-2.975700	2.472120	-0.610400	0.873472	-0.020630	0.460204	-1.000000	-1.000000	-1.000000	-1.000000	-1.000000	-1.000000	-1.000000	65.241379	0.000000	-1.000000	-1.000000	1889200.000000	1773691335.649417
11346.795000	-6889.680000	14335.110000	14187.870000	-21398.085000	-14927.490000	7985.385000	12083.625000	-17.174943	-13.960795	-14.965654	-14.403838	-8.821510	-1.148011	-1.142212	-1.077024	-5.081580	2.609460	-0.885080	0.870664	-0.016968	0.459227	-1.000000	-1.000000	-1.000000	-1.000000	-1.000000	-1.000000	-1.000000	65.241379	0.000000	-1.000000	-1.000000	1889201.000000	1773691335.656790
11350.845000	-6910.065000	14309.640000	14159.880000	-21431.385000	-14960.070000	7959.600000	12131.730000	-13.301915	-10.115055	-10.870673	-10.973330	-7.667213	-1.815805	-1.465737	-3.204456	-5.081580	2.609460	-0.885080	0.870664	-0.016968	0.459227	-1.000000	-1.000000	-1.000000	-1.000000	-1.000000	-1.000000	-1.000000	65.241379	0.000000	-1.000000	-1.000000	1889202.000000	1773691335.656802
11319.345000	-6930.855000	14293.170000	14146.245000	-21439.305000	-14963.715000	7958.430000	12137.760000	-2.851113	-2.642703	-2.310419	-2.827030	-3.682723	-2.323159	-1.824600	-1.943453	-5.081580	2.609460	-0.885080	0.870664	-0.016968	0.459227	-1.000000	-1.000000	-1.000000	-1.000000	-1.000000	-1.000000	-1.000000	65.241379	0.000000	-1.000000	-1.000000	1889203.000000	1773691335.657541
11325.015000	-6920.640000	14305.005000	14158.215000	-21426.030000	-14949.270000	7967.610000	12122.370000	6.494674	2.492250	3.588267	2.828124	-1.666364	-4.078426	-2.483262	3.773470	-5.081580	2.609460	-0.885080	0.870664	-0.016968	0.459227	-1.000000	-1.000000	-1.000000	-1.000000	-1.000000	-1.000000	-1.000000	65.241379	0.000000	-1.000000	-1.000000	1889204.000000	1773691335.657551
11294.460000	-6908.670000	14319.630000	14172.120000	-21409.290000	-14932.080000	7977.375000	12108.465000	8.871327	3.716431	4.892160	4.142471	-1.607187	-5.089740	-2.001193	8.522419	-5.081580	2.609460	-0.885080	0.870664	-0.016968	0.459227	-1.000000	-1.000000	-1.000000	-1.000000	-1.000000	-1.000000	-1.000000	65.241379	0.000000	-1.000000	-1.000000	1889205.000000	1773691335.663830
11284.920000	-6895.215000	14335.560000	14186.835000	-21396.015000	-14931.990000	7979.445000	12092.985000	4.406341	4.357047	5.267163	4.731375	-0.126193	-3.002027	0.343495	6.932206	-5.081580	2.609460	-0.885080	0.870664	-0.016968	0.459227	-1.000000	-1.000000	-1.000000	-1.000000	-1.000000	-1.000000	-1.000000	65.241379	0.000000	-1.000000	-1.000000	1889206.000000	1773691335.663841
11319.660000	-6893.730000	14333.040000	14180.355000	-21412.170000	-14947.020000	7967.970000	12098.250000	-1.487279	7.445194	8.200144	7.906552	4.570559	1.787384	3.120841	-0.664888	-5.081580	2.609460	-0.885080	0.870664	-0.016968	0.459227	-1.000000	-1.000000	-1.000000	-1.000000	-1.000000	-1.000000	-1.000000	65.241379	0.000000	-1.000000	-1.000000	1889207.000000	1773691335.668594
11343.375000	-6901.335000	14322.555000	14171.940000	-21421.215000	-14945.400000	7967.205000	12105.990000	-1.827882	11.682301	12.325953	12.131939	9.692712	6.055186	4.390786	-8.602242	-5.081580	2.609460	-0.885080	0.870664	-0.016968	0.459227	-1.000000	-1.000000	-1.000000	-1.000000	-1.000000	-1.000000	-1.000000	65.241379	0.000000	-1.000000	-1.000000	1889208.000000	1773691335.668604
11366.730000	-6895.305000	14326.830000	14176.575000	-21420.720000	-14953.860000	7975.935000	12098.430000	5.126185	12.754720	12.671057	12.309948	10.037290	6.015155	3.610635	-10.858713	-5.081580	2.609460	-0.885080	0.870664	-0.016968	0.459227	-1.000000	-1.000000	-1.000000	-1.000000	-1.000000	-1.000000	-1.000000	65.241379	0.000000	-1.000000	-1.000000	1889209.000000	1773691335.669605
11364.345000	-6896.385000	14326.695000	14178.285000	-21415.860000	-14950.845000	7980.120000	12116.835000	13.281887	8.193405	6.545759	5.859427	3.983294	0.896768	1.917107	-6.435545	-5.081580	2.609460	-0.885080	0.870664	-0.016968	0.459227	-1.000000	-1.000000	-1.000000	-1.000000	-1.000000	-1.000000	-1.000000	65.241379	0.000000	-1.000000	-1.000000	1889210.000000	1773691335.669616
11356.560000	-6893.955000	14329.395000	14181.525000	-21409.740000	-14938.065000	7980.525000	12121.110000	14.761485	-0.059236	-3.202970	-3.976046	-4.098784	-5.108696	0.946864	0.565595	-4.135460	2.670500	-1.602300	0.871030	-0.017273	0.457213	-1.000000	-1.000000	-1.000000	-1.000000	-1.000000	-1.000000	-1.000000	65.241379	0.000000	-1.000000	-1.000000	1889211.000000	1773691335.674443
11340.585000	-6900.615000	14325.120000	14176.575000	-21418.965000	-14950.305000	7978.140000	12118.770000	7.205139	-7.842238	-11.259480	-11.640126	-8.788569	-6.984314	0.937715	5.593288	-4.135460	2.670500	-1.602300	0.871030	-0.017273	0.457213	-1.000000	-1.000000	-1.000000	-1.000000	-1.000000	-1.000000	-1.000000	65.241379	0.000000	-1.000000	-1.000000	1889212.000000	1773691335.674456
11344.995000	-6895.080000	14332.680000	14183.865000	-21411.765000	-14943.690000	7986.015000	12118.545000	-5.227567	-12.372566	-14.532419	-14.253116	-8.912861	-4.515342	0.542760	7.070179	-4.135460	2.670500	-1.602300	0.871030	-0.017273	0.457213	-1.000000	-1.000000	-1.000000	-1.000000	-1.000000	-1.000000	-1.000000	65.241379	0.000000	-1.000000	-1.000000	1889213.000000	1773691335.677183
11344.275000	-6890.625000	14332.905000	14178.195000	-21419.370000	-14947.965000	7985.385000	12109.770000	-15.397741	-12.966805	-13.020488	-12.243442	-6.569027	-0.987156	-1.182146	5.896864	-4.135460	2.670500	-1.602300	0.871030	-0.017273	0.457213	-1.000000	-1.000000	-1.000000	-1.000000	-1.000000	-1.000000	-1.000000	65.241379	0.000000	-1.000000	-1.000000	1889214.000000	1773691335.677194
11337.120000	-6897.915000	14324.445000	14170.140000	-21420.405000	-14941.215000	7984.440000	12103.245000	-18.085282	-9.978083	-8.188189	-7.354753	-3.545720	1.581236	-3.604146	3.278035	-4.135460	2.670500	-1.602300	0.871030	-0.017273	0.457213	-1.000000	-1.000000	-1.000000	-1.000000	-1.000000	-1.000000	-1.000000	65.241379	0.000000	-1.000000	-1.000000	1889215.000000	1773691335.681367
11337.210000	-6896.250000	14331.060000	14180.985000	-21407.895000	-14931.045000	7981.695000	12104.370000	-13.684052	-4.569934	-1.787945	-1.140358	0.120275	3.621516	-5.066126	-0.065990	-4.135460	2.670500	-1.602300	0.871030	-0.017273	0.457213	-1.000000	-1.000000	-1.000000	-1.000000	-1.000000	-1.000000	-1.000000	65.241379	0.000000	-1.000000	-1.000000	1889216.000000	1773691335.681378
11332.980000	-6901.200000	14326.740000	14176.080000	-21421.890000	-14955.210000	7970.580000	12103.335000	-6.570677	1.417081	4.464156	5.036273	4.377577	5.163351	-4.594706	-3.109834	-4.135460	2.670500	-1.602300	0.871030	-0.017273	0.457213	-1.000000	-1.000000	-1.000000	-1.000000	-1.000000	-1.000000	-1.000000	65.241379	0.000000	-1.000000	-1.000000	1889217.000000	1773691335.690367
11339.685000	-6892.740000	14332.365000	14179.860000	-21423.645000	-14956.560000	7970.040000	12105.990000	-0.613659	5.992930	8.611162	9.088216	7.087576	4.379905	-2.970620	-4.546415	-4.135460	2.670500	-1.602300	0.871030	-0.017273	0.457213	-1.000000	-1.000000	-1.000000	-1.000000	-1.000000	-1.000000	-1.000000	65.241379	0.000000	-1.000000	-1.000000	1889218.000000	1773691335.690378
11340.855000	-6887.970000	14338.035000	14187.645000	-21410.055000	-14932.845000	7968.870000	12098.160000	3.178979	8.001069	9.347306	9.421815	6.390913	1.054798	-1.223432	-4.359197	-4.135460	2.670500	-1.602300	0.871030	-0.017273	0.457213	-1.000000	-1.000000	-1.000000	-1.000000	-1.000000	-1.000000	-1.000000	65.241379	0.000000	-1.000000	-1.000000	1889219.000000	1773691335.690519
11338.380000	-6875.910000	14352.975000	14202.135000	-21395.790000	-14921.010000	7958.520000	12087.045000	5.972306	7.763015	7.335297	6.848215	3.581372	-1.799930	0.449202	-3.838113	-4.135460	2.670500	-1.602300	0.871030	-0.017273	0.457213	-1.000000	-1.000000	-1.000000	-1.000000	-1.000000	-1.000000	-1.000000	65.241379	0.000000	-1.000000	-1.000000	1889220.000000	1773691335.690525
11324.745000	-6895.980000	14329.935000	14178.375000	-21414.915000	-14937.840000	7949.340000	12089.790000	8.378368	5.868789	3.905315	3.070720	0.849179	-2.069615	1.650375	-3.324541	-2.182180	2.426340	-1.220800	0.869627	-0.019226	0.457579	-1.000000	-1.000000	-1.000000	-1.000000	-1.000000	-1.000000	-1.000000	65.241379	0.000000	-1.000000	-1.000000	1889221.000000	1773691335.693440
11323.710000	-6917.265000	14305.230000	14156.595000	-21425.715000	-14938.920000	7968.420000	12106.845000	9.208829	1.829450	-0.955910	-1.670026	-1.729206	-1.157845	1.983414	-1.451517	-2.182180	2.426340	-1.220800	0.869627	-0.019226	0.457579	-1.000000	-1.000000	-1.000000	-1.000000	-1.000000	-1.000000	-1.000000	65.241379	0.000000	-1.000000	-1.000000	1889222.000000	1773691335.693477
11345.535000	-6889.455000	14334.300000	14184.855000	-21403.665000	-14929.020000	7997.985000	12118.680000	7.799719	-3.824457	-6.535421	-6.584715	-4.286432	-0.975550	2.526836	2.932598	-2.182180	2.426340	-1.220800	0.869627	-0.019226	0.457579	-1.000000	-1.000000	-1.000000	-1.000000	-1.000000	-1.000000	-1.000000	65.241379	0.000000	-1.000000	-1.000000	1889223.000000	1773691335.698681
11334.105000	-6899.850000	14325.165000	14176.395000	-21408.525000	-14935.320000	7991.370000	12105.810000	5.155082	-7.639451	-9.286752	-8.443870	-5.047603	-1.355339	4.583129	8.287024	-2.182180	2.426340	-1.220800	0.869627	-0.019226	0.457579	-1.000000	-1.000000	-1.000000	-1.000000	-1.000000	-1.000000	-1.000000	65.241379	0.000000	-1.000000	-1.000000	1889224.000000	1773691335.698693
11335.365000	-6897.645000	14328.405000	14178.285000	-21408.930000	-14933.115000	7988.805000	12107.070000	1.876545	-6.851357	-6.786583	-5.533791	-3.052880	-1.482229	6.915184	10.706539	-2.182180	2.426340	-1.220800	0.869627	-0.019226	0.457579	-1.000000	-1.000000	-1.000000	-1.000000	-1.000000	-1.000000	-1.000000	65.241379	0.000000	-1.000000	-1.000000	1889225.000000	1773691335.701402
11338.920000	-6893.325000	14330.925000	14179.275000	-21411.765000	-14930.190000	7985.475000	12112.245000	-2.007913	-2.452241	-0.873777	-0.157323	0.155708	-0.868757	6.750070	7.926802	-2.182180	2.426340	-1.220800	0.869627	-0.019226	0.457579	-1.000000	-1.000000	-1.000000	-1.000000	-1.000000	-1.000000	-1.000000	65.241379	0.000000	-1.000000	-1.000000	1889226.000000	1773691335.701412
11339.865000	-6893.190000	14330.520000	14178.555000	-21417.570000	-14936.895000	7990.830000	12115.440000	-5.595109	2.492069	4.676643	4.206460	2.419959	0.450431	3.132952	1.530662	-2.182180	2.426340	-1.220800	0.869627	-0.019226	0.457579	-1.000000	-1.000000	-1.000000	-1.000000	-1.000000	-1.000000	-1.000000	65.241379	0.000000	-1.000000	-1.000000	1889227.000000	1773691335.705633
11333.925000	-6892.965000	14332.320000	14182.290000	-21415.545000	-14939.550000	7989.165000	12103.470000	-7.467037	5.184146	6.956885	5.443917	2.354644	1.062365	-2.167021	-5.125694	-2.182180	2.426340	-1.220800	0.869627	-0.019226	0.457579	-1.000000	-1.000000	-1.000000	-1.000000	-1.000000	-1.000000	-1.000000	65.241379	0.000000	-1.000000	-1.000000	1889228.000000	1773691335.705644
11342.115000	-6878.430000	14345.280000	14194.440000	-21409.515000	-14943.240000	7989.840000	12098.880000	-6.593717	4.793943	5.504077	3.754281	0.284448	-0.217322	-6.327029	-9.288230	-2.182180	2.426340	-1.220800	0.869627	-0.019226	0.457579	-1.000000	-1.000000	-1.000000	-1.000000	-1.000000	-1.000000	-1.000000	65.241379	0.000000	-1.000000	-1.000000	1889229.000000	1773691335.717486
11340.945000	-6880.815000	14343.975000	14195.385000	-21407.220000	-14944.050000	7994.295000	12101.220000	-2.926832	2.961501	2.560996	1.505097	-1.516158	-2.153599	-7.565713	-9.753469	-2.182180	2.426340	-1.220800	0.869627	-0.019226	0.457579	-1.000000	-1.000000	-1.000000	-1.000000	-1.000000	-1.000000	-1.000000	65.241379	0.000000	-1.000000	-1.000000	1889230.000000	1773691335.717498
11340.180000	-6883.065000	14340.285000	14192.190000	-21403.845000	-14934.465000	7996.230000	12098.655000	1.811005	1.491343	0.531599	0.702936	-1.112142	-2.488766	-6.332706	-7.108891	-2.960440	2.639980	-1.800680	0.869627	-0.018372	0.458617	-1.000000	-1.000000	-1.000000	-1.000000	-1.000000	-1.000000	-1.000000	65.241379	0.000000	-1.000000	-1.000000	1889231.000000	1773691335.717512
11336.715000	-6891.165000	14327.325000	14179.140000	-21412.710000	-14941.395000	7987.635000	12098.835000	4.690844	0.094758	-0.762512	0.539237	0.752996	-0.607721	-4.576948	-2.995601	-2.960440	2.639980	-1.800680	0.869627	-0.018372	0.458617	-1.000000	-1.000000	-1.000000	-1.000000	-1.000000	-1.000000	-1.000000	65.241379	0.000000	-1.000000	-1.000000	1889232.000000	1773691335.717517
11324.250000	-6906.420000	14309.685000	14160.195000	-21435.615000	-14961.960000	7979.715000	12105.360000	3.994553	-2.258062	-2.860892	-1.103935	1.548240	1.789250	-3.434169	1.288927	-2.960440	2.639980	-1.800680	0.869627	-0.018372	0.458617	-1.000000	-1.000000	-1.000000	-1.000000	-1.000000	-1.000000	-1.000000	65.241379	0.000000	-1.000000	-1.000000	1889233.000000	1773691335.719131
11319.480000	-6913.800000	14303.520000	14154.030000	-21444.930000	-14970.780000	7968.870000	12115.305000	0.492735	-5.196381	-5.791275	-4.476404	-0.171904	2.401119	-2.365474	5.100785	-2.960440	2.639980	-1.800680	0.869627	-0.018372	0.458617	-1.000000	-1.000000	-1.000000	-1.000000	-1.000000	-1.000000	-1.000000	65.241379	0.000000	-1.000000	-1.000000	1889234.000000	1773691335.719142
11338.425000	-6902.055000	14317.245000	14171.580000	-21422.520000	-14936.040000	7978.050000	12110.130000	-3.255142	-6.990691	-7.552251	-7.183708	-2.809244	1.316371	-0.475825	7.449177	-2.960440	2.639980	-1.800680	0.869627	-0.018372	0.458617	-1.000000	-1.000000	-1.000000	-1.000000	-1.000000	-1.000000	-1.000000	65.241379	0.000000	-1.000000	-1.000000	1889235.000000	1773691335.721580
11357.460000	-6892.920000	14329.170000	14183.685000	-21406.860000	-14913.765000	7975.620000	12100.500000	-4.114570	-5.733845	-5.780527	-6.177314	-2.940714	1.326920	2.397199	6.947860	-2.960440	2.639980	-1.800680	0.869627	-0.018372	0.458617	-1.000000	-1.000000	-1.000000	-1.000000	-1.000000	-1.000000	-1.000000	65.241379	0.000000	-1.000000	-1.000000	1889236.000000	1773691335.721590
11362.455000	-6874.695000	14349.915000	14202.945000	-21389.400000	-14910.975000	7973.640000	12109.635000	-0.698072	-1.038968	-0.153972	-0.856623	0.794639	3.890400	5.386068	3.723055	-2.960440	2.639980	-1.800680	0.869627	-0.018372	0.458617	-1.000000	-1.000000	-1.000000	-1.000000	-1.000000	-1.000000	-1.000000	65.241379	0.000000	-1.000000	-1.000000	1889237.000000	1773691335.725625
11334.780000	-6878.070000	14342.670000	14189.760000	-21416.490000	-14954.355000	7972.200000	12110.850000	4.350442	4.989870	6.638025	5.820170	5.649780	6.199789	7.033079	0.018115	-2.960440	2.639980	-1.800680	0.869627	-0.018372	0.458617	-1.000000	-1.000000	-1.000000	-1.000000	-1.000000	-1.000000	-1.000000	65.241379	0.000000	-1.000000	-1.000000	1889238.000000	1773691335.725636
11325.645000	-6881.490000	14337.855000	14182.560000	-21431.880000	-14979.060000	7968.960000	12106.530000	6.176095	8.986997	10.613330	9.510525	6.962063	3.722716	6.217878	-2.322031	-2.960440	2.639980	-1.800680	0.869627	-0.018372	0.458617	-1.000000	-1.000000	-1.000000	-1.000000	-1.000000	-1.000000	-1.000000	65.241379	0.000000	-1.000000	-1.000000	1889239.000000	1773691335.729356
11335.635000	-6893.010000	14328.135000	14179.185000	-21411.630000	-14928.570000	7991.235000	12115.170000	2.943090	8.561548	9.338801	7.934923	3.012363	-3.530985	3.231068	-3.167107	-2.960440	2.639980	-1.800680	0.869627	-0.018372	0.458617	-1.000000	-1.000000	-1.000000	-1.000000	-1.000000	-1.000000	-1.000000	65.241379	0.000000	-1.000000	-1.000000	1889240.000000	1773691335.729362
11338.020000	-6899.850000	14323.455000	14180.265000	-21397.140000	-14909.895000	7996.185000	12120.615000	-2.243141	3.897795	3.686730	2.690617	-2.450062	-8.911994	0.279786	-2.772985	-1.388660	3.296160	-1.770160	0.871336	-0.019897	0.456420	-1.000000	-1.000000	-1.000000	-1.000000	-1.000000	-1.000000	-1.000000	65.241379	0.000000	-1.000000	-1.000000	1889241.000000	1773691335.735191
11344.950000	-6889.275000	14336.100000	14190.975000	-21400.245000	-14927.130000	7990.200000	12120.885000	-4.939175	-1.960527	-2.592742	-2.178979	-4.296446	-6.817765	-0.629138	-1.519270	-1.388660	3.296160	-1.770160	0.871336	-0.019897	0.456420	-1.000000	-1.000000	-1.000000	-1.000000	-1.000000	-1.000000	-1.000000	65.241379	0.000000	-1.000000	-1.000000	1889242.000000	1773691335.735201
11348.100000	-6887.970000	14338.890000	14196.510000	-21409.290000	-14944.320000	7989.615000	12114.855000	-3.570767	-5.333890	-5.776623	-3.758846	-1.906633	0.027319	-0.024597	-0.514763	-1.388660	3.296160	-1.770160	0.871336	-0.019897	0.456420	-1.000000	-1.000000	-1.000000	-1.000000	-1.000000	-1.000000	-1.000000	65.241379	0.000000	-1.000000	-1.000000	1889243.000000	1773691335.738468
11330.010000	-6894.180000	14330.565000	14187.510000	-21415.410000	-14943.780000	7981.470000	12089.430000	-0.546361	-5.278575	-5.438993	-2.767574	0.718381	4.223804	0.002504	-0.903165	-1.388660	3.296160	-1.770160	0.871336	-0.019897	0.456420	-1.000000	-1.000000	-1.000000	-1.000000	-1.000000	-1.000000	-1.000000	65.241379	0.000000	-1.000000	-1.000000	1889244.000000	1773691335.738478
11327.175000	-6891.525000	14330.385000	14183.010000	-21423.645000	-14951.250000	7975.755000	12089.520000	0.424964	-3.734107	-4.106827	-2.248950	-0.192991	1.958093	-1.776513	-2.585950	-1.388660	3.296160	-1.770160	0.871336	-0.019897	0.456420	-1.000000	-1.000000	-1.000000	-1.000000	-1.000000	-1.000000	-1.000000	65.241379	0.000000	-1.000000	-1.000000	1889245.000000	1773691335.743766
11335.545000	-6901.515000	14319.000000	14173.155000	-21428.190000	-14954.805000	7976.070000	12109.680000	-1.207989	-2.759402	-3.933089	-3.904712	-4.348054	-3.887116	-4.489033	-3.676068	-1.388660	3.296160	-1.770160	0.871336	-0.019897	0.456420	-1.000000	-1.000000	-1.000000	-1.000000	-1.000000	-1.000000	-1.000000	65.241379	0.000000	-1.000000	-1.000000	1889246.000000	1773691335.743777
11344.635000	-6900.570000	14319.180000	14173.560000	-21425.940000	-14952.735000	7967.835000	12117.195000	-2.095019	-2.620247	-4.536113	-6.146494	-7.605506	-6.934731	-6.148018	-1.959278	-1.388660	3.296160	-1.770160	0.871336	-0.019897	0.456420	-1.000000	-1.000000	-1.000000	-1.000000	-1.000000	-1.000000	-1.000000	65.241379	0.000000	-1.000000	-1.000000	1889247.000000	1773691335.745253
11345.715000	-6891.660000	14326.110000	14179.635000	-21418.605000	-14946.480000	7971.435000	12118.185000	0.379930	-1.849505	-3.680457	-5.781753	-6.000285	-3.599652	-5.701529	2.413463	-1.388660	3.296160	-1.770160	0.871336	-0.019897	0.456420	-1.000000	-1.000000	-1.000000	-1.000000	-1.000000	-1.000000	-1.000000	65.241379	0.000000	-1.000000	-1.000000	1889248.000000	1773691335.745263
11326.950000	-6905.340000	14313.960000	14170.230000	-21422.835000	-14946.435000	7976.700000	12111.885000	4.280268	0.754343	-0.061328	-1.623675	-0.088669	3.069446	-3.513028	6.443675	-1.388660	3.296160	-1.770160	0.871336	-0.019897	0.456420	-1.000000	-1.000000	-1.000000	-1.000000	-1.000000	-1.000000	-1.000000	65.241379	0.000000	-1.000000	-1.000000	1889249.000000	1773691335.749315
11318.085000	-6899.085000	14321.880000	14177.070000	-21425.265000	-14950.080000	7980.480000	12094.155000	5.411766	4.279663	4.899470	4.177949	5.827953	7.247092	-0.294678	6.747480	-1.388660	3.296160	-1.770160	0.871336	-0.019897	0.456420	-1.000000	-1.000000	-1.000000	-1.000000	-1.000000	-1.000000	-1.000000	65.241379	0.000000	-1.000000	-1.000000	1889250.000000	1773691335.749328
11288.655000	-6891.615000	14331.735000	14189.940000	-21410.820000	-14932.575000	7990.560000	12062.745000	1.885821	6.658302	8.489243	8.452256	8.581832	7.133534	3.483848	2.129894	-2.060100	2.990960	-1.983800	0.873045	-0.019592	0.455016	-1.000000	-1.000000	-1.000000	-1.000000	-1.000000	-1.000000	-1.000000	65.241379	0.000000	-1.000000	-1.000000	1889251.000000	1773691335.762349
11270.160000	-6880.005000	14346.540000	14203.935000	-21396.555000	-14915.655000	7992.720000	12045.645000	-4.697474	6.732127	9.122879	9.555077	8.395419	5.337006	7.000845	-5.291501	-2.060100	2.990960	-1.983800	0.873045	-0.019592	0.455016	-1.000000	-1.000000	-1.000000	-1.000000	-1.000000	-1.000000	-1.000000	65.241379	0.000000	-1.000000	-1.000000	1889252.000000	1773691335.762361
11321.955000	-6872.445000	14351.355000	14207.895000	-21394.440000	-14914.305000	7978.770000	12060.585000	-9.599790	4.836239	7.032615	7.718172	6.686970	3.959185	8.573009	-10.446860	-2.060100	2.990960	-1.983800	0.873045	-0.019592	0.455016	-1.000000	-1.000000	-1.000000	-1.000000	-1.000000	-1.000000	-1.000000	65.241379	0.000000	-1.000000	-1.000000	1889253.000000	1773691335.762375
11324.385000	-6918.570000	14297.715000	14153.805000	-21447.990000	-14966.325000	7940.970000	12089.520000	-7.489593	1.280951	2.527547	3.264063	3.219253	1.833559	6.246718	-8.573889	-2.060100	2.990960	-1.983800	0.873045	-0.019592	0.455016	-1.000000	-1.000000	-1.000000	-1.000000	-1.000000	-1.000000	-1.000000	65.241379	0.000000	-1.000000	-1.000000	1889254.000000	1773691335.762381
11345.265000	-6919.290000	14295.870000	14151.645000	-21445.605000	-14961.195000	7939.530000	12113.190000	1.691109	-4.109142	-4.425055	-3.761059	-2.944190	-2.829502	-0.230172	0.274895	-2.060100	2.990960	-1.983800	0.873045	-0.019592	0.455016	-1.000000	-1.000000	-1.000000	-1.000000	-1.000000	-1.000000	-1.000000	65.241379	0.000000	-1.000000	-1.000000	1889255.000000	1773691335.762387
11366.820000	-6893.820000	14323.455000	14180.895000	-21413.880000	-14937.480000	7969.635000	12129.210000	12.149700	-9.158884	-10.957653	-10.427459	-9.253403	-7.976606	-7.160058	10.955466	-2.060100	2.990960	-1.983800	0.873045	-0.019592	0.455016	-1.000000	-1.000000	-1.000000	-1.000000	-1.000000	-1.000000	-1.000000	65.241379	0.000000	-1.000000	-1.000000	1889256.000000	1773691335.762392
11339.505000	-6909.390000	14309.460000	14166.225000	-21429.360000	-14949.315000	7988.040000	12122.460000	17.310117	-9.902428	-12.164148	-11.824777	-10.943420	-9.531542	-9.015839	17.093731	-2.060100	2.990960	-1.983800	0.873045	-0.019592	0.455016	-1.000000	-1.000000	-1.000000	-1.000000	-1.000000	-1.000000	-1.000000	65.241379	0.000000	-1.000000	-1.000000	1889257.000000	1773691335.765382
11344.005000	-6906.555000	14310.495000	14163.525000	-21442.905000	-14968.395000	7994.070000	12121.380000	13.709284	-5.406773	-6.890366	-6.933704	-7.274563	-7.082790	-4.226924	14.992964	-2.060100	2.990960	-1.983800	0.873045	-0.019592	0.455016	-1.000000	-1.000000	-1.000000	-1.000000	-1.000000	-1.000000	-1.000000	65.241379	0.000000	-1.000000	-1.000000	1889258.000000	1773691335.765397
11355.435000	-6877.800000	14339.115000	14187.420000	-21432.735000	-14971.095000	7973.370000	12117.150000	3.569356	1.700280	1.491769	0.737361	-1.574767	-3.339907	3.023143	5.949261	-2.060100	2.990960	-1.983800	0.873045	-0.019592	0.455016	-1.000000	-1.000000	-1.000000	-1.000000	-1.000000	-1.000000	-1.000000	65.241379	0.000000	-1.000000	-1.000000	1889259.000000	1773691335.771918
11341.890000	-6898.725000	14317.740000	14169.645000	-21439.035000	-14960.655000	7976.070000	12111.210000	-6.719281	7.739562	8.377973	6.839349	3.046738	-0.102795	6.878986	-4.693357	-2.060100	2.990960	-1.983800	0.873045	-0.019592	0.455016	-1.000000	-1.000000	-1.000000	-1.000000	-1.000000	-1.000000	-1.000000	65.241379	0.000000	-1.000000	-1.000000	1889260.000000	1773691335.771930
11327.805000	-6917.940000	14304.105000	14164.785000	-21426.750000	-14938.380000	7983.000000	12105.135000	-12.689020	8.931656	9.718915	8.096338	5.086236	2.591733	5.257536	-11.708641	-3.357200	4.532220	-2.701020	0.873594	-0.017944	0.454650	-1.000000	-1.000000	-1.000000	-1.000000	-1.000000	-1.000000	-1.000000	65.241379	0.000000	-1.000000	-1.000000	1889261.000000	1773691335.774196
11336.625000	-6898.815000	14319.180000	14175.855000	-21422.205000	-14940.540000	7983.270000	12099.330000	-14.462661	4.401842	5.078717	4.638103	5.104736	5.482103	1.186604	-13.591671	-3.357200	4.532220	-2.701020	0.873594	-0.017944	0.454650	-1.000000	-1.000000	-1.000000	-1.000000	-1.000000	-1.000000	-1.000000	65.241379	0.000000	-1.000000	-1.000000	1889262.000000	1773691335.774204
11338.245000	-6898.860000	14317.425000	14172.255000	-21422.430000	-14938.695000	7986.960000	12105.945000	-13.372838	-1.280826	-0.555381	0.810348	5.297697	8.857873	-1.079561	-12.272836	-3.357200	4.532220	-2.701020	0.873594	-0.017944	0.454650	-1.000000	-1.000000	-1.000000	-1.000000	-1.000000	-1.000000	-1.000000	65.241379	0.000000	-1.000000	-1.000000	1889263.000000	1773691335.777408
11323.755000	-6917.715000	14299.560000	14153.400000	-21439.755000	-14953.320000	7979.265000	12105.045000	-9.940402	-3.514321	-2.662236	-0.236877	5.939816	10.901632	-0.559434	-9.852171	-3.357200	4.532220	-2.701020	0.873594	-0.017944	0.454650	-1.000000	-1.000000	-1.000000	-1.000000	-1.000000	-1.000000	-1.000000	65.241379	0.000000	-1.000000	-1.000000	1889264.000000	1773691335.777418
11309.535000	-6930.090000	14290.875000	14145.795000	-21448.080000	-14965.785000	7962.435000	12093.480000	-5.220360	-3.227169	-2.432789	-0.381663	4.119541	8.173171	-0.305950	-6.804782	-3.357200	4.532220	-2.701020	0.873594	-0.017944	0.454650	-1.000000	-1.000000	-1.000000	-1.000000	-1.000000	-1.000000	-1.000000	65.241379	0.000000	-1.000000	-1.000000	1889265.000000	1773691335.781350
11320.695000	-6921.000000	14299.785000	14154.840000	-21436.695000	-14954.805000	7964.235000	12084.255000	0.050160	-2.929320	-2.455480	-1.786834	-1.151665	0.284277	-3.249644	-2.857829	-3.357200	4.532220	-2.701020	0.873594	-0.017944	0.454650	-1.000000	-1.000000	-1.000000	-1.000000	-1.000000	-1.000000	-1.000000	65.241379	0.000000	-1.000000	-1.000000	1889266.000000	1773691335.781369
11350.935000	-6885.765000	14332.770000	14187.645000	-21402.450000	-14915.340000	7983.720000	12073.860000	6.426307	-2.035102	-2.097461	-2.824594	-5.738263	-7.271496	-7.492331	1.900808	-3.357200	4.532220	-2.701020	0.873594	-0.017944	0.454650	-1.000000	-1.000000	-1.000000	-1.000000	-1.000000	-1.000000	-1.000000	65.241379	0.000000	-1.000000	-1.000000	1889267.000000	1773691335.786612
11351.160000	-6888.240000	14328.630000	14186.070000	-21401.415000	-14908.995000	7977.780000	12100.185000	13.366401	0.646852	-0.109834	-1.428520	-5.398174	-8.460949	-8.080612	7.119588	-3.357200	4.532220	-2.701020	0.873594	-0.017944	0.454650	-1.000000	-1.000000	-1.000000	-1.000000	-1.000000	-1.000000	-1.000000	65.241379	0.000000	-1.000000	-1.000000	1889268.000000	1773691335.786628
11324.880000	-6905.340000	14312.835000	14170.725000	-21422.115000	-14931.270000	7976.565000	12127.770000	17.616440	3.784203	2.339388	1.283114	-1.456111	-4.171922	-3.400518	12.744236	-3.357200	4.532220	-2.701020	0.873594	-0.017944	0.454650	-1.000000	-1.000000	-1.000000	-1.000000	-1.000000	-1.000000	-1.000000	65.241379	0.000000	-1.000000	-1.000000	1889269.000000	1773691335.791997
11320.335000	-6904.935000	14314.455000	14173.920000	-21424.275000	-14953.185000	7971.345000	12116.070000	15.319729	4.876909	3.102120	2.563621	1.099295	-0.966952	3.222219	17.418218	-3.357200	4.532220	-2.701020	0.873594	-0.017944	0.454650	-1.000000	-1.000000	-1.000000	-1.000000	-1.000000	-1.000000	-1.000000	65.241379	0.000000	-1.000000	-1.000000	1889270.000000	1773691335.792010
11327.445000	-6896.970000	14322.060000	14181.615000	-21413.745000	-14938.245000	7977.330000	12097.935000	6.096766	3.105518	1.754870	1.575105	0.114434	-2.293398	7.836052	17.005156	-3.616620	4.562740	-1.968540	0.876341	-0.019775	0.453429	-1.000000	-1.000000	-1.000000	-1.000000	-1.000000	-1.000000	-1.000000	65.241379	0.000000	-1.000000	-1.000000	1889271.000000	1773691335.793348
11329.335000	-6899.040000	14318.055000	14175.180000	-21422.745000	-14944.995000	7979.670000	12097.935000	-5.450577	0.043057	-0.133828	-0.074985	-2.016674	-4.954234	8.936392	8.437508	-3.616620	4.562740	-1.968540	0.876341	-0.019775	0.453429	-1.000000	-1.000000	-1.000000	-1.000000	-1.000000	-1.000000	-1.000000	65.241379	0.000000	-1.000000	-1.000000	1889272.000000	1773691335.793360
11328.480000	-6901.605000	14315.310000	14170.455000	-21428.910000	-14947.425000	7983.765000	12101.220000	-13.151007	-2.166897	-1.106830	-0.945465	-2.730122	-4.790418	7.021720	-5.243128	-3.616620	4.562740	-1.968540	0.876341	-0.019775	0.453429	-1.000000	-1.000000	-1.000000	-1.000000	-1.000000	-1.000000	-1.000000	65.241379	0.000000	-1.000000	-1.000000	1889273.000000	1773691335.805626
11324.610000	-6910.695000	14306.310000	14162.085000	-21436.650000	-14955.075000	7983.495000	12104.010000	-13.683024	-2.705095	-1.165970	-1.165576	-1.897963	-1.371949	3.391406	-16.326473	-3.616620	4.562740	-1.968540	0.876341	-0.019775	0.453429	-1.000000	-1.000000	-1.000000	-1.000000	-1.000000	-1.000000	-1.000000	65.241379	0.000000	-1.000000	-1.000000	1889274.000000	1773691335.805637
11334.780000	-6898.410000	14318.505000	14175.450000	-21429.990000	-14954.220000	7981.200000	12112.740000	-8.291508	-2.312024	-1.213066	-1.486153	-0.673664	2.775602	-0.754458	-18.598680	-3.616620	4.562740	-1.968540	0.876341	-0.019775	0.453429	-1.000000	-1.000000	-1.000000	-1.000000	-1.000000	-1.000000	-1.000000	65.241379	0.000000	-1.000000	-1.000000	1889275.000000	1773691335.805650
11338.560000	-6891.840000	14327.145000	14184.675000	-21424.095000	-14948.190000	7985.745000	12105.405000	-1.303610	-2.257378	-1.950071	-2.249243	-0.107389	4.730637	-4.512416	-11.812776	-3.616620	4.562740	-1.968540	0.876341	-0.019775	0.453429	-1.000000	-1.000000	-1.000000	-1.000000	-1.000000	-1.000000	-1.000000	65.241379	0.000000	-1.000000	-1.000000	1889276.000000	1773691335.805654
11335.905000	-6901.515000	14317.245000	14176.035000	-21423.420000	-14934.015000	7985.835000	12098.925000	3.664678	-2.710801	-2.888751	-2.881025	-0.094107	3.911081	-6.669271	-1.654000	-3.616620	4.562740	-1.968540	0.876341	-0.019775	0.453429	-1.000000	-1.000000	-1.000000	-1.000000	-1.000000	-1.000000	-1.000000	65.241379	0.000000	-1.000000	-1.000000	1889277.000000	1773691335.805753
11319.435000	-6910.920000	14306.940000	14166.495000	-21426.795000	-14928.615000	7981.380000	12094.200000	5.732743	-2.548735	-2.795077	-2.442650	0.522972	2.668514	-6.243952	5.022718	-3.616620	4.562740	-1.968540	0.876341	-0.019775	0.453429	-1.000000	-1.000000	-1.000000	-1.000000	-1.000000	-1.000000	-1.000000	65.241379	0.000000	-1.000000	-1.000000	1889278.000000	1773691335.805766
11310.300000	-6906.195000	14313.960000	14175.495000	-21418.155000	-14927.265000	7982.145000	12084.210000	5.036854	-1.156048	-1.329619	-0.845581	2.209017	3.163994	-3.614791	5.792889	-3.616620	4.562740	-1.968540	0.876341	-0.019775	0.453429	-1.000000	-1.000000	-1.000000	-1.000000	-1.000000	-1.000000	-1.000000	65.241379	0.000000	-1.000000	-1.000000	1889279.000000	1773691335.809542
11333.745000	-6898.995000	14320.305000	14183.145000	-21404.655000	-14924.745000	7977.960000	12090.960000	2.165195	0.975586	0.918156	1.397704	4.234470	4.625722	-0.286796	3.181749	-3.616620	4.562740	-1.968540	0.876341	-0.019775	0.453429	-1.000000	-1.000000	-1.000000	-1.000000	-1.000000	-1.000000	-1.000000	65.241379	0.000000	-1.000000	-1.000000	1889280.000000	1773691335.809552
11333.835000	-6897.195000	14317.830000	14177.880000	-21410.370000	-14928.120000	7980.165000	12100.095000	-0.708084	3.193528	3.258852	3.747796	5.607051	4.681882	2.105856	0.945742	-0.259420	5.524120	-1.007160	0.879148	-0.024292	0.454039	-1.000000	-1.000000	-1.000000	-1.000000	-1.000000	-1.000000	-1.000000	65.241379	0.000000	-1.000000	-1.000000	1889281.000000	1773691335.813598
11340.945000	-6884.955000	14326.380000	14182.245000	-21418.515000	-14940.450000	7979.445000	12105.180000	-1.386766	5.061467	4.975596	5.343413	5.286314	2.124130	2.817334	1.001109	-0.259420	5.524120	-1.007160	0.879148	-0.024292	0.454039	-1.000000	-1.000000	-1.000000	-1.000000	-1.000000	-1.000000	-1.000000	65.241379	0.000000	-1.000000	-1.000000	1889282.000000	1773691335.813630
11349.405000	-6881.265000	14330.250000	14184.045000	-21424.860000	-14941.575000	7983.720000	12119.040000	0.220803	6.098723	5.465862	5.305738	2.529551	-2.303585	2.280378	2.920390	-0.259420	5.524120	-1.007160	0.879148	-0.024292	0.454039	-1.000000	-1.000000	-1.000000	-1.000000	-1.000000	-1.000000	-1.000000	65.241379	0.000000	-1.000000	-1.000000	1889283.000000	1773691335.817551
11338.110000	-6895.620000	14320.215000	14177.385000	-21439.035000	-14961.780000	7988.085000	12111.210000	2.017488	4.966951	3.867148	2.930517	-2.463006	-6.960736	1.406986	4.908686	-0.259420	5.524120	-1.007160	0.879148	-0.024292	0.454039	-1.000000	-1.000000	-1.000000	-1.000000	-1.000000	-1.000000	-1.000000	65.241379	0.000000	-1.000000	-1.000000	1889284.000000	1773691335.817587
11308.995000	-6897.015000	14321.970000	14181.165000	-21434.130000	-14958.810000	7976.565000	12103.020000	1.166605	0.493356	-0.327610	-1.649808	-8.065367	-10.381074	0.660959	4.863758	-0.259420	5.524120	-1.007160	0.879148	-0.024292	0.454039	-1.000000	-1.000000	-1.000000	-1.000000	-1.000000	-1.000000	-1.000000	65.241379	0.000000	-1.000000	-1.000000	1889285.000000	1773691335.823179
11291.445000	-6886.665000	14333.535000	14193.315000	-21419.415000	-14944.680000	7959.780000	12096.630000	-2.968664	-5.175827	-4.903413	-5.823354	-10.881750	-10.843774	-0.336558	1.755429	-0.259420	5.524120	-1.007160	0.879148	-0.024292	0.454039	-1.000000	-1.000000	-1.000000	-1.000000	-1.000000	-1.000000	-1.000000	65.241379	0.000000	-1.000000	-1.000000	1889286.000000	1773691335.823188
11316.780000	-6895.755000	14320.575000	14177.610000	-21433.005000	-14952.510000	7962.975000	12102.705000	-7.037923	-7.853714	-6.407085	-6.464650	-8.278403	-6.889170	-1.785798	-2.981090	-0.259420	5.524120	-1.007160	0.879148	-0.024292	0.454039	-1.000000	-1.000000	-1.000000	-1.000000	-1.000000	-1.000000	-1.000000	65.241379	0.000000	-1.000000	-1.000000	1889287.000000	1773691335.825462
11356.335000	-6896.295000	14317.290000	14171.445000	-21437.640000	-14957.415000	7970.310000	12113.055000	-6.144733	-6.293837	-4.547618	-3.991951	-1.960636	0.254239	-2.579800	-6.066578	-0.259420	5.524120	-1.007160	0.879148	-0.024292	0.454039	-1.000000	-1.000000	-1.000000	-1.000000	-1.000000	-1.000000	-1.000000	65.241379	0.000000	-1.000000	-1.000000	1889288.000000	1773691335.825483
11362.185000	-6894.630000	14320.485000	14175.225000	-21434.040000	-14961.330000	7973.055000	12103.020000	0.789656	-2.628307	-1.699656	-1.146625	3.792310	6.909131	-1.439573	-5.631492	-0.259420	5.524120	-1.007160	0.879148	-0.024292	0.454039	-1.000000	-1.000000	-1.000000	-1.000000	-1.000000	-1.000000	-1.000000	65.241379	0.000000	-1.000000	-1.000000	1889289.000000	1773691335.829766
11347.515000	-6895.665000	14315.310000	14169.330000	-21438.315000	-14959.080000	7984.620000	12086.685000	8.836772	0.779787	0.483779	0.747068	6.643238	10.243076	1.376992	-3.346571	-0.259420	5.524120	-1.007160	0.879148	-0.024292	0.454039	-1.000000	-1.000000	-1.000000	-1.000000	-1.000000	-1.000000	-1.000000	65.241379	0.000000	-1.000000	-1.000000	1889290.000000	1773691335.829809
11336.130000	-6902.730000	14306.715000	14162.670000	-21439.665000	-14952.105000	7991.505000	12095.820000	11.410902	2.576350	1.457079	1.721721	6.889741	10.074007	4.350540	-1.887627	-0.305200	4.913720	-1.083460	0.880186	-0.023987	0.455199	-1.000000	-1.000000	-1.000000	-1.000000	-1.000000	-1.000000	-1.000000	65.241379	0.000000	-1.000000	-1.000000	1889291.000000	1773691335.834673
11332.125000	-6907.995000	14305.275000	14161.995000	-21440.745000	-14957.055000	7975.170000	12107.655000	6.173658	2.303468	1.053567	1.758302	5.563704	7.672945	5.516170	-1.407623	-0.305200	4.913720	-1.083460	0.880186	-0.023987	0.455199	-1.000000	-1.000000	-1.000000	-1.000000	-1.000000	-1.000000	-1.000000	65.241379	0.000000	-1.000000	-1.000000	1889292.000000	1773691335.834687
11346.795000	-6898.770000	14316.075000	14172.750000	-21432.600000	-14948.010000	7973.550000	12117.645000	-2.916117	0.868518	0.079754	1.210234	3.544294	4.200995	3.406566	0.017494	-0.305200	4.913720	-1.083460	0.880186	-0.023987	0.455199	-1.000000	-1.000000	-1.000000	-1.000000	-1.000000	-1.000000	-1.000000	65.241379	0.000000	-1.000000	-1.000000	1889293.000000	1773691335.837540
11328.345000	-6913.530000	14305.230000	14164.830000	-21435.525000	-14948.910000	7957.395000	12100.320000	-8.955488	-0.037907	-0.084076	0.910724	1.382274	0.398398	-1.183607	3.081213	-0.305200	4.913720	-1.083460	0.880186	-0.023987	0.455199	-1.000000	-1.000000	-1.000000	-1.000000	-1.000000	-1.000000	-1.000000	65.241379	0.000000	-1.000000	-1.000000	1889294.000000	1773691335.837552
11312.955000	-6930.135000	14286.285000	14146.560000	-21449.205000	-14959.080000	7944.705000	12094.245000	-8.661590	-0.097559	0.526859	0.827543	-1.021344	-3.451479	-5.536667	5.679087	-0.305200	4.913720	-1.083460	0.880186	-0.023987	0.455199	-1.000000	-1.000000	-1.000000	-1.000000	-1.000000	-1.000000	-1.000000	65.241379	0.000000	-1.000000	-1.000000	1889295.000000	1773691335.841469
11328.480000	-6913.755000	14296.365000	14152.680000	-21447.090000	-14955.255000	7963.785000	12104.370000	-4.646269	-0.009631	0.879642	0.372499	-3.607853	-6.778688	-7.225752	5.489852	-0.305200	4.913720	-1.083460	0.880186	-0.023987	0.455199	-1.000000	-1.000000	-1.000000	-1.000000	-1.000000	-1.000000	-1.000000	65.241379	0.000000	-1.000000	-1.000000	1889296.000000	1773691335.841477
11329.515000	-6904.125000	14306.130000	14162.265000	-21436.470000	-14949.225000	7983.135000	12100.005000	-1.168602	0.645331	1.188374	0.105913	-5.100645	-7.989824	-5.005446	2.657654	-0.305200	4.913720	-1.083460	0.880186	-0.023987	0.455199	-1.000000	-1.000000	-1.000000	-1.000000	-1.000000	-1.000000	-1.000000	65.241379	0.000000	-1.000000	-1.000000	1889297.000000	1773691335.847984
11322.990000	-6895.350000	14315.445000	14170.905000	-21425.895000	-14944.365000	7989.210000	12095.235000	0.021659	2.476150	2.326661	1.051689	-4.033908	-5.887694	0.454190	-0.932041	-0.305200	4.913720	-1.083460	0.880186	-0.023987	0.455199	-1.000000	-1.000000	-1.000000	-1.000000	-1.000000	-1.000000	-1.000000	65.241379	0.000000	-1.000000	-1.000000	1889298.000000	1773691335.847994
11303.595000	-6903.630000	14312.610000	14170.770000	-21423.690000	-14939.595000	7992.945000	12088.170000	-0.111774	4.427466	3.947551	2.950768	-0.504353	-1.340260	6.001902	-3.460586	-0.305200	4.913720	-1.083460	0.880186	-0.023987	0.455199	-1.000000	-1.000000	-1.000000	-1.000000	-1.000000	-1.000000	-1.000000	65.241379	0.000000	-1.000000	-1.000000	1889299.000000	1773691335.850684
11314.170000	-6899.940000	14320.710000	14180.895000	-21411.360000	-14922.135000	8002.575000	12082.905000	0.133703	4.656045	4.703924	4.415237	3.668314	3.389221	8.278429	-4.414414	-0.305200	4.913720	-1.083460	0.880186	-0.023987	0.455199	-1.000000	-1.000000	-1.000000	-1.000000	-1.000000	-1.000000	-1.000000	65.241379	0.000000	-1.000000	-1.000000	1889300.000000	1773691335.850695
11345.625000	-6889.500000	14328.315000	14186.655000	-21407.580000	-14914.935000	8007.255000	12077.505000	2.092453	2.672659	3.674352	4.187219	6.222593	6.459901	6.659594	-4.494808	-2.838360	4.333840	-1.388660	0.880674	-0.021851	0.455870	-1.000000	-1.000000	-1.000000	-1.000000	-1.000000	-1.000000	-1.000000	65.241379	0.000000	-1.000000	-1.000000	1889301.000000	1773691335.853479
11368.305000	-6874.065000	14339.880000	14194.665000	-21408.840000	-14929.020000	7980.345000	12083.760000	6.328279	-0.075968	1.149563	1.979257	5.630542	6.635280	2.593025	-3.898647	-2.838360	4.333840	-1.388660	0.880674	-0.021851	0.455870	-1.000000	-1.000000	-1.000000	-1.000000	-1.000000	-1.000000	-1.000000	65.241379	0.000000	-1.000000	-1.000000	1889302.000000	1773691335.853520
11367.585000	-6869.655000	14339.565000	14191.785000	-21415.455000	-14934.195000	7971.345000	12117.735000	11.489706	-1.590342	-1.546009	-1.254533	1.836599	3.163442	-2.403260	-1.243283	-2.838360	4.333840	-1.388660	0.880674	-0.021851	0.455870	-1.000000	-1.000000	-1.000000	-1.000000	-1.000000	-1.000000	-1.000000	65.241379	0.000000	-1.000000	-1.000000	1889303.000000	1773691335.857706
11343.105000	-6893.415000	14313.645000	14166.315000	-21434.940000	-14949.090000	7972.200000	12129.885000	13.575455	-1.568486	-3.447654	-4.197103	-3.510607	-2.754997	-6.632463	4.438981	-2.838360	4.333840	-1.388660	0.880674	-0.021851	0.455870	-1.000000	-1.000000	-1.000000	-1.000000	-1.000000	-1.000000	-1.000000	65.241379	0.000000	-1.000000	-1.000000	1889304.000000	1773691335.857741
11311.020000	-6925.140000	14289.570000	14147.235000	-21441.915000	-14950.440000	7974.720000	12105.270000	7.877697	-2.485786	-5.413874	-6.698090	-8.171619	-8.071793	-8.556054	10.207160	-2.838360	4.333840	-1.388660	0.880674	-0.021851	0.455870	-1.000000	-1.000000	-1.000000	-1.000000	-1.000000	-1.000000	-1.000000	65.241379	0.000000	-1.000000	-1.000000	1889305.000000	1773691335.862769
11312.910000	-6916.950000	14297.805000	14152.500000	-21439.170000	-14954.310000	7977.420000	12095.415000	-5.544492	-6.326836	-8.290921	-8.912221	-10.397188	-10.085397	-7.894385	10.709309	-2.838360	4.333840	-1.388660	0.880674	-0.021851	0.455870	-1.000000	-1.000000	-1.000000	-1.000000	-1.000000	-1.000000	-1.000000	65.241379	0.000000	-1.000000	-1.000000	1889306.000000	1773691335.862778
11323.575000	-6910.380000	14301.675000	14154.705000	-21438.315000	-14953.950000	7984.665000	12107.430000	-18.802851	-10.490820	-10.079936	-9.341112	-9.067687	-7.895578	-5.124917	4.649509	-2.838360	4.333840	-1.388660	0.880674	-0.021851	0.455870	-1.000000	-1.000000	-1.000000	-1.000000	-1.000000	-1.000000	-1.000000	65.241379	0.000000	-1.000000	-1.000000	1889307.000000	1773691335.865512
11321.685000	-6919.380000	14294.070000	14148.810000	-21444.795000	-14957.415000	7978.410000	12104.190000	-22.370072	-10.289003	-7.908746	-6.250554	-4.377229	-2.756901	-1.051217	-3.568697	-2.838360	4.333840	-1.388660	0.880674	-0.021851	0.455870	-1.000000	-1.000000	-1.000000	-1.000000	-1.000000	-1.000000	-1.000000	65.241379	0.000000	-1.000000	-1.000000	1889308.000000	1773691335.865539
11328.885000	-6910.065000	14306.535000	14164.380000	-21428.370000	-14940.045000	7978.410000	12108.015000	-14.218205	-4.500063	-1.794135	-0.204703	1.823694	2.855128	2.854837	-8.898890	-2.838360	4.333840	-1.388660	0.880674	-0.021851	0.455870	-1.000000	-1.000000	-1.000000	-1.000000	-1.000000	-1.000000	-1.000000	65.241379	0.000000	-1.000000	-1.000000	1889309.000000	1773691335.869942
11333.385000	-6901.335000	14313.375000	14169.645000	-21427.245000	-14934.420000	7973.955000	12107.295000	-0.742536	3.888720	5.491646	6.354277	7.287101	7.135512	5.306389	-9.387856	-2.838360	4.333840	-1.388660	0.880674	-0.021851	0.455870	-1.000000	-1.000000	-1.000000	-1.000000	-1.000000	-1.000000	-1.000000	65.241379	0.000000	-1.000000	-1.000000	1889310.000000	1773691335.869952
11331.045000	-6894.765000	14323.005000	14180.760000	-21416.220000	-14925.645000	7969.185000	12105.945000	9.920951	10.681753	10.813015	10.889437	10.455142	9.538624	6.357045	-6.227273	-3.341940	3.692920	-2.121140	0.880674	-0.022095	0.456298	-1.000000	-1.000000	-1.000000	-1.000000	-1.000000	-1.000000	-1.000000	65.241379	0.000000	-1.000000	-1.000000	1889311.000000	1773691335.873379
11341.080000	-6885.585000	14332.185000	14189.220000	-21411.045000	-14928.030000	7965.180000	12113.460000	14.001614	13.343623	12.625020	12.224510	10.896529	9.922599	6.577489	-2.313095	-3.341940	3.692920	-2.121140	0.880674	-0.022095	0.456298	-1.000000	-1.000000	-1.000000	-1.000000	-1.000000	-1.000000	-1.000000	65.241379	0.000000	-1.000000	-1.000000	1889312.000000	1773691335.873389
11352.555000	-6881.355000	14332.500000	14186.610000	-21417.345000	-14941.395000	7975.305000	12125.070000	12.961599	12.154992	11.448231	10.849577	9.066978	7.887706	5.728159	0.427592	-3.341940	3.692920	-2.121140	0.880674	-0.022095	0.456298	-1.000000	-1.000000	-1.000000	-1.000000	-1.000000	-1.000000	-1.000000	65.241379	0.000000	-1.000000	-1.000000	1889313.000000	1773691335.877409
11346.345000	-6877.395000	14333.220000	14183.640000	-21422.070000	-14949.855000	7984.710000	12122.010000	9.872196	8.748579	8.232958	7.381986	5.171731	3.088377	3.436163	2.485680	-3.341940	3.692920	-2.121140	0.880674	-0.022095	0.456298	-1.000000	-1.000000	-1.000000	-1.000000	-1.000000	-1.000000	-1.000000	65.241379	0.000000	-1.000000	-1.000000	1889314.000000	1773691335.877420
11351.295000	-6862.185000	14349.195000	14196.870000	-21411.765000	-14942.430000	7982.865000	12104.415000	5.931382	4.087492	3.293120	2.007120	-0.477323	-3.335084	0.155861	4.391373	-3.341940	3.692920	-2.121140	0.880674	-0.022095	0.456298	-1.000000	-1.000000	-1.000000	-1.000000	-1.000000	-1.000000	-1.000000	65.241379	0.000000	-1.000000	-1.000000	1889315.000000	1773691335.881383
11331.855000	-6892.155000	14324.805000	14179.005000	-21418.470000	-14937.255000	7978.860000	12098.925000	0.748450	-1.694144	-2.888135	-4.359915	-6.171659	-8.378205	-3.286923	4.727840	-3.341940	3.692920	-2.121140	0.880674	-0.022095	0.456298	-1.000000	-1.000000	-1.000000	-1.000000	-1.000000	-1.000000	-1.000000	65.241379	0.000000	-1.000000	-1.000000	1889316.000000	1773691335.881392
11330.955000	-6892.695000	14324.355000	14179.320000	-21417.120000	-14927.265000	7973.505000	12084.255000	-5.480787	-8.167443	-9.164172	-10.058618	-9.759350	-9.494137	-6.012053	2.275100	-3.341940	3.692920	-2.121140	0.880674	-0.022095	0.456298	-1.000000	-1.000000	-1.000000	-1.000000	-1.000000	-1.000000	-1.000000	65.241379	0.000000	-1.000000	-1.000000	1889317.000000	1773691335.885463
11353.095000	-6874.785000	14339.880000	14195.205000	-21400.965000	-14909.400000	7986.510000	12073.320000	-10.736988	-13.283732	-13.514709	-13.215910	-10.128246	-6.602842	-6.852001	-1.963987	-3.341940	3.692920	-2.121140	0.880674	-0.022095	0.456298	-1.000000	-1.000000	-1.000000	-1.000000	-1.000000	-1.000000	-1.000000	65.241379	0.000000	-1.000000	-1.000000	1889318.000000	1773691335.885473
11349.945000	-6891.840000	14322.780000	14179.005000	-21421.710000	-14931.720000	7976.385000	12103.515000	-12.183677	-14.394913	-13.897517	-12.474331	-7.554757	-1.915493	-4.886825	-5.132125	-3.341940	3.692920	-2.121140	0.880674	-0.022095	0.456298	-1.000000	-1.000000	-1.000000	-1.000000	-1.000000	-1.000000	-1.000000	65.241379	0.000000	-1.000000	-1.000000	1889319.000000	1773691335.893521
11342.295000	-6909.390000	14303.565000	14158.530000	-21443.130000	-14954.580000	7965.405000	12127.545000	-9.003605	-11.340289	-10.561534	-8.659885	-4.053611	1.180189	-0.876599	-4.100811	-3.341940	3.692920	-2.121140	0.880674	-0.022095	0.456298	-1.000000	-1.000000	-1.000000	-1.000000	-1.000000	-1.000000	-1.000000	65.241379	0.000000	-1.000000	-1.000000	1889320.000000	1773691335.893535
11333.790000	-6903.765000	14304.375000	14157.720000	-21436.335000	-14941.665000	7973.505000	12106.260000	-3.436065	-6.091959	-5.508633	-3.969849	-1.604068	1.058270	2.812509	0.932275	-2.289000	3.464020	-1.617560	0.879270	-0.023315	0.458617	-1.000000	-1.000000	-1.000000	-1.000000	-1.000000	-1.000000	-1.000000	65.241379	0.000000	-1.000000	-1.000000	1889321.000000	1773691335.898001
11306.700000	-6914.700000	14293.755000	14146.695000	-21440.205000	-14936.895000	7981.470000	12090.105000	1.162884	-0.113606	0.021858	0.594810	0.301649	0.018060	4.334532	5.317383	-2.289000	3.464020	-1.617560	0.879270	-0.023315	0.458617	-1.000000	-1.000000	-1.000000	-1.000000	-1.000000	-1.000000	-1.000000	65.241379	0.000000	-1.000000	-1.000000	1889322.000000	1773691335.898014
