Channel1	Channel2	Channel3	Channel4	Channel5	Channel6	Channel7	Channel8	FilteredChannel1	FilteredChannel2	FilteredChannel3	FilteredChannel4	FilteredChannel5	FilteredChannel6	FilteredChannel7	FilteredChannel8	GyroX	GyroY	GyroZ	AccX	AccY	AccZ	PPG1	PPG2	rawPPG1	rawPPG2	rawPPG3	Hr	Hrv	Battery	Trigger	PhysicalTrigger	AutoTrigger	NumMeasurements	Timestamp
-12118.545000	-40187.610000	-23527.260000	-14059.170000	-43863.345000	-43386.075000	-10191.555000	7227.270000	3.026804	2.836836	1.489170	-0.304965	-5.609634	-3.894192	-4.830827	-3.994039	-5.447820	4.440660	-2.197440	0.928648	-0.018616	0.346923	-1.000000	-1.000000	-1.000000	-1.000000	-1.000000	-1.000000	-1.000000	88.137931	0.000000	-1.000000	-1.000000	263851.000000	1770062023.648218
-12121.200000	-40198.590000	-23536.125000	-14059.215000	-43851.060000	-43369.290000	-10183.455000	7237.530000	4.725812	7.634768	7.151904	5.311285	1.917766	1.099942	-2.691773	-0.429824	-5.447820	4.440660	-2.197440	0.928648	-0.018616	0.346923	-1.000000	-1.000000	-1.000000	-1.000000	-1.000000	-1.000000	-1.000000	88.137931	0.000000	-1.000000	-1.000000	263852.000000	1770062023.648238
-12117.330000	-40199.220000	-23537.655000	-14061.330000	-43857.495000	-43376.805000	-10181.205000	7239.240000	4.044718	8.256508	8.510419	7.128049	7.060797	4.372518	-0.216904	3.529745	-5.447820	4.440660	-2.197440	0.928648	-0.018616	0.346923	-1.000000	-1.000000	-1.000000	-1.000000	-1.000000	-1.000000	-1.000000	88.137931	0.000000	-1.000000	-1.000000	263853.000000	1770062023.649388
-12115.755000	-40191.570000	-23533.155000	-14060.565000	-43861.995000	-43378.335000	-10177.515000	7237.935000	1.443384	4.509345	5.060313	4.447252	7.064562	4.114654	1.661565	6.220697	-5.447820	4.440660	-2.197440	0.928648	-0.018616	0.346923	-1.000000	-1.000000	-1.000000	-1.000000	-1.000000	-1.000000	-1.000000	88.137931	0.000000	-1.000000	-1.000000	263854.000000	1770062023.649410
-12119.130000	-40191.660000	-23535.540000	-14061.285000	-43858.980000	-43377.705000	-10177.380000	7239.825000	-1.883332	-0.937812	-0.520157	-0.436233	2.925015	1.072668	2.819635	6.225316	-5.447820	4.440660	-2.197440	0.928648	-0.018616	0.346923	-1.000000	-1.000000	-1.000000	-1.000000	-1.000000	-1.000000	-1.000000	88.137931	0.000000	-1.000000	-1.000000	263855.000000	1770062023.654682
-12139.740000	-40216.095000	-23558.220000	-14078.970000	-43869.915000	-43389.945000	-10181.790000	7228.890000	-4.972911	-5.287246	-5.156332	-4.558650	-1.853460	-2.291320	3.180653	3.219590	-5.447820	4.440660	-2.197440	0.928648	-0.018616	0.346923	-1.000000	-1.000000	-1.000000	-1.000000	-1.000000	-1.000000	-1.000000	88.137931	0.000000	-1.000000	-1.000000	263856.000000	1770062023.654693
-12137.175000	-40212.900000	-23551.560000	-14072.715000	-43864.155000	-43384.590000	-10179.495000	7226.370000	-7.168188	-7.688220	-7.600092	-6.490364	-4.325158	-3.989057	2.395705	-1.806660	-5.447820	4.440660	-2.197440	0.928648	-0.018616	0.346923	-1.000000	-1.000000	-1.000000	-1.000000	-1.000000	-1.000000	-1.000000	88.137931	0.000000	-1.000000	-1.000000	263857.000000	1770062023.658039
-12116.880000	-40193.415000	-23531.625000	-14054.850000	-43850.385000	-43374.195000	-10178.460000	7236.180000	-7.234115	-7.786525	-7.371231	-5.903217	-3.830088	-3.521427	0.386080	-6.506072	-5.447820	4.440660	-2.197440	0.928648	-0.018616	0.346923	-1.000000	-1.000000	-1.000000	-1.000000	-1.000000	-1.000000	-1.000000	88.137931	0.000000	-1.000000	-1.000000	263858.000000	1770062023.658050
-12124.755000	-40200.930000	-23542.425000	-14066.775000	-43862.085000	-43383.420000	-10179.450000	7237.710000	-4.307701	-5.173695	-4.416729	-3.098036	-1.641369	-1.587489	-2.176516	-8.397988	-5.447820	4.440660	-2.197440	0.928648	-0.018616	0.346923	-1.000000	-1.000000	-1.000000	-1.000000	-1.000000	-1.000000	-1.000000	88.137931	0.000000	-1.000000	-1.000000	263859.000000	1770062023.661408
-12135.240000	-40211.280000	-23555.790000	-14080.365000	-43875.405000	-43394.715000	-10187.415000	7226.055000	-0.013656	-1.256743	-0.623782	0.080413	-0.064948	0.190749	-4.250512	-7.245594	-5.447820	4.440660	-2.197440	0.928648	-0.018616	0.346923	-1.000000	-1.000000	-1.000000	-1.000000	-1.000000	-1.000000	-1.000000	88.137931	0.000000	-1.000000	-1.000000	263860.000000	1770062023.661414
-12144.420000	-40226.490000	-23570.865000	-14091.660000	-43881.075000	-43397.910000	-10194.165000	7220.700000	2.955289	1.671174	1.636072	1.522658	-0.613604	0.365721	-5.236217	-4.769372	-4.745860	4.700080	-1.953280	0.928831	-0.021789	0.346862	-1.000000	-1.000000	-1.000000	-1.000000	-1.000000	-1.000000	-1.000000	88.137931	0.000000	-1.000000	-1.000000	263861.000000	1770062023.665238
-12150.045000	-40229.505000	-23571.945000	-14093.415000	-43887.285000	-43406.235000	-10205.370000	7213.095000	3.582532	2.743197	1.965995	1.089499	-2.440937	-0.818280	-5.052543	-2.129179	-4.745860	4.700080	-1.953280	0.928831	-0.021789	0.346862	-1.000000	-1.000000	-1.000000	-1.000000	-1.000000	-1.000000	-1.000000	88.137931	0.000000	-1.000000	-1.000000	263862.000000	1770062023.665248
-12138.030000	-40210.155000	-23549.805000	-14073.480000	-43870.995000	-43392.015000	-10202.535000	7219.710000	2.813562	2.783535	1.897975	0.627592	-3.015866	-1.484404	-3.583454	0.757606	-4.745860	4.700080	-1.953280	0.928831	-0.021789	0.346862	-1.000000	-1.000000	-1.000000	-1.000000	-1.000000	-1.000000	-1.000000	88.137931	0.000000	-1.000000	-1.000000	263863.000000	1770062023.671926
-12145.050000	-40215.060000	-23556.735000	-14079.645000	-43875.990000	-43396.515000	-10201.680000	7209.360000	2.432515	3.430237	3.306292	2.089218	-0.517588	0.063587	-0.609870	3.951981	-4.745860	4.700080	-1.953280	0.928831	-0.021789	0.346862	-1.000000	-1.000000	-1.000000	-1.000000	-1.000000	-1.000000	-1.000000	88.137931	0.000000	-1.000000	-1.000000	263864.000000	1770062023.671940
-12141.945000	-40217.895000	-23558.850000	-14076.495000	-43867.845000	-43384.365000	-10191.870000	7219.305000	3.366373	5.217280	6.080688	5.218597	4.267203	3.647102	3.555450	6.755445	-4.745860	4.700080	-1.953280	0.928831	-0.021789	0.346862	-1.000000	-1.000000	-1.000000	-1.000000	-1.000000	-1.000000	-1.000000	88.137931	0.000000	-1.000000	-1.000000	263865.000000	1770062023.673455
-12145.050000	-40220.505000	-23560.875000	-14079.330000	-43871.490000	-43388.145000	-10187.955000	7219.620000	4.601989	6.425967	7.609765	7.355769	8.283484	7.046837	7.526660	8.231146	-4.745860	4.700080	-1.953280	0.928831	-0.021789	0.346862	-1.000000	-1.000000	-1.000000	-1.000000	-1.000000	-1.000000	-1.000000	88.137931	0.000000	-1.000000	-1.000000	263866.000000	1770062023.673464
-12152.790000	-40227.705000	-23567.175000	-14085.720000	-43877.115000	-43396.920000	-10194.885000	7214.400000	3.973132	4.705503	5.323572	5.831833	8.368022	7.363097	9.197965	7.447079	-4.745860	4.700080	-1.953280	0.928831	-0.021789	0.346862	-1.000000	-1.000000	-1.000000	-1.000000	-1.000000	-1.000000	-1.000000	88.137931	0.000000	-1.000000	-1.000000	263867.000000	1770062023.677394
-12138.885000	-40215.105000	-23552.280000	-14071.995000	-43864.065000	-43385.490000	-10191.420000	7226.010000	0.819941	0.060843	-0.170762	0.961110	4.219552	3.806261	7.278476	4.076314	-4.745860	4.700080	-1.953280	0.928831	-0.021789	0.346862	-1.000000	-1.000000	-1.000000	-1.000000	-1.000000	-1.000000	-1.000000	88.137931	0.000000	-1.000000	-1.000000	263868.000000	1770062023.677402
-12131.595000	-40211.955000	-23552.055000	-14074.425000	-43868.520000	-43389.180000	-10191.105000	7233.435000	-2.401388	-4.234162	-4.891151	-3.676964	-1.018784	-1.139783	2.717991	-0.216718	-4.745860	4.700080	-1.953280	0.928831	-0.021789	0.346862	-1.000000	-1.000000	-1.000000	-1.000000	-1.000000	-1.000000	-1.000000	88.137931	0.000000	-1.000000	-1.000000	263869.000000	1770062023.685894
-12132.810000	-40212.180000	-23552.505000	-14075.280000	-43870.590000	-43391.025000	-10195.470000	7232.310000	-2.929371	-4.917316	-5.519255	-5.041246	-4.247677	-4.529051	-2.031133	-2.889744	-4.745860	4.700080	-1.953280	0.928831	-0.021789	0.346862	-1.000000	-1.000000	-1.000000	-1.000000	-1.000000	-1.000000	-1.000000	88.137931	0.000000	-1.000000	-1.000000	263870.000000	1770062023.685904
-12143.790000	-40218.750000	-23561.190000	-14084.415000	-43879.455000	-43397.325000	-10200.330000	7214.850000	-1.223157	-2.423366	-2.914942	-3.628307	-4.997898	-5.456809	-5.026928	-3.416708	-3.402980	4.990020	-2.655240	0.927488	-0.021301	0.347350	-1.000000	-1.000000	-1.000000	-1.000000	-1.000000	-1.000000	-1.000000	88.137931	0.000000	-1.000000	-1.000000	263871.000000	1770062023.685984
-12138.615000	-40205.025000	-23543.325000	-14065.065000	-43861.545000	-43381.935000	-10197.855000	7213.905000	0.086888	0.184304	-0.330517	-1.795633	-4.294708	-4.505020	-5.741118	-3.349413	-3.402980	4.990020	-2.655240	0.927488	-0.021301	0.347350	-1.000000	-1.000000	-1.000000	-1.000000	-1.000000	-1.000000	-1.000000	88.137931	0.000000	-1.000000	-1.000000	263872.000000	1770062023.685989
-12131.730000	-40197.240000	-23535.720000	-14060.655000	-43862.085000	-43386.165000	-10198.530000	7215.255000	-0.104995	1.304925	0.876796	-0.443335	-2.680707	-2.396002	-4.665390	-3.599180	-3.402980	4.990020	-2.655240	0.927488	-0.021301	0.347350	-1.000000	-1.000000	-1.000000	-1.000000	-1.000000	-1.000000	-1.000000	88.137931	0.000000	-1.000000	-1.000000	263873.000000	1770062023.689427
-12147.165000	-40223.925000	-23566.455000	-14094.180000	-43892.010000	-43412.715000	-10205.055000	7213.230000	-0.948695	1.213192	1.083471	0.380637	-0.884849	-0.403419	-2.888789	-3.580072	-3.402980	4.990020	-2.655240	0.927488	-0.021301	0.347350	-1.000000	-1.000000	-1.000000	-1.000000	-1.000000	-1.000000	-1.000000	88.137931	0.000000	-1.000000	-1.000000	263874.000000	1770062023.689438
-12156.165000	-40229.190000	-23574.600000	-14101.065000	-43892.010000	-43410.870000	-10207.395000	7203.330000	-2.039881	-0.328141	-0.315902	-0.486857	-0.574973	-0.220668	-1.541788	-2.883092	-3.402980	4.990020	-2.655240	0.927488	-0.021301	0.347350	-1.000000	-1.000000	-1.000000	-1.000000	-1.000000	-1.000000	-1.000000	88.137931	0.000000	-1.000000	-1.000000	263875.000000	1770062023.694483
-12150.720000	-40221.450000	-23565.420000	-14089.095000	-43880.400000	-43402.545000	-10207.755000	7205.085000	-3.282763	-3.040030	-3.261370	-2.941090	-1.698360	-1.363219	-0.783364	-1.834421	-3.402980	4.990020	-2.655240	0.927488	-0.021301	0.347350	-1.000000	-1.000000	-1.000000	-1.000000	-1.000000	-1.000000	-1.000000	88.137931	0.000000	-1.000000	-1.000000	263876.000000	1770062023.694491
-12146.355000	-40216.905000	-23561.190000	-14087.790000	-43881.840000	-43403.670000	-10210.185000	7203.510000	-3.674130	-4.803931	-5.270469	-4.278045	-1.978027	-1.492778	0.014213	-0.746150	-3.402980	4.990020	-2.655240	0.927488	-0.021301	0.347350	-1.000000	-1.000000	-1.000000	-1.000000	-1.000000	-1.000000	-1.000000	88.137931	0.000000	-1.000000	-1.000000	263877.000000	1770062023.700456
-12147.345000	-40217.085000	-23562.495000	-14090.805000	-43885.305000	-43405.155000	-10214.010000	7197.390000	-2.338419	-3.812858	-4.088893	-2.537028	-0.213281	0.295564	1.107254	0.264258	-3.402980	4.990020	-2.655240	0.927488	-0.021301	0.347350	-1.000000	-1.000000	-1.000000	-1.000000	-1.000000	-1.000000	-1.000000	88.137931	0.000000	-1.000000	-1.000000	263878.000000	1770062023.700463
-12143.655000	-40214.970000	-23556.465000	-14078.025000	-43868.970000	-43385.040000	-10209.600000	7204.635000	0.466281	-0.368667	0.026126	1.624576	2.869394	3.211926	2.334775	1.383507	-3.402980	4.990020	-2.655240	0.927488	-0.021301	0.347350	-1.000000	-1.000000	-1.000000	-1.000000	-1.000000	-1.000000	-1.000000	88.137931	0.000000	-1.000000	-1.000000	263879.000000	1770062023.701518
-12148.245000	-40219.290000	-23562.630000	-14084.280000	-43880.850000	-43398.180000	-10212.660000	7201.800000	3.582227	3.447627	4.658496	5.911583	5.720101	5.875845	3.452813	3.083766	-3.402980	4.990020	-2.655240	0.927488	-0.021301	0.347350	-1.000000	-1.000000	-1.000000	-1.000000	-1.000000	-1.000000	-1.000000	88.137931	0.000000	-1.000000	-1.000000	263880.000000	1770062023.701528
-12165.615000	-40244.715000	-23587.335000	-14106.285000	-43898.175000	-43415.190000	-10209.825000	7194.195000	5.145321	4.829991	6.440860	7.226075	5.980654	6.010858	3.884878	4.912056	-3.097780	4.471180	-2.670500	0.926816	-0.020447	0.347411	-1.000000	-1.000000	-1.000000	-1.000000	-1.000000	-1.000000	-1.000000	88.137931	0.000000	-1.000000	-1.000000	263881.000000	1770062023.705643
-12160.980000	-40241.970000	-23582.745000	-14098.905000	-43887.150000	-43409.610000	-10202.400000	7213.320000	3.813389	2.484870	3.756054	4.050891	2.590769	2.447054	3.193107	5.499070	-3.097780	4.471180	-2.670500	0.926816	-0.020447	0.347411	-1.000000	-1.000000	-1.000000	-1.000000	-1.000000	-1.000000	-1.000000	88.137931	0.000000	-1.000000	-1.000000	263882.000000	1770062023.705650
-12155.580000	-40231.440000	-23571.315000	-14089.410000	-43882.020000	-43407.495000	-10205.415000	7218.945000	0.828102	-1.109958	-0.594579	-0.745832	-1.656235	-2.281911	1.701936	4.539018	-3.097780	4.471180	-2.670500	0.926816	-0.020447	0.347411	-1.000000	-1.000000	-1.000000	-1.000000	-1.000000	-1.000000	-1.000000	88.137931	0.000000	-1.000000	-1.000000	263883.000000	1770062023.714671
-12161.385000	-40227.660000	-23570.595000	-14095.800000	-43895.295000	-43419.330000	-10210.770000	7201.845000	-1.146418	-2.058004	-2.218700	-2.937377	-3.423813	-4.784838	-0.092611	2.584157	-3.097780	4.471180	-2.670500	0.926816	-0.020447	0.347411	-1.000000	-1.000000	-1.000000	-1.000000	-1.000000	-1.000000	-1.000000	88.137931	0.000000	-1.000000	-1.000000	263884.000000	1770062023.714678
-12160.935000	-40226.940000	-23572.980000	-14105.295000	-43909.290000	-43431.705000	-10217.340000	7192.980000	-1.336778	0.198384	-0.510801	-2.238880	-3.162218	-4.822962	-2.016097	-0.555756	-3.097780	4.471180	-2.670500	0.926816	-0.020447	0.347411	-1.000000	-1.000000	-1.000000	-1.000000	-1.000000	-1.000000	-1.000000	88.137931	0.000000	-1.000000	-1.000000	263885.000000	1770062023.714687
-12153.960000	-40229.325000	-23575.725000	-14104.305000	-43899.255000	-43419.510000	-10216.575000	7194.510000	-0.819743	2.886177	1.635494	-1.223841	-2.874771	-3.830022	-3.699460	-4.656364	-3.097780	4.471180	-2.670500	0.926816	-0.020447	0.347411	-1.000000	-1.000000	-1.000000	-1.000000	-1.000000	-1.000000	-1.000000	88.137931	0.000000	-1.000000	-1.000000	263886.000000	1770062023.714691
-12140.505000	-40215.285000	-23560.560000	-14087.340000	-43877.520000	-43396.695000	-10209.870000	7202.520000	-0.144187	3.715209	2.141660	-0.912277	-2.244530	-1.810158	-4.196311	-7.586364	-3.097780	4.471180	-2.670500	0.926816	-0.020447	0.347411	-1.000000	-1.000000	-1.000000	-1.000000	-1.000000	-1.000000	-1.000000	88.137931	0.000000	-1.000000	-1.000000	263887.000000	1770062023.724176
-12146.625000	-40228.200000	-23571.045000	-14088.420000	-43869.420000	-43384.815000	-10200.510000	7208.325000	0.811728	2.527768	1.191375	-0.452703	0.120370	1.772922	-2.691332	-7.022494	-3.097780	4.471180	-2.670500	0.926816	-0.020447	0.347411	-1.000000	-1.000000	-1.000000	-1.000000	-1.000000	-1.000000	-1.000000	88.137931	0.000000	-1.000000	-1.000000	263888.000000	1770062023.724187
-12157.425000	-40231.170000	-23572.035000	-14090.940000	-43875.675000	-43393.005000	-10197.585000	7208.955000	1.470695	0.110720	-0.371675	0.504596	3.633703	5.732666	0.406728	-2.890807	-3.097780	4.471180	-2.670500	0.926816	-0.020447	0.347411	-1.000000	-1.000000	-1.000000	-1.000000	-1.000000	-1.000000	-1.000000	88.137931	0.000000	-1.000000	-1.000000	263889.000000	1770062023.724199
-12169.755000	-40243.320000	-23579.325000	-14097.600000	-43884.315000	-43405.965000	-10199.880000	7202.115000	0.836316	-2.451161	-1.749703	1.367969	5.860911	7.499699	3.284907	2.312765	-3.097780	4.471180	-2.670500	0.926816	-0.020447	0.347411	-1.000000	-1.000000	-1.000000	-1.000000	-1.000000	-1.000000	-1.000000	88.137931	0.000000	-1.000000	-1.000000	263890.000000	1770062023.724204
-12170.520000	-40237.605000	-23570.190000	-14089.140000	-43881.120000	-43406.775000	-10204.605000	7193.925000	-1.204301	-3.971638	-2.214331	1.563792	4.864654	5.325450	3.911635	5.045442	-3.479280	4.883200	-1.892240	0.928159	-0.018860	0.346252	-1.000000	-1.000000	-1.000000	-1.000000	-1.000000	-1.000000	-1.000000	88.137931	0.000000	-1.000000	-1.000000	263891.000000	1770062023.725544
-12164.805000	-40224.015000	-23558.400000	-14080.275000	-43871.715000	-43395.615000	-10203.750000	7179.390000	-3.368799	-3.720510	-1.496999	1.146383	1.174899	0.277328	1.885429	3.467876	-3.479280	4.883200	-1.892240	0.928159	-0.018860	0.346252	-1.000000	-1.000000	-1.000000	-1.000000	-1.000000	-1.000000	-1.000000	88.137931	0.000000	-1.000000	-1.000000	263892.000000	1770062023.725550
-12146.310000	-40210.920000	-23546.925000	-14070.420000	-43861.590000	-43386.930000	-10203.120000	7193.700000	-3.603838	-1.598426	0.187922	0.794391	-2.392599	-4.133871	-1.071001	-0.494301	-3.479280	4.883200	-1.892240	0.928159	-0.018860	0.346252	-1.000000	-1.000000	-1.000000	-1.000000	-1.000000	-1.000000	-1.000000	88.137931	0.000000	-1.000000	-1.000000	263893.000000	1770062023.729527
-12135.465000	-40212.315000	-23554.260000	-14080.455000	-43868.925000	-43388.595000	-10198.170000	7221.735000	-0.891217	1.517271	1.996037	0.845226	-3.501162	-5.177379	-2.735295	-2.474648	-3.479280	4.883200	-1.892240	0.928159	-0.018860	0.346252	-1.000000	-1.000000	-1.000000	-1.000000	-1.000000	-1.000000	-1.000000	88.137931	0.000000	-1.000000	-1.000000	263894.000000	1770062023.729532
-12136.455000	-40222.350000	-23568.480000	-14092.380000	-43876.935000	-43396.380000	-10203.120000	7218.495000	3.166273	3.613949	2.311808	0.327676	-2.833262	-3.633608	-2.321374	-0.100582	-3.479280	4.883200	-1.892240	0.928159	-0.018860	0.346252	-1.000000	-1.000000	-1.000000	-1.000000	-1.000000	-1.000000	-1.000000	88.137931	0.000000	-1.000000	-1.000000	263895.000000	1770062023.733416
-12151.755000	-40236.390000	-23585.265000	-14112.045000	-43900.785000	-43419.825000	-10220.580000	7192.845000	5.177565	2.726581	-0.204332	-2.228490	-3.190085	-2.865261	-1.150310	3.840440	-3.479280	4.883200	-1.892240	0.928159	-0.018860	0.346252	-1.000000	-1.000000	-1.000000	-1.000000	-1.000000	-1.000000	-1.000000	88.137931	0.000000	-1.000000	-1.000000	263896.000000	1770062023.733426
-12157.605000	-40241.070000	-23585.355000	-14109.840000	-43901.370000	-43422.975000	-10224.810000	7199.235000	3.156034	-0.957891	-4.592328	-6.349849	-5.753969	-4.791642	-1.198621	4.525009	-3.479280	4.883200	-1.892240	0.928159	-0.018860	0.346252	-1.000000	-1.000000	-1.000000	-1.000000	-1.000000	-1.000000	-1.000000	88.137931	0.000000	-1.000000	-1.000000	263897.000000	1770062023.741308
-12159.270000	-40238.865000	-23581.935000	-14103.315000	-43896.330000	-43419.825000	-10219.455000	7210.710000	-1.231649	-4.531724	-7.360423	-8.679733	-7.813492	-7.006099	-2.495498	1.216374	-3.479280	4.883200	-1.892240	0.928159	-0.018860	0.346252	-1.000000	-1.000000	-1.000000	-1.000000	-1.000000	-1.000000	-1.000000	88.137931	0.000000	-1.000000	-1.000000	263898.000000	1770062023.741320
-12153.690000	-40231.710000	-23572.440000	-14090.040000	-43880.805000	-43408.530000	-10211.760000	7218.450000	-4.324823	-4.811870	-5.557748	-5.973163	-5.483440	-5.274717	-2.893670	-2.496164	-3.479280	4.883200	-1.892240	0.928159	-0.018860	0.346252	-1.000000	-1.000000	-1.000000	-1.000000	-1.000000	-1.000000	-1.000000	88.137931	0.000000	-1.000000	-1.000000	263899.000000	1770062023.741397
-12141.270000	-40211.955000	-23548.140000	-14066.955000	-43858.215000	-43389.990000	-10203.795000	7213.770000	-3.899865	-1.211706	0.431423	1.387794	1.827625	1.493413	-0.644884	-3.532888	-3.479280	4.883200	-1.892240	0.928159	-0.018860	0.346252	-1.000000	-1.000000	-1.000000	-1.000000	-1.000000	-1.000000	-1.000000	88.137931	0.000000	-1.000000	-1.000000	263900.000000	1770062023.741406
-12132.945000	-40197.420000	-23537.970000	-14063.940000	-43861.995000	-43392.105000	-10199.205000	7208.055000	-0.614875	3.975802	7.333485	9.469752	10.396132	9.799016	3.638310	-1.928850	-4.516960	5.249440	-2.304260	0.928953	-0.016479	0.344604	-1.000000	-1.000000	-1.000000	-1.000000	-1.000000	-1.000000	-1.000000	88.137931	0.000000	-1.000000	-1.000000	263901.000000	1770062023.745221
-12130.155000	-40198.950000	-23541.210000	-14061.735000	-43853.760000	-43376.940000	-10191.015000	7222.005000	2.803523	7.396164	11.159453	13.577971	14.969171	14.531327	7.483358	0.183399	-4.516960	5.249440	-2.304260	0.928953	-0.016479	0.344604	-1.000000	-1.000000	-1.000000	-1.000000	-1.000000	-1.000000	-1.000000	88.137931	0.000000	-1.000000	-1.000000	263902.000000	1770062023.745229
-12131.145000	-40201.920000	-23542.515000	-14058.540000	-43851.105000	-43372.530000	-10190.160000	7228.935000	3.676493	6.851029	9.701987	11.573212	12.944926	13.157233	8.509521	0.904063	-4.516960	5.249440	-2.304260	0.928953	-0.016479	0.344604	-1.000000	-1.000000	-1.000000	-1.000000	-1.000000	-1.000000	-1.000000	88.137931	0.000000	-1.000000	-1.000000	263903.000000	1770062023.749308
-12135.555000	-40206.510000	-23545.980000	-14059.665000	-43851.015000	-43375.050000	-10192.545000	7213.995000	1.522097	2.741485	4.062250	5.113595	5.917733	6.871419	5.992853	0.046337	-4.516960	5.249440	-2.304260	0.928953	-0.016479	0.344604	-1.000000	-1.000000	-1.000000	-1.000000	-1.000000	-1.000000	-1.000000	88.137931	0.000000	-1.000000	-1.000000	263904.000000	1770062023.749318
-12131.460000	-40210.155000	-23550.975000	-14067.045000	-43858.530000	-43382.115000	-10197.315000	7216.560000	-1.624756	-2.389054	-2.512279	-2.338260	-2.392613	-1.245878	1.137584	-1.247154	-4.516960	5.249440	-2.304260	0.928953	-0.016479	0.344604	-1.000000	-1.000000	-1.000000	-1.000000	-1.000000	-1.000000	-1.000000	88.137931	0.000000	-1.000000	-1.000000	263905.000000	1770062023.755197
-12134.250000	-40209.030000	-23547.105000	-14062.590000	-43854.930000	-43379.730000	-10199.430000	7214.805000	-3.118135	-5.786792	-7.063784	-7.935945	-8.632996	-7.987468	-3.943109	-1.856794	-4.516960	5.249440	-2.304260	0.928953	-0.016479	0.344604	-1.000000	-1.000000	-1.000000	-1.000000	-1.000000	-1.000000	-1.000000	88.137931	0.000000	-1.000000	-1.000000	263906.000000	1770062023.755206
-12131.145000	-40202.730000	-23538.780000	-14056.470000	-43851.330000	-43376.490000	-10192.725000	7230.555000	-2.065258	-6.097931	-8.180170	-10.200569	-11.048959	-11.128041	-7.430669	-1.495958	-4.516960	5.249440	-2.304260	0.928953	-0.016479	0.344604	-1.000000	-1.000000	-1.000000	-1.000000	-1.000000	-1.000000	-1.000000	88.137931	0.000000	-1.000000	-1.000000	263907.000000	1770062023.757389
-12134.925000	-40203.945000	-23544.720000	-14070.150000	-43870.680000	-43394.580000	-10199.520000	7222.995000	0.150111	-3.961230	-6.411314	-9.385231	-10.153618	-10.582001	-8.372544	-0.416736	-4.516960	5.249440	-2.304260	0.928953	-0.016479	0.344604	-1.000000	-1.000000	-1.000000	-1.000000	-1.000000	-1.000000	-1.000000	88.137931	0.000000	-1.000000	-1.000000	263908.000000	1770062023.757399
-12147.030000	-40216.320000	-23557.140000	-14082.210000	-43876.890000	-43397.145000	-10199.610000	7215.660000	1.171675	-1.742530	-4.165546	-7.458706	-8.157998	-8.290183	-6.955010	0.857561	-4.516960	5.249440	-2.304260	0.928953	-0.016479	0.344604	-1.000000	-1.000000	-1.000000	-1.000000	-1.000000	-1.000000	-1.000000	88.137931	0.000000	-1.000000	-1.000000	263909.000000	1770062023.766262
-12156.120000	-40225.725000	-23564.475000	-14087.925000	-43879.905000	-43401.465000	-10206.090000	7201.845000	-0.446265	-1.674866	-3.546336	-5.941462	-6.266304	-5.810452	-4.192353	1.384517	-4.516960	5.249440	-2.304260	0.928953	-0.016479	0.344604	-1.000000	-1.000000	-1.000000	-1.000000	-1.000000	-1.000000	-1.000000	88.137931	0.000000	-1.000000	-1.000000	263910.000000	1770062023.766275
-12146.805000	-40217.310000	-23557.590000	-14080.140000	-43873.020000	-43396.020000	-10208.745000	7203.735000	-3.615140	-3.192497	-3.756867	-4.014881	-3.525874	-3.031333	-1.240635	0.223545	-5.447820	4.516960	-2.731540	0.929380	-0.016540	0.344848	-1.000000	-1.000000	-1.000000	-1.000000	-1.000000	-1.000000	-1.000000	88.137931	0.000000	-1.000000	-1.000000	263911.000000	1770062023.766287
-12145.815000	-40218.255000	-23563.215000	-14089.680000	-43885.395000	-43405.245000	-10215.495000	7202.655000	-5.203836	-3.263397	-2.205009	-0.205427	0.844801	0.450427	1.129648	-2.086851	-5.447820	4.516960	-2.731540	0.929380	-0.016540	0.344848	-1.000000	-1.000000	-1.000000	-1.000000	-1.000000	-1.000000	-1.000000	88.137931	0.000000	-1.000000	-1.000000	263912.000000	1770062023.766292
-12135.240000	-40203.180000	-23547.105000	-14078.340000	-43880.535000	-43407.090000	-10221.120000	7212.240000	-2.922669	0.169243	2.216754	5.195460	5.836316	4.254834	2.784094	-3.046333	-5.447820	4.516960	-2.731540	0.929380	-0.016540	0.344848	-1.000000	-1.000000	-1.000000	-1.000000	-1.000000	-1.000000	-1.000000	88.137931	0.000000	-1.000000	-1.000000	263913.000000	1770062023.769612
-12150.855000	-40224.870000	-23568.390000	-14093.055000	-43883.865000	-43404.705000	-10212.570000	7205.805000	2.318306	5.796967	7.767078	10.141226	9.688038	7.530724	4.052844	-0.906333	-5.447820	4.516960	-2.731540	0.929380	-0.016540	0.344848	-1.000000	-1.000000	-1.000000	-1.000000	-1.000000	-1.000000	-1.000000	88.137931	0.000000	-1.000000	-1.000000	263914.000000	1770062023.769622
-12154.995000	-40230.720000	-23568.885000	-14086.755000	-43868.250000	-43387.290000	-10205.685000	7204.995000	6.948131	9.592781	10.778344	12.014916	11.105155	9.535745	5.228618	2.771408	-5.447820	4.516960	-2.731540	0.929380	-0.016540	0.344848	-1.000000	-1.000000	-1.000000	-1.000000	-1.000000	-1.000000	-1.000000	88.137931	0.000000	-1.000000	-1.000000	263915.000000	1770062023.773876
-12161.070000	-40232.655000	-23571.045000	-14092.155000	-43877.925000	-43398.945000	-10215.270000	7189.425000	7.818950	8.396096	8.743040	9.458069	9.586983	9.639692	5.784943	4.638688	-5.447820	4.516960	-2.731540	0.929380	-0.016540	0.344848	-1.000000	-1.000000	-1.000000	-1.000000	-1.000000	-1.000000	-1.000000	88.137931	0.000000	-1.000000	-1.000000	263916.000000	1770062023.773886
-12158.370000	-40230.945000	-23571.540000	-14090.985000	-43878.690000	-43402.365000	-10217.880000	7189.785000	4.768479	2.986068	2.850875	3.770077	5.513411	7.208565	4.603334	3.181279	-5.447820	4.516960	-2.731540	0.929380	-0.016540	0.344848	-1.000000	-1.000000	-1.000000	-1.000000	-1.000000	-1.000000	-1.000000	88.137931	0.000000	-1.000000	-1.000000	263917.000000	1770062023.777498
-12155.760000	-40231.080000	-23572.350000	-14091.030000	-43879.455000	-43402.365000	-10216.530000	7196.085000	0.343943	-2.934874	-3.233729	-2.008511	0.231476	2.456387	1.604871	0.289922	-5.447820	4.516960	-2.731540	0.929380	-0.016540	0.344848	-1.000000	-1.000000	-1.000000	-1.000000	-1.000000	-1.000000	-1.000000	88.137931	0.000000	-1.000000	-1.000000	263918.000000	1770062023.777511
-12157.830000	-40237.380000	-23579.595000	-14099.760000	-43886.475000	-43411.320000	-10220.580000	7195.680000	-2.684606	-6.070180	-6.440375	-5.474704	-4.507751	-3.107570	-1.789588	-1.147126	-5.447820	4.516960	-2.731540	0.929380	-0.016540	0.344848	-1.000000	-1.000000	-1.000000	-1.000000	-1.000000	-1.000000	-1.000000	88.137931	0.000000	-1.000000	-1.000000	263919.000000	1770062023.787749
-12155.445000	-40231.080000	-23571.855000	-14092.200000	-43877.565000	-43402.005000	-10219.725000	7190.955000	-3.486511	-5.618189	-6.014778	-6.170855	-7.373853	-7.487139	-3.971027	-0.585221	-5.447820	4.516960	-2.731540	0.929380	-0.016540	0.344848	-1.000000	-1.000000	-1.000000	-1.000000	-1.000000	-1.000000	-1.000000	88.137931	0.000000	-1.000000	-1.000000	263920.000000	1770062023.787759
-12145.320000	-40216.320000	-23560.200000	-14082.795000	-43869.240000	-43391.070000	-10212.525000	7196.985000	-2.710297	-2.606025	-2.875539	-4.580679	-7.330089	-8.640956	-3.989172	0.518283	-2.563680	4.288060	-2.319520	0.929990	-0.020874	0.345275	-1.000000	-1.000000	-1.000000	-1.000000	-1.000000	-1.000000	-1.000000	88.137931	0.000000	-1.000000	-1.000000	263921.000000	1770062023.789125
-12155.715000	-40227.615000	-23572.530000	-14094.990000	-43882.695000	-43399.035000	-10212.840000	7195.320000	-1.205979	1.289241	1.205032	-1.584433	-4.387075	-5.743054	-1.883599	1.020425	-2.563680	4.288060	-2.319520	0.929990	-0.020874	0.345275	-1.000000	-1.000000	-1.000000	-1.000000	-1.000000	-1.000000	-1.000000	88.137931	0.000000	-1.000000	-1.000000	263922.000000	1770062023.789134
-12143.520000	-40213.260000	-23551.470000	-14072.220000	-43866.135000	-43383.870000	-10201.815000	7213.770000	0.378135	4.339072	4.289388	1.389331	-0.484900	-0.720394	0.954220	0.924086	-2.563680	4.288060	-2.319520	0.929990	-0.020874	0.345275	-1.000000	-1.000000	-1.000000	-1.000000	-1.000000	-1.000000	-1.000000	88.137931	0.000000	-1.000000	-1.000000	263923.000000	1770062023.789786
-12143.835000	-40211.955000	-23550.975000	-14072.490000	-43864.155000	-43386.480000	-10196.415000	7216.155000	1.829295	5.646641	5.516696	3.339192	2.262922	3.277002	2.765232	0.946109	-2.563680	4.288060	-2.319520	0.929990	-0.020874	0.345275	-1.000000	-1.000000	-1.000000	-1.000000	-1.000000	-1.000000	-1.000000	88.137931	0.000000	-1.000000	-1.000000	263924.000000	1770062023.789796
-12144.780000	-40214.070000	-23555.250000	-14080.680000	-43870.725000	-43396.875000	-10205.460000	7211.475000	2.777390	4.862843	4.655774	3.667466	3.121585	4.401384	2.776265	1.338265	-2.563680	4.288060	-2.319520	0.929990	-0.020874	0.345275	-1.000000	-1.000000	-1.000000	-1.000000	-1.000000	-1.000000	-1.000000	88.137931	0.000000	-1.000000	-1.000000	263925.000000	1770062023.793453
-12155.940000	-40230.180000	-23573.475000	-14103.270000	-43893.270000	-43419.285000	-10218.780000	7196.130000	2.257843	1.655132	1.395096	1.637151	2.022789	2.442209	0.963168	1.116370	-2.563680	4.288060	-2.319520	0.929990	-0.020874	0.345275	-1.000000	-1.000000	-1.000000	-1.000000	-1.000000	-1.000000	-1.000000	88.000000	0.000000	-1.000000	-1.000000	263926.000000	1770062023.793463
-12156.165000	-40228.155000	-23573.340000	-14103.540000	-43894.530000	-43419.780000	-10224.945000	7194.960000	-0.153347	-3.220791	-3.503533	-2.446895	-0.735233	-1.527994	-2.215730	-0.843806	-2.563680	4.288060	-2.319520	0.929990	-0.020874	0.345275	-1.000000	-1.000000	-1.000000	-1.000000	-1.000000	-1.000000	-1.000000	88.000000	0.000000	-1.000000	-1.000000	263927.000000	1770062023.797497
-12147.345000	-40223.970000	-23563.035000	-14083.560000	-43868.880000	-43390.575000	-10217.205000	7204.140000	-3.191649	-7.261798	-7.434598	-5.980550	-3.297634	-4.692618	-5.123487	-3.822801	-2.563680	4.288060	-2.319520	0.929990	-0.020874	0.345275	-1.000000	-1.000000	-1.000000	-1.000000	-1.000000	-1.000000	-1.000000	88.000000	0.000000	-1.000000	-1.000000	263928.000000	1770062023.797508
-12141.315000	-40214.790000	-23552.955000	-14073.660000	-43862.130000	-43383.645000	-10212.840000	7209.090000	-4.696701	-7.984643	-7.705252	-5.801053	-3.028375	-3.990359	-5.535593	-5.369603	-2.563680	4.288060	-2.319520	0.929990	-0.020874	0.345275	-1.000000	-1.000000	-1.000000	-1.000000	-1.000000	-1.000000	-1.000000	88.000000	0.000000	-1.000000	-1.000000	263929.000000	1770062023.801476
-12135.105000	-40206.105000	-23547.105000	-14071.950000	-43862.715000	-43384.095000	-10211.040000	7212.015000	-3.600286	-5.009302	-4.027628	-1.615026	0.323713	0.404892	-2.792489	-3.980177	-2.563680	4.288060	-2.319520	0.929990	-0.020874	0.345275	-1.000000	-1.000000	-1.000000	-1.000000	-1.000000	-1.000000	-1.000000	88.000000	0.000000	-1.000000	-1.000000	263930.000000	1770062023.801484
-12141.855000	-40216.635000	-23554.440000	-14075.640000	-43861.905000	-43384.770000	-10206.315000	7206.975000	-0.666563	-0.055215	1.307913	3.612166	4.153530	5.006460	1.435338	-0.747363	-0.442540	5.066320	-2.563680	0.931455	-0.022583	0.343993	-1.000000	-1.000000	-1.000000	-1.000000	-1.000000	-1.000000	-1.000000	88.000000	0.000000	-1.000000	-1.000000	263931.000000	1770062023.805438
-12155.805000	-40221.945000	-23558.265000	-14082.030000	-43873.020000	-43400.430000	-10214.325000	7197.030000	1.985288	4.013861	4.967468	6.131351	5.346991	6.139226	4.436800	1.688763	-0.442540	5.066320	-2.563680	0.931455	-0.022583	0.343993	-1.000000	-1.000000	-1.000000	-1.000000	-1.000000	-1.000000	-1.000000	88.000000	0.000000	-1.000000	-1.000000	263932.000000	1770062023.805448
-12150.270000	-40203.135000	-23541.975000	-14070.015000	-43864.830000	-43393.770000	-10211.940000	7205.760000	2.456560	5.187187	5.073581	4.421828	2.735707	2.845495	4.480900	1.796635	-0.442540	5.066320	-2.563680	0.931455	-0.022583	0.343993	-1.000000	-1.000000	-1.000000	-1.000000	-1.000000	-1.000000	-1.000000	88.000000	0.000000	-1.000000	-1.000000	263933.000000	1770062023.816317
-12148.425000	-40202.370000	-23541.795000	-14069.430000	-43858.755000	-43384.905000	-10203.795000	7199.235000	1.136563	4.198029	2.990809	0.737394	-1.367783	-1.813934	2.459801	0.747941	-0.442540	5.066320	-2.563680	0.931455	-0.022583	0.343993	-1.000000	-1.000000	-1.000000	-1.000000	-1.000000	-1.000000	-1.000000	88.000000	0.000000	-1.000000	-1.000000	263934.000000	1770062023.816327
-12134.790000	-40209.570000	-23552.235000	-14077.530000	-43861.860000	-43380.810000	-10203.255000	7207.380000	0.198335	2.852499	1.152160	-1.559939	-3.308950	-3.548469	0.868690	0.621277	-0.442540	5.066320	-2.563680	0.931455	-0.022583	0.343993	-1.000000	-1.000000	-1.000000	-1.000000	-1.000000	-1.000000	-1.000000	88.000000	0.000000	-1.000000	-1.000000	263935.000000	1770062023.816350
-12142.620000	-40219.920000	-23566.995000	-14093.685000	-43879.095000	-43396.830000	-10216.035000	7207.695000	0.823550	1.420669	-0.085311	-1.914981	-2.443014	-1.739534	0.655517	1.898052	-0.442540	5.066320	-2.563680	0.931455	-0.022583	0.343993	-1.000000	-1.000000	-1.000000	-1.000000	-1.000000	-1.000000	-1.000000	88.000000	0.000000	-1.000000	-1.000000	263936.000000	1770062023.816357
-12141.045000	-40217.985000	-23562.045000	-14084.595000	-43868.745000	-43389.630000	-10217.655000	7215.255000	1.808291	-0.803314	-1.820924	-2.224772	-1.392338	0.168163	0.406123	3.301468	-0.442540	5.066320	-2.563680	0.931455	-0.022583	0.343993	-1.000000	-1.000000	-1.000000	-1.000000	-1.000000	-1.000000	-1.000000	88.000000	0.000000	-1.000000	-1.000000	263937.000000	1770062023.818774
-12139.515000	-40216.320000	-23560.740000	-14085.180000	-43873.290000	-43395.480000	-10220.580000	7212.195000	1.360011	-3.600137	-4.043628	-3.356286	-1.894176	-0.523086	-1.150538	3.297234	-0.442540	5.066320	-2.563680	0.931455	-0.022583	0.343993	-1.000000	-1.000000	-1.000000	-1.000000	-1.000000	-1.000000	-1.000000	88.000000	0.000000	-1.000000	-1.000000	263938.000000	1770062023.818784
-12141.630000	-40217.760000	-23557.545000	-14078.970000	-43862.805000	-43387.695000	-10217.430000	7209.630000	-0.570135	-5.510072	-5.145106	-3.934187	-2.748548	-2.744038	-3.342094	1.410184	-0.442540	5.066320	-2.563680	0.931455	-0.022583	0.343993	-1.000000	-1.000000	-1.000000	-1.000000	-1.000000	-1.000000	-1.000000	88.000000	0.000000	-1.000000	-1.000000	263939.000000	1770062023.821396
-12142.395000	-40212.765000	-23548.815000	-14071.005000	-43854.750000	-43377.795000	-10209.915000	7210.035000	-2.413507	-4.936267	-3.570567	-2.333008	-1.893931	-3.561249	-4.405745	-1.456706	-0.442540	5.066320	-2.563680	0.931455	-0.022583	0.343993	-1.000000	-1.000000	-1.000000	-1.000000	-1.000000	-1.000000	-1.000000	88.000000	0.000000	-1.000000	-1.000000	263940.000000	1770062023.821416
-12132.945000	-40194.315000	-23524.965000	-14046.705000	-43834.185000	-43363.710000	-10202.805000	7222.500000	-2.538156	-1.471391	0.701834	1.573630	1.330182	-1.170978	-3.080328	-3.488253	-2.426340	5.737760	-2.975700	0.932859	-0.018555	0.343932	-1.000000	-1.000000	-1.000000	-1.000000	-1.000000	-1.000000	-1.000000	88.000000	0.000000	-1.000000	-1.000000	263941.000000	1770062023.829683
-12133.575000	-40194.450000	-23526.180000	-14049.405000	-43836.795000	-43366.770000	-10203.030000	7217.865000	-0.672265	3.293996	5.739094	6.123034	5.500557	3.438642	0.279403	-3.344186	-2.426340	5.737760	-2.975700	0.932859	-0.018555	0.343932	-1.000000	-1.000000	-1.000000	-1.000000	-1.000000	-1.000000	-1.000000	88.000000	0.000000	-1.000000	-1.000000	263942.000000	1770062023.829693
-12116.070000	-40189.680000	-23529.465000	-14056.245000	-43847.460000	-43373.655000	-10196.055000	7232.805000	1.899607	6.667125	8.569541	8.531643	7.679448	6.867679	3.746074	-1.231028	-2.426340	5.737760	-2.975700	0.932859	-0.018555	0.343932	-1.000000	-1.000000	-1.000000	-1.000000	-1.000000	-1.000000	-1.000000	88.000000	0.000000	-1.000000	-1.000000	263943.000000	1770062023.829704
-12131.955000	-40203.315000	-23548.500000	-14084.370000	-43882.650000	-43405.875000	-10205.640000	7212.375000	3.405058	6.901307	7.264275	6.655789	5.385779	5.914374	5.354577	1.262385	-2.426340	5.737760	-2.975700	0.932859	-0.018555	0.343932	-1.000000	-1.000000	-1.000000	-1.000000	-1.000000	-1.000000	-1.000000	88.000000	0.000000	-1.000000	-1.000000	263944.000000	1770062023.829710
-12136.950000	-40213.485000	-23559.795000	-14093.055000	-43887.015000	-43405.425000	-10219.320000	7211.655000	2.514582	3.860540	2.118185	0.607270	-1.212198	0.303631	4.225563	1.947097	-2.426340	5.737760	-2.975700	0.932859	-0.018555	0.343932	-1.000000	-1.000000	-1.000000	-1.000000	-1.000000	-1.000000	-1.000000	88.000000	0.000000	-1.000000	-1.000000	263945.000000	1770062023.834194
-12147.165000	-40221.945000	-23566.905000	-14094.450000	-43882.695000	-43403.040000	-10223.100000	7206.570000	-0.765946	-1.397719	-4.759365	-6.938143	-8.630130	-6.590296	0.717964	-0.041721	-2.426340	5.737760	-2.975700	0.932859	-0.018555	0.343932	-1.000000	-1.000000	-1.000000	-1.000000	-1.000000	-1.000000	-1.000000	88.000000	0.000000	-1.000000	-1.000000	263946.000000	1770062023.834202
-12155.400000	-40227.975000	-23568.525000	-14091.660000	-43875.630000	-43398.585000	-10222.785000	7200.090000	-4.784595	-6.734527	-10.242814	-11.867821	-12.014449	-10.028534	-3.425632	-3.131875	-2.426340	5.737760	-2.975700	0.932859	-0.018555	0.343932	-1.000000	-1.000000	-1.000000	-1.000000	-1.000000	-1.000000	-1.000000	88.000000	0.000000	-1.000000	-1.000000	263947.000000	1770062023.837321
-12146.220000	-40218.390000	-23554.305000	-14072.985000	-43854.345000	-43380.045000	-10213.830000	7209.810000	-7.010867	-9.345390	-11.318756	-11.012086	-8.724772	-7.544023	-5.821573	-4.735116	-2.426340	5.737760	-2.975700	0.932859	-0.018555	0.343932	-1.000000	-1.000000	-1.000000	-1.000000	-1.000000	-1.000000	-1.000000	88.000000	0.000000	-1.000000	-1.000000	263948.000000	1770062023.837326
-12137.715000	-40202.820000	-23537.430000	-14061.510000	-43851.420000	-43381.215000	-10210.680000	7217.910000	-5.381363	-7.271523	-6.880008	-4.403975	-0.424059	-0.625352	-5.128066	-3.189825	-2.426340	5.737760	-2.975700	0.932859	-0.018555	0.343932	-1.000000	-1.000000	-1.000000	-1.000000	-1.000000	-1.000000	-1.000000	88.000000	0.000000	-1.000000	-1.000000	263949.000000	1770062023.846191
-12128.805000	-40190.265000	-23524.830000	-14052.105000	-43845.390000	-43374.195000	-10200.330000	7230.375000	-0.131405	-1.247514	1.002998	4.366373	7.973074	6.503150	-1.835362	1.041542	-2.426340	5.737760	-2.975700	0.932859	-0.018555	0.343932	-1.000000	-1.000000	-1.000000	-1.000000	-1.000000	-1.000000	-1.000000	88.000000	0.000000	-1.000000	-1.000000	263950.000000	1770062023.846201
-12122.910000	-40195.260000	-23532.750000	-14056.965000	-43842.195000	-43363.620000	-10188.990000	7231.320000	5.862869	5.396952	8.184548	10.609525	11.989635	10.182069	2.421924	5.636358	-3.708180	5.936140	-2.334780	0.933774	-0.016602	0.343261	-1.000000	-1.000000	-1.000000	-1.000000	-1.000000	-1.000000	-1.000000	88.000000	0.000000	-1.000000	-1.000000	263951.000000	1770062023.846212
-12127.185000	-40211.910000	-23556.465000	-14081.310000	-43861.815000	-43379.820000	-10209.825000	7219.710000	9.060706	8.900636	10.993133	11.544788	10.547757	9.558256	5.505423	7.780191	-3.708180	5.936140	-2.334780	0.933774	-0.016602	0.343261	-1.000000	-1.000000	-1.000000	-1.000000	-1.000000	-1.000000	-1.000000	88.000000	0.000000	-1.000000	-1.000000	263952.000000	1770062023.846217
-12121.650000	-40197.060000	-23539.455000	-14066.955000	-43855.605000	-43378.695000	-10222.875000	7223.805000	7.897735	7.821268	8.638073	7.670039	5.629655	5.851687	5.443780	6.062054	-3.708180	5.936140	-2.334780	0.933774	-0.016602	0.343261	-1.000000	-1.000000	-1.000000	-1.000000	-1.000000	-1.000000	-1.000000	88.000000	0.000000	-1.000000	-1.000000	263953.000000	1770062023.849238
-12133.035000	-40208.490000	-23551.200000	-14073.795000	-43855.290000	-43375.770000	-10216.890000	7220.655000	3.656200	3.967258	3.649238	2.021244	0.156917	0.904002	2.328747	1.696573	-3.708180	5.936140	-2.334780	0.933774	-0.016602	0.343261	-1.000000	-1.000000	-1.000000	-1.000000	-1.000000	-1.000000	-1.000000	88.000000	0.000000	-1.000000	-1.000000	263954.000000	1770062023.849249
-12144.780000	-40211.640000	-23549.040000	-14068.440000	-43851.240000	-43376.355000	-10215.855000	7203.420000	-1.418095	-0.134992	-1.019312	-2.632505	-3.981503	-3.652928	-1.320988	-2.973919	-3.708180	5.936140	-2.334780	0.933774	-0.016602	0.343261	-1.000000	-1.000000	-1.000000	-1.000000	-1.000000	-1.000000	-1.000000	88.000000	0.000000	-1.000000	-1.000000	263955.000000	1770062023.853297
-12132.630000	-40191.345000	-23527.530000	-14051.250000	-43840.710000	-43369.245000	-10205.505000	7190.910000	-5.398858	-2.937750	-3.820483	-5.138203	-6.265410	-6.727998	-3.105075	-6.473493	-3.708180	5.936140	-2.334780	0.933774	-0.016602	0.343261	-1.000000	-1.000000	-1.000000	-1.000000	-1.000000	-1.000000	-1.000000	88.000000	0.000000	-1.000000	-1.000000	263956.000000	1770062023.853308
-12114.900000	-40175.145000	-23514.210000	-14042.925000	-43837.020000	-43366.905000	-10198.800000	7203.330000	-6.511017	-3.423905	-4.142934	-5.350465	-6.803061	-7.786444	-2.556288	-7.979958	-3.708180	5.936140	-2.334780	0.933774	-0.016602	0.343261	-1.000000	-1.000000	-1.000000	-1.000000	-1.000000	-1.000000	-1.000000	88.000000	0.000000	-1.000000	-1.000000	263957.000000	1770062023.858765
-12113.055000	-40183.065000	-23523.120000	-14050.665000	-43841.115000	-43369.470000	-10198.125000	7229.835000	-4.285138	-2.167006	-3.011978	-4.304348	-6.050261	-6.847612	-0.800706	-6.457023	-3.708180	5.936140	-2.334780	0.933774	-0.016602	0.343261	-1.000000	-1.000000	-1.000000	-1.000000	-1.000000	-1.000000	-1.000000	88.000000	0.000000	-1.000000	-1.000000	263958.000000	1770062023.858777
-12125.295000	-40197.105000	-23535.405000	-14057.370000	-43839.495000	-43365.240000	-10193.355000	7234.605000	-0.787849	-1.599397	-2.735403	-3.631121	-4.549812	-4.436879	0.522794	-1.591730	-3.708180	5.936140	-2.334780	0.933774	-0.016602	0.343261	-1.000000	-1.000000	-1.000000	-1.000000	-1.000000	-1.000000	-1.000000	88.000000	0.000000	-1.000000	-1.000000	263959.000000	1770062023.861712
-12139.290000	-40208.310000	-23548.905000	-14071.005000	-43851.645000	-43378.200000	-10201.185000	7215.075000	0.858851	-3.058194	-3.997186	-3.610020	-2.500878	-1.423888	0.451394	4.347259	-3.708180	5.936140	-2.334780	0.933774	-0.016602	0.343261	-1.000000	-1.000000	-1.000000	-1.000000	-1.000000	-1.000000	-1.000000	88.000000	0.000000	-1.000000	-1.000000	263960.000000	1770062023.861723
-12141.585000	-40207.275000	-23549.625000	-14076.855000	-43862.625000	-43388.100000	-10209.645000	7210.755000	-0.422322	-4.941509	-4.866091	-2.931541	0.091601	1.373945	-0.535389	7.610575	-2.990960	6.638100	-1.922760	0.935178	-0.019226	0.345641	-1.000000	-1.000000	-1.000000	-1.000000	-1.000000	-1.000000	-1.000000	88.000000	0.000000	-1.000000	-1.000000	263961.000000	1770062023.865162
-12136.635000	-40197.465000	-23538.330000	-14069.295000	-43862.445000	-43387.155000	-10216.620000	7211.430000	-2.555687	-4.630053	-3.240235	-0.651245	2.706103	3.398454	-1.182246	6.503198	-2.990960	6.638100	-1.922760	0.935178	-0.019226	0.345641	-1.000000	-1.000000	-1.000000	-1.000000	-1.000000	-1.000000	-1.000000	88.000000	0.000000	-1.000000	-1.000000	263962.000000	1770062023.865172
-12120.345000	-40188.510000	-23524.695000	-14050.710000	-43841.655000	-43365.195000	-10211.625000	7224.120000	-2.304023	-0.990663	1.173567	2.911358	4.602805	4.562039	-0.923050	2.778723	-2.990960	6.638100	-1.922760	0.935178	-0.019226	0.345641	-1.000000	-1.000000	-1.000000	-1.000000	-1.000000	-1.000000	-1.000000	88.000000	0.000000	-1.000000	-1.000000	263963.000000	1770062023.871357
-12119.580000	-40194.945000	-23531.130000	-14056.740000	-43842.645000	-43365.015000	-10204.965000	7229.880000	1.608748	4.485201	6.434657	6.399059	5.543459	5.249902	-0.044067	-0.110082	-2.990960	6.638100	-1.922760	0.935178	-0.019226	0.345641	-1.000000	-1.000000	-1.000000	-1.000000	-1.000000	-1.000000	-1.000000	88.000000	0.000000	-1.000000	-1.000000	263964.000000	1770062023.871368
-12117.870000	-40189.995000	-23523.885000	-14050.305000	-43833.915000	-43360.605000	-10202.265000	7229.115000	6.609417	8.088833	8.929291	7.465099	5.144217	5.197691	0.884793	-0.324933	-2.990960	6.638100	-1.922760	0.935178	-0.019226	0.345641	-1.000000	-1.000000	-1.000000	-1.000000	-1.000000	-1.000000	-1.000000	88.000000	0.000000	-1.000000	-1.000000	263965.000000	1770062023.873256
-12114.495000	-40180.815000	-23517.630000	-14048.640000	-43839.180000	-43365.735000	-10198.395000	7226.955000	8.345241	7.072413	6.473443	4.739446	2.974776	3.499565	1.253454	0.435574	-2.990960	6.638100	-1.922760	0.935178	-0.019226	0.345641	-1.000000	-1.000000	-1.000000	-1.000000	-1.000000	-1.000000	-1.000000	88.000000	0.000000	-1.000000	-1.000000	263966.000000	1770062023.873263
-12123.720000	-40187.970000	-23529.015000	-14062.005000	-43856.145000	-43386.840000	-10208.970000	7215.345000	5.062055	2.459498	0.715800	-0.345753	-0.575192	-0.079954	0.712753	-0.941882	-2.990960	6.638100	-1.922760	0.935178	-0.019226	0.345641	-1.000000	-1.000000	-1.000000	-1.000000	-1.000000	-1.000000	-1.000000	88.000000	0.000000	-1.000000	-1.000000	263967.000000	1770062023.878003
-12133.755000	-40204.620000	-23542.245000	-14065.515000	-43846.470000	-43374.285000	-10207.440000	7209.945000	-1.147517	-2.510588	-4.732293	-4.882830	-4.189755	-4.441816	-0.639239	-4.990365	-2.990960	6.638100	-1.922760	0.935178	-0.019226	0.345641	-1.000000	-1.000000	-1.000000	-1.000000	-1.000000	-1.000000	-1.000000	88.000000	0.000000	-1.000000	-1.000000	263968.000000	1770062023.878018
-12132.270000	-40201.605000	-23542.290000	-14066.280000	-43849.935000	-43374.780000	-10215.315000	7208.730000	-6.473489	-5.276066	-7.040408	-6.320521	-5.616616	-6.854050	-1.896174	-8.468495	-2.990960	6.638100	-1.922760	0.935178	-0.019226	0.345641	-1.000000	-1.000000	-1.000000	-1.000000	-1.000000	-1.000000	-1.000000	88.000000	0.000000	-1.000000	-1.000000	263969.000000	1770062023.881297
-12129.525000	-40189.725000	-23534.415000	-14064.615000	-43853.715000	-43378.560000	-10221.660000	7206.030000	-7.981792	-4.837727	-5.375999	-3.906769	-3.473254	-5.104736	-1.784063	-7.778429	-2.990960	6.638100	-1.922760	0.935178	-0.019226	0.345641	-1.000000	-1.000000	-1.000000	-1.000000	-1.000000	-1.000000	-1.000000	88.000000	0.000000	-1.000000	-1.000000	263970.000000	1770062023.881307
-12124.440000	-40193.505000	-23537.565000	-14063.040000	-43846.965000	-43367.715000	-10204.605000	7221.195000	-5.351183	-1.939521	-1.312389	0.360583	0.634516	-0.434015	0.063661	-2.670772	-3.219860	5.524120	-1.129240	0.935178	-0.018738	0.347045	-1.000000	-1.000000	-1.000000	-1.000000	-1.000000	-1.000000	-1.000000	88.000000	0.000000	-1.000000	-1.000000	263971.000000	1770062023.885379
-12121.605000	-40194.540000	-23535.630000	-14058.990000	-43842.015000	-43363.620000	-10199.250000	7237.935000	-0.667279	1.253270	2.302969	3.363593	3.620689	3.741420	2.832033	4.306208	-3.219860	5.524120	-1.129240	0.935178	-0.018738	0.347045	-1.000000	-1.000000	-1.000000	-1.000000	-1.000000	-1.000000	-1.000000	88.000000	0.000000	-1.000000	-1.000000	263972.000000	1770062023.885389
-12118.770000	-40193.190000	-23530.365000	-14053.005000	-43834.320000	-43357.005000	-10199.160000	7241.085000	3.377086	2.803974	3.645727	3.614894	3.826954	5.082498	4.789715	10.043896	-3.219860	5.524120	-1.129240	0.935178	-0.018738	0.347045	-1.000000	-1.000000	-1.000000	-1.000000	-1.000000	-1.000000	-1.000000	88.000000	0.000000	-1.000000	-1.000000	263973.000000	1770062023.890200
-12130.740000	-40200.750000	-23539.680000	-14062.950000	-43845.435000	-43368.795000	-10204.065000	7221.780000	4.805854	2.044194	2.578580	1.633806	1.639191	3.398363	4.151461	11.612340	-3.219860	5.524120	-1.129240	0.935178	-0.018738	0.347045	-1.000000	-1.000000	-1.000000	-1.000000	-1.000000	-1.000000	-1.000000	88.000000	0.000000	-1.000000	-1.000000	263974.000000	1770062023.890210
-12133.215000	-40197.735000	-23537.340000	-14062.230000	-43845.120000	-43372.980000	-10209.645000	7219.350000	3.038628	-0.453608	-0.013506	-1.213913	-1.400568	0.026843	0.730802	7.408756	-3.219860	5.524120	-1.129240	0.935178	-0.018738	0.347045	-1.000000	-1.000000	-1.000000	-1.000000	-1.000000	-1.000000	-1.000000	88.000000	0.000000	-1.000000	-1.000000	263975.000000	1770062023.901547
-12122.370000	-40186.755000	-23527.755000	-14056.830000	-43839.765000	-43370.190000	-10206.000000	7230.105000	-0.172169	-2.523332	-2.020874	-2.982597	-3.246066	-2.887306	-3.511703	-0.473330	-3.219860	5.524120	-1.129240	0.935178	-0.018738	0.347045	-1.000000	-1.000000	-1.000000	-1.000000	-1.000000	-1.000000	-1.000000	88.000000	0.000000	-1.000000	-1.000000	263976.000000	1770062023.901555
-12124.710000	-40192.830000	-23537.880000	-14071.140000	-43859.610000	-43384.860000	-10208.070000	7228.080000	-1.759512	-1.733862	-1.291288	-2.241357	-2.865598	-3.868629	-5.864695	-6.947323	-3.219860	5.524120	-1.129240	0.935178	-0.018738	0.347045	-1.000000	-1.000000	-1.000000	-1.000000	-1.000000	-1.000000	-1.000000	88.000000	0.000000	-1.000000	-1.000000	263977.000000	1770062023.901564
-12123.540000	-40190.535000	-23536.305000	-14073.435000	-43876.980000	-43398.585000	-10218.105000	7222.320000	-0.622166	1.506886	1.593510	0.156603	-1.457728	-3.299680	-4.967946	-8.540239	-3.219860	5.524120	-1.129240	0.935178	-0.018738	0.347045	-1.000000	-1.000000	-1.000000	-1.000000	-1.000000	-1.000000	-1.000000	88.000000	0.000000	-1.000000	-1.000000	263978.000000	1770062023.901569
-12115.350000	-40182.525000	-23527.305000	-14052.915000	-43844.805000	-43364.520000	-10206.090000	7235.280000	1.605497	4.223116	3.885263	2.297783	-0.306413	-1.864384	-1.615961	-5.754631	-3.219860	5.524120	-1.129240	0.935178	-0.018738	0.347045	-1.000000	-1.000000	-1.000000	-1.000000	-1.000000	-1.000000	-1.000000	88.000000	0.000000	-1.000000	-1.000000	263979.000000	1770062023.901574
-12114.765000	-40177.215000	-23518.890000	-14044.905000	-43834.635000	-43353.540000	-10202.310000	7230.510000	2.843099	4.445453	3.954332	3.441949	1.155011	0.760896	2.119912	-1.444167	-3.219860	5.524120	-1.129240	0.935178	-0.018738	0.347045	-1.000000	-1.000000	-1.000000	-1.000000	-1.000000	-1.000000	-1.000000	88.000000	0.000000	-1.000000	-1.000000	263980.000000	1770062023.901579
-12118.320000	-40170.060000	-23507.145000	-14033.205000	-43820.595000	-43346.430000	-10199.340000	7216.245000	2.072032	2.620316	2.300874	3.633993	3.366515	4.124332	4.218337	1.181816	-2.609460	5.020540	-0.808780	0.936338	-0.020142	0.348327	-1.000000	-1.000000	-1.000000	-1.000000	-1.000000	-1.000000	-1.000000	88.000000	0.000000	-1.000000	-1.000000	263981.000000	1770062023.909772
-12124.080000	-40183.740000	-23514.750000	-14032.395000	-43805.115000	-43330.365000	-10187.730000	7220.070000	-0.463484	-0.065648	0.005782	2.761966	5.284100	6.415463	4.015063	0.761655	-2.609460	5.020540	-0.808780	0.936338	-0.020142	0.348327	-1.000000	-1.000000	-1.000000	-1.000000	-1.000000	-1.000000	-1.000000	88.000000	0.000000	-1.000000	-1.000000	263982.000000	1770062023.909785
-12101.940000	-40176.090000	-23515.245000	-14040.180000	-43818.705000	-43341.525000	-10188.000000	7243.155000	-3.027932	-2.843003	-2.352230	0.776509	5.607886	6.376589	2.505557	-0.522438	-2.609460	5.020540	-0.808780	0.936338	-0.020142	0.348327	-1.000000	-1.000000	-1.000000	-1.000000	-1.000000	-1.000000	-1.000000	88.000000	0.000000	-1.000000	-1.000000	263983.000000	1770062023.909798
-12104.505000	-40180.095000	-23522.580000	-14050.170000	-43832.655000	-43359.750000	-10191.285000	7242.435000	-3.380099	-4.845361	-4.346574	-2.051520	3.320381	3.630129	0.878761	0.431741	-2.609460	5.020540	-0.808780	0.936338	-0.020142	0.348327	-1.000000	-1.000000	-1.000000	-1.000000	-1.000000	-1.000000	-1.000000	88.000000	0.000000	-1.000000	-1.000000	263984.000000	1770062023.909804
-12116.790000	-40189.320000	-23530.815000	-14058.180000	-43844.355000	-43377.120000	-10205.190000	7228.530000	-1.492264	-5.301722	-5.421222	-4.955947	-1.668943	-1.676856	-0.764403	3.212042	-2.609460	5.020540	-0.808780	0.936338	-0.020142	0.348327	-1.000000	-1.000000	-1.000000	-1.000000	-1.000000	-1.000000	-1.000000	88.000000	0.000000	-1.000000	-1.000000	263985.000000	1770062023.913359
-12113.775000	-40183.740000	-23525.370000	-14054.355000	-43843.815000	-43377.615000	-10213.515000	7226.325000	0.411909	-4.113503	-4.938235	-6.406917	-6.991475	-7.544400	-2.699986	4.689931	-2.609460	5.020540	-0.808780	0.936338	-0.020142	0.348327	-1.000000	-1.000000	-1.000000	-1.000000	-1.000000	-1.000000	-1.000000	88.000000	0.000000	-1.000000	-1.000000	263986.000000	1770062023.913375
-12100.635000	-40171.635000	-23513.850000	-14042.205000	-43827.840000	-43361.370000	-10207.440000	7226.730000	1.036179	-1.536892	-2.477418	-4.989432	-8.876256	-10.266168	-4.195466	3.296664	-2.609460	5.020540	-0.808780	0.936338	-0.020142	0.348327	-1.000000	-1.000000	-1.000000	-1.000000	-1.000000	-1.000000	-1.000000	88.000000	0.000000	-1.000000	-1.000000	263987.000000	1770062023.919088
-12113.730000	-40190.445000	-23531.670000	-14056.650000	-43833.105000	-43360.290000	-10203.300000	7218.810000	0.681659	1.434687	0.975666	-1.461923	-6.221892	-8.056257	-4.073190	-0.099273	-2.609460	5.020540	-0.808780	0.936338	-0.020142	0.348327	-1.000000	-1.000000	-1.000000	-1.000000	-1.000000	-1.000000	-1.000000	88.000000	0.000000	-1.000000	-1.000000	263988.000000	1770062023.919100
-12113.460000	-40185.540000	-23526.315000	-14057.145000	-43836.705000	-43363.530000	-10207.620000	7237.080000	-0.341859	2.990563	3.074988	1.344582	-1.924934	-3.039212	-2.368158	-3.478664	-2.609460	5.020540	-0.808780	0.936338	-0.020142	0.348327	-1.000000	-1.000000	-1.000000	-1.000000	-1.000000	-1.000000	-1.000000	88.000000	0.000000	-1.000000	-1.000000	263989.000000	1770062023.921536
-12122.370000	-40182.750000	-23522.580000	-14055.390000	-43834.455000	-43360.155000	-10208.835000	7236.990000	-1.624773	2.515394	2.698682	1.683581	0.696306	1.446334	-0.303464	-4.396826	-2.609460	5.020540	-0.808780	0.936338	-0.020142	0.348327	-1.000000	-1.000000	-1.000000	-1.000000	-1.000000	-1.000000	-1.000000	88.000000	0.000000	-1.000000	-1.000000	263990.000000	1770062023.921545
-12120.525000	-40182.345000	-23521.275000	-14049.000000	-43828.245000	-43353.810000	-10198.440000	7232.310000	-2.349299	1.396252	1.229458	0.699951	1.144130	3.889885	1.154537	-2.256616	-2.441600	4.700080	-0.808780	0.937498	-0.019043	0.349242	-1.000000	-1.000000	-1.000000	-1.000000	-1.000000	-1.000000	-1.000000	88.000000	0.000000	-1.000000	-1.000000	263991.000000	1770062023.925214
-12103.650000	-40165.380000	-23499.315000	-14024.655000	-43803.315000	-43334.370000	-10193.130000	7236.990000	-1.878049	1.165578	0.864361	1.037268	1.704014	5.233491	2.200086	0.598020	-2.441600	4.700080	-0.808780	0.937498	-0.019043	0.349242	-1.000000	-1.000000	-1.000000	-1.000000	-1.000000	-1.000000	-1.000000	88.000000	0.000000	-1.000000	-1.000000	263992.000000	1770062023.925222
-12093.975000	-40156.290000	-23493.285000	-14020.290000	-43796.430000	-43326.540000	-10183.050000	7244.460000	0.205738	2.307520	2.677597	4.136480	4.680519	7.214146	3.534428	2.009578	-2.441600	4.700080	-0.808780	0.937498	-0.019043	0.349242	-1.000000	-1.000000	-1.000000	-1.000000	-1.000000	-1.000000	-1.000000	88.000000	0.000000	-1.000000	-1.000000	263993.000000	1770062023.929142
-12095.415000	-40162.230000	-23502.465000	-14030.865000	-43807.995000	-43331.670000	-10174.230000	7250.220000	3.589544	4.067348	5.430558	8.138353	9.000428	9.549623	5.303561	2.310902	-2.441600	4.700080	-0.808780	0.937498	-0.019043	0.349242	-1.000000	-1.000000	-1.000000	-1.000000	-1.000000	-1.000000	-1.000000	88.000000	0.000000	-1.000000	-1.000000	263994.000000	1770062023.929164
-12098.565000	-40165.740000	-23509.620000	-14041.530000	-43824.150000	-43344.270000	-10185.615000	7240.185000	6.244801	4.371967	5.967125	8.884956	10.409661	9.371778	6.522503	2.433782	-2.441600	4.700080	-0.808780	0.937498	-0.019043	0.349242	-1.000000	-1.000000	-1.000000	-1.000000	-1.000000	-1.000000	-1.000000	88.000000	0.000000	-1.000000	-1.000000	263995.000000	1770062023.933181
-12102.165000	-40171.320000	-23517.045000	-14049.945000	-43833.645000	-43352.145000	-10195.740000	7233.840000	5.655089	1.557332	2.199253	3.884290	5.551334	3.975703	5.084490	1.878035	-2.441600	4.700080	-0.808780	0.937498	-0.019043	0.349242	-1.000000	-1.000000	-1.000000	-1.000000	-1.000000	-1.000000	-1.000000	88.000000	0.000000	-1.000000	-1.000000	263996.000000	1770062023.933203
-12117.510000	-40189.545000	-23532.255000	-14061.375000	-43840.620000	-43359.390000	-10198.845000	7229.160000	1.458035	-3.528594	-4.437281	-4.889237	-4.251232	-5.720934	-0.111085	-0.172739	-2.441600	4.700080	-0.808780	0.937498	-0.019043	0.349242	-1.000000	-1.000000	-1.000000	-1.000000	-1.000000	-1.000000	-1.000000	88.000000	0.000000	-1.000000	-1.000000	263997.000000	1770062023.938574
-12106.575000	-40172.805000	-23509.980000	-14040.540000	-43826.445000	-43351.065000	-10199.430000	7238.565000	-3.894536	-8.022985	-9.983185	-12.166167	-13.215135	-14.620721	-6.825612	-3.045424	-2.441600	4.700080	-0.808780	0.937498	-0.019043	0.349242	-1.000000	-1.000000	-1.000000	-1.000000	-1.000000	-1.000000	-1.000000	88.000000	0.000000	-1.000000	-1.000000	263998.000000	1770062023.938583
-12106.530000	-40161.870000	-23495.805000	-14026.455000	-43813.530000	-43344.180000	-10196.145000	7228.935000	-6.885830	-8.842992	-10.580627	-13.118415	-15.484850	-17.190579	-11.025442	-4.902967	-2.441600	4.700080	-0.808780	0.937498	-0.019043	0.349242	-1.000000	-1.000000	-1.000000	-1.000000	-1.000000	-1.000000	-1.000000	88.000000	0.000000	-1.000000	-1.000000	263999.000000	1770062023.941179
-12126.015000	-40175.640000	-23508.990000	-14035.365000	-43815.780000	-43346.790000	-10195.020000	7213.320000	-6.176758	-5.144927	-5.542814	-7.210735	-9.790804	-11.945454	-10.398726	-4.796289	-2.441600	4.700080	-0.808780	0.937498	-0.019043	0.349242	-1.000000	-1.000000	-1.000000	-1.000000	-1.000000	-1.000000	-1.000000	88.000000	0.000000	-1.000000	-1.000000	264000.000000	1770062023.941188
-12114.945000	-40181.355000	-23520.555000	-14050.305000	-43830.360000	-43358.670000	-10192.320000	7234.020000	-3.693772	0.127165	1.181899	0.879664	-0.440349	-2.430574	-5.622914	-3.191346	-4.440660	3.708180	-0.793520	0.936338	-0.016846	0.350280	-1.000000	-1.000000	-1.000000	-1.000000	-1.000000	-1.000000	-1.000000	88.000000	0.000000	-1.000000	-1.000000	264001.000000	1770062023.945128
-12091.365000	-40165.695000	-23505.210000	-14038.425000	-43822.440000	-43350.255000	-10189.980000	7256.880000	-1.006897	3.536810	5.124693	5.911391	6.760991	6.107162	0.734605	-0.142001	-4.440660	3.708180	-0.793520	0.936338	-0.016846	0.350280	-1.000000	-1.000000	-1.000000	-1.000000	-1.000000	-1.000000	-1.000000	88.000000	0.000000	-1.000000	-1.000000	264002.000000	1770062023.945137
-12091.095000	-40161.240000	-23500.935000	-14032.485000	-43814.520000	-43338.780000	-10187.370000	7257.645000	2.331701	4.829848	5.915476	7.061184	9.699089	11.016953	5.997320	4.385388	-4.440660	3.708180	-0.793520	0.936338	-0.016846	0.350280	-1.000000	-1.000000	-1.000000	-1.000000	-1.000000	-1.000000	-1.000000	88.000000	0.000000	-1.000000	-1.000000	264003.000000	1770062023.949220
-12097.080000	-40165.920000	-23501.340000	-14028.570000	-43807.230000	-43334.550000	-10183.500000	7249.410000	5.752649	5.159986	5.470948	6.485321	9.794172	12.510742	8.728002	8.437985	-4.440660	3.708180	-0.793520	0.936338	-0.016846	0.350280	-1.000000	-1.000000	-1.000000	-1.000000	-1.000000	-1.000000	-1.000000	88.000000	0.000000	-1.000000	-1.000000	264004.000000	1770062023.949228
-12104.955000	-40170.240000	-23508.270000	-14037.030000	-43819.065000	-43347.915000	-10190.970000	7240.455000	7.057416	4.699521	4.623795	5.444741	8.220839	10.919723	8.651118	9.043575	-4.440660	3.708180	-0.793520	0.936338	-0.016846	0.350280	-1.000000	-1.000000	-1.000000	-1.000000	-1.000000	-1.000000	-1.000000	88.000000	0.000000	-1.000000	-1.000000	264005.000000	1770062023.953228
-12098.970000	-40159.890000	-23496.615000	-14024.340000	-43805.925000	-43336.395000	-10189.980000	7248.645000	5.271794	3.416081	3.223729	3.782895	4.922320	6.313546	5.980000	5.175137	-4.440660	3.708180	-0.793520	0.936338	-0.016846	0.350280	-1.000000	-1.000000	-1.000000	-1.000000	-1.000000	-1.000000	-1.000000	88.000000	0.000000	-1.000000	-1.000000	264006.000000	1770062023.953237
-12106.035000	-40166.145000	-23502.060000	-14031.765000	-43810.380000	-43340.985000	-10188.450000	7241.220000	1.485740	1.427068	0.915289	1.009751	0.112624	-0.045729	1.633389	-1.236507	-4.440660	3.708180	-0.793520	0.936338	-0.016846	0.350280	-1.000000	-1.000000	-1.000000	-1.000000	-1.000000	-1.000000	-1.000000	88.000000	0.000000	-1.000000	-1.000000	264007.000000	1770062023.957190
-12107.565000	-40167.135000	-23502.825000	-14032.215000	-43812.495000	-43344.405000	-10191.960000	7235.460000	-2.517986	-1.329567	-2.408993	-2.926971	-5.179716	-6.053650	-2.809649	-6.842531	-4.440660	3.708180	-0.793520	0.936338	-0.016846	0.350280	-1.000000	-1.000000	-1.000000	-1.000000	-1.000000	-1.000000	-1.000000	88.000000	0.000000	-1.000000	-1.000000	264008.000000	1770062023.957202
-12096.765000	-40158.045000	-23492.745000	-14021.370000	-43800.165000	-43332.525000	-10186.515000	7245.990000	-4.937397	-3.962318	-5.379232	-6.463780	-8.986091	-9.555104	-5.848500	-8.939550	-4.440660	3.708180	-0.793520	0.936338	-0.016846	0.350280	-1.000000	-1.000000	-1.000000	-1.000000	-1.000000	-1.000000	-1.000000	88.000000	0.000000	-1.000000	-1.000000	264009.000000	1770062023.961312
-12087.315000	-40154.580000	-23493.195000	-14022.045000	-43799.400000	-43329.555000	-10184.670000	7255.170000	-4.741255	-4.738652	-5.792188	-7.044808	-9.003750	-8.852726	-6.495529	-6.997581	-4.440660	3.708180	-0.793520	0.936338	-0.016846	0.350280	-1.000000	-1.000000	-1.000000	-1.000000	-1.000000	-1.000000	-1.000000	88.000000	0.000000	-1.000000	-1.000000	264010.000000	1770062023.961320
-12081.645000	-40149.090000	-23488.110000	-14018.355000	-43797.825000	-43326.495000	-10184.040000	7255.755000	-2.668874	-3.260560	-3.341643	-4.116081	-4.993264	-4.394335	-4.734966	-2.906609	-3.296160	2.685760	-0.885080	0.934202	-0.018005	0.351623	-1.000000	-1.000000	-1.000000	-1.000000	-1.000000	-1.000000	-1.000000	88.000000	0.000000	-1.000000	-1.000000	264011.000000	1770062023.965980
-12079.935000	-40144.770000	-23482.170000	-14011.425000	-43790.940000	-43318.845000	-10185.030000	7256.385000	-0.301421	-0.783922	0.149648	0.237981	0.533761	0.994303	-1.655385	0.930124	-3.296160	2.685760	-0.885080	0.934202	-0.018005	0.351623	-1.000000	-1.000000	-1.000000	-1.000000	-1.000000	-1.000000	-1.000000	88.000000	0.000000	-1.000000	-1.000000	264012.000000	1770062023.965989
-12077.730000	-40142.250000	-23479.830000	-14007.555000	-43786.035000	-43314.570000	-10182.060000	7260.120000	1.516596	1.473240	2.951382	3.710100	4.728756	4.616928	1.338514	3.558984	-3.296160	2.685760	-0.885080	0.934202	-0.018005	0.351623	-1.000000	-1.000000	-1.000000	-1.000000	-1.000000	-1.000000	-1.000000	88.000000	0.000000	-1.000000	-1.000000	264013.000000	1770062023.970496
-12086.730000	-40148.370000	-23486.355000	-14013.270000	-43792.650000	-43322.670000	-10180.755000	7252.335000	2.545857	2.845001	4.201183	5.115661	6.181991	5.481811	3.371852	4.926407	-3.296160	2.685760	-0.885080	0.934202	-0.018005	0.351623	-1.000000	-1.000000	-1.000000	-1.000000	-1.000000	-1.000000	-1.000000	88.000000	0.000000	-1.000000	-1.000000	264014.000000	1770062023.970506
-12087.090000	-40146.120000	-23483.745000	-14011.020000	-43790.985000	-43320.555000	-10178.460000	7256.340000	2.342555	2.654354	3.318752	3.980105	4.619589	3.683695	4.115854	4.613837	-3.296160	2.685760	-0.885080	0.934202	-0.018005	0.351623	-1.000000	-1.000000	-1.000000	-1.000000	-1.000000	-1.000000	-1.000000	88.000000	0.000000	-1.000000	-1.000000	264015.000000	1770062023.973197
-12100.950000	-40161.690000	-23500.530000	-14029.830000	-43811.910000	-43341.615000	-10186.650000	7245.495000	0.678358	0.626029	0.329608	0.564595	0.601938	-0.059692	3.354420	2.552726	-3.296160	2.685760	-0.885080	0.934202	-0.018005	0.351623	-1.000000	-1.000000	-1.000000	-1.000000	-1.000000	-1.000000	-1.000000	88.000000	0.000000	-1.000000	-1.000000	264016.000000	1770062023.973207
-12095.415000	-40158.720000	-23499.090000	-14029.245000	-43811.550000	-43342.380000	-10186.695000	7250.895000	-1.672274	-2.338823	-3.468118	-3.717320	-4.232980	-4.265658	1.153165	-0.165699	-3.296160	2.685760	-0.885080	0.934202	-0.018005	0.351623	-1.000000	-1.000000	-1.000000	-1.000000	-1.000000	-1.000000	-1.000000	88.000000	0.000000	-1.000000	-1.000000	264017.000000	1770062023.977424
-12102.255000	-40168.755000	-23511.870000	-14044.050000	-43823.970000	-43351.875000	-10190.205000	7243.875000	-3.498809	-4.634481	-6.109944	-6.820400	-7.607255	-7.043977	-1.676543	-2.425951	-3.296160	2.685760	-0.885080	0.934202	-0.018005	0.351623	-1.000000	-1.000000	-1.000000	-1.000000	-1.000000	-1.000000	-1.000000	88.000000	0.000000	-1.000000	-1.000000	264018.000000	1770062023.977434
-12103.020000	-40163.940000	-23506.785000	-14041.440000	-43826.805000	-43356.780000	-10199.880000	7234.380000	-4.270330	-5.113832	-6.244387	-7.215359	-7.845390	-7.086603	-3.977805	-4.156757	-3.296160	2.685760	-0.885080	0.934202	-0.018005	0.351623	-1.000000	-1.000000	-1.000000	-1.000000	-1.000000	-1.000000	-1.000000	88.000000	0.000000	-1.000000	-1.000000	264019.000000	1770062023.992053
-12094.515000	-40150.530000	-23494.545000	-14030.415000	-43818.840000	-43347.645000	-10201.230000	7238.520000	-3.796130	-3.345912	-3.552253	-4.432090	-4.655206	-4.277535	-4.901484	-5.279003	-3.296160	2.685760	-0.885080	0.934202	-0.018005	0.351623	-1.000000	-1.000000	-1.000000	-1.000000	-1.000000	-1.000000	-1.000000	88.000000	0.000000	-1.000000	-1.000000	264020.000000	1770062023.992065
-12086.685000	-40148.460000	-23487.615000	-14019.390000	-43798.050000	-43324.065000	-10186.020000	7253.955000	-1.530429	0.430788	1.276532	0.842217	1.064487	0.735981	-3.780695	-4.483881	0.228900	2.395820	-0.610400	0.932798	-0.020325	0.351867	-1.000000	-1.000000	-1.000000	-1.000000	-1.000000	-1.000000	-1.000000	88.000000	0.000000	-1.000000	-1.000000	264021.000000	1770062023.992079
-12089.655000	-40150.260000	-23486.220000	-14015.790000	-43791.705000	-43321.545000	-10186.560000	7252.380000	2.399974	4.771773	6.396482	6.676763	7.520495	6.720228	-0.446516	-0.751544	0.228900	2.395820	-0.610400	0.932798	-0.020325	0.351867	-1.000000	-1.000000	-1.000000	-1.000000	-1.000000	-1.000000	-1.000000	88.000000	0.000000	-1.000000	-1.000000	264022.000000	1770062023.992085
-12084.705000	-40142.430000	-23476.815000	-14005.845000	-43784.910000	-43315.020000	-10180.125000	7256.205000	6.336595	7.539511	9.495026	10.554009	12.146396	11.375457	3.776845	4.462423	0.228900	2.395820	-0.610400	0.932798	-0.020325	0.351867	-1.000000	-1.000000	-1.000000	-1.000000	-1.000000	-1.000000	-1.000000	88.000000	0.000000	-1.000000	-1.000000	264023.000000	1770062023.992090
-12089.430000	-40152.690000	-23487.840000	-14014.890000	-43787.295000	-43314.030000	-10166.535000	7256.160000	8.200438	7.374114	9.042801	10.624919	12.566914	12.233458	6.804709	8.135908	0.228900	2.395820	-0.610400	0.932798	-0.020325	0.351867	-1.000000	-1.000000	-1.000000	-1.000000	-1.000000	-1.000000	-1.000000	88.000000	0.000000	-1.000000	-1.000000	264024.000000	1770062023.992095
-12099.690000	-40170.330000	-23507.640000	-14036.265000	-43805.475000	-43329.375000	-10170.270000	7246.620000	6.863330	4.172132	4.858917	6.464495	8.114109	8.509580	7.444612	8.215161	0.228900	2.395820	-0.610400	0.932798	-0.020325	0.351867	-1.000000	-1.000000	-1.000000	-1.000000	-1.000000	-1.000000	-1.000000	88.000000	0.000000	-1.000000	-1.000000	264025.000000	1770062023.993249
-12094.380000	-40162.230000	-23498.595000	-14029.245000	-43802.280000	-43329.420000	-10171.935000	7253.910000	2.648517	-0.874811	-1.532640	-0.500530	0.351224	1.481351	5.405294	4.671697	0.228900	2.395820	-0.610400	0.932798	-0.020325	0.351867	-1.000000	-1.000000	-1.000000	-1.000000	-1.000000	-1.000000	-1.000000	88.000000	0.000000	-1.000000	-1.000000	264026.000000	1770062023.993259
-12091.050000	-40159.665000	-23498.325000	-14029.515000	-43805.295000	-43332.525000	-10172.430000	7257.015000	-2.532867	-5.204018	-6.900031	-6.890403	-7.320161	-6.026001	1.205276	-0.562660	0.228900	2.395820	-0.610400	0.932798	-0.020325	0.351867	-1.000000	-1.000000	-1.000000	-1.000000	-1.000000	-1.000000	-1.000000	88.000000	0.000000	-1.000000	-1.000000	264027.000000	1770062023.997322
-12095.145000	-40164.795000	-23504.580000	-14035.365000	-43812.045000	-43335.765000	-10174.770000	7253.100000	-6.240554	-6.681905	-8.654224	-9.621735	-11.513795	-10.862356	-3.403843	-4.728747	0.228900	2.395820	-0.610400	0.932798	-0.020325	0.351867	-1.000000	-1.000000	-1.000000	-1.000000	-1.000000	-1.000000	-1.000000	88.000000	0.000000	-1.000000	-1.000000	264028.000000	1770062023.997333
-12111.390000	-40177.395000	-23514.300000	-14045.805000	-43821.315000	-43345.170000	-10185.345000	7236.765000	-7.556978	-5.711422	-7.253324	-8.688382	-11.469926	-11.797377	-6.607347	-6.582335	0.228900	2.395820	-0.610400	0.932798	-0.020325	0.351867	-1.000000	-1.000000	-1.000000	-1.000000	-1.000000	-1.000000	-1.000000	88.000000	0.000000	-1.000000	-1.000000	264029.000000	1770062024.003442
-12103.605000	-40167.315000	-23502.735000	-14033.025000	-43808.985000	-43333.695000	-10183.995000	7243.470000	-7.003360	-3.814291	-4.556431	-5.947384	-8.680024	-9.735841	-7.861768	-6.762898	0.228900	2.395820	-0.610400	0.932798	-0.020325	0.351867	-1.000000	-1.000000	-1.000000	-1.000000	-1.000000	-1.000000	-1.000000	88.000000	0.000000	-1.000000	-1.000000	264030.000000	1770062024.003453
-12106.845000	-40168.800000	-23503.770000	-14035.050000	-43812.315000	-43340.895000	-10186.110000	7240.590000	-4.756010	-1.368898	-1.336948	-2.443957	-4.446079	-5.730705	-7.205407	-5.658357	0.320460	1.556520	-0.686700	0.930234	-0.018249	0.351440	-1.000000	-1.000000	-1.000000	-1.000000	-1.000000	-1.000000	-1.000000	88.000000	0.000000	-1.000000	-1.000000	264031.000000	1770062024.005194
-12096.000000	-40154.040000	-23487.165000	-14017.320000	-43797.330000	-43331.265000	-10187.190000	7249.815000	-0.810675	1.740745	2.253382	1.519301	0.576565	-0.562532	-4.772085	-2.938137	0.320460	1.556520	-0.686700	0.930234	-0.018249	0.351440	-1.000000	-1.000000	-1.000000	-1.000000	-1.000000	-1.000000	-1.000000	88.000000	0.000000	-1.000000	-1.000000	264032.000000	1770062024.005204
-12094.965000	-40152.690000	-23490.090000	-14022.630000	-43802.190000	-43335.315000	-10187.280000	7251.705000	4.004891	5.175297	5.841000	5.553714	5.654964	4.699994	-1.315193	1.192509	0.320460	1.556520	-0.686700	0.930234	-0.018249	0.351440	-1.000000	-1.000000	-1.000000	-1.000000	-1.000000	-1.000000	-1.000000	88.000000	0.000000	-1.000000	-1.000000	264033.000000	1770062024.009335
-12111.795000	-40177.350000	-23518.935000	-14055.030000	-43830.450000	-43358.715000	-10193.040000	7235.955000	7.782721	7.645908	8.150037	8.303824	9.213078	8.497562	2.101773	5.241177	0.320460	1.556520	-0.686700	0.930234	-0.018249	0.351440	-1.000000	-1.000000	-1.000000	-1.000000	-1.000000	-1.000000	-1.000000	88.000000	0.000000	-1.000000	-1.000000	264034.000000	1770062024.009343
-12118.140000	-40186.620000	-23529.465000	-14065.425000	-43836.885000	-43361.100000	-10199.070000	7229.160000	8.022259	6.744352	6.814548	7.290456	8.957017	8.994965	4.560346	6.708403	0.320460	1.556520	-0.686700	0.930234	-0.018249	0.351440	-1.000000	-1.000000	-1.000000	-1.000000	-1.000000	-1.000000	-1.000000	88.000000	0.000000	-1.000000	-1.000000	264035.000000	1770062024.013397
-12119.940000	-40187.340000	-23529.645000	-14061.690000	-43829.955000	-43352.370000	-10199.205000	7228.170000	3.991523	1.684487	1.363811	2.119799	4.713353	6.085965	5.476127	4.428748	0.320460	1.556520	-0.686700	0.930234	-0.018249	0.351440	-1.000000	-1.000000	-1.000000	-1.000000	-1.000000	-1.000000	-1.000000	88.000000	0.000000	-1.000000	-1.000000	264036.000000	1770062024.013409
-12107.970000	-40170.240000	-23510.970000	-14043.420000	-43813.575000	-43337.520000	-10193.490000	7234.740000	-1.588516	-4.382439	-4.644900	-3.517519	-0.195168	2.297366	5.102698	0.414285	0.320460	1.556520	-0.686700	0.930234	-0.018249	0.351440	-1.000000	-1.000000	-1.000000	-1.000000	-1.000000	-1.000000	-1.000000	88.000000	0.000000	-1.000000	-1.000000	264037.000000	1770062024.017247
-12101.175000	-40162.095000	-23500.485000	-14033.295000	-43803.045000	-43327.125000	-10191.870000	7238.340000	-4.644745	-6.894020	-6.645358	-5.260631	-2.256275	0.204458	4.248386	-2.058538	0.320460	1.556520	-0.686700	0.930234	-0.018249	0.351440	-1.000000	-1.000000	-1.000000	-1.000000	-1.000000	-1.000000	-1.000000	88.000000	0.000000	-1.000000	-1.000000	264038.000000	1770062024.017257
-12100.770000	-40160.925000	-23496.255000	-14028.120000	-43800.030000	-43325.415000	-10189.755000	7239.330000	-3.535660	-4.384045	-3.553908	-2.412708	-1.176539	0.026040	3.239865	-1.679334	0.320460	1.556520	-0.686700	0.930234	-0.018249	0.351440	-1.000000	-1.000000	-1.000000	-1.000000	-1.000000	-1.000000	-1.000000	88.000000	0.000000	-1.000000	-1.000000	264039.000000	1770062024.021338
-12104.550000	-40166.505000	-23500.575000	-14031.540000	-43801.830000	-43326.990000	-10183.725000	7239.555000	-0.249376	0.314491	1.438374	1.820956	0.564747	0.138472	1.882714	0.222840	0.320460	1.556520	-0.686700	0.930234	-0.018249	0.351440	-1.000000	-1.000000	-1.000000	-1.000000	-1.000000	-1.000000	-1.000000	88.000000	0.000000	-1.000000	-1.000000	264040.000000	1770062024.021347
-12109.590000	-40170.240000	-23502.465000	-14031.945000	-43803.495000	-43333.875000	-10183.410000	7234.290000	1.940457	3.150732	4.160926	3.690602	0.541199	-0.983000	0.136343	1.442626	-1.083460	1.785420	-0.778260	0.926939	-0.014893	0.350036	-1.000000	-1.000000	-1.000000	-1.000000	-1.000000	-1.000000	-1.000000	88.000000	0.000000	-1.000000	-1.000000	264041.000000	1770062024.025391
-12114.270000	-40171.320000	-23502.645000	-14032.350000	-43806.735000	-43342.695000	-10194.210000	7223.985000	1.483921	2.647775	3.307408	2.372498	-1.317654	-3.295560	-1.853089	0.783535	-1.083460	1.785420	-0.778260	0.926939	-0.014893	0.350036	-1.000000	-1.000000	-1.000000	-1.000000	-1.000000	-1.000000	-1.000000	88.000000	0.000000	-1.000000	-1.000000	264042.000000	1770062024.025400
-12102.390000	-40159.620000	-23494.140000	-14027.670000	-43802.550000	-43336.980000	-10190.340000	7236.090000	-0.363194	0.782225	1.093535	0.245795	-2.836020	-5.012886	-3.700410	-0.959416	-1.083460	1.785420	-0.778260	0.926939	-0.014893	0.350036	-1.000000	-1.000000	-1.000000	-1.000000	-1.000000	-1.000000	-1.000000	88.000000	0.000000	-1.000000	-1.000000	264043.000000	1770062024.032836
-12114.180000	-40181.220000	-23521.815000	-14058.180000	-43834.095000	-43364.025000	-10196.370000	7235.370000	-1.415114	-0.091867	-0.234074	-0.792056	-2.684442	-4.764825	-4.588876	-1.812488	-1.083460	1.785420	-0.778260	0.926939	-0.014893	0.350036	-1.000000	-1.000000	-1.000000	-1.000000	-1.000000	-1.000000	-1.000000	88.000000	0.000000	-1.000000	-1.000000	264044.000000	1770062024.032852
-12097.170000	-40170.420000	-23508.405000	-14041.755000	-43814.565000	-43342.875000	-10190.655000	7247.070000	-1.027326	-0.151289	-1.061895	-1.568542	-2.052962	-3.293291	-3.960640	-0.816904	-1.083460	1.785420	-0.778260	0.926939	-0.014893	0.350036	-1.000000	-1.000000	-1.000000	-1.000000	-1.000000	-1.000000	-1.000000	88.000000	0.000000	-1.000000	-1.000000	264045.000000	1770062024.033195
-12091.950000	-40163.490000	-23505.390000	-14041.440000	-43813.395000	-43339.095000	-10189.170000	7246.350000	0.142320	-0.564804	-2.341391	-2.993150	-1.996249	-1.610375	-2.098267	1.151534	-1.083460	1.785420	-0.778260	0.926939	-0.014893	0.350036	-1.000000	-1.000000	-1.000000	-1.000000	-1.000000	-1.000000	-1.000000	88.000000	0.000000	-1.000000	-1.000000	264046.000000	1770062024.033206
-12095.280000	-40152.600000	-23495.940000	-14037.255000	-43818.390000	-43346.970000	-10195.290000	7243.785000	1.146508	-1.210974	-3.542785	-4.295561	-2.135352	0.001553	0.044691	2.344614	-1.083460	1.785420	-0.778260	0.926939	-0.014893	0.350036	-1.000000	-1.000000	-1.000000	-1.000000	-1.000000	-1.000000	-1.000000	88.000000	0.000000	-1.000000	-1.000000	264047.000000	1770062024.037176
-12091.320000	-40135.230000	-23480.505000	-14033.295000	-43830.180000	-43364.520000	-10203.120000	7237.800000	1.151141	-1.029694	-3.371547	-4.296523	-2.135782	0.879926	1.227337	1.518771	-1.083460	1.785420	-0.778260	0.926939	-0.014893	0.350036	-1.000000	-1.000000	-1.000000	-1.000000	-1.000000	-1.000000	-1.000000	88.000000	0.000000	-1.000000	-1.000000	264048.000000	1770062024.037182
-12110.265000	-40164.075000	-23506.515000	-14049.000000	-43827.030000	-43360.290000	-10201.500000	7225.380000	-0.023272	0.174698	-1.489435	-2.684181	-1.822109	0.647375	0.831314	-1.179497	-1.083460	1.785420	-0.778260	0.926939	-0.014893	0.350036	-1.000000	-1.000000	-1.000000	-1.000000	-1.000000	-1.000000	-1.000000	88.000000	0.000000	-1.000000	-1.000000	264049.000000	1770062024.041160
-12117.330000	-40180.680000	-23519.025000	-14049.900000	-43816.275000	-43345.845000	-10193.715000	7233.120000	-1.988523	0.630150	0.408536	-0.341157	-0.448232	0.607698	-0.204694	-4.109251	-1.083460	1.785420	-0.778260	0.926939	-0.014893	0.350036	-1.000000	-1.000000	-1.000000	-1.000000	-1.000000	-1.000000	-1.000000	88.000000	0.000000	-1.000000	-1.000000	264050.000000	1770062024.041181
-12119.445000	-40182.750000	-23521.815000	-14052.465000	-43817.715000	-43345.215000	-10192.770000	7236.315000	-3.800580	-1.099820	0.629243	1.785706	2.577596	2.497679	-0.116242	-4.886862	-0.885080	1.922760	-0.625660	0.925718	-0.015625	0.348510	-1.000000	-1.000000	-1.000000	-1.000000	-1.000000	-1.000000	-1.000000	88.000000	0.000000	-1.000000	-1.000000	264051.000000	1770062024.045158
-12116.520000	-40176.765000	-23514.840000	-14047.290000	-43813.800000	-43342.875000	-10201.905000	7236.045000	-4.117417	-3.512387	-0.048182	3.628914	6.344975	5.838497	1.458816	-2.596509	-0.885080	1.922760	-0.625660	0.925718	-0.015625	0.348510	-1.000000	-1.000000	-1.000000	-1.000000	-1.000000	-1.000000	-1.000000	88.000000	0.000000	-1.000000	-1.000000	264052.000000	1770062024.045177
-12117.870000	-40180.005000	-23519.880000	-14049.765000	-43812.180000	-43335.540000	-10204.065000	7225.785000	-2.305347	-3.793727	0.367501	5.304043	8.854231	8.183663	2.933610	0.920768	-0.885080	1.922760	-0.625660	0.925718	-0.015625	0.348510	-1.000000	-1.000000	-1.000000	-1.000000	-1.000000	-1.000000	-1.000000	88.000000	0.000000	-1.000000	-1.000000	264053.000000	1770062024.049114
-12132.450000	-40194.090000	-23535.765000	-14065.830000	-43830.180000	-43351.290000	-10205.955000	7207.875000	0.471361	-1.492274	1.831776	5.690349	7.932269	7.048017	2.732530	2.701886	-0.885080	1.922760	-0.625660	0.925718	-0.015625	0.348510	-1.000000	-1.000000	-1.000000	-1.000000	-1.000000	-1.000000	-1.000000	88.000000	0.000000	-1.000000	-1.000000	264054.000000	1770062024.049120
-12131.325000	-40199.355000	-23535.720000	-14065.155000	-43831.260000	-43354.440000	-10211.445000	7219.620000	2.068491	0.912395	2.120182	3.088910	2.458648	1.427932	0.770520	1.571951	-0.885080	1.922760	-0.625660	0.925718	-0.015625	0.348510	-1.000000	-1.000000	-1.000000	-1.000000	-1.000000	-1.000000	-1.000000	88.000000	0.000000	-1.000000	-1.000000	264055.000000	1770062024.053076
-12118.545000	-40197.105000	-23532.345000	-14061.240000	-43829.595000	-43357.050000	-10218.195000	7235.505000	2.082771	1.333330	0.263245	-1.817931	-5.227495	-6.256079	-1.753941	-0.322905	-0.885080	1.922760	-0.625660	0.925718	-0.015625	0.348510	-1.000000	-1.000000	-1.000000	-1.000000	-1.000000	-1.000000	-1.000000	88.000000	0.000000	-1.000000	-1.000000	264056.000000	1770062024.053088
-12106.710000	-40178.295000	-23512.005000	-14042.205000	-43813.080000	-43345.080000	-10212.345000	7238.295000	2.305062	0.613065	-1.810380	-5.557222	-10.080142	-11.010264	-3.261151	0.080574	-0.885080	1.922760	-0.625660	0.925718	-0.015625	0.348510	-1.000000	-1.000000	-1.000000	-1.000000	-1.000000	-1.000000	-1.000000	88.000000	0.000000	-1.000000	-1.000000	264057.000000	1770062024.057281
-12119.310000	-40189.005000	-23530.995000	-14066.595000	-43837.425000	-43368.255000	-10216.755000	7221.150000	3.905042	1.326396	-1.426661	-5.325211	-9.272256	-10.059052	-2.897256	2.788447	-0.885080	1.922760	-0.625660	0.925718	-0.015625	0.348510	-1.000000	-1.000000	-1.000000	-1.000000	-1.000000	-1.000000	-1.000000	88.000000	0.000000	-1.000000	-1.000000	264058.000000	1770062024.057290
-12127.590000	-40189.725000	-23529.060000	-14063.805000	-43832.475000	-43361.505000	-10213.515000	7215.300000	5.526974	4.257775	1.607667	-1.926505	-4.745375	-5.292068	-1.150621	4.661062	-0.885080	1.922760	-0.625660	0.925718	-0.015625	0.348510	-1.000000	-1.000000	-1.000000	-1.000000	-1.000000	-1.000000	-1.000000	88.000000	0.000000	-1.000000	-1.000000	264059.000000	1770062024.061038
-12123.765000	-40177.395000	-23511.240000	-14047.020000	-43816.140000	-43346.610000	-10206.090000	7224.255000	4.893041	7.218993	4.990074	1.941155	0.272297	0.142545	1.002008	3.354610	-0.885080	1.922760	-0.625660	0.925718	-0.015625	0.348510	-1.000000	-1.000000	-1.000000	-1.000000	-1.000000	-1.000000	-1.000000	88.000000	0.000000	-1.000000	-1.000000	264060.000000	1770062024.061048
-12123.945000	-40171.590000	-23508.000000	-14049.945000	-43827.615000	-43362.090000	-10212.165000	7242.705000	1.610141	7.759347	6.678159	4.672666	4.285011	4.565467	2.941614	0.157256	-0.915600	2.289000	-0.366240	0.926267	-0.016113	0.347655	-1.000000	-1.000000	-1.000000	-1.000000	-1.000000	-1.000000	-1.000000	88.000000	0.000000	-1.000000	-1.000000	264061.000000	1770062024.065084
-12131.370000	-40180.185000	-23516.235000	-14051.880000	-43823.790000	-43352.505000	-10208.070000	7241.895000	-2.645443	5.147597	5.759155	5.460876	6.328745	6.712804	3.980320	-1.777958	-0.915600	2.289000	-0.366240	0.926267	-0.016113	0.347655	-1.000000	-1.000000	-1.000000	-1.000000	-1.000000	-1.000000	-1.000000	88.000000	0.000000	-1.000000	-1.000000	264062.000000	1770062024.065094
-12115.485000	-40181.940000	-23515.290000	-14044.995000	-43807.500000	-43335.225000	-10198.890000	7244.505000	-5.611300	0.168459	2.195351	3.972018	6.037771	6.342987	3.612078	-1.177671	-0.915600	2.289000	-0.366240	0.926267	-0.016113	0.347655	-1.000000	-1.000000	-1.000000	-1.000000	-1.000000	-1.000000	-1.000000	88.000000	0.000000	-1.000000	-1.000000	264063.000000	1770062024.069276
-12129.480000	-40191.210000	-23524.605000	-14058.495000	-43824.195000	-43354.215000	-10206.765000	7212.240000	-5.876972	-5.403655	-2.908852	0.819527	4.239860	4.693232	2.172333	-0.133633	-0.915600	2.289000	-0.366240	0.926267	-0.016113	0.347655	-1.000000	-1.000000	-1.000000	-1.000000	-1.000000	-1.000000	-1.000000	88.000000	0.000000	-1.000000	-1.000000	264064.000000	1770062024.069287
-12127.995000	-40184.640000	-23519.070000	-14053.770000	-43825.410000	-43360.200000	-10219.455000	7206.435000	-4.243305	-9.614916	-7.786634	-3.112650	1.320746	2.210379	0.051183	-1.783413	-0.915600	2.289000	-0.366240	0.926267	-0.016113	0.347655	-1.000000	-1.000000	-1.000000	-1.000000	-1.000000	-1.000000	-1.000000	88.000000	0.000000	-1.000000	-1.000000	264065.000000	1770062024.073169
-12111.300000	-40177.800000	-23515.875000	-14051.790000	-43825.365000	-43360.020000	-10221.165000	7225.335000	-2.204730	-10.762274	-10.386101	-6.440527	-2.466177	-1.211954	-2.687417	-5.604839	-0.915600	2.289000	-0.366240	0.926267	-0.016113	0.347655	-1.000000	-1.000000	-1.000000	-1.000000	-1.000000	-1.000000	-1.000000	88.000000	0.000000	-1.000000	-1.000000	264066.000000	1770062024.073174
-12125.790000	-40196.385000	-23539.320000	-14076.495000	-43846.650000	-43377.795000	-10227.420000	7212.960000	0.203690	-7.949990	-9.096852	-7.322700	-5.678247	-4.469182	-5.316091	-7.195974	-0.915600	2.289000	-0.366240	0.926267	-0.016113	0.347655	-1.000000	-1.000000	-1.000000	-1.000000	-1.000000	-1.000000	-1.000000	88.000000	0.000000	-1.000000	-1.000000	264067.000000	1770062024.078917
-12133.620000	-40202.190000	-23544.810000	-14081.895000	-43853.580000	-43383.915000	-10229.580000	7205.985000	2.683245	-2.615413	-4.735269	-5.605677	-7.125650	-6.383644	-6.524825	-4.275044	-0.915600	2.289000	-0.366240	0.926267	-0.016113	0.347655	-1.000000	-1.000000	-1.000000	-1.000000	-1.000000	-1.000000	-1.000000	88.000000	0.000000	-1.000000	-1.000000	264068.000000	1770062024.078928
-12125.070000	-40195.395000	-23541.255000	-14080.455000	-43848.765000	-43376.220000	-10221.030000	7214.445000	3.795798	2.194160	-0.089110	-2.892694	-6.671903	-6.535286	-5.390427	0.808996	-0.915600	2.289000	-0.366240	0.926267	-0.016113	0.347655	-1.000000	-1.000000	-1.000000	-1.000000	-1.000000	-1.000000	-1.000000	88.000000	0.000000	-1.000000	-1.000000	264069.000000	1770062024.081151
-12133.755000	-40205.070000	-23550.165000	-14087.565000	-43855.470000	-43377.390000	-10223.415000	7208.505000	3.016917	4.644787	3.022364	-0.232878	-4.165898	-4.404375	-1.855086	4.634131	-0.915600	2.289000	-0.366240	0.926267	-0.016113	0.347655	-1.000000	-1.000000	-1.000000	-1.000000	-1.000000	-1.000000	-1.000000	88.000000	0.000000	-1.000000	-1.000000	264070.000000	1770062024.081161
-12133.170000	-40209.210000	-23555.430000	-14094.090000	-43866.900000	-43387.965000	-10229.085000	7208.550000	1.095832	4.839616	4.518490	2.126521	-0.200139	-0.505165	2.576348	5.629038	-1.312360	4.242280	-0.549360	0.928525	-0.016907	0.344848	-1.000000	-1.000000	-1.000000	-1.000000	-1.000000	-1.000000	-1.000000	88.000000	0.000000	-1.000000	-1.000000	264071.000000	1770062024.085183
-12136.095000	-40205.925000	-23548.275000	-14083.560000	-43852.095000	-43383.465000	-10238.670000	7207.335000	-1.008197	3.883477	5.019546	3.977427	3.493941	3.011047	5.289514	4.406712	-1.312360	4.242280	-0.549360	0.928525	-0.016907	0.344848	-1.000000	-1.000000	-1.000000	-1.000000	-1.000000	-1.000000	-1.000000	88.000000	0.000000	-1.000000	-1.000000	264072.000000	1770062024.085192
-12125.520000	-40185.675000	-23526.090000	-14064.705000	-43836.975000	-43374.420000	-10234.710000	7218.945000	-2.256383	3.197818	5.408775	5.586912	6.251613	5.058338	5.105173	2.934533	-1.312360	4.242280	-0.549360	0.928525	-0.016907	0.344848	-1.000000	-1.000000	-1.000000	-1.000000	-1.000000	-1.000000	-1.000000	88.000000	0.000000	-1.000000	-1.000000	264073.000000	1770062024.089102
-12128.040000	-40181.490000	-23527.485000	-14075.415000	-43862.265000	-43395.300000	-10236.330000	7206.705000	-1.956460	3.443208	5.996274	6.919105	7.999061	5.959035	3.321243	2.428867	-1.312360	4.242280	-0.549360	0.928525	-0.016907	0.344848	-1.000000	-1.000000	-1.000000	-1.000000	-1.000000	-1.000000	-1.000000	88.000000	0.000000	-1.000000	-1.000000	264074.000000	1770062024.089112
-12127.770000	-40193.145000	-23536.170000	-14072.355000	-43848.135000	-43373.925000	-10226.025000	7211.745000	-0.620199	3.694106	5.770762	6.786254	7.591382	5.624591	1.810780	1.957717	-1.312360	4.242280	-0.549360	0.928525	-0.016907	0.344848	-1.000000	-1.000000	-1.000000	-1.000000	-1.000000	-1.000000	-1.000000	88.000000	0.000000	-1.000000	-1.000000	264075.000000	1770062024.093247
-12132.810000	-40206.105000	-23541.930000	-14067.495000	-43831.800000	-43356.420000	-10214.730000	7216.785000	0.805982	2.504116	3.735123	4.779937	5.213319	4.666128	1.489023	0.615331	-1.312360	4.242280	-0.549360	0.928525	-0.016907	0.344848	-1.000000	-1.000000	-1.000000	-1.000000	-1.000000	-1.000000	-1.000000	88.000000	0.000000	-1.000000	-1.000000	264076.000000	1770062024.093261
-12128.580000	-40197.555000	-23530.815000	-14058.135000	-43825.185000	-43353.405000	-10213.380000	7219.260000	1.855923	-0.380923	0.275043	1.967553	2.791538	4.114022	2.021076	-0.897578	-1.312360	4.242280	-0.549360	0.928525	-0.016907	0.344848	-1.000000	-1.000000	-1.000000	-1.000000	-1.000000	-1.000000	-1.000000	88.000000	0.000000	-1.000000	-1.000000	264077.000000	1770062024.098890
-12118.140000	-40185.000000	-23519.025000	-14049.855000	-43824.960000	-43353.495000	-10216.620000	7217.100000	2.310803	-3.490232	-3.087179	-0.688725	0.886094	3.134862	1.956707	-2.052932	-1.312360	4.242280	-0.549360	0.928525	-0.016907	0.344848	-1.000000	-1.000000	-1.000000	-1.000000	-1.000000	-1.000000	-1.000000	88.000000	0.000000	-1.000000	-1.000000	264078.000000	1770062024.098900
-12101.940000	-40165.650000	-23499.045000	-14032.845000	-43812.090000	-43342.110000	-10212.345000	7222.365000	2.451244	-4.435201	-4.418146	-2.490986	-1.102204	0.463656	0.217324	-2.949538	-1.312360	4.242280	-0.549360	0.928525	-0.016907	0.344848	-1.000000	-1.000000	-1.000000	-1.000000	-1.000000	-1.000000	-1.000000	88.000000	0.000000	-1.000000	-1.000000	264079.000000	1770062024.101005
-12103.425000	-40161.015000	-23493.465000	-14025.780000	-43803.630000	-43334.325000	-10207.890000	7219.755000	2.653693	-2.066588	-2.867390	-2.928204	-3.019341	-3.168646	-2.422770	-3.273913	-1.312360	4.242280	-0.549360	0.928525	-0.016907	0.344848	-1.000000	-1.000000	-1.000000	-1.000000	-1.000000	-1.000000	-1.000000	88.000000	0.000000	-1.000000	-1.000000	264080.000000	1770062024.101012
-12115.755000	-40175.505000	-23509.530000	-14041.440000	-43814.655000	-43346.880000	-10213.020000	7213.905000	2.099875	1.502467	-0.414900	-2.922247	-4.691221	-6.149030	-4.215361	-2.795837	-1.541260	5.234180	-0.228900	0.933042	-0.019592	0.342956	-1.000000	-1.000000	-1.000000	-1.000000	-1.000000	-1.000000	-1.000000	88.000000	0.000000	-1.000000	-1.000000	264081.000000	1770062024.105210
-12112.290000	-40174.830000	-23507.100000	-14038.245000	-43808.895000	-43340.040000	-10215.630000	7213.095000	-0.388052	2.324268	-0.510607	-4.305098	-6.409173	-7.670787	-4.380112	-1.917047	-1.541260	5.234180	-0.228900	0.933042	-0.019592	0.342956	-1.000000	-1.000000	-1.000000	-1.000000	-1.000000	-1.000000	-1.000000	88.000000	0.000000	-1.000000	-1.000000	264082.000000	1770062024.105220
-12100.365000	-40163.580000	-23496.930000	-14030.055000	-43798.815000	-43328.025000	-10204.740000	7227.630000	-3.986914	-0.719507	-3.592738	-6.687130	-7.206711	-7.072348	-3.301655	-0.810623	-1.541260	5.234180	-0.228900	0.933042	-0.019592	0.342956	-1.000000	-1.000000	-1.000000	-1.000000	-1.000000	-1.000000	-1.000000	88.000000	0.000000	-1.000000	-1.000000	264083.000000	1770062024.109171
-12107.340000	-40175.730000	-23513.130000	-14046.840000	-43815.735000	-43345.800000	-10201.590000	7231.635000	-6.093670	-4.389190	-6.255123	-7.456706	-5.762238	-4.392797	-1.581725	0.883189	-1.541260	5.234180	-0.228900	0.933042	-0.019592	0.342956	-1.000000	-1.000000	-1.000000	-1.000000	-1.000000	-1.000000	-1.000000	88.000000	0.000000	-1.000000	-1.000000	264084.000000	1770062024.109181
-12098.430000	-40174.020000	-23512.995000	-14048.280000	-43817.085000	-43342.335000	-10200.015000	7238.655000	-5.097369	-5.247217	-5.822697	-5.556350	-3.131187	-1.642019	0.058246	2.914161	-1.541260	5.234180	-0.228900	0.933042	-0.019592	0.342956	-1.000000	-1.000000	-1.000000	-1.000000	-1.000000	-1.000000	-1.000000	88.000000	0.000000	-1.000000	-1.000000	264085.000000	1770062024.113140
-12104.730000	-40179.015000	-23517.675000	-14052.780000	-43821.540000	-43345.980000	-10203.660000	7230.195000	-1.875497	-3.202949	-2.969503	-2.318659	-1.237376	-0.453552	0.889289	3.972775	-1.541260	5.234180	-0.228900	0.933042	-0.019592	0.342956	-1.000000	-1.000000	-1.000000	-1.000000	-1.000000	-1.000000	-1.000000	88.000000	0.000000	-1.000000	-1.000000	264086.000000	1770062024.113152
-12107.205000	-40174.335000	-23510.160000	-14045.220000	-43816.365000	-43342.155000	-10208.430000	7219.440000	1.067148	-0.491037	0.178379	0.787301	-0.165007	-0.171844	0.741655	2.750562	-1.541260	5.234180	-0.228900	0.933042	-0.019592	0.342956	-1.000000	-1.000000	-1.000000	-1.000000	-1.000000	-1.000000	-1.000000	88.000000	0.000000	-1.000000	-1.000000	264087.000000	1770062024.117304
-12105.945000	-40167.585000	-23505.345000	-14044.095000	-43821.180000	-43348.545000	-10220.760000	7215.030000	1.792448	1.166786	2.335740	3.152031	0.977404	0.363341	-0.154189	-0.679919	-1.541260	5.234180	-0.228900	0.933042	-0.019592	0.342956	-1.000000	-1.000000	-1.000000	-1.000000	-1.000000	-1.000000	-1.000000	88.000000	0.000000	-1.000000	-1.000000	264088.000000	1770062024.117313
-12105.945000	-40161.690000	-23502.375000	-14043.150000	-43822.260000	-43351.785000	-10224.090000	7221.960000	0.703476	1.883326	3.519613	4.641013	2.312868	1.309251	-1.387696	-4.272074	-1.541260	5.234180	-0.228900	0.933042	-0.019592	0.342956	-1.000000	-1.000000	-1.000000	-1.000000	-1.000000	-1.000000	-1.000000	88.000000	0.000000	-1.000000	-1.000000	264089.000000	1770062024.121135
-12114.270000	-40175.910000	-23513.265000	-14048.865000	-43821.990000	-43351.695000	-10219.095000	7220.835000	-0.332596	2.412688	4.096563	5.258550	3.458670	2.432411	-1.928924	-5.335942	-1.541260	5.234180	-0.228900	0.933042	-0.019592	0.342956	-1.000000	-1.000000	-1.000000	-1.000000	-1.000000	-1.000000	-1.000000	88.000000	0.000000	-1.000000	-1.000000	264090.000000	1770062024.121145
-12117.420000	-40178.565000	-23514.480000	-14048.370000	-43818.030000	-43350.255000	-10215.315000	7211.295000	-0.435929	2.428679	3.777892	4.888141	4.244590	3.547911	-0.697291	-3.253425	-4.013380	5.447820	-0.152600	0.934751	-0.018799	0.341796	-1.000000	-1.000000	-1.000000	-1.000000	-1.000000	-1.000000	-1.000000	88.000000	0.000000	-1.000000	-1.000000	264091.000000	1770062024.126799
-12113.955000	-40168.890000	-23504.490000	-14042.655000	-43821.225000	-43359.255000	-10224.990000	7194.735000	-0.031507	1.490228	2.478785	3.612020	4.482310	4.042042	1.714008	-0.338248	-4.013380	5.447820	-0.152600	0.934751	-0.018799	0.341796	-1.000000	-1.000000	-1.000000	-1.000000	-1.000000	-1.000000	-1.000000	88.000000	0.000000	-1.000000	-1.000000	264092.000000	1770062024.126808
-12089.610000	-40149.720000	-23486.715000	-14028.480000	-43810.740000	-43349.355000	-10228.905000	7212.330000	0.988615	0.929388	1.641490	2.419433	4.068483	3.424723	3.181381	1.034185	-4.013380	5.447820	-0.152600	0.934751	-0.018799	0.341796	-1.000000	-1.000000	-1.000000	-1.000000	-1.000000	-1.000000	-1.000000	88.000000	0.000000	-1.000000	-1.000000	264093.000000	1770062024.129266
-12104.235000	-40177.440000	-23516.595000	-14053.365000	-43825.680000	-43352.685000	-10224.720000	7221.780000	2.931018	1.791739	2.089815	1.889488	3.061122	2.148059	2.585613	1.308757	-4.013380	5.447820	-0.152600	0.934751	-0.018799	0.341796	-1.000000	-1.000000	-1.000000	-1.000000	-1.000000	-1.000000	-1.000000	88.000000	0.000000	-1.000000	-1.000000	264094.000000	1770062024.129275
-12100.950000	-40176.585000	-23518.260000	-14053.140000	-43822.260000	-43345.980000	-10216.305000	7239.105000	4.472698	2.307923	1.848598	0.738666	1.227109	0.906941	1.135577	2.545702	-4.013380	5.447820	-0.152600	0.934751	-0.018799	0.341796	-1.000000	-1.000000	-1.000000	-1.000000	-1.000000	-1.000000	-1.000000	88.000000	0.000000	-1.000000	-1.000000	264095.000000	1770062024.133281
-12102.885000	-40181.220000	-23522.940000	-14056.695000	-43825.905000	-43351.020000	-10207.980000	7240.320000	3.908280	0.486520	-0.937090	-2.101746	-1.377223	-0.104846	0.805413	5.368532	-4.013380	5.447820	-0.152600	0.934751	-0.018799	0.341796	-1.000000	-1.000000	-1.000000	-1.000000	-1.000000	-1.000000	-1.000000	88.000000	0.000000	-1.000000	-1.000000	264096.000000	1770062024.133291
-12113.865000	-40185.630000	-23523.750000	-14057.190000	-43828.650000	-43355.565000	-10206.900000	7226.055000	1.100781	-3.082910	-5.098050	-5.476903	-3.840738	-1.055342	2.165670	7.641333	-4.013380	5.447820	-0.152600	0.934751	-0.018799	0.341796	-1.000000	-1.000000	-1.000000	-1.000000	-1.000000	-1.000000	-1.000000	88.000000	0.000000	-1.000000	-1.000000	264097.000000	1770062024.147673
-12107.745000	-40172.400000	-23510.745000	-14044.770000	-43818.255000	-43349.760000	-10206.720000	7226.550000	-2.540966	-5.856990	-7.493784	-6.929021	-4.886325	-1.861243	3.829338	6.320005	-4.013380	5.447820	-0.152600	0.934751	-0.018799	0.341796	-1.000000	-1.000000	-1.000000	-1.000000	-1.000000	-1.000000	-1.000000	88.000000	0.000000	-1.000000	-1.000000	264098.000000	1770062024.147685
-12119.310000	-40185.630000	-23522.805000	-14057.325000	-43827.165000	-43357.680000	-10210.455000	7219.620000	-4.920296	-5.377909	-5.799959	-4.929830	-3.824398	-2.120058	3.684585	1.007480	-4.013380	5.447820	-0.152600	0.934751	-0.018799	0.341796	-1.000000	-1.000000	-1.000000	-1.000000	-1.000000	-1.000000	-1.000000	88.000000	0.000000	-1.000000	-1.000000	264099.000000	1770062024.147698
-12114.630000	-40179.105000	-23515.920000	-14053.545000	-43823.970000	-43356.600000	-10216.980000	7216.155000	-4.890358	-1.708905	-0.870361	-0.636166	-1.432569	-1.853140	0.745480	-5.354371	-4.013380	5.447820	-0.152600	0.934751	-0.018799	0.341796	-1.000000	-1.000000	-1.000000	-1.000000	-1.000000	-1.000000	-1.000000	88.000000	0.000000	-1.000000	-1.000000	264100.000000	1770062024.147702
-12113.055000	-40177.305000	-23515.245000	-14052.735000	-43821.855000	-43353.855000	-10215.765000	7215.390000	-2.968919	2.625329	4.105297	3.240931	0.859999	-1.274332	-3.751021	-9.212138	-6.409200	5.096840	-0.885080	0.934263	-0.017517	0.342895	-1.000000	-1.000000	-1.000000	-1.000000	-1.000000	-1.000000	-1.000000	88.000000	0.000000	-1.000000	-1.000000	264101.000000	1770062024.147708
-12120.255000	-40185.630000	-23526.630000	-14064.075000	-43832.655000	-43361.505000	-10225.080000	7214.535000	-0.624793	5.081343	6.389544	4.814500	2.140273	-0.519363	-7.233298	-9.155390	-6.409200	5.096840	-0.885080	0.934263	-0.017517	0.342895	-1.000000	-1.000000	-1.000000	-1.000000	-1.000000	-1.000000	-1.000000	88.000000	0.000000	-1.000000	-1.000000	264102.000000	1770062024.147713
-12105.270000	-40171.815000	-23514.120000	-14053.365000	-43831.170000	-43360.470000	-10229.265000	7224.705000	1.120923	5.057784	5.586471	4.104387	2.122767	-0.039009	-8.063910	-6.154031	-6.409200	5.096840	-0.885080	0.934263	-0.017517	0.342895	-1.000000	-1.000000	-1.000000	-1.000000	-1.000000	-1.000000	-1.000000	88.000000	0.000000	-1.000000	-1.000000	264103.000000	1770062024.149178
-12121.155000	-40185.450000	-23528.565000	-14067.630000	-43844.895000	-43371.270000	-10229.805000	7213.680000	2.337338	3.670429	3.285504	2.435036	1.087843	-0.191162	-6.344597	-1.993042	-6.409200	5.096840	-0.885080	0.934263	-0.017517	0.342895	-1.000000	-1.000000	-1.000000	-1.000000	-1.000000	-1.000000	-1.000000	88.000000	0.000000	-1.000000	-1.000000	264104.000000	1770062024.149211
-12135.195000	-40189.680000	-23530.230000	-14067.315000	-43840.215000	-43365.555000	-10228.095000	7214.310000	2.702063	1.578919	0.637467	0.585692	-0.371805	-0.656930	-2.934965	1.749097	-6.409200	5.096840	-0.885080	0.934263	-0.017517	0.342895	-1.000000	-1.000000	-1.000000	-1.000000	-1.000000	-1.000000	-1.000000	88.000000	0.000000	-1.000000	-1.000000	264105.000000	1770062024.153125
-12121.290000	-40165.245000	-23500.845000	-14037.975000	-43816.455000	-43347.870000	-10222.605000	7223.580000	1.798192	-0.834331	-1.673551	-0.911830	-1.082126	-0.312047	1.265638	4.453577	-6.409200	5.096840	-0.885080	0.934263	-0.017517	0.342895	-1.000000	-1.000000	-1.000000	-1.000000	-1.000000	-1.000000	-1.000000	88.000000	0.000000	-1.000000	-1.000000	264106.000000	1770062024.153142
-12099.105000	-40155.300000	-23495.670000	-14039.505000	-43821.495000	-43352.910000	-10224.900000	7224.300000	1.026449	-2.028979	-2.212971	-0.907103	0.056417	1.589159	5.182101	6.312175	-6.409200	5.096840	-0.885080	0.934263	-0.017517	0.342895	-1.000000	-1.000000	-1.000000	-1.000000	-1.000000	-1.000000	-1.000000	88.000000	0.000000	-1.000000	-1.000000	264107.000000	1770062024.158556
-12092.490000	-40150.755000	-23497.290000	-14046.435000	-43836.525000	-43369.965000	-10233.270000	7223.085000	2.151400	-0.934069	-0.593786	0.511871	2.035409	3.655539	7.368399	7.079986	-6.409200	5.096840	-0.885080	0.934263	-0.017517	0.342895	-1.000000	-1.000000	-1.000000	-1.000000	-1.000000	-1.000000	-1.000000	88.000000	0.000000	-1.000000	-1.000000	264108.000000	1770062024.158566
-12103.290000	-40179.420000	-23518.935000	-14051.340000	-43816.815000	-43350.165000	-10222.560000	7232.895000	4.223356	0.795261	0.994546	1.387232	2.713922	3.788223	6.944169	6.250032	-6.409200	5.096840	-0.885080	0.934263	-0.017517	0.342895	-1.000000	-1.000000	-1.000000	-1.000000	-1.000000	-1.000000	-1.000000	88.000000	0.000000	-1.000000	-1.000000	264109.000000	1770062024.162422
-12113.595000	-40191.525000	-23527.800000	-14057.325000	-43821.765000	-43354.620000	-10228.050000	7220.745000	4.060903	0.028017	-0.088202	0.217833	1.722760	1.993751	4.557145	3.732829	-6.409200	5.096840	-0.885080	0.934263	-0.017517	0.342895	-1.000000	-1.000000	-1.000000	-1.000000	-1.000000	-1.000000	-1.000000	88.000000	0.000000	-1.000000	-1.000000	264110.000000	1770062024.162432
-12111.300000	-40183.155000	-23522.490000	-14055.030000	-43823.520000	-43356.150000	-10230.390000	7217.685000	0.195972	-3.595880	-3.461906	-2.271367	0.177075	-0.298946	1.513620	-0.388936	-2.975700	4.913720	-1.739640	0.934324	-0.023498	0.345214	-1.000000	-1.000000	-1.000000	-1.000000	-1.000000	-1.000000	-1.000000	88.000000	0.000000	-1.000000	-1.000000	264111.000000	1770062024.166572
-12103.470000	-40174.695000	-23511.240000	-14043.240000	-43809.120000	-43338.645000	-10223.955000	7222.590000	-5.074233	-6.570565	-5.746578	-3.845192	-0.879526	-1.863996	-1.178030	-5.177393	-2.975700	4.913720	-1.739640	0.934324	-0.023498	0.345214	-1.000000	-1.000000	-1.000000	-1.000000	-1.000000	-1.000000	-1.000000	88.000000	0.000000	-1.000000	-1.000000	264112.000000	1770062024.166580
-12087.045000	-40147.740000	-23479.695000	-14013.675000	-43784.280000	-43315.515000	-10207.800000	7232.445000	-7.636027	-5.205356	-3.847246	-2.481211	-0.440026	-1.511264	-2.610653	-8.111316	-2.975700	4.913720	-1.739640	0.934324	-0.023498	0.345214	-1.000000	-1.000000	-1.000000	-1.000000	-1.000000	-1.000000	-1.000000	88.000000	0.000000	-1.000000	-1.000000	264113.000000	1770062024.169001
-12086.055000	-40144.995000	-23477.490000	-14013.270000	-43783.290000	-43312.545000	-10195.380000	7235.325000	-5.129742	0.796335	2.112249	1.747824	1.527318	0.866327	-2.173084	-7.013151	-2.975700	4.913720	-1.739640	0.934324	-0.023498	0.345214	-1.000000	-1.000000	-1.000000	-1.000000	-1.000000	-1.000000	-1.000000	88.000000	0.000000	-1.000000	-1.000000	264114.000000	1770062024.169010
-12097.440000	-40159.125000	-23493.150000	-14027.310000	-43796.565000	-43327.665000	-10200.690000	7229.745000	0.242623	7.131792	7.623270	5.304633	2.595703	2.757875	-0.513316	-2.695487	-2.975700	4.913720	-1.739640	0.934324	-0.023498	0.345214	-1.000000	-1.000000	-1.000000	-1.000000	-1.000000	-1.000000	-1.000000	88.000000	0.000000	-1.000000	-1.000000	264115.000000	1770062024.172994
-12101.445000	-40161.285000	-23493.465000	-14028.570000	-43800.570000	-43335.045000	-10209.330000	7230.510000	3.423433	8.343389	7.546855	4.341259	0.361773	1.382920	0.509986	1.757807	-2.975700	4.913720	-1.739640	0.934324	-0.023498	0.345214	-1.000000	-1.000000	-1.000000	-1.000000	-1.000000	-1.000000	-1.000000	88.000000	0.000000	-1.000000	-1.000000	264116.000000	1770062024.173000
-12098.340000	-40156.785000	-23490.810000	-14027.355000	-43800.975000	-43334.460000	-10210.995000	7229.925000	2.065677	3.720993	1.993695	-0.491523	-4.063145	-2.726488	-0.378620	4.007666	-2.975700	4.913720	-1.739640	0.934324	-0.023498	0.345214	-1.000000	-1.000000	-1.000000	-1.000000	-1.000000	-1.000000	-1.000000	88.000000	0.000000	-1.000000	-1.000000	264117.000000	1770062024.183643
-12090.645000	-40147.515000	-23483.475000	-14020.200000	-43792.830000	-43325.145000	-10205.775000	7235.190000	-1.288441	-2.096307	-4.026398	-5.037607	-7.425382	-6.479961	-2.563147	3.756795	-2.975700	4.913720	-1.739640	0.934324	-0.023498	0.345214	-1.000000	-1.000000	-1.000000	-1.000000	-1.000000	-1.000000	-1.000000	88.000000	0.000000	-1.000000	-1.000000	264118.000000	1770062024.183653
-12099.105000	-40160.790000	-23498.595000	-14034.330000	-43806.735000	-43337.340000	-10208.250000	7231.230000	-2.834946	-4.514585	-6.220351	-6.180358	-7.561883	-7.369555	-4.184330	2.115423	-2.975700	4.913720	-1.739640	0.934324	-0.023498	0.345214	-1.000000	-1.000000	-1.000000	-1.000000	-1.000000	-1.000000	-1.000000	88.000000	0.000000	-1.000000	-1.000000	264119.000000	1770062024.183664
-12087.630000	-40149.855000	-23484.780000	-14020.695000	-43794.540000	-43324.290000	-10203.615000	7242.705000	-1.490831	-3.278625	-4.481598	-3.988462	-4.455765	-4.980486	-3.801343	0.494968	-2.975700	4.913720	-1.739640	0.934324	-0.023498	0.345214	-1.000000	-1.000000	-1.000000	-1.000000	-1.000000	-1.000000	-1.000000	88.000000	0.000000	-1.000000	-1.000000	264120.000000	1770062024.183669
-12080.745000	-40138.605000	-23477.445000	-14018.940000	-43799.715000	-43331.445000	-10211.805000	7240.950000	1.255734	-0.894835	-1.276202	-0.536716	0.123345	-0.877438	-1.754803	-0.360699	1.129240	4.120200	-2.090620	0.934263	-0.025635	0.347228	-1.000000	-1.000000	-1.000000	-1.000000	-1.000000	-1.000000	-1.000000	88.000000	0.000000	-1.000000	-1.000000	264121.000000	1770062024.185331
-12083.580000	-40137.705000	-23476.905000	-14019.435000	-43796.070000	-43324.920000	-10217.970000	7232.580000	3.423924	0.615835	1.028816	1.886377	3.618883	2.467824	0.016520	-0.795557	1.129240	4.120200	-2.090620	0.934263	-0.025635	0.347228	-1.000000	-1.000000	-1.000000	-1.000000	-1.000000	-1.000000	-1.000000	88.000000	0.000000	-1.000000	-1.000000	264122.000000	1770062024.185340
-12070.665000	-40131.135000	-23465.700000	-14001.570000	-43770.105000	-43298.865000	-10204.155000	7246.980000	3.862232	0.600887	1.442410	2.336287	4.896575	4.048489	0.271822	-1.356699	1.129240	4.120200	-2.090620	0.934263	-0.025635	0.347228	-1.000000	-1.000000	-1.000000	-1.000000	-1.000000	-1.000000	-1.000000	88.000000	0.000000	-1.000000	-1.000000	264123.000000	1770062024.191736
-12071.340000	-40137.975000	-23466.060000	-13997.700000	-43763.040000	-43293.915000	-10187.370000	7253.910000	2.855901	-0.271422	0.925971	2.117237	5.385965	5.273876	0.390611	-1.431014	1.129240	4.120200	-2.090620	0.934263	-0.025635	0.347228	-1.000000	-1.000000	-1.000000	-1.000000	-1.000000	-1.000000	-1.000000	88.000000	0.000000	-1.000000	-1.000000	264124.000000	1770062024.191743
-12069.450000	-40130.955000	-23463.090000	-14001.615000	-43773.615000	-43305.480000	-10187.280000	7258.770000	1.286505	-0.868850	0.917330	2.661241	6.222777	6.897287	2.412399	-0.164727	1.129240	4.120200	-2.090620	0.934263	-0.025635	0.347228	-1.000000	-1.000000	-1.000000	-1.000000	-1.000000	-1.000000	-1.000000	88.000000	0.000000	-1.000000	-1.000000	264125.000000	1770062024.193034
-12074.355000	-40136.130000	-23470.245000	-14009.040000	-43779.690000	-43312.680000	-10187.055000	7260.480000	-0.506853	-0.731541	1.396392	3.178508	5.816951	6.839792	5.601796	1.766123	1.129240	4.120200	-2.090620	0.934263	-0.025635	0.347228	-1.000000	-1.000000	-1.000000	-1.000000	-1.000000	-1.000000	-1.000000	88.000000	0.000000	-1.000000	-1.000000	264126.000000	1770062024.193040
-12078.090000	-40139.910000	-23472.405000	-14007.735000	-43773.165000	-43303.545000	-10184.220000	7256.475000	-2.417910	-0.164824	1.424779	2.177781	2.526197	3.260979	7.063662	2.700662	1.129240	4.120200	-2.090620	0.934263	-0.025635	0.347228	-1.000000	-1.000000	-1.000000	-1.000000	-1.000000	-1.000000	-1.000000	88.000000	0.000000	-1.000000	-1.000000	264127.000000	1770062024.197323
-12077.415000	-40137.930000	-23474.340000	-14011.560000	-43778.340000	-43306.695000	-10189.305000	7244.595000	-3.889009	0.374771	0.661591	-0.158653	-2.325605	-2.251841	5.106681	1.535218	1.129240	4.120200	-2.090620	0.934263	-0.025635	0.347228	-1.000000	-1.000000	-1.000000	-1.000000	-1.000000	-1.000000	-1.000000	88.000000	0.000000	-1.000000	-1.000000	264128.000000	1770062024.197334
-12092.400000	-40150.035000	-23485.005000	-14020.740000	-43786.035000	-43317.945000	-10200.735000	7228.935000	-4.484323	0.373242	-0.788358	-2.737893	-6.240016	-6.760788	0.333601	-1.755604	1.129240	4.120200	-2.090620	0.934263	-0.025635	0.347228	-1.000000	-1.000000	-1.000000	-1.000000	-1.000000	-1.000000	-1.000000	88.000000	0.000000	-1.000000	-1.000000	264129.000000	1770062024.204790
-12090.465000	-40156.740000	-23490.630000	-14025.915000	-43788.285000	-43320.285000	-10207.260000	7232.985000	-4.419235	-0.881447	-2.967076	-4.959731	-8.037330	-8.877623	-5.249447	-5.689267	1.129240	4.120200	-2.090620	0.934263	-0.025635	0.347228	-1.000000	-1.000000	-1.000000	-1.000000	-1.000000	-1.000000	-1.000000	88.000000	0.000000	-1.000000	-1.000000	264130.000000	1770062024.204800
-12085.965000	-40156.740000	-23491.395000	-14026.995000	-43790.670000	-43320.510000	-10207.215000	7237.125000	-3.522857	-3.101794	-5.173364	-6.199363	-7.630168	-8.468818	-9.110870	-7.399155	-2.655240	2.746800	-2.212700	0.931028	-0.017395	0.350768	-1.000000	-1.000000	-1.000000	-1.000000	-1.000000	-1.000000	-1.000000	88.000000	0.000000	-1.000000	-1.000000	264131.000000	1770062024.204973
-12084.120000	-40150.845000	-23482.935000	-14018.445000	-43784.505000	-43316.055000	-10204.920000	7246.485000	-1.234319	-4.289945	-5.616743	-5.514378	-5.457720	-5.928220	-9.509598	-5.038147	-2.655240	2.746800	-2.212700	0.931028	-0.017395	0.350768	-1.000000	-1.000000	-1.000000	-1.000000	-1.000000	-1.000000	-1.000000	88.000000	0.000000	-1.000000	-1.000000	264132.000000	1770062024.204978
-12075.120000	-40136.580000	-23465.115000	-14002.020000	-43766.415000	-43300.665000	-10195.245000	7254.810000	2.179244	-2.381336	-2.739295	-2.180257	-1.751249	-1.608336	-6.334728	0.403540	-2.655240	2.746800	-2.212700	0.931028	-0.017395	0.350768	-1.000000	-1.000000	-1.000000	-1.000000	-1.000000	-1.000000	-1.000000	88.000000	0.000000	-1.000000	-1.000000	264133.000000	1770062024.209035
-12081.510000	-40144.950000	-23474.610000	-14014.530000	-43781.985000	-43316.685000	-10196.055000	7246.935000	5.487893	2.350947	2.933413	3.254447	3.296917	3.965370	-0.766351	5.957410	-2.655240	2.746800	-2.212700	0.931028	-0.017395	0.350768	-1.000000	-1.000000	-1.000000	-1.000000	-1.000000	-1.000000	-1.000000	88.000000	0.000000	-1.000000	-1.000000	264134.000000	1770062024.209045
-12075.795000	-40139.595000	-23469.795000	-14011.020000	-43784.595000	-43314.975000	-10196.190000	7248.285000	7.183798	7.044713	8.370087	8.196994	7.762929	8.644774	4.984100	8.584364	-2.655240	2.746800	-2.212700	0.931028	-0.017395	0.350768	-1.000000	-1.000000	-1.000000	-1.000000	-1.000000	-1.000000	-1.000000	88.000000	0.000000	-1.000000	-1.000000	264135.000000	1770062024.213049
-12085.380000	-40152.870000	-23486.265000	-14027.805000	-43800.975000	-43328.880000	-10202.490000	7246.530000	6.424920	8.728162	10.263656	9.660099	8.803066	9.636478	8.361373	7.283257	-2.655240	2.746800	-2.212700	0.931028	-0.017395	0.350768	-1.000000	-1.000000	-1.000000	-1.000000	-1.000000	-1.000000	-1.000000	88.000000	0.000000	-1.000000	-1.000000	264136.000000	1770062024.213058
-12080.745000	-40155.750000	-23492.160000	-14035.770000	-43809.300000	-43333.560000	-10210.455000	7254.900000	3.512502	6.293061	7.289643	6.539563	5.536929	6.215045	8.004823	3.721851	-2.655240	2.746800	-2.212700	0.931028	-0.017395	0.350768	-1.000000	-1.000000	-1.000000	-1.000000	-1.000000	-1.000000	-1.000000	88.000000	0.000000	-1.000000	-1.000000	264137.000000	1770062024.221211
-12074.715000	-40146.795000	-23482.215000	-14024.475000	-43796.340000	-43319.115000	-10209.150000	7255.305000	-0.104067	1.123311	1.052400	0.594605	0.155418	0.727282	4.700185	0.455037	-2.655240	2.746800	-2.212700	0.931028	-0.017395	0.350768	-1.000000	-1.000000	-1.000000	-1.000000	-1.000000	-1.000000	-1.000000	88.000000	0.000000	-1.000000	-1.000000	264138.000000	1770062024.221221
-12078.405000	-40147.605000	-23480.190000	-14019.255000	-43784.505000	-43310.655000	-10206.225000	7246.710000	-2.715905	-3.617271	-4.642512	-4.366239	-3.504697	-3.041920	0.773721	-1.450409	-2.655240	2.746800	-2.212700	0.931028	-0.017395	0.350768	-1.000000	-1.000000	-1.000000	-1.000000	-1.000000	-1.000000	-1.000000	88.000000	0.000000	-1.000000	-1.000000	264139.000000	1770062024.221233
-12084.525000	-40150.665000	-23484.465000	-14026.860000	-43796.520000	-43329.465000	-10216.800000	7234.695000	-3.966982	-5.706621	-6.984099	-5.828434	-3.513181	-3.578577	-1.983605	-2.991377	-2.655240	2.746800	-2.212700	0.931028	-0.017395	0.350768	-1.000000	-1.000000	-1.000000	-1.000000	-1.000000	-1.000000	-1.000000	88.000000	0.000000	-1.000000	-1.000000	264140.000000	1770062024.221238
-12075.840000	-40137.435000	-23471.595000	-14015.790000	-43786.755000	-43323.345000	-10213.065000	7239.690000	-4.429980	-5.166159	-6.051753	-4.494934	-1.521669	-2.724840	-3.501556	-5.162373	-3.326680	2.884140	-2.212700	0.929624	-0.013489	0.352111	-1.000000	-1.000000	-1.000000	-1.000000	-1.000000	-1.000000	-1.000000	88.000000	0.000000	-1.000000	-1.000000	264141.000000	1770062024.226668
-12082.770000	-40142.970000	-23477.040000	-14023.080000	-43795.260000	-43327.665000	-10209.735000	7240.365000	-4.165933	-3.098995	-3.441376	-2.305202	-0.023389	-2.293720	-4.121869	-6.965142	-3.326680	2.884140	-2.212700	0.929624	-0.013489	0.352111	-1.000000	-1.000000	-1.000000	-1.000000	-1.000000	-1.000000	-1.000000	88.000000	0.000000	-1.000000	-1.000000	264142.000000	1770062024.226678
-12078.315000	-40139.415000	-23472.585000	-14013.585000	-43780.590000	-43310.025000	-10199.880000	7248.735000	-2.942605	-0.726829	-0.609351	-0.285114	0.453297	-1.777813	-3.454526	-6.298169	-3.326680	2.884140	-2.212700	0.929624	-0.013489	0.352111	-1.000000	-1.000000	-1.000000	-1.000000	-1.000000	-1.000000	-1.000000	88.000000	0.000000	-1.000000	-1.000000	264143.000000	1770062024.229811
-12081.555000	-40144.860000	-23482.665000	-14028.525000	-43799.850000	-43327.395000	-10207.485000	7238.790000	-0.872033	1.090762	1.597773	1.359734	0.739053	-0.148180	-1.301218	-2.523937	-3.326680	2.884140	-2.212700	0.929624	-0.013489	0.352111	-1.000000	-1.000000	-1.000000	-1.000000	-1.000000	-1.000000	-1.000000	88.000000	0.000000	-1.000000	-1.000000	264144.000000	1770062024.229820
-12082.410000	-40151.520000	-23489.955000	-14032.260000	-43799.220000	-43327.845000	-10214.190000	7239.105000	1.464778	1.968100	2.715177	2.316926	1.074451	1.912632	1.302287	2.451716	-3.326680	2.884140	-2.212700	0.929624	-0.013489	0.352111	-1.000000	-1.000000	-1.000000	-1.000000	-1.000000	-1.000000	-1.000000	88.000000	0.000000	-1.000000	-1.000000	264145.000000	1770062024.233970
-12074.130000	-40143.060000	-23476.320000	-14013.720000	-43777.350000	-43308.090000	-10207.530000	7248.195000	3.237428	1.888123	2.733903	2.504890	1.353822	3.147915	2.994665	6.015051	-3.326680	2.884140	-2.212700	0.929624	-0.013489	0.352111	-1.000000	-1.000000	-1.000000	-1.000000	-1.000000	-1.000000	-1.000000	88.000000	0.000000	-1.000000	-1.000000	264146.000000	1770062024.233979
-12082.095000	-40148.190000	-23479.515000	-14017.455000	-43781.355000	-43310.925000	-10204.290000	7236.135000	3.778542	1.164354	2.122548	2.312032	1.650891	3.219665	3.398638	6.888340	-3.326680	2.884140	-2.212700	0.929624	-0.013489	0.352111	-1.000000	-1.000000	-1.000000	-1.000000	-1.000000	-1.000000	-1.000000	88.000000	0.000000	-1.000000	-1.000000	264147.000000	1770062024.236949
-12084.705000	-40138.740000	-23468.805000	-14008.140000	-43774.605000	-43307.955000	-10204.020000	7225.335000	2.788603	0.276527	1.292180	1.746155	1.381579	2.051160	2.781552	5.035380	-3.326680	2.884140	-2.212700	0.929624	-0.013489	0.352111	-1.000000	-1.000000	-1.000000	-1.000000	-1.000000	-1.000000	-1.000000	88.000000	0.000000	-1.000000	-1.000000	264148.000000	1770062024.236959
-12089.520000	-40139.595000	-23470.020000	-14007.375000	-43771.455000	-43305.255000	-10202.715000	7226.640000	0.606149	-0.279281	0.466651	0.666921	0.108882	0.033908	1.441765	1.353999	-3.326680	2.884140	-2.212700	0.929624	-0.013489	0.352111	-1.000000	-1.000000	-1.000000	-1.000000	-1.000000	-1.000000	-1.000000	88.000000	0.000000	-1.000000	-1.000000	264149.000000	1770062024.241874
-12079.845000	-40132.530000	-23462.730000	-14000.850000	-43766.280000	-43297.740000	-10196.415000	7242.885000	-1.681005	-0.410359	-0.353533	-0.693807	-1.519693	-1.685071	-0.227010	-2.167182	-3.326680	2.884140	-2.212700	0.929624	-0.013489	0.352111	-1.000000	-1.000000	-1.000000	-1.000000	-1.000000	-1.000000	-1.000000	88.000000	0.000000	-1.000000	-1.000000	264150.000000	1770062024.241881
-12068.820000	-40128.660000	-23461.470000	-13998.195000	-43760.070000	-43291.755000	-10185.255000	7267.590000	-2.549737	-0.278710	-1.123774	-1.832653	-2.516965	-2.269781	-1.649451	-3.211424	-3.265640	1.876980	-1.297100	0.929929	-0.016296	0.353759	-1.000000	-1.000000	-1.000000	-1.000000	-1.000000	-1.000000	-1.000000	88.000000	0.000000	-1.000000	-1.000000	264151.000000	1770062024.247096
-12072.690000	-40137.615000	-23472.225000	-14011.200000	-43773.885000	-43306.650000	-10193.265000	7262.055000	-1.248673	0.021063	-1.583801	-2.370820	-2.496193	-2.002382	-2.378832	-1.069373	-3.265640	1.876980	-1.297100	0.929929	-0.016296	0.353759	-1.000000	-1.000000	-1.000000	-1.000000	-1.000000	-1.000000	-1.000000	88.000000	0.000000	-1.000000	-1.000000	264152.000000	1770062024.247108
-12060.945000	-40132.665000	-23468.895000	-14009.355000	-43775.505000	-43308.630000	-10205.595000	7259.805000	1.249075	0.261417	-1.582733	-2.317203	-1.847068	-1.764153	-2.569725	2.196162	-3.265640	1.876980	-1.297100	0.929929	-0.016296	0.353759	-1.000000	-1.000000	-1.000000	-1.000000	-1.000000	-1.000000	-1.000000	88.000000	0.000000	-1.000000	-1.000000	264153.000000	1770062024.251818
-12070.530000	-40138.605000	-23476.590000	-14017.590000	-43789.140000	-43323.075000	-10212.840000	7244.505000	3.117002	0.321757	-1.077404	-1.779672	-1.239354	-1.997249	-2.661056	3.350996	-3.265640	1.876980	-1.297100	0.929929	-0.016296	0.353759	-1.000000	-1.000000	-1.000000	-1.000000	-1.000000	-1.000000	-1.000000	88.000000	0.000000	-1.000000	-1.000000	264154.000000	1770062024.251824
-12080.520000	-40141.935000	-23478.165000	-14015.790000	-43785.135000	-43315.065000	-10209.780000	7251.210000	2.709717	0.013075	-0.556457	-1.250952	-1.411344	-2.716488	-2.686461	0.925153	-3.265640	1.876980	-1.297100	0.929929	-0.016296	0.353759	-1.000000	-1.000000	-1.000000	-1.000000	-1.000000	-1.000000	-1.000000	88.000000	0.000000	-1.000000	-1.000000	264155.000000	1770062024.253066
-12083.445000	-40144.050000	-23478.885000	-14012.190000	-43775.055000	-43302.870000	-10201.590000	7254.405000	-0.240772	-0.906609	-0.708587	-1.155015	-2.131376	-3.097821	-2.106807	-3.092151	-3.265640	1.876980	-1.297100	0.929929	-0.016296	0.353759	-1.000000	-1.000000	-1.000000	-1.000000	-1.000000	-1.000000	-1.000000	88.000000	0.000000	-1.000000	-1.000000	264156.000000	1770062024.253076
-12069.675000	-40136.040000	-23470.830000	-14002.920000	-43763.355000	-43294.005000	-10196.640000	7258.905000	-3.566509	-1.929450	-1.202433	-0.886587	-1.720266	-1.521841	-0.304682	-5.067023	-3.265640	1.876980	-1.297100	0.929929	-0.016296	0.353759	-1.000000	-1.000000	-1.000000	-1.000000	-1.000000	-1.000000	-1.000000	88.000000	0.000000	-1.000000	-1.000000	264157.000000	1770062024.256913
-12076.830000	-40137.390000	-23470.065000	-14003.730000	-43766.955000	-43301.160000	-10196.280000	7238.835000	-4.578929	-2.140098	-1.095980	0.212188	0.636754	2.012644	2.353186	-3.930421	-3.265640	1.876980	-1.297100	0.929929	-0.016296	0.353759	-1.000000	-1.000000	-1.000000	-1.000000	-1.000000	-1.000000	-1.000000	88.000000	0.000000	-1.000000	-1.000000	264158.000000	1770062024.256924
-12080.970000	-40142.250000	-23474.160000	-14011.605000	-43776.360000	-43309.620000	-10199.385000	7244.460000	-3.113548	-1.406825	-0.190903	1.575062	3.313153	4.925729	4.188361	-2.089966	-3.265640	1.876980	-1.297100	0.929929	-0.016296	0.353759	-1.000000	-1.000000	-1.000000	-1.000000	-1.000000	-1.000000	-1.000000	88.000000	0.000000	-1.000000	-1.000000	264159.000000	1770062024.260920
-12077.235000	-40137.930000	-23470.200000	-14009.490000	-43775.820000	-43308.630000	-10202.580000	7247.205000	-1.019987	-0.283879	0.979540	2.152127	4.113930	4.843611	3.633922	-1.664164	-3.265640	1.876980	-1.297100	0.929929	-0.016296	0.353759	-1.000000	-1.000000	-1.000000	-1.000000	-1.000000	-1.000000	-1.000000	88.000000	0.000000	-1.000000	-1.000000	264160.000000	1770062024.260932
