Channel1	Channel2	Channel3	Channel4	Channel5	Channel6	Channel7	Channel8	FilteredChannel1	FilteredChannel2	FilteredChannel3	FilteredChannel4	FilteredChannel5	FilteredChannel6	FilteredChannel7	FilteredChannel8	GyroX	GyroY	GyroZ	AccX	AccY	AccZ	PPG1	PPG2	rawPPG1	rawPPG2	rawPPG3	Hr	Hrv	Battery	Trigger	PhysicalTrigger	AutoTrigger	NumMeasurements	Timestamp
-17782.020000	-23920.920000	-22706.865000	-34380.630000	-44222.940000	-58362.075000	-38030.580000	-12369.870000	5.711527	3.814358	3.374113	2.910224	2.582752	2.239631	1.107397	5.720200	0.412020	3.433500	-2.105880	0.826963	-0.137207	0.512877	-1.000000	-1.000000	-1.000000	-1.000000	-1.000000	-1.000000	-1.000000	38.206897	0.000000	-1.000000	-1.000000	502851.000000	1774294543.349140
-17776.665000	-23910.795000	-22696.830000	-34372.935000	-44216.595000	-58355.955000	-38029.500000	-12372.210000	2.234459	3.064119	4.521673	4.255462	3.641565	3.193741	1.571260	4.216831	0.412020	3.433500	-2.105880	0.826963	-0.137207	0.512877	-1.000000	-1.000000	-1.000000	-1.000000	-1.000000	-1.000000	-1.000000	38.206897	0.000000	-1.000000	-1.000000	502852.000000	1774294543.349145
-17770.095000	-23902.380000	-22693.320000	-34372.395000	-44216.145000	-58357.755000	-38028.960000	-12371.085000	-2.862568	1.453240	4.606802	4.615553	3.848161	3.367898	1.019892	-1.062772	0.412020	3.433500	-2.105880	0.826963	-0.137207	0.512877	-1.000000	-1.000000	-1.000000	-1.000000	-1.000000	-1.000000	-1.000000	38.206897	0.000000	-1.000000	-1.000000	502853.000000	1774294543.351044
-17772.705000	-23906.430000	-22702.410000	-34380.720000	-44223.345000	-58367.385000	-38030.580000	-12362.625000	-4.739753	0.705804	3.977240	3.763193	2.930054	2.535943	0.391523	-3.549864	0.412020	3.433500	-2.105880	0.826963	-0.137207	0.512877	-1.000000	-1.000000	-1.000000	-1.000000	-1.000000	-1.000000	-1.000000	38.206897	0.000000	-1.000000	-1.000000	502854.000000	1774294543.351054
-17781.975000	-23927.310000	-22729.815000	-34404.255000	-44244.630000	-58388.175000	-38033.280000	-12348.990000	-2.129782	0.608826	1.951982	1.337416	0.710600	0.503687	0.252459	0.174387	0.412020	3.433500	-2.105880	0.826963	-0.137207	0.512877	-1.000000	-1.000000	-1.000000	-1.000000	-1.000000	-1.000000	-1.000000	38.206897	0.000000	-1.000000	-1.000000	502855.000000	1774294543.354950
-17782.515000	-23920.380000	-22718.835000	-34392.600000	-44233.380000	-58376.430000	-38024.595000	-12356.280000	1.371526	-0.597678	-1.937171	-2.427942	-2.423644	-2.353111	0.461106	6.774056	0.412020	3.433500	-2.105880	0.826963	-0.137207	0.512877	-1.000000	-1.000000	-1.000000	-1.000000	-1.000000	-1.000000	-1.000000	38.206897	0.000000	-1.000000	-1.000000	502856.000000	1774294543.354960
-17779.860000	-23908.500000	-22700.340000	-34375.095000	-44216.685000	-58360.995000	-38019.870000	-12358.890000	2.090623	-2.832911	-5.534725	-5.344451	-4.522659	-4.206736	0.816154	9.919590	0.412020	3.433500	-2.105880	0.826963	-0.137207	0.512877	-1.000000	-1.000000	-1.000000	-1.000000	-1.000000	-1.000000	-1.000000	38.206897	0.000000	-1.000000	-1.000000	502857.000000	1774294543.358936
-17770.095000	-23900.625000	-22691.970000	-34366.680000	-44208.630000	-58350.150000	-38013.750000	-12348.180000	0.229137	-3.696043	-5.601521	-4.868869	-3.558240	-3.204924	1.278891	6.768819	0.412020	3.433500	-2.105880	0.826963	-0.137207	0.512877	-1.000000	-1.000000	-1.000000	-1.000000	-1.000000	-1.000000	-1.000000	38.206897	0.000000	-1.000000	-1.000000	502858.000000	1774294543.358950
-17770.140000	-23902.605000	-22691.655000	-34364.880000	-44207.055000	-58347.180000	-38018.745000	-12357.540000	-1.383263	-1.752252	-1.834157	-1.266451	-0.135189	0.083281	1.558897	-0.211036	0.412020	3.433500	-2.105880	0.826963	-0.137207	0.512877	-1.000000	-1.000000	-1.000000	-1.000000	-1.000000	-1.000000	-1.000000	38.206897	0.000000	-1.000000	-1.000000	502859.000000	1774294543.431691
-17773.560000	-23913.765000	-22703.715000	-34377.300000	-44220.150000	-58358.745000	-38024.820000	-12355.245000	-1.061147	1.378601	2.510665	2.341108	2.726325	2.842433	0.953676	-6.788784	0.412020	3.433500	-2.105880	0.826963	-0.137207	0.512877	-1.000000	-1.000000	-1.000000	-1.000000	-1.000000	-1.000000	-1.000000	38.206897	0.000000	-1.000000	-1.000000	502860.000000	1774294543.431703
-17789.805000	-23922.225000	-22709.205000	-34382.880000	-44225.640000	-58366.395000	-38027.745000	-12356.190000	0.128259	2.592463	3.796696	2.910075	2.408924	2.558463	-0.886421	-9.917857	-1.068200	2.594200	-1.007160	0.825865	-0.138794	0.514525	-1.000000	-1.000000	-1.000000	-1.000000	-1.000000	-1.000000	-1.000000	37.655172	0.000000	-1.000000	-1.000000	502861.000000	1774294543.431717
-17798.670000	-23926.455000	-22713.480000	-34388.415000	-44230.815000	-58374.405000	-38032.875000	-12362.760000	0.322239	0.646939	1.344346	0.249249	-0.836158	-0.625369	-3.173156	-8.504706	-1.068200	2.594200	-1.007160	0.825865	-0.138794	0.514525	-1.000000	-1.000000	-1.000000	-1.000000	-1.000000	-1.000000	-1.000000	37.655172	0.000000	-1.000000	-1.000000	502862.000000	1774294543.431722
-17779.455000	-23914.080000	-22706.955000	-34383.780000	-44225.190000	-58370.175000	-38026.710000	-12354.345000	-0.372466	-2.301396	-2.051768	-2.823202	-3.970751	-3.836897	-4.378562	-3.799776	-1.068200	2.594200	-1.007160	0.825865	-0.138794	0.514525	-1.000000	-1.000000	-1.000000	-1.000000	-1.000000	-1.000000	-1.000000	37.655172	0.000000	-1.000000	-1.000000	502863.000000	1774294543.431729
-17758.530000	-23906.205000	-22703.670000	-34382.250000	-44223.660000	-58368.690000	-38022.345000	-12348.810000	0.123299	-2.779729	-2.835969	-3.146694	-3.892575	-3.998577	-3.384923	1.475676	-1.068200	2.594200	-1.007160	0.825865	-0.138794	0.514525	-1.000000	-1.000000	-1.000000	-1.000000	-1.000000	-1.000000	-1.000000	37.655172	0.000000	-1.000000	-1.000000	502864.000000	1774294543.431734
-17766.855000	-23901.975000	-22699.935000	-34378.830000	-44221.140000	-58364.820000	-38021.490000	-12360.915000	2.598736	0.131641	-0.354761	-0.409647	-0.532211	-0.897731	-0.598378	4.873861	-1.068200	2.594200	-1.007160	0.825865	-0.138794	0.514525	-1.000000	-1.000000	-1.000000	-1.000000	-1.000000	-1.000000	-1.000000	37.655172	0.000000	-1.000000	-1.000000	502865.000000	1774294543.431740
-17773.380000	-23902.920000	-22694.040000	-34376.130000	-44217.405000	-58359.240000	-38020.320000	-12369.780000	4.619993	3.743491	2.672346	2.673266	3.131659	2.700883	2.197528	5.045998	-1.068200	2.594200	-1.007160	0.825865	-0.138794	0.514525	-1.000000	-1.000000	-1.000000	-1.000000	-1.000000	-1.000000	-1.000000	37.655172	0.000000	-1.000000	-1.000000	502866.000000	1774294543.431744
-17779.185000	-23911.830000	-22698.765000	-34380.990000	-44220.510000	-58361.760000	-38027.205000	-12368.295000	3.354728	4.780048	3.445918	3.429643	4.269956	4.031680	3.367550	2.265103	-1.068200	2.594200	-1.007160	0.825865	-0.138794	0.514525	-1.000000	-1.000000	-1.000000	-1.000000	-1.000000	-1.000000	-1.000000	37.655172	0.000000	-1.000000	-1.000000	502867.000000	1774294543.431750
-17780.445000	-23916.330000	-22705.515000	-34380.720000	-44218.980000	-58358.250000	-38024.235000	-12348.810000	-0.951597	2.385148	1.494061	1.579220	2.564996	2.604026	2.636589	-1.017761	-1.068200	2.594200	-1.007160	0.825865	-0.138794	0.514525	-1.000000	-1.000000	-1.000000	-1.000000	-1.000000	-1.000000	-1.000000	37.655172	0.000000	-1.000000	-1.000000	502868.000000	1774294543.431755
-17778.555000	-23911.965000	-22708.125000	-34377.705000	-44219.475000	-58360.185000	-38024.145000	-12347.820000	-5.235979	-1.481401	-1.602349	-0.954369	-0.110135	0.107026	1.102372	-1.828027	-1.068200	2.594200	-1.007160	0.825865	-0.138794	0.514525	-1.000000	-1.000000	-1.000000	-1.000000	-1.000000	-1.000000	-1.000000	37.655172	0.000000	-1.000000	-1.000000	502869.000000	1774294543.431761
-17780.445000	-23917.860000	-22714.785000	-34385.400000	-44230.410000	-58373.100000	-38030.805000	-12366.765000	-6.326631	-3.961015	-3.709583	-2.044938	-1.766746	-1.519358	-0.010355	0.086655	-1.068200	2.594200	-1.007160	0.825865	-0.138794	0.514525	-1.000000	-1.000000	-1.000000	-1.000000	-1.000000	-1.000000	-1.000000	37.655172	0.000000	-1.000000	-1.000000	502870.000000	1774294543.431766
-17777.700000	-23919.840000	-22719.330000	-34395.030000	-44238.960000	-58384.080000	-38037.465000	-12374.415000	-3.480341	-3.839715	-3.745153	-1.392485	-2.043651	-1.873042	-0.535241	2.056628	-1.724380	3.189340	-1.068200	0.825681	-0.137634	0.515868	-1.000000	-1.000000	-1.000000	-1.000000	-1.000000	-1.000000	-1.000000	37.655172	0.000000	-1.000000	-1.000000	502871.000000	1774294543.431772
-17774.775000	-23915.340000	-22716.270000	-34393.230000	-44236.080000	-58381.335000	-38031.930000	-12357.360000	0.942274	-1.997521	-1.998909	-0.169229	-1.609217	-1.562789	-0.927473	1.898501	-1.724380	3.189340	-1.068200	0.825681	-0.137634	0.515868	-1.000000	-1.000000	-1.000000	-1.000000	-1.000000	-1.000000	-1.000000	37.655172	0.000000	-1.000000	-1.000000	502872.000000	1774294543.431776
-17778.555000	-23913.495000	-22709.340000	-34385.985000	-44228.250000	-58373.280000	-38022.705000	-12343.725000	3.551674	0.073796	0.606045	0.755019	-0.750457	-0.833953	-1.148575	0.392423	-1.724380	3.189340	-1.068200	0.825681	-0.137634	0.515868	-1.000000	-1.000000	-1.000000	-1.000000	-1.000000	-1.000000	-1.000000	37.655172	0.000000	-1.000000	-1.000000	502873.000000	1774294543.434604
-17783.640000	-23913.945000	-22702.995000	-34383.330000	-44226.315000	-58369.905000	-38024.370000	-12355.920000	2.967539	1.322881	2.933110	1.206446	0.463980	0.285819	-0.771268	-0.319759	-1.724380	3.189340	-1.068200	0.825681	-0.137634	0.515868	-1.000000	-1.000000	-1.000000	-1.000000	-1.000000	-1.000000	-1.000000	37.655172	0.000000	-1.000000	-1.000000	502874.000000	1774294543.434614
-17784.315000	-23917.545000	-22701.420000	-34384.365000	-44227.845000	-58369.590000	-38030.895000	-12363.120000	0.557077	1.455449	3.953972	1.107158	1.464300	1.276444	0.017400	0.059303	-1.724380	3.189340	-1.068200	0.825681	-0.137634	0.515868	-1.000000	-1.000000	-1.000000	-1.000000	-1.000000	-1.000000	-1.000000	37.655172	0.000000	-1.000000	-1.000000	502875.000000	1774294543.434623
-17783.640000	-23916.510000	-22701.735000	-34379.100000	-44221.275000	-58361.805000	-38029.590000	-12363.390000	-1.372713	1.015181	3.382005	0.580978	1.700254	1.606288	0.549544	0.021083	-1.724380	3.189340	-1.068200	0.825681	-0.137634	0.515868	-1.000000	-1.000000	-1.000000	-1.000000	-1.000000	-1.000000	-1.000000	37.655172	0.000000	-1.000000	-1.000000	502876.000000	1774294543.434628
-17783.595000	-23913.225000	-22704.390000	-34373.835000	-44216.550000	-58358.700000	-38029.365000	-12367.080000	-1.514604	0.859028	1.821070	0.193078	1.428207	1.456110	0.612474	-1.385747	-1.724380	3.189340	-1.068200	0.825681	-0.137634	0.515868	-1.000000	-1.000000	-1.000000	-1.000000	-1.000000	-1.000000	-1.000000	37.655172	0.000000	-1.000000	-1.000000	502877.000000	1774294543.434634
-17771.445000	-23911.425000	-22711.770000	-34377.255000	-44219.835000	-58362.120000	-38025.945000	-12356.055000	0.055522	1.292158	0.062726	0.323615	1.218979	1.301513	0.527714	-3.191429	-1.724380	3.189340	-1.068200	0.825681	-0.137634	0.515868	-1.000000	-1.000000	-1.000000	-1.000000	-1.000000	-1.000000	-1.000000	37.655172	0.000000	-1.000000	-1.000000	502878.000000	1774294543.434639
-17769.240000	-23906.970000	-22707.270000	-34381.080000	-44224.515000	-58367.880000	-38023.695000	-12353.715000	2.514464	1.952335	-1.327972	0.688971	1.148844	1.270057	0.753431	-3.015954	-1.724380	3.189340	-1.068200	0.825681	-0.137634	0.515868	-1.000000	-1.000000	-1.000000	-1.000000	-1.000000	-1.000000	-1.000000	37.655172	0.000000	-1.000000	-1.000000	502879.000000	1774294543.434644
-17778.240000	-23912.685000	-22712.940000	-34388.820000	-44232.255000	-58376.970000	-38028.150000	-12357.225000	4.222385	2.152750	-1.933000	0.721218	0.795304	1.024676	1.295078	-0.053224	-1.724380	3.189340	-1.068200	0.825681	-0.137634	0.515868	-1.000000	-1.000000	-1.000000	-1.000000	-1.000000	-1.000000	-1.000000	37.655172	0.000000	-1.000000	-1.000000	502880.000000	1774294543.434649
-17784.810000	-23916.105000	-22714.605000	-34390.980000	-44234.415000	-58380.030000	-38032.470000	-12363.975000	3.188388	1.071989	-1.902844	-0.056565	-0.367185	-0.063501	1.224326	3.010875	-1.907500	4.165980	-1.205540	0.826170	-0.137268	0.515807	-1.000000	-1.000000	-1.000000	-1.000000	-1.000000	-1.000000	-1.000000	37.655172	0.000000	-1.000000	-1.000000	502881.000000	1774294543.434655
-17786.880000	-23920.920000	-22717.215000	-34393.725000	-44237.160000	-58381.290000	-38036.070000	-12369.555000	-0.639366	-1.467975	-1.972414	-1.727683	-2.376135	-2.191984	-0.363714	3.071591	-1.907500	4.165980	-1.205540	0.826170	-0.137268	0.515807	-1.000000	-1.000000	-1.000000	-1.000000	-1.000000	-1.000000	-1.000000	37.655172	0.000000	-1.000000	-1.000000	502882.000000	1774294543.434659
-17777.205000	-23918.130000	-22713.120000	-34387.155000	-44230.275000	-58370.670000	-38032.155000	-12359.205000	-4.535970	-4.223393	-2.425008	-3.476494	-4.242160	-4.306965	-2.755531	0.560902	-1.907500	4.165980	-1.205540	0.826170	-0.137268	0.515807	-1.000000	-1.000000	-1.000000	-1.000000	-1.000000	-1.000000	-1.000000	37.655172	0.000000	-1.000000	-1.000000	502883.000000	1774294543.434665
-17773.380000	-23914.890000	-22706.370000	-34378.605000	-44220.555000	-58358.520000	-38025.720000	-12349.125000	-5.464664	-5.180131	-2.467716	-3.756634	-4.326432	-4.527515	-3.833564	-1.309857	-1.907500	4.165980	-1.205540	0.826170	-0.137268	0.515807	-1.000000	-1.000000	-1.000000	-1.000000	-1.000000	-1.000000	-1.000000	37.655172	0.000000	-1.000000	-1.000000	502884.000000	1774294543.434670
-17761.320000	-23899.050000	-22690.440000	-34361.145000	-44202.555000	-58341.105000	-38013.615000	-12337.470000	-2.733353	-3.142465	-0.880628	-1.570100	-1.732473	-1.852906	-2.148174	-0.471510	-1.907500	4.165980	-1.205540	0.826170	-0.137268	0.515807	-1.000000	-1.000000	-1.000000	-1.000000	-1.000000	-1.000000	-1.000000	37.655172	0.000000	-1.000000	-1.000000	502885.000000	1774294543.434675
-17765.865000	-23897.835000	-22689.405000	-34360.830000	-44201.925000	-58343.220000	-38010.735000	-12341.430000	1.688460	1.133301	2.541417	2.334459	2.595586	2.606568	1.568421	2.053717	-1.907500	4.165980	-1.205540	0.826170	-0.137268	0.515807	-1.000000	-1.000000	-1.000000	-1.000000	-1.000000	-1.000000	-1.000000	37.655172	0.000000	-1.000000	-1.000000	502886.000000	1774294543.434680
-17781.255000	-23907.375000	-22699.890000	-34372.125000	-44213.175000	-58355.460000	-38015.415000	-12358.080000	4.457754	5.005685	5.963247	5.574939	6.127689	6.106671	4.833198	3.398499	-1.907500	4.165980	-1.205540	0.826170	-0.137268	0.515807	-1.000000	-1.000000	-1.000000	-1.000000	-1.000000	-1.000000	-1.000000	37.655172	0.000000	-1.000000	-1.000000	502887.000000	1774294543.434686
-17786.295000	-23913.675000	-22710.240000	-34385.805000	-44227.755000	-58372.425000	-38025.270000	-12370.140000	3.292146	5.695220	6.521695	5.747194	6.358424	6.135420	5.214738	1.462244	-1.907500	4.165980	-1.205540	0.826170	-0.137268	0.515807	-1.000000	-1.000000	-1.000000	-1.000000	-1.000000	-1.000000	-1.000000	37.655172	0.000000	-1.000000	-1.000000	502888.000000	1774294543.434691
-17786.745000	-23920.515000	-22721.220000	-34397.460000	-44240.670000	-58384.305000	-38035.665000	-12381.705000	-0.761786	2.656595	2.992190	2.328769	2.686349	2.283974	2.108419	-3.166187	-1.907500	4.165980	-1.205540	0.826170	-0.137268	0.515807	-1.000000	-1.000000	-1.000000	-1.000000	-1.000000	-1.000000	-1.000000	37.655172	0.000000	-1.000000	-1.000000	502889.000000	1774294543.434696
-17777.565000	-23907.780000	-22707.855000	-34382.070000	-44224.740000	-58369.005000	-38032.875000	-12379.995000	-4.146310	-1.819261	-2.677667	-2.637832	-2.778691	-3.149045	-2.728453	-7.500777	-1.907500	4.165980	-1.205540	0.826170	-0.137268	0.515807	-1.000000	-1.000000	-1.000000	-1.000000	-1.000000	-1.000000	-1.000000	37.655172	0.000000	-1.000000	-1.000000	502890.000000	1774294543.434701
-17777.475000	-23909.760000	-22707.045000	-34379.820000	-44222.895000	-58366.080000	-38028.735000	-12361.995000	-4.129492	-4.492993	-6.758713	-5.803467	-6.407303	-6.562996	-6.203718	-8.054861	-0.564620	4.974760	-2.243220	0.825987	-0.138366	0.515013	-1.000000	-1.000000	-1.000000	-1.000000	-1.000000	-1.000000	-1.000000	37.655172	0.000000	-1.000000	-1.000000	502891.000000	1774294543.434708
-17780.220000	-23915.295000	-22708.215000	-34380.810000	-44224.110000	-58363.740000	-38018.115000	-12342.510000	-1.168323	-4.036562	-6.991399	-5.394316	-6.160390	-6.105831	-6.014604	-3.321860	-0.564620	4.974760	-2.243220	0.825987	-0.138366	0.515013	-1.000000	-1.000000	-1.000000	-1.000000	-1.000000	-1.000000	-1.000000	37.655172	0.000000	-1.000000	-1.000000	502892.000000	1774294543.434713
-17786.250000	-23912.190000	-22699.170000	-34369.515000	-44211.240000	-58351.770000	-38015.955000	-12351.555000	1.926551	-1.771725	-4.056344	-2.500871	-3.085321	-2.920837	-2.382894	4.253611	-0.564620	4.974760	-2.243220	0.825987	-0.138366	0.515013	-1.000000	-1.000000	-1.000000	-1.000000	-1.000000	-1.000000	-1.000000	37.655172	0.000000	-1.000000	-1.000000	502893.000000	1774294543.434719
-17789.490000	-23919.255000	-22702.995000	-34371.765000	-44213.715000	-58356.315000	-38021.580000	-12359.295000	2.789111	0.170149	-0.149081	0.618547	0.446368	0.630944	2.037629	9.442168	-0.564620	4.974760	-2.243220	0.825987	-0.138366	0.515013	-1.000000	-1.000000	-1.000000	-1.000000	-1.000000	-1.000000	-1.000000	37.655172	0.000000	-1.000000	-1.000000	502894.000000	1774294543.434723
-17778.780000	-23919.120000	-22707.630000	-34378.920000	-44220.870000	-58364.820000	-38024.280000	-12353.040000	1.554612	0.706353	2.754538	2.361632	2.652596	2.805966	4.310747	8.967338	-0.564620	4.974760	-2.243220	0.825987	-0.138366	0.515013	-1.000000	-1.000000	-1.000000	-1.000000	-1.000000	-1.000000	-1.000000	37.655172	0.000000	-1.000000	-1.000000	502895.000000	1774294543.435127
-17776.980000	-23906.025000	-22702.275000	-34375.725000	-44217.180000	-58363.155000	-38016.270000	-12348.945000	0.448818	0.633465	3.988395	2.639416	3.259256	3.387097	3.788789	4.508884	-0.564620	4.974760	-2.243220	0.825987	-0.138366	0.515013	-1.000000	-1.000000	-1.000000	-1.000000	-1.000000	-1.000000	-1.000000	37.655172	0.000000	-1.000000	-1.000000	502896.000000	1774294543.435133
-17779.815000	-23894.730000	-22689.630000	-34363.305000	-44205.030000	-58353.615000	-38010.150000	-12353.490000	0.961621	1.678068	4.388504	2.785145	3.506006	3.612480	2.298351	-0.005060	-0.564620	4.974760	-2.243220	0.825987	-0.138366	0.515013	-1.000000	-1.000000	-1.000000	-1.000000	-1.000000	-1.000000	-1.000000	37.655172	0.000000	-1.000000	-1.000000	502897.000000	1774294543.438871
-17783.280000	-23900.220000	-22691.835000	-34363.665000	-44206.380000	-58354.065000	-38017.305000	-12373.470000	2.123267	3.974771	4.745072	3.717827	4.302127	4.337958	1.564930	-2.693501	-0.564620	4.974760	-2.243220	0.825987	-0.138366	0.515013	-1.000000	-1.000000	-1.000000	-1.000000	-1.000000	-1.000000	-1.000000	37.655172	0.000000	-1.000000	-1.000000	502898.000000	1774294543.438881
-17774.145000	-23891.805000	-22684.995000	-34357.815000	-44201.745000	-58348.665000	-38023.560000	-12377.970000	2.187621	5.397492	4.319510	4.304672	4.530118	4.483632	1.191704	-4.329009	-0.564620	4.974760	-2.243220	0.825987	-0.138366	0.515013	-1.000000	-1.000000	-1.000000	-1.000000	-1.000000	-1.000000	-1.000000	37.655172	0.000000	-1.000000	-1.000000	502899.000000	1774294543.442927
-17782.155000	-23914.260000	-22708.980000	-34383.825000	-44228.700000	-58371.480000	-38039.040000	-12375.180000	0.715410	3.909616	1.764281	2.510524	2.242361	2.215491	-0.374499	-5.925159	-0.564620	4.974760	-2.243220	0.825987	-0.138366	0.515013	-1.000000	-1.000000	-1.000000	-1.000000	-1.000000	-1.000000	-1.000000	37.655172	0.000000	-1.000000	-1.000000	502900.000000	1774294543.442936
-17782.875000	-23936.400000	-22734.180000	-34410.105000	-44254.845000	-58393.260000	-38048.130000	-12361.680000	-1.507777	-0.754059	-3.323317	-2.554733	-3.255180	-3.091458	-3.681837	-6.874673	-0.442540	4.425400	-3.280900	0.824888	-0.139709	0.514891	-1.000000	-1.000000	-1.000000	-1.000000	-1.000000	-1.000000	-1.000000	37.655172	0.000000	-1.000000	-1.000000	502901.000000	1774294543.446871
-17782.290000	-23933.385000	-22731.165000	-34406.145000	-44249.985000	-58387.590000	-38034.765000	-12350.385000	-3.279303	-6.832528	-9.416827	-9.304576	-10.162785	-9.641724	-7.007612	-5.298126	-0.442540	4.425400	-3.280900	0.824888	-0.139709	0.514891	-1.000000	-1.000000	-1.000000	-1.000000	-1.000000	-1.000000	-1.000000	37.655172	0.000000	-1.000000	-1.000000	502902.000000	1774294543.446878
-17770.185000	-23916.690000	-22716.405000	-34395.705000	-44240.220000	-58380.030000	-38023.920000	-12333.600000	-3.479923	-10.495322	-12.569839	-13.300072	-13.939693	-13.065581	-7.113523	-0.208941	-0.442540	4.425400	-3.280900	0.824888	-0.139709	0.514891	-1.000000	-1.000000	-1.000000	-1.000000	-1.000000	-1.000000	-1.000000	37.655172	0.000000	-1.000000	-1.000000	502903.000000	1774294543.451598
-17786.160000	-23922.945000	-22719.420000	-34399.485000	-44244.495000	-58387.005000	-38031.660000	-12355.560000	-2.046851	-8.522195	-9.223577	-10.414856	-10.565839	-9.698643	-2.652408	6.237164	-0.442540	4.425400	-3.280900	0.824888	-0.139709	0.514891	-1.000000	-1.000000	-1.000000	-1.000000	-1.000000	-1.000000	-1.000000	37.655172	0.000000	-1.000000	-1.000000	502904.000000	1774294543.451608
-17790.885000	-23928.030000	-22726.665000	-34402.410000	-44245.440000	-58390.335000	-38034.000000	-12360.690000	-0.379104	-2.118816	-0.605405	-1.421919	-1.049581	-0.756647	3.651838	9.586611	-0.442540	4.425400	-3.280900	0.824888	-0.139709	0.514891	-1.000000	-1.000000	-1.000000	-1.000000	-1.000000	-1.000000	-1.000000	37.655172	0.000000	-1.000000	-1.000000	502905.000000	1774294543.490366
-17785.395000	-23924.295000	-22724.370000	-34395.480000	-44237.880000	-58381.875000	-38029.995000	-12358.755000	0.404681	4.321086	7.946502	8.436739	9.212242	8.610735	7.762702	7.593422	-0.442540	4.425400	-3.280900	0.824888	-0.139709	0.514891	-1.000000	-1.000000	-1.000000	-1.000000	-1.000000	-1.000000	-1.000000	37.655172	0.000000	-1.000000	-1.000000	502906.000000	1774294543.490382
-17781.255000	-23912.640000	-22709.970000	-34382.970000	-44228.385000	-58373.325000	-38027.520000	-12358.665000	0.707850	7.785381	12.083445	14.164461	15.110974	13.799418	8.094961	2.532033	-0.442540	4.425400	-3.280900	0.824888	-0.139709	0.514891	-1.000000	-1.000000	-1.000000	-1.000000	-1.000000	-1.000000	-1.000000	37.655172	0.000000	-1.000000	-1.000000	502907.000000	1774294543.490398
-17779.950000	-23911.020000	-22707.045000	-34379.865000	-44225.910000	-58369.455000	-38028.555000	-12359.250000	1.172827	8.113475	11.243182	14.088805	14.824317	13.301062	5.667257	-2.035702	-0.442540	4.425400	-3.280900	0.824888	-0.139709	0.514891	-1.000000	-1.000000	-1.000000	-1.000000	-1.000000	-1.000000	-1.000000	37.655172	0.000000	-1.000000	-1.000000	502908.000000	1774294543.490403
-17778.645000	-23915.475000	-22708.530000	-34380.585000	-44225.100000	-58365.630000	-38026.755000	-12356.775000	1.766712	6.564637	7.515912	9.727832	9.926010	8.671682	2.296453	-4.649577	-0.442540	4.425400	-3.280900	0.824888	-0.139709	0.514891	-1.000000	-1.000000	-1.000000	-1.000000	-1.000000	-1.000000	-1.000000	37.655172	0.000000	-1.000000	-1.000000	502909.000000	1774294543.497432
-17780.490000	-23917.590000	-22708.035000	-34379.595000	-44222.265000	-58363.290000	-38025.315000	-12356.955000	2.157245	4.313488	3.290025	3.858261	3.536210	2.842126	-0.666438	-5.622374	-0.442540	4.425400	-3.280900	0.824888	-0.139709	0.514891	-1.000000	-1.000000	-1.000000	-1.000000	-1.000000	-1.000000	-1.000000	37.655172	0.000000	-1.000000	-1.000000	502910.000000	1774294543.497443
-17792.685000	-23928.165000	-22719.375000	-34391.790000	-44234.730000	-58375.485000	-38032.245000	-12366.090000	1.691751	1.409876	-0.628383	-1.863246	-2.398052	-2.425928	-3.005221	-5.617938	-1.205540	3.906560	-3.998120	0.824705	-0.139282	0.515685	-1.000000	-1.000000	-1.000000	-1.000000	-1.000000	-1.000000	-1.000000	37.655172	0.000000	-1.000000	-1.000000	502911.000000	1774294543.497456
-17794.575000	-23926.140000	-22718.475000	-34391.790000	-44234.955000	-58377.375000	-38034.045000	-12367.530000	-0.191201	-2.571478	-4.654359	-7.048690	-7.488113	-6.851319	-5.068959	-4.985598	-1.205540	3.906560	-3.998120	0.824705	-0.139282	0.515685	-1.000000	-1.000000	-1.000000	-1.000000	-1.000000	-1.000000	-1.000000	37.655172	0.000000	-1.000000	-1.000000	502912.000000	1774294543.497460
-17772.570000	-23903.325000	-22701.915000	-34377.210000	-44219.880000	-58364.730000	-38019.330000	-12344.985000	-2.272589	-6.272774	-7.933672	-10.438714	-10.660508	-9.488519	-6.132150	-2.904606	-1.205540	3.906560	-3.998120	0.824705	-0.139282	0.515685	-1.000000	-1.000000	-1.000000	-1.000000	-1.000000	-1.000000	-1.000000	37.655172	0.000000	-1.000000	-1.000000	502913.000000	1774294543.497466
-17750.205000	-23881.950000	-22682.880000	-34358.940000	-44200.665000	-58346.730000	-38004.615000	-12329.595000	-1.811795	-6.682487	-7.995553	-9.826911	-9.889173	-8.524634	-4.561114	1.902999	-1.205540	3.906560	-3.998120	0.824705	-0.139282	0.515685	-1.000000	-1.000000	-1.000000	-1.000000	-1.000000	-1.000000	-1.000000	37.655172	0.000000	-1.000000	-1.000000	502914.000000	1774294543.497471
-17759.520000	-23886.765000	-22680.270000	-34361.145000	-44202.690000	-58348.755000	-38008.260000	-12341.295000	1.672799	-2.952781	-4.036018	-5.081742	-5.086427	-4.010293	-0.349735	8.096319	-1.205540	3.906560	-3.998120	0.824705	-0.139282	0.515685	-1.000000	-1.000000	-1.000000	-1.000000	-1.000000	-1.000000	-1.000000	37.655172	0.000000	-1.000000	-1.000000	502915.000000	1774294543.497477
-17783.775000	-23902.470000	-22685.265000	-34373.970000	-44214.885000	-58357.980000	-38018.160000	-12367.755000	4.504044	1.492888	1.055897	0.408314	0.467785	0.919903	3.802868	11.124498	-1.205540	3.906560	-3.998120	0.824705	-0.139282	0.515685	-1.000000	-1.000000	-1.000000	-1.000000	-1.000000	-1.000000	-1.000000	37.655172	0.000000	-1.000000	-1.000000	502916.000000	1774294543.497482
-17797.230000	-23913.450000	-22696.785000	-34383.195000	-44223.975000	-58364.460000	-38026.620000	-12379.365000	2.706833	2.510524	3.408223	2.816834	3.024220	2.874329	4.879707	7.336550	-1.205540	3.906560	-3.998120	0.824705	-0.139282	0.515685	-1.000000	-1.000000	-1.000000	-1.000000	-1.000000	-1.000000	-1.000000	37.655172	0.000000	-1.000000	-1.000000	502917.000000	1774294543.497487
-17797.815000	-23914.485000	-22709.160000	-34384.410000	-44226.720000	-58366.350000	-38028.510000	-12370.545000	-3.197990	-0.172826	1.849148	1.650599	1.931017	1.425731	2.346291	-1.713718	-1.205540	3.906560	-3.998120	0.824705	-0.139282	0.515685	-1.000000	-1.000000	-1.000000	-1.000000	-1.000000	-1.000000	-1.000000	37.655172	0.000000	-1.000000	-1.000000	502918.000000	1774294543.497492
-17790.975000	-23915.250000	-22714.020000	-34376.670000	-44220.780000	-58363.020000	-38026.440000	-12358.215000	-8.479556	-3.373503	-1.803520	-0.493161	-0.472919	-1.125673	-1.685626	-9.839742	-1.205540	3.906560	-3.998120	0.824705	-0.139282	0.515685	-1.000000	-1.000000	-1.000000	-1.000000	-1.000000	-1.000000	-1.000000	37.655172	0.000000	-1.000000	-1.000000	502919.000000	1774294543.497498
-17778.690000	-23912.955000	-22710.465000	-34373.655000	-44216.595000	-58360.140000	-38020.680000	-12351.375000	-8.537755	-4.131958	-4.556940	-0.853552	-1.368482	-2.074609	-4.266383	-11.411263	-1.205540	3.906560	-3.998120	0.824705	-0.139282	0.515685	-1.000000	-1.000000	-1.000000	-1.000000	-1.000000	-1.000000	-1.000000	37.655172	0.000000	-1.000000	-1.000000	502920.000000	1774294543.497502
-17758.035000	-23897.430000	-22703.400000	-34378.830000	-44221.005000	-58366.440000	-38018.745000	-12353.805000	-2.550715	-1.837086	-4.215783	1.036742	0.165135	-0.498906	-3.719135	-5.958680	-3.311420	3.097780	-3.876040	0.824949	-0.136840	0.518553	-1.000000	-1.000000	-1.000000	-1.000000	-1.000000	-1.000000	-1.000000	37.655172	0.000000	-1.000000	-1.000000	502921.000000	1774294543.497510
-17762.940000	-23897.385000	-22704.345000	-34381.305000	-44224.335000	-58369.770000	-38015.775000	-12346.515000	5.726492	1.804590	-1.068620	3.027212	2.313893	1.898978	-0.893523	1.987092	-3.311420	3.097780	-3.876040	0.824949	-0.136840	0.518553	-1.000000	-1.000000	-1.000000	-1.000000	-1.000000	-1.000000	-1.000000	37.655172	0.000000	-1.000000	-1.000000	502922.000000	1774294543.497518
-17760.195000	-23895.450000	-22698.270000	-34375.050000	-44218.305000	-58362.075000	-38013.615000	-12339.630000	10.521989	4.093352	2.473964	2.850342	2.664536	2.746542	1.837140	7.296799	-3.311420	3.097780	-3.876040	0.824949	-0.136840	0.518553	-1.000000	-1.000000	-1.000000	-1.000000	-1.000000	-1.000000	-1.000000	37.655172	0.000000	-1.000000	-1.000000	502923.000000	1774294543.497526
-17767.530000	-23904.900000	-22701.780000	-34377.975000	-44221.725000	-58363.785000	-38020.230000	-12350.205000	8.992341	3.643904	4.287394	0.695055	1.046272	1.711513	2.913672	8.130515	-3.311420	3.097780	-3.876040	0.824949	-0.136840	0.518553	-1.000000	-1.000000	-1.000000	-1.000000	-1.000000	-1.000000	-1.000000	37.655172	0.000000	-1.000000	-1.000000	502924.000000	1774294543.497531
-17767.035000	-23898.915000	-22691.385000	-34367.895000	-44211.240000	-58353.705000	-38020.095000	-12361.140000	3.351200	1.574137	4.206132	-1.178212	-0.505003	0.476756	2.496652	5.628340	-3.311420	3.097780	-3.876040	0.824949	-0.136840	0.518553	-1.000000	-1.000000	-1.000000	-1.000000	-1.000000	-1.000000	-1.000000	37.655172	0.000000	-1.000000	-1.000000	502925.000000	1774294543.497536
-17772.705000	-23900.490000	-22683.600000	-34366.365000	-44210.565000	-58351.815000	-38018.115000	-12358.215000	-2.207087	0.146411	3.720702	-0.783901	-0.062201	0.649103	1.646093	1.650936	-3.311420	3.097780	-3.876040	0.824949	-0.136840	0.518553	-1.000000	-1.000000	-1.000000	-1.000000	-1.000000	-1.000000	-1.000000	37.655172	0.000000	-1.000000	-1.000000	502926.000000	1774294543.497541
-17774.325000	-23902.065000	-22683.465000	-34370.910000	-44214.615000	-58353.300000	-38013.795000	-12344.265000	-5.264606	0.324156	4.023262	1.468506	2.020046	2.018147	1.138141	-2.129538	-3.311420	3.097780	-3.876040	0.824949	-0.136840	0.518553	-1.000000	-1.000000	-1.000000	-1.000000	-1.000000	-1.000000	-1.000000	37.655172	0.000000	-1.000000	-1.000000	502927.000000	1774294543.500336
-17781.750000	-23916.555000	-22712.220000	-34389.630000	-44228.655000	-58368.735000	-38020.185000	-12344.040000	-5.919144	0.932324	4.012539	2.853963	3.221534	2.654930	0.802569	-4.407788	-3.311420	3.097780	-3.876040	0.824949	-0.136840	0.518553	-1.000000	-1.000000	-1.000000	-1.000000	-1.000000	-1.000000	-1.000000	37.655172	0.000000	-1.000000	-1.000000	502928.000000	1774294543.500347
-17776.845000	-23919.615000	-22730.040000	-34396.155000	-44231.085000	-58373.775000	-38022.975000	-12348.900000	-5.346977	0.195937	1.152263	1.165584	1.591914	0.976521	-0.091987	-4.811307	-3.311420	3.097780	-3.876040	0.824949	-0.136840	0.518553	-1.000000	-1.000000	-1.000000	-1.000000	-1.000000	-1.000000	-1.000000	37.655172	0.000000	-1.000000	-1.000000	502929.000000	1774294543.502972
-17769.780000	-23907.330000	-22711.140000	-34385.220000	-44225.280000	-58370.805000	-38020.410000	-12346.425000	-4.273377	-2.146593	-4.657846	-2.588707	-1.959667	-2.295441	-1.719815	-3.904544	-3.311420	3.097780	-3.876040	0.824949	-0.136840	0.518553	-1.000000	-1.000000	-1.000000	-1.000000	-1.000000	-1.000000	-1.000000	37.655172	0.000000	-1.000000	-1.000000	502930.000000	1774294543.502982
-17771.670000	-23902.875000	-22699.305000	-34374.195000	-44216.370000	-58363.335000	-38017.440000	-12346.830000	-2.610609	-4.304893	-9.434348	-5.047377	-4.601672	-4.722362	-3.237487	-2.518939	-4.516960	3.891300	-3.631880	0.824278	-0.134948	0.519652	-1.000000	-1.000000	-1.000000	-1.000000	-1.000000	-1.000000	-1.000000	37.655172	0.000000	-1.000000	-1.000000	502931.000000	1774294543.506796
-17777.835000	-23903.910000	-22695.345000	-34370.190000	-44212.050000	-58358.295000	-38019.690000	-12357.000000	-0.287315	-4.228016	-9.140709	-4.001019	-4.365575	-4.533654	-3.537320	-1.262888	-4.516960	3.891300	-3.631880	0.824278	-0.134948	0.519652	-1.000000	-1.000000	-1.000000	-1.000000	-1.000000	-1.000000	-1.000000	37.655172	0.000000	-1.000000	-1.000000	502932.000000	1774294543.506805
-17773.515000	-23894.685000	-22686.165000	-34361.370000	-44202.870000	-58347.945000	-38017.350000	-12358.575000	2.354640	-1.437375	-3.752743	-0.138062	-1.445391	-1.795506	-2.105649	-0.070694	-4.516960	3.891300	-3.631880	0.824278	-0.134948	0.519652	-1.000000	-1.000000	-1.000000	-1.000000	-1.000000	-1.000000	-1.000000	37.655172	0.000000	-1.000000	-1.000000	502933.000000	1774294543.514910
-17775.045000	-23902.335000	-22696.020000	-34370.955000	-44211.780000	-58354.245000	-38020.950000	-12356.820000	4.831198	2.708305	3.228584	3.946250	2.257419	1.891403	0.549366	1.615769	-4.516960	3.891300	-3.631880	0.824278	-0.134948	0.519652	-1.000000	-1.000000	-1.000000	-1.000000	-1.000000	-1.000000	-1.000000	37.655172	0.000000	-1.000000	-1.000000	502934.000000	1774294543.514923
-17777.385000	-23911.110000	-22704.300000	-34378.740000	-44219.475000	-58361.265000	-38024.505000	-12352.365000	6.322280	5.614175	7.476322	5.462428	4.216964	4.158059	2.901105	3.554832	-4.516960	3.891300	-3.631880	0.824278	-0.134948	0.519652	-1.000000	-1.000000	-1.000000	-1.000000	-1.000000	-1.000000	-1.000000	37.655172	0.000000	-1.000000	-1.000000	502935.000000	1774294543.514935
-17775.090000	-23905.665000	-22699.395000	-34374.645000	-44215.020000	-58358.340000	-38020.095000	-12343.455000	5.942796	5.448830	7.079831	3.569858	3.299924	3.698109	3.535481	4.469903	-4.516960	3.891300	-3.631880	0.824278	-0.134948	0.519652	-1.000000	-1.000000	-1.000000	-1.000000	-1.000000	-1.000000	-1.000000	37.655172	0.000000	-1.000000	-1.000000	502936.000000	1774294543.514941
-17779.680000	-23906.205000	-22699.665000	-34376.850000	-44217.990000	-58363.020000	-38018.475000	-12339.405000	3.581588	2.946913	4.049973	0.259047	0.847477	1.536242	2.533794	3.702728	-4.516960	3.891300	-3.631880	0.824278	-0.134948	0.519652	-1.000000	-1.000000	-1.000000	-1.000000	-1.000000	-1.000000	-1.000000	37.655172	0.000000	-1.000000	-1.000000	502937.000000	1774294543.650240
-17792.865000	-23912.505000	-22706.955000	-34386.120000	-44226.315000	-58373.280000	-38018.970000	-12354.390000	-0.321810	-0.113158	1.300350	-2.098923	-1.266529	-0.582501	1.005504	1.721728	-4.516960	3.891300	-3.631880	0.824278	-0.134948	0.519652	-1.000000	-1.000000	-1.000000	-1.000000	-1.000000	-1.000000	-1.000000	37.655172	0.000000	-1.000000	-1.000000	502938.000000	1774294543.650254
-17795.385000	-23913.810000	-22705.650000	-34383.780000	-44223.480000	-58369.545000	-38017.080000	-12362.490000	-4.948200	-3.031885	-0.791648	-3.168210	-2.548295	-2.043299	-0.336957	-1.071212	-4.516960	3.891300	-3.631880	0.824278	-0.134948	0.519652	-1.000000	-1.000000	-1.000000	-1.000000	-1.000000	-1.000000	-1.000000	37.655172	0.000000	-1.000000	-1.000000	502939.000000	1774294543.650269
-17773.830000	-23897.925000	-22694.085000	-34372.125000	-44212.995000	-58357.215000	-38013.390000	-12346.920000	-8.033396	-5.167895	-2.995111	-3.514324	-3.059466	-2.715896	-1.287410	-3.862012	-4.516960	3.891300	-3.631880	0.824278	-0.134948	0.519652	-1.000000	-1.000000	-1.000000	-1.000000	-1.000000	-1.000000	-1.000000	37.655172	0.000000	-1.000000	-1.000000	502940.000000	1774294543.650275
-17769.555000	-23896.395000	-22692.780000	-34371.180000	-44212.815000	-58355.145000	-38014.245000	-12344.580000	-6.726158	-5.029867	-4.664547	-2.959443	-2.496904	-2.229402	-1.587788	-4.529204	-3.540320	4.883200	-3.036740	0.826719	-0.136718	0.519347	-1.000000	-1.000000	-1.000000	-1.000000	-1.000000	-1.000000	-1.000000	37.655172	0.000000	-1.000000	-1.000000	502941.000000	1774294543.650281
-17770.185000	-23903.415000	-22694.805000	-34372.890000	-44214.615000	-58356.495000	-38019.015000	-12347.370000	-1.094621	-2.336486	-4.657993	-1.351776	-0.953958	-0.791301	-1.206117	-1.954509	-3.540320	4.883200	-3.036740	0.826719	-0.136718	0.519347	-1.000000	-1.000000	-1.000000	-1.000000	-1.000000	-1.000000	-1.000000	37.655172	0.000000	-1.000000	-1.000000	502942.000000	1774294543.650286
-17775.045000	-23905.440000	-22694.490000	-34371.270000	-44212.095000	-58352.490000	-38018.295000	-12346.965000	5.129104	1.116867	-2.838176	0.777752	0.914225	0.794768	-0.571226	1.931618	-3.540320	4.883200	-3.036740	0.826719	-0.136718	0.519347	-1.000000	-1.000000	-1.000000	-1.000000	-1.000000	-1.000000	-1.000000	37.655172	0.000000	-1.000000	-1.000000	502943.000000	1774294543.650292
-17781.975000	-23913.585000	-22701.105000	-34376.580000	-44216.640000	-58357.215000	-38019.870000	-12348.540000	7.902385	3.368749	0.014958	2.702540	2.528970	1.990032	-0.092110	3.980125	-3.540320	4.883200	-3.036740	0.826719	-0.136718	0.519347	-1.000000	-1.000000	-1.000000	-1.000000	-1.000000	-1.000000	-1.000000	37.655172	0.000000	-1.000000	-1.000000	502944.000000	1774294543.650297
-17777.655000	-23909.490000	-22703.490000	-34381.665000	-44221.500000	-58364.415000	-38021.580000	-12348.315000	5.940373	3.588250	2.555948	3.572998	3.222860	2.358463	0.028749	2.678964	-3.540320	4.883200	-3.036740	0.826719	-0.136718	0.519347	-1.000000	-1.000000	-1.000000	-1.000000	-1.000000	-1.000000	-1.000000	37.655172	0.000000	-1.000000	-1.000000	502945.000000	1774294543.650303
-17768.025000	-23897.790000	-22698.630000	-34379.595000	-44220.240000	-58366.215000	-38018.250000	-12347.460000	1.317904	2.378370	3.782715	2.932546	2.543402	1.628336	-0.171648	-0.733158	-3.540320	4.883200	-3.036740	0.826719	-0.136718	0.519347	-1.000000	-1.000000	-1.000000	-1.000000	-1.000000	-1.000000	-1.000000	37.655172	0.000000	-1.000000	-1.000000	502946.000000	1774294543.650307
-17764.515000	-23898.105000	-22701.600000	-34383.600000	-44224.380000	-58372.470000	-38020.005000	-12348.630000	-2.459383	1.145937	3.622549	1.321294	0.945285	0.238943	-0.356265	-3.377743	-3.540320	4.883200	-3.036740	0.826719	-0.136718	0.519347	-1.000000	-1.000000	-1.000000	-1.000000	-1.000000	-1.000000	-1.000000	37.655172	0.000000	-1.000000	-1.000000	502947.000000	1774294543.650313
-17764.290000	-23892.885000	-22691.790000	-34372.530000	-44213.265000	-58360.545000	-38013.615000	-12343.005000	-3.578292	0.452051	2.308874	-0.420468	-0.724259	-1.092811	-0.252345	-3.316885	-3.540320	4.883200	-3.036740	0.826719	-0.136718	0.519347	-1.000000	-1.000000	-1.000000	-1.000000	-1.000000	-1.000000	-1.000000	37.655172	0.000000	-1.000000	-1.000000	502948.000000	1774294543.650318
-17770.005000	-23900.130000	-22693.545000	-34374.690000	-44215.425000	-58360.095000	-38016.000000	-12346.020000	-3.060107	-0.358513	0.196614	-1.784758	-1.891717	-1.887541	0.143742	-1.096273	-3.540320	4.883200	-3.036740	0.826719	-0.136718	0.519347	-1.000000	-1.000000	-1.000000	-1.000000	-1.000000	-1.000000	-1.000000	37.655172	0.000000	-1.000000	-1.000000	502949.000000	1774294543.650323
-17768.430000	-23905.440000	-22695.480000	-34377.705000	-44219.115000	-58360.230000	-38021.310000	-12350.565000	-2.685811	-1.881860	-2.021756	-2.563483	-2.386232	-1.970045	0.583269	1.249027	-3.540320	4.883200	-3.036740	0.826719	-0.136718	0.519347	-1.000000	-1.000000	-1.000000	-1.000000	-1.000000	-1.000000	-1.000000	37.655172	0.000000	-1.000000	-1.000000	502950.000000	1774294543.650328
-17766.315000	-23901.930000	-22692.510000	-34371.630000	-44213.580000	-58353.705000	-38019.645000	-12348.810000	-2.631811	-3.434735	-3.393475	-2.556365	-2.181688	-1.337971	0.759950	2.242082	-2.212700	4.883200	-3.052000	0.828123	-0.138427	0.518309	-1.000000	-1.000000	-1.000000	-1.000000	-1.000000	-1.000000	-1.000000	37.655172	0.000000	-1.000000	-1.000000	502951.000000	1774294543.650334
-17766.630000	-23904.180000	-22700.160000	-34373.025000	-44212.770000	-58353.030000	-38019.420000	-12347.640000	-1.845421	-3.480400	-3.160155	-1.457861	-1.100366	-0.017512	0.686141	1.803388	-2.212700	4.883200	-3.052000	0.828123	-0.138427	0.518309	-1.000000	-1.000000	-1.000000	-1.000000	-1.000000	-1.000000	-1.000000	37.655172	0.000000	-1.000000	-1.000000	502952.000000	1774294543.650338
-17772.345000	-23901.570000	-22696.425000	-34368.255000	-44207.595000	-58350.465000	-38014.380000	-12346.425000	-0.003669	-1.459568	-1.438623	0.577129	0.775442	1.667674	0.607392	0.634285	-2.212700	4.883200	-3.052000	0.828123	-0.138427	0.518309	-1.000000	-1.000000	-1.000000	-1.000000	-1.000000	-1.000000	-1.000000	37.655172	0.000000	-1.000000	-1.000000	502953.000000	1774294543.650344
-17782.830000	-23900.535000	-22694.580000	-34371.180000	-44211.555000	-58357.755000	-38015.775000	-12354.300000	1.670805	1.415797	0.919895	2.666826	2.690377	2.968659	0.629807	-0.615749	-2.212700	4.883200	-3.052000	0.828123	-0.138427	0.518309	-1.000000	-1.000000	-1.000000	-1.000000	-1.000000	-1.000000	-1.000000	37.655172	0.000000	-1.000000	-1.000000	502954.000000	1774294543.650348
-17784.720000	-23905.755000	-22702.230000	-34380.945000	-44222.220000	-58368.870000	-38021.445000	-12361.680000	1.684504	3.150191	2.733014	3.539080	3.398126	2.959812	0.460967	-1.627929	-2.212700	4.883200	-3.052000	0.828123	-0.138427	0.518309	-1.000000	-1.000000	-1.000000	-1.000000	-1.000000	-1.000000	-1.000000	37.655172	0.000000	-1.000000	-1.000000	502955.000000	1774294543.650354
-17766.720000	-23901.795000	-22697.640000	-34376.445000	-44217.495000	-58363.155000	-38019.690000	-12350.745000	0.377041	2.636338	2.880559	2.324626	2.048238	1.223238	-0.290253	-2.013083	-2.212700	4.883200	-3.052000	0.828123	-0.138427	0.518309	-1.000000	-1.000000	-1.000000	-1.000000	-1.000000	-1.000000	-1.000000	37.655172	0.000000	-1.000000	-1.000000	502956.000000	1774294543.650359
-17756.415000	-23889.870000	-22684.005000	-34361.640000	-44202.915000	-58348.665000	-38013.615000	-12336.930000	-0.145209	0.715403	1.403794	-0.310933	-0.617527	-1.333199	-1.333239	-1.092306	-2.212700	4.883200	-3.052000	0.828123	-0.138427	0.518309	-1.000000	-1.000000	-1.000000	-1.000000	-1.000000	-1.000000	-1.000000	37.655172	0.000000	-1.000000	-1.000000	502957.000000	1774294543.650365
-17774.280000	-23887.215000	-22676.490000	-34352.280000	-44194.275000	-58339.530000	-38010.150000	-12339.765000	1.068893	-0.613708	-0.211782	-2.281243	-2.477555	-2.855746	-1.677901	1.223462	-2.212700	4.883200	-3.052000	0.828123	-0.138427	0.518309	-1.000000	-1.000000	-1.000000	-1.000000	-1.000000	-1.000000	-1.000000	37.655172	0.000000	-1.000000	-1.000000	502958.000000	1774294543.650370
-17778.330000	-23883.570000	-22666.410000	-34344.990000	-44185.905000	-58329.765000	-38010.375000	-12358.485000	2.333457	-0.202916	-0.495013	-1.985960	-1.977318	-2.148076	-0.699354	3.410077	-2.212700	4.883200	-3.052000	0.828123	-0.138427	0.518309	-1.000000	-1.000000	-1.000000	-1.000000	-1.000000	-1.000000	-1.000000	37.655172	0.000000	-1.000000	-1.000000	502959.000000	1774294543.650375
-17770.500000	-23894.640000	-22675.905000	-34361.055000	-44199.945000	-58342.095000	-38021.175000	-12376.710000	1.950795	1.130351	0.487216	-0.133840	0.118470	-0.015356	0.855725	3.049857	-2.212700	4.883200	-3.052000	0.828123	-0.138427	0.518309	-1.000000	-1.000000	-1.000000	-1.000000	-1.000000	-1.000000	-1.000000	37.655172	0.000000	-1.000000	-1.000000	502960.000000	1774294543.650380
-17764.290000	-23895.315000	-22681.845000	-34367.265000	-44206.290000	-58349.115000	-38024.280000	-12371.220000	0.584583	1.585540	1.225266	0.878019	1.319208	1.272592	1.387849	-0.473944	-2.426340	3.784480	-2.487380	0.831419	-0.137451	0.519164	-1.000000	-1.000000	-1.000000	-1.000000	-1.000000	-1.000000	-1.000000	37.655172	0.000000	-1.000000	-1.000000	502961.000000	1774294543.650386
-17773.470000	-23901.525000	-22695.390000	-34371.540000	-44211.150000	-58354.560000	-38020.320000	-12354.885000	-0.242298	0.278244	0.268218	-0.286801	0.133506	0.383777	0.311213	-4.341122	-2.426340	3.784480	-2.487380	0.831419	-0.137451	0.519164	-1.000000	-1.000000	-1.000000	-1.000000	-1.000000	-1.000000	-1.000000	37.655172	0.000000	-1.000000	-1.000000	502962.000000	1774294543.650390
-17765.820000	-23900.670000	-22706.505000	-34378.650000	-44222.580000	-58369.185000	-38017.395000	-12334.545000	-0.175118	-2.098727	-2.482145	-2.557022	-2.454615	-1.790394	-1.177101	-4.490675	-2.426340	3.784480	-2.487380	0.831419	-0.137451	0.519164	-1.000000	-1.000000	-1.000000	-1.000000	-1.000000	-1.000000	-1.000000	37.655172	0.000000	-1.000000	-1.000000	502963.000000	1774294543.650396
-17774.865000	-23913.450000	-22720.455000	-34389.045000	-44232.120000	-58377.330000	-38019.330000	-12345.165000	0.075927	-4.100080	-5.626401	-3.987048	-4.396299	-3.493710	-1.548185	0.021681	-2.426340	3.784480	-2.487380	0.831419	-0.137451	0.519164	-1.000000	-1.000000	-1.000000	-1.000000	-1.000000	-1.000000	-1.000000	37.655172	0.000000	-1.000000	-1.000000	502964.000000	1774294543.650401
-17785.935000	-23919.795000	-22720.185000	-34394.895000	-44237.205000	-58383.000000	-38023.515000	-12355.110000	-0.758306	-4.864959	-7.303343	-3.837237	-4.626242	-3.887697	-0.691107	5.199052	-2.426340	3.784480	-2.487380	0.831419	-0.137451	0.519164	-1.000000	-1.000000	-1.000000	-1.000000	-1.000000	-1.000000	-1.000000	37.655172	0.000000	-1.000000	-1.000000	502965.000000	1774294543.650407
-17791.605000	-23917.905000	-22712.760000	-34387.155000	-44229.465000	-58374.450000	-38023.155000	-12364.065000	-3.206095	-4.368606	-6.295175	-2.621153	-3.330131	-3.129100	0.257265	5.950913	-2.426340	3.784480	-2.487380	0.831419	-0.137451	0.519164	-1.000000	-1.000000	-1.000000	-1.000000	-1.000000	-1.000000	-1.000000	37.655172	0.000000	-1.000000	-1.000000	502966.000000	1774294543.650411
-17781.840000	-23907.240000	-22700.205000	-34373.520000	-44215.065000	-58358.295000	-38020.635000	-12366.540000	-5.290756	-2.402262	-2.339643	-0.567547	-0.734812	-1.189555	0.561052	1.597163	-2.426340	3.784480	-2.487380	0.831419	-0.137451	0.519164	-1.000000	-1.000000	-1.000000	-1.000000	-1.000000	-1.000000	-1.000000	37.655172	0.000000	-1.000000	-1.000000	502967.000000	1774294543.650417
-17779.860000	-23909.625000	-22700.880000	-34374.825000	-44216.820000	-58359.600000	-38027.115000	-12358.710000	-4.219645	1.217463	3.499412	2.477408	2.965159	2.056935	0.493255	-3.645940	-2.426340	3.784480	-2.487380	0.831419	-0.137451	0.519164	-1.000000	-1.000000	-1.000000	-1.000000	-1.000000	-1.000000	-1.000000	37.655172	0.000000	-1.000000	-1.000000	502968.000000	1774294543.650422
-17760.285000	-23910.885000	-22709.745000	-34385.805000	-44228.385000	-58369.500000	-38023.605000	-12315.015000	0.215921	5.405583	8.755763	5.701164	6.503916	5.541786	0.587008	-4.658318	-2.426340	3.784480	-2.487380	0.831419	-0.137451	0.519164	-1.000000	-1.000000	-1.000000	-1.000000	-1.000000	-1.000000	-1.000000	37.655172	0.000000	-1.000000	-1.000000	502969.000000	1774294543.650428
-17765.730000	-23910.705000	-22712.445000	-34388.505000	-44231.580000	-58374.630000	-38021.940000	-12324.555000	5.526359	8.114913	10.896051	7.325892	7.898125	7.290247	1.050803	-0.152018	-2.426340	3.784480	-2.487380	0.831419	-0.137451	0.519164	-1.000000	-1.000000	-1.000000	-1.000000	-1.000000	-1.000000	-1.000000	37.655172	0.000000	-1.000000	-1.000000	502970.000000	1774294543.650432
-17786.430000	-23916.780000	-22716.225000	-34391.655000	-44234.325000	-58382.415000	-38027.565000	-12356.595000	8.345494	7.791796	9.085095	6.213067	6.267118	6.196778	1.443002	4.970460	-3.540320	4.242280	-2.029580	0.835325	-0.135803	0.517943	-1.000000	-1.000000	-1.000000	-1.000000	-1.000000	-1.000000	-1.000000	37.655172	0.000000	-1.000000	-1.000000	502971.000000	1774294543.650438
-17785.935000	-23916.330000	-22715.865000	-34392.150000	-44235.405000	-58383.540000	-38029.815000	-12356.280000	6.429769	4.439690	4.648538	3.009766	2.742078	3.042130	0.994637	4.416821	-3.540320	4.242280	-2.029580	0.835325	-0.135803	0.517943	-1.000000	-1.000000	-1.000000	-1.000000	-1.000000	-1.000000	-1.000000	37.655172	0.000000	-1.000000	-1.000000	502972.000000	1774294543.650443
-17783.055000	-23914.170000	-22711.230000	-34386.165000	-44228.925000	-58374.495000	-38027.565000	-12352.815000	0.903246	-0.141222	-0.066418	-0.392729	-0.582620	-0.194130	-0.268387	-1.749462	-3.540320	4.242280	-2.029580	0.835325	-0.135803	0.517943	-1.000000	-1.000000	-1.000000	-1.000000	-1.000000	-1.000000	-1.000000	37.655172	0.000000	-1.000000	-1.000000	502973.000000	1774294543.650449
-17778.555000	-23909.265000	-22705.965000	-34379.640000	-44222.715000	-58366.890000	-38023.200000	-12348.045000	-4.293355	-3.563832	-3.390445	-2.438879	-2.368496	-1.982025	-1.331610	-7.611033	-3.540320	4.242280	-2.029580	0.835325	-0.135803	0.517943	-1.000000	-1.000000	-1.000000	-1.000000	-1.000000	-1.000000	-1.000000	37.655172	0.000000	-1.000000	-1.000000	502974.000000	1774294543.650453
-17774.370000	-23904.405000	-22698.945000	-34370.640000	-44213.940000	-58358.025000	-38019.150000	-12339.315000	-5.896548	-4.661087	-5.056271	-2.961695	-2.750524	-2.323218	-1.310480	-8.135246	-3.540320	4.242280	-2.029580	0.835325	-0.135803	0.517943	-1.000000	-1.000000	-1.000000	-1.000000	-1.000000	-1.000000	-1.000000	37.655172	0.000000	-1.000000	-1.000000	502975.000000	1774294543.650459
-17771.310000	-23899.230000	-22688.820000	-34358.265000	-44201.205000	-58346.280000	-38015.640000	-12337.065000	-3.713204	-3.858315	-5.431098	-2.665125	-2.544749	-2.172618	-0.230802	-2.955604	-3.540320	4.242280	-2.029580	0.835325	-0.135803	0.517943	-1.000000	-1.000000	-1.000000	-1.000000	-1.000000	-1.000000	-1.000000	37.655172	0.000000	-1.000000	-1.000000	502976.000000	1774294543.650464
-17778.510000	-23898.600000	-22686.390000	-34356.240000	-44199.765000	-58345.425000	-38020.365000	-12355.650000	-0.293090	-2.156422	-4.552691	-1.878878	-1.999731	-1.954128	1.154151	3.777247	-3.540320	4.242280	-2.029580	0.835325	-0.135803	0.517943	-1.000000	-1.000000	-1.000000	-1.000000	-1.000000	-1.000000	-1.000000	37.655172	0.000000	-1.000000	-1.000000	502977.000000	1774294543.650470
-17809.155000	-23918.895000	-22703.940000	-34375.455000	-44216.730000	-58361.130000	-38031.930000	-12389.895000	0.965432	-0.664160	-2.600055	-0.803185	-1.123266	-1.554565	1.662183	6.006243	-3.540320	4.242280	-2.029580	0.835325	-0.135803	0.517943	-1.000000	-1.000000	-1.000000	-1.000000	-1.000000	-1.000000	-1.000000	37.655172	0.000000	-1.000000	-1.000000	502978.000000	1774294543.650474
-17810.235000	-23923.530000	-22711.815000	-34384.680000	-44225.505000	-58371.255000	-38030.040000	-12377.565000	-1.203660	-0.516470	-0.751801	-0.452957	-0.730710	-1.381291	0.467422	1.642942	-3.540320	4.242280	-2.029580	0.835325	-0.135803	0.517943	-1.000000	-1.000000	-1.000000	-1.000000	-1.000000	-1.000000	-1.000000	37.655172	0.000000	-1.000000	-1.000000	502979.000000	1774294543.650480
-17797.770000	-23923.395000	-22719.645000	-34395.255000	-44236.530000	-58383.720000	-38024.910000	-12354.480000	-3.928255	-1.613821	-0.141548	-1.588539	-1.563967	-1.894362	-1.581747	-3.936125	-3.540320	4.242280	-2.029580	0.835325	-0.135803	0.517943	-1.000000	-1.000000	-1.000000	-1.000000	-1.000000	-1.000000	-1.000000	37.655172	0.000000	-1.000000	-1.000000	502980.000000	1774294543.650484
-17785.215000	-23909.580000	-22709.925000	-34387.830000	-44230.185000	-58378.995000	-38026.935000	-12356.325000	-3.135132	-2.164301	-0.413579	-3.255301	-2.912665	-2.629528	-2.608602	-4.074925	-4.639040	3.631880	-1.113980	0.836057	-0.135437	0.515685	-1.000000	-1.000000	-1.000000	-1.000000	-1.000000	-1.000000	-1.000000	37.655172	0.000000	-1.000000	-1.000000	502981.000000	1774294543.650490
-17786.520000	-23909.805000	-22706.055000	-34382.970000	-44226.090000	-58374.180000	-38030.130000	-12362.535000	1.610396	-0.688089	-0.318418	-3.593117	-3.219453	-2.608671	-1.958591	1.223273	-4.639040	3.631880	-1.113980	0.836057	-0.135437	0.515685	-1.000000	-1.000000	-1.000000	-1.000000	-1.000000	-1.000000	-1.000000	37.655172	0.000000	-1.000000	-1.000000	502982.000000	1774294543.650494
-17772.165000	-23909.985000	-22708.620000	-34384.815000	-44226.540000	-58370.670000	-38028.420000	-12344.220000	6.999186	2.068944	0.546793	-1.911635	-1.836381	-1.408531	-0.566557	6.895556	-4.639040	3.631880	-1.113980	0.836057	-0.135437	0.515685	-1.000000	-1.000000	-1.000000	-1.000000	-1.000000	-1.000000	-1.000000	37.655172	0.000000	-1.000000	-1.000000	502983.000000	1774294543.650500
-17761.770000	-23897.835000	-22694.760000	-34369.785000	-44211.600000	-58355.370000	-38023.245000	-12337.155000	9.638742	4.044003	1.436102	0.721217	0.436612	0.508103	0.564846	9.117109	-4.639040	3.631880	-1.113980	0.836057	-0.135437	0.515685	-1.000000	-1.000000	-1.000000	-1.000000	-1.000000	-1.000000	-1.000000	37.655172	0.000000	-1.000000	-1.000000	502984.000000	1774294543.650505
-17768.340000	-23902.515000	-22695.975000	-34370.595000	-44211.465000	-58353.795000	-38019.960000	-12340.170000	8.164686	4.068383	1.755445	2.915699	2.484070	2.403378	1.277377	7.266381	-4.639040	3.631880	-1.113980	0.836057	-0.135437	0.515685	-1.000000	-1.000000	-1.000000	-1.000000	-1.000000	-1.000000	-1.000000	37.655172	0.000000	-1.000000	-1.000000	502985.000000	1774294543.650510
-17783.415000	-23914.755000	-22710.240000	-34385.445000	-44226.855000	-58368.195000	-38026.080000	-12351.420000	3.042266	2.281419	1.477548	3.896480	3.577496	3.597880	1.810232	2.561609	-4.639040	3.631880	-1.113980	0.836057	-0.135437	0.515685	-1.000000	-1.000000	-1.000000	-1.000000	-1.000000	-1.000000	-1.000000	37.655172	0.000000	-1.000000	-1.000000	502986.000000	1774294543.650515
-17786.745000	-23912.775000	-22708.575000	-34383.870000	-44225.730000	-58371.525000	-38025.945000	-12354.525000	-3.487271	-0.286429	0.893511	3.594767	3.479967	3.617911	2.084487	-2.841706	-4.639040	3.631880	-1.113980	0.836057	-0.135437	0.515685	-1.000000	-1.000000	-1.000000	-1.000000	-1.000000	-1.000000	-1.000000	37.655172	0.000000	-1.000000	-1.000000	502987.000000	1774294543.650520
-17781.615000	-23909.040000	-22708.800000	-34384.770000	-44227.620000	-58376.205000	-38023.335000	-12351.645000	-8.142038	-2.024648	0.689880	2.758700	2.739691	2.723663	1.781303	-6.812757	-4.639040	3.631880	-1.113980	0.836057	-0.135437	0.515685	-1.000000	-1.000000	-1.000000	-1.000000	-1.000000	-1.000000	-1.000000	37.655172	0.000000	-1.000000	-1.000000	502988.000000	1774294543.650525
-17790.480000	-23917.905000	-22717.395000	-34393.095000	-44235.540000	-58383.315000	-38029.140000	-12366.000000	-9.159764	-2.209125	1.062188	1.992977	1.954010	1.543006	0.743267	-8.622024	-4.639040	3.631880	-1.113980	0.836057	-0.135437	0.515685	-1.000000	-1.000000	-1.000000	-1.000000	-1.000000	-1.000000	-1.000000	37.655172	0.000000	-1.000000	-1.000000	502989.000000	1774294543.650531
-17793.180000	-23924.790000	-22724.415000	-34401.600000	-44243.505000	-58388.490000	-38035.665000	-12366.990000	-7.438146	-1.900428	0.907123	0.716249	0.707762	0.056121	-0.902360	-8.575845	-4.639040	3.631880	-1.113980	0.836057	-0.135437	0.515685	-1.000000	-1.000000	-1.000000	-1.000000	-1.000000	-1.000000	-1.000000	37.655172	0.000000	-1.000000	-1.000000	502990.000000	1774294543.650535
-17788.140000	-23918.040000	-22715.640000	-34390.845000	-44232.750000	-58374.270000	-38030.265000	-12360.735000	-4.551764	-2.128906	-0.621783	-1.581163	-1.413526	-1.830266	-2.521573	-6.563662	-3.631880	4.242280	-1.388660	0.835874	-0.135559	0.511534	-1.000000	-1.000000	-1.000000	-1.000000	-1.000000	-1.000000	-1.000000	37.655172	0.000000	-1.000000	-1.000000	502991.000000	1774294543.650541
-17790.705000	-23919.750000	-22713.300000	-34386.255000	-44228.160000	-58368.330000	-38031.300000	-12362.580000	-1.386961	-2.380822	-2.532880	-3.782489	-3.411034	-3.236741	-3.159093	-2.696404	-3.631880	4.242280	-1.388660	0.835874	-0.135559	0.511534	-1.000000	-1.000000	-1.000000	-1.000000	-1.000000	-1.000000	-1.000000	37.655172	0.000000	-1.000000	-1.000000	502992.000000	1774294543.650546
-17791.290000	-23919.840000	-22712.490000	-34384.680000	-44226.405000	-58367.205000	-38032.110000	-12362.895000	1.326074	-1.888064	-3.371132	-4.447872	-4.036525	-3.363988	-2.497049	1.626469	-3.631880	4.242280	-1.388660	0.835874	-0.135559	0.511534	-1.000000	-1.000000	-1.000000	-1.000000	-1.000000	-1.000000	-1.000000	37.655172	0.000000	-1.000000	-1.000000	502993.000000	1774294543.650551
-17789.895000	-23915.655000	-22709.700000	-34382.340000	-44223.345000	-58365.810000	-38029.050000	-12361.590000	3.303344	-0.482007	-2.610517	-3.236278	-2.991408	-2.317231	-0.981206	4.981269	-3.631880	4.242280	-1.388660	0.835874	-0.135559	0.511534	-1.000000	-1.000000	-1.000000	-1.000000	-1.000000	-1.000000	-1.000000	37.655172	0.000000	-1.000000	-1.000000	502994.000000	1774294543.650556
-17796.240000	-23920.470000	-22712.400000	-34386.345000	-44226.270000	-58370.445000	-38030.760000	-12365.730000	5.000945	1.820523	-0.270953	-0.449836	-0.437378	-0.316924	0.919368	7.013474	-3.631880	4.242280	-1.388660	0.835874	-0.135559	0.511534	-1.000000	-1.000000	-1.000000	-1.000000	-1.000000	-1.000000	-1.000000	37.655172	0.000000	-1.000000	-1.000000	502995.000000	1774294543.650561
-17800.605000	-23911.695000	-22703.805000	-34377.480000	-44216.955000	-58362.975000	-38023.785000	-12369.465000	6.291169	4.326007	2.919430	2.981297	2.873467	2.284499	2.707904	7.508970	-3.631880	4.242280	-1.388660	0.835874	-0.135559	0.511534	-1.000000	-1.000000	-1.000000	-1.000000	-1.000000	-1.000000	-1.000000	37.655172	0.000000	-1.000000	-1.000000	502996.000000	1774294543.650566
-17826.120000	-23917.140000	-22699.845000	-34371.045000	-44210.835000	-58358.565000	-38025.315000	-12400.290000	5.682446	5.612221	5.505458	5.639619	5.576787	4.666086	3.669915	5.503892	-3.631880	4.242280	-1.388660	0.835874	-0.135559	0.511534	-1.000000	-1.000000	-1.000000	-1.000000	-1.000000	-1.000000	-1.000000	37.655172	0.000000	-1.000000	-1.000000	502997.000000	1774294543.650572
-17848.170000	-23933.790000	-22704.345000	-34376.310000	-44215.515000	-58363.875000	-38039.355000	-12431.205000	1.830543	4.475223	6.160425	6.391919	6.433987	5.730627	3.162557	0.310399	-3.631880	4.242280	-1.388660	0.835874	-0.135559	0.511534	-1.000000	-1.000000	-1.000000	-1.000000	-1.000000	-1.000000	-1.000000	37.655172	0.000000	-1.000000	-1.000000	502998.000000	1774294543.650576
-17814.240000	-23924.745000	-22703.715000	-34382.655000	-44223.030000	-58370.670000	-38042.865000	-12402.720000	-3.675963	0.970978	4.212339	4.500118	4.552416	4.275663	1.033242	-6.057006	-3.631880	4.242280	-1.388660	0.835874	-0.135559	0.511534	-1.000000	-1.000000	-1.000000	-1.000000	-1.000000	-1.000000	-1.000000	37.655172	0.000000	-1.000000	-1.000000	502999.000000	1774294543.650582
-17770.770000	-23906.790000	-22702.995000	-34385.670000	-44228.160000	-58373.595000	-38029.995000	-12349.440000	-5.984502	-2.831560	0.083179	-0.014724	-0.148665	-0.105159	-1.751219	-8.428814	-3.631880	4.242280	-1.388660	0.835874	-0.135559	0.511534	-1.000000	-1.000000	-1.000000	-1.000000	-1.000000	-1.000000	-1.000000	37.655172	0.000000	-1.000000	-1.000000	503000.000000	1774294543.650586
-17765.505000	-23905.395000	-22705.380000	-34382.025000	-44224.425000	-58366.485000	-38012.175000	-12319.965000	-1.898348	-4.324456	-4.625925	-5.541363	-6.021714	-5.768711	-3.136673	-2.910538	-2.182180	3.891300	-0.869820	0.835996	-0.134887	0.507384	-1.000000	-1.000000	-1.000000	-1.000000	-1.000000	-1.000000	-1.000000	37.655172	0.000000	-1.000000	-1.000000	503001.000000	1774294543.650592
-17763.480000	-23910.885000	-22715.055000	-34384.545000	-44227.260000	-58369.680000	-38019.870000	-12325.680000	5.640215	-3.107105	-7.991966	-9.273709	-10.037691	-9.492786	-1.912650	7.740797	-2.182180	3.891300	-0.869820	0.835996	-0.134887	0.507384	-1.000000	-1.000000	-1.000000	-1.000000	-1.000000	-1.000000	-1.000000	37.655172	0.000000	-1.000000	-1.000000	503002.000000	1774294543.650597
-17770.140000	-23917.410000	-22718.115000	-34391.565000	-44235.540000	-58378.950000	-38026.575000	-12332.520000	10.344733	-1.014755	-8.652118	-9.105722	-9.870748	-8.972633	0.533885	15.355248	-2.182180	3.891300	-0.869820	0.835996	-0.134887	0.507384	-1.000000	-1.000000	-1.000000	-1.000000	-1.000000	-1.000000	-1.000000	37.655172	0.000000	-1.000000	-1.000000	503003.000000	1774294543.651437
-17781.165000	-23918.220000	-22719.195000	-34395.795000	-44238.645000	-58382.235000	-38025.450000	-12343.545000	8.427465	0.171875	-6.233052	-5.217021	-5.678331	-4.613837	1.764115	13.638649	-2.182180	3.891300	-0.869820	0.835996	-0.134887	0.507384	-1.000000	-1.000000	-1.000000	-1.000000	-1.000000	-1.000000	-1.000000	37.655172	0.000000	-1.000000	-1.000000	503004.000000	1774294543.651447
-17781.300000	-23917.050000	-22724.190000	-34397.505000	-44238.060000	-58383.765000	-38024.820000	-12347.145000	0.975641	0.038921	-1.777124	0.140268	0.221029	1.120153	0.914346	3.265443	-2.182180	3.891300	-0.869820	0.835996	-0.134887	0.507384	-1.000000	-1.000000	-1.000000	-1.000000	-1.000000	-1.000000	-1.000000	37.655172	0.000000	-1.000000	-1.000000	503005.000000	1774294543.654987
-17784.945000	-23922.990000	-22726.935000	-34400.205000	-44241.345000	-58388.130000	-38029.545000	-12351.645000	-7.197657	-0.627463	2.658018	4.388837	5.133312	5.547419	-0.975202	-9.064614	-2.182180	3.891300	-0.869820	0.835996	-0.134887	0.507384	-1.000000	-1.000000	-1.000000	-1.000000	-1.000000	-1.000000	-1.000000	37.655172	0.000000	-1.000000	-1.000000	503006.000000	1774294543.655000
-17791.155000	-23927.445000	-22720.590000	-34401.915000	-44244.540000	-58390.470000	-38036.745000	-12358.935000	-11.389064	-0.773948	5.559931	6.283101	7.498701	7.223119	-2.256451	-16.076494	-2.182180	3.891300	-0.869820	0.835996	-0.134887	0.507384	-1.000000	-1.000000	-1.000000	-1.000000	-1.000000	-1.000000	-1.000000	37.655172	0.000000	-1.000000	-1.000000	503007.000000	1774294543.659360
-17798.400000	-23931.765000	-22715.550000	-34401.555000	-44245.980000	-58388.535000	-38039.580000	-12367.440000	-11.149169	-0.403315	6.653857	6.037559	7.191693	6.289929	-2.197301	-15.977569	-2.182180	3.891300	-0.869820	0.835996	-0.134887	0.507384	-1.000000	-1.000000	-1.000000	-1.000000	-1.000000	-1.000000	-1.000000	37.655172	0.000000	-1.000000	-1.000000	503008.000000	1774294543.659372
-17796.240000	-23927.085000	-22708.215000	-34392.690000	-44238.375000	-58378.320000	-38035.260000	-12363.975000	-9.309327	-0.429517	6.224638	4.503776	5.055893	3.900595	-1.445448	-12.423111	-2.182180	3.891300	-0.869820	0.835996	-0.134887	0.507384	-1.000000	-1.000000	-1.000000	-1.000000	-1.000000	-1.000000	-1.000000	37.655172	0.000000	-1.000000	-1.000000	503009.000000	1774294543.706260
-17783.775000	-23914.800000	-22709.430000	-34380.180000	-44223.345000	-58364.865000	-38024.955000	-12352.365000	-7.012633	-0.742117	4.650540	2.698235	2.474773	1.510404	-0.718035	-8.410331	-2.182180	3.891300	-0.869820	0.835996	-0.134887	0.507384	-1.000000	-1.000000	-1.000000	-1.000000	-1.000000	-1.000000	-1.000000	37.655172	0.000000	-1.000000	-1.000000	503010.000000	1774294543.706272
-17788.050000	-23921.145000	-22729.725000	-34385.355000	-44224.605000	-58369.590000	-38027.295000	-12356.235000	-2.812173	-0.064855	2.160406	1.397069	0.754933	0.171438	0.269731	-3.313540	0.228900	4.593260	-0.122080	0.835508	-0.134460	0.507079	-1.000000	-1.000000	-1.000000	-1.000000	-1.000000	-1.000000	-1.000000	37.655172	0.000000	-1.000000	-1.000000	503011.000000	1774294543.706286
-17785.080000	-23914.530000	-22717.935000	-34384.635000	-44228.385000	-58375.845000	-38028.600000	-12356.280000	3.705594	1.928920	-0.970938	0.597674	0.127611	-0.192844	1.833170	3.811026	0.228900	4.593260	-0.122080	0.835508	-0.134460	0.507079	-1.000000	-1.000000	-1.000000	-1.000000	-1.000000	-1.000000	-1.000000	37.655172	0.000000	-1.000000	-1.000000	503012.000000	1774294543.706291
-17778.420000	-23902.695000	-22704.795000	-34377.300000	-44222.130000	-58371.165000	-38022.165000	-12350.070000	10.502598	4.138203	-3.445809	-0.141180	-0.261895	-0.484961	3.285728	11.413729	0.228900	4.593260	-0.122080	0.835508	-0.134460	0.507079	-1.000000	-1.000000	-1.000000	-1.000000	-1.000000	-1.000000	-1.000000	37.655172	0.000000	-1.000000	-1.000000	503013.000000	1774294543.706297
-17783.145000	-23906.880000	-22707.360000	-34379.640000	-44223.480000	-58372.335000	-38023.830000	-12353.760000	14.638789	5.213018	-3.711250	-1.029060	-1.145174	-1.224661	3.675144	16.503319	0.228900	4.593260	-0.122080	0.835508	-0.134460	0.507079	-1.000000	-1.000000	-1.000000	-1.000000	-1.000000	-1.000000	-1.000000	37.655172	0.000000	-1.000000	-1.000000	503014.000000	1774294543.706302
-17789.085000	-23912.820000	-22708.845000	-34381.170000	-44223.660000	-58371.345000	-38025.720000	-12357.900000	13.960118	4.261520	-2.072169	-2.060374	-2.433607	-2.128867	2.794107	16.751897	0.228900	4.593260	-0.122080	0.835508	-0.134460	0.507079	-1.000000	-1.000000	-1.000000	-1.000000	-1.000000	-1.000000	-1.000000	37.655172	0.000000	-1.000000	-1.000000	503015.000000	1774294543.706308
-17793.000000	-23915.565000	-22707.450000	-34378.965000	-44221.410000	-58366.845000	-38025.720000	-12361.005000	8.251850	1.279729	-0.428243	-3.014908	-3.441010	-2.598623	1.183274	11.652922	0.228900	4.593260	-0.122080	0.835508	-0.134460	0.507079	-1.000000	-1.000000	-1.000000	-1.000000	-1.000000	-1.000000	-1.000000	37.655172	0.000000	-1.000000	-1.000000	503016.000000	1774294543.706312
-17791.605000	-23915.880000	-22706.865000	-34376.895000	-44219.880000	-58363.470000	-38026.845000	-12361.545000	-0.478125	-2.705053	-0.215432	-3.467142	-3.526939	-2.338458	-0.574140	2.677588	0.228900	4.593260	-0.122080	0.835508	-0.134460	0.507079	-1.000000	-1.000000	-1.000000	-1.000000	-1.000000	-1.000000	-1.000000	37.655172	0.000000	-1.000000	-1.000000	503017.000000	1774294543.706318
-17792.145000	-23920.830000	-22710.240000	-34380.270000	-44224.200000	-58366.665000	-38028.960000	-12360.420000	-8.758091	-6.198425	-1.393470	-3.368299	-2.899123	-1.839071	-2.378896	-7.143177	0.228900	4.593260	-0.122080	0.835508	-0.134460	0.507079	-1.000000	-1.000000	-1.000000	-1.000000	-1.000000	-1.000000	-1.000000	37.655172	0.000000	-1.000000	-1.000000	503018.000000	1774294543.706323
-17796.735000	-23919.885000	-22709.160000	-34378.605000	-44221.995000	-58365.720000	-38027.295000	-12361.815000	-13.340288	-7.884831	-2.638280	-3.045323	-2.361915	-1.834549	-4.080390	-14.122645	0.228900	4.593260	-0.122080	0.835508	-0.134460	0.507079	-1.000000	-1.000000	-1.000000	-1.000000	-1.000000	-1.000000	-1.000000	37.655172	0.000000	-1.000000	-1.000000	503019.000000	1774294543.706328
-17790.795000	-23911.245000	-22704.390000	-34376.940000	-44219.520000	-58364.955000	-38023.290000	-12355.335000	-12.616554	-6.732937	-2.233220	-2.258058	-1.881826	-1.954018	-4.707328	-15.322989	0.228900	4.593260	-0.122080	0.835508	-0.134460	0.507079	-1.000000	-1.000000	-1.000000	-1.000000	-1.000000	-1.000000	-1.000000	37.655172	0.000000	-1.000000	-1.000000	503020.000000	1774294543.706333
-17779.770000	-23902.245000	-22699.395000	-34373.070000	-44215.470000	-58363.335000	-38016.630000	-12338.955000	-6.943341	-2.618339	0.116610	-0.433953	-0.563542	-1.038352	-3.235138	-10.023928	0.213640	5.463080	-0.137340	0.836912	-0.134338	0.509337	-1.000000	-1.000000	-1.000000	-1.000000	-1.000000	-1.000000	-1.000000	37.655172	0.000000	-1.000000	-1.000000	503021.000000	1774294543.706338
-17762.355000	-23883.840000	-22679.415000	-34352.100000	-44194.455000	-58345.065000	-38005.380000	-12324.870000	1.467728	2.940171	2.922294	2.306452	1.927316	1.261751	0.052658	-0.450831	0.213640	5.463080	-0.137340	0.836912	-0.134338	0.509337	-1.000000	-1.000000	-1.000000	-1.000000	-1.000000	-1.000000	-1.000000	37.655172	0.000000	-1.000000	-1.000000	503022.000000	1774294543.706343
-17768.835000	-23887.845000	-22680.540000	-34351.965000	-44194.995000	-58345.740000	-38011.230000	-12346.065000	9.169305	7.635343	4.784856	5.180773	4.870417	4.117606	3.597922	8.756837	0.213640	5.463080	-0.137340	0.836912	-0.134338	0.509337	-1.000000	-1.000000	-1.000000	-1.000000	-1.000000	-1.000000	-1.000000	37.655172	0.000000	-1.000000	-1.000000	503023.000000	1774294543.706348
-17794.530000	-23918.310000	-22712.130000	-34383.780000	-44226.945000	-58373.010000	-38027.745000	-12371.715000	12.391530	9.083810	4.529607	6.421543	6.253652	5.536733	5.323374	12.385086	0.213640	5.463080	-0.137340	0.836912	-0.134338	0.509337	-1.000000	-1.000000	-1.000000	-1.000000	-1.000000	-1.000000	-1.000000	37.655172	0.000000	-1.000000	-1.000000	503024.000000	1774294543.706352
-17790.075000	-23916.195000	-22712.085000	-34382.970000	-44225.955000	-58369.995000	-38027.115000	-12361.860000	8.978920	5.706279	1.033815	3.940302	3.844558	3.427669	3.856282	8.277267	0.213640	5.463080	-0.137340	0.836912	-0.134338	0.509337	-1.000000	-1.000000	-1.000000	-1.000000	-1.000000	-1.000000	-1.000000	37.655172	0.000000	-1.000000	-1.000000	503025.000000	1774294543.706358
-17785.935000	-23913.180000	-22705.470000	-34375.050000	-44218.890000	-58363.020000	-38029.770000	-12362.130000	0.938239	-0.918308	-4.312254	-1.504810	-1.544979	-1.468446	0.007064	-0.275786	0.213640	5.463080	-0.137340	0.836912	-0.134338	0.509337	-1.000000	-1.000000	-1.000000	-1.000000	-1.000000	-1.000000	-1.000000	37.655172	0.000000	-1.000000	-1.000000	503026.000000	1774294543.706363
-17783.955000	-23917.410000	-22713.345000	-34385.220000	-44228.700000	-58371.300000	-38034.000000	-12366.630000	-6.624711	-6.607188	-7.724656	-6.239331	-6.194555	-5.719359	-3.805367	-7.553111	0.213640	5.463080	-0.137340	0.836912	-0.134338	0.509337	-1.000000	-1.000000	-1.000000	-1.000000	-1.000000	-1.000000	-1.000000	37.655172	0.000000	-1.000000	-1.000000	503027.000000	1774294543.706369
-17790.885000	-23925.555000	-22727.205000	-34400.970000	-44244.990000	-58385.970000	-38035.215000	-12367.620000	-9.734582	-8.450581	-7.037447	-7.710696	-7.622683	-6.939496	-5.566624	-9.948989	0.213640	5.463080	-0.137340	0.836912	-0.134338	0.509337	-1.000000	-1.000000	-1.000000	-1.000000	-1.000000	-1.000000	-1.000000	37.655172	0.000000	-1.000000	-1.000000	503028.000000	1774294543.706374
-17792.370000	-23921.055000	-22723.245000	-34397.820000	-44241.165000	-58385.115000	-38029.230000	-12358.980000	-7.974922	-6.537134	-3.351081	-6.037467	-6.000143	-5.210904	-4.582849	-7.169818	0.213640	5.463080	-0.137340	0.836912	-0.134338	0.509337	-1.000000	-1.000000	-1.000000	-1.000000	-1.000000	-1.000000	-1.000000	37.655172	0.000000	-1.000000	-1.000000	503029.000000	1774294543.706379
-17791.245000	-23911.380000	-22713.345000	-34388.505000	-44230.815000	-58377.870000	-38025.270000	-12362.490000	-3.689196	-2.610932	1.009189	-2.367397	-2.377922	-1.665531	-1.510675	-1.544364	0.213640	5.463080	-0.137340	0.836912	-0.134338	0.509337	-1.000000	-1.000000	-1.000000	-1.000000	-1.000000	-1.000000	-1.000000	37.655172	0.000000	-1.000000	-1.000000	503030.000000	1774294543.706384
-17789.130000	-23910.975000	-22710.825000	-34385.490000	-44227.980000	-58373.820000	-38025.945000	-12364.470000	0.429867	1.472330	4.328299	1.928585	1.985360	2.314348	1.990047	3.581325	-0.259420	6.271860	1.648080	0.837095	-0.133850	0.511229	-1.000000	-1.000000	-1.000000	-1.000000	-1.000000	-1.000000	-1.000000	37.655172	0.000000	-1.000000	-1.000000	503031.000000	1774294543.706785
-17781.840000	-23908.365000	-22707.675000	-34381.215000	-44224.875000	-58368.735000	-38024.640000	-12354.705000	3.427887	4.650781	6.034124	5.565536	5.743581	5.525676	4.456229	6.593922	-0.259420	6.271860	1.648080	0.837095	-0.133850	0.511229	-1.000000	-1.000000	-1.000000	-1.000000	-1.000000	-1.000000	-1.000000	37.655172	0.000000	-1.000000	-1.000000	503032.000000	1774294543.706791
-17789.400000	-23910.345000	-22704.165000	-34375.995000	-44220.105000	-58362.435000	-38022.210000	-12351.690000	5.730027	6.802805	6.661263	8.069465	8.261416	7.570106	5.522156	8.073161	-0.259420	6.271860	1.648080	0.837095	-0.133850	0.511229	-1.000000	-1.000000	-1.000000	-1.000000	-1.000000	-1.000000	-1.000000	37.655172	0.000000	-1.000000	-1.000000	503033.000000	1774294543.710836
-17806.995000	-23920.920000	-22707.945000	-34377.840000	-44222.265000	-58364.370000	-38029.230000	-12374.550000	6.643839	7.397114	6.449718	8.947756	8.998215	8.015813	5.155251	7.737572	-0.259420	6.271860	1.648080	0.837095	-0.133850	0.511229	-1.000000	-1.000000	-1.000000	-1.000000	-1.000000	-1.000000	-1.000000	37.655172	0.000000	-1.000000	-1.000000	503034.000000	1774294543.710842
-17798.580000	-23918.310000	-22706.145000	-34375.905000	-44220.105000	-58363.290000	-38034.315000	-12377.835000	4.597316	5.278942	4.557934	7.034903	6.908359	5.862900	3.030491	3.992925	-0.259420	6.271860	1.648080	0.837095	-0.133850	0.511229	-1.000000	-1.000000	-1.000000	-1.000000	-1.000000	-1.000000	-1.000000	37.655172	0.000000	-1.000000	-1.000000	503035.000000	1774294543.716219
-17786.070000	-23914.845000	-22707.540000	-34378.875000	-44223.705000	-58367.745000	-38032.695000	-12362.355000	0.476020	0.945879	0.937477	2.388314	2.174785	1.299430	-0.447616	-2.211959	-0.259420	6.271860	1.648080	0.837095	-0.133850	0.511229	-1.000000	-1.000000	-1.000000	-1.000000	-1.000000	-1.000000	-1.000000	37.655172	0.000000	-1.000000	-1.000000	503036.000000	1774294543.716229
-17790.030000	-23917.950000	-22714.605000	-34388.145000	-44232.255000	-58376.790000	-38028.600000	-12354.255000	-2.609095	-3.211485	-2.879755	-2.955158	-3.147243	-3.654436	-3.648445	-6.831265	-0.259420	6.271860	1.648080	0.837095	-0.133850	0.511229	-1.000000	-1.000000	-1.000000	-1.000000	-1.000000	-1.000000	-1.000000	37.655172	0.000000	-1.000000	-1.000000	503037.000000	1774294543.718774
-17792.325000	-23912.460000	-22710.735000	-34385.580000	-44229.780000	-58376.160000	-38023.830000	-12354.075000	-3.141897	-5.442771	-5.569337	-6.960378	-7.056435	-7.008522	-5.024140	-7.194266	-0.259420	6.271860	1.648080	0.837095	-0.133850	0.511229	-1.000000	-1.000000	-1.000000	-1.000000	-1.000000	-1.000000	-1.000000	37.655172	0.000000	-1.000000	-1.000000	503038.000000	1774294543.718786
-17810.010000	-23922.405000	-22715.280000	-34388.325000	-44232.705000	-58380.120000	-38030.040000	-12379.230000	-2.446562	-5.805223	-6.875358	-8.809292	-8.797166	-8.089323	-4.391701	-4.576353	-0.259420	6.271860	1.648080	0.837095	-0.133850	0.511229	-1.000000	-1.000000	-1.000000	-1.000000	-1.000000	-1.000000	-1.000000	37.655172	0.000000	-1.000000	-1.000000	503039.000000	1774294543.722894
-17824.905000	-23930.595000	-22717.170000	-34389.990000	-44232.975000	-58379.850000	-38033.730000	-12397.995000	-2.571172	-5.180981	-6.841762	-8.408858	-8.315635	-7.125577	-2.699550	-2.197085	-0.259420	6.271860	1.648080	0.837095	-0.133850	0.511229	-1.000000	-1.000000	-1.000000	-1.000000	-1.000000	-1.000000	-1.000000	37.655172	0.000000	-1.000000	-1.000000	503040.000000	1774294543.722907
-17815.230000	-23926.500000	-22714.830000	-34387.245000	-44230.005000	-58374.900000	-38031.390000	-12383.415000	-3.651728	-3.829876	-5.183905	-5.803410	-5.601939	-4.412839	-0.834524	-1.562073	-1.876980	6.790700	3.280900	0.835081	-0.133361	0.512206	-1.000000	-1.000000	-1.000000	-1.000000	-1.000000	-1.000000	-1.000000	37.655172	0.000000	-1.000000	-1.000000	503041.000000	1774294543.728865
-17784.270000	-23917.365000	-22713.570000	-34386.885000	-44229.780000	-58372.290000	-38030.265000	-12349.890000	-3.111877	-1.137736	-1.783012	-1.473442	-1.123104	-0.412874	0.917439	-0.724710	-1.876980	6.790700	3.280900	0.835081	-0.133361	0.512206	-1.000000	-1.000000	-1.000000	-1.000000	-1.000000	-1.000000	-1.000000	37.655172	0.000000	-1.000000	-1.000000	503042.000000	1774294543.728875
-17761.725000	-23908.140000	-22707.765000	-34379.595000	-44222.760000	-58365.405000	-38024.775000	-12317.085000	1.541089	3.011257	2.460190	3.198801	3.614750	3.705437	2.518825	3.381925	-1.876980	6.790700	3.280900	0.835081	-0.133361	0.512206	-1.000000	-1.000000	-1.000000	-1.000000	-1.000000	-1.000000	-1.000000	37.655172	0.000000	-1.000000	-1.000000	503043.000000	1774294543.730765
-17761.860000	-23906.160000	-22707.900000	-34379.640000	-44223.075000	-58366.665000	-38021.985000	-12325.230000	8.566829	7.099557	5.937033	6.574394	6.850812	6.507999	3.820014	10.134841	-1.876980	6.790700	3.280900	0.835081	-0.133361	0.512206	-1.000000	-1.000000	-1.000000	-1.000000	-1.000000	-1.000000	-1.000000	37.655172	0.000000	-1.000000	-1.000000	503044.000000	1774294543.730776
-17785.980000	-23924.520000	-22724.595000	-34398.225000	-44242.605000	-58386.330000	-38033.640000	-12354.255000	12.161208	8.492262	7.143177	7.474294	7.414945	6.911565	4.115750	13.597858	-1.876980	6.790700	3.280900	0.835081	-0.133361	0.512206	-1.000000	-1.000000	-1.000000	-1.000000	-1.000000	-1.000000	-1.000000	37.655172	0.000000	-1.000000	-1.000000	503045.000000	1774294543.734792
-17791.380000	-23917.410000	-22718.295000	-34392.690000	-44235.720000	-58381.605000	-38027.295000	-12362.805000	8.059398	5.569174	5.397588	5.524867	5.085093	4.628154	2.483861	8.207873	-1.876980	6.790700	3.280900	0.835081	-0.133361	0.512206	-1.000000	-1.000000	-1.000000	-1.000000	-1.000000	-1.000000	-1.000000	37.655172	0.000000	-1.000000	-1.000000	503046.000000	1774294543.734801
-17791.425000	-23911.695000	-22713.390000	-34388.550000	-44231.310000	-58379.040000	-38025.090000	-12364.920000	-1.752227	-0.215316	1.678487	1.783808	1.145016	0.840708	-0.647037	-4.133936	-1.876980	6.790700	3.280900	0.835081	-0.133361	0.512206	-1.000000	-1.000000	-1.000000	-1.000000	-1.000000	-1.000000	-1.000000	37.655172	0.000000	-1.000000	-1.000000	503047.000000	1774294543.739724
-17785.980000	-23907.915000	-22707.990000	-34382.340000	-44225.595000	-58373.820000	-38022.975000	-12357.495000	-10.600275	-5.137161	-1.786930	-1.647365	-2.186964	-2.342347	-3.292562	-14.849275	-1.876980	6.790700	3.280900	0.835081	-0.133361	0.512206	-1.000000	-1.000000	-1.000000	-1.000000	-1.000000	-1.000000	-1.000000	37.655172	0.000000	-1.000000	-1.000000	503048.000000	1774294543.739732
-17787.420000	-23906.790000	-22698.720000	-34375.320000	-44218.395000	-58364.370000	-38018.835000	-12354.705000	-12.923490	-6.347261	-3.138533	-3.073395	-3.321297	-3.404121	-3.734122	-16.511348	-1.876980	6.790700	3.280900	0.835081	-0.133361	0.512206	-1.000000	-1.000000	-1.000000	-1.000000	-1.000000	-1.000000	-1.000000	37.655172	0.000000	-1.000000	-1.000000	503049.000000	1774294543.745070
-17797.905000	-23914.620000	-22697.820000	-34376.850000	-44220.465000	-58363.020000	-38021.985000	-12359.790000	-8.731858	-4.114703	-2.108353	-2.306769	-2.261396	-2.309780	-2.025605	-9.336083	-1.876980	6.790700	3.280900	0.835081	-0.133361	0.512206	-1.000000	-1.000000	-1.000000	-1.000000	-1.000000	-1.000000	-1.000000	37.655172	0.000000	-1.000000	-1.000000	503050.000000	1774294543.745092
-17807.715000	-23922.270000	-22703.265000	-34378.875000	-44221.320000	-58363.065000	-38025.855000	-12368.790000	-2.829448	-1.227319	-0.214844	-0.754001	-0.508863	-0.461408	0.182963	-0.114315	-1.709120	5.783540	2.273740	0.832151	-0.132141	0.511840	-1.000000	-1.000000	-1.000000	-1.000000	-1.000000	-1.000000	-1.000000	37.655172	0.000000	-1.000000	-1.000000	503051.000000	1774294543.747842
-17803.665000	-23918.805000	-22706.415000	-34376.715000	-44219.250000	-58365.900000	-38035.350000	-12381.210000	0.373568	-0.087211	0.496116	-0.075402	0.290408	0.446051	1.094164	4.583047	-1.709120	5.783540	2.273740	0.832151	-0.132141	0.511840	-1.000000	-1.000000	-1.000000	-1.000000	-1.000000	-1.000000	-1.000000	37.655172	0.000000	-1.000000	-1.000000	503052.000000	1774294543.747852
-17791.155000	-23914.485000	-22710.645000	-34372.260000	-44215.830000	-58365.495000	-38036.790000	-12374.505000	0.973634	-0.453617	-0.551397	-0.433820	-0.024528	0.018928	0.210696	3.875151	-1.709120	5.783540	2.273740	0.832151	-0.132141	0.511840	-1.000000	-1.000000	-1.000000	-1.000000	-1.000000	-1.000000	-1.000000	37.655172	0.000000	-1.000000	-1.000000	503053.000000	1774294543.755286
-17770.230000	-23894.910000	-22697.505000	-34365.690000	-44209.890000	-58356.540000	-38017.305000	-12344.985000	2.445928	-0.113189	-1.840744	-0.476639	-0.165605	-0.456358	-1.051530	2.331536	-1.709120	5.783540	2.273740	0.832151	-0.132141	0.511840	-1.000000	-1.000000	-1.000000	-1.000000	-1.000000	-1.000000	-1.000000	37.655172	0.000000	-1.000000	-1.000000	503054.000000	1774294543.755300
-17777.655000	-23894.955000	-22697.775000	-34371.135000	-44216.010000	-58362.840000	-38017.035000	-12352.680000	6.582747	2.128313	-1.662353	0.454454	0.488686	0.089716	-0.776200	4.186466	-1.709120	5.783540	2.273740	0.832151	-0.132141	0.511840	-1.000000	-1.000000	-1.000000	-1.000000	-1.000000	-1.000000	-1.000000	37.655172	0.000000	-1.000000	-1.000000	503055.000000	1774294543.755313
-17797.770000	-23909.940000	-22706.685000	-34378.470000	-44224.245000	-58372.380000	-38029.095000	-12379.635000	10.397935	4.432229	-0.380944	1.030464	0.695602	0.720457	0.873572	7.923248	-1.709120	5.783540	2.273740	0.832151	-0.132141	0.511840	-1.000000	-1.000000	-1.000000	-1.000000	-1.000000	-1.000000	-1.000000	37.655172	0.000000	-1.000000	-1.000000	503056.000000	1774294543.755318
-17794.710000	-23919.705000	-22716.810000	-34389.270000	-44233.740000	-58380.660000	-38039.895000	-12386.295000	9.551721	3.926365	0.143220	-0.277174	-0.859390	-0.194371	1.787325	8.469690	-1.709120	5.783540	2.273740	0.832151	-0.132141	0.511840	-1.000000	-1.000000	-1.000000	-1.000000	-1.000000	-1.000000	-1.000000	37.655172	0.000000	-1.000000	-1.000000	503057.000000	1774294543.758735
-17794.440000	-23931.585000	-22728.420000	-34403.805000	-44246.925000	-58389.570000	-38042.730000	-12375.540000	3.713416	0.127385	-1.140353	-3.289546	-3.771670	-2.776112	0.647352	3.883158	-1.709120	5.783540	2.273740	0.832151	-0.132141	0.511840	-1.000000	-1.000000	-1.000000	-1.000000	-1.000000	-1.000000	-1.000000	37.655172	0.000000	-1.000000	-1.000000	503058.000000	1774294543.758745
-17798.670000	-23933.700000	-22725.000000	-34403.670000	-44245.665000	-58385.160000	-38035.620000	-12364.065000	-3.491018	-4.527836	-3.248075	-6.117285	-6.119535	-5.286586	-1.469210	-2.624423	-1.709120	5.783540	2.273740	0.832151	-0.132141	0.511840	-1.000000	-1.000000	-1.000000	-1.000000	-1.000000	-1.000000	-1.000000	37.655172	0.000000	-1.000000	-1.000000	503059.000000	1774294543.762744
-17805.555000	-23929.560000	-22718.160000	-34395.570000	-44237.250000	-58376.520000	-38028.420000	-12354.615000	-8.429691	-6.781739	-3.767936	-6.264309	-5.669353	-5.288633	-2.173813	-6.461230	-1.709120	5.783540	2.273740	0.832151	-0.132141	0.511840	-1.000000	-1.000000	-1.000000	-1.000000	-1.000000	-1.000000	-1.000000	37.655172	0.000000	-1.000000	-1.000000	503060.000000	1774294543.762762
-17810.280000	-23927.535000	-22720.770000	-34391.340000	-44234.325000	-58374.360000	-38028.060000	-12358.620000	-9.798443	-5.065237	-1.173331	-2.565068	-1.650199	-1.676735	-0.267325	-5.727396	-1.846460	5.691980	0.503580	0.830137	-0.133056	0.511229	-1.000000	-1.000000	-1.000000	-1.000000	-1.000000	-1.000000	-1.000000	37.655172	0.000000	-1.000000	-1.000000	503061.000000	1774294543.766791
-17790.030000	-23915.025000	-22715.370000	-34382.475000	-44228.430000	-58372.605000	-38025.765000	-12355.380000	-7.915753	-0.430041	3.439168	3.575113	4.280269	4.002511	2.907171	-2.223801	-1.846460	5.691980	0.503580	0.830137	-0.133056	0.511229	-1.000000	-1.000000	-1.000000	-1.000000	-1.000000	-1.000000	-1.000000	37.655172	0.000000	-1.000000	-1.000000	503062.000000	1774294543.766802
-17775.810000	-23905.890000	-22708.035000	-34378.695000	-44225.415000	-58372.920000	-38023.920000	-12360.555000	-3.343127	4.543327	7.293780	9.090099	9.108767	8.486884	4.614878	0.564927	-1.846460	5.691980	0.503580	0.830137	-0.133056	0.511229	-1.000000	-1.000000	-1.000000	-1.000000	-1.000000	-1.000000	-1.000000	37.655172	0.000000	-1.000000	-1.000000	503063.000000	1774294543.772686
-17785.755000	-23909.895000	-22709.430000	-34382.430000	-44228.205000	-58376.745000	-38027.745000	-12372.120000	2.738650	7.397490	8.149886	11.146690	10.396473	9.208304	3.311975	0.734095	-1.846460	5.691980	0.503580	0.830137	-0.133056	0.511229	-1.000000	-1.000000	-1.000000	-1.000000	-1.000000	-1.000000	-1.000000	37.655172	0.000000	-1.000000	-1.000000	503064.000000	1774294543.772698
-17788.005000	-23912.145000	-22710.510000	-34382.655000	-44227.800000	-58375.035000	-38028.105000	-12366.900000	7.855051	7.099372	5.710616	8.745934	7.663092	6.083305	0.090139	-0.519265	-1.846460	5.691980	0.503580	0.830137	-0.133056	0.511229	-1.000000	-1.000000	-1.000000	-1.000000	-1.000000	-1.000000	-1.000000	37.655172	0.000000	-1.000000	-1.000000	503065.000000	1774294543.775729
-17776.170000	-23893.830000	-22690.350000	-34362.045000	-44207.640000	-58353.885000	-38014.470000	-12353.715000	9.601405	4.614129	1.756435	3.590868	2.797272	1.464870	-2.430289	-0.769007	-1.846460	5.691980	0.503580	0.830137	-0.133056	0.511229	-1.000000	-1.000000	-1.000000	-1.000000	-1.000000	-1.000000	-1.000000	37.655172	0.000000	-1.000000	-1.000000	503066.000000	1774294543.775740
-17776.620000	-23888.655000	-22681.800000	-34351.245000	-44197.380000	-58342.410000	-38013.255000	-12358.080000	7.489820	2.041317	-1.104926	-0.926808	-1.111756	-1.638065	-2.511250	0.531229	-1.846460	5.691980	0.503580	0.830137	-0.133056	0.511229	-1.000000	-1.000000	-1.000000	-1.000000	-1.000000	-1.000000	-1.000000	37.655172	0.000000	-1.000000	-1.000000	503067.000000	1774294543.778718
-17790.390000	-23905.440000	-22695.525000	-34363.440000	-44208.945000	-58350.105000	-38018.970000	-12360.330000	2.744358	0.220530	-2.059486	-3.040093	-2.726877	-2.324749	-0.916803	1.538863	-1.846460	5.691980	0.503580	0.830137	-0.133056	0.511229	-1.000000	-1.000000	-1.000000	-1.000000	-1.000000	-1.000000	-1.000000	37.655172	0.000000	-1.000000	-1.000000	503068.000000	1774294543.778726
-17786.160000	-23913.630000	-22706.415000	-34378.605000	-44223.480000	-58364.010000	-38014.380000	-12339.765000	-2.757863	-2.134228	-2.894586	-4.324066	-3.796710	-2.597841	0.195252	0.972630	-1.846460	5.691980	0.503580	0.830137	-0.133056	0.511229	-1.000000	-1.000000	-1.000000	-1.000000	-1.000000	-1.000000	-1.000000	37.655172	0.000000	-1.000000	-1.000000	503069.000000	1774294543.897842
-17775.000000	-23906.070000	-22704.975000	-34382.790000	-44227.845000	-58370.085000	-38015.010000	-12340.080000	-6.773881	-5.693453	-4.944325	-6.757847	-6.189774	-4.430020	-0.127550	-0.040304	-1.846460	5.691980	0.503580	0.830137	-0.133056	0.511229	-1.000000	-1.000000	-1.000000	-1.000000	-1.000000	-1.000000	-1.000000	37.655172	0.000000	-1.000000	-1.000000	503070.000000	1774294543.897855
-17778.690000	-23901.705000	-22705.335000	-34384.140000	-44228.745000	-58374.315000	-38018.475000	-12353.490000	-7.909782	-8.744936	-7.064671	-9.592989	-8.991974	-7.136974	-1.338247	-0.461077	0.488320	3.158820	-1.953280	0.828367	-0.135498	0.510985	-1.000000	-1.000000	-1.000000	-1.000000	-1.000000	-1.000000	-1.000000	37.655172	0.000000	-1.000000	-1.000000	503071.000000	1774294543.897870
-17772.570000	-23898.555000	-22703.535000	-34377.480000	-44219.745000	-58366.710000	-38014.740000	-12347.865000	-6.554398	-9.074758	-7.365054	-10.149168	-9.487003	-8.189288	-2.546837	-0.750570	0.488320	3.158820	-1.953280	0.828367	-0.135498	0.510985	-1.000000	-1.000000	-1.000000	-1.000000	-1.000000	-1.000000	-1.000000	37.655172	0.000000	-1.000000	-1.000000	503072.000000	1774294543.897875
-17775.180000	-23906.115000	-22707.495000	-34377.120000	-44218.980000	-58366.440000	-38017.620000	-12347.145000	-3.443014	-5.950056	-5.030458	-6.528020	-5.878174	-5.631201	-2.748824	-0.775634	0.488320	3.158820	-1.953280	0.828367	-0.135498	0.510985	-1.000000	-1.000000	-1.000000	-1.000000	-1.000000	-1.000000	-1.000000	37.655172	0.000000	-1.000000	-1.000000	503073.000000	1774294543.897888
-17782.875000	-23910.390000	-22706.820000	-34378.830000	-44222.895000	-58370.490000	-38023.245000	-12356.055000	0.550763	-0.682892	-0.778786	0.314407	0.697703	-0.170967	-1.540522	-0.126764	0.488320	3.158820	-1.953280	0.828367	-0.135498	0.510985	-1.000000	-1.000000	-1.000000	-1.000000	-1.000000	-1.000000	-1.000000	37.655172	0.000000	-1.000000	-1.000000	503074.000000	1774294543.897893
-17784.045000	-23913.585000	-22706.370000	-34378.695000	-44222.040000	-58367.565000	-38024.730000	-12357.270000	3.492223	3.981385	3.385260	6.784746	6.570127	4.946988	0.125449	0.175732	0.488320	3.158820	-1.953280	0.828367	-0.135498	0.510985	-1.000000	-1.000000	-1.000000	-1.000000	-1.000000	-1.000000	-1.000000	37.655172	0.000000	-1.000000	-1.000000	503075.000000	1774294543.897899
-17787.555000	-23919.345000	-22712.445000	-34383.330000	-44226.630000	-58368.195000	-38025.495000	-12357.225000	4.037855	5.973965	5.547597	9.544196	8.642017	6.919028	1.124094	-0.696161	0.488320	3.158820	-1.953280	0.828367	-0.135498	0.510985	-1.000000	-1.000000	-1.000000	-1.000000	-1.000000	-1.000000	-1.000000	37.655172	0.000000	-1.000000	-1.000000	503076.000000	1774294543.897904
-17782.920000	-23909.040000	-22702.770000	-34372.485000	-44216.280000	-58358.700000	-38020.095000	-12353.400000	3.005803	5.635407	5.550571	8.293350	6.994689	5.849706	1.470356	-1.915142	0.488320	3.158820	-1.953280	0.828367	-0.135498	0.510985	-1.000000	-1.000000	-1.000000	-1.000000	-1.000000	-1.000000	-1.000000	37.655172	0.000000	-1.000000	-1.000000	503077.000000	1774294543.897910
-17785.260000	-23908.005000	-22701.600000	-34372.440000	-44216.235000	-58361.445000	-38021.265000	-12357.630000	1.866733	4.726321	4.815254	5.392275	4.172802	3.919042	1.749490	-2.419730	0.488320	3.158820	-1.953280	0.828367	-0.135498	0.510985	-1.000000	-1.000000	-1.000000	-1.000000	-1.000000	-1.000000	-1.000000	37.655172	0.000000	-1.000000	-1.000000	503078.000000	1774294543.897914
-17786.295000	-23908.230000	-22704.480000	-34376.265000	-44219.205000	-58365.045000	-38020.365000	-12356.505000	0.848486	3.854146	4.142761	2.812241	2.116411	2.604131	2.055099	-1.884449	0.488320	3.158820	-1.953280	0.828367	-0.135498	0.510985	-1.000000	-1.000000	-1.000000	-1.000000	-1.000000	-1.000000	-1.000000	37.655172	0.000000	-1.000000	-1.000000	503079.000000	1774294543.897920
-17780.265000	-23905.485000	-22704.525000	-34377.390000	-44220.915000	-58368.420000	-38021.580000	-12352.230000	-0.391294	2.192021	2.818615	0.548401	0.612805	1.515858	2.011937	-0.167852	0.488320	3.158820	-1.953280	0.828367	-0.135498	0.510985	-1.000000	-1.000000	-1.000000	-1.000000	-1.000000	-1.000000	-1.000000	37.655172	0.000000	-1.000000	-1.000000	503080.000000	1774294543.897925
-17783.865000	-23908.050000	-22706.235000	-34379.415000	-44222.670000	-58370.085000	-38023.335000	-12356.235000	-1.387720	-0.412415	0.329314	-1.925327	-1.244492	-0.216610	1.359705	2.437339	1.175020	1.754900	-3.921820	0.826231	-0.136902	0.511290	-1.000000	-1.000000	-1.000000	-1.000000	-1.000000	-1.000000	-1.000000	37.655172	0.000000	-1.000000	-1.000000	503081.000000	1774294543.897930
-17790.210000	-23911.965000	-22710.195000	-34384.140000	-44227.980000	-58371.930000	-38024.055000	-12363.390000	-1.466928	-2.779399	-2.539368	-4.275153	-3.413050	-2.477049	0.310780	4.543256	1.175020	1.754900	-3.921820	0.826231	-0.136902	0.511290	-1.000000	-1.000000	-1.000000	-1.000000	-1.000000	-1.000000	-1.000000	37.655172	0.000000	-1.000000	-1.000000	503082.000000	1774294543.897935
-17790.975000	-23912.325000	-22706.955000	-34381.080000	-44223.885000	-58365.405000	-38021.355000	-12359.295000	-0.750943	-3.784940	-4.563022	-5.597236	-4.928191	-4.185390	-0.562603	4.701308	1.175020	1.754900	-3.921820	0.826231	-0.136902	0.511290	-1.000000	-1.000000	-1.000000	-1.000000	-1.000000	-1.000000	-1.000000	37.655172	0.000000	-1.000000	-1.000000	503083.000000	1774294543.897941
-17790.750000	-23910.165000	-22700.295000	-34371.990000	-44214.075000	-58355.415000	-38018.655000	-12362.490000	0.201855	-3.204488	-4.861785	-5.055035	-4.676564	-4.220195	-0.817684	2.861976	1.175020	1.754900	-3.921820	0.826231	-0.136902	0.511290	-1.000000	-1.000000	-1.000000	-1.000000	-1.000000	-1.000000	-1.000000	37.655172	0.000000	-1.000000	-1.000000	503084.000000	1774294543.897946
-17779.005000	-23902.560000	-22696.920000	-34367.670000	-44211.420000	-58352.985000	-38016.405000	-12355.155000	1.186320	-1.352243	-3.101468	-2.402394	-2.250002	-2.328930	-0.482843	0.174775	1.175020	1.754900	-3.921820	0.826231	-0.136902	0.511290	-1.000000	-1.000000	-1.000000	-1.000000	-1.000000	-1.000000	-1.000000	37.655172	0.000000	-1.000000	-1.000000	503085.000000	1774294543.897952
-17777.385000	-23898.240000	-22694.220000	-34364.745000	-44208.495000	-58352.040000	-38014.020000	-12352.950000	2.211918	1.038806	-0.017625	1.351225	1.310779	0.483205	-0.013848	-2.034926	1.175020	1.754900	-3.921820	0.826231	-0.136902	0.511290	-1.000000	-1.000000	-1.000000	-1.000000	-1.000000	-1.000000	-1.000000	37.655172	0.000000	-1.000000	-1.000000	503086.000000	1774294543.897957
-17790.435000	-23903.910000	-22698.630000	-34369.470000	-44212.995000	-58359.060000	-38016.720000	-12361.590000	2.567313	2.647173	2.648163	4.227520	4.005860	2.596973	0.080548	-3.057041	1.175020	1.754900	-3.921820	0.826231	-0.136902	0.511290	-1.000000	-1.000000	-1.000000	-1.000000	-1.000000	-1.000000	-1.000000	37.655172	0.000000	-1.000000	-1.000000	503087.000000	1774294543.897962
-17783.820000	-23893.380000	-22692.330000	-34364.925000	-44207.865000	-58356.945000	-38009.205000	-12352.950000	1.247774	2.418945	3.491141	4.793049	4.479960	3.005035	-0.263732	-2.909045	1.175020	1.754900	-3.921820	0.826231	-0.136902	0.511290	-1.000000	-1.000000	-1.000000	-1.000000	-1.000000	-1.000000	-1.000000	37.655172	0.000000	-1.000000	-1.000000	503088.000000	1774294543.897967
-17787.330000	-23903.865000	-22702.410000	-34375.590000	-44218.890000	-58368.015000	-38015.190000	-12355.290000	-1.365239	0.599420	2.380902	3.023394	2.756456	1.762446	-0.664771	-1.828415	1.175020	1.754900	-3.921820	0.826231	-0.136902	0.511290	-1.000000	-1.000000	-1.000000	-1.000000	-1.000000	-1.000000	-1.000000	37.655172	0.000000	-1.000000	-1.000000	503089.000000	1774294543.897974
-17787.330000	-23911.380000	-22710.285000	-34383.645000	-44228.430000	-58377.375000	-38026.260000	-12360.735000	-3.529653	-1.728325	0.024598	-0.178894	-0.338874	-0.526191	-0.994854	-0.265881	1.175020	1.754900	-3.921820	0.826231	-0.136902	0.511290	-1.000000	-1.000000	-1.000000	-1.000000	-1.000000	-1.000000	-1.000000	37.655172	0.000000	-1.000000	-1.000000	503090.000000	1774294543.897979
-17771.445000	-23900.265000	-22701.465000	-34372.890000	-44217.810000	-58363.110000	-38018.205000	-12343.590000	-3.534568	-3.274874	-2.377786	-3.261385	-3.365157	-2.755131	-1.371100	1.254845	0.930860	2.594200	-4.013380	0.825193	-0.137085	0.512267	-1.000000	-1.000000	-1.000000	-1.000000	-1.000000	-1.000000	-1.000000	37.655172	0.000000	-1.000000	-1.000000	503091.000000	1774294543.897985
-17761.860000	-23888.115000	-22685.580000	-34354.530000	-44199.090000	-58342.365000	-38011.500000	-12341.970000	-0.820965	-2.737280	-3.209404	-4.228047	-4.337544	-3.203616	-1.344575	2.565121	0.930860	2.594200	-4.013380	0.825193	-0.137085	0.512267	-1.000000	-1.000000	-1.000000	-1.000000	-1.000000	-1.000000	-1.000000	37.655172	0.000000	-1.000000	-1.000000	503092.000000	1774294543.897990
-17769.870000	-23890.095000	-22681.890000	-34348.185000	-44192.475000	-58336.695000	-38013.300000	-12358.890000	3.023378	-0.035944	-1.612701	-2.172241	-2.266908	-1.009556	-0.416434	3.024867	0.930860	2.594200	-4.013380	0.825193	-0.137085	0.512267	-1.000000	-1.000000	-1.000000	-1.000000	-1.000000	-1.000000	-1.000000	37.655172	0.000000	-1.000000	-1.000000	503093.000000	1774294543.897996
-17788.050000	-23905.530000	-22695.390000	-34360.920000	-44205.255000	-58350.105000	-38018.070000	-12370.140000	4.644020	2.646763	1.126385	1.258974	1.287240	2.235436	0.824582	1.261630	0.930860	2.594200	-4.013380	0.825193	-0.137085	0.512267	-1.000000	-1.000000	-1.000000	-1.000000	-1.000000	-1.000000	-1.000000	37.655172	0.000000	-1.000000	-1.000000	503094.000000	1774294543.898000
-17789.670000	-23911.380000	-22706.730000	-34375.095000	-44219.115000	-58364.730000	-38019.015000	-12355.155000	2.017217	2.638083	2.371518	2.941840	3.195049	3.575452	1.285121	-2.442389	0.930860	2.594200	-4.013380	0.825193	-0.137085	0.512267	-1.000000	-1.000000	-1.000000	-1.000000	-1.000000	-1.000000	-1.000000	37.655172	0.000000	-1.000000	-1.000000	503095.000000	1774294543.898006
-17777.835000	-23905.665000	-22710.240000	-34383.150000	-44227.350000	-58374.315000	-38013.930000	-12337.155000	-2.781370	-0.137808	0.868566	1.283441	1.724665	1.622413	0.785298	-4.884310	0.930860	2.594200	-4.013380	0.825193	-0.137085	0.512267	-1.000000	-1.000000	-1.000000	-1.000000	-1.000000	-1.000000	-1.000000	37.655172	0.000000	-1.000000	-1.000000	503096.000000	1774294543.898011
-17791.605000	-23911.155000	-22712.445000	-34385.580000	-44230.545000	-58377.690000	-38020.590000	-12358.080000	-5.807612	-3.185933	-2.008678	-2.285031	-1.859846	-2.137815	-0.007078	-3.661920	0.930860	2.594200	-4.013380	0.825193	-0.137085	0.512267	-1.000000	-1.000000	-1.000000	-1.000000	-1.000000	-1.000000	-1.000000	37.655172	0.000000	-1.000000	-1.000000	503097.000000	1774294543.898017
-17806.770000	-23919.030000	-22716.000000	-34388.010000	-44232.345000	-58378.860000	-38024.685000	-12369.240000	-5.629363	-4.187178	-3.730422	-4.705413	-4.521000	-4.713054	-0.524515	-0.485419	0.930860	2.594200	-4.013380	0.825193	-0.137085	0.512267	-1.000000	-1.000000	-1.000000	-1.000000	-1.000000	-1.000000	-1.000000	37.655172	0.000000	-1.000000	-1.000000	503098.000000	1774294543.898022
-17803.080000	-23915.970000	-22709.970000	-34381.890000	-44225.685000	-58372.920000	-38025.000000	-12368.025000	-3.448787	-2.554263	-2.704145	-3.809649	-3.898727	-3.997865	-0.478081	1.569097	0.930860	2.594200	-4.013380	0.825193	-0.137085	0.512267	-1.000000	-1.000000	-1.000000	-1.000000	-1.000000	-1.000000	-1.000000	37.655172	0.000000	-1.000000	-1.000000	503099.000000	1774294543.898028
-17788.545000	-23902.425000	-22693.815000	-34366.815000	-44211.645000	-58357.485000	-38025.270000	-12376.620000	-0.522223	0.747136	0.642373	0.044402	-0.163465	-0.432222	0.003866	1.396330	0.930860	2.594200	-4.013380	0.825193	-0.137085	0.512267	-1.000000	-1.000000	-1.000000	-1.000000	-1.000000	-1.000000	-1.000000	37.655172	0.000000	-1.000000	-1.000000	503100.000000	1774294543.898032
-17790.750000	-23900.715000	-22685.355000	-34361.280000	-44205.300000	-58348.665000	-38029.905000	-12393.000000	2.548227	3.987745	4.322502	4.375844	4.174893	3.526368	0.269977	-0.391930	-0.640920	3.799740	-3.067260	0.825926	-0.135315	0.512999	-1.000000	-1.000000	-1.000000	-1.000000	-1.000000	-1.000000	-1.000000	37.655172	0.000000	-1.000000	-1.000000	503101.000000	1774294543.898038
-17801.145000	-23914.440000	-22699.710000	-34374.870000	-44218.305000	-58359.420000	-38030.535000	-12379.680000	4.984821	5.478901	6.089516	6.406916	6.249773	5.447050	-0.038013	-1.992315	-0.640920	3.799740	-3.067260	0.825926	-0.135315	0.512999	-1.000000	-1.000000	-1.000000	-1.000000	-1.000000	-1.000000	-1.000000	37.655172	0.000000	-1.000000	-1.000000	503102.000000	1774294543.898043
-17810.370000	-23934.645000	-22722.615000	-34391.340000	-44234.820000	-58378.140000	-38029.005000	-12350.430000	5.760029	4.186171	4.542839	4.831624	4.751036	4.332256	-0.420564	-0.921184	-0.640920	3.799740	-3.067260	0.825926	-0.135315	0.512999	-1.000000	-1.000000	-1.000000	-1.000000	-1.000000	-1.000000	-1.000000	37.655172	0.000000	-1.000000	-1.000000	503103.000000	1774294543.898049
-17800.785000	-23922.315000	-22720.230000	-34381.395000	-44225.145000	-58372.245000	-38017.845000	-12338.100000	4.539363	0.653407	0.238586	0.911776	0.914066	1.154338	-0.080777	3.431662	-0.640920	3.799740	-3.067260	0.825926	-0.135315	0.512999	-1.000000	-1.000000	-1.000000	-1.000000	-1.000000	-1.000000	-1.000000	37.655172	0.000000	-1.000000	-1.000000	503104.000000	1774294543.898053
-17814.420000	-23906.160000	-22705.245000	-34373.115000	-44217.405000	-58367.340000	-38014.830000	-12362.130000	1.936768	-2.617437	-3.940049	-2.216087	-2.195732	-1.588539	1.180166	7.810521	-0.640920	3.799740	-3.067260	0.825926	-0.135315	0.512999	-1.000000	-1.000000	-1.000000	-1.000000	-1.000000	-1.000000	-1.000000	37.655172	0.000000	-1.000000	-1.000000	503105.000000	1774294543.898059
-17806.770000	-23902.605000	-22701.465000	-34372.980000	-44219.520000	-58369.545000	-38022.480000	-12377.790000	-0.843639	-2.995302	-4.852448	-2.394365	-2.463352	-2.040065	2.580418	7.820044	-0.640920	3.799740	-3.067260	0.825926	-0.135315	0.512999	-1.000000	-1.000000	-1.000000	-1.000000	-1.000000	-1.000000	-1.000000	37.655172	0.000000	-1.000000	-1.000000	503106.000000	1774294543.898064
-17769.465000	-23909.355000	-22710.420000	-34382.430000	-44230.230000	-58377.870000	-38029.770000	-12349.440000	-1.726055	-0.375703	-2.169249	-0.446244	-0.713067	-0.757021	2.869191	3.108846	-0.640920	3.799740	-3.067260	0.825926	-0.135315	0.512999	-1.000000	-1.000000	-1.000000	-1.000000	-1.000000	-1.000000	-1.000000	37.655172	0.000000	-1.000000	-1.000000	503107.000000	1774294543.898070
-17768.295000	-23915.295000	-22714.605000	-34386.705000	-44233.875000	-58378.770000	-38029.545000	-12340.710000	0.519779	2.417994	1.174276	0.864297	0.397817	0.098074	1.389573	-2.228738	-0.640920	3.799740	-3.067260	0.825926	-0.135315	0.512999	-1.000000	-1.000000	-1.000000	-1.000000	-1.000000	-1.000000	-1.000000	37.655172	0.000000	-1.000000	-1.000000	503108.000000	1774294543.898075
-17785.350000	-23916.015000	-22714.200000	-34385.805000	-44232.165000	-58372.605000	-38026.080000	-12356.865000	3.288487	2.300575	1.897089	-0.441730	-0.885600	-0.962254	-1.165994	-4.726455	-0.640920	3.799740	-3.067260	0.825926	-0.135315	0.512999	-1.000000	-1.000000	-1.000000	-1.000000	-1.000000	-1.000000	-1.000000	37.655172	0.000000	-1.000000	-1.000000	503109.000000	1774294543.898081
-17791.155000	-23918.580000	-22715.595000	-34386.570000	-44232.030000	-58372.335000	-38026.485000	-12361.815000	2.547231	-0.878787	-0.408096	-3.551765	-3.637063	-3.188961	-3.150521	-4.541189	-0.640920	3.799740	-3.067260	0.825926	-0.135315	0.512999	-1.000000	-1.000000	-1.000000	-1.000000	-1.000000	-1.000000	-1.000000	37.655172	0.000000	-1.000000	-1.000000	503110.000000	1774294543.898086
-17794.755000	-23924.970000	-22722.120000	-34393.905000	-44238.780000	-58381.695000	-38032.920000	-12365.550000	-1.849817	-4.200039	-3.039043	-5.497909	-5.046849	-4.264689	-3.472166	-3.785959	-1.327620	6.042960	-1.434440	0.826658	-0.135620	0.514281	-1.000000	-1.000000	-1.000000	-1.000000	-1.000000	-1.000000	-1.000000	37.655172	0.000000	-1.000000	-1.000000	503111.000000	1774294543.898091
-17784.900000	-23917.770000	-22718.520000	-34391.520000	-44236.575000	-58381.695000	-38030.760000	-12357.855000	-6.232206	-4.631703	-2.955209	-3.999775	-3.138519	-2.574840	-2.470159	-4.114901	-1.327620	6.042960	-1.434440	0.826658	-0.135620	0.514281	-1.000000	-1.000000	-1.000000	-1.000000	-1.000000	-1.000000	-1.000000	37.655172	0.000000	-1.000000	-1.000000	503112.000000	1774294543.898096
-17786.520000	-23914.845000	-22716.405000	-34390.215000	-44234.280000	-58382.145000	-38028.195000	-12358.935000	-7.365671	-1.903103	0.206341	0.335353	1.262696	1.195174	-1.143655	-5.151576	-1.327620	6.042960	-1.434440	0.826658	-0.135620	0.514281	-1.000000	-1.000000	-1.000000	-1.000000	-1.000000	-1.000000	-1.000000	37.655172	0.000000	-1.000000	-1.000000	503113.000000	1774294543.898102
-17800.785000	-23926.680000	-22724.595000	-34398.405000	-44243.505000	-58392.090000	-38035.305000	-12370.815000	-5.027930	1.351981	3.718932	4.530409	5.181373	4.517221	-0.120956	-4.689738	-1.327620	6.042960	-1.434440	0.826658	-0.135620	0.514281	-1.000000	-1.000000	-1.000000	-1.000000	-1.000000	-1.000000	-1.000000	37.655172	0.000000	-1.000000	-1.000000	503114.000000	1774294543.898106
-17805.915000	-23931.135000	-22726.440000	-34398.945000	-44244.495000	-58393.170000	-38039.040000	-12374.865000	-1.560433	2.457754	4.622511	5.963411	6.158736	5.243908	0.591599	-1.467458	-1.327620	6.042960	-1.434440	0.826658	-0.135620	0.514281	-1.000000	-1.000000	-1.000000	-1.000000	-1.000000	-1.000000	-1.000000	37.655172	0.000000	-1.000000	-1.000000	503115.000000	1774294543.898112
-17807.715000	-23930.145000	-22723.920000	-34395.930000	-44241.480000	-58389.210000	-38039.355000	-12374.730000	0.251895	1.353244	2.684411	4.517697	4.266690	3.458575	1.271084	2.740513	-1.327620	6.042960	-1.434440	0.826658	-0.135620	0.514281	-1.000000	-1.000000	-1.000000	-1.000000	-1.000000	-1.000000	-1.000000	37.448276	0.000000	-1.000000	-1.000000	503116.000000	1774294543.898117
-17807.850000	-23925.825000	-22716.630000	-34386.840000	-44232.390000	-58376.835000	-38034.810000	-12372.345000	-0.192237	-0.077165	-0.067735	1.937535	1.374766	0.882580	1.957392	5.230683	-1.327620	6.042960	-1.434440	0.826658	-0.135620	0.514281	-1.000000	-1.000000	-1.000000	-1.000000	-1.000000	-1.000000	-1.000000	37.448276	0.000000	-1.000000	-1.000000	503117.000000	1774294543.898122
-17804.115000	-23922.810000	-22708.800000	-34380.315000	-44224.875000	-58368.285000	-38029.590000	-12368.520000	-0.648576	-0.325266	-1.707555	-0.118052	-0.813575	-0.918480	2.417674	5.685899	-1.327620	6.042960	-1.434440	0.826658	-0.135620	0.514281	-1.000000	-1.000000	-1.000000	-1.000000	-1.000000	-1.000000	-1.000000	37.448276	0.000000	-1.000000	-1.000000	503118.000000	1774294543.898127
-17806.005000	-23926.590000	-22708.170000	-34383.780000	-44228.070000	-58372.785000	-38032.065000	-12370.770000	1.186628	0.750905	-1.509860	-0.967629	-1.613167	-1.363166	2.448899	5.378982	-1.327620	6.042960	-1.434440	0.826658	-0.135620	0.514281	-1.000000	-1.000000	-1.000000	-1.000000	-1.000000	-1.000000	-1.000000	37.448276	0.000000	-1.000000	-1.000000	503119.000000	1774294543.898133
-17798.895000	-23914.665000	-22700.565000	-34374.825000	-44218.530000	-58365.495000	-38024.235000	-12363.705000	4.905518	2.446206	0.196711	-0.686201	-1.121615	-0.622271	2.001199	4.497495	-1.327620	6.042960	-1.434440	0.826658	-0.135620	0.514281	-1.000000	-1.000000	-1.000000	-1.000000	-1.000000	-1.000000	-1.000000	37.448276	0.000000	-1.000000	-1.000000	503120.000000	1774294543.898138
-17802.405000	-23912.820000	-22703.400000	-34372.575000	-44216.055000	-58365.900000	-38025.180000	-12370.725000	7.833425	3.721280	2.159230	0.172030	0.042736	0.653839	1.099638	2.279522	-0.091560	6.149780	-1.403920	0.827757	-0.137268	0.516539	-1.000000	-1.000000	-1.000000	-1.000000	-1.000000	-1.000000	-1.000000	37.448276	0.000000	-1.000000	-1.000000	503121.000000	1774294543.898144
-17800.515000	-23916.915000	-22711.590000	-34378.740000	-44225.190000	-58377.195000	-38030.760000	-12373.245000	7.672902	3.358280	2.522603	0.556708	0.688158	1.255039	-0.330449	-1.096675	-0.091560	6.149780	-1.403920	0.827757	-0.137268	0.516539	-1.000000	-1.000000	-1.000000	-1.000000	-1.000000	-1.000000	-1.000000	37.448276	0.000000	-1.000000	-1.000000	503122.000000	1774294543.898148
-17790.165000	-23913.990000	-22711.590000	-34383.780000	-44230.455000	-58380.615000	-38028.420000	-12359.520000	4.710170	1.068330	0.428718	-0.385819	-0.188292	0.203894	-1.992374	-3.664109	-0.091560	6.149780	-1.403920	0.827757	-0.137268	0.516539	-1.000000	-1.000000	-1.000000	-1.000000	-1.000000	-1.000000	-1.000000	37.448276	0.000000	-1.000000	-1.000000	503123.000000	1774294543.898154
-17791.515000	-23914.890000	-22715.415000	-34389.855000	-44234.910000	-58383.270000	-38029.635000	-12361.590000	0.886655	-1.790699	-2.822313	-2.383200	-2.254009	-2.046855	-2.910883	-3.567674	-0.091560	6.149780	-1.403920	0.827757	-0.137268	0.516539	-1.000000	-1.000000	-1.000000	-1.000000	-1.000000	-1.000000	-1.000000	37.448276	0.000000	-1.000000	-1.000000	503124.000000	1774294543.898158
-17788.365000	-23909.265000	-22706.370000	-34378.515000	-44223.030000	-58368.780000	-38027.070000	-12363.705000	-2.536236	-3.615281	-5.043402	-4.206973	-4.060532	-3.949547	-2.506924	-1.587600	-0.091560	6.149780	-1.403920	0.827757	-0.137268	0.516539	-1.000000	-1.000000	-1.000000	-1.000000	-1.000000	-1.000000	-1.000000	37.448276	0.000000	-1.000000	-1.000000	503125.000000	1774294543.898165
-17792.955000	-23915.655000	-22706.415000	-34377.030000	-44221.590000	-58365.630000	-38030.040000	-12370.410000	-5.047238	-3.968930	-5.012237	-4.578468	-4.279500	-4.234148	-1.358815	-0.052723	-0.091560	6.149780	-1.403920	0.827757	-0.137268	0.516539	-1.000000	-1.000000	-1.000000	-1.000000	-1.000000	-1.000000	-1.000000	37.448276	0.000000	-1.000000	-1.000000	503126.000000	1774294543.898169
-17795.430000	-23920.605000	-22710.060000	-34380.270000	-44225.595000	-58370.670000	-38032.425000	-12367.845000	-6.207470	-3.427251	-3.089828	-3.154392	-2.764895	-2.872325	-0.486357	-0.089580	-0.091560	6.149780	-1.403920	0.827757	-0.137268	0.516539	-1.000000	-1.000000	-1.000000	-1.000000	-1.000000	-1.000000	-1.000000	37.448276	0.000000	-1.000000	-1.000000	503127.000000	1774294543.899232
-17785.080000	-23905.395000	-22696.515000	-34367.625000	-44213.175000	-58360.320000	-38023.245000	-12357.090000	-5.687400	-2.356956	-0.333377	-0.480010	-0.247528	-0.591463	-0.170270	-0.974457	-0.091560	6.149780	-1.403920	0.827757	-0.137268	0.516539	-1.000000	-1.000000	-1.000000	-1.000000	-1.000000	-1.000000	-1.000000	37.448276	0.000000	-1.000000	-1.000000	503128.000000	1774294543.899241
-17793.180000	-23904.045000	-22695.390000	-34369.065000	-44214.165000	-58363.740000	-38027.160000	-12376.800000	-3.631316	-0.595860	2.509361	2.567033	2.448493	1.921661	0.061119	-1.671080	-0.091560	6.149780	-1.403920	0.827757	-0.137268	0.516539	-1.000000	-1.000000	-1.000000	-1.000000	-1.000000	-1.000000	-1.000000	37.448276	0.000000	-1.000000	-1.000000	503129.000000	1774294543.902779
-17817.705000	-23928.255000	-22719.330000	-34396.920000	-44242.515000	-58392.855000	-38040.345000	-12393.630000	-1.371565	1.080771	4.337111	4.317965	3.904047	3.406940	0.236036	-2.270376	-0.091560	6.149780	-1.403920	0.827757	-0.137268	0.516539	-1.000000	-1.000000	-1.000000	-1.000000	-1.000000	-1.000000	-1.000000	37.448276	0.000000	-1.000000	-1.000000	503130.000000	1774294543.902789
-17824.410000	-23940.945000	-22732.695000	-34408.035000	-44253.225000	-58403.025000	-38043.765000	-12384.900000	-0.601624	1.025320	3.621440	3.067840	2.654683	2.452740	-0.058576	-2.850543	-1.464960	4.852680	-2.609460	0.825865	-0.137512	0.522521	-1.000000	-1.000000	-1.000000	-1.000000	-1.000000	-1.000000	-1.000000	37.448276	0.000000	-1.000000	-1.000000	503131.000000	1774294543.911564
-17803.485000	-23928.300000	-22726.980000	-34397.505000	-44241.075000	-58388.985000	-38031.345000	-12357.990000	-1.055752	-0.693287	0.531775	-0.319476	-0.386635	-0.171219	-0.405797	-2.068160	-1.464960	4.852680	-2.609460	0.825865	-0.137512	0.522521	-1.000000	-1.000000	-1.000000	-1.000000	-1.000000	-1.000000	-1.000000	37.448276	0.000000	-1.000000	-1.000000	503132.000000	1774294543.911574
-17803.620000	-23925.555000	-22720.815000	-34386.570000	-44230.680000	-58377.330000	-38029.140000	-12366.180000	-0.586580	-1.760492	-2.410563	-2.548680	-2.156023	-1.665250	0.238000	1.093539	-1.464960	4.852680	-2.609460	0.825865	-0.137512	0.522521	-1.000000	-1.000000	-1.000000	-1.000000	-1.000000	-1.000000	-1.000000	37.448276	0.000000	-1.000000	-1.000000	503133.000000	1774294543.911586
-17810.235000	-23922.450000	-22709.700000	-34376.310000	-44222.580000	-58370.175000	-38034.000000	-12385.080000	1.761307	-0.512724	-2.839148	-1.540857	-0.967361	-0.567578	1.797919	4.857360	-1.464960	4.852680	-2.609460	0.825865	-0.137512	0.522521	-1.000000	-1.000000	-1.000000	-1.000000	-1.000000	-1.000000	-1.000000	37.448276	0.000000	-1.000000	-1.000000	503134.000000	1774294543.911590
-17808.570000	-23917.545000	-22703.130000	-34370.595000	-44216.730000	-58364.640000	-38036.925000	-12387.780000	4.557952	2.437409	-0.538405	1.712836	1.982092	1.893741	2.835769	6.036131	-1.464960	4.852680	-2.609460	0.825865	-0.137512	0.522521	-1.000000	-1.000000	-1.000000	-1.000000	-1.000000	-1.000000	-1.000000	37.448276	0.000000	-1.000000	-1.000000	503135.000000	1774294543.914981
-17797.860000	-23917.365000	-22710.420000	-34379.730000	-44225.325000	-58373.775000	-38037.870000	-12374.415000	6.101505	5.256148	2.724317	4.572014	4.280425	3.623187	2.268874	3.761725	-1.464960	4.852680	-2.609460	0.825865	-0.137512	0.522521	-1.000000	-1.000000	-1.000000	-1.000000	-1.000000	-1.000000	-1.000000	37.448276	0.000000	-1.000000	-1.000000	503136.000000	1774294543.914992
-17779.320000	-23907.285000	-22707.270000	-34378.965000	-44223.885000	-58373.505000	-38025.900000	-12345.030000	6.001578	6.062795	4.360688	4.641668	3.984395	3.168354	0.468530	0.505032	-1.464960	4.852680	-2.609460	0.825865	-0.137512	0.522521	-1.000000	-1.000000	-1.000000	-1.000000	-1.000000	-1.000000	-1.000000	37.448276	0.000000	-1.000000	-1.000000	503137.000000	1774294543.920282
-17795.970000	-23912.415000	-22710.420000	-34382.970000	-44228.025000	-58379.670000	-38027.835000	-12362.445000	4.691802	4.156912	3.153709	1.633353	1.048429	0.671638	-1.128601	-0.652768	-1.464960	4.852680	-2.609460	0.825865	-0.137512	0.522521	-1.000000	-1.000000	-1.000000	-1.000000	-1.000000	-1.000000	-1.000000	37.448276	0.000000	-1.000000	-1.000000	503138.000000	1774294543.920293
-17803.890000	-23922.765000	-22721.805000	-34395.480000	-44240.265000	-58391.370000	-38031.480000	-12365.595000	2.419846	0.712831	0.430380	-2.142379	-2.308988	-1.935267	-1.346854	0.487818	-1.464960	4.852680	-2.609460	0.825865	-0.137512	0.522521	-1.000000	-1.000000	-1.000000	-1.000000	-1.000000	-1.000000	-1.000000	37.448276	0.000000	-1.000000	-1.000000	503139.000000	1774294543.923059
-17808.840000	-23932.260000	-22727.835000	-34400.295000	-44244.495000	-58393.890000	-38034.135000	-12361.005000	-0.879362	-2.592476	-1.828623	-4.247554	-3.916254	-2.950249	-0.478375	1.279589	-1.464960	4.852680	-2.609460	0.825865	-0.137512	0.522521	-1.000000	-1.000000	-1.000000	-1.000000	-1.000000	-1.000000	-1.000000	37.448276	0.000000	-1.000000	-1.000000	503140.000000	1774294543.923070
-17802.090000	-23926.860000	-22721.670000	-34394.220000	-44238.555000	-58386.330000	-38032.650000	-12358.800000	-4.844808	-4.966385	-2.882251	-4.228898	-3.609488	-2.522781	0.107346	-0.381857	-3.708180	6.561800	-2.456860	0.827940	-0.136230	0.527403	-1.000000	-1.000000	-1.000000	-1.000000	-1.000000	-1.000000	-1.000000	37.448276	0.000000	-1.000000	-1.000000	503141.000000	1774294544.021522
-17782.740000	-23908.140000	-22704.210000	-34376.355000	-44223.255000	-58369.230000	-38025.630000	-12347.955000	-7.665047	-5.744473	-2.725856	-2.796149	-2.276426	-1.554599	-0.276900	-3.454817	-3.708180	6.561800	-2.456860	0.827940	-0.136230	0.527403	-1.000000	-1.000000	-1.000000	-1.000000	-1.000000	-1.000000	-1.000000	37.448276	0.000000	-1.000000	-1.000000	503142.000000	1774294544.021536
-17775.180000	-23899.995000	-22693.770000	-34364.520000	-44210.565000	-58356.990000	-38018.520000	-12338.505000	-6.820879	-3.993683	-1.380325	-0.509533	-0.400961	-0.291861	-0.775696	-4.632073	-3.708180	6.561800	-2.456860	0.827940	-0.136230	0.527403	-1.000000	-1.000000	-1.000000	-1.000000	-1.000000	-1.000000	-1.000000	37.448276	0.000000	-1.000000	-1.000000	503143.000000	1774294544.021550
-17783.595000	-23906.970000	-22699.890000	-34371.855000	-44218.260000	-58364.550000	-38020.950000	-12347.730000	-2.339856	-0.242736	0.580134	1.957452	1.640273	1.193048	-0.357764	-2.458458	-3.708180	6.561800	-2.456860	0.827940	-0.136230	0.527403	-1.000000	-1.000000	-1.000000	-1.000000	-1.000000	-1.000000	-1.000000	37.448276	0.000000	-1.000000	-1.000000	503144.000000	1774294544.021556
-17798.625000	-23914.620000	-22704.255000	-34382.340000	-44228.340000	-58374.495000	-38027.340000	-12367.215000	2.008364	2.858356	1.820688	3.274262	2.770426	2.056932	0.484156	0.182350	-3.708180	6.561800	-2.456860	0.827940	-0.136230	0.527403	-1.000000	-1.000000	-1.000000	-1.000000	-1.000000	-1.000000	-1.000000	37.448276	0.000000	-1.000000	-1.000000	503145.000000	1774294544.021562
-17797.185000	-23909.985000	-22702.455000	-34382.610000	-44226.945000	-58373.865000	-38023.425000	-12361.995000	2.578545	2.996885	1.388325	2.401725	2.010433	1.421148	0.384282	-0.270875	-3.708180	6.561800	-2.456860	0.827940	-0.136230	0.527403	-1.000000	-1.000000	-1.000000	-1.000000	-1.000000	-1.000000	-1.000000	37.448276	0.000000	-1.000000	-1.000000	503146.000000	1774294544.021567
-17798.985000	-23911.065000	-22709.385000	-34385.310000	-44228.655000	-58377.915000	-38023.515000	-12361.590000	0.155794	0.843691	-0.139393	0.142284	0.106382	-0.102466	-0.716545	-2.840685	-3.708180	6.561800	-2.456860	0.827940	-0.136230	0.527403	-1.000000	-1.000000	-1.000000	-1.000000	-1.000000	-1.000000	-1.000000	37.448276	0.000000	-1.000000	-1.000000	503147.000000	1774294544.021573
-17794.935000	-23911.740000	-22713.165000	-34379.685000	-44224.155000	-58374.180000	-38022.975000	-12359.160000	-1.485804	-0.866513	-1.246165	-1.288473	-0.903823	-0.830355	-1.452020	-3.657593	-3.708180	6.561800	-2.456860	0.827940	-0.136230	0.527403	-1.000000	-1.000000	-1.000000	-1.000000	-1.000000	-1.000000	-1.000000	37.448276	0.000000	-1.000000	-1.000000	503148.000000	1774294544.021578
-17786.745000	-23904.765000	-22703.130000	-34367.445000	-44213.715000	-58362.840000	-38018.025000	-12352.770000	-0.335896	-0.502677	-1.004301	-0.519939	0.028232	0.015021	-0.942837	-1.333852	-3.708180	6.561800	-2.456860	0.827940	-0.136230	0.527403	-1.000000	-1.000000	-1.000000	-1.000000	-1.000000	-1.000000	-1.000000	37.448276	0.000000	-1.000000	-1.000000	503149.000000	1774294544.021584
-17790.255000	-23906.115000	-22697.280000	-34364.880000	-44210.250000	-58358.790000	-38019.690000	-12357.180000	2.256844	1.074353	0.237988	1.522211	1.810142	1.433136	0.334518	2.300892	-3.708180	6.561800	-2.456860	0.827940	-0.136230	0.527403	-1.000000	-1.000000	-1.000000	-1.000000	-1.000000	-1.000000	-1.000000	37.448276	0.000000	-1.000000	-1.000000	503150.000000	1774294544.021588
-17810.055000	-23917.770000	-22702.815000	-34369.335000	-44213.130000	-58360.050000	-38023.920000	-12368.115000	3.284954	1.530886	1.007498	2.285770	2.171856	1.513705	1.142295	4.629031	-4.639040	5.447820	-0.839300	0.829222	-0.137817	0.527220	-1.000000	-1.000000	-1.000000	-1.000000	-1.000000	-1.000000	-1.000000	37.448276	0.000000	-1.000000	-1.000000	503151.000000	1774294544.021594
-17811.405000	-23918.940000	-22704.480000	-34370.955000	-44214.120000	-58361.175000	-38025.315000	-12361.230000	1.022696	-0.488164	0.007474	0.155883	-0.091040	-0.629459	0.645087	4.266363	-4.639040	5.447820	-0.839300	0.829222	-0.137817	0.527220	-1.000000	-1.000000	-1.000000	-1.000000	-1.000000	-1.000000	-1.000000	37.448276	0.000000	-1.000000	-1.000000	503152.000000	1774294544.021599
-17788.050000	-23897.970000	-22691.790000	-34359.795000	-44203.995000	-58351.995000	-38015.730000	-12348.270000	-2.475815	-3.206567	-1.897482	-3.269646	-3.348522	-3.365104	-0.535338	2.370201	-4.639040	5.447820	-0.839300	0.829222	-0.137817	0.527220	-1.000000	-1.000000	-1.000000	-1.000000	-1.000000	-1.000000	-1.000000	37.448276	0.000000	-1.000000	-1.000000	503153.000000	1774294544.021604
-17769.510000	-23885.955000	-22683.555000	-34351.740000	-44195.940000	-58347.720000	-38008.080000	-12348.045000	-2.976732	-3.237920	-2.260167	-4.516248	-4.427972	-3.881642	-0.832924	1.268615	-4.639040	5.447820	-0.839300	0.829222	-0.137817	0.527220	-1.000000	-1.000000	-1.000000	-1.000000	-1.000000	-1.000000	-1.000000	37.448276	0.000000	-1.000000	-1.000000	503154.000000	1774294544.021609
-17790.930000	-23901.930000	-22697.415000	-34367.490000	-44210.700000	-58363.065000	-38015.370000	-12358.980000	0.714915	0.058484	-0.260198	-2.288716	-2.263769	-1.500073	0.263913	1.399661	-4.639040	5.447820	-0.839300	0.829222	-0.137817	0.527220	-1.000000	-1.000000	-1.000000	-1.000000	-1.000000	-1.000000	-1.000000	37.448276	0.000000	-1.000000	-1.000000	503155.000000	1774294544.021614
-17798.085000	-23918.445000	-22716.315000	-34387.920000	-44232.030000	-58381.515000	-38026.170000	-12360.285000	4.934186	3.481062	2.119326	0.966516	0.753567	1.404196	1.428877	1.210601	-4.639040	5.447820	-0.839300	0.829222	-0.137817	0.527220	-1.000000	-1.000000	-1.000000	-1.000000	-1.000000	-1.000000	-1.000000	37.448276	0.000000	-1.000000	-1.000000	503156.000000	1774294544.021619
-17790.930000	-23914.845000	-22712.355000	-34382.880000	-44228.385000	-58377.330000	-38025.180000	-12355.785000	5.579821	3.848769	2.569998	2.062393	1.638339	2.153476	1.161714	-0.329790	-4.639040	5.447820	-0.839300	0.829222	-0.137817	0.527220	-1.000000	-1.000000	-1.000000	-1.000000	-1.000000	-1.000000	-1.000000	37.448276	0.000000	-1.000000	-1.000000	503157.000000	1774294544.021624
-17784.225000	-23909.805000	-22707.630000	-34378.830000	-44224.470000	-58371.795000	-38025.765000	-12354.120000	2.324278	1.269870	0.897115	0.508738	0.048581	0.513211	-0.468081	-2.552977	-4.639040	5.447820	-0.839300	0.829222	-0.137817	0.527220	-1.000000	-1.000000	-1.000000	-1.000000	-1.000000	-1.000000	-1.000000	37.448276	0.000000	-1.000000	-1.000000	503158.000000	1774294544.021629
-17775.765000	-23901.120000	-22698.765000	-34368.930000	-44214.255000	-58359.240000	-38020.905000	-12346.470000	-1.944545	-1.676219	-1.279917	-1.595479	-1.879231	-1.513762	-2.022017	-3.806154	-4.639040	5.447820	-0.839300	0.829222	-0.137817	0.527220	-1.000000	-1.000000	-1.000000	-1.000000	-1.000000	-1.000000	-1.000000	37.448276	0.000000	-1.000000	-1.000000	503159.000000	1774294544.021636
-17779.410000	-23901.975000	-22697.460000	-34367.670000	-44213.220000	-58358.070000	-38019.690000	-12356.370000	-4.112535	-2.606252	-2.192322	-2.002039	-1.989572	-1.852069	-2.093568	-3.029942	-4.639040	5.447820	-0.839300	0.829222	-0.137817	0.527220	-1.000000	-1.000000	-1.000000	-1.000000	-1.000000	-1.000000	-1.000000	37.448276	0.000000	-1.000000	-1.000000	503160.000000	1774294544.021641
