Channel1	Channel2	Channel3	Channel4	Channel5	Channel6	Channel7	Channel8	FilteredChannel1	FilteredChannel2	FilteredChannel3	FilteredChannel4	FilteredChannel5	FilteredChannel6	FilteredChannel7	FilteredChannel8	GyroX	GyroY	GyroZ	AccX	AccY	AccZ	PPG1	PPG2	rawPPG1	rawPPG2	rawPPG3	Hr	Hrv	Battery	Trigger	PhysicalTrigger	AutoTrigger	NumMeasurements	Timestamp
-31748.130000	-42554.745000	-25063.380000	-7042.815000	-35019.495000	-26913.420000	661.230000	-18290.340000	1.782498	-3.451741	-2.914012	-3.736088	-3.024782	-3.224733	-3.583960	-0.390977	-1.953280	2.639980	-1.449700	0.735411	-0.203308	0.615355	-1.000000	-1.000000	-1.000000	-1.000000	-1.000000	-1.000000	-1.000000	73.241379	0.000000	-1.000000	-1.000000	2151825.000000	1770065800.812677
-31744.080000	-42555.735000	-25069.680000	-7049.565000	-35026.470000	-26918.415000	666.855000	-18252.810000	-4.955695	-5.966580	-3.854253	-3.976822	-3.534902	-3.473930	-3.340536	-4.449218	-1.953280	2.639980	-1.449700	0.735411	-0.203308	0.615355	-1.000000	-1.000000	-1.000000	-1.000000	-1.000000	-1.000000	-1.000000	73.241379	0.000000	-1.000000	-1.000000	2151826.000000	1770065800.812687
-31745.790000	-42560.505000	-25073.820000	-7054.875000	-35032.770000	-26923.635000	668.610000	-18242.280000	-10.232541	-7.241758	-4.487414	-3.828064	-3.781045	-3.615425	-2.542593	-6.415772	-1.953280	2.639980	-1.449700	0.735411	-0.203308	0.615355	-1.000000	-1.000000	-1.000000	-1.000000	-1.000000	-1.000000	-1.000000	73.241379	0.000000	-1.000000	-1.000000	2151827.000000	1770065800.816754
-31750.380000	-42559.875000	-25078.095000	-7063.965000	-35037.180000	-26927.550000	672.795000	-18257.220000	-12.939519	-7.191291	-4.526876	-3.432057	-3.655086	-3.516898	-1.503332	-5.390984	-1.953280	2.639980	-1.449700	0.735411	-0.203308	0.615355	-1.000000	-1.000000	-1.000000	-1.000000	-1.000000	-1.000000	-1.000000	73.241379	0.000000	-1.000000	-1.000000	2151828.000000	1770065800.816764
-31751.415000	-42556.365000	-25084.260000	-7073.955000	-35042.040000	-26932.590000	681.795000	-18254.115000	-12.152650	-5.271492	-3.142188	-2.196463	-2.374979	-2.298693	-0.145658	-3.198418	-1.953280	2.639980	-1.449700	0.735411	-0.203308	0.615355	-1.000000	-1.000000	-1.000000	-1.000000	-1.000000	-1.000000	-1.000000	73.241379	0.000000	-1.000000	-1.000000	2151829.000000	1770065800.820641
-31750.830000	-42554.745000	-25081.830000	-7071.615000	-35040.555000	-26931.375000	679.770000	-18255.555000	-7.832764	-1.512994	-0.138850	0.261103	0.415114	0.455498	1.627861	-1.558935	-1.953280	2.639980	-1.449700	0.735411	-0.203308	0.615355	-1.000000	-1.000000	-1.000000	-1.000000	-1.000000	-1.000000	-1.000000	73.241379	0.000000	-1.000000	-1.000000	2151830.000000	1770065800.820652
-31764.330000	-42560.955000	-25076.520000	-7057.530000	-35031.600000	-26923.590000	671.220000	-18272.700000	-1.638635	2.949644	3.720975	3.595912	4.088346	4.103086	3.547302	-0.611950	-4.196500	3.113040	-2.914660	0.735533	-0.201171	0.618285	-1.000000	-1.000000	-1.000000	-1.000000	-1.000000	-1.000000	-1.000000	73.241379	0.000000	-1.000000	-1.000000	2151831.000000	1770065800.838551
-31764.960000	-42553.440000	-25059.330000	-7035.480000	-35012.655000	-26903.385000	672.570000	-18278.190000	3.750487	6.318682	6.880007	6.550283	7.053930	7.093825	4.707420	-0.091091	-4.196500	3.113040	-2.914660	0.735533	-0.201171	0.618285	-1.000000	-1.000000	-1.000000	-1.000000	-1.000000	-1.000000	-1.000000	73.241379	0.000000	-1.000000	-1.000000	2151832.000000	1770065800.838564
-31744.080000	-42533.865000	-25040.655000	-7017.795000	-34994.250000	-26885.250000	684.495000	-18271.350000	7.028848	7.602120	8.048190	7.790113	7.929381	8.190321	4.476845	0.728131	-4.196500	3.113040	-2.914660	0.735533	-0.201171	0.618285	-1.000000	-1.000000	-1.000000	-1.000000	-1.000000	-1.000000	-1.000000	73.241379	0.000000	-1.000000	-1.000000	2151833.000000	1770065800.838576
-31745.880000	-42537.195000	-25049.340000	-7029.090000	-35005.905000	-26898.525000	685.665000	-18276.120000	8.710584	6.979581	6.960124	6.744612	6.425398	7.069841	3.215856	2.464712	-4.196500	3.113040	-2.914660	0.735533	-0.201171	0.618285	-1.000000	-1.000000	-1.000000	-1.000000	-1.000000	-1.000000	-1.000000	73.241379	0.000000	-1.000000	-1.000000	2151834.000000	1770065800.838581
-31752.090000	-42547.230000	-25058.835000	-7039.215000	-35017.920000	-26908.695000	681.705000	-18275.040000	8.700527	4.490976	3.680664	3.320676	2.709627	3.520652	1.240295	3.580896	-4.196500	3.113040	-2.914660	0.735533	-0.201171	0.618285	-1.000000	-1.000000	-1.000000	-1.000000	-1.000000	-1.000000	-1.000000	73.241379	0.000000	-1.000000	-1.000000	2151835.000000	1770065800.838588
-31762.260000	-42554.430000	-25063.830000	-7047.630000	-35022.330000	-26913.105000	680.130000	-18264.060000	5.874585	0.081309	-1.328466	-1.861990	-2.536213	-2.076285	-1.616688	2.239766	-4.196500	3.113040	-2.914660	0.735533	-0.201171	0.618285	-1.000000	-1.000000	-1.000000	-1.000000	-1.000000	-1.000000	-1.000000	73.241379	0.000000	-1.000000	-1.000000	2151836.000000	1770065800.838593
-31773.195000	-42560.235000	-25079.715000	-7068.105000	-35035.515000	-26924.085000	694.170000	-18233.235000	0.437558	-5.101499	-6.463143	-6.966359	-7.454668	-7.677711	-4.694839	0.087197	-4.196500	3.113040	-2.914660	0.735533	-0.201171	0.618285	-1.000000	-1.000000	-1.000000	-1.000000	-1.000000	-1.000000	-1.000000	73.241379	0.000000	-1.000000	-1.000000	2151837.000000	1770065800.838598
-31749.615000	-42541.875000	-25078.365000	-7071.030000	-35038.710000	-26924.940000	694.935000	-18239.625000	-4.985515	-8.623960	-9.567025	-9.790736	-9.891441	-10.627969	-6.288730	0.140818	-4.196500	3.113040	-2.914660	0.735533	-0.201171	0.618285	-1.000000	-1.000000	-1.000000	-1.000000	-1.000000	-1.000000	-1.000000	73.241379	0.000000	-1.000000	-1.000000	2151838.000000	1770065800.838603
-31743.495000	-42547.770000	-25075.170000	-7064.055000	-35037.495000	-26927.280000	681.885000	-18255.960000	-6.908057	-8.223510	-9.088390	-8.983974	-8.753489	-9.530002	-5.355800	2.015446	-4.196500	3.113040	-2.914660	0.735533	-0.201171	0.618285	-1.000000	-1.000000	-1.000000	-1.000000	-1.000000	-1.000000	-1.000000	73.241379	0.000000	-1.000000	-1.000000	2151839.000000	1770065800.843458
-31754.295000	-42553.530000	-25067.520000	-7050.240000	-35025.300000	-26919.045000	676.665000	-18256.590000	-4.240149	-4.062176	-5.158824	-4.907322	-4.633558	-5.193186	-2.592821	2.892183	-4.196500	3.113040	-2.914660	0.735533	-0.201171	0.618285	-1.000000	-1.000000	-1.000000	-1.000000	-1.000000	-1.000000	-1.000000	73.241379	0.000000	-1.000000	-1.000000	2151840.000000	1770065800.843468
-31740.615000	-42539.580000	-25050.105000	-7029.540000	-35006.805000	-26902.935000	685.395000	-18248.760000	0.452805	1.117402	0.218837	0.461729	0.562165	0.065496	0.462375	1.712395	-4.394880	4.303320	-4.104940	0.733030	-0.204956	0.619261	-1.000000	-1.000000	-1.000000	-1.000000	-1.000000	-1.000000	-1.000000	73.241379	0.000000	-1.000000	-1.000000	2151841.000000	1770065800.853510
-31724.910000	-42529.050000	-25043.625000	-7023.915000	-35001.360000	-26899.110000	692.010000	-18241.515000	3.840943	4.676014	4.719657	5.031740	4.925623	4.293736	2.757198	-0.263638	-4.394880	4.303320	-4.104940	0.733030	-0.204956	0.619261	-1.000000	-1.000000	-1.000000	-1.000000	-1.000000	-1.000000	-1.000000	73.241379	0.000000	-1.000000	-1.000000	2151842.000000	1770065800.853522
-31722.930000	-42536.745000	-25048.980000	-7029.045000	-35005.320000	-26901.315000	689.580000	-18236.205000	4.599016	5.728527	7.080247	7.653386	7.436190	6.798837	3.877162	-1.770616	-4.394880	4.303320	-4.104940	0.733030	-0.204956	0.619261	-1.000000	-1.000000	-1.000000	-1.000000	-1.000000	-1.000000	-1.000000	73.241379	0.000000	-1.000000	-1.000000	2151843.000000	1770065800.853534
-31739.040000	-42555.825000	-25068.150000	-7049.880000	-35029.980000	-26925.615000	680.040000	-18242.190000	2.935756	4.407032	6.796710	7.658602	7.477865	7.217039	3.538022	-2.821967	-4.394880	4.303320	-4.104940	0.733030	-0.204956	0.619261	-1.000000	-1.000000	-1.000000	-1.000000	-1.000000	-1.000000	-1.000000	73.241379	0.000000	-1.000000	-1.000000	2151844.000000	1770065800.853540
-31726.440000	-42540.705000	-25073.865000	-7062.750000	-35042.175000	-26934.795000	686.610000	-18241.470000	-0.169590	1.527038	3.886585	4.753040	4.539114	4.965387	1.732979	-4.081889	-4.394880	4.303320	-4.104940	0.733030	-0.204956	0.619261	-1.000000	-1.000000	-1.000000	-1.000000	-1.000000	-1.000000	-1.000000	73.241379	0.000000	-1.000000	-1.000000	2151845.000000	1770065800.853546
-31706.595000	-42523.965000	-25065.405000	-7060.725000	-35037.180000	-26927.235000	696.195000	-18226.170000	-2.644344	-0.938437	-0.107037	0.261067	-0.288693	0.855845	-0.670951	-5.406616	-4.394880	4.303320	-4.104940	0.733030	-0.204956	0.619261	-1.000000	-1.000000	-1.000000	-1.000000	-1.000000	-1.000000	-1.000000	73.241379	0.000000	-1.000000	-1.000000	2151846.000000	1770065800.853551
-31712.445000	-42529.230000	-25057.845000	-7051.185000	-35028.810000	-26919.540000	692.505000	-18228.870000	-3.076264	-1.479320	-2.601051	-3.095182	-3.964805	-2.400122	-2.160768	-5.212141	-4.394880	4.303320	-4.104940	0.733030	-0.204956	0.619261	-1.000000	-1.000000	-1.000000	-1.000000	-1.000000	-1.000000	-1.000000	73.241379	0.000000	-1.000000	-1.000000	2151847.000000	1770065800.868980
-31727.340000	-42537.240000	-25053.345000	-7039.530000	-35021.430000	-26912.925000	688.185000	-18241.470000	-2.543571	-0.790799	-2.503068	-3.722107	-4.318903	-2.837368	-1.741981	-2.262432	-4.394880	4.303320	-4.104940	0.733030	-0.204956	0.619261	-1.000000	-1.000000	-1.000000	-1.000000	-1.000000	-1.000000	-1.000000	73.241379	0.000000	-1.000000	-1.000000	2151848.000000	1770065800.868992
-31746.105000	-42542.865000	-25046.685000	-7028.910000	-35011.215000	-26906.040000	687.285000	-18258.840000	-2.856748	-0.526545	-1.115738	-2.467566	-2.152106	-1.218933	0.084259	1.963948	-4.394880	4.303320	-4.104940	0.733030	-0.204956	0.619261	-1.000000	-1.000000	-1.000000	-1.000000	-1.000000	-1.000000	-1.000000	73.241379	0.000000	-1.000000	-1.000000	2151849.000000	1770065800.869005
-31749.570000	-42551.010000	-25046.640000	-7028.640000	-35009.820000	-26906.490000	689.355000	-18259.110000	-4.540417	-1.745945	-0.514660	-1.353336	0.000783	0.095596	1.623189	4.368168	-4.394880	4.303320	-4.104940	0.733030	-0.204956	0.619261	-1.000000	-1.000000	-1.000000	-1.000000	-1.000000	-1.000000	-1.000000	73.241379	0.000000	-1.000000	-1.000000	2151850.000000	1770065800.869011
-31745.475000	-42551.100000	-25050.015000	-7029.765000	-35010.945000	-26905.590000	692.955000	-18254.205000	-6.397363	-4.133023	-1.486029	-1.435614	0.509228	-0.247688	1.602859	3.675158	-0.869820	4.181240	-3.570840	0.733152	-0.212097	0.619871	-1.000000	-1.000000	-1.000000	-1.000000	-1.000000	-1.000000	-1.000000	73.241379	0.000000	-1.000000	-1.000000	2151851.000000	1770065800.869017
-31732.155000	-42527.745000	-25042.995000	-7024.410000	-35006.940000	-26900.280000	690.435000	-18251.595000	-5.783420	-5.161603	-2.664816	-1.737142	0.021462	-1.249338	0.366646	1.382202	-0.869820	4.181240	-3.570840	0.733152	-0.212097	0.619871	-1.000000	-1.000000	-1.000000	-1.000000	-1.000000	-1.000000	-1.000000	73.241379	0.000000	-1.000000	-1.000000	2151852.000000	1770065800.869021
-31745.745000	-42528.555000	-25048.530000	-7033.815000	-35014.590000	-26911.395000	687.195000	-18266.895000	-1.045472	-2.061710	-1.955827	-0.569759	0.308421	-1.018815	-0.882144	-0.479461	-0.869820	4.181240	-3.570840	0.733152	-0.212097	0.619871	-1.000000	-1.000000	-1.000000	-1.000000	-1.000000	-1.000000	-1.000000	73.241379	0.000000	-1.000000	-1.000000	2151853.000000	1770065800.869027
-31754.655000	-42541.245000	-25069.590000	-7062.840000	-35041.140000	-26937.990000	686.610000	-18281.790000	5.489574	3.746750	0.580738	1.774646	1.505200	0.331900	-1.631527	-1.590427	-0.869820	4.181240	-3.570840	0.733152	-0.212097	0.619871	-1.000000	-1.000000	-1.000000	-1.000000	-1.000000	-1.000000	-1.000000	73.241379	0.000000	-1.000000	-1.000000	2151854.000000	1770065800.869032
-31741.830000	-42548.400000	-25072.425000	-7064.550000	-35042.670000	-26938.080000	689.130000	-18260.055000	9.293592	7.088549	2.328407	2.814511	1.594751	0.586366	-2.067305	-2.387284	-0.869820	4.181240	-3.570840	0.733152	-0.212097	0.619871	-1.000000	-1.000000	-1.000000	-1.000000	-1.000000	-1.000000	-1.000000	73.241379	0.000000	-1.000000	-1.000000	2151855.000000	1770065800.880283
-31736.520000	-42538.545000	-25051.815000	-7036.290000	-35016.750000	-26911.440000	699.480000	-18238.860000	8.762746	5.330902	1.695326	1.397785	-0.222921	-0.872179	-1.739459	-1.444420	-0.869820	4.181240	-3.570840	0.733152	-0.212097	0.619871	-1.000000	-1.000000	-1.000000	-1.000000	-1.000000	-1.000000	-1.000000	73.241379	0.000000	-1.000000	-1.000000	2151856.000000	1770065800.880295
-31746.420000	-42535.485000	-25048.530000	-7029.630000	-35013.240000	-26912.565000	688.815000	-18261.180000	6.010624	1.153638	0.087932	-0.683435	-2.030267	-1.945292	0.013983	2.625684	-0.869820	4.181240	-3.570840	0.733152	-0.212097	0.619871	-1.000000	-1.000000	-1.000000	-1.000000	-1.000000	-1.000000	-1.000000	73.241379	0.000000	-1.000000	-1.000000	2151857.000000	1770065800.880307
-31734.945000	-42508.755000	-25031.790000	-7014.060000	-34999.695000	-26901.315000	697.095000	-18258.390000	3.372969	-1.282464	-0.555582	-1.478788	-2.152744	-1.229408	2.339127	7.461363	-0.869820	4.181240	-3.570840	0.733152	-0.212097	0.619871	-1.000000	-1.000000	-1.000000	-1.000000	-1.000000	-1.000000	-1.000000	73.241379	0.000000	-1.000000	-1.000000	2151858.000000	1770065800.880312
-31743.045000	-42522.210000	-25035.930000	-7015.005000	-34999.965000	-26900.865000	702.405000	-18248.580000	1.360437	-0.517469	0.166701	-0.722519	-0.797305	0.621081	3.591330	9.144338	-0.869820	4.181240	-3.570840	0.733152	-0.212097	0.619871	-1.000000	-1.000000	-1.000000	-1.000000	-1.000000	-1.000000	-1.000000	73.241379	0.000000	-1.000000	-1.000000	2151859.000000	1770065800.880708
-31726.440000	-42543.945000	-25056.630000	-7038.945000	-35024.445000	-26921.610000	693.495000	-18220.005000	-0.669605	1.056807	1.121861	0.445862	0.674923	2.082492	3.004023	6.643122	-0.869820	4.181240	-3.570840	0.733152	-0.212097	0.619871	-1.000000	-1.000000	-1.000000	-1.000000	-1.000000	-1.000000	-1.000000	73.241379	0.000000	-1.000000	-1.000000	2151860.000000	1770065800.880720
-31704.795000	-42542.550000	-25059.825000	-7045.740000	-35032.185000	-26926.605000	692.145000	-18222.480000	-2.472967	0.006548	0.715010	0.372067	0.693470	1.769531	0.854661	2.041137	1.190280	4.471180	-2.182180	0.735533	-0.215087	0.621214	-1.000000	-1.000000	-1.000000	-1.000000	-1.000000	-1.000000	-1.000000	73.241379	0.000000	-1.000000	-1.000000	2151861.000000	1770065800.899023
-31720.320000	-42542.820000	-25069.995000	-7062.615000	-35044.605000	-26939.295000	695.610000	-18227.745000	-2.871018	-3.625622	-1.017379	-1.042877	-0.702462	0.003594	-1.692193	-2.278966	1.190280	4.471180	-2.182180	0.735533	-0.215087	0.621214	-1.000000	-1.000000	-1.000000	-1.000000	-1.000000	-1.000000	-1.000000	73.241379	0.000000	-1.000000	-1.000000	2151862.000000	1770065800.899035
-31724.550000	-42534.315000	-25063.740000	-7059.240000	-35040.600000	-26935.650000	699.390000	-18225.225000	-2.349613	-6.319689	-2.162378	-1.907335	-1.545805	-1.218005	-3.200106	-5.412318	1.190280	4.471180	-2.182180	0.735533	-0.215087	0.621214	-1.000000	-1.000000	-1.000000	-1.000000	-1.000000	-1.000000	-1.000000	73.241379	0.000000	-1.000000	-1.000000	2151863.000000	1770065800.899047
-31739.355000	-42544.350000	-25063.020000	-7051.680000	-35037.855000	-26934.480000	687.195000	-18251.190000	-2.992787	-5.364305	-1.389385	-0.865619	-0.518349	-0.763854	-3.204169	-7.875567	1.190280	4.471180	-2.182180	0.735533	-0.215087	0.621214	-1.000000	-1.000000	-1.000000	-1.000000	-1.000000	-1.000000	-1.000000	73.241379	0.000000	-1.000000	-1.000000	2151864.000000	1770065800.899052
-31749.165000	-42548.940000	-25057.215000	-7037.145000	-35028.855000	-26928.675000	679.095000	-18267.435000	-5.368559	-1.572299	0.426071	1.193641	1.353852	0.346158	-2.480590	-10.394617	1.190280	4.471180	-2.182180	0.735533	-0.215087	0.621214	-1.000000	-1.000000	-1.000000	-1.000000	-1.000000	-1.000000	-1.000000	73.241379	0.000000	-1.000000	-1.000000	2151865.000000	1770065800.899058
-31748.355000	-42543.540000	-25047.855000	-7025.265000	-35018.145000	-26921.745000	679.230000	-18267.030000	-7.362647	2.167347	1.570581	2.537573	2.335301	0.718156	-1.747458	-11.633138	1.190280	4.471180	-2.182180	0.735533	-0.215087	0.621214	-1.000000	-1.000000	-1.000000	-1.000000	-1.000000	-1.000000	-1.000000	73.241379	0.000000	-1.000000	-1.000000	2151866.000000	1770065800.899063
-31741.110000	-42552.630000	-25060.455000	-7039.305000	-35032.860000	-26938.440000	673.605000	-18263.160000	-6.348724	3.704279	1.234012	2.233660	1.742539	0.037980	-1.005721	-8.875531	1.190280	4.471180	-2.182180	0.735533	-0.215087	0.621214	-1.000000	-1.000000	-1.000000	-1.000000	-1.000000	-1.000000	-1.000000	73.241379	0.000000	-1.000000	-1.000000	2151867.000000	1770065800.899068
-31734.765000	-42545.340000	-25057.575000	-7034.445000	-35028.045000	-26930.520000	685.440000	-18240.615000	-1.786115	3.131306	-0.162373	0.496942	0.026938	-1.167898	-0.045060	-1.817509	1.190280	4.471180	-2.182180	0.735533	-0.215087	0.621214	-1.000000	-1.000000	-1.000000	-1.000000	-1.000000	-1.000000	-1.000000	73.241379	0.000000	-1.000000	-1.000000	2151868.000000	1770065800.899074
-31736.520000	-42540.705000	-25052.715000	-7030.395000	-35021.880000	-26920.890000	695.115000	-18247.995000	4.024886	2.426828	-0.968860	-0.949474	-1.048551	-1.332374	1.671400	6.399803	1.190280	4.471180	-2.182180	0.735533	-0.215087	0.621214	-1.000000	-1.000000	-1.000000	-1.000000	-1.000000	-1.000000	-1.000000	73.241379	0.000000	-1.000000	-1.000000	2151869.000000	1770065800.900768
-31753.395000	-42545.565000	-25068.330000	-7053.795000	-35044.830000	-26943.975000	692.775000	-18257.490000	7.444698	2.805253	0.034002	-0.537371	-0.060250	0.651601	4.232906	11.661476	1.190280	4.471180	-2.182180	0.735533	-0.215087	0.621214	-1.000000	-1.000000	-1.000000	-1.000000	-1.000000	-1.000000	-1.000000	73.241379	0.000000	-1.000000	-1.000000	2151870.000000	1770065800.900778
-31770.405000	-42533.055000	-25063.335000	-7053.840000	-35043.480000	-26942.895000	697.950000	-18277.965000	6.511756	3.350025	1.945669	1.024844	1.909498	3.324090	6.087272	11.592867	1.358140	4.303320	-2.044840	0.737974	-0.215209	0.620177	-1.000000	-1.000000	-1.000000	-1.000000	-1.000000	-1.000000	-1.000000	73.241379	0.000000	-1.000000	-1.000000	2151871.000000	1770065800.904691
-31744.305000	-42518.250000	-25042.995000	-7029.180000	-35018.730000	-26917.155000	702.450000	-18268.155000	2.834810	3.105863	3.307112	2.295512	3.113006	4.666978	5.576483	6.868455	1.358140	4.303320	-2.044840	0.737974	-0.215209	0.620177	-1.000000	-1.000000	-1.000000	-1.000000	-1.000000	-1.000000	-1.000000	73.241379	0.000000	-1.000000	-1.000000	2151872.000000	1770065800.904701
-31720.095000	-42533.100000	-25048.800000	-7030.350000	-35023.590000	-26919.990000	690.345000	-18254.070000	0.583377	2.104902	3.464148	2.578412	3.007340	4.222588	2.787089	1.256897	1.358140	4.303320	-2.044840	0.737974	-0.215209	0.620177	-1.000000	-1.000000	-1.000000	-1.000000	-1.000000	-1.000000	-1.000000	73.241379	0.000000	-1.000000	-1.000000	2151873.000000	1770065800.913471
-31731.795000	-42563.970000	-25065.720000	-7042.140000	-35037.270000	-26936.595000	679.455000	-18254.205000	2.264943	-0.223801	1.609077	0.935343	1.006385	1.752245	-1.126026	-1.034412	1.358140	4.303320	-2.044840	0.737974	-0.215209	0.620177	-1.000000	-1.000000	-1.000000	-1.000000	-1.000000	-1.000000	-1.000000	73.241379	0.000000	-1.000000	-1.000000	2151874.000000	1770065800.913482
-31730.895000	-42562.395000	-25062.975000	-7039.890000	-35035.920000	-26935.605000	685.710000	-18238.905000	5.370391	-4.601074	-2.581616	-2.990891	-3.122813	-2.756991	-4.787138	0.613133	1.358140	4.303320	-2.044840	0.737974	-0.215209	0.620177	-1.000000	-1.000000	-1.000000	-1.000000	-1.000000	-1.000000	-1.000000	73.241379	0.000000	-1.000000	-1.000000	2151875.000000	1770065800.913494
-31743.090000	-42550.830000	-25061.265000	-7040.745000	-35035.965000	-26938.305000	685.935000	-18251.100000	5.272249	-8.936659	-6.865076	-6.932974	-7.189204	-7.198997	-6.671992	2.863274	1.358140	4.303320	-2.044840	0.737974	-0.215209	0.620177	-1.000000	-1.000000	-1.000000	-1.000000	-1.000000	-1.000000	-1.000000	73.241379	0.000000	-1.000000	-1.000000	2151876.000000	1770065800.913499
-31737.690000	-42539.850000	-25059.690000	-7041.330000	-35034.345000	-26937.135000	686.430000	-18243.855000	0.392508	-9.196391	-7.832157	-7.639021	-7.977068	-8.607725	-6.052299	1.830561	1.358140	4.303320	-2.044840	0.737974	-0.215209	0.620177	-1.000000	-1.000000	-1.000000	-1.000000	-1.000000	-1.000000	-1.000000	73.241379	0.000000	-1.000000	-1.000000	2151877.000000	1770065800.930299
-31718.340000	-42539.130000	-25061.265000	-7045.695000	-35035.695000	-26936.505000	698.895000	-18213.525000	-6.196240	-4.114267	-4.458078	-4.182235	-4.486207	-5.972104	-3.453346	-2.412851	1.358140	4.303320	-2.044840	0.737974	-0.215209	0.620177	-1.000000	-1.000000	-1.000000	-1.000000	-1.000000	-1.000000	-1.000000	73.241379	0.000000	-1.000000	-1.000000	2151878.000000	1770065800.930310
-31729.950000	-42542.595000	-25069.455000	-7056.990000	-35044.830000	-26945.460000	702.450000	-18222.345000	-9.429175	3.216513	1.248341	1.666513	1.538162	-0.504259	0.176568	-5.594338	1.358140	4.303320	-2.044840	0.737974	-0.215209	0.620177	-1.000000	-1.000000	-1.000000	-1.000000	-1.000000	-1.000000	-1.000000	73.241379	0.000000	-1.000000	-1.000000	2151879.000000	1770065800.930321
-31742.235000	-42546.780000	-25067.340000	-7049.880000	-35040.150000	-26939.520000	698.895000	-18228.105000	-7.418181	8.039872	5.914067	6.804231	6.819866	5.077145	3.473757	-5.059092	1.358140	4.303320	-2.044840	0.737974	-0.215209	0.620177	-1.000000	-1.000000	-1.000000	-1.000000	-1.000000	-1.000000	-1.000000	73.241379	0.000000	-1.000000	-1.000000	2151880.000000	1770065800.930326
-31745.880000	-42545.790000	-25058.115000	-7035.435000	-35030.475000	-26931.870000	691.335000	-18235.620000	-3.251125	7.661182	6.961041	8.476118	8.356706	7.701410	4.784368	-2.674916	0.244160	4.059160	-2.746800	0.736570	-0.214233	0.619139	-1.000000	-1.000000	-1.000000	-1.000000	-1.000000	-1.000000	-1.000000	73.241379	0.000000	-1.000000	-1.000000	2151881.000000	1770065800.930332
-31742.820000	-42533.910000	-25049.340000	-7025.445000	-35025.930000	-26929.935000	684.810000	-18247.815000	-0.637657	3.797836	4.702175	6.350040	5.800338	6.369862	3.671626	-1.508941	0.244160	4.059160	-2.746800	0.736570	-0.214233	0.619139	-1.000000	-1.000000	-1.000000	-1.000000	-1.000000	-1.000000	-1.000000	73.241379	0.000000	-1.000000	-1.000000	2151882.000000	1770065800.930337
-31736.970000	-42527.700000	-25039.260000	-7013.610000	-35014.230000	-26919.225000	692.145000	-18258.885000	0.208584	0.741155	1.829931	2.643535	1.670487	2.998870	1.435840	-2.600842	0.244160	4.059160	-2.746800	0.736570	-0.214233	0.619139	-1.000000	-1.000000	-1.000000	-1.000000	-1.000000	-1.000000	-1.000000	73.241379	0.000000	-1.000000	-1.000000	2151883.000000	1770065800.930343
-31724.010000	-42547.590000	-25062.030000	-7036.245000	-35037.990000	-26945.730000	680.580000	-18271.980000	1.376988	0.217907	0.038198	-0.590378	-1.597527	-0.134597	-0.479877	-4.837617	0.244160	4.059160	-2.746800	0.736570	-0.214233	0.619139	-1.000000	-1.000000	-1.000000	-1.000000	-1.000000	-1.000000	-1.000000	73.241379	0.000000	-1.000000	-1.000000	2151884.000000	1770065800.930348
-31739.085000	-42552.945000	-25065.855000	-7038.585000	-35041.590000	-26948.070000	677.430000	-18268.605000	3.671434	-0.161408	-1.485422	-3.213374	-3.771392	-2.657464	-1.840400	-6.107215	0.244160	4.059160	-2.746800	0.736570	-0.214233	0.619139	-1.000000	-1.000000	-1.000000	-1.000000	-1.000000	-1.000000	-1.000000	73.241379	0.000000	-1.000000	-1.000000	2151885.000000	1770065800.933609
-31782.465000	-42551.595000	-25058.880000	-7031.070000	-35028.630000	-26932.725000	695.475000	-18270.315000	4.681258	-2.585170	-3.435697	-5.217146	-5.071380	-4.514452	-2.658167	-4.723425	0.244160	4.059160	-2.746800	0.736570	-0.214233	0.619139	-1.000000	-1.000000	-1.000000	-1.000000	-1.000000	-1.000000	-1.000000	73.241379	0.000000	-1.000000	-1.000000	2151886.000000	1770065800.933619
-31775.940000	-42558.705000	-25081.425000	-7064.280000	-35059.950000	-26963.550000	691.110000	-18256.095000	1.618242	-5.862436	-4.781000	-5.696988	-4.835047	-4.752655	-2.385908	-0.635788	0.244160	4.059160	-2.746800	0.736570	-0.214233	0.619139	-1.000000	-1.000000	-1.000000	-1.000000	-1.000000	-1.000000	-1.000000	73.241379	0.000000	-1.000000	-1.000000	2151887.000000	1770065800.941458
-31724.595000	-42541.515000	-25084.755000	-7077.015000	-35073.765000	-26974.755000	689.310000	-18237.105000	-2.810243	-7.071788	-4.650502	-4.740913	-3.387683	-3.543561	-1.120496	5.263569	0.244160	4.059160	-2.746800	0.736570	-0.214233	0.619139	-1.000000	-1.000000	-1.000000	-1.000000	-1.000000	-1.000000	-1.000000	73.241379	0.000000	-1.000000	-1.000000	2151888.000000	1770065800.941469
-31720.950000	-42534.945000	-25066.845000	-7052.085000	-35052.120000	-26953.965000	689.310000	-18261.135000	-2.386655	-4.418466	-3.134325	-3.296251	-1.931796	-2.098028	0.286273	11.206062	0.244160	4.059160	-2.746800	0.736570	-0.214233	0.619139	-1.000000	-1.000000	-1.000000	-1.000000	-1.000000	-1.000000	-1.000000	73.241379	0.000000	-1.000000	-1.000000	2151889.000000	1770065800.941478
-31737.105000	-42539.760000	-25057.620000	-7035.165000	-35036.235000	-26940.510000	687.600000	-18281.790000	3.330506	1.058534	-0.399428	-1.180977	-0.247613	-0.349726	1.481391	13.524298	0.244160	4.059160	-2.746800	0.736570	-0.214233	0.619139	-1.000000	-1.000000	-1.000000	-1.000000	-1.000000	-1.000000	-1.000000	73.241379	0.000000	-1.000000	-1.000000	2151890.000000	1770065800.941483
-31720.635000	-42526.710000	-25047.090000	-7023.240000	-35022.510000	-26925.390000	696.735000	-18254.475000	8.346750	6.141880	3.005556	2.138195	2.592476	2.498139	2.594811	10.043912	-1.083460	2.624720	-2.578940	0.734251	-0.212524	0.619078	-1.000000	-1.000000	-1.000000	-1.000000	-1.000000	-1.000000	-1.000000	73.241379	0.000000	-1.000000	-1.000000	2151891.000000	1770065800.945698
-31706.640000	-42522.210000	-25043.670000	-7022.565000	-35021.880000	-26923.590000	706.680000	-18206.190000	8.308122	8.345104	5.819229	5.760945	5.990730	5.934640	3.540810	4.144205	-1.083460	2.624720	-2.578940	0.734251	-0.212524	0.619078	-1.000000	-1.000000	-1.000000	-1.000000	-1.000000	-1.000000	-1.000000	73.241379	0.000000	-1.000000	-1.000000	2151892.000000	1770065800.945710
-31708.665000	-42526.440000	-25042.590000	-7019.280000	-35019.270000	-26920.935000	709.110000	-18207.675000	3.752454	7.359116	6.989595	8.036003	8.177238	8.297108	3.969573	0.930212	-1.083460	2.624720	-2.578940	0.734251	-0.212524	0.619078	-1.000000	-1.000000	-1.000000	-1.000000	-1.000000	-1.000000	-1.000000	73.241379	0.000000	-1.000000	-1.000000	2151893.000000	1770065800.956531
-31709.430000	-42533.640000	-25049.835000	-7026.480000	-35026.335000	-26929.080000	703.080000	-18223.380000	-2.199859	3.878719	5.971644	7.738066	7.603071	7.847639	3.197557	0.375934	-1.083460	2.624720	-2.578940	0.734251	-0.212524	0.619078	-1.000000	-1.000000	-1.000000	-1.000000	-1.000000	-1.000000	-1.000000	73.241379	0.000000	-1.000000	-1.000000	2151894.000000	1770065800.956542
-31710.510000	-42537.915000	-25064.370000	-7046.190000	-35043.570000	-26945.595000	702.135000	-18230.715000	-6.159283	-1.118025	2.459833	4.282603	3.542461	3.540317	0.389470	-1.783012	-1.083460	2.624720	-2.578940	0.734251	-0.212524	0.619078	-1.000000	-1.000000	-1.000000	-1.000000	-1.000000	-1.000000	-1.000000	73.241379	0.000000	-1.000000	-1.000000	2151895.000000	1770065800.956553
-31711.995000	-42540.705000	-25064.730000	-7048.755000	-35043.075000	-26942.580000	714.285000	-18223.020000	-6.949818	-5.940581	-2.501217	-1.130999	-2.529663	-3.099047	-3.737644	-7.387816	-1.083460	2.624720	-2.578940	0.734251	-0.212524	0.619078	-1.000000	-1.000000	-1.000000	-1.000000	-1.000000	-1.000000	-1.000000	73.241379	0.000000	-1.000000	-1.000000	2151896.000000	1770065800.956558
-31736.745000	-42558.390000	-25065.810000	-7043.625000	-35040.240000	-26939.880000	705.510000	-18235.845000	-6.786950	-9.007376	-6.462724	-5.603095	-7.178934	-8.194057	-6.603050	-13.442685	-1.083460	2.624720	-2.578940	0.734251	-0.212524	0.619078	-1.000000	-1.000000	-1.000000	-1.000000	-1.000000	-1.000000	-1.000000	73.241379	0.000000	-1.000000	-1.000000	2151897.000000	1770065800.959563
-31753.845000	-42532.110000	-25041.420000	-7013.250000	-35012.295000	-26912.970000	707.310000	-18250.785000	-8.058861	-9.378998	-7.636567	-7.139803	-8.173438	-9.164801	-6.438501	-15.496541	-1.083460	2.624720	-2.578940	0.734251	-0.212524	0.619078	-1.000000	-1.000000	-1.000000	-1.000000	-1.000000	-1.000000	-1.000000	73.241379	0.000000	-1.000000	-1.000000	2151898.000000	1770065800.959583
-31790.250000	-42533.865000	-25037.415000	-7004.385000	-35004.195000	-26906.670000	695.970000	-18292.680000	-9.996284	-6.138526	-5.726713	-5.680897	-5.759006	-6.264753	-3.787771	-12.029745	-1.083460	2.624720	-2.578940	0.734251	-0.212524	0.619078	-1.000000	-1.000000	-1.000000	-1.000000	-1.000000	-1.000000	-1.000000	73.241379	0.000000	-1.000000	-1.000000	2151899.000000	1770065800.962307
-31756.680000	-42535.305000	-25049.295000	-7020.450000	-35021.880000	-26925.255000	687.645000	-18275.670000	-9.771352	-0.096112	-2.064776	-2.742599	-2.021695	-1.891421	-0.773409	-5.752110	-1.083460	2.624720	-2.578940	0.734251	-0.212524	0.619078	-1.000000	-1.000000	-1.000000	-1.000000	-1.000000	-1.000000	-1.000000	73.241379	0.000000	-1.000000	-1.000000	2151900.000000	1770065800.962317
-31712.670000	-42526.080000	-25055.280000	-7032.555000	-35036.235000	-26936.910000	692.955000	-18229.590000	-4.423796	5.688102	0.919296	-0.686724	0.241967	0.825325	0.764101	0.554824	-1.495480	3.311420	-1.754900	0.732969	-0.211914	0.618773	-1.000000	-1.000000	-1.000000	-1.000000	-1.000000	-1.000000	-1.000000	73.241379	0.000000	-1.000000	-1.000000	2151901.000000	1770065800.976753
-31703.850000	-42515.505000	-25044.795000	-7024.095000	-35026.425000	-26925.840000	698.580000	-18221.805000	6.757146	9.017613	2.127768	-0.399325	0.157775	0.961048	1.129581	7.251206	-1.495480	3.311420	-1.754900	0.732969	-0.211914	0.618773	-1.000000	-1.000000	-1.000000	-1.000000	-1.000000	-1.000000	-1.000000	73.241379	0.000000	-1.000000	-1.000000	2151902.000000	1770065800.976764
-31722.390000	-42516.000000	-25047.180000	-7024.455000	-35025.345000	-26923.050000	707.895000	-18235.845000	19.005378	9.556703	2.575191	-0.340975	-0.329487	0.558126	1.902975	14.088241	-1.495480	3.311420	-1.754900	0.732969	-0.211914	0.618773	-1.000000	-1.000000	-1.000000	-1.000000	-1.000000	-1.000000	-1.000000	73.241379	0.000000	-1.000000	-1.000000	2151903.000000	1770065800.976776
-31728.240000	-42534.135000	-25075.035000	-7055.190000	-35051.895000	-26945.730000	710.505000	-18235.080000	24.250827	7.228046	3.052185	0.975803	0.673113	1.523293	3.560614	17.467083	-1.495480	3.311420	-1.754900	0.732969	-0.211914	0.618773	-1.000000	-1.000000	-1.000000	-1.000000	-1.000000	-1.000000	-1.000000	73.241379	0.000000	-1.000000	-1.000000	2151904.000000	1770065800.976781
-31724.865000	-42538.545000	-25074.450000	-7055.415000	-35050.320000	-26942.715000	706.005000	-18241.965000	18.332005	2.137648	2.777082	2.747053	2.553184	3.211274	4.873305	14.196322	-1.495480	3.311420	-1.754900	0.732969	-0.211914	0.618773	-1.000000	-1.000000	-1.000000	-1.000000	-1.000000	-1.000000	-1.000000	73.241379	0.000000	-1.000000	-1.000000	2151905.000000	1770065800.976787
-31724.415000	-42536.070000	-25057.980000	-7033.905000	-35030.205000	-26924.805000	703.035000	-18255.870000	4.835792	-4.054111	1.194535	3.284042	3.586047	3.857694	4.392482	5.322852	-1.495480	3.311420	-1.754900	0.732969	-0.211914	0.618773	-1.000000	-1.000000	-1.000000	-1.000000	-1.000000	-1.000000	-1.000000	73.241379	0.000000	-1.000000	-1.000000	2151906.000000	1770065800.976793
-31745.520000	-42547.320000	-25060.545000	-7031.385000	-35029.845000	-26924.805000	694.620000	-18267.795000	-8.367074	-8.764000	-0.905014	2.119909	2.986276	2.706031	1.993718	-4.434064	-1.495480	3.311420	-1.754900	0.732969	-0.211914	0.618773	-1.000000	-1.000000	-1.000000	-1.000000	-1.000000	-1.000000	-1.000000	73.241379	0.000000	-1.000000	-1.000000	2151907.000000	1770065800.976799
-31735.440000	-42544.080000	-25057.080000	-7026.750000	-35026.830000	-26920.350000	701.550000	-18234.540000	-15.399969	-10.358773	-2.464069	0.028138	1.049380	0.282485	-1.024363	-9.794833	-1.495480	3.311420	-1.754900	0.732969	-0.211914	0.618773	-1.000000	-1.000000	-1.000000	-1.000000	-1.000000	-1.000000	-1.000000	73.241379	0.000000	-1.000000	-1.000000	2151908.000000	1770065800.976804
-31733.730000	-42552.450000	-25067.160000	-7036.065000	-35037.270000	-26928.855000	694.935000	-18238.095000	-15.607373	-8.440167	-2.680643	-1.465079	-0.925462	-1.820306	-3.032724	-9.012806	-1.495480	3.311420	-1.754900	0.732969	-0.211914	0.618773	-1.000000	-1.000000	-1.000000	-1.000000	-1.000000	-1.000000	-1.000000	73.241379	0.000000	-1.000000	-1.000000	2151909.000000	1770065800.991780
-31717.665000	-42541.155000	-25060.770000	-7027.560000	-35027.505000	-26915.040000	698.985000	-18237.735000	-11.985437	-3.774789	-1.315306	-1.119814	-1.412795	-2.003487	-3.454506	-5.622467	-1.495480	3.311420	-1.754900	0.732969	-0.211914	0.618773	-1.000000	-1.000000	-1.000000	-1.000000	-1.000000	-1.000000	-1.000000	73.241379	0.000000	-1.000000	-1.000000	2151910.000000	1770065800.991794
-31720.275000	-42537.420000	-25061.310000	-7028.325000	-35027.325000	-26914.230000	700.380000	-18246.645000	-6.960791	1.921548	0.855879	0.723743	-0.229455	-0.283887	-2.823095	-3.773511	-0.625660	3.021480	-3.525060	0.731993	-0.211669	0.621458	-1.000000	-1.000000	-1.000000	-1.000000	-1.000000	-1.000000	-1.000000	73.241379	0.000000	-1.000000	-1.000000	2151911.000000	1770065800.991806
-31721.085000	-42532.695000	-25064.595000	-7039.935000	-35032.140000	-26916.750000	708.120000	-18238.455000	-1.018708	6.897448	2.775292	2.590219	1.493486	1.854790	-1.758983	-3.439321	-0.625660	3.021480	-3.525060	0.731993	-0.211669	0.621458	-1.000000	-1.000000	-1.000000	-1.000000	-1.000000	-1.000000	-1.000000	73.241379	0.000000	-1.000000	-1.000000	2151912.000000	1770065800.991811
-31719.060000	-42536.970000	-25070.040000	-7047.540000	-35037.720000	-26922.375000	705.960000	-18228.960000	5.005359	9.866404	3.978034	3.381840	2.699441	3.049420	-0.561979	-2.162200	-0.625660	3.021480	-3.525060	0.731993	-0.211669	0.621458	-1.000000	-1.000000	-1.000000	-1.000000	-1.000000	-1.000000	-1.000000	73.241379	0.000000	-1.000000	-1.000000	2151913.000000	1770065800.991817
-31737.105000	-42558.480000	-25082.550000	-7055.910000	-35047.620000	-26936.280000	686.565000	-18249.435000	8.839919	9.617944	3.811350	2.444048	2.450264	2.300006	0.359550	0.974869	-0.625660	3.021480	-3.525060	0.731993	-0.211669	0.621458	-1.000000	-1.000000	-1.000000	-1.000000	-1.000000	-1.000000	-1.000000	73.241379	0.000000	-1.000000	-1.000000	2151914.000000	1770065800.991822
-31738.635000	-42554.790000	-25068.645000	-7036.875000	-35030.970000	-26922.240000	685.935000	-18252.945000	8.718629	5.431073	1.326446	-0.599928	-0.084770	-0.964353	0.482668	4.503452	-0.625660	3.021480	-3.525060	0.731993	-0.211669	0.621458	-1.000000	-1.000000	-1.000000	-1.000000	-1.000000	-1.000000	-1.000000	73.241379	0.000000	-1.000000	-1.000000	2151915.000000	1770065800.994681
-31751.685000	-42565.905000	-25072.020000	-7036.380000	-35033.490000	-26926.200000	678.195000	-18268.425000	5.443549	-1.187620	-2.642279	-4.431254	-3.877769	-5.249962	0.003547	6.318730	-0.625660	3.021480	-3.525060	0.731993	-0.211669	0.621458	-1.000000	-1.000000	-1.000000	-1.000000	-1.000000	-1.000000	-1.000000	73.241379	0.000000	-1.000000	-1.000000	2151916.000000	1770065800.994692
-31750.920000	-42566.040000	-25077.330000	-7043.310000	-35038.935000	-26930.790000	677.520000	-18267.435000	1.058080	-6.899624	-5.550265	-6.462344	-6.276266	-7.543324	-0.332048	4.797812	-0.625660	3.021480	-3.525060	0.731993	-0.211669	0.621458	-1.000000	-1.000000	-1.000000	-1.000000	-1.000000	-1.000000	-1.000000	73.241379	0.000000	-1.000000	-1.000000	2151917.000000	1770065801.004732
-31753.260000	-42566.715000	-25076.970000	-7041.285000	-35036.685000	-26926.695000	676.710000	-18268.920000	-3.233490	-9.042661	-5.611497	-5.280798	-5.497773	-6.048386	-0.094695	-0.017800	-0.625660	3.021480	-3.525060	0.731993	-0.211669	0.621458	-1.000000	-1.000000	-1.000000	-1.000000	-1.000000	-1.000000	-1.000000	73.241379	0.000000	-1.000000	-1.000000	2151918.000000	1770065801.004746
-31745.790000	-42561.630000	-25071.480000	-7034.895000	-35029.845000	-26918.325000	678.690000	-18266.760000	-6.360933	-7.147507	-2.937127	-1.541597	-1.891532	-1.430996	0.655350	-5.222942	-0.625660	3.021480	-3.525060	0.731993	-0.211669	0.621458	-1.000000	-1.000000	-1.000000	-1.000000	-1.000000	-1.000000	-1.000000	73.241379	0.000000	-1.000000	-1.000000	2151919.000000	1770065801.004772
-31729.770000	-42550.470000	-25068.645000	-7038.720000	-35027.145000	-26913.960000	693.495000	-18249.120000	-6.419161	-2.605762	0.997799	2.825756	2.618712	3.951702	1.612307	-6.783334	-0.625660	3.021480	-3.525060	0.731993	-0.211669	0.621458	-1.000000	-1.000000	-1.000000	-1.000000	-1.000000	-1.000000	-1.000000	73.241379	0.000000	-1.000000	-1.000000	2151920.000000	1770065801.004777
-31744.395000	-42560.730000	-25077.375000	-7048.215000	-35028.855000	-26913.015000	702.675000	-18246.420000	-2.548734	2.474106	4.433998	5.938598	6.071370	7.822618	2.586308	-3.177809	0.503580	2.578940	-6.699140	0.732176	-0.207519	0.619383	-1.000000	-1.000000	-1.000000	-1.000000	-1.000000	-1.000000	-1.000000	73.241379	0.000000	-1.000000	-1.000000	2151921.000000	1770065801.005434
-31747.140000	-42549.525000	-25063.965000	-7033.950000	-35015.580000	-26901.765000	696.420000	-18252.540000	2.882881	6.184596	6.161706	6.902768	7.472578	9.090986	3.361954	2.985247	0.503580	2.578940	-6.699140	0.732176	-0.207519	0.619383	-1.000000	-1.000000	-1.000000	-1.000000	-1.000000	-1.000000	-1.000000	73.241379	0.000000	-1.000000	-1.000000	2151922.000000	1770065801.005446
-31757.040000	-42538.815000	-25049.250000	-7015.050000	-35000.820000	-26891.145000	686.610000	-18280.530000	6.351803	7.808489	5.975295	5.896805	6.700095	7.720891	3.345326	7.307144	0.503580	2.578940	-6.699140	0.732176	-0.207519	0.619383	-1.000000	-1.000000	-1.000000	-1.000000	-1.000000	-1.000000	-1.000000	73.241379	0.000000	-1.000000	-1.000000	2151923.000000	1770065801.014170
-31762.170000	-42564.105000	-25061.940000	-7023.330000	-35012.970000	-26904.420000	676.530000	-18304.650000	6.427481	7.174033	4.000197	3.242193	3.739693	3.909011	1.849554	6.878411	0.503580	2.578940	-6.699140	0.732176	-0.207519	0.619383	-1.000000	-1.000000	-1.000000	-1.000000	-1.000000	-1.000000	-1.000000	73.241379	0.000000	-1.000000	-1.000000	2151924.000000	1770065801.014182
-31748.895000	-42575.175000	-25076.700000	-7041.465000	-35030.745000	-26921.025000	670.680000	-18302.580000	4.066080	3.550719	0.044578	-1.123706	-1.408815	-2.020396	-1.103214	1.940942	0.503580	2.578940	-6.699140	0.732176	-0.207519	0.619383	-1.000000	-1.000000	-1.000000	-1.000000	-1.000000	-1.000000	-1.000000	73.241379	0.000000	-1.000000	-1.000000	2151925.000000	1770065801.014196
-31779.315000	-42559.965000	-25068.105000	-7030.755000	-35017.650000	-26906.895000	679.230000	-18299.565000	0.704678	-2.289737	-4.870734	-6.080386	-7.101719	-8.115858	-4.172771	-4.189953	0.503580	2.578940	-6.699140	0.732176	-0.207519	0.619383	-1.000000	-1.000000	-1.000000	-1.000000	-1.000000	-1.000000	-1.000000	73.241379	0.000000	-1.000000	-1.000000	2151926.000000	1770065801.014201
-31756.050000	-42536.565000	-25055.190000	-7018.515000	-35005.545000	-26895.285000	683.820000	-18272.475000	-2.950149	-6.774902	-7.849024	-8.700485	-9.890625	-10.889319	-5.376177	-7.204093	0.503580	2.578940	-6.699140	0.732176	-0.207519	0.619383	-1.000000	-1.000000	-1.000000	-1.000000	-1.000000	-1.000000	-1.000000	73.241379	0.000000	-1.000000	-1.000000	2151927.000000	1770065801.016857
-31731.120000	-42541.065000	-25065.810000	-7036.515000	-35020.935000	-26912.205000	680.715000	-18261.945000	-5.322941	-6.980393	-6.960379	-7.249646	-7.996875	-8.799937	-4.042762	-4.738047	0.503580	2.578940	-6.699140	0.732176	-0.207519	0.619383	-1.000000	-1.000000	-1.000000	-1.000000	-1.000000	-1.000000	-1.000000	73.241379	0.000000	-1.000000	-1.000000	2151928.000000	1770065801.016866
-31756.410000	-42568.785000	-25098.075000	-7070.805000	-35048.790000	-26935.920000	686.790000	-18260.730000	-4.670164	-4.171804	-3.695977	-3.534559	-3.624223	-4.239205	-1.592359	1.393734	0.503580	2.578940	-6.699140	0.732176	-0.207519	0.619383	-1.000000	-1.000000	-1.000000	-1.000000	-1.000000	-1.000000	-1.000000	73.241379	0.000000	-1.000000	-1.000000	2151929.000000	1770065801.023107
-31756.095000	-42563.160000	-25094.070000	-7064.280000	-35043.165000	-26926.920000	692.235000	-18272.295000	-1.988507	-1.765540	-1.007319	-0.526174	-0.187350	-0.499933	0.362895	6.316390	0.503580	2.578940	-6.699140	0.732176	-0.207519	0.619383	-1.000000	-1.000000	-1.000000	-1.000000	-1.000000	-1.000000	-1.000000	73.241379	0.000000	-1.000000	-1.000000	2151930.000000	1770065801.023116
-31754.880000	-42567.030000	-25087.095000	-7051.140000	-35035.740000	-26922.015000	683.685000	-18255.330000	0.627185	-1.049294	0.144182	0.991418	1.318909	1.623294	1.634266	6.987745	-0.106820	2.655240	-6.882260	0.733030	-0.203369	0.619139	-1.000000	-1.000000	-1.000000	-1.000000	-1.000000	-1.000000	-1.000000	73.241379	0.000000	-1.000000	-1.000000	2151931.000000	1770065801.033246
-31749.570000	-42571.305000	-25088.715000	-7047.765000	-35035.380000	-26925.615000	670.185000	-18249.615000	2.587632	-1.010388	0.719252	1.938596	1.935327	2.978410	2.457274	5.021520	-0.106820	2.655240	-6.882260	0.733030	-0.203369	0.619139	-1.000000	-1.000000	-1.000000	-1.000000	-1.000000	-1.000000	-1.000000	73.241379	0.000000	-1.000000	-1.000000	2151932.000000	1770065801.033265
-31728.510000	-42556.770000	-25076.700000	-7035.840000	-35021.250000	-26912.205000	678.195000	-18239.850000	4.140527	0.020845	1.923486	3.230691	3.000947	4.359565	2.692083	3.469210	-0.106820	2.655240	-6.882260	0.733030	-0.203369	0.619139	-1.000000	-1.000000	-1.000000	-1.000000	-1.000000	-1.000000	-1.000000	73.241379	0.000000	-1.000000	-1.000000	2151933.000000	1770065801.033280
-31737.555000	-42563.475000	-25083.765000	-7043.310000	-35026.470000	-26914.770000	680.175000	-18253.080000	5.026363	2.950030	4.317658	5.217650	5.247318	6.207634	2.481693	2.430853	-0.106820	2.655240	-6.882260	0.733030	-0.203369	0.619139	-1.000000	-1.000000	-1.000000	-1.000000	-1.000000	-1.000000	-1.000000	73.241379	0.000000	-1.000000	-1.000000	2151934.000000	1770065801.033285
-31740.390000	-42557.715000	-25071.030000	-7028.865000	-35009.505000	-26895.915000	686.745000	-18254.925000	4.233125	5.966549	6.719339	6.832373	7.526498	7.672310	2.014749	-0.470587	-0.106820	2.655240	-6.882260	0.733030	-0.203369	0.619139	-1.000000	-1.000000	-1.000000	-1.000000	-1.000000	-1.000000	-1.000000	73.241379	0.000000	-1.000000	-1.000000	2151935.000000	1770065801.038313
-31738.905000	-42556.005000	-25069.590000	-7029.540000	-35008.335000	-26894.745000	687.285000	-18254.025000	0.858422	5.997171	6.998323	6.313450	7.617345	7.077125	1.101196	-6.150500	-0.106820	2.655240	-6.882260	0.733030	-0.203369	0.619139	-1.000000	-1.000000	-1.000000	-1.000000	-1.000000	-1.000000	-1.000000	73.241379	0.000000	-1.000000	-1.000000	2151936.000000	1770065801.038328
-31749.345000	-42563.565000	-25087.140000	-7053.705000	-35028.945000	-26914.995000	686.295000	-18260.010000	-4.602021	2.587085	4.462711	3.332443	4.713331	3.903268	-0.363299	-12.216352	-0.106820	2.655240	-6.882260	0.733030	-0.203369	0.619139	-1.000000	-1.000000	-1.000000	-1.000000	-1.000000	-1.000000	-1.000000	73.241379	0.000000	-1.000000	-1.000000	2151937.000000	1770065801.038341
-31749.705000	-42562.350000	-25090.380000	-7059.195000	-35031.285000	-26913.420000	689.355000	-18258.570000	-9.368490	-1.600785	0.386149	-0.784775	-0.072965	-0.819500	-2.152948	-14.801084	-0.106820	2.655240	-6.882260	0.733030	-0.203369	0.619139	-1.000000	-1.000000	-1.000000	-1.000000	-1.000000	-1.000000	-1.000000	73.241379	0.000000	-1.000000	-1.000000	2151938.000000	1770065801.038347
-31739.805000	-42550.515000	-25075.395000	-7039.260000	-35012.655000	-26893.215000	690.930000	-18254.565000	-9.852100	-3.642250	-3.222172	-4.234712	-4.613098	-5.105797	-3.519243	-11.382734	-0.106820	2.655240	-6.882260	0.733030	-0.203369	0.619139	-1.000000	-1.000000	-1.000000	-1.000000	-1.000000	-1.000000	-1.000000	73.241379	0.000000	-1.000000	-1.000000	2151939.000000	1770065801.046308
-31740.255000	-42542.640000	-25062.525000	-7024.050000	-34998.660000	-26881.290000	690.975000	-18258.075000	-5.060279	-2.638084	-4.881944	-5.667135	-6.827249	-6.882027	-3.283838	-2.843099	-0.106820	2.655240	-6.882260	0.733030	-0.203369	0.619139	-1.000000	-1.000000	-1.000000	-1.000000	-1.000000	-1.000000	-1.000000	73.241379	0.000000	-1.000000	-1.000000	2151940.000000	1770065801.046321
-31773.645000	-42556.725000	-25066.935000	-7024.545000	-34999.785000	-26887.140000	683.055000	-18282.555000	1.673065	0.024539	-4.350992	-4.834735	-5.998681	-5.570152	-1.112022	6.384226	1.785420	3.586100	-7.523180	0.736265	-0.199768	0.615599	-1.000000	-1.000000	-1.000000	-1.000000	-1.000000	-1.000000	-1.000000	73.241379	0.000000	-1.000000	-1.000000	2151941.000000	1770065801.046335
-31801.140000	-42570.540000	-25066.530000	-7023.780000	-34997.490000	-26886.330000	684.135000	-18283.815000	4.824283	1.582811	-2.668122	-2.685747	-3.278955	-2.732980	1.546800	11.317987	1.785420	3.586100	-7.523180	0.736265	-0.199768	0.615599	-1.000000	-1.000000	-1.000000	-1.000000	-1.000000	-1.000000	-1.000000	73.241379	0.000000	-1.000000	-1.000000	2151942.000000	1770065801.046341
-31776.030000	-42564.915000	-25055.730000	-7010.955000	-34984.170000	-26871.570000	689.805000	-18273.240000	2.646808	0.290348	-1.057563	-0.414031	-0.441465	-0.374093	2.795238	10.641322	1.785420	3.586100	-7.523180	0.736265	-0.199768	0.615599	-1.000000	-1.000000	-1.000000	-1.000000	-1.000000	-1.000000	-1.000000	73.241379	0.000000	-1.000000	-1.000000	2151943.000000	1770065801.055016
-31749.390000	-42557.760000	-25062.255000	-7019.415000	-34991.325000	-26876.925000	681.480000	-18290.610000	-0.236316	-2.665609	-0.182940	1.051493	1.188587	0.536795	1.985349	6.697519	1.785420	3.586100	-7.523180	0.736265	-0.199768	0.615599	-1.000000	-1.000000	-1.000000	-1.000000	-1.000000	-1.000000	-1.000000	73.241379	0.000000	-1.000000	-1.000000	2151944.000000	1770065801.055030
-31733.730000	-42534.540000	-25056.270000	-7021.665000	-34989.480000	-26872.245000	692.010000	-18289.755000	1.098677	-4.239195	-0.165653	1.172603	1.119441	0.179278	-0.109179	1.907849	1.785420	3.586100	-7.523180	0.736265	-0.199768	0.615599	-1.000000	-1.000000	-1.000000	-1.000000	-1.000000	-1.000000	-1.000000	73.241379	0.000000	-1.000000	-1.000000	2151945.000000	1770065801.055045
-31716.765000	-42530.040000	-25065.495000	-7037.145000	-35001.360000	-26880.975000	701.415000	-18272.790000	6.480735	-2.098535	-0.145003	0.617284	0.320822	-0.142121	-1.759765	-1.834665	1.785420	3.586100	-7.523180	0.736265	-0.199768	0.615599	-1.000000	-1.000000	-1.000000	-1.000000	-1.000000	-1.000000	-1.000000	73.172414	0.000000	-1.000000	-1.000000	2151946.000000	1770065801.055050
-31744.710000	-42567.030000	-25087.545000	-7054.605000	-35020.395000	-26896.905000	692.730000	-18257.580000	11.451452	2.362300	0.284023	0.050086	-0.329734	0.131994	-1.766791	-2.496040	1.785420	3.586100	-7.523180	0.736265	-0.199768	0.615599	-1.000000	-1.000000	-1.000000	-1.000000	-1.000000	-1.000000	-1.000000	73.172414	0.000000	-1.000000	-1.000000	2151947.000000	1770065801.070489
-31737.195000	-42571.620000	-25081.470000	-7041.555000	-35008.920000	-26887.995000	688.230000	-18242.505000	10.777956	4.301780	-0.233950	-1.233197	-1.492226	-0.296694	-0.716942	0.277001	1.785420	3.586100	-7.523180	0.736265	-0.199768	0.615599	-1.000000	-1.000000	-1.000000	-1.000000	-1.000000	-1.000000	-1.000000	73.172414	0.000000	-1.000000	-1.000000	2151948.000000	1770065801.070502
-31728.465000	-42565.815000	-25077.195000	-7034.940000	-35004.960000	-26884.440000	690.210000	-18228.150000	3.687362	1.480277	-2.102760	-3.110768	-3.091113	-1.758088	0.299003	4.508821	1.785420	3.586100	-7.523180	0.736265	-0.199768	0.615599	-1.000000	-1.000000	-1.000000	-1.000000	-1.000000	-1.000000	-1.000000	73.172414	0.000000	-1.000000	-1.000000	2151949.000000	1770065801.070515
-31741.920000	-42560.640000	-25079.085000	-7036.830000	-35007.030000	-26884.305000	691.695000	-18235.080000	-4.944027	-2.645963	-3.322740	-3.700675	-3.402785	-2.429019	1.081614	7.441055	1.785420	3.586100	-7.523180	0.736265	-0.199768	0.615599	-1.000000	-1.000000	-1.000000	-1.000000	-1.000000	-1.000000	-1.000000	73.172414	0.000000	-1.000000	-1.000000	2151950.000000	1770065801.070520
-31722.255000	-42547.815000	-25070.220000	-7029.045000	-35000.370000	-26876.835000	693.720000	-18237.330000	-9.843410	-3.471537	-2.112704	-1.804608	-1.440379	-0.974049	1.644348	6.574360	1.800680	2.411080	-6.805960	0.738462	-0.199157	0.617674	-1.000000	-1.000000	-1.000000	-1.000000	-1.000000	-1.000000	-1.000000	73.172414	0.000000	-1.000000	-1.000000	2151951.000000	1770065801.070527
-31731.615000	-42538.590000	-25057.530000	-7015.815000	-34985.565000	-26862.255000	697.680000	-18253.620000	-9.756518	-0.127147	1.266479	1.842008	2.010976	1.943418	1.647354	0.915829	1.800680	2.411080	-6.805960	0.738462	-0.199157	0.617674	-1.000000	-1.000000	-1.000000	-1.000000	-1.000000	-1.000000	-1.000000	73.172414	0.000000	-1.000000	-1.000000	2151952.000000	1770065801.070532
-31731.345000	-42541.740000	-25066.530000	-7028.640000	-34995.105000	-26871.390000	697.275000	-18251.190000	-7.453239	4.201038	4.961072	5.373743	5.298352	4.598453	0.985289	-7.366318	1.800680	2.411080	-6.805960	0.738462	-0.199157	0.617674	-1.000000	-1.000000	-1.000000	-1.000000	-1.000000	-1.000000	-1.000000	73.172414	0.000000	-1.000000	-1.000000	2151953.000000	1770065801.070538
-31706.550000	-42539.715000	-25081.065000	-7050.510000	-35014.500000	-26887.680000	703.530000	-18225.405000	-5.573091	5.514176	6.587907	6.741475	6.602911	5.287213	-0.099143	-13.408959	1.800680	2.411080	-6.805960	0.738462	-0.199157	0.617674	-1.000000	-1.000000	-1.000000	-1.000000	-1.000000	-1.000000	-1.000000	73.172414	0.000000	-1.000000	-1.000000	2151954.000000	1770065801.070543
-31714.695000	-42537.600000	-25074.765000	-7040.970000	-35003.655000	-26876.385000	709.470000	-18228.645000	-3.548889	2.936221	5.147518	5.210019	5.187120	3.560529	-1.199916	-13.380481	1.800680	2.411080	-6.805960	0.738462	-0.199157	0.617674	-1.000000	-1.000000	-1.000000	-1.000000	-1.000000	-1.000000	-1.000000	73.172414	0.000000	-1.000000	-1.000000	2151955.000000	1770065801.086636
-31731.030000	-42548.310000	-25073.505000	-7033.005000	-34999.245000	-26873.055000	699.075000	-18245.340000	-0.362144	-0.854223	2.091784	2.246323	2.396836	0.915468	-1.735618	-8.249278	1.800680	2.411080	-6.805960	0.738462	-0.199157	0.617674	-1.000000	-1.000000	-1.000000	-1.000000	-1.000000	-1.000000	-1.000000	73.172414	0.000000	-1.000000	-1.000000	2151956.000000	1770065801.086650
-31726.890000	-42542.460000	-25063.515000	-7019.730000	-34987.905000	-26861.805000	700.470000	-18244.080000	2.853921	-3.125211	-0.614586	-0.344707	-0.062990	-0.951916	-1.464414	-2.348323	1.800680	2.411080	-6.805960	0.738462	-0.199157	0.617674	-1.000000	-1.000000	-1.000000	-1.000000	-1.000000	-1.000000	-1.000000	73.172414	0.000000	-1.000000	-1.000000	2151957.000000	1770065801.086664
-31713.390000	-42526.530000	-25049.340000	-7007.265000	-34973.415000	-26846.505000	711.630000	-18230.985000	4.873990	-3.112885	-2.042024	-1.863532	-1.511925	-1.449608	-0.530955	1.750480	1.800680	2.411080	-6.805960	0.738462	-0.199157	0.617674	-1.000000	-1.000000	-1.000000	-1.000000	-1.000000	-1.000000	-1.000000	73.172414	0.000000	-1.000000	-1.000000	2151958.000000	1770065801.086670
-31720.410000	-42532.965000	-25052.895000	-7010.055000	-34978.005000	-26850.240000	707.940000	-18238.365000	5.941443	-1.437345	-2.056446	-2.251419	-1.849749	-0.781972	0.779543	4.596974	1.800680	2.411080	-6.805960	0.738462	-0.199157	0.617674	-1.000000	-1.000000	-1.000000	-1.000000	-1.000000	-1.000000	-1.000000	73.172414	0.000000	-1.000000	-1.000000	2151959.000000	1770065801.086678
-31736.295000	-42549.165000	-25064.505000	-7018.605000	-34988.895000	-26859.780000	694.710000	-18256.545000	5.680211	-0.064631	-1.781681	-2.361959	-2.034781	-0.361711	1.467618	6.613397	1.800680	2.411080	-6.805960	0.738462	-0.199157	0.617674	-1.000000	-1.000000	-1.000000	-1.000000	-1.000000	-1.000000	-1.000000	73.172414	0.000000	-1.000000	-1.000000	2151960.000000	1770065801.086684
-31739.310000	-42554.790000	-25070.130000	-7024.455000	-34994.745000	-26865.765000	691.245000	-18260.505000	2.822413	-1.071769	-2.847206	-3.428913	-3.488233	-1.872820	0.405276	6.915900	3.784480	2.456860	-5.814060	0.742247	-0.197326	0.619078	-1.000000	-1.000000	-1.000000	-1.000000	-1.000000	-1.000000	-1.000000	73.172414	0.000000	-1.000000	-1.000000	2151961.000000	1770065801.086691
-31735.575000	-42551.280000	-25077.240000	-7039.620000	-35004.240000	-26873.955000	697.680000	-18252.180000	-2.004733	-3.898679	-4.850929	-4.982988	-5.620903	-4.660168	-1.868738	5.220020	3.784480	2.456860	-5.814060	0.742247	-0.197326	0.619078	-1.000000	-1.000000	-1.000000	-1.000000	-1.000000	-1.000000	-1.000000	73.172414	0.000000	-1.000000	-1.000000	2151962.000000	1770065801.086698
-31731.570000	-42546.555000	-25072.830000	-7038.495000	-35001.000000	-26869.770000	702.225000	-18245.115000	-6.110125	-5.538437	-5.351431	-4.967720	-5.914437	-5.918549	-3.408485	2.354417	3.784480	2.456860	-5.814060	0.742247	-0.197326	0.619078	-1.000000	-1.000000	-1.000000	-1.000000	-1.000000	-1.000000	-1.000000	73.172414	0.000000	-1.000000	-1.000000	2151963.000000	1770065801.101543
-31744.305000	-42555.330000	-25069.050000	-7029.270000	-34995.015000	-26865.180000	698.535000	-18259.875000	-6.963832	-3.699927	-2.740594	-2.249672	-2.941057	-3.843513	-2.867389	-0.556142	3.784480	2.456860	-5.814060	0.742247	-0.197326	0.619078	-1.000000	-1.000000	-1.000000	-1.000000	-1.000000	-1.000000	-1.000000	73.172414	0.000000	-1.000000	-1.000000	2151964.000000	1770065801.101559
-31762.260000	-42565.230000	-25066.530000	-7020.315000	-34988.310000	-26861.445000	690.030000	-18276.840000	-4.133692	0.941700	1.869224	1.984857	1.929613	0.523131	-0.506749	-2.743109	3.784480	2.456860	-5.814060	0.742247	-0.197326	0.619078	-1.000000	-1.000000	-1.000000	-1.000000	-1.000000	-1.000000	-1.000000	73.172414	0.000000	-1.000000	-1.000000	2151965.000000	1770065801.101574
-31766.265000	-42564.555000	-25061.535000	-7012.755000	-34983.990000	-26856.855000	686.970000	-18274.185000	0.104971	5.321303	5.600316	5.266832	5.794914	4.434954	2.100691	-4.023253	3.784480	2.456860	-5.814060	0.742247	-0.197326	0.619078	-1.000000	-1.000000	-1.000000	-1.000000	-1.000000	-1.000000	-1.000000	73.172414	0.000000	-1.000000	-1.000000	2151966.000000	1770065801.101579
-31756.005000	-42544.890000	-25053.255000	-7007.895000	-34980.030000	-26854.155000	689.355000	-18270.810000	3.216185	6.986350	6.393238	5.933537	6.621302	5.786471	3.292592	-4.090711	3.784480	2.456860	-5.814060	0.742247	-0.197326	0.619078	-1.000000	-1.000000	-1.000000	-1.000000	-1.000000	-1.000000	-1.000000	73.172414	0.000000	-1.000000	-1.000000	2151967.000000	1770065801.101585
-31750.065000	-42545.430000	-25064.505000	-7022.745000	-34997.355000	-26867.610000	684.135000	-18272.565000	4.921731	6.221015	4.377715	4.003604	4.380111	4.313330	2.755319	-2.281841	3.784480	2.456860	-5.814060	0.742247	-0.197326	0.619078	-1.000000	-1.000000	-1.000000	-1.000000	-1.000000	-1.000000	-1.000000	73.172414	0.000000	-1.000000	-1.000000	2151968.000000	1770065801.101590
-31713.120000	-42541.290000	-25068.105000	-7028.145000	-35002.980000	-26865.765000	692.010000	-18244.665000	6.521881	4.606586	0.968738	0.496859	0.403982	1.204102	1.617412	1.770276	3.784480	2.456860	-5.814060	0.742247	-0.197326	0.619078	-1.000000	-1.000000	-1.000000	-1.000000	-1.000000	-1.000000	-1.000000	73.172414	0.000000	-1.000000	-1.000000	2151969.000000	1770065801.101596
-31728.870000	-42545.835000	-25072.875000	-7036.920000	-35005.095000	-26870.175000	696.285000	-18264.015000	8.341847	2.796455	-2.168691	-2.918371	-3.237190	-1.592921	1.143325	6.840138	3.784480	2.456860	-5.814060	0.742247	-0.197326	0.619078	-1.000000	-1.000000	-1.000000	-1.000000	-1.000000	-1.000000	-1.000000	73.172414	0.000000	-1.000000	-1.000000	2151970.000000	1770065801.101600
-31742.640000	-42546.555000	-25077.645000	-7043.670000	-35010.405000	-26874.990000	695.610000	-18277.065000	7.843757	0.394153	-3.660199	-4.336064	-4.462868	-2.477939	1.298131	9.014540	1.678600	0.854560	-3.891300	0.742979	-0.196289	0.625059	-1.000000	-1.000000	-1.000000	-1.000000	-1.000000	-1.000000	-1.000000	73.172414	0.000000	-1.000000	-1.000000	2151971.000000	1770065801.106493
-31728.600000	-42536.835000	-25067.880000	-7035.345000	-35006.895000	-26871.075000	689.130000	-18277.470000	2.786719	-2.511563	-3.105272	-3.059956	-2.837764	-1.467493	0.887251	5.156744	1.678600	0.854560	-3.891300	0.742979	-0.196289	0.625059	-1.000000	-1.000000	-1.000000	-1.000000	-1.000000	-1.000000	-1.000000	73.172414	0.000000	-1.000000	-1.000000	2151972.000000	1770065801.106515
-31731.120000	-42543.990000	-25060.275000	-7019.370000	-34987.860000	-26852.445000	697.455000	-18257.220000	-4.219961	-4.496946	-1.061184	-0.110847	0.273473	0.356806	-0.470365	-2.051561	1.678600	0.854560	-3.891300	0.742979	-0.196289	0.625059	-1.000000	-1.000000	-1.000000	-1.000000	-1.000000	-1.000000	-1.000000	73.172414	0.000000	-1.000000	-1.000000	2151973.000000	1770065801.108902
-31738.815000	-42558.120000	-25064.145000	-7016.715000	-34986.015000	-26850.105000	699.705000	-18230.130000	-8.505990	-4.622121	1.242026	2.706519	3.154705	2.080665	-1.523571	-6.159504	1.678600	0.854560	-3.891300	0.742979	-0.196289	0.625059	-1.000000	-1.000000	-1.000000	-1.000000	-1.000000	-1.000000	-1.000000	73.172414	0.000000	-1.000000	-1.000000	2151974.000000	1770065801.108919
-31735.395000	-42557.580000	-25065.585000	-7020.180000	-34990.380000	-26852.940000	696.870000	-18234.405000	-8.541490	-3.895708	2.163435	3.648614	4.240099	2.741253	-1.339238	-4.139698	1.678600	0.854560	-3.891300	0.742979	-0.196289	0.625059	-1.000000	-1.000000	-1.000000	-1.000000	-1.000000	-1.000000	-1.000000	73.172414	0.000000	-1.000000	-1.000000	2151975.000000	1770065801.113903
-31733.775000	-42557.445000	-25072.155000	-7027.470000	-34999.335000	-26861.310000	689.400000	-18247.320000	-5.861469	-3.570153	0.915499	2.031670	2.670638	1.515433	-0.676185	0.659464	1.678600	0.854560	-3.891300	0.742979	-0.196289	0.625059	-1.000000	-1.000000	-1.000000	-1.000000	-1.000000	-1.000000	-1.000000	73.172414	0.000000	-1.000000	-1.000000	2151976.000000	1770065801.113916
-31753.305000	-42565.230000	-25077.105000	-7030.170000	-35001.405000	-26862.750000	684.135000	-18262.125000	-2.998408	-3.439255	-1.427938	-0.907461	-0.522525	-1.048709	-0.692559	2.712199	1.678600	0.854560	-3.891300	0.742979	-0.196289	0.625059	-1.000000	-1.000000	-1.000000	-1.000000	-1.000000	-1.000000	-1.000000	73.172414	0.000000	-1.000000	-1.000000	2151977.000000	1770065801.116907
-31740.345000	-42552.495000	-25071.615000	-7029.270000	-34998.525000	-26857.845000	695.610000	-18253.125000	-1.907974	-2.363776	-2.781820	-2.859083	-2.967690	-3.142109	-1.409985	-0.092813	1.678600	0.854560	-3.891300	0.742979	-0.196289	0.625059	-1.000000	-1.000000	-1.000000	-1.000000	-1.000000	-1.000000	-1.000000	73.172414	0.000000	-1.000000	-1.000000	2151978.000000	1770065801.116919
-31722.660000	-42553.080000	-25083.405000	-7047.315000	-35016.345000	-26872.695000	699.300000	-18244.980000	-1.645485	0.401598	-1.919655	-2.518218	-3.237771	-3.378114	-1.820567	-4.745493	1.678600	0.854560	-3.891300	0.742979	-0.196289	0.625059	-1.000000	-1.000000	-1.000000	-1.000000	-1.000000	-1.000000	-1.000000	73.172414	0.000000	-1.000000	-1.000000	2151979.000000	1770065801.123260
-31737.330000	-42565.185000	-25081.605000	-7042.590000	-35014.140000	-26866.530000	699.930000	-18245.205000	0.324470	3.856915	0.397688	-0.614738	-1.950989	-1.948119	-1.137539	-6.541191	1.678600	0.854560	-3.891300	0.742979	-0.196289	0.625059	-1.000000	-1.000000	-1.000000	-1.000000	-1.000000	-1.000000	-1.000000	73.172414	0.000000	-1.000000	-1.000000	2151980.000000	1770065801.123271
-31738.455000	-42559.020000	-25067.655000	-7023.645000	-34996.815000	-26848.395000	699.750000	-18247.770000	3.685574	5.765459	2.431049	1.305198	-0.354485	0.135550	0.402631	-4.046257	2.121140	2.624720	-3.448760	0.744688	-0.194519	0.631407	-1.000000	-1.000000	-1.000000	-1.000000	-1.000000	-1.000000	-1.000000	73.172414	0.000000	-1.000000	-1.000000	2151981.000000	1770065801.124955
-31738.815000	-42547.860000	-25065.270000	-7022.295000	-34996.680000	-26850.375000	689.490000	-18255.195000	5.986419	5.531434	3.237271	2.274170	0.883106	1.919675	1.707167	0.035246	2.121140	2.624720	-3.448760	0.744688	-0.194519	0.631407	-1.000000	-1.000000	-1.000000	-1.000000	-1.000000	-1.000000	-1.000000	73.172414	0.000000	-1.000000	-1.000000	2151982.000000	1770065801.124963
-31752.180000	-42548.940000	-25059.690000	-7015.185000	-34990.065000	-26843.220000	691.695000	-18256.545000	5.927549	4.524437	2.867991	1.980066	1.412167	2.540050	1.685960	2.115726	2.121140	2.624720	-3.448760	0.744688	-0.194519	0.631407	-1.000000	-1.000000	-1.000000	-1.000000	-1.000000	-1.000000	-1.000000	73.172414	0.000000	-1.000000	-1.000000	2151983.000000	1770065801.128927
-31768.290000	-42565.590000	-25068.510000	-7025.760000	-35003.835000	-26857.395000	684.000000	-18272.205000	3.270631	3.060978	1.628876	0.713514	1.179508	1.730802	0.413820	1.189750	2.121140	2.624720	-3.448760	0.744688	-0.194519	0.631407	-1.000000	-1.000000	-1.000000	-1.000000	-1.000000	-1.000000	-1.000000	73.172414	0.000000	-1.000000	-1.000000	2151984.000000	1770065801.128935
-31741.965000	-42556.320000	-25066.215000	-7025.670000	-35003.475000	-26855.550000	676.980000	-18274.545000	-0.883413	0.285039	-0.075875	-0.757139	0.516951	0.116003	-1.004734	-0.723179	2.121140	2.624720	-3.448760	0.744688	-0.194519	0.631407	-1.000000	-1.000000	-1.000000	-1.000000	-1.000000	-1.000000	-1.000000	73.172414	0.000000	-1.000000	-1.000000	2151985.000000	1770065801.133173
-31750.515000	-42556.995000	-25063.245000	-7021.980000	-34997.535000	-26846.505000	685.260000	-18272.205000	-3.655983	-3.122103	-1.477737	-1.555373	0.036818	-1.146083	-1.568339	-1.075968	2.121140	2.624720	-3.448760	0.744688	-0.194519	0.631407	-1.000000	-1.000000	-1.000000	-1.000000	-1.000000	-1.000000	-1.000000	73.172414	0.000000	-1.000000	-1.000000	2151986.000000	1770065801.133255
-31755.465000	-42558.390000	-25069.275000	-7030.530000	-35003.430000	-26852.580000	694.530000	-18269.415000	-3.664366	-5.385597	-1.939860	-1.170321	0.247894	-1.134415	-0.916396	0.778671	2.121140	2.624720	-3.448760	0.744688	-0.194519	0.631407	-1.000000	-1.000000	-1.000000	-1.000000	-1.000000	-1.000000	-1.000000	73.172414	0.000000	-1.000000	-1.000000	2151987.000000	1770065801.136958
-31731.885000	-42557.040000	-25076.925000	-7041.060000	-35012.970000	-26861.850000	692.820000	-18274.860000	-2.057205	-5.604828	-1.643715	-0.010108	0.904384	-0.116271	0.549612	3.367715	2.121140	2.624720	-3.448760	0.744688	-0.194519	0.631407	-1.000000	-1.000000	-1.000000	-1.000000	-1.000000	-1.000000	-1.000000	73.172414	0.000000	-1.000000	-1.000000	2151988.000000	1770065801.136968
-31741.830000	-42550.830000	-25071.480000	-7036.290000	-35012.925000	-26861.715000	685.530000	-18300.960000	0.292126	-3.690909	-1.297160	0.685158	0.990430	0.527684	1.781088	4.421583	2.121140	2.624720	-3.448760	0.744688	-0.194519	0.631407	-1.000000	-1.000000	-1.000000	-1.000000	-1.000000	-1.000000	-1.000000	73.172414	0.000000	-1.000000	-1.000000	2151989.000000	1770065801.140942
-31749.975000	-42539.670000	-25054.065000	-7013.655000	-34992.630000	-26843.580000	691.470000	-18291.870000	2.567227	-0.235811	-1.191489	0.173535	-0.126637	-0.129658	1.959826	2.756040	2.121140	2.624720	-3.448760	0.744688	-0.194519	0.631407	-1.000000	-1.000000	-1.000000	-1.000000	-1.000000	-1.000000	-1.000000	73.172414	0.000000	-1.000000	-1.000000	2151990.000000	1770065801.140952
-31748.265000	-42556.095000	-25060.005000	-7014.915000	-34993.530000	-26845.515000	694.035000	-18258.390000	3.342513	3.034407	-0.910872	-0.769528	-1.612687	-1.308644	1.394898	0.122180	-2.548420	3.769220	0.381500	0.749327	-0.194152	0.637144	-1.000000	-1.000000	-1.000000	-1.000000	-1.000000	-1.000000	-1.000000	73.172414	0.000000	-1.000000	-1.000000	2151991.000000	1770065801.145007
-31726.755000	-42545.745000	-25061.490000	-7020.495000	-35000.055000	-26853.570000	690.120000	-18245.790000	2.745996	4.218534	-0.314690	-1.152984	-2.252971	-1.772251	0.826243	-0.075992	-2.548420	3.769220	0.381500	0.749327	-0.194152	0.637144	-1.000000	-1.000000	-1.000000	-1.000000	-1.000000	-1.000000	-1.000000	73.172414	0.000000	-1.000000	-1.000000	2151992.000000	1770065801.145018
-31717.890000	-42543.630000	-25065.045000	-7025.175000	-35007.570000	-26860.365000	679.680000	-18247.095000	2.382431	3.254137	0.248376	-0.917102	-1.815646	-1.283795	0.314187	3.035828	-2.548420	3.769220	0.381500	0.749327	-0.194152	0.637144	-1.000000	-1.000000	-1.000000	-1.000000	-1.000000	-1.000000	-1.000000	73.172414	0.000000	-1.000000	-1.000000	2151993.000000	1770065801.148946
-31715.820000	-42546.645000	-25068.960000	-7027.920000	-35009.640000	-26861.670000	679.680000	-18248.265000	2.419086	1.447901	0.570099	-0.379302	-0.787320	-0.306913	-0.447963	6.420277	-2.548420	3.769220	0.381500	0.749327	-0.194152	0.637144	-1.000000	-1.000000	-1.000000	-1.000000	-1.000000	-1.000000	-1.000000	73.172414	0.000000	-1.000000	-1.000000	2151994.000000	1770065801.148957
-31733.325000	-42561.495000	-25089.705000	-7053.660000	-35031.375000	-26879.715000	682.650000	-18257.130000	1.198714	-0.655609	0.293831	-0.158006	-0.097623	0.299266	-1.513143	6.092426	-2.548420	3.769220	0.381500	0.749327	-0.194152	0.637144	-1.000000	-1.000000	-1.000000	-1.000000	-1.000000	-1.000000	-1.000000	73.172414	0.000000	-1.000000	-1.000000	2151995.000000	1770065801.152947
-31754.295000	-42572.520000	-25100.595000	-7067.745000	-35040.735000	-26887.320000	689.400000	-18250.020000	-2.556663	-3.143869	-0.885909	-0.875130	-0.469338	-0.054429	-2.497810	0.919961	-2.548420	3.769220	0.381500	0.749327	-0.194152	0.637144	-1.000000	-1.000000	-1.000000	-1.000000	-1.000000	-1.000000	-1.000000	73.172414	0.000000	-1.000000	-1.000000	2151996.000000	1770065801.152957
-31738.905000	-42562.890000	-25087.995000	-7051.770000	-35028.270000	-26873.730000	693.720000	-18235.665000	-7.839911	-5.185412	-2.059733	-1.781552	-1.095322	-0.524203	-2.520843	-5.831044	-2.548420	3.769220	0.381500	0.749327	-0.194152	0.637144	-1.000000	-1.000000	-1.000000	-1.000000	-1.000000	-1.000000	-1.000000	73.172414	0.000000	-1.000000	-1.000000	2151997.000000	1770065801.157089
-31730.355000	-42553.305000	-25071.930000	-7030.305000	-35010.720000	-26857.080000	694.395000	-18241.920000	-10.758716	-5.080289	-1.583277	-1.118824	-0.307985	0.368934	-0.983657	-9.292734	-2.548420	3.769220	0.381500	0.749327	-0.194152	0.637144	-1.000000	-1.000000	-1.000000	-1.000000	-1.000000	-1.000000	-1.000000	73.172414	0.000000	-1.000000	-1.000000	2151998.000000	1770065801.157099
-31749.660000	-42559.965000	-25069.500000	-7023.780000	-35007.120000	-26856.180000	687.420000	-18260.505000	-8.058015	-2.249650	0.836367	1.477225	2.031193	2.541581	1.263658	-8.358039	-2.548420	3.769220	0.381500	0.749327	-0.194152	0.637144	-1.000000	-1.000000	-1.000000	-1.000000	-1.000000	-1.000000	-1.000000	73.172414	0.000000	-1.000000	-1.000000	2151999.000000	1770065801.161744
-31734.900000	-42553.800000	-25069.140000	-7026.480000	-35010.180000	-26858.205000	690.345000	-18253.170000	-1.173106	1.920109	3.674412	4.292521	4.193992	4.243732	2.520876	-6.220663	-2.548420	3.769220	0.381500	0.749327	-0.194152	0.637144	-1.000000	-1.000000	-1.000000	-1.000000	-1.000000	-1.000000	-1.000000	73.172414	0.000000	-1.000000	-1.000000	2152000.000000	1770065801.161754
-31739.895000	-42570.495000	-25075.305000	-7032.195000	-35014.590000	-26862.885000	685.395000	-18262.215000	5.539416	5.147345	5.095535	5.351943	4.609834	4.131205	2.167274	-5.097225	-3.631880	3.738700	2.258480	0.754576	-0.201660	0.634947	-1.000000	-1.000000	-1.000000	-1.000000	-1.000000	-1.000000	-1.000000	73.172414	0.000000	-1.000000	-1.000000	2152001.000000	1770065801.165060
-31737.195000	-42564.555000	-25060.725000	-7013.565000	-34994.970000	-26837.955000	695.340000	-18249.615000	8.566069	5.569125	4.434657	4.253036	3.415594	2.666043	1.169018	-3.765613	-3.631880	3.738700	2.258480	0.754576	-0.201660	0.634947	-1.000000	-1.000000	-1.000000	-1.000000	-1.000000	-1.000000	-1.000000	73.172414	0.000000	-1.000000	-1.000000	2152002.000000	1770065801.165070
-31734.045000	-42547.050000	-25063.515000	-7021.080000	-35002.080000	-26841.015000	702.540000	-18242.235000	7.258812	3.588468	2.570405	2.218371	1.895409	1.332750	0.720287	-0.239904	-3.631880	3.738700	2.258480	0.754576	-0.201660	0.634947	-1.000000	-1.000000	-1.000000	-1.000000	-1.000000	-1.000000	-1.000000	73.172414	0.000000	-1.000000	-1.000000	2152003.000000	1770065801.170520
-31749.570000	-42549.390000	-25082.820000	-7047.180000	-35023.365000	-26861.490000	703.485000	-18264.195000	3.791041	1.741536	0.612176	0.269787	0.558993	0.506329	0.813208	4.962985	-3.631880	3.738700	2.258480	0.754576	-0.201660	0.634947	-1.000000	-1.000000	-1.000000	-1.000000	-1.000000	-1.000000	-1.000000	73.172414	0.000000	-1.000000	-1.000000	2152004.000000	1770065801.170532
-31748.670000	-42550.380000	-25080.795000	-7043.715000	-35020.215000	-26857.305000	698.355000	-18277.515000	0.548941	1.371043	-1.288242	-1.719716	-1.182131	-0.841726	0.374663	8.331020	-3.631880	3.738700	2.258480	0.754576	-0.201660	0.634947	-1.000000	-1.000000	-1.000000	-1.000000	-1.000000	-1.000000	-1.000000	73.172414	0.000000	-1.000000	-1.000000	2152005.000000	1770065801.173107
-31752.450000	-42545.790000	-25077.240000	-7036.740000	-35017.065000	-26855.370000	689.310000	-18262.305000	-1.728683	1.233337	-3.347840	-3.955041	-3.550983	-3.271511	-1.315813	7.315909	-3.631880	3.738700	2.258480	0.754576	-0.201660	0.634947	-1.000000	-1.000000	-1.000000	-1.000000	-1.000000	-1.000000	-1.000000	73.172414	0.000000	-1.000000	-1.000000	2152006.000000	1770065801.173118
-31756.680000	-42554.340000	-25078.005000	-7033.185000	-35018.010000	-26854.740000	687.285000	-18249.525000	-3.092754	-0.333632	-5.378332	-6.046535	-5.966307	-6.092775	-3.648955	3.869191	-3.631880	3.738700	2.258480	0.754576	-0.201660	0.634947	-1.000000	-1.000000	-1.000000	-1.000000	-1.000000	-1.000000	-1.000000	73.172414	0.000000	-1.000000	-1.000000	2152007.000000	1770065801.177751
-31760.505000	-42554.160000	-25065.090000	-7017.750000	-35004.420000	-26843.805000	689.715000	-18265.950000	-3.314138	-3.259190	-6.381331	-6.858398	-7.159440	-7.637715	-4.960616	1.351364	-3.631880	3.738700	2.258480	0.754576	-0.201660	0.634947	-1.000000	-1.000000	-1.000000	-1.000000	-1.000000	-1.000000	-1.000000	73.172414	0.000000	-1.000000	-1.000000	2152008.000000	1770065801.177761
-31754.565000	-42545.790000	-25052.805000	-7006.815000	-34995.780000	-26835.570000	693.360000	-18282.690000	-2.346943	-5.608044	-4.736624	-4.725740	-5.371063	-5.940172	-3.850579	-0.080220	-3.631880	3.738700	2.258480	0.754576	-0.201660	0.634947	-1.000000	-1.000000	-1.000000	-1.000000	-1.000000	-1.000000	-1.000000	73.172414	0.000000	-1.000000	-1.000000	2152009.000000	1770065801.183274
-31740.165000	-42536.745000	-25048.080000	-6998.490000	-34988.715000	-26825.310000	701.730000	-18282.105000	-0.581928	-5.199062	-0.106925	0.552618	-0.288978	-0.753705	-0.359847	-1.959495	-3.631880	3.738700	2.258480	0.754576	-0.201660	0.634947	-1.000000	-1.000000	-1.000000	-1.000000	-1.000000	-1.000000	-1.000000	73.172414	0.000000	-1.000000	-1.000000	2152010.000000	1770065801.183284
-31729.050000	-42533.595000	-25057.620000	-7013.565000	-35009.145000	-26845.605000	695.610000	-18264.555000	1.683167	-1.856930	4.987549	6.060179	5.200540	4.913779	3.721085	-3.876600	-1.312360	3.158820	4.806900	0.749998	-0.213256	0.633299	-1.000000	-1.000000	-1.000000	-1.000000	-1.000000	-1.000000	-1.000000	73.172414	0.000000	-1.000000	-1.000000	2152011.000000	1770065801.185115
-31713.570000	-42541.515000	-25080.300000	-7046.280000	-35039.430000	-26873.415000	691.245000	-18233.955000	4.172758	1.957725	6.948971	7.767083	6.990022	6.820554	5.652391	-3.508767	-1.312360	3.158820	4.806900	0.749998	-0.213256	0.633299	-1.000000	-1.000000	-1.000000	-1.000000	-1.000000	-1.000000	-1.000000	73.172414	0.000000	-1.000000	-1.000000	2152012.000000	1770065801.185125
-31733.415000	-42550.875000	-25079.805000	-7042.950000	-35033.130000	-26863.470000	699.030000	-18252.360000	6.005786	3.448605	4.652789	4.617051	4.069441	3.989609	4.176155	0.398694	-1.312360	3.158820	4.806900	0.749998	-0.213256	0.633299	-1.000000	-1.000000	-1.000000	-1.000000	-1.000000	-1.000000	-1.000000	73.172414	0.000000	-1.000000	-1.000000	2152013.000000	1770065801.192544
-31769.370000	-42569.145000	-25084.215000	-7038.720000	-35032.995000	-26867.295000	688.815000	-18290.070000	4.915958	1.729203	0.122495	-0.600471	-0.588822	-0.458033	0.817651	4.811785	-1.312360	3.158820	4.806900	0.749998	-0.213256	0.633299	-1.000000	-1.000000	-1.000000	-1.000000	-1.000000	-1.000000	-1.000000	73.172414	0.000000	-1.000000	-1.000000	2152014.000000	1770065801.192555
-31737.195000	-42557.400000	-25077.510000	-7030.395000	-35030.790000	-26867.745000	685.710000	-18267.570000	-0.258371	-1.879127	-3.877205	-4.466877	-3.648004	-3.317504	-2.058532	4.820708	-1.312360	3.158820	4.806900	0.749998	-0.213256	0.633299	-1.000000	-1.000000	-1.000000	-1.000000	-1.000000	-1.000000	-1.000000	73.172414	0.000000	-1.000000	-1.000000	2152015.000000	1770065801.193034
-31708.170000	-42538.995000	-25069.545000	-7024.770000	-35030.070000	-26867.205000	689.040000	-18243.810000	-5.606250	-4.120500	-5.425099	-5.396930	-3.976109	-3.687638	-3.135907	0.522224	-1.312360	3.158820	4.806900	0.749998	-0.213256	0.633299	-1.000000	-1.000000	-1.000000	-1.000000	-1.000000	-1.000000	-1.000000	73.172414	0.000000	-1.000000	-1.000000	2152016.000000	1770065801.193043
-31715.865000	-42542.325000	-25066.395000	-7018.470000	-35022.465000	-26856.045000	702.135000	-18230.040000	-6.083168	-2.357538	-3.997609	-3.647968	-2.178805	-2.012098	-2.147210	-2.881439	-1.312360	3.158820	4.806900	0.749998	-0.213256	0.633299	-1.000000	-1.000000	-1.000000	-1.000000	-1.000000	-1.000000	-1.000000	73.172414	0.000000	-1.000000	-1.000000	2152017.000000	1770065801.197219
-31716.945000	-42547.590000	-25068.015000	-7016.490000	-35020.980000	-26851.185000	704.475000	-18222.615000	-2.387091	2.034819	-0.881958	-0.618530	0.474383	0.816508	0.287414	-1.778345	-1.312360	3.158820	4.806900	0.749998	-0.213256	0.633299	-1.000000	-1.000000	-1.000000	-1.000000	-1.000000	-1.000000	-1.000000	73.172414	0.000000	-1.000000	-1.000000	2152018.000000	1770065801.197229
-31722.435000	-42543.630000	-25065.990000	-7013.385000	-35019.315000	-26847.990000	699.930000	-18236.115000	0.737205	5.179131	1.904150	2.082483	2.721791	3.515911	2.545569	1.979336	-1.312360	3.158820	4.806900	0.749998	-0.213256	0.633299	-1.000000	-1.000000	-1.000000	-1.000000	-1.000000	-1.000000	-1.000000	73.172414	0.000000	-1.000000	-1.000000	2152019.000000	1770065801.200938
-31730.490000	-42547.320000	-25079.895000	-7033.365000	-35036.190000	-26865.090000	700.110000	-18245.655000	0.229949	4.886750	3.299712	3.590864	3.912290	4.934500	2.962903	3.182712	-1.312360	3.158820	4.806900	0.749998	-0.213256	0.633299	-1.000000	-1.000000	-1.000000	-1.000000	-1.000000	-1.000000	-1.000000	73.172414	0.000000	-1.000000	-1.000000	2152020.000000	1770065801.200948
-31730.580000	-42549.480000	-25086.330000	-7043.985000	-35043.930000	-26873.505000	706.410000	-18240.930000	-3.023661	1.991076	3.463006	3.932188	4.084241	4.664545	1.418510	-0.860944	-1.327620	3.387720	6.134520	0.742796	-0.211425	0.627745	-1.000000	-1.000000	-1.000000	-1.000000	-1.000000	-1.000000	-1.000000	73.172414	0.000000	-1.000000	-1.000000	2152021.000000	1770065801.204833
-31729.590000	-42545.070000	-25078.095000	-7033.230000	-35034.930000	-26864.055000	705.870000	-18242.055000	-5.188714	-0.967435	2.952395	3.326966	3.291996	2.848345	-0.744474	-6.669134	-1.327620	3.387720	6.134520	0.742796	-0.211425	0.627745	-1.000000	-1.000000	-1.000000	-1.000000	-1.000000	-1.000000	-1.000000	73.172414	0.000000	-1.000000	-1.000000	2152022.000000	1770065801.204842
-31730.850000	-42536.970000	-25061.400000	-7014.015000	-35018.505000	-26847.495000	708.570000	-18250.380000	-3.123725	-1.839037	2.303344	2.061084	1.723180	0.350935	-2.029740	-8.618987	-1.327620	3.387720	6.134520	0.742796	-0.211425	0.627745	-1.000000	-1.000000	-1.000000	-1.000000	-1.000000	-1.000000	-1.000000	73.172414	0.000000	-1.000000	-1.000000	2152023.000000	1770065801.209051
-31763.430000	-42557.850000	-25070.490000	-7017.390000	-35027.190000	-26857.305000	694.260000	-18283.680000	1.399465	-0.966419	1.634006	0.576606	-0.042178	-1.539620	-1.943209	-6.077810	-1.327620	3.387720	6.134520	0.742796	-0.211425	0.627745	-1.000000	-1.000000	-1.000000	-1.000000	-1.000000	-1.000000	-1.000000	73.172414	0.000000	-1.000000	-1.000000	2152024.000000	1770065801.209062
-31747.905000	-42554.205000	-25072.245000	-7021.980000	-35033.265000	-26860.230000	693.270000	-18254.790000	3.522195	-0.779998	0.173107	-1.195248	-1.951356	-2.699081	-1.460669	-2.819203	-1.327620	3.387720	6.134520	0.742796	-0.211425	0.627745	-1.000000	-1.000000	-1.000000	-1.000000	-1.000000	-1.000000	-1.000000	73.172414	0.000000	-1.000000	-1.000000	2152025.000000	1770065801.212971
-31726.350000	-42547.680000	-25066.575000	-7016.355000	-35025.660000	-26847.405000	703.170000	-18231.840000	2.360435	-2.120594	-2.403823	-3.381640	-4.136313	-3.744477	-1.574158	-0.135203	-1.327620	3.387720	6.134520	0.742796	-0.211425	0.627745	-1.000000	-1.000000	-1.000000	-1.000000	-1.000000	-1.000000	-1.000000	73.172414	0.000000	-1.000000	-1.000000	2152026.000000	1770065801.212981
-31721.985000	-42543.630000	-25058.745000	-7006.410000	-35016.705000	-26837.955000	701.145000	-18250.020000	1.516065	-3.054672	-4.607953	-4.934382	-5.525703	-4.224884	-1.808712	3.387572	-1.327620	3.387720	6.134520	0.742796	-0.211425	0.627745	-1.000000	-1.000000	-1.000000	-1.000000	-1.000000	-1.000000	-1.000000	73.172414	0.000000	-1.000000	-1.000000	2152027.000000	1770065801.216906
-31721.985000	-42548.895000	-25070.805000	-7021.890000	-35032.680000	-26852.760000	699.570000	-18248.130000	2.912547	-2.107383	-4.689496	-4.467874	-4.742714	-3.261830	-1.222327	7.029971	-1.327620	3.387720	6.134520	0.742796	-0.211425	0.627745	-1.000000	-1.000000	-1.000000	-1.000000	-1.000000	-1.000000	-1.000000	73.172414	0.000000	-1.000000	-1.000000	2152028.000000	1770065801.216917
-31747.545000	-42557.175000	-25085.655000	-7042.500000	-35049.195000	-26865.945000	709.335000	-18232.065000	4.588214	-0.047833	-2.639890	-1.994519	-1.952025	-1.056463	0.321733	8.677511	-1.327620	3.387720	6.134520	0.742796	-0.211425	0.627745	-1.000000	-1.000000	-1.000000	-1.000000	-1.000000	-1.000000	-1.000000	73.172414	0.000000	-1.000000	-1.000000	2152029.000000	1770065801.221117
-31758.120000	-42558.120000	-25084.800000	-7043.625000	-35052.210000	-26867.475000	701.055000	-18247.050000	3.649946	1.632691	0.091602	0.997678	1.181179	1.208525	2.085619	7.621728	-1.327620	3.387720	6.134520	0.742796	-0.211425	0.627745	-1.000000	-1.000000	-1.000000	-1.000000	-1.000000	-1.000000	-1.000000	73.172414	0.000000	-1.000000	-1.000000	2152030.000000	1770065801.221127
-31724.145000	-42548.670000	-25082.145000	-7040.745000	-35056.170000	-26871.930000	687.780000	-18262.305000	0.278043	2.332816	1.924694	2.682273	2.735618	2.121704	2.747706	4.138534	-8.362480	2.456860	8.179360	0.737242	-0.201171	0.618346	-1.000000	-1.000000	-1.000000	-1.000000	-1.000000	-1.000000	-1.000000	73.172414	0.000000	-1.000000	-1.000000	2152031.000000	1770065801.228097
-31712.850000	-42542.235000	-25071.165000	-7025.220000	-35040.915000	-26854.965000	698.355000	-18241.290000	-1.866294	2.471320	2.212804	2.354775	2.119594	1.298419	1.763741	-0.443097	-8.362480	2.456860	8.179360	0.737242	-0.201171	0.618346	-1.000000	-1.000000	-1.000000	-1.000000	-1.000000	-1.000000	-1.000000	73.172414	0.000000	-1.000000	-1.000000	2152032.000000	1770065801.228107
-31720.950000	-42548.670000	-25070.040000	-7021.530000	-35039.340000	-26850.465000	702.045000	-18230.265000	-0.596185	2.545047	1.666238	1.187388	0.893005	0.291203	0.497962	-3.393497	-8.362480	2.456860	8.179360	0.737242	-0.201171	0.618346	-1.000000	-1.000000	-1.000000	-1.000000	-1.000000	-1.000000	-1.000000	73.172414	0.000000	-1.000000	-1.000000	2152033.000000	1770065801.232011
-31730.985000	-42549.345000	-25074.450000	-7028.055000	-35047.170000	-26856.270000	698.220000	-18242.370000	1.509828	2.193585	1.211861	0.650098	0.717751	0.552489	0.285922	-3.780247	-8.362480	2.456860	8.179360	0.737242	-0.201171	0.618346	-1.000000	-1.000000	-1.000000	-1.000000	-1.000000	-1.000000	-1.000000	73.172414	0.000000	-1.000000	-1.000000	2152034.000000	1770065801.232022
-31744.035000	-42560.370000	-25081.155000	-7030.125000	-35050.995000	-26856.900000	689.535000	-18259.650000	0.362720	0.585136	0.640985	0.571227	1.065261	1.176246	0.375224	-4.049823	-8.362480	2.456860	8.179360	0.737242	-0.201171	0.618346	-1.000000	-1.000000	-1.000000	-1.000000	-1.000000	-1.000000	-1.000000	73.172414	0.000000	-1.000000	-1.000000	2152035.000000	1770065801.232779
-31735.665000	-42554.295000	-25078.365000	-7028.055000	-35047.440000	-26851.230000	694.215000	-18251.325000	-4.416247	-2.152892	-0.520536	0.094870	0.695859	0.747660	-0.392509	-5.545505	-8.362480	2.456860	8.179360	0.737242	-0.201171	0.618346	-1.000000	-1.000000	-1.000000	-1.000000	-1.000000	-1.000000	-1.000000	73.172414	0.000000	-1.000000	-1.000000	2152036.000000	1770065801.232788
-31739.265000	-42556.770000	-25088.895000	-7045.515000	-35062.515000	-26863.020000	697.995000	-18250.695000	-8.700379	-4.327917	-1.507904	-0.441708	-0.004336	-0.151999	-1.509361	-6.224207	-8.362480	2.456860	8.179360	0.737242	-0.201171	0.618346	-1.000000	-1.000000	-1.000000	-1.000000	-1.000000	-1.000000	-1.000000	73.172414	0.000000	-1.000000	-1.000000	2152037.000000	1770065801.242227
-31755.105000	-42570.855000	-25103.880000	-7063.155000	-35079.030000	-26879.130000	687.870000	-18270.495000	-8.297202	-4.304364	-1.293325	-0.292966	-0.091506	-0.351522	-1.982924	-4.547502	-8.362480	2.456860	8.179360	0.737242	-0.201171	0.618346	-1.000000	-1.000000	-1.000000	-1.000000	-1.000000	-1.000000	-1.000000	73.172414	0.000000	-1.000000	-1.000000	2152038.000000	1770065801.242240
-31758.210000	-42563.790000	-25093.350000	-7050.915000	-35067.915000	-26866.080000	687.510000	-18286.245000	-3.256476	-2.320356	-0.203167	0.223416	0.248271	0.000745	-1.664989	-1.490453	-8.362480	2.456860	8.179360	0.737242	-0.201171	0.618346	-1.000000	-1.000000	-1.000000	-1.000000	-1.000000	-1.000000	-1.000000	73.172414	0.000000	-1.000000	-1.000000	2152039.000000	1770065801.242451
-31784.310000	-42572.295000	-25082.505000	-7035.120000	-35052.030000	-26851.815000	687.195000	-18295.740000	2.230476	0.057006	0.897971	0.579611	0.655564	0.504231	-0.615593	1.459217	-8.362480	2.456860	8.179360	0.737242	-0.201171	0.618346	-1.000000	-1.000000	-1.000000	-1.000000	-1.000000	-1.000000	-1.000000	73.172414	0.000000	-1.000000	-1.000000	2152040.000000	1770065801.242457
-31792.455000	-42582.555000	-25077.060000	-7026.435000	-35045.865000	-26844.390000	686.295000	-18285.165000	3.987350	1.356468	1.678593	0.860518	1.227240	1.174382	0.867755	3.450556	-9.949520	2.136400	6.210820	0.738890	-0.202453	0.612303	-1.000000	-1.000000	-1.000000	-1.000000	-1.000000	-1.000000	-1.000000	73.172414	0.000000	-1.000000	-1.000000	2152041.000000	1770065801.244952
-31755.465000	-42560.505000	-25070.805000	-7021.170000	-35039.520000	-26832.915000	695.430000	-18256.230000	2.619340	1.510150	2.085030	1.194529	1.792802	1.790428	2.029385	4.643655	-9.949520	2.136400	6.210820	0.738890	-0.202453	0.612303	-1.000000	-1.000000	-1.000000	-1.000000	-1.000000	-1.000000	-1.000000	73.172414	0.000000	-1.000000	-1.000000	2152042.000000	1770065801.244959
-31749.120000	-42544.980000	-25073.865000	-7026.570000	-35048.115000	-26836.425000	690.390000	-18252.450000	2.550252	2.167691	2.070210	1.385268	1.839074	1.949362	2.444559	6.086504	-9.949520	2.136400	6.210820	0.738890	-0.202453	0.612303	-1.000000	-1.000000	-1.000000	-1.000000	-1.000000	-1.000000	-1.000000	73.172414	0.000000	-1.000000	-1.000000	2152043.000000	1770065801.249062
-31760.595000	-42558.345000	-25081.830000	-7033.635000	-35056.575000	-26842.410000	686.475000	-18262.080000	5.480797	4.109950	1.343872	0.819990	0.671488	1.039483	2.049557	7.711679	-9.949520	2.136400	6.210820	0.738890	-0.202453	0.612303	-1.000000	-1.000000	-1.000000	-1.000000	-1.000000	-1.000000	-1.000000	73.172414	0.000000	-1.000000	-1.000000	2152044.000000	1770065801.249073
-31741.470000	-42557.670000	-25089.525000	-7046.145000	-35066.115000	-26849.925000	693.405000	-18250.425000	8.392775	5.377980	-0.372267	-0.882887	-1.846254	-1.239491	0.893360	7.605382	-9.949520	2.136400	6.210820	0.738890	-0.202453	0.612303	-1.000000	-1.000000	-1.000000	-1.000000	-1.000000	-1.000000	-1.000000	73.172414	0.000000	-1.000000	-1.000000	2152045.000000	1770065801.257532
-31708.890000	-42548.895000	-25093.080000	-7057.170000	-35072.505000	-26850.690000	700.200000	-18247.635000	8.867259	4.137809	-2.327299	-2.768984	-4.242301	-3.624069	-0.447877	4.529484	-9.949520	2.136400	6.210820	0.738890	-0.202453	0.612303	-1.000000	-1.000000	-1.000000	-1.000000	-1.000000	-1.000000	-1.000000	73.172414	0.000000	-1.000000	-1.000000	2152046.000000	1770065801.257542
-31725.810000	-42557.175000	-25097.760000	-7061.895000	-35078.670000	-26856.315000	685.665000	-18277.740000	7.372390	1.134307	-3.133326	-3.339543	-4.620900	-4.206449	-1.214342	-0.540353	-9.949520	2.136400	6.210820	0.738890	-0.202453	0.612303	-1.000000	-1.000000	-1.000000	-1.000000	-1.000000	-1.000000	-1.000000	73.172414	0.000000	-1.000000	-1.000000	2152047.000000	1770065801.257778
-31743.450000	-42577.200000	-25109.730000	-7068.015000	-35087.265000	-26863.515000	676.170000	-18265.095000	3.720554	-2.425528	-2.777069	-2.627086	-3.123232	-3.007777	-1.504886	-5.444693	-9.949520	2.136400	6.210820	0.738890	-0.202453	0.612303	-1.000000	-1.000000	-1.000000	-1.000000	-1.000000	-1.000000	-1.000000	73.172414	0.000000	-1.000000	-1.000000	2152048.000000	1770065801.257787
-31737.555000	-42575.850000	-25099.515000	-7055.010000	-35076.420000	-26850.915000	677.925000	-18251.685000	-2.627132	-5.942841	-2.481881	-1.898898	-1.534019	-1.710392	-1.903139	-7.828998	-9.949520	2.136400	6.210820	0.738890	-0.202453	0.612303	-1.000000	-1.000000	-1.000000	-1.000000	-1.000000	-1.000000	-1.000000	73.172414	0.000000	-1.000000	-1.000000	2152049.000000	1770065801.267252
-31749.300000	-42578.280000	-25100.370000	-7054.695000	-35077.410000	-26851.995000	675.315000	-18273.555000	-9.622579	-7.968322	-2.411099	-1.465167	-0.634788	-1.052516	-2.325217	-7.187353	-9.949520	2.136400	6.210820	0.738890	-0.202453	0.612303	-1.000000	-1.000000	-1.000000	-1.000000	-1.000000	-1.000000	-1.000000	73.172414	0.000000	-1.000000	-1.000000	2152050.000000	1770065801.267264
-31754.070000	-42570.990000	-25095.870000	-7047.720000	-35069.940000	-26840.430000	679.230000	-18281.205000	-14.595386	-7.217397	-1.568836	-0.463027	0.332743	-0.357790	-2.198646	-6.028214	-3.616620	1.953280	1.754900	0.739622	-0.214660	0.607420	-1.000000	-1.000000	-1.000000	-1.000000	-1.000000	-1.000000	-1.000000	73.172414	0.000000	-1.000000	-1.000000	2152051.000000	1770065801.267274
-31761.090000	-42566.040000	-25083.765000	-7032.015000	-35052.885000	-26820.405000	685.260000	-18289.620000	-16.030060	-3.984210	0.735482	1.858130	2.385030	1.403725	-0.989947	-6.089864	-3.616620	1.953280	1.754900	0.739622	-0.214660	0.607420	-1.000000	-1.000000	-1.000000	-1.000000	-1.000000	-1.000000	-1.000000	73.172414	0.000000	-1.000000	-1.000000	2152052.000000	1770065801.267280
-31772.160000	-42562.980000	-25082.100000	-7033.680000	-35052.795000	-26817.885000	691.920000	-18277.920000	-12.977307	0.722115	4.237378	5.241687	5.608176	4.566151	1.405284	-5.610118	-3.616620	1.953280	1.754900	0.739622	-0.214660	0.607420	-1.000000	-1.000000	-1.000000	-1.000000	-1.000000	-1.000000	-1.000000	73.172414	0.000000	-1.000000	-1.000000	2152053.000000	1770065801.270746
-31770.090000	-42567.120000	-25098.390000	-7056.720000	-35074.395000	-26835.255000	694.710000	-18261.540000	-6.260337	5.342493	7.246628	7.839434	8.159266	7.483480	3.915135	-2.209739	-3.616620	1.953280	1.754900	0.739622	-0.214660	0.607420	-1.000000	-1.000000	-1.000000	-1.000000	-1.000000	-1.000000	-1.000000	73.172414	0.000000	-1.000000	-1.000000	2152054.000000	1770065801.270758
-31756.455000	-42572.970000	-25102.260000	-7061.220000	-35078.400000	-26837.640000	687.645000	-18250.020000	1.679758	7.703863	7.398678	7.275861	7.385440	7.395958	4.792968	4.244742	-3.616620	1.953280	1.754900	0.739622	-0.214660	0.607420	-1.000000	-1.000000	-1.000000	-1.000000	-1.000000	-1.000000	-1.000000	73.172414	0.000000	-1.000000	-1.000000	2152055.000000	1770065801.273108
-31741.920000	-42570.495000	-25097.265000	-7054.920000	-35076.195000	-26834.265000	677.385000	-18252.405000	9.273515	6.779587	4.070815	3.170327	2.824337	3.513295	3.324037	11.554663	-3.616620	1.953280	1.754900	0.739622	-0.214660	0.607420	-1.000000	-1.000000	-1.000000	-1.000000	-1.000000	-1.000000	-1.000000	73.172414	0.000000	-1.000000	-1.000000	2152056.000000	1770065801.273119
-31741.290000	-42570.630000	-25098.120000	-7055.370000	-35077.995000	-26833.230000	672.840000	-18256.860000	15.607988	3.843580	-0.871763	-2.408639	-3.212935	-2.121657	0.329422	15.622484	-3.616620	1.953280	1.754900	0.739622	-0.214660	0.607420	-1.000000	-1.000000	-1.000000	-1.000000	-1.000000	-1.000000	-1.000000	73.172414	0.000000	-1.000000	-1.000000	2152057.000000	1770065801.277100
-31766.040000	-42580.305000	-25100.775000	-7053.300000	-35071.470000	-26825.940000	676.620000	-18285.300000	18.147769	0.773411	-5.121674	-7.005578	-7.882583	-6.743402	-2.659107	12.436823	-3.616620	1.953280	1.754900	0.739622	-0.214660	0.607420	-1.000000	-1.000000	-1.000000	-1.000000	-1.000000	-1.000000	-1.000000	73.172414	0.000000	-1.000000	-1.000000	2152058.000000	1770065801.277121
-31770.630000	-42577.515000	-25096.095000	-7045.605000	-35062.740000	-26814.465000	682.380000	-18284.625000	13.916572	-1.819769	-7.333310	-8.957762	-9.254648	-8.410059	-4.169232	2.171008	-3.616620	1.953280	1.754900	0.739622	-0.214660	0.607420	-1.000000	-1.000000	-1.000000	-1.000000	-1.000000	-1.000000	-1.000000	73.172414	0.000000	-1.000000	-1.000000	2152059.000000	1770065801.280983
-31763.340000	-42586.830000	-25099.965000	-7050.285000	-35069.445000	-26817.615000	674.145000	-18272.790000	3.833105	-4.106243	-7.005012	-7.654067	-7.011114	-6.734094	-3.672258	-9.287016	-3.616620	1.953280	1.754900	0.739622	-0.214660	0.607420	-1.000000	-1.000000	-1.000000	-1.000000	-1.000000	-1.000000	-1.000000	73.172414	0.000000	-1.000000	-1.000000	2152060.000000	1770065801.280993
-31755.780000	-42605.640000	-25109.280000	-7060.140000	-35076.195000	-26820.900000	676.620000	-18261.540000	-6.492080	-6.059087	-4.761039	-4.241254	-3.017772	-3.365223	-2.036858	-14.657709	2.716280	1.129240	-2.166920	0.737791	-0.220642	0.603392	-1.000000	-1.000000	-1.000000	-1.000000	-1.000000	-1.000000	-1.000000	73.172414	0.000000	-1.000000	-1.000000	2152061.000000	1770065801.285010
-31742.370000	-42575.310000	-25099.740000	-7056.270000	-35066.790000	-26808.795000	689.895000	-18258.525000	-11.416329	-6.727621	-1.721861	-0.477144	0.620950	-0.119771	-0.348455	-11.575049	2.716280	1.129240	-2.166920	0.737791	-0.220642	0.603392	-1.000000	-1.000000	-1.000000	-1.000000	-1.000000	-1.000000	-1.000000	73.172414	0.000000	-1.000000	-1.000000	2152062.000000	1770065801.285019
-31747.860000	-42556.860000	-25102.665000	-7065.180000	-35079.390000	-26820.675000	678.915000	-18271.305000	-9.870780	-4.053135	1.811366	3.139079	3.586461	2.774639	1.005729	-4.049804	2.716280	1.129240	-2.166920	0.737791	-0.220642	0.603392	-1.000000	-1.000000	-1.000000	-1.000000	-1.000000	-1.000000	-1.000000	73.172414	0.000000	-1.000000	-1.000000	2152063.000000	1770065801.290783
-31759.605000	-42574.815000	-25110.720000	-7067.430000	-35085.870000	-26826.390000	666.585000	-18285.165000	-5.421416	2.145239	5.245218	6.182936	5.683330	4.989650	1.738942	2.055650	2.716280	1.129240	-2.166920	0.737791	-0.220642	0.603392	-1.000000	-1.000000	-1.000000	-1.000000	-1.000000	-1.000000	-1.000000	73.172414	0.000000	-1.000000	-1.000000	2152064.000000	1770065801.290794
-31763.880000	-42582.195000	-25103.565000	-7052.670000	-35072.010000	-26812.845000	667.755000	-18284.220000	-2.281600	7.918339	6.825887	7.346463	5.924803	5.413108	1.700433	3.969800	2.716280	1.129240	-2.166920	0.737791	-0.220642	0.603392	-1.000000	-1.000000	-1.000000	-1.000000	-1.000000	-1.000000	-1.000000	73.172414	0.000000	-1.000000	-1.000000	2152065.000000	1770065801.296012
-31769.865000	-42574.410000	-25089.570000	-7033.770000	-35050.770000	-26789.400000	672.435000	-18311.130000	-1.544485	9.156547	5.777311	6.276275	4.509042	4.208528	1.388513	2.606321	2.716280	1.129240	-2.166920	0.737791	-0.220642	0.603392	-1.000000	-1.000000	-1.000000	-1.000000	-1.000000	-1.000000	-1.000000	73.172414	0.000000	-1.000000	-1.000000	2152066.000000	1770065801.296022
-31751.460000	-42555.960000	-25080.255000	-7027.515000	-35043.525000	-26778.555000	677.655000	-18302.670000	-1.062932	6.071586	3.339960	4.014066	2.768216	2.762819	1.301860	0.488969	2.716280	1.129240	-2.166920	0.737791	-0.220642	0.603392	-1.000000	-1.000000	-1.000000	-1.000000	-1.000000	-1.000000	-1.000000	73.172414	0.000000	-1.000000	-1.000000	2152067.000000	1770065801.297054
-31741.605000	-42564.240000	-25091.100000	-7040.610000	-35057.520000	-26789.670000	670.995000	-18274.770000	1.492430	1.604447	0.801197	1.151324	0.977544	1.386482	1.213599	0.298091	2.716280	1.129240	-2.166920	0.737791	-0.220642	0.603392	-1.000000	-1.000000	-1.000000	-1.000000	-1.000000	-1.000000	-1.000000	73.172414	0.000000	-1.000000	-1.000000	2152068.000000	1770065801.297064
-31748.895000	-42569.190000	-25089.840000	-7036.155000	-35050.815000	-26778.870000	678.240000	-18258.390000	5.408687	-2.192519	-1.665155	-2.333538	-1.470382	-0.681274	0.708339	3.184743	2.716280	1.129240	-2.166920	0.737791	-0.220642	0.603392	-1.000000	-1.000000	-1.000000	-1.000000	-1.000000	-1.000000	-1.000000	73.172414	0.000000	-1.000000	-1.000000	2152069.000000	1770065801.301122
-31764.510000	-42582.870000	-25104.465000	-7052.895000	-35061.210000	-26781.975000	690.030000	-18245.115000	7.169940	-4.841372	-3.994680	-5.640878	-4.174516	-3.193265	-0.007861	7.267646	2.716280	1.129240	-2.166920	0.737791	-0.220642	0.603392	-1.000000	-1.000000	-1.000000	-1.000000	-1.000000	-1.000000	-1.000000	73.172414	0.000000	-1.000000	-1.000000	2152070.000000	1770065801.301132
-31773.780000	-42589.755000	-25115.715000	-7066.170000	-35072.505000	-26791.740000	687.060000	-18257.625000	4.137606	-6.895134	-5.815639	-7.514070	-5.981054	-4.987183	-0.539732	8.880538	2.731540	2.441600	-3.311420	0.736082	-0.212829	0.600829	-1.000000	-1.000000	-1.000000	-1.000000	-1.000000	-1.000000	-1.000000	73.172414	0.000000	-1.000000	-1.000000	2152071.000000	1770065801.305187
-31769.505000	-42589.800000	-25118.505000	-7067.115000	-35076.375000	-26797.050000	668.205000	-18282.825000	-2.233663	-8.555943	-6.547375	-7.220305	-6.071869	-5.315175	-0.997526	5.541938	2.731540	2.441600	-3.311420	0.736082	-0.212829	0.600829	-1.000000	-1.000000	-1.000000	-1.000000	-1.000000	-1.000000	-1.000000	73.172414	0.000000	-1.000000	-1.000000	2152072.000000	1770065801.305199
-31779.090000	-42588.180000	-25106.220000	-7049.475000	-35060.715000	-26781.345000	670.905000	-18285.255000	-7.374030	-8.076201	-5.182363	-4.461905	-3.973903	-3.838139	-1.506176	-1.893338	2.731540	2.441600	-3.311420	0.736082	-0.212829	0.600829	-1.000000	-1.000000	-1.000000	-1.000000	-1.000000	-1.000000	-1.000000	73.172414	0.000000	-1.000000	-1.000000	2152073.000000	1770065801.309118
-31813.380000	-42600.195000	-25106.130000	-7042.815000	-35055.810000	-26777.565000	669.195000	-18308.655000	-8.330283	-3.911927	-1.450366	0.096269	-0.177451	-0.919733	-1.712787	-9.607072	2.731540	2.441600	-3.311420	0.736082	-0.212829	0.600829	-1.000000	-1.000000	-1.000000	-1.000000	-1.000000	-1.000000	-1.000000	73.172414	0.000000	-1.000000	-1.000000	2152074.000000	1770065801.309127
-31791.330000	-42590.970000	-25107.210000	-7047.945000	-35060.310000	-26782.110000	662.085000	-18308.025000	-5.637625	2.299273	2.837589	4.186385	3.175627	1.651565	-1.523706	-13.383959	2.731540	2.441600	-3.311420	0.736082	-0.212829	0.600829	-1.000000	-1.000000	-1.000000	-1.000000	-1.000000	-1.000000	-1.000000	73.172414	0.000000	-1.000000	-1.000000	2152075.000000	1770065801.312945
-31763.250000	-42593.805000	-25112.655000	-7055.010000	-35068.230000	-26786.295000	653.085000	-18292.275000	-0.514116	7.168868	5.139676	5.417249	3.876887	2.020303	-1.489327	-11.132506	2.731540	2.441600	-3.311420	0.736082	-0.212829	0.600829	-1.000000	-1.000000	-1.000000	-1.000000	-1.000000	-1.000000	-1.000000	73.172414	0.000000	-1.000000	-1.000000	2152076.000000	1770065801.312955
-31758.255000	-42600.375000	-25115.130000	-7055.595000	-35066.340000	-26781.750000	652.545000	-18274.995000	5.873499	8.638410	4.659403	3.644444	2.074019	0.563524	-1.746137	-4.158735	2.731540	2.441600	-3.311420	0.736082	-0.212829	0.600829	-1.000000	-1.000000	-1.000000	-1.000000	-1.000000	-1.000000	-1.000000	73.172414	0.000000	-1.000000	-1.000000	2152077.000000	1770065801.318538
-31759.830000	-42592.770000	-25114.230000	-7058.520000	-35065.620000	-26776.530000	661.410000	-18267.795000	10.976944	7.128759	2.696131	0.925032	-0.034326	-0.598050	-1.562843	3.729881	2.731540	2.441600	-3.311420	0.736082	-0.212829	0.600829	-1.000000	-1.000000	-1.000000	-1.000000	-1.000000	-1.000000	-1.000000	73.172414	0.000000	-1.000000	-1.000000	2152078.000000	1770065801.318552
-31775.130000	-42590.070000	-25115.445000	-7064.190000	-35063.595000	-26770.590000	675.405000	-18264.645000	11.851438	4.545780	1.139124	-0.551283	-0.487994	0.082401	-0.250402	8.816500	2.731540	2.441600	-3.311420	0.736082	-0.212829	0.600829	-1.000000	-1.000000	-1.000000	-1.000000	-1.000000	-1.000000	-1.000000	73.172414	0.000000	-1.000000	-1.000000	2152079.000000	1770065801.321001
-31791.015000	-42593.625000	-25116.300000	-7067.520000	-35065.935000	-26766.540000	674.775000	-18275.040000	7.228032	2.148227	0.955138	-0.000279	1.115416	2.630696	2.270840	9.645664	2.731540	2.441600	-3.311420	0.736082	-0.212829	0.600829	-1.000000	-1.000000	-1.000000	-1.000000	-1.000000	-1.000000	-1.000000	73.172414	0.000000	-1.000000	-1.000000	2152080.000000	1770065801.321012
-31777.515000	-42597.405000	-25118.145000	-7067.160000	-35069.085000	-26765.055000	668.655000	-18287.325000	-1.038916	-0.103801	1.536317	1.539293	3.376100	5.574235	5.225206	7.130787	-2.258480	3.723440	-4.944240	0.733213	-0.200073	0.602110	-1.000000	-1.000000	-1.000000	-1.000000	-1.000000	-1.000000	-1.000000	73.172414	0.000000	-1.000000	-1.000000	2152081.000000	1770065801.325318
-31750.425000	-42575.130000	-25097.580000	-7044.750000	-35047.935000	-26744.535000	669.420000	-18276.615000	-7.712674	-1.968552	1.609537	2.288699	4.146095	6.664738	6.828617	3.210764	-2.258480	3.723440	-4.944240	0.733213	-0.200073	0.602110	-1.000000	-1.000000	-1.000000	-1.000000	-1.000000	-1.000000	-1.000000	73.172414	0.000000	-1.000000	-1.000000	2152082.000000	1770065801.325328
-31764.465000	-42574.320000	-25092.360000	-7039.305000	-35043.390000	-26743.140000	666.000000	-18282.420000	-8.094300	-2.406212	0.843536	1.639345	2.679352	4.743176	5.514507	0.016079	-2.258480	3.723440	-4.944240	0.733213	-0.200073	0.602110	-1.000000	-1.000000	-1.000000	-1.000000	-1.000000	-1.000000	-1.000000	73.172414	0.000000	-1.000000	-1.000000	2152083.000000	1770065801.328902
-31770.090000	-42587.865000	-25107.840000	-7052.805000	-35056.755000	-26755.605000	658.170000	-18294.345000	-3.722201	-1.755648	-0.468119	0.139903	-0.147809	0.425070	1.494886	-1.642016	-2.258480	3.723440	-4.944240	0.733213	-0.200073	0.602110	-1.000000	-1.000000	-1.000000	-1.000000	-1.000000	-1.000000	-1.000000	73.172414	0.000000	-1.000000	-1.000000	2152084.000000	1770065801.328910
-31766.175000	-42589.170000	-25104.105000	-7044.030000	-35046.270000	-26742.870000	657.585000	-18299.340000	-0.556716	-1.888504	-2.242046	-1.534297	-2.996016	-4.483383	-3.289834	-3.356068	-2.258480	3.723440	-4.944240	0.733213	-0.200073	0.602110	-1.000000	-1.000000	-1.000000	-1.000000	-1.000000	-1.000000	-1.000000	73.172414	0.000000	-1.000000	-1.000000	2152085.000000	1770065801.335608
-31770.720000	-42597.450000	-25114.050000	-7052.580000	-35054.325000	-26747.415000	653.085000	-18310.545000	-1.433794	-3.278129	-3.935647	-2.631564	-4.553800	-7.655415	-6.609742	-6.615204	-2.258480	3.723440	-4.944240	0.733213	-0.200073	0.602110	-1.000000	-1.000000	-1.000000	-1.000000	-1.000000	-1.000000	-1.000000	73.172414	0.000000	-1.000000	-1.000000	2152086.000000	1770065801.335621
-31763.790000	-42593.985000	-25120.620000	-7065.270000	-35062.245000	-26750.025000	662.265000	-18289.485000	-3.883404	-4.575281	-4.710977	-2.822882	-4.454601	-7.882032	-7.432877	-9.882325	-2.258480	3.723440	-4.944240	0.733213	-0.200073	0.602110	-1.000000	-1.000000	-1.000000	-1.000000	-1.000000	-1.000000	-1.000000	73.172414	0.000000	-1.000000	-1.000000	2152087.000000	1770065801.337095
-31776.525000	-42602.805000	-25130.160000	-7076.655000	-35070.750000	-26756.910000	661.005000	-18282.330000	-4.143913	-4.544555	-4.263215	-2.504807	-3.427181	-5.784308	-5.961982	-9.390471	-2.258480	3.723440	-4.944240	0.733213	-0.200073	0.602110	-1.000000	-1.000000	-1.000000	-1.000000	-1.000000	-1.000000	-1.000000	73.172414	0.000000	-1.000000	-1.000000	2152088.000000	1770065801.337105
-31774.455000	-42595.380000	-25117.245000	-7060.140000	-35054.415000	-26739.990000	660.330000	-18290.115000	-1.152921	-2.785393	-2.530790	-1.765529	-1.818006	-2.392804	-2.766782	-3.176952	-2.258480	3.723440	-4.944240	0.733213	-0.200073	0.602110	-1.000000	-1.000000	-1.000000	-1.000000	-1.000000	-1.000000	-1.000000	73.172414	0.000000	-1.000000	-1.000000	2152089.000000	1770065801.341715
-31774.050000	-42584.085000	-25101.900000	-7041.915000	-35035.200000	-26717.805000	666.720000	-18289.890000	2.898779	0.475457	0.501246	-0.100917	0.768728	1.765185	1.391200	6.032333	-2.258480	3.723440	-4.944240	0.733213	-0.200073	0.602110	-1.000000	-1.000000	-1.000000	-1.000000	-1.000000	-1.000000	-1.000000	73.172414	0.000000	-1.000000	-1.000000	2152090.000000	1770065801.341726
-31786.830000	-42595.155000	-25104.195000	-7040.115000	-35034.030000	-26716.140000	661.185000	-18297.990000	5.010421	3.921380	3.823568	2.119312	3.762174	5.667570	5.144925	12.790831	-4.593260	4.913720	-7.507920	0.730528	-0.193542	0.604369	-1.000000	-1.000000	-1.000000	-1.000000	-1.000000	-1.000000	-1.000000	73.172414	0.000000	-1.000000	-1.000000	2152091.000000	1770065801.349029
-31778.955000	-42596.370000	-25097.670000	-7034.715000	-35024.670000	-26703.810000	670.005000	-18280.575000	4.172242	5.420198	5.563438	3.448619	5.394297	7.618244	6.958919	13.669533	-4.593260	4.913720	-7.507920	0.730528	-0.193542	0.604369	-1.000000	-1.000000	-1.000000	-1.000000	-1.000000	-1.000000	-1.000000	73.172414	0.000000	-1.000000	-1.000000	2152092.000000	1770065801.349039
-31795.065000	-42587.685000	-25083.855000	-7019.820000	-35007.255000	-26684.235000	678.870000	-18284.895000	1.572236	4.403124	5.264380	3.456151	5.104800	7.190881	6.519529	9.352745	-4.593260	4.913720	-7.507920	0.730528	-0.193542	0.604369	-1.000000	-1.000000	-1.000000	-1.000000	-1.000000	-1.000000	-1.000000	73.172414	0.000000	-1.000000	-1.000000	2152093.000000	1770065801.350260
-31801.140000	-42597.270000	-25099.290000	-7034.895000	-35022.555000	-26698.275000	668.385000	-18303.660000	-1.416203	2.406228	3.876115	2.727535	3.597236	5.058478	4.512529	2.263713	-4.593260	4.913720	-7.507920	0.730528	-0.193542	0.604369	-1.000000	-1.000000	-1.000000	-1.000000	-1.000000	-1.000000	-1.000000	73.172414	0.000000	-1.000000	-1.000000	2152094.000000	1770065801.350271
-31752.675000	-42595.245000	-25123.590000	-7067.790000	-35053.695000	-26726.220000	661.995000	-18287.010000	-3.034344	0.706168	1.415435	0.834443	0.597342	0.948151	1.131291	-5.270551	-4.593260	4.913720	-7.507920	0.730528	-0.193542	0.604369	-1.000000	-1.000000	-1.000000	-1.000000	-1.000000	-1.000000	-1.000000	73.172414	0.000000	-1.000000	-1.000000	2152095.000000	1770065801.353147
-31758.120000	-42578.370000	-25116.750000	-7065.720000	-35048.340000	-26716.680000	670.185000	-18280.755000	-0.988874	-0.301518	-2.263621	-2.573220	-4.003907	-4.930329	-3.314515	-10.523020	-4.593260	4.913720	-7.507920	0.730528	-0.193542	0.604369	-1.000000	-1.000000	-1.000000	-1.000000	-1.000000	-1.000000	-1.000000	73.172414	0.000000	-1.000000	-1.000000	2152096.000000	1770065801.353157
-31769.415000	-42574.905000	-25106.400000	-7055.190000	-35040.645000	-26707.590000	670.005000	-18287.055000	3.928749	-0.223480	-5.277535	-5.465098	-7.766366	-9.560714	-6.962763	-11.338316	-4.593260	4.913720	-7.507920	0.730528	-0.193542	0.604369	-1.000000	-1.000000	-1.000000	-1.000000	-1.000000	-1.000000	-1.000000	73.172414	0.000000	-1.000000	-1.000000	2152097.000000	1770065801.360902
-31759.920000	-42588.765000	-25111.530000	-7056.000000	-35044.065000	-26709.795000	657.270000	-18290.655000	7.387222	0.350936	-5.610120	-5.536197	-8.027729	-9.897649	-7.794660	-7.756289	-4.593260	4.913720	-7.507920	0.730528	-0.193542	0.604369	-1.000000	-1.000000	-1.000000	-1.000000	-1.000000	-1.000000	-1.000000	73.172414	0.000000	-1.000000	-1.000000	2152098.000000	1770065801.360912
-31757.490000	-42589.260000	-25106.715000	-7046.370000	-35035.155000	-26700.165000	653.895000	-18291.645000	6.405872	-0.390307	-3.849309	-3.236457	-5.151471	-6.399505	-5.861511	-1.855199	-4.593260	4.913720	-7.507920	0.730528	-0.193542	0.604369	-1.000000	-1.000000	-1.000000	-1.000000	-1.000000	-1.000000	-1.000000	73.172414	0.000000	-1.000000	-1.000000	2152099.000000	1770065801.360922
-31751.370000	-42586.830000	-25109.190000	-7049.205000	-35033.715000	-26695.935000	659.925000	-18277.200000	1.958056	-2.729131	-1.734944	-0.450007	-1.161679	-1.449982	-2.497952	3.762771	-4.593260	4.913720	-7.507920	0.730528	-0.193542	0.604369	-1.000000	-1.000000	-1.000000	-1.000000	-1.000000	-1.000000	-1.000000	73.172414	0.000000	-1.000000	-1.000000	2152100.000000	1770065801.360928
-31746.420000	-42579.585000	-25105.500000	-7044.840000	-35030.205000	-26690.175000	660.330000	-18275.175000	-2.954749	-4.518280	-0.040762	1.684485	2.439062	3.078918	1.174264	7.220819	-3.280900	8.164100	-7.401100	0.732969	-0.192443	0.607115	-1.000000	-1.000000	-1.000000	-1.000000	-1.000000	-1.000000	-1.000000	73.172414	0.000000	-1.000000	-1.000000	2152101.000000	1770065801.365068
-31747.590000	-42568.065000	-25091.415000	-7029.180000	-35012.565000	-26669.700000	667.575000	-18282.780000	-5.873059	-3.744000	1.402885	3.025987	4.909724	6.121295	4.188205	7.564349	-3.280900	8.164100	-7.401100	0.732969	-0.192443	0.607115	-1.000000	-1.000000	-1.000000	-1.000000	-1.000000	-1.000000	-1.000000	73.172414	0.000000	-1.000000	-1.000000	2152102.000000	1770065801.365080
-31744.260000	-42569.775000	-25095.015000	-7037.100000	-35018.640000	-26672.895000	673.830000	-18280.665000	-6.222463	-0.405944	3.248359	4.206805	6.444539	7.698181	6.008700	5.021001	-3.280900	8.164100	-7.401100	0.732969	-0.192443	0.607115	-1.000000	-1.000000	-1.000000	-1.000000	-1.000000	-1.000000	-1.000000	73.172414	0.000000	-1.000000	-1.000000	2152103.000000	1770065801.369228
-31755.690000	-42571.620000	-25102.125000	-7050.600000	-35024.715000	-26676.990000	683.235000	-18290.295000	-5.559917	3.342510	5.464808	5.486280	7.369758	8.163554	6.603800	0.655281	-3.280900	8.164100	-7.401100	0.732969	-0.192443	0.607115	-1.000000	-1.000000	-1.000000	-1.000000	-1.000000	-1.000000	-1.000000	73.172414	0.000000	-1.000000	-1.000000	2152104.000000	1770065801.369238
-31781.160000	-42592.770000	-25119.405000	-7066.800000	-35042.445000	-26693.730000	667.620000	-18295.110000	-5.614865	4.371613	6.152246	5.403181	6.568737	6.569678	5.477182	-4.266383	-3.280900	8.164100	-7.401100	0.732969	-0.192443	0.607115	-1.000000	-1.000000	-1.000000	-1.000000	-1.000000	-1.000000	-1.000000	73.172414	0.000000	-1.000000	-1.000000	2152105.000000	1770065801.373156
-31780.665000	-42595.560000	-25115.580000	-7056.990000	-35034.030000	-26683.335000	667.395000	-18280.800000	-5.955385	1.346626	3.277471	2.275924	2.630373	1.845295	2.101147	-7.465600	-3.280900	8.164100	-7.401100	0.732969	-0.192443	0.607115	-1.000000	-1.000000	-1.000000	-1.000000	-1.000000	-1.000000	-1.000000	73.172414	0.000000	-1.000000	-1.000000	2152106.000000	1770065801.373166
-31753.845000	-42574.995000	-25091.640000	-7031.205000	-35010.540000	-26661.420000	671.040000	-18271.845000	-4.435206	-3.146491	-1.935704	-2.656847	-3.054198	-4.237712	-2.274261	-6.322708	-3.280900	8.164100	-7.401100	0.732969	-0.192443	0.607115	-1.000000	-1.000000	-1.000000	-1.000000	-1.000000	-1.000000	-1.000000	73.172414	0.000000	-1.000000	-1.000000	2152107.000000	1770065801.377108
-31753.080000	-42573.330000	-25090.200000	-7030.485000	-35008.875000	-26659.845000	670.815000	-18275.580000	0.381671	-4.751042	-5.561522	-5.885778	-6.868434	-7.951204	-5.162589	-1.082341	-3.280900	8.164100	-7.401100	0.732969	-0.192443	0.607115	-1.000000	-1.000000	-1.000000	-1.000000	-1.000000	-1.000000	-1.000000	73.172414	0.000000	-1.000000	-1.000000	2152108.000000	1770065801.377117
-31767.390000	-42587.820000	-25104.285000	-7043.400000	-35020.080000	-26667.855000	666.045000	-18286.065000	6.693729	-2.292163	-5.545240	-5.759765	-7.075517	-7.704601	-5.478460	4.274638	-3.280900	8.164100	-7.401100	0.732969	-0.192443	0.607115	-1.000000	-1.000000	-1.000000	-1.000000	-1.000000	-1.000000	-1.000000	73.172414	0.000000	-1.000000	-1.000000	2152109.000000	1770065801.385328
-31759.920000	-42582.285000	-25096.095000	-7032.555000	-35006.715000	-26650.530000	672.255000	-18276.525000	10.448228	1.301824	-3.380157	-3.695564	-4.976962	-4.955198	-4.053235	5.880240	-3.280900	8.164100	-7.401100	0.732969	-0.192443	0.607115	-1.000000	-1.000000	-1.000000	-1.000000	-1.000000	-1.000000	-1.000000	73.172414	0.000000	-1.000000	-1.000000	2152110.000000	1770065801.385336
-31762.260000	-42576.345000	-25093.755000	-7032.240000	-35004.825000	-26646.525000	670.860000	-18303.570000	9.613694	3.167443	-1.142163	-1.469400	-2.281902	-1.569314	-2.030715	3.484094	-1.266580	10.468360	-6.180300	0.738890	-0.192687	0.609862	-1.000000	-1.000000	-1.000000	-1.000000	-1.000000	-1.000000	-1.000000	73.172414	0.000000	-1.000000	-1.000000	2152111.000000	1770065801.385347
-31761.720000	-42568.920000	-25101.990000	-7047.450000	-35013.870000	-26653.995000	675.720000	-18311.940000	5.241420	3.170301	0.616926	0.469557	0.402562	1.561616	-0.149526	-0.950626	-1.266580	10.468360	-6.180300	0.738890	-0.192687	0.609862	-1.000000	-1.000000	-1.000000	-1.000000	-1.000000	-1.000000	-1.000000	73.172414	0.000000	-1.000000	-1.000000	2152112.000000	1770065801.385352
-31773.375000	-42583.770000	-25109.460000	-7053.615000	-35018.595000	-26657.145000	676.170000	-18294.930000	-0.252441	2.359387	1.961343	2.130792	2.735091	3.832057	1.162671	-4.869122	-1.266580	10.468360	-6.180300	0.738890	-0.192687	0.609862	-1.000000	-1.000000	-1.000000	-1.000000	-1.000000	-1.000000	-1.000000	73.172414	0.000000	-1.000000	-1.000000	2152113.000000	1770065801.393950
-31791.105000	-42602.040000	-25112.205000	-7050.015000	-35020.845000	-26660.700000	668.790000	-18284.220000	-4.299052	1.025550	2.639852	3.213683	4.059326	4.593743	1.897193	-5.280228	-1.266580	10.468360	-6.180300	0.738890	-0.192687	0.609862	-1.000000	-1.000000	-1.000000	-1.000000	-1.000000	-1.000000	-1.000000	73.172414	0.000000	-1.000000	-1.000000	2152114.000000	1770065801.393956
-31775.580000	-42591.240000	-25106.895000	-7042.950000	-35019.360000	-26662.500000	659.655000	-18287.505000	-5.697714	-0.862444	2.281937	3.188562	3.653644	3.352074	2.066219	-1.515918	-1.266580	10.468360	-6.180300	0.738890	-0.192687	0.609862	-1.000000	-1.000000	-1.000000	-1.000000	-1.000000	-1.000000	-1.000000	73.172414	0.000000	-1.000000	-1.000000	2152115.000000	1770065801.394131
-31754.295000	-42582.330000	-25105.275000	-7040.745000	-35016.930000	-26657.415000	662.985000	-18281.790000	-4.688937	-2.524238	0.743511	1.591821	1.236908	0.202310	1.478889	3.438630	-1.266580	10.468360	-6.180300	0.738890	-0.192687	0.609862	-1.000000	-1.000000	-1.000000	-1.000000	-1.000000	-1.000000	-1.000000	73.172414	0.000000	-1.000000	-1.000000	2152116.000000	1770065801.394142
-31776.030000	-42595.515000	-25111.035000	-7044.930000	-35020.215000	-26655.480000	664.560000	-18299.295000	-2.055532	-2.906050	-1.354063	-1.050812	-2.097420	-3.241707	0.484124	6.038599	-1.266580	10.468360	-6.180300	0.738890	-0.192687	0.609862	-1.000000	-1.000000	-1.000000	-1.000000	-1.000000	-1.000000	-1.000000	73.172414	0.000000	-1.000000	-1.000000	2152117.000000	1770065801.403816
-31801.455000	-42597.945000	-25102.350000	-7030.440000	-35004.375000	-26637.750000	669.285000	-18313.470000	0.288865	-1.934205	-2.533656	-2.882236	-3.988458	-4.417720	-0.061542	4.609529	-1.266580	10.468360	-6.180300	0.738890	-0.192687	0.609862	-1.000000	-1.000000	-1.000000	-1.000000	-1.000000	-1.000000	-1.000000	73.172414	0.000000	-1.000000	-1.000000	2152118.000000	1770065801.403826
-31783.815000	-42605.235000	-25115.220000	-7045.155000	-35020.215000	-26653.815000	659.970000	-18290.925000	0.551235	-0.580706	-1.999580	-2.664398	-3.185666	-2.612001	0.027645	0.368479	-1.266580	10.468360	-6.180300	0.738890	-0.192687	0.609862	-1.000000	-1.000000	-1.000000	-1.000000	-1.000000	-1.000000	-1.000000	73.172414	0.000000	-1.000000	-1.000000	2152119.000000	1770065801.403838
-31760.415000	-42595.875000	-25123.185000	-7061.085000	-35030.610000	-26662.950000	668.565000	-18262.395000	-0.110355	0.220881	-0.687989	-1.335949	-1.014475	0.052108	0.132538	-2.367110	-1.266580	10.468360	-6.180300	0.738890	-0.192687	0.609862	-1.000000	-1.000000	-1.000000	-1.000000	-1.000000	-1.000000	-1.000000	73.172414	0.000000	-1.000000	-1.000000	2152120.000000	1770065801.403843
-31762.800000	-42600.780000	-25133.355000	-7075.080000	-35041.320000	-26673.120000	666.180000	-18276.705000	0.859746	0.534161	0.243614	-0.339032	0.671836	1.430901	-0.098794	-0.593223	1.251320	11.719680	-6.805960	0.742125	-0.194458	0.614745	-1.000000	-1.000000	-1.000000	-1.000000	-1.000000	-1.000000	-1.000000	73.172414	0.000000	-1.000000	-1.000000	2152121.000000	1770065801.405145
-31763.430000	-42602.400000	-25125.480000	-7061.445000	-35028.405000	-26659.215000	662.850000	-18290.655000	3.781802	1.175684	0.876655	0.313651	1.650654	1.649022	-0.446024	2.769713	1.251320	11.719680	-6.805960	0.742125	-0.194458	0.614745	-1.000000	-1.000000	-1.000000	-1.000000	-1.000000	-1.000000	-1.000000	73.172414	0.000000	-1.000000	-1.000000	2152122.000000	1770065801.405155
-31765.140000	-42608.880000	-25110.630000	-7040.520000	-35009.640000	-26643.375000	664.020000	-18292.455000	6.522092	2.507212	1.984924	1.565380	2.902233	2.257991	-0.440476	2.607407	1.251320	11.719680	-6.805960	0.742125	-0.194458	0.614745	-1.000000	-1.000000	-1.000000	-1.000000	-1.000000	-1.000000	-1.000000	73.172414	0.000000	-1.000000	-1.000000	2152123.000000	1770065801.409108
-31776.300000	-42628.050000	-25120.755000	-7048.845000	-35022.915000	-26659.845000	650.520000	-18298.755000	6.013537	3.142189	3.359017	3.355594	4.448429	3.594863	0.071807	-1.899102	1.251320	11.719680	-6.805960	0.742125	-0.194458	0.614745	-1.000000	-1.000000	-1.000000	-1.000000	-1.000000	-1.000000	-1.000000	73.172414	0.000000	-1.000000	-1.000000	2152124.000000	1770065801.409118
-31773.690000	-42607.305000	-25124.355000	-7056.180000	-35031.015000	-26667.360000	648.450000	-18293.670000	0.816406	1.501115	3.411903	3.911344	4.411115	3.681060	0.370285	-7.054515	1.251320	11.719680	-6.805960	0.742125	-0.194458	0.614745	-1.000000	-1.000000	-1.000000	-1.000000	-1.000000	-1.000000	-1.000000	73.172414	0.000000	-1.000000	-1.000000	2152125.000000	1770065801.413080
-31768.245000	-42588.585000	-25117.740000	-7050.060000	-35024.445000	-26659.440000	652.275000	-18292.770000	-5.921727	-0.733579	1.478503	2.085920	1.629467	1.110232	-0.145166	-8.460438	1.251320	11.719680	-6.805960	0.742125	-0.194458	0.614745	-1.000000	-1.000000	-1.000000	-1.000000	-1.000000	-1.000000	-1.000000	73.172414	0.000000	-1.000000	-1.000000	2152126.000000	1770065801.413091
-31765.680000	-42585.165000	-25105.815000	-7035.705000	-35008.875000	-26642.970000	659.295000	-18287.865000	-8.808322	-0.472503	-0.931268	-0.826340	-2.194785	-2.487347	-0.811945	-4.566481	1.251320	11.719680	-6.805960	0.742125	-0.194458	0.614745	-1.000000	-1.000000	-1.000000	-1.000000	-1.000000	-1.000000	-1.000000	73.172414	0.000000	-1.000000	-1.000000	2152127.000000	1770065801.418593
-31779.765000	-42583.275000	-25106.850000	-7041.150000	-35013.150000	-26646.615000	662.805000	-18306.090000	-6.550105	2.042352	-1.885616	-2.443734	-4.146908	-4.105543	-0.526467	1.650210	1.251320	11.719680	-6.805960	0.742125	-0.194458	0.614745	-1.000000	-1.000000	-1.000000	-1.000000	-1.000000	-1.000000	-1.000000	73.172414	0.000000	-1.000000	-1.000000	2152128.000000	1770065801.418604
-31794.390000	-42603.480000	-25131.915000	-7072.020000	-35042.490000	-26675.145000	653.310000	-18327.015000	-2.959711	3.459844	-1.180447	-1.893255	-3.252692	-2.759023	0.591897	4.967291	1.251320	11.719680	-6.805960	0.742125	-0.194458	0.614745	-1.000000	-1.000000	-1.000000	-1.000000	-1.000000	-1.000000	-1.000000	73.172414	0.000000	-1.000000	-1.000000	2152129.000000	1770065801.421226
-31787.865000	-42601.770000	-25127.055000	-7067.745000	-35033.445000	-26664.255000	657.000000	-18317.790000	-1.211273	1.360484	-0.373112	-0.608555	-1.235810	-0.319910	1.284951	3.358148	1.251320	11.719680	-6.805960	0.742125	-0.194458	0.614745	-1.000000	-1.000000	-1.000000	-1.000000	-1.000000	-1.000000	-1.000000	73.172414	0.000000	-1.000000	-1.000000	2152130.000000	1770065801.421237
-31778.550000	-42606.990000	-25125.705000	-7062.525000	-35030.925000	-26662.905000	650.700000	-18303.615000	-0.266104	-2.984447	-0.637593	-0.278933	0.002137	1.143925	0.976146	0.198970	2.655240	10.575180	-4.684820	0.740721	-0.193542	0.618712	-1.000000	-1.000000	-1.000000	-1.000000	-1.000000	-1.000000	-1.000000	73.172414	0.000000	-1.000000	-1.000000	2152131.000000	1770065801.425273
-31767.255000	-42589.665000	-25104.510000	-7036.065000	-35006.895000	-26638.020000	661.950000	-18288.450000	2.114119	-5.951059	-1.492031	-0.894248	0.281093	1.409579	0.360637	-0.077007	2.655240	10.575180	-4.684820	0.740721	-0.193542	0.618712	-1.000000	-1.000000	-1.000000	-1.000000	-1.000000	-1.000000	-1.000000	73.172414	0.000000	-1.000000	-1.000000	2152132.000000	1770065801.425286
-31770.810000	-42586.695000	-25098.525000	-7027.020000	-35002.215000	-26632.890000	667.935000	-18279.720000	5.634050	-5.074337	-1.426199	-0.829163	0.829362	1.781361	0.525224	3.269504	2.655240	10.575180	-4.684820	0.740721	-0.193542	0.618712	-1.000000	-1.000000	-1.000000	-1.000000	-1.000000	-1.000000	-1.000000	73.172414	0.000000	-1.000000	-1.000000	2152133.000000	1770065801.435050
-31777.740000	-42598.755000	-25108.875000	-7038.405000	-35013.465000	-26645.220000	664.380000	-18278.370000	7.772766	-1.499679	0.171705	0.879313	2.259004	2.841256	1.595533	7.286104	2.655240	10.575180	-4.684820	0.740721	-0.193542	0.618712	-1.000000	-1.000000	-1.000000	-1.000000	-1.000000	-1.000000	-1.000000	73.172414	0.000000	-1.000000	-1.000000	2152134.000000	1770065801.435065
-31779.720000	-42601.140000	-25107.435000	-7034.715000	-35008.695000	-26639.955000	661.050000	-18287.235000	6.520333	1.086497	1.681986	2.558885	2.994002	2.875811	2.077585	8.214217	2.655240	10.575180	-4.684820	0.740721	-0.193542	0.618712	-1.000000	-1.000000	-1.000000	-1.000000	-1.000000	-1.000000	-1.000000	73.172414	0.000000	-1.000000	-1.000000	2152135.000000	1770065801.435079
