Channel1	Channel2	Channel3	Channel4	Channel5	Channel6	Channel7	Channel8	FilteredChannel1	FilteredChannel2	FilteredChannel3	FilteredChannel4	FilteredChannel5	FilteredChannel6	FilteredChannel7	FilteredChannel8	GyroX	GyroY	GyroZ	AccX	AccY	AccZ	PPG1	PPG2	rawPPG1	rawPPG2	rawPPG3	Hr	Hrv	Battery	Trigger	PhysicalTrigger	AutoTrigger	NumMeasurements	Timestamp
7847.685000	13806.045000	21626.505000	16521.885000	-9927.495000	-7019.415000	1214.955000	12745.710000	-2.629307	0.066853	-3.879025	-2.967329	2.425200	-3.358166	-6.154009	-5.659660	-0.763000	3.174080	-2.685760	0.963926	-0.208129	0.200378	-1.000000	-1.000000	-1.000000	-1.000000	-1.000000	-1.000000	-1.000000	83.310345	0.000000	-1.000000	-1.000000	898999.000000	1770063293.979530
7846.875000	13818.510000	21645.360000	16538.445000	-9935.055000	-7017.795000	1219.545000	12753.855000	-7.712847	-5.809504	-8.030297	-5.030244	4.111276	0.556569	-2.098423	-4.482885	-0.763000	3.174080	-2.685760	0.963926	-0.208129	0.200378	-1.000000	-1.000000	-1.000000	-1.000000	-1.000000	-1.000000	-1.000000	83.310345	0.000000	-1.000000	-1.000000	899000.000000	1770063293.979543
7873.110000	13832.910000	21657.015000	16535.295000	-9984.870000	-7047.990000	1217.970000	12775.320000	-9.320144	-9.480637	-8.549872	-4.793071	2.740362	3.715923	2.644714	-0.703705	2.289000	2.899400	-2.838360	0.966428	-0.211791	0.201110	-1.000000	-1.000000	-1.000000	-1.000000	-1.000000	-1.000000	-1.000000	83.310345	0.000000	-1.000000	-1.000000	899001.000000	1770063293.990136
7877.700000	13812.705000	21634.830000	16520.265000	-10007.730000	-7059.780000	1220.130000	12774.375000	-4.567491	-7.706133	-4.219495	-2.063019	-2.221170	3.402297	5.695603	5.339354	2.289000	2.899400	-2.838360	0.966428	-0.211791	0.201110	-1.000000	-1.000000	-1.000000	-1.000000	-1.000000	-1.000000	-1.000000	83.310345	0.000000	-1.000000	-1.000000	899002.000000	1770063293.990148
7865.235000	13815.135000	21640.500000	16525.125000	-9993.330000	-7050.825000	1217.700000	12760.380000	4.233922	-2.463906	1.502076	0.935879	-7.731504	-0.001550	5.700493	10.639435	2.289000	2.899400	-2.838360	0.966428	-0.211791	0.201110	-1.000000	-1.000000	-1.000000	-1.000000	-1.000000	-1.000000	-1.000000	83.310345	0.000000	-1.000000	-1.000000	899003.000000	1770063293.990160
7850.880000	13825.755000	21647.070000	16523.955000	-9996.930000	-7062.255000	1203.480000	12738.555000	10.825167	2.271252	4.745874	2.281892	-9.198258	-3.380097	2.906702	11.190790	2.289000	2.899400	-2.838360	0.966428	-0.211791	0.201110	-1.000000	-1.000000	-1.000000	-1.000000	-1.000000	-1.000000	-1.000000	83.310345	0.000000	-1.000000	-1.000000	899004.000000	1770063293.990165
7857.855000	13833.855000	21655.575000	16531.380000	-9985.005000	-7053.030000	1208.250000	12748.005000	10.658442	4.506312	4.699251	1.807524	-5.484720	-4.392011	-1.030077	5.748399	2.289000	2.899400	-2.838360	0.966428	-0.211791	0.201110	-1.000000	-1.000000	-1.000000	-1.000000	-1.000000	-1.000000	-1.000000	83.310345	0.000000	-1.000000	-1.000000	899005.000000	1770063294.002129
7847.550000	13828.185000	21652.020000	16534.755000	-9972.765000	-7046.280000	1212.390000	12758.580000	4.958026	4.622588	2.800311	0.651257	0.916475	-2.845137	-3.950228	-2.350302	2.289000	2.899400	-2.838360	0.966428	-0.211791	0.201110	-1.000000	-1.000000	-1.000000	-1.000000	-1.000000	-1.000000	-1.000000	83.310345	0.000000	-1.000000	-1.000000	899006.000000	1770063294.002142
7855.920000	13841.685000	21662.460000	16544.655000	-9961.245000	-7037.460000	1218.870000	12766.185000	-1.565699	4.517517	1.381154	0.512963	7.066536	0.120404	-4.668850	-8.029166	2.289000	2.899400	-2.838360	0.966428	-0.211791	0.201110	-1.000000	-1.000000	-1.000000	-1.000000	-1.000000	-1.000000	-1.000000	83.310345	0.000000	-1.000000	-1.000000	899007.000000	1770063294.002370
7877.880000	13872.780000	21690.315000	16564.410000	-9949.095000	-7029.225000	1228.455000	12776.535000	-5.043455	5.928018	2.282595	2.253753	10.886338	2.938371	-3.352114	-8.671497	2.289000	2.899400	-2.838360	0.966428	-0.211791	0.201110	-1.000000	-1.000000	-1.000000	-1.000000	-1.000000	-1.000000	-1.000000	83.310345	0.000000	-1.000000	-1.000000	899008.000000	1770063294.002380
7879.545000	13836.645000	21659.805000	16539.345000	-9967.050000	-7044.480000	1212.795000	12762.315000	-4.471734	7.327599	4.177806	4.251534	11.273059	4.507426	-0.937222	-5.530470	2.289000	2.899400	-2.838360	0.966428	-0.211791	0.201110	-1.000000	-1.000000	-1.000000	-1.000000	-1.000000	-1.000000	-1.000000	83.310345	0.000000	-1.000000	-1.000000	899009.000000	1770063294.002391
7863.930000	13792.725000	21617.460000	16508.925000	-9979.290000	-7049.565000	1208.160000	12761.370000	-2.058689	4.160354	2.719013	3.239014	8.497238	4.532273	1.003778	-2.030228	2.289000	2.899400	-2.838360	0.966428	-0.211791	0.201110	-1.000000	-1.000000	-1.000000	-1.000000	-1.000000	-1.000000	-1.000000	83.310345	0.000000	-1.000000	-1.000000	899010.000000	1770063294.002397
7858.485000	13823.955000	21650.670000	16539.345000	-9952.785000	-7029.315000	1223.370000	12727.080000	-1.003555	-4.575755	-3.459192	-1.363875	4.290202	3.633889	1.545617	-0.672633	-1.052940	2.731540	-4.562740	0.966184	-0.210021	0.201110	-1.000000	-1.000000	-1.000000	-1.000000	-1.000000	-1.000000	-1.000000	83.310345	0.000000	-1.000000	-1.000000	899011.000000	1770063294.012746
7849.035000	13842.090000	21671.370000	16567.695000	-9921.060000	-7004.115000	1233.945000	12703.725000	-1.925244	-12.642775	-9.207187	-5.342932	0.794606	3.022212	1.734764	-1.532941	-1.052940	2.731540	-4.562740	0.966184	-0.210021	0.201110	-1.000000	-1.000000	-1.000000	-1.000000	-1.000000	-1.000000	-1.000000	83.310345	0.000000	-1.000000	-1.000000	899012.000000	1770063294.012768
7853.895000	13823.640000	21648.105000	16546.995000	-9930.150000	-7015.230000	1220.670000	12746.160000	-2.875272	-13.818446	-9.407096	-4.910407	-1.419763	2.984437	2.762980	-2.209172	-1.052940	2.731540	-4.562740	0.966184	-0.210021	0.201110	-1.000000	-1.000000	-1.000000	-1.000000	-1.000000	-1.000000	-1.000000	83.310345	0.000000	-1.000000	-1.000000	899013.000000	1770063294.012782
7849.980000	13804.830000	21626.550000	16519.545000	-9951.975000	-7043.130000	1198.440000	12784.905000	-2.122062	-8.910338	-5.424076	-2.018461	-4.291493	1.512741	3.349733	0.831208	-1.052940	2.731540	-4.562740	0.966184	-0.210021	0.201110	-1.000000	-1.000000	-1.000000	-1.000000	-1.000000	-1.000000	-1.000000	83.310345	0.000000	-1.000000	-1.000000	899014.000000	1770063294.012787
7865.910000	13825.845000	21637.710000	16507.935000	-9976.995000	-7064.685000	1187.505000	12776.850000	0.574609	-2.031415	-1.258020	-1.100596	-9.856638	-3.812985	1.034276	7.649259	-1.052940	2.731540	-4.562740	0.966184	-0.210021	0.201110	-1.000000	-1.000000	-1.000000	-1.000000	-1.000000	-1.000000	-1.000000	83.310345	0.000000	-1.000000	-1.000000	899015.000000	1770063294.012793
7850.025000	13819.500000	21642.075000	16521.120000	-9974.880000	-7051.905000	1200.555000	12751.380000	3.769933	4.334101	1.833254	-2.928822	-16.604461	-11.576406	-3.865604	12.594314	-1.052940	2.731540	-4.562740	0.966184	-0.210021	0.201110	-1.000000	-1.000000	-1.000000	-1.000000	-1.000000	-1.000000	-1.000000	83.310345	0.000000	-1.000000	-1.000000	899016.000000	1770063294.012798
7830.405000	13815.180000	21645.990000	16532.730000	-9965.115000	-7041.330000	1216.710000	12761.055000	4.430869	8.221117	4.084834	-4.349369	-19.352387	-16.003090	-7.370571	10.107487	-1.052940	2.731540	-4.562740	0.966184	-0.210021	0.201110	-1.000000	-1.000000	-1.000000	-1.000000	-1.000000	-1.000000	-1.000000	83.310345	0.000000	-1.000000	-1.000000	899017.000000	1770063294.020665
7840.620000	13841.370000	21663.945000	16539.165000	-9984.015000	-7058.295000	1211.715000	12767.535000	1.098217	9.048008	6.007447	-1.942382	-13.575243	-12.291262	-5.758430	1.451029	-1.052940	2.731540	-4.562740	0.966184	-0.210021	0.201110	-1.000000	-1.000000	-1.000000	-1.000000	-1.000000	-1.000000	-1.000000	83.310345	0.000000	-1.000000	-1.000000	899018.000000	1770063294.020677
7857.675000	13837.680000	21655.080000	16536.870000	-9963.135000	-7044.390000	1206.225000	12753.855000	-2.988700	9.032364	8.410965	4.556640	-0.133170	-1.608501	0.180064	-7.096470	-1.052940	2.731540	-4.562740	0.966184	-0.210021	0.201110	-1.000000	-1.000000	-1.000000	-1.000000	-1.000000	-1.000000	-1.000000	83.310345	0.000000	-1.000000	-1.000000	899019.000000	1770063294.020689
7885.215000	13857.480000	21664.395000	16547.580000	-9946.620000	-7039.890000	1206.495000	12749.670000	-2.844525	8.771451	9.635880	10.839544	14.525432	9.893126	5.777458	-10.422740	-1.052940	2.731540	-4.562740	0.966184	-0.210021	0.201110	-1.000000	-1.000000	-1.000000	-1.000000	-1.000000	-1.000000	-1.000000	83.310345	0.000000	-1.000000	-1.000000	899020.000000	1770063294.020695
7872.345000	13878.675000	21706.830000	16596.720000	-9885.150000	-6980.760000	1261.305000	12739.545000	2.425961	6.320891	7.147778	12.288193	23.490078	16.691923	8.028592	-7.713470	-7.370580	1.785420	-5.630940	0.968503	-0.206542	0.201782	-1.000000	-1.000000	-1.000000	-1.000000	-1.000000	-1.000000	-1.000000	83.310345	0.000000	-1.000000	-1.000000	899021.000000	1770063294.023591
7905.780000	13916.745000	21737.205000	16616.070000	-9888.705000	-6979.185000	1266.345000	12704.085000	8.606096	2.187452	2.825570	9.581971	24.320209	17.924545	8.437578	-3.236450	-7.370580	1.785420	-5.630940	0.968503	-0.206542	0.201782	-1.000000	-1.000000	-1.000000	-1.000000	-1.000000	-1.000000	-1.000000	83.310345	0.000000	-1.000000	-1.000000	899022.000000	1770063294.023604
7892.910000	13820.040000	21637.845000	16532.190000	-9924.165000	-7015.005000	1216.980000	12752.010000	10.877567	-2.043341	-0.823471	5.111403	17.666034	14.607979	7.985732	-2.002157	-7.370580	1.785420	-5.630940	0.968503	-0.206542	0.201782	-1.000000	-1.000000	-1.000000	-1.000000	-1.000000	-1.000000	-1.000000	83.310345	0.000000	-1.000000	-1.000000	899023.000000	1770063294.029947
7831.080000	13757.625000	21586.770000	16468.920000	-9995.265000	-7075.620000	1176.975000	12759.975000	6.322996	-8.904432	-6.864228	-3.023452	4.066724	5.746205	3.538762	-2.631848	-7.370580	1.785420	-5.630940	0.968503	-0.206542	0.201782	-1.000000	-1.000000	-1.000000	-1.000000	-1.000000	-1.000000	-1.000000	83.310345	0.000000	-1.000000	-1.000000	899024.000000	1770063294.029956
7842.375000	13778.010000	21604.995000	16488.495000	-10011.510000	-7083.450000	1179.135000	12751.425000	-4.743368	-19.425595	-17.076685	-15.696747	-14.160617	-8.703950	-6.584123	-0.441423	-7.370580	1.785420	-5.630940	0.968503	-0.206542	0.201782	-1.000000	-1.000000	-1.000000	-1.000000	-1.000000	-1.000000	-1.000000	83.310345	0.000000	-1.000000	-1.000000	899025.000000	1770063294.031156
7851.780000	13796.325000	21618.225000	16496.685000	-10020.960000	-7076.430000	1190.610000	12752.775000	-15.920557	-25.883958	-24.379264	-25.767863	-29.605518	-22.736179	-17.210191	4.461626	-7.370580	1.785420	-5.630940	0.968503	-0.206542	0.201782	-1.000000	-1.000000	-1.000000	-1.000000	-1.000000	-1.000000	-1.000000	83.310345	0.000000	-1.000000	-1.000000	899026.000000	1770063294.031167
7856.730000	13797.090000	21621.330000	16504.605000	-10024.380000	-7064.820000	1200.195000	12754.845000	-19.084332	-19.705233	-20.162426	-24.010969	-32.946273	-26.870494	-20.091326	8.202335	-7.370580	1.785420	-5.630940	0.968503	-0.206542	0.201782	-1.000000	-1.000000	-1.000000	-1.000000	-1.000000	-1.000000	-1.000000	83.310345	0.000000	-1.000000	-1.000000	899027.000000	1770063294.035099
7856.505000	13802.625000	21624.570000	16516.575000	-9969.120000	-7041.420000	1201.230000	12749.490000	-12.601163	-2.295272	-4.532650	-9.268068	-20.739168	-17.072239	-11.988123	8.570333	-7.370580	1.785420	-5.630940	0.968503	-0.206542	0.201782	-1.000000	-1.000000	-1.000000	-1.000000	-1.000000	-1.000000	-1.000000	83.310345	0.000000	-1.000000	-1.000000	899028.000000	1770063294.035105
7865.190000	13811.310000	21628.845000	16527.150000	-9935.865000	-7028.190000	1203.210000	12749.310000	-1.330682	16.429424	13.681796	10.229226	1.531326	1.058665	2.128118	6.167713	-7.370580	1.785420	-5.630940	0.968503	-0.206542	0.201782	-1.000000	-1.000000	-1.000000	-1.000000	-1.000000	-1.000000	-1.000000	83.310345	0.000000	-1.000000	-1.000000	899029.000000	1770063294.044225
7863.975000	13828.005000	21651.345000	16535.475000	-9952.425000	-7039.980000	1202.085000	12748.545000	8.729634	26.646241	24.386561	23.453367	22.256186	16.521576	13.256125	2.577523	-7.370580	1.785420	-5.630940	0.968503	-0.206542	0.201782	-1.000000	-1.000000	-1.000000	-1.000000	-1.000000	-1.000000	-1.000000	83.310345	0.000000	-1.000000	-1.000000	899030.000000	1770063294.044236
7860.960000	13819.320000	21646.035000	16527.555000	-10004.895000	-7059.645000	1208.880000	12754.395000	13.441857	25.120287	23.868081	24.802380	30.108687	21.073565	16.089754	-1.080698	-5.264700	4.120200	-5.295220	0.972104	-0.209472	0.202209	-1.000000	-1.000000	-1.000000	-1.000000	-1.000000	-1.000000	-1.000000	83.310345	0.000000	-1.000000	-1.000000	899031.000000	1770063294.044249
7852.275000	13828.680000	21652.200000	16532.055000	-10013.580000	-7058.160000	1216.080000	12766.545000	11.957488	16.453025	16.648339	17.758404	22.445993	15.335750	12.944720	-4.500482	-5.264700	4.120200	-5.295220	0.972104	-0.209472	0.202209	-1.000000	-1.000000	-1.000000	-1.000000	-1.000000	-1.000000	-1.000000	83.310345	0.000000	-1.000000	-1.000000	899032.000000	1770063294.044254
7875.135000	13851.315000	21670.740000	16551.270000	-9980.460000	-7039.305000	1219.905000	12772.710000	7.581314	8.198611	9.560847	9.835392	7.867520	6.871942	9.063736	-7.048260	-5.264700	4.120200	-5.295220	0.972104	-0.209472	0.202209	-1.000000	-1.000000	-1.000000	-1.000000	-1.000000	-1.000000	-1.000000	83.310345	0.000000	-1.000000	-1.000000	899033.000000	1770063294.047639
7875.990000	13836.735000	21656.835000	16536.195000	-9985.725000	-7053.795000	1202.445000	12754.395000	4.325098	2.921142	4.231223	3.950897	-2.384681	1.690604	5.704396	-7.476054	-5.264700	4.120200	-5.295220	0.972104	-0.209472	0.202209	-1.000000	-1.000000	-1.000000	-1.000000	-1.000000	-1.000000	-1.000000	83.310345	0.000000	-1.000000	-1.000000	899034.000000	1770063294.047650
7879.770000	13837.770000	21659.535000	16536.015000	-9984.015000	-7053.165000	1203.480000	12760.380000	2.434761	-2.739023	-2.354602	-2.379625	-4.633645	-0.600133	0.572504	-5.705578	-5.264700	4.120200	-5.295220	0.972104	-0.209472	0.202209	-1.000000	-1.000000	-1.000000	-1.000000	-1.000000	-1.000000	-1.000000	83.310345	0.000000	-1.000000	-1.000000	899035.000000	1770063294.051131
7858.350000	13831.335000	21653.010000	16530.570000	-9981.630000	-7052.040000	1208.430000	12751.560000	-0.482109	-10.849609	-11.084965	-10.491463	-3.003590	-3.166621	-6.584896	-2.761039	-5.264700	4.120200	-5.295220	0.972104	-0.209472	0.202209	-1.000000	-1.000000	-1.000000	-1.000000	-1.000000	-1.000000	-1.000000	83.310345	0.000000	-1.000000	-1.000000	899036.000000	1770063294.051137
7850.340000	13826.160000	21643.740000	16529.850000	-9968.715000	-7042.365000	1206.315000	12726.630000	-5.634593	-18.786669	-18.803919	-17.916562	-3.415322	-7.149256	-12.512626	0.209207	-5.264700	4.120200	-5.295220	0.972104	-0.209472	0.202209	-1.000000	-1.000000	-1.000000	-1.000000	-1.000000	-1.000000	-1.000000	83.310345	0.000000	-1.000000	-1.000000	899037.000000	1770063294.055114
7841.520000	13809.465000	21630.420000	16521.390000	-9968.535000	-7031.565000	1211.040000	12726.450000	-11.337760	-22.826665	-22.225552	-21.372557	-8.226285	-10.886702	-14.117936	1.981461	-5.264700	4.120200	-5.295220	0.972104	-0.209472	0.202209	-1.000000	-1.000000	-1.000000	-1.000000	-1.000000	-1.000000	-1.000000	83.310345	0.000000	-1.000000	-1.000000	899038.000000	1770063294.055124
7857.585000	13814.280000	21639.780000	16529.040000	-9964.125000	-7035.705000	1207.080000	12745.170000	-13.962169	-21.042528	-20.076663	-18.969184	-13.686430	-11.450284	-10.946589	2.567929	-5.264700	4.120200	-5.295220	0.972104	-0.209472	0.202209	-1.000000	-1.000000	-1.000000	-1.000000	-1.000000	-1.000000	-1.000000	83.310345	0.000000	-1.000000	-1.000000	899039.000000	1770063294.072675
7852.905000	13823.820000	21645.270000	16528.770000	-9969.120000	-7042.320000	1205.145000	12761.370000	-10.695100	-12.652959	-11.817682	-10.151080	-13.152048	-7.144742	-4.572848	3.262087	-5.264700	4.120200	-5.295220	0.972104	-0.209472	0.202209	-1.000000	-1.000000	-1.000000	-1.000000	-1.000000	-1.000000	-1.000000	83.310345	0.000000	-1.000000	-1.000000	899040.000000	1770063294.072688
7855.605000	13826.880000	21641.535000	16525.260000	-9968.400000	-7042.230000	1203.210000	12757.140000	-2.108703	1.274746	1.467603	3.124771	-4.487686	0.511356	2.551274	4.221864	-6.302380	2.533160	-4.745860	0.970273	-0.210205	0.206115	-1.000000	-1.000000	-1.000000	-1.000000	-1.000000	-1.000000	-1.000000	83.310345	0.000000	-1.000000	-1.000000	899041.000000	1770063294.072700
7863.525000	13853.520000	21663.495000	16550.280000	-9943.830000	-7028.145000	1202.445000	12718.665000	7.629303	15.803086	14.890717	15.525523	7.236576	7.660761	7.895607	3.782333	-6.302380	2.533160	-4.745860	0.970273	-0.210205	0.206115	-1.000000	-1.000000	-1.000000	-1.000000	-1.000000	-1.000000	-1.000000	83.310345	0.000000	-1.000000	-1.000000	899042.000000	1770063294.072705
7839.135000	13846.725000	21659.355000	16559.280000	-9924.795000	-7015.455000	1209.600000	12704.760000	13.170662	24.527090	22.543482	21.925279	15.396861	11.349144	9.981460	0.549837	-6.302380	2.533160	-4.745860	0.970273	-0.210205	0.206115	-1.000000	-1.000000	-1.000000	-1.000000	-1.000000	-1.000000	-1.000000	83.310345	0.000000	-1.000000	-1.000000	899043.000000	1770063294.079352
7803.270000	13768.830000	21605.445000	16533.360000	-9923.400000	-7004.295000	1223.955000	12730.680000	11.130865	22.755808	20.870546	20.250899	16.824471	11.021787	9.035765	-3.879395	-6.302380	2.533160	-4.745860	0.970273	-0.210205	0.206115	-1.000000	-1.000000	-1.000000	-1.000000	-1.000000	-1.000000	-1.000000	83.310345	0.000000	-1.000000	-1.000000	899044.000000	1770063294.079365
7840.800000	13756.005000	21584.520000	16510.590000	-9945.315000	-7016.490000	1228.365000	12782.070000	3.262701	9.472031	9.622980	10.714254	10.782113	7.001299	6.209558	-4.599788	-6.302380	2.533160	-4.745860	0.970273	-0.210205	0.206115	-1.000000	-1.000000	-1.000000	-1.000000	-1.000000	-1.000000	-1.000000	83.310345	0.000000	-1.000000	-1.000000	899045.000000	1770063294.079581
7857.225000	13795.875000	21618.855000	16503.120000	-9985.050000	-7047.990000	1216.080000	12787.335000	-3.508400	-8.471367	-5.592921	-3.541340	-2.093726	-0.636827	2.303580	1.733813	-6.302380	2.533160	-4.745860	0.970273	-0.210205	0.206115	-1.000000	-1.000000	-1.000000	-1.000000	-1.000000	-1.000000	-1.000000	83.310345	0.000000	-1.000000	-1.000000	899046.000000	1770063294.079588
7859.835000	13835.115000	21665.610000	16524.450000	-9980.370000	-7049.970000	1209.735000	12773.070000	-3.895018	-18.479648	-14.586392	-15.775461	-17.286669	-10.334963	-2.415554	11.006269	-6.302380	2.533160	-4.745860	0.970273	-0.210205	0.206115	-1.000000	-1.000000	-1.000000	-1.000000	-1.000000	-1.000000	-1.000000	83.310345	0.000000	-1.000000	-1.000000	899047.000000	1770063294.079596
7874.505000	13856.760000	21682.620000	16543.125000	-9990.000000	-7061.220000	1200.240000	12766.455000	0.550902	-13.496763	-11.169447	-19.033215	-26.061357	-17.276417	-6.986067	14.113517	-6.302380	2.533160	-4.745860	0.970273	-0.210205	0.206115	-1.000000	-1.000000	-1.000000	-1.000000	-1.000000	-1.000000	-1.000000	83.310345	0.000000	-1.000000	-1.000000	899048.000000	1770063294.079601
7869.420000	13834.260000	21658.320000	16533.360000	-9989.190000	-7050.735000	1207.620000	12761.820000	4.926527	1.303422	0.660266	-11.584936	-21.886905	-16.315575	-9.298577	6.372429	-6.302380	2.533160	-4.745860	0.970273	-0.210205	0.206115	-1.000000	-1.000000	-1.000000	-1.000000	-1.000000	-1.000000	-1.000000	83.310345	0.000000	-1.000000	-1.000000	899049.000000	1770063294.079607
7857.495000	13822.110000	21647.610000	16529.220000	-9978.390000	-7043.805000	1208.430000	12754.980000	5.495143	13.372663	10.283600	0.906208	-6.609395	-6.930352	-7.694195	-7.606897	-6.302380	2.533160	-4.745860	0.970273	-0.210205	0.206115	-1.000000	-1.000000	-1.000000	-1.000000	-1.000000	-1.000000	-1.000000	83.310345	0.000000	-1.000000	-1.000000	899050.000000	1770063294.079612
7857.810000	13832.280000	21660.570000	16543.980000	-9959.895000	-7031.565000	1216.170000	12751.560000	1.243016	13.760613	10.189045	10.032378	11.252140	5.987294	-2.649157	-18.051473	-5.768280	2.227960	-4.684820	0.968259	-0.205322	0.206176	-1.000000	-1.000000	-1.000000	-1.000000	-1.000000	-1.000000	-1.000000	83.310345	0.000000	-1.000000	-1.000000	899051.000000	1770063294.083359
7864.380000	13839.660000	21667.005000	16549.785000	-9951.255000	-7025.445000	1219.725000	12756.735000	-4.810311	4.522506	2.289514	11.784709	23.004794	15.734171	3.248683	-18.338853	-5.768280	2.227960	-4.684820	0.968259	-0.205322	0.206176	-1.000000	-1.000000	-1.000000	-1.000000	-1.000000	-1.000000	-1.000000	83.310345	0.000000	-1.000000	-1.000000	899052.000000	1770063294.083372
7860.285000	13828.050000	21654.675000	16544.385000	-9931.140000	-7018.740000	1215.855000	12786.705000	-7.797141	-4.840274	-5.509313	8.138417	24.725357	18.014819	6.753719	-9.598681	-5.768280	2.227960	-4.684820	0.968259	-0.205322	0.206176	-1.000000	-1.000000	-1.000000	-1.000000	-1.000000	-1.000000	-1.000000	83.310345	0.000000	-1.000000	-1.000000	899053.000000	1770063294.090775
7840.665000	13821.255000	21618.225000	16539.750000	-9881.550000	-6999.165000	1209.105000	12756.780000	-6.768538	-8.033370	-8.371366	3.035823	18.762991	13.322481	6.080855	1.444760	-5.768280	2.227960	-4.684820	0.968259	-0.205322	0.206176	-1.000000	-1.000000	-1.000000	-1.000000	-1.000000	-1.000000	-1.000000	83.310345	0.000000	-1.000000	-1.000000	899054.000000	1770063294.090788
7848.540000	13853.880000	21634.470000	16574.130000	-9808.245000	-6958.845000	1217.520000	12694.230000	-4.833756	-6.477810	-8.146078	-0.775881	11.698876	6.396749	2.441781	7.185091	-5.768280	2.227960	-4.684820	0.968259	-0.205322	0.206176	-1.000000	-1.000000	-1.000000	-1.000000	-1.000000	-1.000000	-1.000000	83.310345	0.000000	-1.000000	-1.000000	899055.000000	1770063294.093693
7867.035000	13828.995000	21635.145000	16556.310000	-9865.350000	-6976.665000	1234.395000	12738.780000	-3.467066	-4.560379	-8.036811	-2.626169	7.203348	1.635027	-0.726793	5.049533	-5.768280	2.227960	-4.684820	0.968259	-0.205322	0.206176	-1.000000	-1.000000	-1.000000	-1.000000	-1.000000	-1.000000	-1.000000	83.310345	0.000000	-1.000000	-1.000000	899056.000000	1770063294.093704
7867.710000	13796.910000	21602.610000	16500.375000	-10028.205000	-7054.245000	1229.130000	12797.820000	-1.341671	-5.117158	-8.122915	-4.579217	-0.439512	-2.129313	-0.922309	1.105159	-5.768280	2.227960	-4.684820	0.968259	-0.205322	0.206176	-1.000000	-1.000000	-1.000000	-1.000000	-1.000000	-1.000000	-1.000000	83.310345	0.000000	-1.000000	-1.000000	899057.000000	1770063294.099874
7869.240000	13812.750000	21650.445000	16501.005000	-10067.805000	-7084.845000	1217.610000	12778.920000	2.209012	-7.260613	-5.893956	-8.617378	-18.683425	-9.478937	0.759814	2.754050	-5.768280	2.227960	-4.684820	0.968259	-0.205322	0.206176	-1.000000	-1.000000	-1.000000	-1.000000	-1.000000	-1.000000	-1.000000	83.310345	0.000000	-1.000000	-1.000000	899058.000000	1770063294.099882
7855.245000	13826.835000	21676.005000	16520.535000	-10052.865000	-7086.465000	1203.345000	12742.380000	5.743958	-6.722626	1.381384	-12.189895	-41.443703	-19.987530	1.056953	8.599380	-5.768280	2.227960	-4.684820	0.968259	-0.205322	0.206176	-1.000000	-1.000000	-1.000000	-1.000000	-1.000000	-1.000000	-1.000000	83.310345	0.000000	-1.000000	-1.000000	899059.000000	1770063294.100051
7883.280000	13841.595000	21671.595000	16520.715000	-10034.865000	-7087.590000	1196.010000	12757.320000	7.424796	-0.923675	12.049834	-10.721109	-51.073769	-26.360979	-1.652792	11.453086	-5.768280	2.227960	-4.684820	0.968259	-0.205322	0.206176	-1.000000	-1.000000	-1.000000	-1.000000	-1.000000	-1.000000	-1.000000	83.310345	0.000000	-1.000000	-1.000000	899060.000000	1770063294.100057
7865.460000	13819.005000	21648.690000	16520.850000	-9994.725000	-7050.105000	1212.030000	12756.645000	6.894007	7.717579	19.231359	-3.435379	-36.074877	-21.633707	-5.596453	7.712110	-6.424460	3.982860	-3.860780	0.969541	-0.202209	0.202636	-1.000000	-1.000000	-1.000000	-1.000000	-1.000000	-1.000000	-1.000000	83.310345	0.000000	-1.000000	-1.000000	899061.000000	1770063294.105636
7877.880000	13838.985000	21664.575000	16535.700000	-9981.720000	-7054.020000	1205.460000	12756.285000	4.629391	14.393875	17.903461	6.489077	-1.625634	-5.602499	-7.194873	-0.788566	-6.424460	3.982860	-3.860780	0.969541	-0.202209	0.202636	-1.000000	-1.000000	-1.000000	-1.000000	-1.000000	-1.000000	-1.000000	83.310345	0.000000	-1.000000	-1.000000	899062.000000	1770063294.105657
7893.630000	13842.945000	21666.780000	16541.910000	-9967.995000	-7041.690000	1210.725000	12763.980000	1.549128	15.621770	9.696852	14.740281	34.092567	14.115405	-4.551322	-8.822493	-6.424460	3.982860	-3.860780	0.969541	-0.202209	0.202636	-1.000000	-1.000000	-1.000000	-1.000000	-1.000000	-1.000000	-1.000000	83.310345	0.000000	-1.000000	-1.000000	899063.000000	1770063294.107090
7898.085000	13836.510000	21666.600000	16549.290000	-9949.095000	-7021.485000	1228.230000	12770.145000	-1.046834	10.262971	-0.930299	17.310238	52.795173	27.405831	1.035738	-10.573037	-6.424460	3.982860	-3.860780	0.969541	-0.202209	0.202636	-1.000000	-1.000000	-1.000000	-1.000000	-1.000000	-1.000000	-1.000000	83.310345	0.000000	-1.000000	-1.000000	899064.000000	1770063294.107096
7882.200000	13828.275000	21659.580000	16546.320000	-9945.855000	-7021.800000	1222.245000	12750.570000	-3.263255	0.312259	-10.481772	13.036120	49.717438	29.678912	6.503694	-6.120295	-6.424460	3.982860	-3.860780	0.969541	-0.202209	0.202636	-1.000000	-1.000000	-1.000000	-1.000000	-1.000000	-1.000000	-1.000000	83.310345	0.000000	-1.000000	-1.000000	899065.000000	1770063294.111130
7834.230000	13806.720000	21630.285000	16515.810000	-9977.445000	-7052.490000	1197.135000	12727.800000	-6.561637	-9.168907	-16.244568	4.923379	33.981972	23.180504	8.654590	-2.326065	-6.424460	3.982860	-3.860780	0.969541	-0.202209	0.202636	-1.000000	-1.000000	-1.000000	-1.000000	-1.000000	-1.000000	-1.000000	83.310345	0.000000	-1.000000	-1.000000	899066.000000	1770063294.111139
7840.710000	13816.980000	21640.005000	16522.605000	-9971.955000	-7049.430000	1202.535000	12736.845000	-10.774962	-13.913175	-17.329391	-3.382726	15.298084	11.820891	6.165594	-2.974446	-6.424460	3.982860	-3.860780	0.969541	-0.202209	0.202636	-1.000000	-1.000000	-1.000000	-1.000000	-1.000000	-1.000000	-1.000000	83.310345	0.000000	-1.000000	-1.000000	899067.000000	1770063294.122059
7909.920000	13869.405000	21682.035000	16544.610000	-9978.930000	-7074.315000	1191.015000	12756.015000	-11.676984	-12.424494	-14.025613	-9.665648	-3.547496	-1.647738	1.045311	-3.701680	-6.424460	3.982860	-3.860780	0.969541	-0.202209	0.202636	-1.000000	-1.000000	-1.000000	-1.000000	-1.000000	-1.000000	-1.000000	83.310345	0.000000	-1.000000	-1.000000	899068.000000	1770063294.122070
7903.710000	13839.750000	21658.455000	16527.735000	-9980.640000	-7062.435000	1205.235000	12763.755000	-4.838072	-5.381108	-6.097661	-12.207704	-21.838354	-14.545445	-3.331316	0.167701	-6.424460	3.982860	-3.860780	0.969541	-0.202209	0.202636	-1.000000	-1.000000	-1.000000	-1.000000	-1.000000	-1.000000	-1.000000	83.310345	0.000000	-1.000000	-1.000000	899069.000000	1770063294.122081
7868.475000	13816.710000	21648.105000	16527.015000	-9970.695000	-7048.620000	1212.165000	12755.520000	6.729903	3.125562	4.447716	-10.711439	-36.054743	-23.142040	-4.880153	6.633296	-6.424460	3.982860	-3.860780	0.969541	-0.202209	0.202636	-1.000000	-1.000000	-1.000000	-1.000000	-1.000000	-1.000000	-1.000000	83.310345	0.000000	-1.000000	-1.000000	899070.000000	1770063294.122086
7815.735000	13801.995000	21637.395000	16518.510000	-9979.020000	-7052.715000	1211.580000	12742.470000	13.412011	7.191317	12.468380	-6.858630	-41.138479	-23.972904	-3.397210	10.171722	-9.049180	4.242280	-4.410140	0.967771	-0.199462	0.200622	-1.000000	-1.000000	-1.000000	-1.000000	-1.000000	-1.000000	-1.000000	83.310345	0.000000	-1.000000	-1.000000	899071.000000	1770063294.126060
7793.325000	13778.010000	21625.335000	16515.405000	-9965.790000	-7032.690000	1224.945000	12747.285000	8.648316	4.128381	13.748775	-2.918626	-34.702407	-16.847962	-0.331527	8.182157	-9.049180	4.242280	-4.410140	0.967771	-0.199462	0.200622	-1.000000	-1.000000	-1.000000	-1.000000	-1.000000	-1.000000	-1.000000	83.310345	0.000000	-1.000000	-1.000000	899072.000000	1770063294.126070
7802.325000	13787.190000	21647.160000	16534.440000	-9955.755000	-7039.440000	1208.835000	12736.755000	-4.016462	-2.983640	8.614014	0.095192	-18.544762	-5.312492	1.909719	2.428177	-9.049180	4.242280	-4.410140	0.967771	-0.199462	0.200622	-1.000000	-1.000000	-1.000000	-1.000000	-1.000000	-1.000000	-1.000000	83.310345	0.000000	-1.000000	-1.000000	899073.000000	1770063294.128187
7809.930000	13812.705000	21668.580000	16552.485000	-9947.160000	-7038.810000	1200.330000	12718.980000	-13.494634	-6.995672	2.350749	3.639922	3.345373	6.254133	1.653080	-3.974296	-9.049180	4.242280	-4.410140	0.967771	-0.199462	0.200622	-1.000000	-1.000000	-1.000000	-1.000000	-1.000000	-1.000000	-1.000000	83.310345	0.000000	-1.000000	-1.000000	899074.000000	1770063294.128194
7842.870000	13834.710000	21673.845000	16554.195000	-9949.005000	-7040.565000	1200.870000	12730.860000	-10.636914	-2.612614	0.338107	9.096139	25.038792	14.836146	-0.316757	-8.102963	-9.049180	4.242280	-4.410140	0.967771	-0.199462	0.200622	-1.000000	-1.000000	-1.000000	-1.000000	-1.000000	-1.000000	-1.000000	83.310345	0.000000	-1.000000	-1.000000	899075.000000	1770063294.135146
7852.860000	13809.690000	21642.660000	16538.445000	-9948.645000	-7032.690000	1210.410000	12738.105000	3.495137	7.130880	1.479256	13.496361	38.039636	18.495101	-1.545138	-7.587764	-9.049180	4.242280	-4.410140	0.967771	-0.199462	0.200622	-1.000000	-1.000000	-1.000000	-1.000000	-1.000000	-1.000000	-1.000000	83.310345	0.000000	-1.000000	-1.000000	899076.000000	1770063294.135156
7831.395000	13788.945000	21618.135000	16515.990000	-9966.870000	-7045.245000	1207.350000	12727.035000	17.467746	12.594319	-0.187248	11.370185	35.524622	16.119657	-0.695040	-3.086632	-9.049180	4.242280	-4.410140	0.967771	-0.199462	0.200622	-1.000000	-1.000000	-1.000000	-1.000000	-1.000000	-1.000000	-1.000000	83.310345	0.000000	-1.000000	-1.000000	899077.000000	1770063294.135472
7835.265000	13816.980000	21633.930000	16511.085000	-9987.345000	-7065.585000	1199.520000	12731.040000	20.186518	8.920181	-6.127358	1.813822	17.882285	7.705759	0.920874	1.619952	-9.049180	4.242280	-4.410140	0.967771	-0.199462	0.200622	-1.000000	-1.000000	-1.000000	-1.000000	-1.000000	-1.000000	-1.000000	83.310345	0.000000	-1.000000	-1.000000	899078.000000	1770063294.135482
7836.345000	13848.795000	21670.740000	16536.870000	-9976.275000	-7064.460000	1202.310000	12751.785000	11.768381	1.808154	-10.105313	-9.090561	-6.559735	-4.637212	1.083690	4.174280	-9.049180	4.242280	-4.410140	0.967771	-0.199462	0.200622	-1.000000	-1.000000	-1.000000	-1.000000	-1.000000	-1.000000	-1.000000	83.310345	0.000000	-1.000000	-1.000000	899079.000000	1770063294.142503
7868.970000	13841.955000	21660.345000	16528.905000	-9980.505000	-7069.365000	1205.190000	12774.285000	1.145221	-1.325925	-6.500535	-13.923086	-25.751457	-15.677359	-0.433417	5.685096	-9.049180	4.242280	-4.410140	0.967771	-0.199462	0.200622	-1.000000	-1.000000	-1.000000	-1.000000	-1.000000	-1.000000	-1.000000	83.310345	0.000000	-1.000000	-1.000000	899080.000000	1770063294.142512
7849.395000	13798.035000	21612.195000	16501.725000	-9984.645000	-7060.005000	1207.530000	12732.030000	-4.551733	-0.588639	1.656926	-11.127136	-31.426697	-19.911214	-2.091354	6.705406	-12.620020	4.303320	-3.799740	0.969419	-0.196105	0.201171	-1.000000	-1.000000	-1.000000	-1.000000	-1.000000	-1.000000	-1.000000	83.310345	0.000000	-1.000000	-1.000000	899081.000000	1770063294.143086
7821.900000	13797.630000	21605.220000	16503.975000	-9977.850000	-7055.145000	1197.990000	12686.310000	-6.089874	-1.248050	5.942530	-5.182168	-23.220089	-15.161943	-2.466316	4.430382	-12.620020	4.303320	-3.799740	0.969419	-0.196105	0.201171	-1.000000	-1.000000	-1.000000	-1.000000	-1.000000	-1.000000	-1.000000	83.310345	0.000000	-1.000000	-1.000000	899082.000000	1770063294.143092
7841.295000	13828.770000	21637.260000	16522.020000	-9975.555000	-7061.580000	1186.830000	12717.855000	-7.776970	-5.372189	3.057153	-0.032371	-6.358236	-3.471186	-1.180618	-2.231996	-12.620020	4.303320	-3.799740	0.969419	-0.196105	0.201171	-1.000000	-1.000000	-1.000000	-1.000000	-1.000000	-1.000000	-1.000000	83.310345	0.000000	-1.000000	-1.000000	899083.000000	1770063294.148339
7860.240000	13819.005000	21640.860000	16527.735000	-9968.130000	-7054.020000	1198.800000	12766.095000	-10.193182	-9.494557	-1.967760	4.068751	11.385066	9.447703	0.931172	-7.989785	-12.620020	4.303320	-3.799740	0.969419	-0.196105	0.201171	-1.000000	-1.000000	-1.000000	-1.000000	-1.000000	-1.000000	-1.000000	83.310345	0.000000	-1.000000	-1.000000	899084.000000	1770063294.148355
7839.315000	13801.455000	21632.760000	16526.610000	-9962.190000	-7046.190000	1206.180000	12778.830000	-11.121649	-10.041832	-3.226077	7.602701	22.585456	17.490414	2.825736	-6.763427	-12.620020	4.303320	-3.799740	0.969419	-0.196105	0.201171	-1.000000	-1.000000	-1.000000	-1.000000	-1.000000	-1.000000	-1.000000	83.310345	0.000000	-1.000000	-1.000000	899085.000000	1770063294.155761
7833.195000	13820.895000	21646.395000	16532.010000	-9964.710000	-7050.015000	1209.465000	12766.860000	-9.574977	-6.446379	0.329231	9.914461	23.704758	17.928075	3.976956	0.499621	-12.620020	4.303320	-3.799740	0.969419	-0.196105	0.201171	-1.000000	-1.000000	-1.000000	-1.000000	-1.000000	-1.000000	-1.000000	83.310345	0.000000	-1.000000	-1.000000	899086.000000	1770063294.155773
7819.380000	13813.965000	21648.195000	16537.095000	-9960.975000	-7044.120000	1212.255000	12737.205000	-5.743954	-0.311532	5.563507	9.877432	16.002141	11.832824	4.013519	6.614915	-12.620020	4.303320	-3.799740	0.969419	-0.196105	0.201171	-1.000000	-1.000000	-1.000000	-1.000000	-1.000000	-1.000000	-1.000000	83.310345	0.000000	-1.000000	-1.000000	899087.000000	1770063294.156019
7817.805000	13831.875000	21669.840000	16554.375000	-9947.115000	-7031.745000	1222.200000	12751.380000	-0.504058	5.233379	8.157532	6.737323	3.877742	2.733523	2.809546	5.583137	-12.620020	4.303320	-3.799740	0.969419	-0.196105	0.201171	-1.000000	-1.000000	-1.000000	-1.000000	-1.000000	-1.000000	-1.000000	83.310345	0.000000	-1.000000	-1.000000	899088.000000	1770063294.156030
7828.200000	13843.215000	21672.360000	16555.320000	-9943.380000	-7030.080000	1218.870000	12724.695000	4.587975	8.375920	6.698888	1.501662	-7.246773	-5.373096	0.642633	-1.789446	-12.620020	4.303320	-3.799740	0.969419	-0.196105	0.201171	-1.000000	-1.000000	-1.000000	-1.000000	-1.000000	-1.000000	-1.000000	83.310345	0.000000	-1.000000	-1.000000	899089.000000	1770063294.163119
7829.685000	13837.320000	21652.380000	16533.405000	-9964.440000	-7048.080000	1196.055000	12687.840000	8.602859	9.971339	3.219000	-3.585606	-13.660483	-10.408980	-2.235111	-9.576352	-12.620020	4.303320	-3.799740	0.969419	-0.196105	0.201171	-1.000000	-1.000000	-1.000000	-1.000000	-1.000000	-1.000000	-1.000000	83.310345	0.000000	-1.000000	-1.000000	899090.000000	1770063294.163126
7855.560000	13841.505000	21647.610000	16520.670000	-9990.765000	-7076.700000	1183.320000	12715.155000	11.600482	9.838103	-0.947270	-7.680834	-15.193237	-12.624951	-5.302655	-11.830335	-13.871340	2.746800	-2.411080	0.968564	-0.192626	0.203430	-1.000000	-1.000000	-1.000000	-1.000000	-1.000000	-1.000000	-1.000000	83.310345	0.000000	-1.000000	-1.000000	899091.000000	1770063294.163280
7849.935000	13779.810000	21584.475000	16479.045000	-10005.120000	-7078.005000	1188.405000	12741.480000	12.667279	5.147439	-6.891305	-11.507934	-13.761816	-12.652009	-7.099317	-6.453041	-13.871340	2.746800	-2.411080	0.968564	-0.192626	0.203430	-1.000000	-1.000000	-1.000000	-1.000000	-1.000000	-1.000000	-1.000000	83.310345	0.000000	-1.000000	-1.000000	899092.000000	1770063294.163286
7834.500000	13763.475000	21576.915000	16487.145000	-9989.145000	-7063.065000	1194.435000	12739.140000	9.263158	-5.225352	-14.726183	-14.664588	-10.394370	-9.972863	-6.176005	2.801320	-13.871340	2.746800	-2.411080	0.968564	-0.192626	0.203430	-1.000000	-1.000000	-1.000000	-1.000000	-1.000000	-1.000000	-1.000000	83.310345	0.000000	-1.000000	-1.000000	899093.000000	1770063294.167062
7830.180000	13783.455000	21603.240000	16504.425000	-9981.765000	-7060.230000	1200.600000	12740.085000	0.999679	-15.953382	-19.571109	-13.845400	-4.514911	-3.940838	-2.604532	9.501905	-13.871340	2.746800	-2.411080	0.968564	-0.192626	0.203430	-1.000000	-1.000000	-1.000000	-1.000000	-1.000000	-1.000000	-1.000000	83.310345	0.000000	-1.000000	-1.000000	899094.000000	1770063294.167074
7842.060000	13796.280000	21611.700000	16504.785000	-9987.705000	-7067.070000	1201.005000	12742.335000	-7.704270	-18.694477	-15.063576	-6.203446	3.558673	3.997270	2.032123	10.733608	-13.871340	2.746800	-2.411080	0.968564	-0.192626	0.203430	-1.000000	-1.000000	-1.000000	-1.000000	-1.000000	-1.000000	-1.000000	83.310345	0.000000	-1.000000	-1.000000	899095.000000	1770063294.171737
7851.555000	13803.795000	21619.935000	16501.410000	-10007.280000	-7089.840000	1191.285000	12742.470000	-11.242165	-10.766569	-1.627358	5.520140	10.487353	9.954182	5.447190	8.068863	-13.871340	2.746800	-2.411080	0.968564	-0.192626	0.203430	-1.000000	-1.000000	-1.000000	-1.000000	-1.000000	-1.000000	-1.000000	83.310345	0.000000	-1.000000	-1.000000	899096.000000	1770063294.171746
7859.565000	13807.485000	21631.140000	16508.160000	-10013.715000	-7096.500000	1188.000000	12741.525000	-8.059765	2.679209	13.264751	14.715156	12.091234	10.311029	5.737899	3.843123	-13.871340	2.746800	-2.411080	0.968564	-0.192626	0.203430	-1.000000	-1.000000	-1.000000	-1.000000	-1.000000	-1.000000	-1.000000	83.310345	0.000000	-1.000000	-1.000000	899097.000000	1770063294.175070
7865.730000	13796.370000	21634.965000	16518.600000	-10002.555000	-7084.305000	1199.025000	12756.240000	-1.419773	13.825634	22.335885	17.438070	8.035351	5.540793	3.267903	0.199955	-13.871340	2.746800	-2.411080	0.968564	-0.192626	0.203430	-1.000000	-1.000000	-1.000000	-1.000000	-1.000000	-1.000000	-1.000000	83.310345	0.000000	-1.000000	-1.000000	899098.000000	1770063294.175078
7875.090000	13776.480000	21631.770000	16534.890000	-9962.550000	-7048.665000	1209.960000	12753.495000	4.130681	17.201626	22.810590	14.843964	3.247258	0.923223	1.127166	-0.565001	-13.871340	2.746800	-2.411080	0.968564	-0.192626	0.203430	-1.000000	-1.000000	-1.000000	-1.000000	-1.000000	-1.000000	-1.000000	83.310345	0.000000	-1.000000	-1.000000	899099.000000	1770063294.191243
7919.640000	13830.885000	21677.670000	16568.235000	-9943.245000	-7039.080000	1211.310000	12752.190000	6.257827	12.781832	16.415441	10.526121	3.282599	1.686778	1.805939	0.602957	-13.871340	2.746800	-2.411080	0.968564	-0.192626	0.203430	-1.000000	-1.000000	-1.000000	-1.000000	-1.000000	-1.000000	-1.000000	83.310345	0.000000	-1.000000	-1.000000	899100.000000	1770063294.191255
7903.620000	13828.725000	21660.300000	16546.590000	-9959.850000	-7051.410000	1210.095000	12752.280000	5.290171	6.427184	7.843414	6.773596	7.595704	6.643481	3.898417	-0.608470	-9.171260	5.569900	-2.243220	0.965818	-0.196960	0.198242	-1.000000	-1.000000	-1.000000	-1.000000	-1.000000	-1.000000	-1.000000	83.310345	0.000000	-1.000000	-1.000000	899101.000000	1770063294.191570
7874.595000	13791.510000	21617.910000	16522.425000	-9962.550000	-7051.500000	1208.880000	12748.815000	1.985101	2.743384	-0.328863	2.043936	9.403253	9.014284	3.849188	-5.703703	-9.171260	5.569900	-2.243220	0.965818	-0.196960	0.198242	-1.000000	-1.000000	-1.000000	-1.000000	-1.000000	-1.000000	-1.000000	83.310345	0.000000	-1.000000	-1.000000	899102.000000	1770063294.191579
7845.615000	13837.590000	21639.285000	16520.805000	-9979.020000	-7067.655000	1202.535000	12744.630000	-3.542747	-0.003101	-9.346530	-6.255346	3.568029	4.285425	0.108460	-11.100924	-9.171260	5.569900	-2.243220	0.965818	-0.196960	0.198242	-1.000000	-1.000000	-1.000000	-1.000000	-1.000000	-1.000000	-1.000000	83.310345	0.000000	-1.000000	-1.000000	899103.000000	1770063294.191589
7792.470000	13791.240000	21619.800000	16519.320000	-9963.045000	-7045.605000	1208.880000	12721.140000	-10.650037	-4.533184	-18.467538	-16.126625	-7.506560	-5.041366	-5.379581	-12.625281	-9.171260	5.569900	-2.243220	0.965818	-0.196960	0.198242	-1.000000	-1.000000	-1.000000	-1.000000	-1.000000	-1.000000	-1.000000	83.310345	0.000000	-1.000000	-1.000000	899104.000000	1770063294.191594
7771.455000	13791.240000	21666.960000	16555.950000	-9954.945000	-7053.345000	1203.750000	12722.895000	-17.224874	-10.776530	-23.080430	-21.349005	-16.208609	-12.286935	-8.984851	-9.338568	-9.171260	5.569900	-2.243220	0.965818	-0.196960	0.198242	-1.000000	-1.000000	-1.000000	-1.000000	-1.000000	-1.000000	-1.000000	83.310345	0.000000	-1.000000	-1.000000	899105.000000	1770063294.191600
7756.110000	13728.015000	21678.930000	16552.980000	-9977.310000	-7065.360000	1210.635000	12730.860000	-19.598666	-16.839309	-18.908708	-17.403332	-17.139302	-13.306755	-8.457048	-2.697353	-9.171260	5.569900	-2.243220	0.965818	-0.196960	0.198242	-1.000000	-1.000000	-1.000000	-1.000000	-1.000000	-1.000000	-1.000000	83.310345	0.000000	-1.000000	-1.000000	899106.000000	1770063294.191605
7687.755000	13610.655000	21658.545000	16550.910000	-9973.260000	-7054.830000	1215.180000	12706.245000	-15.344253	-21.113297	-6.728053	-6.165345	-11.582916	-9.407674	-4.283912	4.995091	-9.171260	5.569900	-2.243220	0.965818	-0.196960	0.198242	-1.000000	-1.000000	-1.000000	-1.000000	-1.000000	-1.000000	-1.000000	83.310345	0.000000	-1.000000	-1.000000	899107.000000	1770063294.204803
7738.335000	13609.260000	21661.155000	16561.305000	-9970.605000	-7054.380000	1220.175000	12703.860000	-5.760964	-22.964342	6.574764	5.591912	-4.317269	-4.018353	1.298340	10.460851	-9.171260	5.569900	-2.243220	0.965818	-0.196960	0.198242	-1.000000	-1.000000	-1.000000	-1.000000	-1.000000	-1.000000	-1.000000	83.310345	0.000000	-1.000000	-1.000000	899108.000000	1770063294.204817
7780.680000	13592.115000	21593.925000	16549.335000	-9925.290000	-7005.195000	1241.100000	12714.885000	7.140456	-19.756420	12.869764	12.004308	2.035190	1.247294	5.986596	11.228106	-9.171260	5.569900	-2.243220	0.965818	-0.196960	0.198242	-1.000000	-1.000000	-1.000000	-1.000000	-1.000000	-1.000000	-1.000000	83.310345	0.000000	-1.000000	-1.000000	899109.000000	1770063294.204830
7894.845000	13721.265000	21584.250000	16526.745000	-9943.695000	-7028.865000	1229.085000	12772.035000	23.228383	-6.165023	9.281711	11.540290	7.671775	6.405682	8.234973	8.718186	-9.171260	5.569900	-2.243220	0.965818	-0.196960	0.198242	-1.000000	-1.000000	-1.000000	-1.000000	-1.000000	-1.000000	-1.000000	83.310345	0.000000	-1.000000	-1.000000	899110.000000	1770063294.204835
7831.125000	13751.325000	21548.025000	16487.820000	-9965.970000	-7048.035000	1221.300000	12758.850000	39.573319	19.729736	0.342664	5.967498	11.446013	9.679109	6.967306	6.647032	-3.235120	10.971940	3.097780	0.973081	-0.200439	0.190795	-1.000000	-1.000000	-1.000000	-1.000000	-1.000000	-1.000000	-1.000000	83.310345	0.000000	-1.000000	-1.000000	899111.000000	1770063294.204841
7751.565000	13759.155000	21578.760000	16497.720000	-9970.515000	-7057.665000	1203.120000	12711.960000	45.122394	47.723622	-6.521079	-1.500293	10.563131	8.128648	2.112807	5.229250	-3.235120	10.971940	3.097780	0.973081	-0.200439	0.190795	-1.000000	-1.000000	-1.000000	-1.000000	-1.000000	-1.000000	-1.000000	83.310345	0.000000	-1.000000	-1.000000	899112.000000	1770063294.204846
7778.115000	13755.060000	21620.925000	16516.440000	-9965.745000	-7056.405000	1198.350000	12717.990000	30.375778	59.866805	-5.976503	-6.662852	4.926012	2.036922	-4.408737	1.454601	-3.235120	10.971940	3.097780	0.973081	-0.200439	0.190795	-1.000000	-1.000000	-1.000000	-1.000000	-1.000000	-1.000000	-1.000000	83.310345	0.000000	-1.000000	-1.000000	899113.000000	1770063294.208872
7806.735000	13770.810000	21641.580000	16524.630000	-9971.730000	-7069.320000	1190.925000	12717.450000	1.790819	47.124573	2.297538	-6.491002	-2.051284	-4.738276	-9.320905	-4.752832	-3.235120	10.971940	3.097780	0.973081	-0.200439	0.190795	-1.000000	-1.000000	-1.000000	-1.000000	-1.000000	-1.000000	-1.000000	83.310345	0.000000	-1.000000	-1.000000	899114.000000	1770063294.208884
7820.190000	13788.045000	21631.140000	16528.905000	-9965.205000	-7077.240000	1192.500000	12728.295000	-23.397855	17.363007	12.527395	-1.602910	-6.310447	-8.341008	-10.051486	-9.672995	-3.235120	10.971940	3.097780	0.973081	-0.200439	0.190795	-1.000000	-1.000000	-1.000000	-1.000000	-1.000000	-1.000000	-1.000000	83.310345	0.000000	-1.000000	-1.000000	899115.000000	1770063294.211946
7827.660000	13731.570000	21536.820000	16484.040000	-9953.370000	-7037.955000	1214.820000	12733.110000	-33.120385	-12.969903	16.220305	4.061917	-5.892853	-7.175901	-6.045886	-9.737765	-3.235120	10.971940	3.097780	0.973081	-0.200439	0.190795	-1.000000	-1.000000	-1.000000	-1.000000	-1.000000	-1.000000	-1.000000	83.310345	0.000000	-1.000000	-1.000000	899116.000000	1770063294.211958
7898.715000	13802.445000	21556.665000	16489.980000	-9964.395000	-7054.470000	1203.660000	12747.915000	-27.447614	-32.390114	8.832986	5.836388	-2.422376	-2.154679	0.974573	-4.648259	-3.235120	10.971940	3.097780	0.973081	-0.200439	0.190795	-1.000000	-1.000000	-1.000000	-1.000000	-1.000000	-1.000000	-1.000000	83.310345	0.000000	-1.000000	-1.000000	899117.000000	1770063294.215123
7908.570000	13855.545000	21619.260000	16547.130000	-9931.320000	-7037.370000	1217.745000	12773.295000	-14.856359	-37.565472	-3.134577	3.938271	0.731272	3.325529	7.356696	2.140905	-3.235120	10.971940	3.097780	0.973081	-0.200439	0.190795	-1.000000	-1.000000	-1.000000	-1.000000	-1.000000	-1.000000	-1.000000	83.310345	0.000000	-1.000000	-1.000000	899118.000000	1770063294.215134
7830.900000	13840.650000	21625.020000	16548.165000	-9926.055000	-7028.730000	1214.550000	12724.245000	-5.870907	-31.784122	-7.207026	3.973736	2.661705	6.527098	10.172481	5.417173	-3.235120	10.971940	3.097780	0.973081	-0.200439	0.190795	-1.000000	-1.000000	-1.000000	-1.000000	-1.000000	-1.000000	-1.000000	83.310345	0.000000	-1.000000	-1.000000	899119.000000	1770063294.219336
7810.875000	13848.345000	21609.360000	16508.745000	-9971.145000	-7066.980000	1183.950000	12700.980000	-5.510794	-23.254428	-0.716217	7.645273	4.091645	7.343659	8.837449	2.082131	-3.235120	10.971940	3.097780	0.973081	-0.200439	0.190795	-1.000000	-1.000000	-1.000000	-1.000000	-1.000000	-1.000000	-1.000000	83.310345	0.000000	-1.000000	-1.000000	899120.000000	1770063294.219347
7822.665000	13865.670000	21636.405000	16524.405000	-9970.605000	-7070.625000	1187.955000	12723.120000	-7.924648	-16.510474	6.985520	9.295852	3.629377	5.453563	4.176019	-4.442556	-12.879440	14.725900	2.151660	0.983030	-0.186706	0.184997	-1.000000	-1.000000	-1.000000	-1.000000	-1.000000	-1.000000	-1.000000	83.310345	0.000000	-1.000000	-1.000000	899121.000000	1770063294.223145
7870.770000	13877.955000	21652.650000	16542.585000	-9948.690000	-7048.215000	1205.235000	12760.875000	-4.189914	-9.215704	6.921291	4.432350	0.460620	1.170893	-1.190267	-6.534720	-12.879440	14.725900	2.151660	0.983030	-0.186706	0.184997	-1.000000	-1.000000	-1.000000	-1.000000	-1.000000	-1.000000	-1.000000	83.310345	0.000000	-1.000000	-1.000000	899122.000000	1770063294.223156
7850.340000	13840.110000	21631.860000	16529.175000	-9952.380000	-7045.740000	1203.120000	12758.445000	6.181878	0.193673	-1.792802	-4.865407	-2.706386	-2.322381	-3.920099	-1.046692	-12.879440	14.725900	2.151660	0.983030	-0.186706	0.184997	-1.000000	-1.000000	-1.000000	-1.000000	-1.000000	-1.000000	-1.000000	83.310345	0.000000	-1.000000	-1.000000	899123.000000	1770063294.228490
7835.400000	13820.220000	21620.970000	16520.355000	-9958.905000	-7048.845000	1197.450000	12738.735000	15.743900	9.091040	-12.947752	-13.237873	-3.552587	-2.840464	-3.539932	7.163037	-12.879440	14.725900	2.151660	0.983030	-0.186706	0.184997	-1.000000	-1.000000	-1.000000	-1.000000	-1.000000	-1.000000	-1.000000	83.310345	0.000000	-1.000000	-1.000000	899124.000000	1770063294.228501
7828.470000	13822.110000	21631.275000	16525.755000	-9963.045000	-7057.530000	1188.495000	12729.870000	16.936220	14.684935	-17.740546	-15.956809	-2.912353	-2.264921	-2.595647	10.541069	-12.879440	14.725900	2.151660	0.983030	-0.186706	0.184997	-1.000000	-1.000000	-1.000000	-1.000000	-1.000000	-1.000000	-1.000000	83.310345	0.000000	-1.000000	-1.000000	899125.000000	1770063294.232239
7829.100000	13811.805000	21633.255000	16529.805000	-9958.230000	-7052.490000	1193.535000	12738.150000	7.615502	15.082190	-12.263497	-11.664285	-2.383416	-3.069205	-2.960498	5.937333	-12.879440	14.725900	2.151660	0.983030	-0.186706	0.184997	-1.000000	-1.000000	-1.000000	-1.000000	-1.000000	-1.000000	-1.000000	83.310345	0.000000	-1.000000	-1.000000	899126.000000	1770063294.232248
7826.220000	13777.245000	21612.060000	16518.330000	-9959.985000	-7052.940000	1194.525000	12739.905000	-6.874432	8.363843	-1.865943	-3.920418	-2.420305	-4.823757	-3.889012	-3.325700	-12.879440	14.725900	2.151660	0.983030	-0.186706	0.184997	-1.000000	-1.000000	-1.000000	-1.000000	-1.000000	-1.000000	-1.000000	83.310345	0.000000	-1.000000	-1.000000	899127.000000	1770063294.235056
7811.910000	13740.660000	21592.260000	16500.780000	-9964.125000	-7054.065000	1190.970000	12736.485000	-15.786478	-3.994020	5.008410	2.377721	-2.173226	-5.179638	-3.455096	-10.252966	-12.879440	14.725900	2.151660	0.983030	-0.186706	0.184997	-1.000000	-1.000000	-1.000000	-1.000000	-1.000000	-1.000000	-1.000000	83.310345	0.000000	-1.000000	-1.000000	899128.000000	1770063294.235066
7746.255000	13643.505000	21559.230000	16504.155000	-9918.900000	-7009.470000	1205.460000	12715.515000	-12.409228	-16.376792	4.828322	5.678793	0.601921	-1.680156	-0.359416	-9.786343	-12.879440	14.725900	2.151660	0.983030	-0.186706	0.184997	-1.000000	-1.000000	-1.000000	-1.000000	-1.000000	-1.000000	-1.000000	83.310345	0.000000	-1.000000	-1.000000	899129.000000	1770063294.239105
7704.405000	13594.545000	21591.810000	16539.840000	-9897.345000	-6989.220000	1209.555000	12695.130000	-2.163229	-23.715612	-0.311205	7.116127	7.026849	6.074190	4.666332	-3.946546	-12.879440	14.725900	2.151660	0.983030	-0.186706	0.184997	-1.000000	-1.000000	-1.000000	-1.000000	-1.000000	-1.000000	-1.000000	83.310345	0.000000	-1.000000	-1.000000	899130.000000	1770063294.239115
7723.980000	13603.995000	21654.180000	16585.425000	-9906.750000	-6997.725000	1208.655000	12703.500000	4.506264	-22.162946	-4.307763	8.224996	13.421687	13.736463	8.422128	0.861534	-7.172200	11.383960	-1.541260	0.971799	-0.201049	0.170959	-1.000000	-1.000000	-1.000000	-1.000000	-1.000000	-1.000000	-1.000000	83.310345	0.000000	-1.000000	-1.000000	899131.000000	1770063294.245037
7752.150000	13631.805000	21649.680000	16565.580000	-9935.595000	-7012.665000	1220.940000	12739.770000	5.627427	-7.794926	-0.787974	9.664360	13.400615	14.626794	8.064087	2.438007	-7.172200	11.383960	-1.541260	0.971799	-0.201049	0.170959	-1.000000	-1.000000	-1.000000	-1.000000	-1.000000	-1.000000	-1.000000	83.310345	0.000000	-1.000000	-1.000000	899132.000000	1770063294.245048
7773.480000	13647.240000	21532.545000	16473.555000	-9992.205000	-7053.975000	1205.820000	12741.705000	7.085859	18.126951	8.227096	8.561268	3.865599	5.833014	3.812872	4.131624	-7.172200	11.383960	-1.541260	0.971799	-0.201049	0.170959	-1.000000	-1.000000	-1.000000	-1.000000	-1.000000	-1.000000	-1.000000	83.310345	0.000000	-1.000000	-1.000000	899133.000000	1770063294.247581
7838.820000	13799.970000	21586.410000	16462.170000	-10014.930000	-7076.790000	1179.405000	12734.865000	12.116840	45.956310	12.904846	0.437484	-11.984372	-9.250826	-2.452863	7.437158	-7.172200	11.383960	-1.541260	0.971799	-0.201049	0.170959	-1.000000	-1.000000	-1.000000	-1.000000	-1.000000	-1.000000	-1.000000	83.310345	0.000000	-1.000000	-1.000000	899134.000000	1770063294.247591
7736.040000	13677.885000	21690.810000	16552.620000	-9952.065000	-7023.915000	1200.510000	12705.750000	16.405794	61.616105	10.440163	-11.558576	-24.895769	-21.973803	-8.494493	8.621563	-7.172200	11.383960	-1.541260	0.971799	-0.201049	0.170959	-1.000000	-1.000000	-1.000000	-1.000000	-1.000000	-1.000000	-1.000000	83.310345	0.000000	-1.000000	-1.000000	899135.000000	1770063294.251434
7579.665000	13411.665000	21687.345000	16597.755000	-9909.765000	-6992.595000	1216.620000	12672.360000	10.441978	49.002867	8.129798	-15.647954	-24.121686	-22.747585	-10.937936	3.850599	-7.172200	11.383960	-1.541260	0.971799	-0.201049	0.170959	-1.000000	-1.000000	-1.000000	-1.000000	-1.000000	-1.000000	-1.000000	83.310345	0.000000	-1.000000	-1.000000	899136.000000	1770063294.251443
7415.235000	13177.305000	21627.360000	16609.545000	-9865.665000	-6953.715000	1230.570000	12614.130000	-10.975335	0.387247	8.647773	-5.153831	-6.779793	-8.921506	-7.163566	-5.778422	-7.172200	11.383960	-1.541260	0.971799	-0.201049	0.170959	-1.000000	-1.000000	-1.000000	-1.000000	-1.000000	-1.000000	-1.000000	83.310345	0.000000	-1.000000	-1.000000	899137.000000	1770063294.255145
7372.935000	13093.245000	21520.845000	16549.290000	-9886.860000	-6940.845000	1255.185000	12617.955000	-38.485884	-65.283248	4.454982	11.277478	16.770401	11.329870	1.366478	-14.744783	-7.172200	11.383960	-1.541260	0.971799	-0.201049	0.170959	-1.000000	-1.000000	-1.000000	-1.000000	-1.000000	-1.000000	-1.000000	83.310345	0.000000	-1.000000	-1.000000	899138.000000	1770063294.255156
7499.880000	13151.655000	21265.380000	16338.465000	-10057.680000	-7037.010000	1231.245000	12664.620000	-50.433247	-106.499103	-14.233204	14.669808	27.893186	23.669516	9.330849	-16.198593	-7.172200	11.383960	-1.541260	0.971799	-0.201049	0.170959	-1.000000	-1.000000	-1.000000	-1.000000	-1.000000	-1.000000	-1.000000	83.310345	0.000000	-1.000000	-1.000000	899139.000000	1770063294.259081
7625.790000	13476.420000	21394.080000	16367.130000	-10119.420000	-7087.635000	1189.485000	12683.025000	-29.265020	-87.410387	-44.881093	-5.452030	14.296048	17.779016	10.655550	-6.884462	-7.172200	11.383960	-1.541260	0.971799	-0.201049	0.170959	-1.000000	-1.000000	-1.000000	-1.000000	-1.000000	-1.000000	-1.000000	83.310345	0.000000	-1.000000	-1.000000	899140.000000	1770063294.259089
7640.505000	13402.890000	21418.920000	16402.860000	-10142.190000	-7067.250000	1208.565000	12709.035000	19.596709	-7.982988	-62.267288	-33.140254	-15.368292	-2.315225	3.519951	8.641808	-0.595140	6.714400	8.179360	0.952329	-0.236144	0.205993	-1.000000	-1.000000	-1.000000	-1.000000	-1.000000	-1.000000	-1.000000	83.310345	0.000000	-1.000000	-1.000000	899141.000000	1770063294.263521
7608.420000	13301.685000	21491.955000	16428.780000	-10148.670000	-7039.800000	1219.455000	12707.325000	65.849305	83.018357	-40.202288	-38.922368	-36.819542	-19.500121	-6.166846	21.179793	-0.595140	6.714400	8.179360	0.952329	-0.236144	0.205993	-1.000000	-1.000000	-1.000000	-1.000000	-1.000000	-1.000000	-1.000000	83.310345	0.000000	-1.000000	-1.000000	899142.000000	1770063294.263533
7486.470000	13114.665000	21725.685000	16630.785000	-10010.340000	-6947.640000	1252.575000	12672.945000	76.371561	120.237115	17.708206	-10.746965	-31.389465	-18.763795	-9.681718	23.461384	-0.595140	6.714400	8.179360	0.952329	-0.236144	0.205993	-1.000000	-1.000000	-1.000000	-1.000000	-1.000000	-1.000000	-1.000000	83.310345	0.000000	-1.000000	-1.000000	899143.000000	1770063294.267092
7260.030000	12872.970000	21680.820000	16721.235000	-9891.450000	-6837.165000	1294.380000	12625.245000	41.030975	78.859488	79.361762	36.963603	1.170820	0.768415	-3.969387	13.616524	-0.595140	6.714400	8.179360	0.952329	-0.236144	0.205993	-1.000000	-1.000000	-1.000000	-1.000000	-1.000000	-1.000000	-1.000000	83.310345	0.000000	-1.000000	-1.000000	899144.000000	1770063294.267101
7224.120000	12987.945000	21594.060000	16684.605000	-9885.915000	-6848.010000	1261.035000	12598.155000	-18.731621	-3.307713	105.771671	74.286273	42.518095	25.966643	5.900749	-3.380593	-0.595140	6.714400	8.179360	0.952329	-0.236144	0.205993	-1.000000	-1.000000	-1.000000	-1.000000	-1.000000	-1.000000	-1.000000	83.310345	0.000000	-1.000000	-1.000000	899145.000000	1770063294.271158
7452.945000	13206.015000	21481.380000	16575.120000	-9976.050000	-6959.025000	1214.415000	12637.215000	-60.116149	-56.392982	77.281909	73.599126	64.508704	36.461444	10.404723	-17.085141	-0.595140	6.714400	8.179360	0.952329	-0.236144	0.205993	-1.000000	-1.000000	-1.000000	-1.000000	-1.000000	-1.000000	-1.000000	83.310345	0.000000	-1.000000	-1.000000	899146.000000	1770063294.271164
7798.500000	13540.230000	21138.480000	16246.170000	-10093.320000	-7087.095000	1161.045000	12696.120000	-46.791033	-36.215008	6.444192	27.185419	48.660892	18.228440	3.208348	-18.300915	-0.595140	6.714400	8.179360	0.952329	-0.236144	0.205993	-1.000000	-1.000000	-1.000000	-1.000000	-1.000000	-1.000000	-1.000000	83.310345	0.000000	-1.000000	-1.000000	899147.000000	1770063294.276695
8155.350000	14217.885000	21229.065000	16113.870000	-10174.545000	-7207.110000	1067.580000	12742.335000	19.552217	44.373043	-71.237394	-46.350018	3.079248	-21.851635	-12.765931	-6.823785	-0.595140	6.714400	8.179360	0.952329	-0.236144	0.205993	-1.000000	-1.000000	-1.000000	-1.000000	-1.000000	-1.000000	-1.000000	83.310345	0.000000	-1.000000	-1.000000	899148.000000	1770063294.276701
8199.810000	14582.835000	21732.120000	16406.955000	-9965.070000	-7063.965000	1096.290000	12740.535000	94.401787	133.407223	-108.299018	-104.907343	-40.597653	-56.526327	-26.751885	8.079035	-0.595140	6.714400	8.179360	0.952329	-0.236144	0.205993	-1.000000	-1.000000	-1.000000	-1.000000	-1.000000	-1.000000	-1.000000	83.310345	0.000000	-1.000000	-1.000000	899149.000000	1770063294.307656
7973.145000	14131.035000	21768.210000	16496.460000	-9914.895000	-6959.565000	1157.310000	12707.280000	117.837026	165.230655	-71.975732	-103.986616	-50.384849	-56.799429	-26.552999	14.784093	-0.595140	6.714400	8.179360	0.952329	-0.236144	0.205993	-1.000000	-1.000000	-1.000000	-1.000000	-1.000000	-1.000000	-1.000000	83.310345	0.000000	-1.000000	-1.000000	899150.000000	1770063294.307669
7727.715000	13629.420000	21628.845000	16462.440000	-9920.475000	-6929.865000	1185.705000	12672.630000	56.344967	86.112728	11.735966	-39.565621	-23.102108	-17.611355	-7.695984	7.933323	9.415420	1.144500	-2.853620	0.957029	-0.230468	0.242919	-1.000000	-1.000000	-1.000000	-1.000000	-1.000000	-1.000000	-1.000000	83.310345	0.000000	-1.000000	-1.000000	899151.000000	1770063294.307683
7645.365000	13582.485000	21719.610000	16615.800000	-9867.240000	-6948.315000	1169.145000	12647.790000	-63.807239	-90.145739	72.267324	41.986228	12.068121	33.373517	19.777848	-7.278305	9.415420	1.144500	-2.853620	0.957029	-0.230468	0.242919	-1.000000	-1.000000	-1.000000	-1.000000	-1.000000	-1.000000	-1.000000	83.310345	0.000000	-1.000000	-1.000000	899152.000000	1770063294.307687
7742.610000	13823.055000	21792.330000	16626.690000	-9849.735000	-6963.345000	1166.670000	12694.545000	-165.171424	-257.456353	70.957024	90.281256	24.914026	59.317584	37.835272	-18.415420	9.415420	1.144500	-2.853620	0.957029	-0.230468	0.242919	-1.000000	-1.000000	-1.000000	-1.000000	-1.000000	-1.000000	-1.000000	83.310345	0.000000	-1.000000	-1.000000	899153.000000	1770063294.307693
7694.325000	13581.720000	21555.180000	16487.910000	-9889.065000	-6915.960000	1202.985000	12693.420000	-180.634600	-304.343433	26.507148	87.036557	10.375723	47.477645	37.067552	-15.686479	9.415420	1.144500	-2.853620	0.957029	-0.230468	0.242919	-1.000000	-1.000000	-1.000000	-1.000000	-1.000000	-1.000000	-1.000000	83.310345	0.000000	-1.000000	-1.000000	899154.000000	1770063294.307698
7690.635000	13484.655000	21425.535000	16445.340000	-9903.555000	-6876.180000	1193.130000	12658.680000	-111.996295	-219.403473	-25.609076	44.878334	-14.406225	16.931462	22.903866	-2.283610	9.415420	1.144500	-2.853620	0.957029	-0.230468	0.242919	-1.000000	-1.000000	-1.000000	-1.000000	-1.000000	-1.000000	-1.000000	83.310345	0.000000	-1.000000	-1.000000	899155.000000	1770063294.307704
7885.890000	13829.580000	21381.165000	16323.705000	-10090.890000	-6970.230000	1173.195000	12711.195000	-16.675262	-75.050397	-56.950822	-4.116926	-29.232822	-5.380673	6.118007	8.724483	9.415420	1.144500	-2.853620	0.957029	-0.230468	0.242919	-1.000000	-1.000000	-1.000000	-1.000000	-1.000000	-1.000000	-1.000000	83.310345	0.000000	-1.000000	-1.000000	899156.000000	1770063294.307709
7957.485000	14051.025000	21463.785000	16298.010000	-10205.595000	-7039.215000	1158.705000	12727.260000	52.583235	54.551242	-56.005640	-33.774703	-29.759163	-11.723006	-6.269651	9.756114	9.415420	1.144500	-2.853620	0.957029	-0.230468	0.242919	-1.000000	-1.000000	-1.000000	-1.000000	-1.000000	-1.000000	-1.000000	83.310345	0.000000	-1.000000	-1.000000	899157.000000	1770063294.307715
7901.190000	13998.645000	21693.195000	16483.680000	-10093.590000	-7026.075000	1146.915000	12722.850000	80.211402	132.443087	-34.952604	-42.547191	-24.873838	-14.248841	-13.748932	4.148448	9.415420	1.144500	-2.853620	0.957029	-0.230468	0.242919	-1.000000	-1.000000	-1.000000	-1.000000	-1.000000	-1.000000	-1.000000	83.310345	0.000000	-1.000000	-1.000000	899158.000000	1770063294.307719
7824.015000	13835.835000	21797.460000	16653.060000	-9826.695000	-6881.850000	1172.205000	12721.410000	79.508071	160.982020	-6.590261	-35.717256	-13.423358	-21.739464	-19.630540	-1.100728	9.415420	1.144500	-2.853620	0.957029	-0.230468	0.242919	-1.000000	-1.000000	-1.000000	-1.000000	-1.000000	-1.000000	-1.000000	83.310345	0.000000	-1.000000	-1.000000	899159.000000	1770063294.307725
7749.045000	13606.785000	21621.555000	16536.465000	-9945.540000	-6917.670000	1196.955000	12718.530000	70.131218	160.069010	23.693786	-16.394553	12.681774	-27.296972	-23.882331	-1.413172	9.415420	1.144500	-2.853620	0.957029	-0.230468	0.242919	-1.000000	-1.000000	-1.000000	-1.000000	-1.000000	-1.000000	-1.000000	83.310345	0.000000	-1.000000	-1.000000	899160.000000	1770063294.307730
7726.455000	13487.085000	21371.625000	16313.895000	-10191.555000	-7010.685000	1213.065000	12729.915000	60.147623	133.788041	36.990562	-2.731390	37.568055	-24.281929	-22.104111	3.139359	-27.941060	-19.532800	-8.850800	0.940793	-0.196716	0.274413	-1.000000	-1.000000	-1.000000	-1.000000	-1.000000	-1.000000	-1.000000	83.310345	0.000000	-1.000000	-1.000000	899161.000000	1770063294.307736
7789.770000	13582.710000	21334.095000	16196.490000	-10210.950000	-6999.885000	1185.885000	12732.210000	45.615682	76.155260	16.458271	-14.290405	32.732423	-16.427121	-12.732034	8.175580	-27.941060	-19.532800	-8.850800	0.940793	-0.196716	0.274413	-1.000000	-1.000000	-1.000000	-1.000000	-1.000000	-1.000000	-1.000000	83.310345	0.000000	-1.000000	-1.000000	899162.000000	1770063294.307740
7788.285000	13658.175000	21486.465000	16313.310000	-10099.530000	-6945.615000	1184.310000	12719.745000	22.658860	5.081742	-15.456124	-37.083012	2.292439	-6.776189	-0.564980	8.731529	-27.941060	-19.532800	-8.850800	0.940793	-0.196716	0.274413	-1.000000	-1.000000	-1.000000	-1.000000	-1.000000	-1.000000	-1.000000	83.310345	0.000000	-1.000000	-1.000000	899163.000000	1770063294.307843
7790.175000	13678.605000	21616.560000	16517.835000	-9989.235000	-6972.795000	1173.870000	12718.305000	-8.746246	-47.183717	-13.282445	-30.754899	-16.882324	6.786724	8.668797	3.126244	-27.941060	-19.532800	-8.850800	0.940793	-0.196716	0.274413	-1.000000	-1.000000	-1.000000	-1.000000	-1.000000	-1.000000	-1.000000	83.310345	0.000000	-1.000000	-1.000000	899164.000000	1770063294.307849
7782.885000	13669.830000	21514.410000	16425.000000	-9971.775000	-6977.745000	1161.045000	12704.760000	-47.549470	-76.706134	31.784305	22.595386	1.747172	24.418910	13.544931	-7.004923	-27.941060	-19.532800	-8.850800	0.940793	-0.196716	0.274413	-1.000000	-1.000000	-1.000000	-1.000000	-1.000000	-1.000000	-1.000000	83.310345	0.000000	-1.000000	-1.000000	899165.000000	1770063294.311202
7761.240000	13699.800000	21527.370000	16419.780000	-9937.935000	-6933.690000	1156.230000	12668.670000	-84.007709	-100.149965	72.409925	86.958730	45.089521	40.302908	14.827258	-17.953129	-27.941060	-19.532800	-8.850800	0.940793	-0.196716	0.274413	-1.000000	-1.000000	-1.000000	-1.000000	-1.000000	-1.000000	-1.000000	83.310345	0.000000	-1.000000	-1.000000	899166.000000	1770063294.311215
7732.710000	13591.755000	21553.425000	16427.295000	-10034.280000	-6937.605000	1178.730000	12684.240000	-95.291823	-110.395494	59.030378	104.494023	69.730739	43.715799	12.484432	-23.844334	-27.941060	-19.532800	-8.850800	0.940793	-0.196716	0.274413	-1.000000	-1.000000	-1.000000	-1.000000	-1.000000	-1.000000	-1.000000	83.310345	0.000000	-1.000000	-1.000000	899167.000000	1770063294.318563
7667.640000	13414.905000	21516.300000	16365.690000	-10283.400000	-6954.795000	1197.360000	12687.705000	-64.160841	-81.460508	-4.502532	54.489092	38.614294	25.898220	6.815378	-18.885213	-27.941060	-19.532800	-8.850800	0.940793	-0.196716	0.274413	-1.000000	-1.000000	-1.000000	-1.000000	-1.000000	-1.000000	-1.000000	83.310345	0.000000	-1.000000	-1.000000	899168.000000	1770063294.318574
7564.860000	13277.340000	21603.870000	16570.395000	-10346.670000	-7000.245000	1169.460000	12649.770000	-1.147644	-11.776764	-67.923403	-26.876368	-40.716203	-8.292921	-0.833492	-3.561619	-27.941060	-19.532800	-8.850800	0.940793	-0.196716	0.274413	-1.000000	-1.000000	-1.000000	-1.000000	-1.000000	-1.000000	-1.000000	83.310345	0.000000	-1.000000	-1.000000	899169.000000	1770063294.322921
7602.660000	13381.335000	21705.255000	16728.930000	-10147.095000	-7048.395000	1115.505000	12645.360000	59.992295	65.952510	-80.548050	-75.627654	-110.092641	-39.949182	-9.229692	13.318562	-27.941060	-19.532800	-8.850800	0.940793	-0.196716	0.274413	-1.000000	-1.000000	-1.000000	-1.000000	-1.000000	-1.000000	-1.000000	83.310345	0.000000	-1.000000	-1.000000	899170.000000	1770063294.322932
7779.735000	13643.910000	21556.395000	16460.055000	-10014.525000	-6976.080000	1151.730000	12716.685000	91.184508	116.748755	-35.372052	-60.441371	-109.507620	-51.417242	-15.749777	23.366338	-4.623780	-13.703480	-17.655820	0.894346	-0.167175	0.296508	-1.000000	-1.000000	-1.000000	-1.000000	-1.000000	-1.000000	-1.000000	83.310345	0.000000	-1.000000	-1.000000	899171.000000	1770063294.324036
7877.520000	13846.905000	21516.030000	16393.050000	-10152.855000	-7030.170000	1152.180000	12744.675000	88.826570	129.217911	24.004865	-15.618998	-38.807953	-38.726576	-15.338662	26.150641	-4.623780	-13.703480	-17.655820	0.894346	-0.167175	0.296508	-1.000000	-1.000000	-1.000000	-1.000000	-1.000000	-1.000000	-1.000000	83.310345	0.000000	-1.000000	-1.000000	899172.000000	1770063294.324045
7774.695000	13681.980000	21577.725000	16408.260000	-10123.065000	-7022.610000	1169.955000	12723.660000	60.544342	102.814506	50.513110	7.458205	45.310294	-10.865001	-5.489703	23.508685	-4.623780	-13.703480	-17.655820	0.894346	-0.167175	0.296508	-1.000000	-1.000000	-1.000000	-1.000000	-1.000000	-1.000000	-1.000000	83.310345	0.000000	-1.000000	-1.000000	899173.000000	1770063294.329799
7534.755000	13250.115000	21558.060000	16350.525000	-9994.590000	-6901.740000	1224.360000	12679.110000	8.896068	28.974382	36.104207	-1.455280	91.659409	19.913814	10.330559	13.839221	-4.623780	-13.703480	-17.655820	0.894346	-0.167175	0.296508	-1.000000	-1.000000	-1.000000	-1.000000	-1.000000	-1.000000	-1.000000	83.310345	0.000000	-1.000000	-1.000000	899174.000000	1770063294.329810
7280.370000	12824.910000	21575.025000	16374.600000	-10096.605000	-6916.365000	1229.310000	12610.170000	-59.110757	-88.234383	0.559892	-20.964415	88.178429	43.085817	24.601448	-3.350540	-4.623780	-13.703480	-17.655820	0.894346	-0.167175	0.296508	-1.000000	-1.000000	-1.000000	-1.000000	-1.000000	-1.000000	-1.000000	83.310345	0.000000	-1.000000	-1.000000	899175.000000	1770063294.332291
7311.060000	12750.435000	21493.935000	16442.685000	-10093.140000	-6992.955000	1179.405000	12604.455000	-116.110108	-198.876935	-34.353211	-29.699419	47.869226	47.001933	27.777209	-22.918966	-4.623780	-13.703480	-17.655820	0.894346	-0.167175	0.296508	-1.000000	-1.000000	-1.000000	-1.000000	-1.000000	-1.000000	-1.000000	83.310345	0.000000	-1.000000	-1.000000	899176.000000	1770063294.332302
7621.785000	13172.850000	21300.750000	16378.245000	-10096.830000	-7055.730000	1120.995000	12660.030000	-119.137790	-219.587477	-54.843608	-18.823052	-2.177855	25.473583	13.529667	-34.388480	-4.623780	-13.703480	-17.655820	0.894346	-0.167175	0.296508	-1.000000	-1.000000	-1.000000	-1.000000	-1.000000	-1.000000	-1.000000	83.310345	0.000000	-1.000000	-1.000000	899177.000000	1770063294.351368
7947.765000	13955.580000	21314.835000	16252.605000	-10220.265000	-7132.230000	1082.655000	12714.570000	-42.207964	-95.611592	-56.552236	1.060361	-35.600635	-11.058497	-12.938685	-27.498435	-4.623780	-13.703480	-17.655820	0.894346	-0.167175	0.296508	-1.000000	-1.000000	-1.000000	-1.000000	-1.000000	-1.000000	-1.000000	83.310345	0.000000	-1.000000	-1.000000	899178.000000	1770063294.351380
8051.805000	14359.320000	21618.810000	16332.795000	-10185.480000	-7124.715000	1091.565000	12726.810000	84.393108	134.440984	-34.260975	13.359619	-49.046164	-41.407232	-35.459439	-3.387333	-4.623780	-13.703480	-17.655820	0.894346	-0.167175	0.296508	-1.000000	-1.000000	-1.000000	-1.000000	-1.000000	-1.000000	-1.000000	83.310345	0.000000	-1.000000	-1.000000	899179.000000	1770063294.351393
7928.640000	14067.495000	21627.630000	16317.360000	-10058.040000	-7057.440000	1133.010000	12714.120000	177.970312	331.146705	18.149761	20.970552	-50.396522	-49.071832	-39.125943	21.915762	-4.623780	-13.703480	-17.655820	0.894346	-0.167175	0.296508	-1.000000	-1.000000	-1.000000	-1.000000	-1.000000	-1.000000	-1.000000	83.310345	0.000000	-1.000000	-1.000000	899180.000000	1770063294.351398
7851.915000	13889.295000	21586.770000	16271.280000	-10113.075000	-7116.030000	1129.320000	12695.535000	167.006105	345.873872	81.626222	33.507952	-37.629886	-30.638271	-21.517926	30.741090	-23.378320	-21.592900	5.569900	0.905515	-0.109131	0.259826	-1.000000	-1.000000	-1.000000	-1.000000	-1.000000	-1.000000	-1.000000	83.310345	0.000000	-1.000000	-1.000000	899181.000000	1770063294.351404
7800.480000	13791.375000	21622.725000	16438.005000	-10196.955000	-7222.995000	1121.580000	12682.845000	55.570014	153.762558	113.600533	46.178891	-12.727137	0.364181	6.062532	19.349119	-23.378320	-21.592900	5.569900	0.905515	-0.109131	0.259826	-1.000000	-1.000000	-1.000000	-1.000000	-1.000000	-1.000000	-1.000000	83.310345	0.000000	-1.000000	-1.000000	899182.000000	1770063294.351409
7711.290000	13584.555000	21538.800000	16525.575000	-10059.480000	-7124.445000	1185.840000	12675.555000	-80.872958	-119.898455	88.477618	51.537300	9.768912	22.053523	27.697490	-0.777650	-23.378320	-21.592900	5.569900	0.905515	-0.109131	0.259826	-1.000000	-1.000000	-1.000000	-1.000000	-1.000000	-1.000000	-1.000000	83.310345	0.000000	-1.000000	-1.000000	899183.000000	1770063294.351415
7674.525000	13526.370000	21521.205000	16487.325000	-10118.340000	-7146.765000	1201.950000	12661.110000	-160.305862	-309.825274	17.957663	44.536264	22.342748	26.078330	35.045133	-14.719832	-23.378320	-21.592900	5.569900	0.905515	-0.109131	0.259826	-1.000000	-1.000000	-1.000000	-1.000000	-1.000000	-1.000000	-1.000000	83.310345	0.000000	-1.000000	-1.000000	899184.000000	1770063294.351419
7716.915000	13599.405000	21543.165000	16442.595000	-10274.220000	-7217.415000	1215.495000	12675.060000	-152.113733	-329.011877	-57.991320	18.142712	25.890041	20.171159	29.957472	-16.216954	-23.378320	-21.592900	5.569900	0.905515	-0.109131	0.259826	-1.000000	-1.000000	-1.000000	-1.000000	-1.000000	-1.000000	-1.000000	83.310345	0.000000	-1.000000	-1.000000	899185.000000	1770063294.351425
7709.355000	13561.695000	21543.435000	16381.170000	-10384.740000	-7155.180000	1243.305000	12681.900000	-85.364708	-208.392168	-95.446666	-24.496719	18.186888	13.978433	18.926722	-9.449222	-23.378320	-21.592900	5.569900	0.905515	-0.109131	0.259826	-1.000000	-1.000000	-1.000000	-1.000000	-1.000000	-1.000000	-1.000000	83.310345	0.000000	-1.000000	-1.000000	899186.000000	1770063294.351430
7725.780000	13529.430000	21690.810000	16598.745000	-10456.605000	-7261.515000	1174.005000	12699.180000	-14.294669	-56.008110	-79.155325	-61.531467	0.206286	12.257752	6.866831	-2.077345	-23.378320	-21.592900	5.569900	0.905515	-0.109131	0.259826	-1.000000	-1.000000	-1.000000	-1.000000	-1.000000	-1.000000	-1.000000	83.310345	0.000000	-1.000000	-1.000000	899187.000000	1770063294.367088
7816.185000	13623.030000	21703.725000	16678.800000	-10223.100000	-7347.105000	1102.860000	12757.005000	27.573787	39.160925	-31.049395	-66.091623	-16.843859	9.438874	-7.448863	2.213361	-23.378320	-21.592900	5.569900	0.905515	-0.109131	0.259826	-1.000000	-1.000000	-1.000000	-1.000000	-1.000000	-1.000000	-1.000000	83.310345	0.000000	-1.000000	-1.000000	899188.000000	1770063294.367100
7834.095000	13637.520000	21314.340000	16145.100000	-10173.240000	-7273.170000	1147.275000	12775.950000	44.513553	73.308287	9.488271	-39.857427	-17.127363	-2.503755	-25.334937	5.191997	-23.378320	-21.592900	5.569900	0.905515	-0.109131	0.259826	-1.000000	-1.000000	-1.000000	-1.000000	-1.000000	-1.000000	-1.000000	83.310345	0.000000	-1.000000	-1.000000	899189.000000	1770063294.367113
7729.920000	13610.610000	21385.935000	16128.720000	-10252.395000	-7297.965000	1123.650000	12686.085000	53.400039	91.747896	14.447251	-19.458809	3.470557	-16.347008	-38.913103	7.580042	-23.378320	-21.592900	5.569900	0.905515	-0.109131	0.259826	-1.000000	-1.000000	-1.000000	-1.000000	-1.000000	-1.000000	-1.000000	83.310345	0.000000	-1.000000	-1.000000	899190.000000	1770063294.367118
7712.505000	13575.285000	21427.155000	16199.010000	-10164.870000	-7306.290000	1102.455000	12665.385000	58.623648	119.368305	-6.972168	-25.857539	29.074142	-19.076034	-38.819703	5.632540	60.093880	-27.925800	54.829180	0.931028	-0.147644	0.321227	-1.000000	-1.000000	-1.000000	-1.000000	-1.000000	-1.000000	-1.000000	83.310345	0.000000	-1.000000	-1.000000	899191.000000	1770063294.367124
7725.510000	13552.380000	21452.625000	16331.805000	-10222.110000	-7370.775000	1095.345000	12683.745000	57.960397	146.866799	-20.019711	-36.466008	39.049060	-12.205149	-25.835195	-1.139538	60.093880	-27.925800	54.829180	0.931028	-0.147644	0.321227	-1.000000	-1.000000	-1.000000	-1.000000	-1.000000	-1.000000	-1.000000	83.310345	0.000000	-1.000000	-1.000000	899192.000000	1770063294.367129
7670.205000	13467.195000	21367.845000	16374.195000	-10220.310000	-7350.705000	1117.665000	12685.545000	49.655700	149.651289	-5.846043	-20.038377	26.831459	-5.131592	-6.824165	-6.651610	60.093880	-27.925800	54.829180	0.931028	-0.147644	0.321227	-1.000000	-1.000000	-1.000000	-1.000000	-1.000000	-1.000000	-1.000000	83.310345	0.000000	-1.000000	-1.000000	899193.000000	1770063294.367284
7702.335000	13566.735000	21452.355000	16403.715000	-10238.670000	-7379.010000	1101.915000	12682.980000	28.622755	106.280354	25.561458	27.352072	4.373783	0.148940	12.456157	-6.688881	60.093880	-27.925800	54.829180	0.931028	-0.147644	0.321227	-1.000000	-1.000000	-1.000000	-1.000000	-1.000000	-1.000000	-1.000000	83.310345	0.000000	-1.000000	-1.000000	899194.000000	1770063294.367290
7706.430000	13593.870000	21508.695000	16420.185000	-10267.830000	-7427.295000	1077.480000	12678.885000	-6.333854	19.235548	54.035890	79.668027	-10.947597	5.365798	26.965030	-3.384746	60.093880	-27.925800	54.829180	0.931028	-0.147644	0.321227	-1.000000	-1.000000	-1.000000	-1.000000	-1.000000	-1.000000	-1.000000	83.310345	0.000000	-1.000000	-1.000000	899195.000000	1770063294.371119
7660.260000	13569.705000	21542.445000	16391.655000	-10393.920000	-7511.805000	1058.310000	12650.760000	-45.231438	-81.469043	61.870775	100.249918	-16.843916	8.763996	33.032598	-1.385520	60.093880	-27.925800	54.829180	0.931028	-0.147644	0.321227	-1.000000	-1.000000	-1.000000	-1.000000	-1.000000	-1.000000	-1.000000	83.310345	0.000000	-1.000000	-1.000000	899196.000000	1770063294.371129
7565.625000	13295.880000	21369.510000	16252.155000	-10532.790000	-7533.270000	1083.510000	12623.760000	-74.126268	-159.050243	41.463689	71.701015	-28.950902	7.544888	30.668984	-3.870963	60.093880	-27.925800	54.829180	0.931028	-0.147644	0.321227	-1.000000	-1.000000	-1.000000	-1.000000	-1.000000	-1.000000	-1.000000	83.310345	0.000000	-1.000000	-1.000000	899197.000000	1770063294.376445
7667.640000	13414.410000	21523.275000	16406.955000	-10426.365000	-7448.220000	1079.775000	12662.235000	-79.616166	-185.464210	6.793403	17.770872	-52.412093	2.762770	21.795696	-8.344432	60.093880	-27.925800	54.829180	0.931028	-0.147644	0.321227	-1.000000	-1.000000	-1.000000	-1.000000	-1.000000	-1.000000	-1.000000	83.310345	0.000000	-1.000000	-1.000000	899198.000000	1770063294.376451
7698.870000	13243.815000	21551.355000	16573.995000	-10289.970000	-7340.850000	1145.970000	12754.530000	-50.340619	-146.566129	-17.214304	-18.405417	-61.857332	2.024201	9.627272	-5.083361	60.093880	-27.925800	54.829180	0.931028	-0.147644	0.321227	-1.000000	-1.000000	-1.000000	-1.000000	-1.000000	-1.000000	-1.000000	83.310345	0.000000	-1.000000	-1.000000	899199.000000	1770063294.379150
7610.625000	13263.345000	21607.560000	16524.360000	-10266.345000	-7456.140000	1014.885000	12735.540000	7.335694	-54.084495	-21.841534	-23.391793	-33.095924	9.467485	-2.633143	11.490625	60.093880	-27.925800	54.829180	0.931028	-0.147644	0.321227	-1.000000	-1.000000	-1.000000	-1.000000	-1.000000	-1.000000	-1.000000	83.310345	0.000000	-1.000000	-1.000000	899200.000000	1770063294.379161
7701.345000	13509.405000	21436.650000	16351.470000	-10284.795000	-7517.970000	843.165000	12720.105000	63.928416	57.903638	-18.278586	-22.732716	22.396936	15.009962	-17.763318	30.628552	113.992200	-34.945400	52.479140	0.985715	-0.253051	0.267883	-1.000000	-1.000000	-1.000000	-1.000000	-1.000000	-1.000000	-1.000000	83.310345	0.000000	-1.000000	-1.000000	899201.000000	1770063294.384387
7824.375000	13835.160000	21461.625000	16348.320000	-10471.725000	-7569.990000	799.470000	12725.910000	92.261072	154.773952	-19.813403	-40.827198	68.774295	6.933243	-38.713639	35.045701	113.992200	-34.945400	52.479140	0.985715	-0.253051	0.267883	-1.000000	-1.000000	-1.000000	-1.000000	-1.000000	-1.000000	-1.000000	83.310345	0.000000	-1.000000	-1.000000	899202.000000	1770063294.384393
7823.115000	13820.895000	21582.135000	16367.670000	-10553.130000	-7611.075000	826.110000	12724.830000	84.346339	203.821266	-26.471596	-68.415228	75.960744	-12.287884	-54.545863	19.457476	113.992200	-34.945400	52.479140	0.985715	-0.253051	0.267883	-1.000000	-1.000000	-1.000000	-1.000000	-1.000000	-1.000000	-1.000000	83.310345	0.000000	-1.000000	-1.000000	899203.000000	1770063294.391064
7831.035000	13770.945000	21528.270000	16375.815000	-10387.620000	-7558.515000	813.105000	12729.870000	45.292568	174.716644	-29.311318	-77.437284	44.946186	-27.673343	-47.033886	-6.659917	113.992200	-34.945400	52.479140	0.985715	-0.253051	0.267883	-1.000000	-1.000000	-1.000000	-1.000000	-1.000000	-1.000000	-1.000000	83.310345	0.000000	-1.000000	-1.000000	899204.000000	1770063294.391074
7782.705000	13647.600000	21458.475000	16396.425000	-10208.610000	-7448.220000	810.045000	12735.720000	-9.571048	68.209593	-25.233029	-52.542821	8.752818	-22.773701	-12.565666	-28.532746	113.992200	-34.945400	52.479140	0.985715	-0.253051	0.267883	-1.000000	-1.000000	-1.000000	-1.000000	-1.000000	-1.000000	-1.000000	83.310345	0.000000	-1.000000	-1.000000	899205.000000	1770063294.391382
7724.970000	13431.780000	21498.885000	16432.110000	-10285.605000	-7473.465000	776.745000	12753.990000	-58.347671	-69.409271	-13.780611	1.611924	-4.237059	3.515108	30.998935	-35.671426	113.992200	-34.945400	52.479140	0.985715	-0.253051	0.267883	-1.000000	-1.000000	-1.000000	-1.000000	-1.000000	-1.000000	-1.000000	83.310345	0.000000	-1.000000	-1.000000	899206.000000	1770063294.391392
7695.720000	13432.140000	21510.945000	16418.970000	-10356.390000	-7555.230000	668.655000	12732.075000	-84.457903	-175.630224	5.273423	61.209371	-2.077790	28.662512	57.610498	-27.620999	113.992200	-34.945400	52.479140	0.985715	-0.253051	0.267883	-1.000000	-1.000000	-1.000000	-1.000000	-1.000000	-1.000000	-1.000000	83.310345	0.000000	-1.000000	-1.000000	899207.000000	1770063294.395322
7777.305000	13739.490000	21641.895000	16581.780000	-10183.005000	-7481.025000	580.635000	12735.675000	-80.218914	-200.088483	24.579608	92.476844	-9.045215	28.797176	51.543526	-12.831232	113.992200	-34.945400	52.479140	0.985715	-0.253051	0.267883	-1.000000	-1.000000	-1.000000	-1.000000	-1.000000	-1.000000	-1.000000	83.310345	0.000000	-1.000000	-1.000000	899208.000000	1770063294.395332
7857.945000	13798.080000	21592.260000	16567.785000	-10268.235000	-7412.715000	584.190000	12777.255000	-44.415693	-126.735864	36.111273	81.980228	-28.324604	8.470556	21.127668	0.789034	113.992200	-34.945400	52.479140	0.985715	-0.253051	0.267883	-1.000000	-1.000000	-1.000000	-1.000000	-1.000000	-1.000000	-1.000000	83.310345	0.000000	-1.000000	-1.000000	899209.000000	1770063294.399130
7859.835000	13796.820000	21568.815000	16377.210000	-10482.840000	-7465.815000	539.955000	12765.105000	9.306261	-1.840357	37.570550	42.715760	-46.502277	-8.746680	-7.061535	11.404720	113.992200	-34.945400	52.479140	0.985715	-0.253051	0.267883	-1.000000	-1.000000	-1.000000	-1.000000	-1.000000	-1.000000	-1.000000	83.310345	0.000000	-1.000000	-1.000000	899210.000000	1770063294.399140
7736.580000	13563.045000	21557.880000	16421.490000	-10352.295000	-7489.890000	506.475000	12724.965000	49.531362	87.984539	27.394939	-7.329548	-51.019181	-11.967508	-15.250970	17.431985	90.369720	5.279960	35.326900	1.077512	-0.333556	0.034424	-1.000000	-1.000000	-1.000000	-1.000000	-1.000000	-1.000000	-1.000000	83.310345	0.000000	-1.000000	-1.000000	899211.000000	1770063294.404570
7585.695000	13321.260000	21383.595000	16394.895000	-10282.320000	-7395.525000	519.705000	12710.250000	49.232850	87.061276	2.187763	-50.421695	-31.315235	-6.263437	-7.604858	15.364255	90.369720	5.279960	35.326900	1.077512	-0.333556	0.034424	-1.000000	-1.000000	-1.000000	-1.000000	-1.000000	-1.000000	-1.000000	83.310345	0.000000	-1.000000	-1.000000	899212.000000	1770063294.404585
7568.775000	13266.135000	21422.520000	16416.720000	-10468.665000	-7366.770000	518.175000	12744.405000	11.565252	13.886830	-33.616947	-70.049121	4.531517	1.659112	3.459508	6.421085	90.369720	5.279960	35.326900	1.077512	-0.333556	0.034424	-1.000000	-1.000000	-1.000000	-1.000000	-1.000000	-1.000000	-1.000000	83.310345	0.000000	-1.000000	-1.000000	899213.000000	1770063294.408900
7610.670000	13296.600000	21600.810000	16608.870000	-10669.320000	-7514.415000	438.570000	12771.495000	-29.876367	-58.422349	-55.573534	-56.848323	23.738884	3.428849	8.665492	-2.018707	90.369720	5.279960	35.326900	1.077512	-0.333556	0.034424	-1.000000	-1.000000	-1.000000	-1.000000	-1.000000	-1.000000	-1.000000	83.310345	0.000000	-1.000000	-1.000000	899214.000000	1770063294.408911
7665.435000	13447.395000	21710.610000	16551.270000	-10411.965000	-7382.340000	374.040000	12785.535000	-39.231570	-62.863866	-38.052164	-14.696808	12.010665	-6.780832	3.341377	-3.822790	90.369720	5.279960	35.326900	1.077512	-0.333556	0.034424	-1.000000	-1.000000	-1.000000	-1.000000	-1.000000	-1.000000	-1.000000	83.310345	0.000000	-1.000000	-1.000000	899215.000000	1770063294.417396
7802.730000	13562.235000	21697.830000	16504.785000	-10175.715000	-7242.480000	357.795000	12844.350000	-7.575948	7.990888	10.340802	29.891614	-1.367178	-17.770805	-8.804334	1.125123	90.369720	5.279960	35.326900	1.077512	-0.333556	0.034424	-1.000000	-1.000000	-1.000000	-1.000000	-1.000000	-1.000000	-1.000000	83.310345	0.000000	-1.000000	-1.000000	899216.000000	1770063294.417409
7916.310000	13833.675000	21313.935000	16137.630000	-10394.730000	-7434.720000	353.610000	12861.090000	44.322926	102.122719	46.230793	39.230723	9.214675	-16.140504	-16.534981	8.734239	90.369720	5.279960	35.326900	1.077512	-0.333556	0.034424	-1.000000	-1.000000	-1.000000	-1.000000	-1.000000	-1.000000	-1.000000	83.310345	0.000000	-1.000000	-1.000000	899217.000000	1770063294.417422
7863.885000	14001.300000	21376.170000	16084.305000	-10199.340000	-7248.015000	340.560000	12767.805000	81.584707	157.425189	34.810671	1.349384	32.622267	-6.459097	-11.941429	11.738272	90.369720	5.279960	35.326900	1.077512	-0.333556	0.034424	-1.000000	-1.000000	-1.000000	-1.000000	-1.000000	-1.000000	-1.000000	83.310345	0.000000	-1.000000	-1.000000	899218.000000	1770063294.417428
7804.755000	13886.550000	21472.830000	16163.685000	-10034.415000	-7124.670000	364.500000	12739.455000	75.928744	142.031334	-8.719435	-48.487492	54.341239	6.695372	2.564330	3.484403	90.369720	5.279960	35.326900	1.077512	-0.333556	0.034424	-1.000000	-1.000000	-1.000000	-1.000000	-1.000000	-1.000000	-1.000000	83.310345	0.000000	-1.000000	-1.000000	899219.000000	1770063294.421946
7778.745000	13829.175000	21615.300000	16304.085000	-10120.230000	-7256.565000	392.355000	12754.350000	27.910642	62.517254	-36.833276	-58.874168	66.904194	23.251598	17.983439	-12.495648	90.369720	5.279960	35.326900	1.077512	-0.333556	0.034424	-1.000000	-1.000000	-1.000000	-1.000000	-1.000000	-1.000000	-1.000000	83.310345	0.000000	-1.000000	-1.000000	899220.000000	1770063294.421957
7654.725000	13619.475000	21632.040000	16279.875000	-10052.595000	-7244.055000	401.355000	12709.260000	-33.271475	-43.434472	-21.558714	-14.796894	53.601146	29.516192	25.117993	-24.273295	22.279600	46.634560	-29.985900	1.120481	-0.383117	-0.092407	-1.000000	-1.000000	-1.000000	-1.000000	-1.000000	-1.000000	-1.000000	83.310345	0.000000	-1.000000	-1.000000	899221.000000	1770063294.423182
7503.255000	13079.430000	21391.065000	16143.435000	-9985.185000	-7187.310000	443.655000	12679.290000	-78.388631	-136.555391	19.163401	48.903350	12.056092	14.378385	20.083144	-25.426227	22.279600	46.634560	-29.985900	1.120481	-0.383117	-0.092407	-1.000000	-1.000000	-1.000000	-1.000000	-1.000000	-1.000000	-1.000000	83.310345	0.000000	-1.000000	-1.000000	899222.000000	1770063294.423188
7531.470000	13041.045000	21281.130000	16113.240000	-10070.820000	-7083.855000	512.505000	12698.820000	-94.825468	-195.970581	38.079066	81.195118	-34.611130	-8.789268	8.399178	-18.029545	22.279600	46.634560	-29.985900	1.120481	-0.383117	-0.092407	-1.000000	-1.000000	-1.000000	-1.000000	-1.000000	-1.000000	-1.000000	83.310345	0.000000	-1.000000	-1.000000	899223.000000	1770063294.427161
7742.475000	13659.030000	21404.205000	16144.605000	-10225.125000	-7035.795000	535.230000	12745.260000	-77.413577	-195.107079	11.174529	62.301500	-72.698178	-20.655205	0.056182	-5.063943	22.279600	46.634560	-29.985900	1.120481	-0.383117	-0.092407	-1.000000	-1.000000	-1.000000	-1.000000	-1.000000	-1.000000	-1.000000	83.310345	0.000000	-1.000000	-1.000000	899224.000000	1770063294.427166
7919.505000	14091.615000	21577.500000	16342.470000	-10235.880000	-7246.350000	497.520000	12759.390000	-26.598042	-102.975498	-29.937617	19.570105	-104.667539	-21.485711	-2.504907	10.591647	22.279600	46.634560	-29.985900	1.120481	-0.383117	-0.092407	-1.000000	-1.000000	-1.000000	-1.000000	-1.000000	-1.000000	-1.000000	83.310345	0.000000	-1.000000	-1.000000	899225.000000	1770063294.431207
7844.985000	13921.245000	21478.410000	16317.900000	-10017.585000	-7153.515000	584.505000	12742.605000	38.106540	53.350686	-35.421141	-3.288840	-114.921355	-22.209297	-4.770551	23.554403	22.279600	46.634560	-29.985900	1.120481	-0.383117	-0.092407	-1.000000	-1.000000	-1.000000	-1.000000	-1.000000	-1.000000	-1.000000	83.310345	0.000000	-1.000000	-1.000000	899226.000000	1770063294.431218
7766.010000	13668.210000	21330.720000	16228.395000	-9905.175000	-6949.440000	653.220000	12725.460000	81.347384	175.484752	-0.651805	6.364358	-76.062631	-21.374308	-8.484720	29.131212	22.279600	46.634560	-29.985900	1.120481	-0.383117	-0.092407	-1.000000	-1.000000	-1.000000	-1.000000	-1.000000	-1.000000	-1.000000	83.310345	0.000000	-1.000000	-1.000000	899227.000000	1770063294.437481
7730.100000	13602.780000	21410.235000	16299.765000	-9925.965000	-6902.865000	668.070000	12695.985000	80.360174	184.946907	32.575867	20.202154	4.494022	-8.297953	-10.943234	25.978969	22.279600	46.634560	-29.985900	1.120481	-0.383117	-0.092407	-1.000000	-1.000000	-1.000000	-1.000000	-1.000000	-1.000000	-1.000000	83.310345	0.000000	-1.000000	-1.000000	899228.000000	1770063294.437491
7649.820000	13548.060000	21454.740000	16298.775000	-10096.605000	-7044.165000	636.570000	12625.380000	42.852985	96.820714	33.897085	9.263908	79.728359	15.476332	-13.509876	14.057442	22.279600	46.634560	-29.985900	1.120481	-0.383117	-0.092407	-1.000000	-1.000000	-1.000000	-1.000000	-1.000000	-1.000000	-1.000000	83.310345	0.000000	-1.000000	-1.000000	899229.000000	1770063294.439219
7664.625000	13555.350000	21577.545000	16506.630000	-9921.780000	-7037.235000	614.610000	12617.280000	-3.256345	-8.829460	13.812998	-21.363938	107.748765	31.642347	-20.018344	-4.068521	22.279600	46.634560	-29.985900	1.120481	-0.383117	-0.092407	-1.000000	-1.000000	-1.000000	-1.000000	-1.000000	-1.000000	-1.000000	83.310345	0.000000	-1.000000	-1.000000	899230.000000	1770063294.439225
7675.560000	13418.190000	21374.595000	16372.620000	-9994.545000	-6886.890000	718.380000	12679.650000	-30.586203	-60.267700	-1.966916	-44.491622	86.050866	27.744486	-27.785727	-19.615578	-12.497940	47.000800	-24.568600	1.045591	-0.246948	0.064209	-1.000000	-1.000000	-1.000000	-1.000000	-1.000000	-1.000000	-1.000000	83.310345	0.000000	-1.000000	-1.000000	899231.000000	1770063294.443146
7732.080000	13557.870000	21424.365000	16341.030000	-10191.960000	-6912.270000	772.470000	12692.205000	-30.953679	-47.021479	-6.251561	-47.394311	37.632863	10.438281	-26.903162	-23.063519	-12.497940	47.000800	-24.568600	1.045591	-0.246948	0.064209	-1.000000	-1.000000	-1.000000	-1.000000	-1.000000	-1.000000	-1.000000	83.310345	0.000000	-1.000000	-1.000000	899232.000000	1770063294.443152
7873.560000	13788.855000	21514.860000	16317.270000	-10184.670000	-7005.420000	792.405000	12727.035000	-18.041770	-15.169638	-8.660791	-40.075421	-15.534582	-9.427190	-11.459762	-14.186552	-12.497940	47.000800	-24.568600	1.045591	-0.246948	0.064209	-1.000000	-1.000000	-1.000000	-1.000000	-1.000000	-1.000000	-1.000000	83.310345	0.000000	-1.000000	-1.000000	899233.000000	1770063294.447173
7836.480000	13777.065000	21525.390000	16307.190000	-10097.550000	-6974.640000	813.780000	12690.945000	-9.464805	-10.063192	-12.917251	-33.043730	-52.711055	-23.187696	12.240766	-1.439007	-12.497940	47.000800	-24.568600	1.045591	-0.246948	0.064209	-1.000000	-1.000000	-1.000000	-1.000000	-1.000000	-1.000000	-1.000000	83.310345	0.000000	-1.000000	-1.000000	899234.000000	1770063294.447184
7653.015000	13547.970000	21561.975000	16444.350000	-10239.705000	-7051.770000	847.755000	12665.835000	-12.269317	-34.757095	-11.673780	-21.999732	-61.499006	-25.609731	30.219782	6.843948	-12.497940	47.000800	-24.568600	1.045591	-0.246948	0.064209	-1.000000	-1.000000	-1.000000	-1.000000	-1.000000	-1.000000	-1.000000	83.310345	0.000000	-1.000000	-1.000000	899235.000000	1770063294.451416
7563.060000	13184.505000	21519.855000	16608.780000	-10099.755000	-6918.075000	916.470000	12668.535000	-22.818610	-63.703103	-0.599382	5.082117	-48.722368	-22.088118	32.339413	8.313027	-12.497940	47.000800	-24.568600	1.045591	-0.246948	0.064209	-1.000000	-1.000000	-1.000000	-1.000000	-1.000000	-1.000000	-1.000000	83.310345	0.000000	-1.000000	-1.000000	899236.000000	1770063294.451429
7568.685000	13043.295000	21412.755000	16501.680000	-10253.070000	-6851.070000	977.445000	12686.220000	-29.592590	-75.062499	8.864743	42.950117	-24.055239	-14.472512	20.851845	6.565479	-12.497940	47.000800	-24.568600	1.045591	-0.246948	0.064209	-1.000000	-1.000000	-1.000000	-1.000000	-1.000000	-1.000000	-1.000000	83.310345	0.000000	-1.000000	-1.000000	899237.000000	1770063294.455156
7722.585000	13550.085000	21399.030000	16127.730000	-10546.200000	-7107.795000	937.215000	12698.505000	-17.471826	-51.034285	0.362797	58.174238	2.770569	1.803722	5.785478	6.700654	-12.497940	47.000800	-24.568600	1.045591	-0.246948	0.064209	-1.000000	-1.000000	-1.000000	-1.000000	-1.000000	-1.000000	-1.000000	83.310345	0.000000	-1.000000	-1.000000	899238.000000	1770063294.455162
7812.945000	13834.845000	21515.490000	16223.310000	-10180.890000	-7108.920000	933.705000	12699.045000	19.456445	27.838357	-20.813388	24.250471	19.143690	16.681150	-7.118296	9.222108	-12.497940	47.000800	-24.568600	1.045591	-0.246948	0.064209	-1.000000	-1.000000	-1.000000	-1.000000	-1.000000	-1.000000	-1.000000	83.310345	0.000000	-1.000000	-1.000000	899239.000000	1770063294.459904
7792.605000	13733.055000	21384.990000	16314.660000	-9870.030000	-6990.795000	990.945000	12693.375000	63.786702	142.003589	-29.758232	-33.577814	35.649495	16.615785	-17.953425	8.466168	-12.497940	47.000800	-24.568600	1.045591	-0.246948	0.064209	-1.000000	-1.000000	-1.000000	-1.000000	-1.000000	-1.000000	-1.000000	83.310345	0.000000	-1.000000	-1.000000	899240.000000	1770063294.459910
7710.570000	13632.345000	21334.500000	16385.985000	-9973.755000	-6967.620000	1054.305000	12676.905000	80.105182	208.692473	-17.869273	-60.071142	71.217585	8.452356	-24.416543	-0.610174	53.532080	36.410360	24.995880	1.023313	-0.207092	0.228576	-1.000000	-1.000000	-1.000000	-1.000000	-1.000000	-1.000000	-1.000000	83.310345	0.000000	-1.000000	-1.000000	899241.000000	1770063294.463146
7657.830000	13559.220000	21581.370000	16579.395000	-10024.380000	-6849.090000	1083.735000	12650.760000	44.702168	152.157108	1.290659	-30.615368	103.871640	10.055801	-20.876648	-15.623114	53.532080	36.410360	24.995880	1.023313	-0.207092	0.228576	-1.000000	-1.000000	-1.000000	-1.000000	-1.000000	-1.000000	-1.000000	83.310345	0.000000	-1.000000	-1.000000	899242.000000	1770063294.463157
7631.145000	13547.025000	21744.045000	16785.720000	-9859.770000	-6844.815000	1073.565000	12644.685000	-25.482099	-7.336978	22.711060	35.462170	92.197185	26.956632	-7.604684	-27.326280	53.532080	36.410360	24.995880	1.023313	-0.207092	0.228576	-1.000000	-1.000000	-1.000000	-1.000000	-1.000000	-1.000000	-1.000000	83.310345	0.000000	-1.000000	-1.000000	899243.000000	1770063294.467194
7637.625000	13432.185000	21222.585000	16216.155000	-9854.595000	-6892.560000	1123.335000	12676.320000	-80.534186	-162.834413	41.369866	88.141030	31.876107	42.256285	6.421148	-25.876470	53.532080	36.410360	24.995880	1.023313	-0.207092	0.228576	-1.000000	-1.000000	-1.000000	-1.000000	-1.000000	-1.000000	-1.000000	83.310345	0.000000	-1.000000	-1.000000	899244.000000	1770063294.467206
7686.135000	13507.695000	21169.485000	16099.875000	-9986.535000	-6991.650000	1124.730000	12670.110000	-81.135683	-212.918012	32.883872	70.750529	-47.065919	31.048681	12.379452	-9.478705	53.532080	36.410360	24.995880	1.023313	-0.207092	0.228576	-1.000000	-1.000000	-1.000000	-1.000000	-1.000000	-1.000000	-1.000000	83.310345	0.000000	-1.000000	-1.000000	899245.000000	1770063294.473981
7725.870000	13594.770000	21327.435000	16320.150000	-10022.670000	-7012.080000	1158.570000	12677.040000	-30.965375	-138.043092	-6.462324	-12.842080	-108.720012	-9.564969	9.186468	12.731913	53.532080	36.410360	24.995880	1.023313	-0.207092	0.228576	-1.000000	-1.000000	-1.000000	-1.000000	-1.000000	-1.000000	-1.000000	83.310345	0.000000	-1.000000	-1.000000	899246.000000	1770063294.473992
7731.900000	13628.700000	21432.375000	16308.585000	-10070.460000	-6974.730000	1186.695000	12676.905000	31.003563	-6.439922	-39.416470	-84.662285	-126.201363	-50.091541	3.620302	28.093496	53.532080	36.410360	24.995880	1.023313	-0.207092	0.228576	-1.000000	-1.000000	-1.000000	-1.000000	-1.000000	-1.000000	-1.000000	83.310345	0.000000	-1.000000	-1.000000	899247.000000	1770063294.475383
7672.140000	13511.115000	21529.260000	16338.285000	-10154.880000	-6933.555000	1199.385000	12659.445000	63.083130	88.253994	-33.621755	-85.450931	-102.790240	-59.144662	2.326591	28.944317	53.532080	36.410360	24.995880	1.023313	-0.207092	0.228576	-1.000000	-1.000000	-1.000000	-1.000000	-1.000000	-1.000000	-1.000000	83.310345	0.000000	-1.000000	-1.000000	899248.000000	1770063294.475391
7701.390000	13558.995000	21735.270000	16461.180000	-10260.090000	-6980.715000	1226.070000	12699.360000	50.730568	101.765011	9.934507	-28.386195	-67.184743	-36.809769	3.769502	16.382348	53.532080	36.410360	24.995880	1.023313	-0.207092	0.228576	-1.000000	-1.000000	-1.000000	-1.000000	-1.000000	-1.000000	-1.000000	83.310345	0.000000	-1.000000	-1.000000	899249.000000	1770063294.481184
7683.210000	13344.255000	21579.885000	16448.895000	-10335.780000	-7031.565000	1307.880000	12743.505000	11.350810	51.944822	61.241519	37.836973	-35.130548	-6.857534	3.537930	-0.018191	53.532080	36.410360	24.995880	1.023313	-0.207092	0.228576	-1.000000	-1.000000	-1.000000	-1.000000	-1.000000	-1.000000	-1.000000	83.310345	0.000000	-1.000000	-1.000000	899250.000000	1770063294.481194
7762.635000	13614.435000	21413.880000	16404.975000	-10128.735000	-7007.310000	1308.555000	12716.955000	-24.563913	-14.321240	72.131323	68.681927	1.127327	11.182599	2.119038	-9.763351	80.053960	14.298620	44.925440	1.052304	-0.126098	0.300048	-1.000000	-1.000000	-1.000000	-1.000000	-1.000000	-1.000000	-1.000000	83.310345	0.000000	-1.000000	-1.000000	899251.000000	1770063294.483693
7776.450000	13745.880000	21262.905000	16202.340000	-9883.440000	-6915.195000	1323.360000	12693.555000	-34.218128	-45.358481	18.408114	46.178006	50.932906	16.017565	1.162019	-10.911872	80.053960	14.298620	44.925440	1.052304	-0.126098	0.300048	-1.000000	-1.000000	-1.000000	-1.000000	-1.000000	-1.000000	-1.000000	83.310345	0.000000	-1.000000	-1.000000	899252.000000	1770063294.483711
7805.520000	13804.830000	21391.785000	16312.455000	-9904.365000	-6953.670000	1304.505000	12690.945000	-15.561607	-14.540209	-59.395808	-3.959825	106.067250	17.961122	-1.103785	-9.047087	80.053960	14.298620	44.925440	1.052304	-0.126098	0.300048	-1.000000	-1.000000	-1.000000	-1.000000	-1.000000	-1.000000	-1.000000	83.310345	0.000000	-1.000000	-1.000000	899253.000000	1770063294.487160
7742.745000	13624.155000	21480.075000	16390.710000	-10102.095000	-7075.440000	1302.705000	12686.895000	11.917708	49.009658	-92.585416	-33.113227	138.138806	21.132028	-6.584658	-8.521757	80.053960	14.298620	44.925440	1.052304	-0.126098	0.300048	-1.000000	-1.000000	-1.000000	-1.000000	-1.000000	-1.000000	-1.000000	83.310345	0.000000	-1.000000	-1.000000	899254.000000	1770063294.487171
7653.915000	13356.225000	21500.550000	16257.060000	-10412.235000	-7091.910000	1373.220000	12703.185000	22.380906	77.650271	-59.949673	-23.168174	116.610597	19.981406	-12.022243	-8.573549	80.053960	14.298620	44.925440	1.052304	-0.126098	0.300048	-1.000000	-1.000000	-1.000000	-1.000000	-1.000000	-1.000000	-1.000000	83.310345	0.000000	-1.000000	-1.000000	899255.000000	1770063294.491267
7697.655000	13538.835000	21600.450000	16094.340000	-10697.940000	-7078.995000	1402.740000	12712.365000	6.152673	33.518613	2.104122	-0.914981	33.480957	11.304909	-10.629736	-6.395522	80.053960	14.298620	44.925440	1.052304	-0.126098	0.300048	-1.000000	-1.000000	-1.000000	-1.000000	-1.000000	-1.000000	-1.000000	83.310345	0.000000	-1.000000	-1.000000	899256.000000	1770063294.491281
7839.450000	13904.190000	21807.495000	16603.875000	-10386.315000	-7176.645000	1373.580000	12738.690000	-18.939043	-41.768996	50.854736	8.784115	-75.451838	-2.976330	-1.625964	-0.941276	80.053960	14.298620	44.925440	1.052304	-0.126098	0.300048	-1.000000	-1.000000	-1.000000	-1.000000	-1.000000	-1.000000	-1.000000	83.310345	0.000000	-1.000000	-1.000000	899257.000000	1770063294.497661
7675.965000	13470.480000	21220.470000	16313.490000	-9821.340000	-6852.780000	1479.240000	12694.680000	-28.574158	-79.512380	60.556124	10.240398	-131.241750	-13.959351	7.938479	4.765539	80.053960	14.298620	44.925440	1.052304	-0.126098	0.300048	-1.000000	-1.000000	-1.000000	-1.000000	-1.000000	-1.000000	-1.000000	83.310345	0.000000	-1.000000	-1.000000	899258.000000	1770063294.497674
7653.555000	13380.705000	21367.710000	16473.015000	-9691.470000	-6795.630000	1464.930000	12659.400000	-21.140607	-69.027912	21.771435	8.438668	-77.701563	-5.563046	12.284368	5.126832	80.053960	14.298620	44.925440	1.052304	-0.126098	0.300048	-1.000000	-1.000000	-1.000000	-1.000000	-1.000000	-1.000000	-1.000000	83.310345	0.000000	-1.000000	-1.000000	899259.000000	1770063294.499176
7726.230000	13575.780000	21500.685000	16592.625000	-9864.360000	-6874.245000	1485.360000	12704.760000	-8.857726	-42.120935	-34.382569	3.988218	40.229841	20.125009	10.487357	-0.002670	80.053960	14.298620	44.925440	1.052304	-0.126098	0.300048	-1.000000	-1.000000	-1.000000	-1.000000	-1.000000	-1.000000	-1.000000	83.310345	0.000000	-1.000000	-1.000000	899260.000000	1770063294.499192
7786.710000	13743.180000	21423.735000	16454.205000	-10253.430000	-7012.305000	1492.650000	12739.995000	4.547074	-12.382759	-53.068700	6.614941	107.988068	33.119132	4.587024	-2.640890	-8.652420	28.292040	64.229340	1.066098	-0.023926	0.189880	-1.000000	-1.000000	-1.000000	-1.000000	-1.000000	-1.000000	-1.000000	83.310345	0.000000	-1.000000	-1.000000	899261.000000	1770063294.503218
7764.435000	13675.950000	21498.660000	16452.720000	-10395.270000	-7050.780000	1514.340000	12738.420000	19.551826	24.157204	-20.390433	14.369414	60.491481	12.563905	-1.390118	2.692502	-8.652420	28.292040	64.229340	1.066098	-0.023926	0.189880	-1.000000	-1.000000	-1.000000	-1.000000	-1.000000	-1.000000	-1.000000	83.310345	0.000000	-1.000000	-1.000000	899262.000000	1770063294.503226
7741.890000	13573.935000	21615.660000	16413.345000	-10312.245000	-7051.140000	1535.535000	12741.210000	30.673976	59.416437	29.813973	10.495207	-53.228255	-25.913489	-4.117069	11.546214	-8.652420	28.292040	64.229340	1.066098	-0.023926	0.189880	-1.000000	-1.000000	-1.000000	-1.000000	-1.000000	-1.000000	-1.000000	83.310345	0.000000	-1.000000	-1.000000	899263.000000	1770063294.508721
7689.600000	13487.355000	21852.135000	16405.920000	-10183.275000	-6952.005000	1581.480000	12731.355000	30.465885	73.230384	63.029436	-7.539912	-124.652742	-49.292798	-3.581877	15.228890	-8.652420	28.292040	64.229340	1.066098	-0.023926	0.189880	-1.000000	-1.000000	-1.000000	-1.000000	-1.000000	-1.000000	-1.000000	83.310345	0.000000	-1.000000	-1.000000	899264.000000	1770063294.508731
7559.460000	13207.590000	21553.830000	16389.270000	-10019.565000	-6804.000000	1655.145000	12699.900000	13.890321	46.685629	61.508312	-26.353867	-91.062631	-38.180155	-0.806490	8.920052	-8.652420	28.292040	64.229340	1.066098	-0.023926	0.189880	-1.000000	-1.000000	-1.000000	-1.000000	-1.000000	-1.000000	-1.000000	83.310345	0.000000	-1.000000	-1.000000	899265.000000	1770063294.511277
7624.440000	13307.760000	21216.510000	16296.120000	-10356.390000	-6836.220000	1655.685000	12707.955000	-16.255411	-19.255555	15.158597	-41.062871	7.362459	-0.115391	3.626733	-5.029381	-8.652420	28.292040	64.229340	1.066098	-0.023926	0.189880	-1.000000	-1.000000	-1.000000	-1.000000	-1.000000	-1.000000	-1.000000	83.310345	0.000000	-1.000000	-1.000000	899266.000000	1770063294.511288
7836.255000	13618.935000	21180.555000	16101.585000	-10304.280000	-7081.020000	1613.520000	12786.300000	-38.003744	-75.918087	-58.446351	-53.949130	70.954213	30.180711	4.997679	-16.782897	-8.652420	28.292040	64.229340	1.066098	-0.023926	0.189880	-1.000000	-1.000000	-1.000000	-1.000000	-1.000000	-1.000000	-1.000000	83.310345	0.000000	-1.000000	-1.000000	899267.000000	1770063294.515350
7766.055000	13606.290000	21319.110000	16178.940000	-10055.295000	-7128.945000	1629.585000	12726.000000	-27.328187	-64.305551	-107.870057	-58.767800	52.693331	18.941765	-1.887642	-16.516625	-8.652420	28.292040	64.229340	1.066098	-0.023926	0.189880	-1.000000	-1.000000	-1.000000	-1.000000	-1.000000	-1.000000	-1.000000	83.310345	0.000000	-1.000000	-1.000000	899268.000000	1770063294.515361
7612.020000	13394.520000	21458.340000	16232.400000	-9984.195000	-6874.740000	1698.705000	12664.170000	4.330538	1.192223	-93.113599	-42.152011	1.278085	-20.695939	-12.028997	-7.361233	-8.652420	28.292040	64.229340	1.066098	-0.023926	0.189880	-1.000000	-1.000000	-1.000000	-1.000000	-1.000000	-1.000000	-1.000000	83.310345	0.000000	-1.000000	-1.000000	899269.000000	1770063294.523554
7769.880000	13675.500000	21684.105000	16182.405000	-10362.330000	-7072.920000	1662.705000	12706.560000	23.664136	53.256680	-16.129850	3.076743	-19.038452	-40.908497	-15.120818	-0.858566	-8.652420	28.292040	64.229340	1.066098	-0.023926	0.189880	-1.000000	-1.000000	-1.000000	-1.000000	-1.000000	-1.000000	-1.000000	83.310345	0.000000	-1.000000	-1.000000	899270.000000	1770063294.523567
7767.585000	13650.795000	21575.880000	16269.885000	-10368.990000	-7093.530000	1736.235000	12721.680000	21.152206	62.370170	80.065414	62.194284	-1.590332	-21.539864	-8.164475	0.113977	-90.659660	39.767560	52.433360	1.043210	-0.071899	0.093811	-1.000000	-1.000000	-1.000000	-1.000000	-1.000000	-1.000000	-1.000000	83.310345	0.000000	-1.000000	-1.000000	899271.000000	1770063294.523579
7849.035000	13790.115000	21531.420000	16209.090000	-10216.890000	-6992.280000	1735.830000	12750.255000	11.911344	47.871002	130.561709	105.058111	24.947507	17.066378	3.853303	1.384617	-90.659660	39.767560	52.433360	1.043210	-0.071899	0.093811	-1.000000	-1.000000	-1.000000	-1.000000	-1.000000	-1.000000	-1.000000	83.310345	0.000000	-1.000000	-1.000000	899272.000000	1770063294.523585
7843.320000	13786.110000	21466.395000	16249.140000	-10347.255000	-7142.985000	1716.615000	12770.280000	8.801615	32.274249	97.708404	109.698792	38.499746	45.086298	12.331394	6.597350	-90.659660	39.767560	52.433360	1.043210	-0.071899	0.093811	-1.000000	-1.000000	-1.000000	-1.000000	-1.000000	-1.000000	-1.000000	83.310345	0.000000	-1.000000	-1.000000	899273.000000	1770063294.527251
7674.570000	13408.335000	21392.820000	16360.605000	-10321.650000	-7241.805000	1744.245000	12728.925000	9.223054	14.514743	8.681043	74.612763	27.994517	40.329160	10.659242	13.167709	-90.659660	39.767560	52.433360	1.043210	-0.071899	0.093811	-1.000000	-1.000000	-1.000000	-1.000000	-1.000000	-1.000000	-1.000000	83.310345	0.000000	-1.000000	-1.000000	899274.000000	1770063294.527262
7507.935000	13012.110000	21265.155000	16264.440000	-10197.810000	-6985.395000	1834.560000	12661.335000	-2.764589	-27.882321	-68.636824	18.844126	-0.200001	7.693117	2.392904	13.479207	-90.659660	39.767560	52.433360	1.043210	-0.071899	0.093811	-1.000000	-1.000000	-1.000000	-1.000000	-1.000000	-1.000000	-1.000000	83.310345	0.000000	-1.000000	-1.000000	899275.000000	1770063294.532542
7633.710000	13339.485000	21258.450000	16277.085000	-10297.755000	-6978.555000	1831.995000	12683.475000	-33.614757	-96.713549	-89.060911	-31.730543	-26.773179	-16.244474	-1.701827	2.692353	-90.659660	39.767560	52.433360	1.043210	-0.071899	0.093811	-1.000000	-1.000000	-1.000000	-1.000000	-1.000000	-1.000000	-1.000000	83.310345	0.000000	-1.000000	-1.000000	899276.000000	1770063294.532553
7796.160000	13755.960000	21413.340000	16321.860000	-10349.865000	-7197.570000	1792.935000	12725.280000	-58.012473	-136.970835	-59.335607	-62.498124	-45.821105	-10.661242	1.437403	-11.349794	-90.659660	39.767560	52.433360	1.043210	-0.071899	0.093811	-1.000000	-1.000000	-1.000000	-1.000000	-1.000000	-1.000000	-1.000000	83.310345	0.000000	-1.000000	-1.000000	899277.000000	1770063294.535362
7770.330000	13623.660000	21257.055000	16182.945000	-10058.040000	-7149.015000	1829.745000	12716.370000	-43.620496	-92.034607	-14.049851	-72.311198	-51.687756	3.125034	4.300768	-15.068696	-90.659660	39.767560	52.433360	1.043210	-0.071899	0.093811	-1.000000	-1.000000	-1.000000	-1.000000	-1.000000	-1.000000	-1.000000	83.310345	0.000000	-1.000000	-1.000000	899278.000000	1770063294.535369
7776.450000	13700.430000	21195.900000	16087.230000	-10188.720000	-7205.580000	1833.570000	12708.765000	3.881630	15.168816	12.864668	-67.734530	-22.854368	4.741846	2.097037	-6.518555	-90.659660	39.767560	52.433360	1.043210	-0.071899	0.093811	-1.000000	-1.000000	-1.000000	-1.000000	-1.000000	-1.000000	-1.000000	83.310345	0.000000	-1.000000	-1.000000	899279.000000	1770063294.540705
7737.255000	13675.680000	21360.960000	16208.145000	-10169.010000	-7212.825000	1842.210000	12686.805000	47.060937	108.239208	12.173131	-54.464252	35.899993	-1.079413	-3.031548	3.925099	-90.659660	39.767560	52.433360	1.043210	-0.071899	0.093811	-1.000000	-1.000000	-1.000000	-1.000000	-1.000000	-1.000000	-1.000000	83.310345	0.000000	-1.000000	-1.000000	899280.000000	1770063294.540716
7774.560000	13725.270000	21492.540000	16160.175000	-10263.060000	-7240.680000	1867.455000	12710.610000	58.250015	135.758076	7.035766	-29.932248	78.344779	-7.157625	-7.557149	7.264561	-44.284520	44.070880	39.233460	0.976743	-0.284057	0.116943	-1.000000	-1.000000	-1.000000	-1.000000	-1.000000	-1.000000	-1.000000	83.310345	0.000000	-1.000000	-1.000000	899281.000000	1770063294.543324
7807.950000	13751.145000	21484.890000	16168.905000	-10212.435000	-7240.590000	1914.345000	12739.725000	39.688749	99.154995	20.532715	3.732341	69.523485	-10.537599	-7.747228	4.158287	-44.284520	44.070880	39.233460	0.976743	-0.284057	0.116943	-1.000000	-1.000000	-1.000000	-1.000000	-1.000000	-1.000000	-1.000000	83.310345	0.000000	-1.000000	-1.000000	899282.000000	1770063294.543335
7794.855000	13629.870000	21487.005000	16358.760000	-10039.680000	-7118.325000	1939.545000	12754.935000	13.828362	37.586838	49.626173	34.569346	21.131344	-6.435400	-2.316170	1.828823	-44.284520	44.070880	39.233460	0.976743	-0.284057	0.116943	-1.000000	-1.000000	-1.000000	-1.000000	-1.000000	-1.000000	-1.000000	83.310345	0.000000	-1.000000	-1.000000	899283.000000	1770063294.547305
7782.660000	13605.885000	21564.360000	16137.720000	-10389.960000	-7038.585000	1939.275000	12741.435000	-1.940998	-11.537529	74.917719	54.695229	-34.102232	5.352578	4.282899	4.527292	-44.284520	44.070880	39.233460	0.976743	-0.284057	0.116943	-1.000000	-1.000000	-1.000000	-1.000000	-1.000000	-1.000000	-1.000000	83.310345	0.000000	-1.000000	-1.000000	899284.000000	1770063294.547315
7744.455000	13573.620000	21622.410000	16044.435000	-10753.290000	-7185.690000	1946.295000	12723.435000	-10.870986	-45.584366	75.431497	54.806936	-82.192084	16.836154	6.901378	8.164785	-44.284520	44.070880	39.233460	0.976743	-0.284057	0.116943	-1.000000	-1.000000	-1.000000	-1.000000	-1.000000	-1.000000	-1.000000	83.310345	0.000000	-1.000000	-1.000000	899285.000000	1770063294.553135
7766.730000	13649.130000	21556.260000	16610.850000	-9999.585000	-7135.290000	1969.380000	12735.180000	-23.703122	-78.309655	38.610320	34.997817	-109.769187	19.398432	5.523487	6.201329	-44.284520	44.070880	39.233460	0.976743	-0.284057	0.116943	-1.000000	-1.000000	-1.000000	-1.000000	-1.000000	-1.000000	-1.000000	83.310345	0.000000	-1.000000	-1.000000	899286.000000	1770063294.553147
7769.790000	13626.180000	21308.220000	16293.105000	-10033.650000	-7296.030000	1995.300000	12771.135000	-38.280922	-101.430153	-29.290226	19.917560	-80.465094	10.545962	3.156901	-1.237216	-44.284520	44.070880	39.233460	0.976743	-0.284057	0.116943	-1.000000	-1.000000	-1.000000	-1.000000	-1.000000	-1.000000	-1.000000	83.310345	0.000000	-1.000000	-1.000000	899287.000000	1770063294.559356
7698.195000	13448.745000	21184.470000	16188.570000	-10165.995000	-7370.280000	2028.645000	12751.470000	-43.094753	-94.962183	-103.778314	15.869442	9.075093	-7.450822	1.821501	-8.138109	-44.284520	44.070880	39.233460	0.976743	-0.284057	0.116943	-1.000000	-1.000000	-1.000000	-1.000000	-1.000000	-1.000000	-1.000000	83.310345	0.000000	-1.000000	-1.000000	899288.000000	1770063294.559368
7734.375000	13551.750000	21350.565000	16335.405000	-10234.305000	-7328.340000	2023.470000	12741.255000	-32.493083	-57.268390	-151.169366	1.564814	98.369388	-27.487419	1.333052	-10.723812	-44.284520	44.070880	39.233460	0.976743	-0.284057	0.116943	-1.000000	-1.000000	-1.000000	-1.000000	-1.000000	-1.000000	-1.000000	83.310345	0.000000	-1.000000	-1.000000	899289.000000	1770063294.559580
7724.610000	13490.910000	21407.265000	16344.900000	-10212.120000	-7339.680000	2058.525000	12755.610000	-10.045466	-2.202060	-141.139420	-24.117436	127.406015	-36.478323	0.083125	-10.012340	-44.284520	44.070880	39.233460	0.976743	-0.284057	0.116943	-1.000000	-1.000000	-1.000000	-1.000000	-1.000000	-1.000000	-1.000000	83.310345	0.000000	-1.000000	-1.000000	899290.000000	1770063294.559589
7656.930000	13468.680000	21445.875000	16386.660000	-10281.240000	-7373.115000	2040.930000	12698.955000	14.834540	52.940152	-67.572364	-43.631829	86.388388	-26.793581	-3.205359	-8.514084	49.274540	47.321260	13.016780	0.936338	-0.423705	0.159729	-1.000000	-1.000000	-1.000000	-1.000000	-1.000000	-1.000000	-1.000000	83.310345	0.000000	-1.000000	-1.000000	899291.000000	1770063294.564383
7659.270000	13561.740000	21552.750000	16525.305000	-10221.390000	-7349.940000	2022.525000	12681.090000	32.032107	94.801995	40.891442	-45.974515	6.078893	-7.507830	-8.823761	-7.847287	49.274540	47.321260	13.016780	0.936338	-0.423705	0.159729	-1.000000	-1.000000	-1.000000	-1.000000	-1.000000	-1.000000	-1.000000	83.310345	0.000000	-1.000000	-1.000000	899292.000000	1770063294.564391
7768.935000	13625.370000	21338.190000	16264.935000	-10310.265000	-7380.045000	2073.330000	12751.020000	38.057944	114.471004	130.848984	-28.863895	-61.906230	7.294149	-13.924894	-6.022526	49.274540	47.321260	13.016780	0.936338	-0.423705	0.159729	-1.000000	-1.000000	-1.000000	-1.000000	-1.000000	-1.000000	-1.000000	83.310345	0.000000	-1.000000	-1.000000	899293.000000	1770063294.567272
7748.280000	13619.700000	21484.800000	16257.645000	-10275.525000	-7339.770000	2099.115000	12733.245000	35.784574	100.844547	153.802046	-7.128809	-79.086032	16.260238	-12.260678	1.113536	49.274540	47.321260	13.016780	0.936338	-0.423705	0.159729	-1.000000	-1.000000	-1.000000	-1.000000	-1.000000	-1.000000	-1.000000	83.310345	0.000000	-1.000000	-1.000000	899294.000000	1770063294.567286
7657.110000	13408.605000	21478.815000	16119.945000	-10282.590000	-7319.520000	2120.445000	12688.785000	25.271296	47.517902	107.737733	-5.453155	-57.601561	25.987208	-1.756863	11.099845	49.274540	47.321260	13.016780	0.936338	-0.423705	0.159729	-1.000000	-1.000000	-1.000000	-1.000000	-1.000000	-1.000000	-1.000000	83.310345	0.000000	-1.000000	-1.000000	899295.000000	1770063294.575983
7687.080000	13432.635000	21478.365000	16225.470000	-10339.515000	-7353.225000	2118.195000	12676.950000	5.078022	-30.414968	36.614533	-20.875197	-33.482160	37.402432	11.065851	15.051779	49.274540	47.321260	13.016780	0.936338	-0.423705	0.159729	-1.000000	-1.000000	-1.000000	-1.000000	-1.000000	-1.000000	-1.000000	83.310345	0.000000	-1.000000	-1.000000	899296.000000	1770063294.575994
7703.145000	13567.005000	21268.980000	16198.155000	-10365.255000	-7359.975000	2178.495000	12694.725000	-16.504706	-92.508330	-21.382810	-22.252615	-15.971877	43.137662	18.051263	9.947443	49.274540	47.321260	13.016780	0.936338	-0.423705	0.159729	-1.000000	-1.000000	-1.000000	-1.000000	-1.000000	-1.000000	-1.000000	83.310345	0.000000	-1.000000	-1.000000	899297.000000	1770063294.576181
7774.740000	13798.530000	21368.520000	16256.295000	-10302.300000	-7329.915000	2215.350000	12713.760000	-26.177932	-99.158229	-61.023038	3.514217	5.531348	33.912994	17.385466	2.075404	49.274540	47.321260	13.016780	0.936338	-0.423705	0.159729	-1.000000	-1.000000	-1.000000	-1.000000	-1.000000	-1.000000	-1.000000	83.310345	0.000000	-1.000000	-1.000000	899298.000000	1770063294.576189
7788.105000	13716.810000	21478.050000	16335.225000	-10300.275000	-7311.285000	2245.545000	12755.835000	-19.096373	-47.715471	-82.596687	38.889579	32.781066	9.732159	12.128524	-1.319082	49.274540	47.321260	13.016780	0.936338	-0.423705	0.159729	-1.000000	-1.000000	-1.000000	-1.000000	-1.000000	-1.000000	-1.000000	83.310345	0.000000	-1.000000	-1.000000	899299.000000	1770063294.579294
7778.295000	13659.255000	21505.635000	16380.810000	-10283.355000	-7330.680000	2216.610000	12753.630000	-1.124992	22.763878	-75.389108	61.259389	53.598476	-19.199454	4.624002	2.262614	49.274540	47.321260	13.016780	0.936338	-0.423705	0.159729	-1.000000	-1.000000	-1.000000	-1.000000	-1.000000	-1.000000	-1.000000	83.310345	0.000000	-1.000000	-1.000000	899300.000000	1770063294.579307
7748.595000	13608.000000	21380.445000	16254.630000	-10363.500000	-7369.695000	2188.170000	12730.545000	14.321552	62.192390	-40.901855	58.203034	54.869429	-43.085349	-4.766139	8.658582	27.345920	39.447100	11.643380	0.899595	-0.333556	0.195495	-1.000000	-1.000000	-1.000000	-1.000000	-1.000000	-1.000000	-1.000000	83.310345	0.000000	-1.000000	-1.000000	899301.000000	1770063294.586340
7796.745000	13727.835000	21509.730000	16342.605000	-10301.130000	-7342.110000	2161.845000	12740.040000	14.446579	48.470221	1.331385	34.086304	37.484269	-54.338560	-15.712356	9.416436	27.345920	39.447100	11.643380	0.899595	-0.333556	0.195495	-1.000000	-1.000000	-1.000000	-1.000000	-1.000000	-1.000000	-1.000000	83.310345	0.000000	-1.000000	-1.000000	899302.000000	1770063294.586379
7796.880000	13703.625000	21515.040000	16365.195000	-10277.685000	-7306.110000	2207.610000	12752.055000	0.283085	2.276592	33.744578	5.586103	11.156313	-46.676918	-24.787209	1.591478	27.345920	39.447100	11.643380	0.899595	-0.333556	0.195495	-1.000000	-1.000000	-1.000000	-1.000000	-1.000000	-1.000000	-1.000000	83.310345	0.000000	-1.000000	-1.000000	899303.000000	1770063294.587260
7786.710000	13671.360000	21509.325000	16359.660000	-10312.695000	-7330.095000	2198.475000	12750.615000	-14.435182	-36.844090	48.313426	-14.043591	-17.250751	-21.720596	-25.615112	-8.467816	27.345920	39.447100	11.643380	0.899595	-0.333556	0.195495	-1.000000	-1.000000	-1.000000	-1.000000	-1.000000	-1.000000	-1.000000	83.310345	0.000000	-1.000000	-1.000000	899304.000000	1770063294.587271
7758.720000	13636.350000	21508.560000	16355.430000	-10351.755000	-7398.090000	2123.505000	12721.320000	-19.536482	-46.718543	45.623470	-22.159214	-38.996056	8.823995	-16.749769	-13.941216	27.345920	39.447100	11.643380	0.899595	-0.333556	0.195495	-1.000000	-1.000000	-1.000000	-1.000000	-1.000000	-1.000000	-1.000000	83.310345	0.000000	-1.000000	-1.000000	899305.000000	1770063294.591784
7712.820000	13559.805000	21450.330000	16325.910000	-10367.505000	-7397.055000	2141.370000	12704.535000	-16.803094	-35.854404	31.382004	-24.932643	-44.578455	29.409477	-5.020323	-14.369499	27.345920	39.447100	11.643380	0.899595	-0.333556	0.195495	-1.000000	-1.000000	-1.000000	-1.000000	-1.000000	-1.000000	-1.000000	83.310345	0.000000	-1.000000	-1.000000	899306.000000	1770063294.591792
7740.270000	13590.540000	21424.860000	16294.680000	-10385.595000	-7382.205000	2206.485000	12729.105000	-12.947497	-24.645539	7.774277	-30.069837	-34.449003	31.464087	4.296910	-12.468336	27.345920	39.447100	11.643380	0.899595	-0.333556	0.195495	-1.000000	-1.000000	-1.000000	-1.000000	-1.000000	-1.000000	-1.000000	83.310345	0.000000	-1.000000	-1.000000	899307.000000	1770063294.595190
7769.565000	13651.920000	21475.935000	16324.785000	-10385.955000	-7388.370000	2207.565000	12738.510000	-8.548348	-15.603383	-22.793725	-38.392257	-17.264447	19.156225	12.772633	-8.787691	27.345920	39.447100	11.643380	0.899595	-0.333556	0.195495	-1.000000	-1.000000	-1.000000	-1.000000	-1.000000	-1.000000	-1.000000	83.310345	0.000000	-1.000000	-1.000000	899308.000000	1770063294.595200
7721.820000	13588.335000	21424.320000	16282.620000	-10426.455000	-7383.195000	2232.450000	12713.805000	0.378777	3.367585	-47.622925	-42.194150	-0.987617	3.228549	22.133123	-2.423085	27.345920	39.447100	11.643380	0.899595	-0.333556	0.195495	-1.000000	-1.000000	-1.000000	-1.000000	-1.000000	-1.000000	-1.000000	83.310345	0.000000	-1.000000	-1.000000	899309.000000	1770063294.600334
7668.945000	13519.980000	21354.975000	16215.435000	-10479.510000	-7375.275000	2295.045000	12689.280000	10.826438	28.752039	-52.194252	-31.543482	11.182187	-6.752571	30.653455	4.808570	27.345920	39.447100	11.643380	0.899595	-0.333556	0.195495	-1.000000	-1.000000	-1.000000	-1.000000	-1.000000	-1.000000	-1.000000	83.310345	0.000000	-1.000000	-1.000000	899310.000000	1770063294.600344
