Channel1	Channel2	Channel3	Channel4	Channel5	Channel6	Channel7	Channel8	FilteredChannel1	FilteredChannel2	FilteredChannel3	FilteredChannel4	FilteredChannel5	FilteredChannel6	FilteredChannel7	FilteredChannel8	GyroX	GyroY	GyroZ	AccX	AccY	AccZ	PPG1	PPG2	rawPPG1	rawPPG2	rawPPG3	Hr	Hrv	Battery	Trigger	PhysicalTrigger	AutoTrigger	NumMeasurements	Timestamp
7777.935000	13730.850000	21525.705000	16361.145000	-10112.175000	-7178.715000	1041.165000	12745.890000	-8.339595	-12.865175	-10.206162	-4.529413	15.419930	11.572991	7.384796	-0.785966	-7.217980	6.027700	-6.058220	0.961240	-0.181030	0.215270	-1.000000	-1.000000	-1.000000	-1.000000	-1.000000	-1.000000	-1.000000	83.586207	0.000000	-1.000000	-1.000000	896589.000000	1770063289.157695
7786.170000	13727.025000	21519.540000	16352.820000	-10112.445000	-7188.570000	1029.690000	12762.000000	-6.876667	-14.702201	-13.255289	-8.922332	5.738537	4.784266	3.584964	-0.023039	-7.217980	6.027700	-6.058220	0.961240	-0.181030	0.215270	-1.000000	-1.000000	-1.000000	-1.000000	-1.000000	-1.000000	-1.000000	83.586207	0.000000	-1.000000	-1.000000	896590.000000	1770063289.157705
7768.035000	13717.800000	21510.990000	16349.220000	-10086.300000	-7180.830000	1020.195000	12734.910000	-3.229102	-12.853798	-13.006945	-11.708495	-5.990025	-4.696528	-2.117209	4.364244	-2.945180	5.112100	-3.082520	0.962644	-0.179748	0.219787	-1.000000	-1.000000	-1.000000	-1.000000	-1.000000	-1.000000	-1.000000	83.586207	0.000000	-1.000000	-1.000000	896591.000000	1770063289.164321
7734.555000	13710.960000	21504.285000	16347.240000	-10064.925000	-7172.145000	1021.095000	12740.895000	-0.878354	-9.130130	-10.462245	-12.174483	-13.705106	-12.336740	-7.526438	8.811520	-2.945180	5.112100	-3.082520	0.962644	-0.179748	0.219787	-1.000000	-1.000000	-1.000000	-1.000000	-1.000000	-1.000000	-1.000000	83.586207	0.000000	-1.000000	-1.000000	896592.000000	1770063289.164329
7752.015000	13717.485000	21505.320000	16334.910000	-10120.770000	-7207.605000	1019.070000	12769.875000	-1.514705	-4.591453	-6.232205	-9.508720	-14.147676	-14.186081	-9.671131	10.057310	-2.945180	5.112100	-3.082520	0.962644	-0.179748	0.219787	-1.000000	-1.000000	-1.000000	-1.000000	-1.000000	-1.000000	-1.000000	83.586207	0.000000	-1.000000	-1.000000	896593.000000	1770063289.165547
7738.605000	13702.005000	21495.285000	16322.400000	-10208.475000	-7240.230000	1018.305000	12750.795000	-2.882660	0.775701	-0.561434	-4.071227	-10.713501	-10.658478	-7.118467	7.221867	-2.945180	5.112100	-3.082520	0.962644	-0.179748	0.219787	-1.000000	-1.000000	-1.000000	-1.000000	-1.000000	-1.000000	-1.000000	83.586207	0.000000	-1.000000	-1.000000	896594.000000	1770063289.165554
7746.885000	13712.805000	21504.780000	16330.725000	-10205.820000	-7240.995000	1014.120000	12739.050000	-1.857333	6.787347	5.917157	2.422014	-9.443370	-5.903388	-1.757735	0.768791	-2.945180	5.112100	-3.082520	0.962644	-0.179748	0.219787	-1.000000	-1.000000	-1.000000	-1.000000	-1.000000	-1.000000	-1.000000	83.586207	0.000000	-1.000000	-1.000000	896595.000000	1770063289.171533
7768.935000	13749.660000	21532.905000	16347.195000	-10177.155000	-7244.550000	1002.060000	12737.475000	2.285145	12.344836	11.774972	8.132618	-9.868399	-2.318965	2.951396	-6.534794	-2.945180	5.112100	-3.082520	0.962644	-0.179748	0.219787	-1.000000	-1.000000	-1.000000	-1.000000	-1.000000	-1.000000	-1.000000	83.586207	0.000000	-1.000000	-1.000000	896596.000000	1770063289.171545
7758.855000	13733.775000	21523.230000	16347.555000	-10155.465000	-7218.045000	1022.220000	12739.410000	7.373303	15.217507	14.711061	11.472562	-5.897724	1.255312	5.040423	-10.547081	-2.945180	5.112100	-3.082520	0.962644	-0.179748	0.219787	-1.000000	-1.000000	-1.000000	-1.000000	-1.000000	-1.000000	-1.000000	83.586207	0.000000	-1.000000	-1.000000	896597.000000	1770063289.173585
7739.460000	13719.960000	21513.645000	16348.905000	-10137.555000	-7202.565000	1025.190000	12722.940000	9.084208	12.375295	12.226552	11.135613	4.998415	6.646080	5.202310	-10.314867	-2.945180	5.112100	-3.082520	0.962644	-0.179748	0.219787	-1.000000	-1.000000	-1.000000	-1.000000	-1.000000	-1.000000	-1.000000	83.586207	0.000000	-1.000000	-1.000000	896598.000000	1770063289.173596
7755.075000	13741.290000	21529.890000	16362.540000	-10130.040000	-7206.030000	1019.565000	12724.245000	4.990446	3.599136	4.528496	7.426731	18.146484	13.050191	4.931888	-7.962403	-2.945180	5.112100	-3.082520	0.962644	-0.179748	0.219787	-1.000000	-1.000000	-1.000000	-1.000000	-1.000000	-1.000000	-1.000000	83.586207	0.000000	-1.000000	-1.000000	896599.000000	1770063289.178009
7748.595000	13734.585000	21531.015000	16365.780000	-10125.720000	-7204.770000	1023.660000	12735.315000	-1.588521	-6.253092	-4.078869	2.522720	25.318075	16.371028	4.453808	-4.050148	-2.945180	5.112100	-3.082520	0.962644	-0.179748	0.219787	-1.000000	-1.000000	-1.000000	-1.000000	-1.000000	-1.000000	-1.000000	83.586207	0.000000	-1.000000	-1.000000	896600.000000	1770063289.178019
7750.170000	13712.175000	21517.020000	16347.195000	-10147.320000	-7220.835000	1025.010000	12750.705000	-5.124572	-12.083440	-9.182506	-1.690162	21.375788	13.242178	3.321772	2.061129	0.946120	5.875100	-2.655240	0.965207	-0.182067	0.217834	-1.000000	-1.000000	-1.000000	-1.000000	-1.000000	-1.000000	-1.000000	83.586207	0.000000	-1.000000	-1.000000	896601.000000	1770063289.181888
7787.565000	13709.205000	21502.440000	16332.570000	-10161.765000	-7234.515000	1020.735000	12759.480000	-3.426552	-12.789833	-9.986841	-4.825595	9.185635	4.985579	1.429341	8.434400	0.946120	5.875100	-2.655240	0.965207	-0.182067	0.217834	-1.000000	-1.000000	-1.000000	-1.000000	-1.000000	-1.000000	-1.000000	83.586207	0.000000	-1.000000	-1.000000	896602.000000	1770063289.181897
7819.875000	13725.090000	21515.040000	16349.760000	-10139.715000	-7218.495000	1031.715000	12764.835000	2.391599	-9.050277	-7.731156	-6.552125	-2.551722	-3.624428	-0.937370	11.841421	0.946120	5.875100	-2.655240	0.965207	-0.182067	0.217834	-1.000000	-1.000000	-1.000000	-1.000000	-1.000000	-1.000000	-1.000000	83.586207	0.000000	-1.000000	-1.000000	896603.000000	1770063289.186100
7804.035000	13727.610000	21518.640000	16351.425000	-10138.815000	-7212.645000	1036.935000	12757.905000	8.734146	-2.135949	-3.612833	-6.066273	-7.737527	-8.369477	-2.817039	11.152333	0.946120	5.875100	-2.655240	0.965207	-0.182067	0.217834	-1.000000	-1.000000	-1.000000	-1.000000	-1.000000	-1.000000	-1.000000	83.586207	0.000000	-1.000000	-1.000000	896604.000000	1770063289.186111
7777.755000	13723.335000	21524.535000	16357.770000	-10132.155000	-7207.965000	1032.930000	12753.315000	9.644807	4.400752	0.584041	-3.778629	-8.033069	-8.452171	-3.328920	6.997959	0.946120	5.875100	-2.655240	0.965207	-0.182067	0.217834	-1.000000	-1.000000	-1.000000	-1.000000	-1.000000	-1.000000	-1.000000	83.586207	0.000000	-1.000000	-1.000000	896605.000000	1770063289.190138
7740.945000	13720.815000	21531.600000	16364.295000	-10130.985000	-7216.380000	1027.485000	12760.245000	1.625961	7.051023	3.264614	-1.158362	-8.335694	-6.453308	-3.176181	0.631646	0.946120	5.875100	-2.655240	0.965207	-0.182067	0.217834	-1.000000	-1.000000	-1.000000	-1.000000	-1.000000	-1.000000	-1.000000	83.586207	0.000000	-1.000000	-1.000000	896606.000000	1770063289.190148
7746.435000	13720.005000	21527.370000	16363.575000	-10128.015000	-7211.745000	1025.010000	12752.280000	-11.482705	5.740421	4.332342	0.869068	-10.308826	-5.227016	-3.530140	-5.751561	0.946120	5.875100	-2.655240	0.965207	-0.182067	0.217834	-1.000000	-1.000000	-1.000000	-1.000000	-1.000000	-1.000000	-1.000000	83.586207	0.000000	-1.000000	-1.000000	896607.000000	1770063289.193969
7745.040000	13753.980000	21551.535000	16391.115000	-10102.545000	-7195.410000	1041.345000	12737.070000	-20.907289	2.947488	4.257363	2.147112	-11.770432	-4.793609	-3.741204	-9.852570	0.946120	5.875100	-2.655240	0.965207	-0.182067	0.217834	-1.000000	-1.000000	-1.000000	-1.000000	-1.000000	-1.000000	-1.000000	83.586207	0.000000	-1.000000	-1.000000	896608.000000	1770063289.193978
7758.855000	13798.665000	21588.480000	16423.785000	-10075.455000	-7170.705000	1067.940000	12691.980000	-19.744455	2.132792	4.141514	3.570423	-9.345357	-2.824717	-1.886620	-11.465583	0.946120	5.875100	-2.655240	0.965207	-0.182067	0.217834	-1.000000	-1.000000	-1.000000	-1.000000	-1.000000	-1.000000	-1.000000	83.586207	0.000000	-1.000000	-1.000000	896609.000000	1770063289.197750
7752.465000	13778.100000	21575.880000	16414.335000	-10074.105000	-7163.820000	1069.110000	12673.305000	-8.207612	5.008080	5.221456	6.134050	-1.358165	2.335642	2.506638	-12.360519	0.946120	5.875100	-2.655240	0.965207	-0.182067	0.217834	-1.000000	-1.000000	-1.000000	-1.000000	-1.000000	-1.000000	-1.000000	83.586207	0.000000	-1.000000	-1.000000	896610.000000	1770063289.197758
7738.335000	13694.580000	21490.425000	16330.275000	-10129.365000	-7217.370000	1021.725000	12710.610000	6.034095	7.137466	5.142913	7.204682	8.920993	8.329708	6.324634	-12.122891	-3.570840	7.645260	-3.647140	0.970701	-0.177856	0.211975	-1.000000	-1.000000	-1.000000	-1.000000	-1.000000	-1.000000	-1.000000	83.586207	0.000000	-1.000000	-1.000000	896611.000000	1770063289.202156
7711.065000	13635.090000	21428.325000	16276.545000	-10152.270000	-7249.635000	989.685000	12770.910000	13.784552	0.830931	-1.565960	1.055532	13.607463	8.900529	4.607304	-6.215976	-3.570840	7.645260	-3.647140	0.970701	-0.177856	0.211975	-1.000000	-1.000000	-1.000000	-1.000000	-1.000000	-1.000000	-1.000000	83.586207	0.000000	-1.000000	-1.000000	896612.000000	1770063289.202168
7707.195000	13640.895000	21443.580000	16296.840000	-10125.090000	-7225.110000	1005.885000	12753.135000	12.015092	-14.126881	-14.912147	-12.283952	8.284025	1.353653	-3.112218	7.395365	-3.570840	7.645260	-3.647140	0.970701	-0.177856	0.211975	-1.000000	-1.000000	-1.000000	-1.000000	-1.000000	-1.000000	-1.000000	83.586207	0.000000	-1.000000	-1.000000	896613.000000	1770063289.205775
7735.680000	13664.520000	21461.130000	16297.785000	-10170.315000	-7245.585000	1012.590000	12753.765000	6.008109	-26.584363	-25.142862	-23.095214	-2.858772	-8.746683	-10.411192	21.846196	-3.570840	7.645260	-3.647140	0.970701	-0.177856	0.211975	-1.000000	-1.000000	-1.000000	-1.000000	-1.000000	-1.000000	-1.000000	83.586207	0.000000	-1.000000	-1.000000	896614.000000	1770063289.205786
7738.155000	13679.910000	21475.395000	16309.440000	-10178.190000	-7259.580000	1008.945000	12743.100000	3.465076	-24.306817	-21.814387	-21.539981	-12.724948	-14.130852	-10.710229	26.873998	-3.570840	7.645260	-3.647140	0.970701	-0.177856	0.211975	-1.000000	-1.000000	-1.000000	-1.000000	-1.000000	-1.000000	-1.000000	83.586207	0.000000	-1.000000	-1.000000	896615.000000	1770063289.212353
7739.910000	13689.045000	21486.195000	16320.510000	-10187.820000	-7260.120000	1011.735000	12740.220000	6.104500	-6.426294	-4.610053	-7.156527	-16.692777	-12.311742	-3.701052	18.878476	-3.570840	7.645260	-3.647140	0.970701	-0.177856	0.211975	-1.000000	-1.000000	-1.000000	-1.000000	-1.000000	-1.000000	-1.000000	83.586207	0.000000	-1.000000	-1.000000	896616.000000	1770063289.212361
7743.645000	13703.085000	21500.595000	16334.820000	-10195.830000	-7252.155000	1017.360000	12735.765000	9.111751	15.899525	16.535151	11.768328	-13.540526	-5.089428	5.559349	3.218999	-3.570840	7.645260	-3.647140	0.970701	-0.177856	0.211975	-1.000000	-1.000000	-1.000000	-1.000000	-1.000000	-1.000000	-1.000000	83.586207	0.000000	-1.000000	-1.000000	896617.000000	1770063289.215156
7758.450000	13736.070000	21529.755000	16353.405000	-10193.085000	-7256.565000	1010.295000	12683.295000	7.952868	29.904496	30.014871	25.147960	-5.194533	3.780993	11.165534	-11.557839	-3.570840	7.645260	-3.647140	0.970701	-0.177856	0.211975	-1.000000	-1.000000	-1.000000	-1.000000	-1.000000	-1.000000	-1.000000	83.586207	0.000000	-1.000000	-1.000000	896618.000000	1770063289.215166
7748.955000	13727.970000	21518.550000	16344.315000	-10190.475000	-7252.290000	1006.290000	12665.160000	2.237921	30.980216	31.013583	28.151115	5.744961	10.983435	10.613054	-20.544075	-3.570840	7.645260	-3.647140	0.970701	-0.177856	0.211975	-1.000000	-1.000000	-1.000000	-1.000000	-1.000000	-1.000000	-1.000000	83.586207	0.000000	-1.000000	-1.000000	896619.000000	1770063289.219609
7717.095000	13686.930000	21483.990000	16323.030000	-10171.080000	-7244.415000	1004.580000	12736.035000	-5.788344	22.380709	22.250819	22.491457	17.364044	15.544239	6.366373	-22.457645	-3.570840	7.645260	-3.647140	0.970701	-0.177856	0.211975	-1.000000	-1.000000	-1.000000	-1.000000	-1.000000	-1.000000	-1.000000	83.586207	0.000000	-1.000000	-1.000000	896620.000000	1770063289.219619
7733.205000	13683.555000	21485.835000	16327.845000	-10157.895000	-7241.220000	1011.960000	12771.225000	-12.729689	8.982658	8.807290	12.194164	26.391825	17.359809	2.663104	-16.074749	-11.078760	11.048240	-5.173140	0.974058	-0.170837	0.199829	-1.000000	-1.000000	-1.000000	-1.000000	-1.000000	-1.000000	-1.000000	83.586207	0.000000	-1.000000	-1.000000	896621.000000	1770063289.224483
7744.860000	13693.860000	21492.270000	16327.080000	-10176.345000	-7247.115000	1017.495000	12747.420000	-14.673967	-5.354735	-5.303110	0.119813	27.485667	14.741338	0.965089	-2.560657	-11.078760	11.048240	-5.173140	0.974058	-0.170837	0.199829	-1.000000	-1.000000	-1.000000	-1.000000	-1.000000	-1.000000	-1.000000	83.586207	0.000000	-1.000000	-1.000000	896622.000000	1770063289.224490
7762.275000	13724.730000	21515.130000	16331.670000	-10203.255000	-7261.470000	1011.510000	12748.320000	-10.005860	-16.720012	-16.760975	-11.547719	17.458787	6.480231	-0.267061	11.404009	-11.078760	11.048240	-5.173140	0.974058	-0.170837	0.199829	-1.000000	-1.000000	-1.000000	-1.000000	-1.000000	-1.000000	-1.000000	83.586207	0.000000	-1.000000	-1.000000	896623.000000	1770063289.225885
7761.555000	13723.785000	21514.635000	16335.450000	-10188.270000	-7250.220000	1013.895000	12746.880000	-1.357263	-21.611519	-22.450581	-19.867062	-0.199969	-4.714861	-2.388972	18.387912	-11.078760	11.048240	-5.173140	0.974058	-0.170837	0.199829	-1.000000	-1.000000	-1.000000	-1.000000	-1.000000	-1.000000	-1.000000	83.586207	0.000000	-1.000000	-1.000000	896624.000000	1770063289.225894
7766.010000	13733.100000	21527.460000	16352.595000	-10163.880000	-7237.530000	1013.175000	12741.525000	6.403805	-19.458775	-21.139314	-22.126953	-16.570676	-13.515617	-5.000006	16.169118	-11.078760	11.048240	-5.173140	0.974058	-0.170837	0.199829	-1.000000	-1.000000	-1.000000	-1.000000	-1.000000	-1.000000	-1.000000	83.586207	0.000000	-1.000000	-1.000000	896625.000000	1770063289.229648
7768.080000	13741.920000	21535.470000	16356.960000	-10160.865000	-7235.325000	1012.275000	12736.845000	9.479292	-13.034807	-14.598633	-17.882948	-23.660196	-16.242878	-6.966416	7.956533	-11.078760	11.048240	-5.173140	0.974058	-0.170837	0.199829	-1.000000	-1.000000	-1.000000	-1.000000	-1.000000	-1.000000	-1.000000	83.586207	0.000000	-1.000000	-1.000000	896626.000000	1770063289.229657
7742.070000	13712.040000	21511.035000	16345.305000	-10154.520000	-7223.985000	1017.045000	12729.555000	6.712132	-6.188052	-6.435014	-9.452930	-19.872072	-12.800277	-7.163937	-0.464997	-11.078760	11.048240	-5.173140	0.974058	-0.170837	0.199829	-1.000000	-1.000000	-1.000000	-1.000000	-1.000000	-1.000000	-1.000000	83.586207	0.000000	-1.000000	-1.000000	896627.000000	1770063289.237211
7740.045000	13704.705000	21499.560000	16329.690000	-10168.425000	-7231.590000	1019.925000	12741.120000	-0.006999	-0.949768	0.598189	-0.093431	-9.700541	-5.595744	-4.593870	-5.305492	-11.078760	11.048240	-5.173140	0.974058	-0.170837	0.199829	-1.000000	-1.000000	-1.000000	-1.000000	-1.000000	-1.000000	-1.000000	83.586207	0.000000	-1.000000	-1.000000	896628.000000	1770063289.237222
7759.080000	13710.825000	21506.175000	16336.170000	-10164.105000	-7235.145000	1019.430000	12746.160000	-5.701544	3.964935	6.516545	8.017896	0.184951	1.702011	0.399982	-7.837325	-11.078760	11.048240	-5.173140	0.974058	-0.170837	0.199829	-1.000000	-1.000000	-1.000000	-1.000000	-1.000000	-1.000000	-1.000000	83.586207	0.000000	-1.000000	-1.000000	896629.000000	1770063289.239005
7756.020000	13698.945000	21503.655000	16343.820000	-10149.255000	-7225.920000	1021.770000	12736.755000	-6.074416	9.574496	11.594872	13.364578	5.277262	5.803062	5.257156	-10.612527	-11.078760	11.048240	-5.173140	0.974058	-0.170837	0.199829	-1.000000	-1.000000	-1.000000	-1.000000	-1.000000	-1.000000	-1.000000	83.586207	0.000000	-1.000000	-1.000000	896630.000000	1770063289.239015
7766.460000	13701.735000	21508.020000	16346.385000	-10149.705000	-7223.805000	1014.615000	12733.560000	-2.023403	12.911683	13.578452	14.375326	5.965612	6.076923	6.932273	-12.346587	-14.619080	9.064440	-2.701020	0.968809	-0.174255	0.206176	-1.000000	-1.000000	-1.000000	-1.000000	-1.000000	-1.000000	-1.000000	83.586207	0.000000	-1.000000	-1.000000	896631.000000	1770063289.253037
7771.725000	13707.270000	21512.610000	16350.120000	-10149.885000	-7225.965000	1006.380000	12737.430000	2.378949	10.564552	10.313595	10.594808	5.290058	4.301601	4.520222	-9.801548	-14.619080	9.064440	-2.701020	0.968809	-0.174255	0.206176	-1.000000	-1.000000	-1.000000	-1.000000	-1.000000	-1.000000	-1.000000	83.586207	0.000000	-1.000000	-1.000000	896632.000000	1770063289.253050
7741.935000	13719.150000	21528.855000	16359.210000	-10151.730000	-7220.025000	1012.185000	12733.110000	4.012171	3.638403	3.257839	3.605277	4.297713	1.999770	-0.157536	-2.565937	-14.619080	9.064440	-2.701020	0.968809	-0.174255	0.206176	-1.000000	-1.000000	-1.000000	-1.000000	-1.000000	-1.000000	-1.000000	83.586207	0.000000	-1.000000	-1.000000	896633.000000	1770063289.253064
7711.515000	13700.610000	21523.770000	16353.630000	-10158.885000	-7213.860000	1018.755000	12726.540000	1.433380	-3.721543	-3.766538	-3.923954	1.687349	-0.436265	-4.014542	6.172233	-14.619080	9.064440	-2.701020	0.968809	-0.174255	0.206176	-1.000000	-1.000000	-1.000000	-1.000000	-1.000000	-1.000000	-1.000000	83.586207	0.000000	-1.000000	-1.000000	896634.000000	1770063289.253069
7704.180000	13685.130000	21521.430000	16350.795000	-10171.170000	-7218.180000	1026.225000	12728.250000	-4.316044	-8.659412	-8.003088	-9.537959	-2.872702	-2.624957	-4.746980	12.538983	-14.619080	9.064440	-2.701020	0.968809	-0.174255	0.206176	-1.000000	-1.000000	-1.000000	-1.000000	-1.000000	-1.000000	-1.000000	83.586207	0.000000	-1.000000	-1.000000	896635.000000	1770063289.253075
7726.140000	13681.305000	21519.090000	16354.395000	-10173.195000	-7229.115000	1026.810000	12735.405000	-8.463297	-9.722010	-8.187269	-11.001066	-7.181540	-4.044914	-2.248898	14.495231	-14.619080	9.064440	-2.701020	0.968809	-0.174255	0.206176	-1.000000	-1.000000	-1.000000	-1.000000	-1.000000	-1.000000	-1.000000	83.586207	0.000000	-1.000000	-1.000000	896636.000000	1770063289.253080
7753.095000	13665.105000	21507.435000	16360.110000	-10167.075000	-7240.230000	1024.650000	12739.995000	-5.691914	-5.987245	-4.163016	-6.909621	-8.071550	-4.420660	1.523330	11.403780	-14.619080	9.064440	-2.701020	0.968809	-0.174255	0.206176	-1.000000	-1.000000	-1.000000	-1.000000	-1.000000	-1.000000	-1.000000	83.586207	0.000000	-1.000000	-1.000000	896637.000000	1770063289.253719
7759.620000	13645.260000	21496.815000	16362.990000	-10162.620000	-7232.445000	1026.900000	12741.660000	3.811745	0.672919	1.584130	0.936571	-4.417045	-3.545943	4.067786	3.861304	-14.619080	9.064440	-2.701020	0.968809	-0.174255	0.206176	-1.000000	-1.000000	-1.000000	-1.000000	-1.000000	-1.000000	-1.000000	83.586207	0.000000	-1.000000	-1.000000	896638.000000	1770063289.253724
7744.770000	13673.250000	21525.075000	16389.675000	-10144.755000	-7214.310000	1023.750000	12735.405000	13.309934	6.354296	5.356007	7.962621	1.834577	-1.155131	3.969821	-4.873006	-14.619080	9.064440	-2.701020	0.968809	-0.174255	0.206176	-1.000000	-1.000000	-1.000000	-1.000000	-1.000000	-1.000000	-1.000000	83.586207	0.000000	-1.000000	-1.000000	896639.000000	1770063289.257649
7709.085000	13680.855000	21539.790000	16404.570000	-10123.470000	-7205.130000	1012.635000	12709.755000	14.921201	9.014598	6.017602	10.874259	8.092401	2.749382	1.541971	-10.741739	-14.619080	9.064440	-2.701020	0.968809	-0.174255	0.206176	-1.000000	-1.000000	-1.000000	-1.000000	-1.000000	-1.000000	-1.000000	83.586207	0.000000	-1.000000	-1.000000	896640.000000	1770063289.257660
7764.030000	13658.895000	21494.520000	16339.140000	-10132.560000	-7207.470000	1009.980000	12710.205000	7.132535	8.190861	3.921211	8.245753	12.176437	6.828838	-1.716884	-12.175194	-8.820280	8.011500	-4.242280	0.962888	-0.184936	0.221557	-1.000000	-1.000000	-1.000000	-1.000000	-1.000000	-1.000000	-1.000000	83.586207	0.000000	-1.000000	-1.000000	896641.000000	1770063289.263195
7729.335000	13650.570000	21478.455000	16276.500000	-10128.330000	-7193.970000	1030.725000	12734.415000	-3.129376	3.549188	-1.516263	-1.323819	11.670349	8.497511	-3.930595	-9.117920	-8.820280	8.011500	-4.242280	0.962888	-0.184936	0.221557	-1.000000	-1.000000	-1.000000	-1.000000	-1.000000	-1.000000	-1.000000	83.586207	0.000000	-1.000000	-1.000000	896642.000000	1770063289.263204
7747.335000	13706.325000	21537.405000	16304.850000	-10118.700000	-7189.695000	1049.355000	12764.655000	-8.338384	-2.348027	-8.097835	-15.070975	6.169200	6.412620	-3.469602	-1.521281	-8.820280	8.011500	-4.242280	0.962888	-0.184936	0.221557	-1.000000	-1.000000	-1.000000	-1.000000	-1.000000	-1.000000	-1.000000	83.586207	0.000000	-1.000000	-1.000000	896643.000000	1770063289.265669
7777.890000	13716.405000	21551.490000	16337.160000	-10123.020000	-7200.045000	1041.840000	12757.860000	-6.565965	-3.871078	-9.261227	-22.866035	-1.295111	1.695786	-0.394781	8.411289	-8.820280	8.011500	-4.242280	0.962888	-0.184936	0.221557	-1.000000	-1.000000	-1.000000	-1.000000	-1.000000	-1.000000	-1.000000	83.586207	0.000000	-1.000000	-1.000000	896644.000000	1770063289.265678
7721.145000	13704.615000	21529.620000	16340.220000	-10143.720000	-7219.845000	1017.495000	12732.390000	-1.335786	0.791821	-2.127223	-16.140151	-7.402129	-3.557562	2.592317	14.577357	-8.820280	8.011500	-4.242280	0.962888	-0.184936	0.221557	-1.000000	-1.000000	-1.000000	-1.000000	-1.000000	-1.000000	-1.000000	83.586207	0.000000	-1.000000	-1.000000	896645.000000	1770063289.274271
7714.305000	13689.765000	21497.130000	16340.040000	-10145.880000	-7222.635000	1014.165000	12738.960000	0.504815	6.559167	7.406231	1.978820	-11.028203	-7.521656	2.503882	11.530778	-8.820280	8.011500	-4.242280	0.962888	-0.184936	0.221557	-1.000000	-1.000000	-1.000000	-1.000000	-1.000000	-1.000000	-1.000000	83.586207	0.000000	-1.000000	-1.000000	896646.000000	1770063289.274283
7755.435000	13670.280000	21472.830000	16345.440000	-10135.170000	-7205.940000	1021.590000	12741.030000	-3.377917	7.106901	10.765264	19.565164	-11.927360	-8.807627	-0.493013	1.020995	-8.820280	8.011500	-4.242280	0.962888	-0.184936	0.221557	-1.000000	-1.000000	-1.000000	-1.000000	-1.000000	-1.000000	-1.000000	83.586207	0.000000	-1.000000	-1.000000	896647.000000	1770063289.275004
7680.015000	13687.245000	21491.820000	16356.735000	-10132.560000	-7211.385000	1011.780000	12709.890000	-7.877164	0.561584	4.994334	26.247574	-9.646130	-6.962879	-3.389447	-9.577814	-8.820280	8.011500	-4.242280	0.962888	-0.184936	0.221557	-1.000000	-1.000000	-1.000000	-1.000000	-1.000000	-1.000000	-1.000000	83.586207	0.000000	-1.000000	-1.000000	896648.000000	1770063289.275010
7664.760000	13693.095000	21464.235000	16330.185000	-10143.180000	-7212.105000	1017.990000	12713.850000	-9.264305	-9.040919	-5.233378	19.687631	-4.802279	-3.076455	-3.579096	-14.302839	-8.820280	8.011500	-4.242280	0.962888	-0.184936	0.221557	-1.000000	-1.000000	-1.000000	-1.000000	-1.000000	-1.000000	-1.000000	83.586207	0.000000	-1.000000	-1.000000	896649.000000	1770063289.277678
7733.925000	13741.200000	21484.755000	16329.780000	-10159.740000	-7227.450000	1014.255000	12725.955000	-7.160012	-14.186233	-11.883396	5.814313	0.440335	0.735902	-0.991666	-11.525264	-8.820280	8.011500	-4.242280	0.962888	-0.184936	0.221557	-1.000000	-1.000000	-1.000000	-1.000000	-1.000000	-1.000000	-1.000000	83.586207	0.000000	-1.000000	-1.000000	896650.000000	1770063289.277684
7760.655000	13769.010000	21512.880000	16334.775000	-10172.520000	-7237.035000	1015.110000	12734.685000	0.461418	-9.924483	-9.638426	-5.996152	3.843224	2.487634	1.960973	-3.581545	-14.603820	10.407320	-2.014320	0.969907	-0.166870	0.234313	-1.000000	-1.000000	-1.000000	-1.000000	-1.000000	-1.000000	-1.000000	83.586207	0.000000	-1.000000	-1.000000	896651.000000	1770063289.281860
7739.595000	13730.085000	21495.690000	16330.860000	-10161.720000	-7223.850000	1020.780000	12733.380000	12.465799	0.192669	-0.578189	-10.819462	4.826445	2.022902	2.796390	4.626262	-14.603820	10.407320	-2.014320	0.969907	-0.166870	0.234313	-1.000000	-1.000000	-1.000000	-1.000000	-1.000000	-1.000000	-1.000000	83.586207	0.000000	-1.000000	-1.000000	896652.000000	1770063289.281872
7723.305000	13700.340000	21485.700000	16331.265000	-10151.370000	-7205.490000	1032.120000	12738.465000	20.380404	6.592835	7.602472	-10.719917	5.130985	1.976011	1.906897	9.185100	-14.603820	10.407320	-2.014320	0.969907	-0.166870	0.234313	-1.000000	-1.000000	-1.000000	-1.000000	-1.000000	-1.000000	-1.000000	83.586207	0.000000	-1.000000	-1.000000	896653.000000	1770063289.287247
7704.675000	13679.235000	21488.580000	16334.640000	-10154.970000	-7208.775000	1028.700000	12729.735000	17.427791	4.168452	10.074911	-9.089829	6.688939	4.827939	1.719202	9.375829	-14.603820	10.407320	-2.014320	0.969907	-0.166870	0.234313	-1.000000	-1.000000	-1.000000	-1.000000	-1.000000	-1.000000	-1.000000	83.586207	0.000000	-1.000000	-1.000000	896654.000000	1770063289.287258
7687.620000	13646.115000	21503.520000	16353.990000	-10143.315000	-7203.330000	1018.710000	12707.550000	5.159438	-3.442807	8.654731	-6.524748	8.760648	8.969533	2.767731	5.927985	-14.603820	10.407320	-2.014320	0.969907	-0.166870	0.234313	-1.000000	-1.000000	-1.000000	-1.000000	-1.000000	-1.000000	-1.000000	83.586207	0.000000	-1.000000	-1.000000	896655.000000	1770063289.292771
7690.860000	13658.760000	21531.240000	16393.770000	-10110.555000	-7187.850000	1017.360000	12706.470000	-9.594038	-9.396912	7.027941	-2.205984	9.118061	10.202526	2.982228	0.146902	-14.603820	10.407320	-2.014320	0.969907	-0.166870	0.234313	-1.000000	-1.000000	-1.000000	-1.000000	-1.000000	-1.000000	-1.000000	83.586207	0.000000	-1.000000	-1.000000	896656.000000	1770063289.292778
7716.330000	13685.040000	21533.985000	16405.920000	-10091.565000	-7176.240000	1024.245000	12726.990000	-17.753384	-8.989339	5.948042	3.727229	7.169017	6.784599	1.251573	-4.449271	-14.603820	10.407320	-2.014320	0.969907	-0.166870	0.234313	-1.000000	-1.000000	-1.000000	-1.000000	-1.000000	-1.000000	-1.000000	83.586207	0.000000	-1.000000	-1.000000	896657.000000	1770063289.295747
7710.030000	13647.555000	21487.185000	16377.435000	-10096.335000	-7175.970000	1032.930000	12722.220000	-14.000296	-2.393935	3.254497	9.102000	3.831127	0.722956	-1.056163	-4.401555	-14.603820	10.407320	-2.014320	0.969907	-0.166870	0.234313	-1.000000	-1.000000	-1.000000	-1.000000	-1.000000	-1.000000	-1.000000	83.586207	0.000000	-1.000000	-1.000000	896658.000000	1770063289.295755
7733.070000	13650.435000	21437.910000	16328.340000	-10132.020000	-7200.810000	1026.045000	12714.660000	-3.193464	4.839753	-3.913282	10.006040	-0.682953	-5.277874	-2.465236	-1.034505	-14.603820	10.407320	-2.014320	0.969907	-0.166870	0.234313	-1.000000	-1.000000	-1.000000	-1.000000	-1.000000	-1.000000	-1.000000	83.586207	0.000000	-1.000000	-1.000000	896659.000000	1770063289.297722
7756.920000	13692.960000	21438.315000	16319.025000	-10135.260000	-7204.185000	1018.215000	12728.610000	5.852169	7.981655	-15.454404	3.683139	-6.776493	-9.894860	-3.183682	1.387308	-14.603820	10.407320	-2.014320	0.969907	-0.166870	0.234313	-1.000000	-1.000000	-1.000000	-1.000000	-1.000000	-1.000000	-1.000000	83.586207	0.000000	-1.000000	-1.000000	896660.000000	1770063289.297732
7760.655000	13779.585000	21517.560000	16358.310000	-10129.680000	-7213.680000	1008.900000	12742.965000	9.588678	9.922638	-23.827466	-6.712932	-12.978056	-12.481938	-4.121591	1.369062	-10.849860	11.750200	-2.517900	0.963132	-0.157775	0.230102	-1.000000	-1.000000	-1.000000	-1.000000	-1.000000	-1.000000	-1.000000	83.586207	0.000000	-1.000000	-1.000000	896661.000000	1770063289.303475
7748.595000	13757.355000	21521.475000	16368.435000	-10120.230000	-7205.130000	1013.940000	12740.490000	9.015267	15.650343	-18.726705	-12.994190	-15.626697	-12.107357	-5.002959	0.569308	-10.849860	11.750200	-2.517900	0.963132	-0.157775	0.230102	-1.000000	-1.000000	-1.000000	-1.000000	-1.000000	-1.000000	-1.000000	83.586207	0.000000	-1.000000	-1.000000	896662.000000	1770063289.303485
7744.185000	13713.165000	21490.110000	16348.770000	-10124.550000	-7201.440000	1014.300000	12737.520000	5.725370	21.458561	-0.614674	-10.616436	-12.255935	-7.898840	-4.226222	0.333904	-10.849860	11.750200	-2.517900	0.963132	-0.157775	0.230102	-1.000000	-1.000000	-1.000000	-1.000000	-1.000000	-1.000000	-1.000000	83.586207	0.000000	-1.000000	-1.000000	896663.000000	1770063289.310419
7757.010000	13708.485000	21482.685000	16336.170000	-10138.230000	-7211.205000	1005.030000	12746.160000	1.059224	18.224121	17.338082	-3.536883	-4.801324	-0.898879	-1.024618	0.772900	-10.849860	11.750200	-2.517900	0.963132	-0.157775	0.230102	-1.000000	-1.000000	-1.000000	-1.000000	-1.000000	-1.000000	-1.000000	83.586207	0.000000	-1.000000	-1.000000	896664.000000	1770063289.310429
7753.815000	13701.195000	21481.605000	16341.480000	-10125.855000	-7195.995000	1015.065000	12743.235000	-3.295063	3.241608	22.756836	1.375552	1.860290	5.571982	3.234251	1.507080	-10.849860	11.750200	-2.517900	0.963132	-0.157775	0.230102	-1.000000	-1.000000	-1.000000	-1.000000	-1.000000	-1.000000	-1.000000	83.586207	0.000000	-1.000000	-1.000000	896665.000000	1770063289.310440
7742.160000	13700.520000	21492.360000	16352.820000	-10116.630000	-7195.185000	1014.165000	12731.220000	-6.200881	-16.849788	14.834909	2.287240	5.079086	8.927529	6.355170	1.315216	-10.849860	11.750200	-2.517900	0.963132	-0.157775	0.230102	-1.000000	-1.000000	-1.000000	-1.000000	-1.000000	-1.000000	-1.000000	83.586207	0.000000	-1.000000	-1.000000	896666.000000	1770063289.310445
7737.120000	13698.585000	21493.170000	16349.400000	-10121.445000	-7198.380000	1011.150000	12729.330000	-8.174678	-31.247024	2.786176	3.111473	6.311301	9.084749	6.750090	-0.948903	-10.849860	11.750200	-2.517900	0.963132	-0.157775	0.230102	-1.000000	-1.000000	-1.000000	-1.000000	-1.000000	-1.000000	-1.000000	83.586207	0.000000	-1.000000	-1.000000	896667.000000	1770063289.317629
7756.560000	13722.795000	21516.615000	16363.845000	-10120.005000	-7202.925000	1006.245000	12735.270000	-9.632870	-32.336654	-3.851473	7.352211	7.872393	7.344441	4.238226	-4.286162	-10.849860	11.750200	-2.517900	0.963132	-0.157775	0.230102	-1.000000	-1.000000	-1.000000	-1.000000	-1.000000	-1.000000	-1.000000	83.586207	0.000000	-1.000000	-1.000000	896668.000000	1770063289.317642
7762.680000	13716.450000	21515.265000	16365.915000	-10112.265000	-7191.405000	1014.255000	12739.320000	-9.196413	-21.137241	-3.360300	13.112420	9.764607	5.023443	0.467093	-6.341144	-10.849860	11.750200	-2.517900	0.963132	-0.157775	0.230102	-1.000000	-1.000000	-1.000000	-1.000000	-1.000000	-1.000000	-1.000000	83.586207	0.000000	-1.000000	-1.000000	896669.000000	1770063289.317832
7759.575000	13719.780000	21526.155000	16378.650000	-10095.660000	-7178.670000	1014.615000	12737.655000	-5.265990	-5.519603	-1.276891	14.638204	10.021313	2.927295	-2.204472	-5.830773	-10.849860	11.750200	-2.517900	0.963132	-0.157775	0.230102	-1.000000	-1.000000	-1.000000	-1.000000	-1.000000	-1.000000	-1.000000	83.586207	0.000000	-1.000000	-1.000000	896670.000000	1770063289.317838
7771.545000	13720.950000	21537.945000	16376.535000	-10109.475000	-7192.440000	1012.185000	12748.005000	1.928252	7.803105	-2.147732	8.666294	7.056795	1.001910	-2.753024	-2.867173	-4.471180	9.903740	0.000000	0.954587	-0.181335	0.214843	-1.000000	-1.000000	-1.000000	-1.000000	-1.000000	-1.000000	-1.000000	83.586207	0.000000	-1.000000	-1.000000	896671.000000	1770063289.325692
7722.720000	13639.140000	21513.150000	16362.180000	-10149.570000	-7191.630000	1026.495000	12737.925000	9.206472	16.374532	-4.704460	-2.129700	0.523718	-1.592726	-1.704863	1.584062	-4.471180	9.903740	0.000000	0.954587	-0.181335	0.214843	-1.000000	-1.000000	-1.000000	-1.000000	-1.000000	-1.000000	-1.000000	83.586207	0.000000	-1.000000	-1.000000	896672.000000	1770063289.325701
7691.760000	13593.510000	21548.520000	16378.830000	-10220.490000	-7214.220000	1026.180000	12732.210000	11.130342	17.493444	-5.883933	-12.081813	-9.264581	-5.202401	0.156262	5.409138	-4.471180	9.903740	0.000000	0.954587	-0.181335	0.214843	-1.000000	-1.000000	-1.000000	-1.000000	-1.000000	-1.000000	-1.000000	83.586207	0.000000	-1.000000	-1.000000	896673.000000	1770063289.325711
7615.170000	13496.310000	21545.280000	16403.175000	-10222.290000	-7215.345000	1025.415000	12715.290000	4.561742	8.587460	-4.447960	-16.320091	-20.097048	-9.009994	1.677277	6.283534	-4.471180	9.903740	0.000000	0.954587	-0.181335	0.214843	-1.000000	-1.000000	-1.000000	-1.000000	-1.000000	-1.000000	-1.000000	83.586207	0.000000	-1.000000	-1.000000	896674.000000	1770063289.325716
7524.135000	13506.705000	21600.675000	16475.715000	-10159.380000	-7209.270000	1013.490000	12691.395000	-8.469835	-6.619148	-0.405053	-11.947825	-25.051828	-10.972746	1.325626	3.532472	-4.471180	9.903740	0.000000	0.954587	-0.181335	0.214843	-1.000000	-1.000000	-1.000000	-1.000000	-1.000000	-1.000000	-1.000000	83.586207	0.000000	-1.000000	-1.000000	896675.000000	1770063289.329685
7625.655000	13553.505000	21562.875000	16432.740000	-10079.415000	-7172.010000	1018.260000	12721.635000	-20.255766	-16.912919	4.847238	-0.284187	-15.348879	-8.098322	-1.049910	-0.934654	-4.471180	9.903740	0.000000	0.954587	-0.181335	0.214843	-1.000000	-1.000000	-1.000000	-1.000000	-1.000000	-1.000000	-1.000000	83.586207	0.000000	-1.000000	-1.000000	896676.000000	1770063289.329696
7708.590000	13604.580000	21429.630000	16327.665000	-10086.165000	-7184.790000	992.385000	12724.965000	-18.706754	-12.202626	5.537801	9.386182	8.717460	0.349097	-3.911843	-3.547943	-4.471180	9.903740	0.000000	0.954587	-0.181335	0.214843	-1.000000	-1.000000	-1.000000	-1.000000	-1.000000	-1.000000	-1.000000	83.586207	0.000000	-1.000000	-1.000000	896677.000000	1770063289.334894
7795.530000	13757.175000	21383.685000	16215.705000	-10152.720000	-7237.980000	962.235000	12746.970000	2.248378	8.050941	-5.085537	4.846931	31.902542	9.031880	-6.240111	-2.230769	-4.471180	9.903740	0.000000	0.954587	-0.181335	0.214843	-1.000000	-1.000000	-1.000000	-1.000000	-1.000000	-1.000000	-1.000000	83.586207	0.000000	-1.000000	-1.000000	896678.000000	1770063289.334904
7839.315000	13862.565000	21458.565000	16266.510000	-10120.230000	-7219.035000	977.625000	12766.005000	33.324535	35.937694	-21.945012	-13.860581	36.534499	10.704297	-7.528258	2.115620	-4.471180	9.903740	0.000000	0.954587	-0.181335	0.214843	-1.000000	-1.000000	-1.000000	-1.000000	-1.000000	-1.000000	-1.000000	83.586207	0.000000	-1.000000	-1.000000	896679.000000	1770063289.338459
7802.010000	13771.755000	21456.630000	16308.180000	-10079.370000	-7169.445000	1022.085000	12762.765000	54.706403	56.731746	-28.137620	-29.175571	21.314532	5.818302	-5.522503	6.722517	-4.471180	9.903740	0.000000	0.954587	-0.181335	0.214843	-1.000000	-1.000000	-1.000000	-1.000000	-1.000000	-1.000000	-1.000000	83.586207	0.000000	-1.000000	-1.000000	896680.000000	1770063289.338469
7774.830000	13761.630000	21489.435000	16327.800000	-10096.650000	-7202.205000	994.005000	12722.715000	50.080168	53.596356	-13.771456	-23.368201	0.545176	1.178063	1.162024	7.865080	-8.728720	11.521300	-8.118320	0.965207	-0.209289	0.205200	-1.000000	-1.000000	-1.000000	-1.000000	-1.000000	-1.000000	-1.000000	83.586207	0.000000	-1.000000	-1.000000	896681.000000	1770063289.342294
7766.145000	13737.285000	21505.095000	16337.520000	-10113.930000	-7216.065000	992.475000	12724.785000	19.640147	22.771629	13.467339	2.288369	-12.960791	-0.313642	8.751268	3.328556	-8.728720	11.521300	-8.118320	0.965207	-0.209289	0.205200	-1.000000	-1.000000	-1.000000	-1.000000	-1.000000	-1.000000	-1.000000	83.586207	0.000000	-1.000000	-1.000000	896682.000000	1770063289.342304
7715.610000	13634.280000	21447.810000	16321.320000	-10095.750000	-7166.700000	1028.610000	12729.195000	-19.670709	-21.687960	35.768177	29.637957	-16.986259	-0.268242	12.359446	-4.145915	-8.728720	11.521300	-8.118320	0.965207	-0.209289	0.205200	-1.000000	-1.000000	-1.000000	-1.000000	-1.000000	-1.000000	-1.000000	83.586207	0.000000	-1.000000	-1.000000	896683.000000	1770063289.346041
7719.435000	13654.485000	21445.335000	16321.410000	-10103.670000	-7178.580000	1019.835000	12728.880000	-48.006016	-60.510984	38.447434	40.460695	-16.375445	0.399015	11.433460	-8.920433	-8.728720	11.521300	-8.118320	0.965207	-0.209289	0.205200	-1.000000	-1.000000	-1.000000	-1.000000	-1.000000	-1.000000	-1.000000	83.586207	0.000000	-1.000000	-1.000000	896684.000000	1770063289.346052
7717.635000	13707.630000	21487.095000	16341.030000	-10107.090000	-7191.270000	1010.160000	12734.100000	-56.521046	-78.120459	22.485739	31.382073	-16.272441	0.401881	7.399763	-8.602091	-8.728720	11.521300	-8.118320	0.965207	-0.209289	0.205200	-1.000000	-1.000000	-1.000000	-1.000000	-1.000000	-1.000000	-1.000000	83.586207	0.000000	-1.000000	-1.000000	896685.000000	1770063289.353178
7700.535000	13700.070000	21510.945000	16363.485000	-10092.195000	-7177.050000	1016.280000	12725.685000	-49.107323	-67.869415	4.255673	14.757920	-16.258188	-1.442329	1.625550	-5.307242	-8.728720	11.521300	-8.118320	0.965207	-0.209289	0.205200	-1.000000	-1.000000	-1.000000	-1.000000	-1.000000	-1.000000	-1.000000	83.586207	0.000000	-1.000000	-1.000000	896686.000000	1770063289.353189
7672.095000	13706.280000	21537.450000	16380.810000	-10090.080000	-7179.930000	1010.205000	12711.870000	-34.125715	-38.189248	-3.010573	4.029979	-11.134656	-3.022721	-3.570168	-2.385019	-8.728720	11.521300	-8.118320	0.965207	-0.209289	0.205200	-1.000000	-1.000000	-1.000000	-1.000000	-1.000000	-1.000000	-1.000000	83.586207	0.000000	-1.000000	-1.000000	896687.000000	1770063289.358568
7680.420000	13707.495000	21536.460000	16375.770000	-10104.345000	-7193.790000	1000.935000	12706.470000	-16.482742	-5.025395	-2.147129	0.051286	-0.070578	-2.793488	-7.047352	-1.692424	-8.728720	11.521300	-8.118320	0.965207	-0.209289	0.205200	-1.000000	-1.000000	-1.000000	-1.000000	-1.000000	-1.000000	-1.000000	83.586207	0.000000	-1.000000	-1.000000	896688.000000	1770063289.358578
7706.700000	13685.580000	21502.035000	16343.190000	-10115.820000	-7196.355000	1003.545000	12719.205000	4.348351	22.806766	-3.760277	-5.876045	10.363812	-2.891232	-9.752306	-1.791295	-8.728720	11.521300	-8.118320	0.965207	-0.209289	0.205200	-1.000000	-1.000000	-1.000000	-1.000000	-1.000000	-1.000000	-1.000000	83.586207	0.000000	-1.000000	-1.000000	896689.000000	1770063289.358589
7722.495000	13660.965000	21472.065000	16321.950000	-10121.850000	-7183.260000	1009.170000	12726.180000	28.746737	42.915988	-13.304610	-18.687424	14.771442	-3.856266	-11.060960	0.872882	-8.728720	11.521300	-8.118320	0.965207	-0.209289	0.205200	-1.000000	-1.000000	-1.000000	-1.000000	-1.000000	-1.000000	-1.000000	83.586207	0.000000	-1.000000	-1.000000	896690.000000	1770063289.358595
7712.235000	13647.960000	21484.980000	16331.895000	-10142.415000	-7195.500000	1002.645000	12721.905000	50.428913	52.415176	-26.482580	-32.934362	13.417189	-3.193083	-8.894375	6.963040	12.070660	14.023940	-4.379620	0.971982	-0.218688	0.208496	-1.000000	-1.000000	-1.000000	-1.000000	-1.000000	-1.000000	-1.000000	83.586207	0.000000	-1.000000	-1.000000	896691.000000	1770063289.365317
7667.595000	13597.200000	21498.615000	16371.990000	-10118.250000	-7176.870000	1013.580000	12713.850000	58.790709	49.126037	-32.170859	-37.509963	8.436295	-0.650196	-3.717945	12.304585	12.070660	14.023940	-4.379620	0.971982	-0.218688	0.208496	-1.000000	-1.000000	-1.000000	-1.000000	-1.000000	-1.000000	-1.000000	83.586207	0.000000	-1.000000	-1.000000	896692.000000	1770063289.365328
7621.245000	13515.345000	21509.460000	16399.395000	-10064.520000	-7137.720000	1026.855000	12707.595000	45.953460	31.585542	-22.804922	-25.394793	2.868012	2.426847	2.306624	12.100182	12.070660	14.023940	-4.379620	0.971982	-0.218688	0.208496	-1.000000	-1.000000	-1.000000	-1.000000	-1.000000	-1.000000	-1.000000	83.586207	0.000000	-1.000000	-1.000000	896693.000000	1770063289.367079
7576.245000	13422.195000	21529.845000	16396.965000	-10040.580000	-7128.315000	1023.930000	12699.270000	12.894971	-0.268011	-1.995636	-0.471455	0.814071	6.251744	7.802286	5.378459	12.070660	14.023940	-4.379620	0.971982	-0.218688	0.208496	-1.000000	-1.000000	-1.000000	-1.000000	-1.000000	-1.000000	-1.000000	83.586207	0.000000	-1.000000	-1.000000	896694.000000	1770063289.367090
7497.765000	13373.010000	21477.645000	16360.920000	-10096.695000	-7157.835000	1000.665000	12656.790000	-27.908423	-37.953734	18.509841	23.926628	2.422040	9.558411	10.937231	-4.811045	12.070660	14.023940	-4.379620	0.971982	-0.218688	0.208496	-1.000000	-1.000000	-1.000000	-1.000000	-1.000000	-1.000000	-1.000000	83.586207	0.000000	-1.000000	-1.000000	896695.000000	1770063289.373154
7488.630000	13497.165000	21517.920000	16360.335000	-10159.515000	-7150.680000	1003.725000	12643.605000	-58.012038	-62.003315	27.143129	34.064250	1.617169	8.741293	9.559365	-13.965168	12.070660	14.023940	-4.379620	0.971982	-0.218688	0.208496	-1.000000	-1.000000	-1.000000	-1.000000	-1.000000	-1.000000	-1.000000	83.586207	0.000000	-1.000000	-1.000000	896696.000000	1770063289.373164
7538.805000	13558.095000	21529.665000	16374.060000	-10160.640000	-7138.935000	1010.475000	12657.195000	-62.229269	-52.368872	21.845928	26.272511	-6.022991	2.978814	4.090124	-17.668745	12.070660	14.023940	-4.379620	0.971982	-0.218688	0.208496	-1.000000	-1.000000	-1.000000	-1.000000	-1.000000	-1.000000	-1.000000	83.586207	0.000000	-1.000000	-1.000000	896697.000000	1770063289.373888
7586.010000	13406.310000	21351.465000	16289.955000	-10216.755000	-7148.205000	1031.220000	12694.230000	-36.583393	-10.051751	8.231016	7.927804	-16.302743	-4.250927	-1.938485	-12.656725	12.070660	14.023940	-4.379620	0.971982	-0.218688	0.208496	-1.000000	-1.000000	-1.000000	-1.000000	-1.000000	-1.000000	-1.000000	83.586207	0.000000	-1.000000	-1.000000	896698.000000	1770063289.373899
7728.030000	13489.695000	21266.145000	16182.810000	-10307.205000	-7240.815000	1000.935000	12745.440000	8.814325	37.801326	-10.506337	-12.431262	-22.267569	-10.334372	-5.252627	0.821984	12.070660	14.023940	-4.379620	0.971982	-0.218688	0.208496	-1.000000	-1.000000	-1.000000	-1.000000	-1.000000	-1.000000	-1.000000	83.586207	0.000000	-1.000000	-1.000000	896699.000000	1770063289.383768
7870.410000	13817.475000	21482.820000	16289.190000	-10236.420000	-7245.270000	976.635000	12767.985000	56.705889	69.243943	-26.779603	-27.945169	-20.368768	-15.786177	-6.268160	17.574410	12.070660	14.023940	-4.379620	0.971982	-0.218688	0.208496	-1.000000	-1.000000	-1.000000	-1.000000	-1.000000	-1.000000	-1.000000	83.586207	0.000000	-1.000000	-1.000000	896700.000000	1770063289.383782
7852.230000	13877.460000	21548.835000	16345.485000	-10148.220000	-7168.140000	994.320000	12744.900000	88.468411	84.613078	-23.370143	-29.051888	-8.135401	-18.388327	-6.976119	28.627356	-9.751140	0.778260	-7.416360	0.949644	-0.194213	0.236205	-1.000000	-1.000000	-1.000000	-1.000000	-1.000000	-1.000000	-1.000000	83.586207	0.000000	-1.000000	-1.000000	896701.000000	1770063289.383977
7767.765000	13806.135000	21483.180000	16320.060000	-10169.280000	-7176.555000	985.995000	12721.635000	85.368579	82.188786	3.291808	-11.859750	12.414240	-12.667487	-6.851578	25.832799	-9.751140	0.778260	-7.416360	0.949644	-0.194213	0.236205	-1.000000	-1.000000	-1.000000	-1.000000	-1.000000	-1.000000	-1.000000	83.586207	0.000000	-1.000000	-1.000000	896702.000000	1770063289.383987
7760.835000	13789.710000	21504.645000	16325.820000	-10146.780000	-7155.855000	997.245000	12735.765000	41.265609	50.397118	32.131888	13.341229	30.709742	1.481196	-3.976450	9.199796	-9.751140	0.778260	-7.416360	0.949644	-0.194213	0.236205	-1.000000	-1.000000	-1.000000	-1.000000	-1.000000	-1.000000	-1.000000	83.586207	0.000000	-1.000000	-1.000000	896703.000000	1770063289.385927
7748.370000	13685.130000	21493.035000	16326.990000	-10062.450000	-7096.365000	1019.790000	12735.630000	-24.298138	-10.881984	41.536779	31.602062	38.372790	18.089009	2.263443	-11.133380	-9.751140	0.778260	-7.416360	0.949644	-0.194213	0.236205	-1.000000	-1.000000	-1.000000	-1.000000	-1.000000	-1.000000	-1.000000	83.586207	0.000000	-1.000000	-1.000000	896704.000000	1770063289.385934
7755.885000	13678.380000	21486.105000	16334.055000	-10095.705000	-7127.865000	1004.670000	12728.610000	-78.237623	-82.748212	26.957720	34.499576	35.883323	29.920957	9.693386	-23.691383	-9.751140	0.778260	-7.416360	0.949644	-0.194213	0.236205	-1.000000	-1.000000	-1.000000	-1.000000	-1.000000	-1.000000	-1.000000	83.586207	0.000000	-1.000000	-1.000000	896705.000000	1770063289.389808
7740.900000	13688.055000	21449.115000	16303.545000	-10128.870000	-7141.095000	992.655000	12726.045000	-98.336947	-133.627792	-1.433024	22.277843	24.064977	29.639797	13.164219	-24.888342	-9.751140	0.778260	-7.416360	0.949644	-0.194213	0.236205	-1.000000	-1.000000	-1.000000	-1.000000	-1.000000	-1.000000	-1.000000	83.586207	0.000000	-1.000000	-1.000000	896706.000000	1770063289.389819
7765.470000	13744.080000	21449.970000	16295.355000	-10137.195000	-7148.520000	981.675000	12727.980000	-83.196174	-132.825845	-24.918496	3.194148	3.649888	15.555892	9.003200	-18.651797	-9.751140	0.778260	-7.416360	0.949644	-0.194213	0.236205	-1.000000	-1.000000	-1.000000	-1.000000	-1.000000	-1.000000	-1.000000	83.586207	0.000000	-1.000000	-1.000000	896707.000000	1770063289.398032
7773.210000	13746.195000	21455.460000	16302.285000	-10120.365000	-7139.970000	982.530000	12727.305000	-46.811847	-77.421432	-29.810353	-11.669327	-17.964708	-3.592877	-0.168649	-10.684630	-9.751140	0.778260	-7.416360	0.949644	-0.194213	0.236205	-1.000000	-1.000000	-1.000000	-1.000000	-1.000000	-1.000000	-1.000000	83.586207	0.000000	-1.000000	-1.000000	896708.000000	1770063289.398051
7734.285000	13698.135000	21460.005000	16315.020000	-10102.635000	-7124.265000	986.670000	12721.545000	-7.925168	-2.972002	-21.156410	-18.304797	-32.491593	-16.931506	-7.728154	-3.990880	-9.751140	0.778260	-7.416360	0.949644	-0.194213	0.236205	-1.000000	-1.000000	-1.000000	-1.000000	-1.000000	-1.000000	-1.000000	83.586207	0.000000	-1.000000	-1.000000	896709.000000	1770063289.398183
7718.670000	13658.445000	21473.280000	16321.500000	-10107.315000	-7128.405000	984.420000	12714.210000	21.261136	48.319833	-12.909220	-20.287403	-38.278469	-21.557422	-9.594815	1.907087	-9.751140	0.778260	-7.416360	0.949644	-0.194213	0.236205	-1.000000	-1.000000	-1.000000	-1.000000	-1.000000	-1.000000	-1.000000	83.586207	0.000000	-1.000000	-1.000000	896710.000000	1770063289.398194
7701.570000	13614.525000	21458.925000	16316.460000	-10114.470000	-7128.990000	992.520000	12714.390000	39.514660	63.525785	-8.658899	-19.387221	-36.311514	-20.433197	-6.441721	8.139287	-20.097420	-5.463080	-8.515080	0.942075	-0.146484	0.251891	-1.000000	-1.000000	-1.000000	-1.000000	-1.000000	-1.000000	-1.000000	83.586207	0.000000	-1.000000	-1.000000	896711.000000	1770063289.401760
7636.320000	13537.710000	21481.605000	16371.990000	-10141.830000	-7126.245000	1009.305000	12708.585000	48.644523	55.099978	-3.327830	-13.186892	-27.046711	-15.971480	-0.980652	13.679950	-20.097420	-5.463080	-8.515080	0.942075	-0.146484	0.251891	-1.000000	-1.000000	-1.000000	-1.000000	-1.000000	-1.000000	-1.000000	83.586207	0.000000	-1.000000	-1.000000	896712.000000	1770063289.401768
7558.470000	13416.660000	21494.520000	16390.260000	-10201.770000	-7119.990000	1027.980000	12693.735000	45.868597	37.046771	5.401467	-0.803377	-13.763684	-9.441076	4.239784	15.859755	-20.097420	-5.463080	-8.515080	0.942075	-0.146484	0.251891	-1.000000	-1.000000	-1.000000	-1.000000	-1.000000	-1.000000	-1.000000	83.586207	0.000000	-1.000000	-1.000000	896713.000000	1770063289.405737
7499.970000	13336.335000	21581.955000	16443.180000	-10230.120000	-7130.340000	1010.565000	12663.270000	28.482161	15.558584	16.061577	13.851286	-1.112551	-1.803720	7.223690	12.642711	-20.097420	-5.463080	-8.515080	0.942075	-0.146484	0.251891	-1.000000	-1.000000	-1.000000	-1.000000	-1.000000	-1.000000	-1.000000	83.586207	0.000000	-1.000000	-1.000000	896714.000000	1770063289.405747
7513.020000	13301.325000	21596.850000	16487.820000	-10210.230000	-7119.855000	1019.385000	12681.495000	2.377585	-4.634361	27.106687	25.468842	10.480022	6.355341	6.762264	4.654057	-20.097420	-5.463080	-8.515080	0.942075	-0.146484	0.251891	-1.000000	-1.000000	-1.000000	-1.000000	-1.000000	-1.000000	-1.000000	83.586207	0.000000	-1.000000	-1.000000	896715.000000	1770063289.409788
7623.810000	13468.770000	21421.755000	16329.555000	-10244.160000	-7159.590000	999.405000	12709.080000	-18.008861	-14.184737	32.243952	28.249661	22.471116	13.417225	3.179184	-3.848013	-20.097420	-5.463080	-8.515080	0.942075	-0.146484	0.251891	-1.000000	-1.000000	-1.000000	-1.000000	-1.000000	-1.000000	-1.000000	83.586207	0.000000	-1.000000	-1.000000	896716.000000	1770063289.409799
7767.090000	13741.065000	21435.030000	16208.145000	-10203.120000	-7152.030000	966.870000	12711.825000	-18.545103	-2.212505	19.412069	13.227873	31.648440	16.095465	-2.256299	-7.763936	-20.097420	-5.463080	-8.515080	0.942075	-0.146484	0.251891	-1.000000	-1.000000	-1.000000	-1.000000	-1.000000	-1.000000	-1.000000	83.586207	0.000000	-1.000000	-1.000000	896717.000000	1770063289.415854
7758.990000	13707.945000	21425.310000	16175.700000	-10184.130000	-7100.235000	1008.990000	12726.945000	2.761113	30.571811	-11.692909	-20.772121	32.443437	12.821403	-7.620178	-5.457264	-20.097420	-5.463080	-8.515080	0.942075	-0.146484	0.251891	-1.000000	-1.000000	-1.000000	-1.000000	-1.000000	-1.000000	-1.000000	83.586207	0.000000	-1.000000	-1.000000	896718.000000	1770063289.415867
7736.220000	13764.825000	21472.920000	16220.970000	-10166.040000	-7095.330000	1000.080000	12709.755000	30.005653	62.847848	-41.384252	-54.328270	23.980693	6.658096	-9.584751	0.449033	-20.097420	-5.463080	-8.515080	0.942075	-0.146484	0.251891	-1.000000	-1.000000	-1.000000	-1.000000	-1.000000	-1.000000	-1.000000	83.586207	0.000000	-1.000000	-1.000000	896719.000000	1770063289.423407
7706.340000	13737.060000	21526.380000	16311.780000	-10166.940000	-7091.955000	1005.435000	12700.260000	40.895533	68.526245	-47.620336	-59.962644	10.647319	1.574614	-6.526242	5.012620	-20.097420	-5.463080	-8.515080	0.942075	-0.146484	0.251891	-1.000000	-1.000000	-1.000000	-1.000000	-1.000000	-1.000000	-1.000000	83.586207	0.000000	-1.000000	-1.000000	896720.000000	1770063289.423416
7714.395000	13698.990000	21566.655000	16398.045000	-10194.390000	-7131.195000	1001.745000	12717.135000	26.741645	39.474589	-25.259235	-27.698585	-2.460448	-2.387715	-1.162822	4.968759	-47.306000	-14.954800	-3.326680	0.946836	-0.130981	0.262878	-1.000000	-1.000000	-1.000000	-1.000000	-1.000000	-1.000000	-1.000000	83.586207	0.000000	-1.000000	-1.000000	896721.000000	1770063289.423654
7761.195000	13661.685000	21427.785000	16283.115000	-10227.375000	-7190.190000	993.105000	12750.660000	-1.383506	-11.022319	8.718919	23.531131	-12.167359	-7.891844	2.630744	2.221299	-47.306000	-14.954800	-3.326680	0.946836	-0.130981	0.262878	-1.000000	-1.000000	-1.000000	-1.000000	-1.000000	-1.000000	-1.000000	83.586207	0.000000	-1.000000	-1.000000	896722.000000	1770063289.423664
7787.385000	13711.185000	21426.480000	16255.440000	-10148.355000	-7160.580000	997.740000	12760.650000	-24.872254	-58.139912	28.100657	58.743650	-15.851760	-14.568928	3.631447	0.977623	-47.306000	-14.954800	-3.326680	0.946836	-0.130981	0.262878	-1.000000	-1.000000	-1.000000	-1.000000	-1.000000	-1.000000	-1.000000	83.586207	0.000000	-1.000000	-1.000000	896723.000000	1770063289.425690
7731.900000	13689.945000	21510.135000	16311.510000	-10126.305000	-7123.455000	1003.365000	12730.275000	-35.311882	-81.343340	24.584179	58.322713	-11.235237	-16.175301	3.370879	1.069203	-47.306000	-14.954800	-3.326680	0.946836	-0.130981	0.262878	-1.000000	-1.000000	-1.000000	-1.000000	-1.000000	-1.000000	-1.000000	83.586207	0.000000	-1.000000	-1.000000	896724.000000	1770063289.425699
7661.970000	13605.615000	21524.220000	16295.760000	-10240.785000	-7133.895000	1013.175000	12713.175000	-40.144066	-80.944849	14.675062	34.488224	-2.438519	-7.302697	4.020333	-2.070046	-47.306000	-14.954800	-3.326680	0.946836	-0.130981	0.262878	-1.000000	-1.000000	-1.000000	-1.000000	-1.000000	-1.000000	-1.000000	83.586207	0.000000	-1.000000	-1.000000	896725.000000	1770063289.429823
7570.485000	13418.145000	21357.630000	16181.775000	-10325.385000	-7159.770000	1012.455000	12687.435000	-48.859678	-74.628787	10.423578	9.294653	-1.847858	7.235370	6.047408	-9.981051	-47.306000	-14.954800	-3.326680	0.946836	-0.130981	0.262878	-1.000000	-1.000000	-1.000000	-1.000000	-1.000000	-1.000000	-1.000000	83.586207	0.000000	-1.000000	-1.000000	896726.000000	1770063289.429834
7562.655000	13354.020000	21407.175000	16306.920000	-10301.265000	-7190.370000	992.295000	12666.735000	-56.305690	-70.730249	4.696755	-7.988892	-15.299754	15.179564	6.688139	-18.083748	-47.306000	-14.954800	-3.326680	0.946836	-0.130981	0.262878	-1.000000	-1.000000	-1.000000	-1.000000	-1.000000	-1.000000	-1.000000	83.586207	0.000000	-1.000000	-1.000000	896727.000000	1770063289.433789
7674.345000	13554.675000	21473.820000	16335.495000	-10216.440000	-7173.900000	984.195000	12693.195000	-44.494181	-53.242158	-6.725904	-16.177517	-29.612859	10.441266	2.750471	-19.548629	-47.306000	-14.954800	-3.326680	0.946836	-0.130981	0.262878	-1.000000	-1.000000	-1.000000	-1.000000	-1.000000	-1.000000	-1.000000	83.586207	0.000000	-1.000000	-1.000000	896728.000000	1770063289.433802
7780.590000	13793.625000	21465.630000	16346.745000	-10146.420000	-7150.095000	981.900000	12727.890000	-1.894133	0.628634	-15.929164	-17.799718	-25.062011	-0.405442	-4.736711	-10.134886	-47.306000	-14.954800	-3.326680	0.946836	-0.130981	0.262878	-1.000000	-1.000000	-1.000000	-1.000000	-1.000000	-1.000000	-1.000000	83.586207	0.000000	-1.000000	-1.000000	896729.000000	1770063289.437622
7782.120000	13758.435000	21432.240000	16324.695000	-10105.155000	-7114.095000	1005.120000	12750.075000	58.443528	86.416865	-16.967431	-18.916038	3.355126	-5.573882	-10.779732	7.533855	-47.306000	-14.954800	-3.326680	0.946836	-0.130981	0.262878	-1.000000	-1.000000	-1.000000	-1.000000	-1.000000	-1.000000	-1.000000	83.586207	0.000000	-1.000000	-1.000000	896730.000000	1770063289.437630
7773.030000	13754.385000	21469.950000	16239.735000	-10169.550000	-7166.790000	991.485000	12746.610000	102.228387	159.733264	-9.586496	-21.421788	39.087386	-0.163699	-10.825797	23.835101	-17.793160	-14.023940	2.014320	0.961790	-0.151367	0.262878	-1.000000	-1.000000	-1.000000	-1.000000	-1.000000	-1.000000	-1.000000	83.586207	0.000000	-1.000000	-1.000000	896731.000000	1770063289.441793
7743.780000	13706.910000	21440.700000	16184.250000	-10175.130000	-7182.945000	973.620000	12721.995000	100.625778	169.807446	3.186730	-23.010886	55.450964	8.288084	-5.270987	28.702173	-17.793160	-14.023940	2.014320	0.961790	-0.151367	0.262878	-1.000000	-1.000000	-1.000000	-1.000000	-1.000000	-1.000000	-1.000000	83.586207	0.000000	-1.000000	-1.000000	896732.000000	1770063289.441805
7747.245000	13726.035000	21461.760000	16222.815000	-10141.155000	-7178.670000	964.800000	12715.245000	53.749578	103.867551	13.611558	-21.061268	40.032610	9.129976	1.110178	19.311638	-17.793160	-14.023940	2.014320	0.961790	-0.151367	0.262878	-1.000000	-1.000000	-1.000000	-1.000000	-1.000000	-1.000000	-1.000000	83.586207	0.000000	-1.000000	-1.000000	896733.000000	1770063289.449862
7742.025000	13719.780000	21483.405000	16263.900000	-10174.770000	-7200.855000	961.515000	12716.955000	-11.207210	-3.488045	16.269668	-10.007450	6.621156	1.153002	4.529708	2.102148	-17.793160	-14.023940	2.014320	0.961790	-0.151367	0.262878	-1.000000	-1.000000	-1.000000	-1.000000	-1.000000	-1.000000	-1.000000	83.586207	0.000000	-1.000000	-1.000000	896734.000000	1770063289.449874
7681.770000	13598.730000	21428.955000	16302.330000	-10158.345000	-7166.250000	985.635000	12718.620000	-61.176718	-97.001330	13.616235	13.291519	-21.955966	-8.316981	5.053817	-12.428364	-17.793160	-14.023940	2.014320	0.961790	-0.151367	0.262878	-1.000000	-1.000000	-1.000000	-1.000000	-1.000000	-1.000000	-1.000000	83.586207	0.000000	-1.000000	-1.000000	896735.000000	1770063289.449885
7647.795000	13560.480000	21445.110000	16343.865000	-10165.815000	-7174.440000	980.100000	12699.855000	-78.822058	-139.425867	7.640140	38.455524	-34.465069	-11.667675	5.010970	-17.638215	-17.793160	-14.023940	2.014320	0.961790	-0.151367	0.262878	-1.000000	-1.000000	-1.000000	-1.000000	-1.000000	-1.000000	-1.000000	83.586207	0.000000	-1.000000	-1.000000	896736.000000	1770063289.449890
7631.370000	13539.510000	21446.280000	16336.080000	-10228.590000	-7186.725000	988.605000	12700.305000	-68.259495	-130.125443	-3.322050	47.223528	-34.711057	-7.693332	5.704322	-14.584062	-17.793160	-14.023940	2.014320	0.961790	-0.151367	0.262878	-1.000000	-1.000000	-1.000000	-1.000000	-1.000000	-1.000000	-1.000000	83.586207	0.000000	-1.000000	-1.000000	896737.000000	1770063289.453698
7662.465000	13556.655000	21456.945000	16328.880000	-10296.405000	-7219.845000	977.535000	12713.310000	-43.048603	-89.792486	-16.243954	31.297318	-32.383512	-2.117992	5.806424	-8.593425	-17.793160	-14.023940	2.014320	0.961790	-0.151367	0.262878	-1.000000	-1.000000	-1.000000	-1.000000	-1.000000	-1.000000	-1.000000	83.586207	0.000000	-1.000000	-1.000000	896738.000000	1770063289.453709
7686.045000	13519.800000	21531.735000	16347.960000	-10299.150000	-7239.330000	970.695000	12731.670000	-12.736265	-36.230030	-21.346060	0.905016	-30.264214	-0.297036	3.197183	-3.270528	-17.793160	-14.023940	2.014320	0.961790	-0.151367	0.262878	-1.000000	-1.000000	-1.000000	-1.000000	-1.000000	-1.000000	-1.000000	83.586207	0.000000	-1.000000	-1.000000	896739.000000	1770063289.458738
7643.880000	13430.295000	21564.990000	16377.840000	-10203.525000	-7203.195000	991.665000	12725.055000	16.972000	18.247656	-11.739450	-22.926579	-20.285421	-0.822218	-1.543998	1.116886	-17.793160	-14.023940	2.014320	0.961790	-0.151367	0.262878	-1.000000	-1.000000	-1.000000	-1.000000	-1.000000	-1.000000	-1.000000	83.586207	0.000000	-1.000000	-1.000000	896740.000000	1770063289.458760
7682.220000	13538.070000	21567.420000	16452.450000	-10204.605000	-7257.420000	960.660000	12720.330000	39.189572	60.966863	7.268991	-25.717502	4.165596	0.662098	-5.174863	5.135751	5.814060	-14.771680	10.163160	0.970334	-0.182495	0.239257	-1.000000	-1.000000	-1.000000	-1.000000	-1.000000	-1.000000	-1.000000	83.586207	0.000000	-1.000000	-1.000000	896741.000000	1770063289.462024
7762.905000	13732.920000	21483.135000	16323.525000	-10271.655000	-7271.145000	974.205000	12745.305000	49.489618	86.286610	20.598949	-12.288900	34.120835	3.672289	-5.823864	8.561935	5.814060	-14.771680	10.163160	0.970334	-0.182495	0.239257	-1.000000	-1.000000	-1.000000	-1.000000	-1.000000	-1.000000	-1.000000	83.586207	0.000000	-1.000000	-1.000000	896742.000000	1770063289.462039
7715.880000	13701.825000	21500.550000	16339.320000	-10235.790000	-7241.265000	987.435000	12724.965000	48.414647	96.614786	17.265036	-1.026739	51.770072	5.223833	-3.982415	10.383603	5.814060	-14.771680	10.163160	0.970334	-0.182495	0.239257	-1.000000	-1.000000	-1.000000	-1.000000	-1.000000	-1.000000	-1.000000	83.586207	0.000000	-1.000000	-1.000000	896743.000000	1770063289.465757
7638.885000	13566.960000	21470.535000	16391.160000	-10254.645000	-7236.855000	993.780000	12700.935000	36.153627	88.783671	1.230939	-2.935959	48.042226	5.372211	-0.918867	8.793291	5.814060	-14.771680	10.163160	0.970334	-0.182495	0.239257	-1.000000	-1.000000	-1.000000	-1.000000	-1.000000	-1.000000	-1.000000	83.586207	0.000000	-1.000000	-1.000000	896744.000000	1770063289.465764
7608.330000	13475.745000	21447.000000	16359.930000	-10282.365000	-7257.105000	985.230000	12684.060000	12.210290	52.654610	-15.866815	-13.027011	26.239738	4.955811	1.697044	2.846222	5.814060	-14.771680	10.163160	0.970334	-0.182495	0.239257	-1.000000	-1.000000	-1.000000	-1.000000	-1.000000	-1.000000	-1.000000	83.586207	0.000000	-1.000000	-1.000000	896745.000000	1770063289.472952
7687.170000	13545.405000	21415.905000	16335.810000	-10330.605000	-7312.635000	974.745000	12714.615000	-16.969906	-9.166586	-26.329160	-21.368700	-3.224141	2.750494	2.265426	-5.121962	5.814060	-14.771680	10.163160	0.970334	-0.182495	0.239257	-1.000000	-1.000000	-1.000000	-1.000000	-1.000000	-1.000000	-1.000000	83.586207	0.000000	-1.000000	-1.000000	896746.000000	1770063289.472962
7746.075000	13686.930000	21366.810000	16231.455000	-10411.785000	-7328.070000	985.230000	12731.985000	-37.018548	-67.916130	-27.545534	-22.702412	-28.106610	-2.171128	0.619912	-10.415739	5.814060	-14.771680	10.163160	0.970334	-0.182495	0.239257	-1.000000	-1.000000	-1.000000	-1.000000	-1.000000	-1.000000	-1.000000	83.586207	0.000000	-1.000000	-1.000000	896747.000000	1770063289.473807
7647.795000	13587.525000	21484.620000	16203.645000	-10601.640000	-7359.210000	1015.605000	12709.935000	-38.695159	-89.603037	-19.334779	-17.280377	-43.056571	-7.713306	-1.041051	-10.323318	5.814060	-14.771680	10.163160	0.970334	-0.182495	0.239257	-1.000000	-1.000000	-1.000000	-1.000000	-1.000000	-1.000000	-1.000000	83.586207	0.000000	-1.000000	-1.000000	896748.000000	1770063289.473817
7525.080000	13433.175000	21569.940000	16192.080000	-10724.490000	-7365.960000	1044.765000	12690.720000	-28.485210	-70.448552	-1.117442	-7.377871	-52.104785	-10.567954	0.151561	-6.399496	5.814060	-14.771680	10.163160	0.970334	-0.182495	0.239257	-1.000000	-1.000000	-1.000000	-1.000000	-1.000000	-1.000000	-1.000000	83.586207	0.000000	-1.000000	-1.000000	896749.000000	1770063289.486462
7487.280000	13240.170000	21569.490000	16343.730000	-10497.375000	-7307.280000	1046.475000	12687.030000	-20.204833	-40.473274	24.596250	7.373809	-52.060441	-7.549731	4.561663	-1.860164	5.814060	-14.771680	10.163160	0.970334	-0.182495	0.239257	-1.000000	-1.000000	-1.000000	-1.000000	-1.000000	-1.000000	-1.000000	83.586207	0.000000	-1.000000	-1.000000	896750.000000	1770063289.486475
7596.585000	13137.975000	21403.935000	16313.445000	-10504.215000	-7402.095000	1028.385000	12724.785000	-16.980473	-29.932396	44.559132	29.049537	-26.625594	1.660568	8.376156	1.877106	32.244380	-8.408260	17.777900	0.979062	-0.181396	0.224670	-1.000000	-1.000000	-1.000000	-1.000000	-1.000000	-1.000000	-1.000000	83.586207	0.000000	-1.000000	-1.000000	896751.000000	1770063289.486488
7702.515000	13513.005000	21480.795000	16256.970000	-10471.815000	-7416.945000	1007.235000	12719.970000	-5.978634	-30.306260	43.030323	49.383210	24.598658	9.475164	6.109499	5.740984	32.244380	-8.408260	17.777900	0.979062	-0.181396	0.224670	-1.000000	-1.000000	-1.000000	-1.000000	-1.000000	-1.000000	-1.000000	83.586207	0.000000	-1.000000	-1.000000	896752.000000	1770063289.486493
7715.205000	13771.755000	21584.835000	16191.045000	-10311.255000	-7246.845000	1028.115000	12711.825000	22.890386	0.532227	22.142401	49.129752	75.936918	10.513603	-2.869320	10.002586	32.244380	-8.408260	17.777900	0.979062	-0.181396	0.224670	-1.000000	-1.000000	-1.000000	-1.000000	-1.000000	-1.000000	-1.000000	83.586207	0.000000	-1.000000	-1.000000	896753.000000	1770063289.486499
7602.120000	13412.790000	21571.380000	16355.520000	-10320.030000	-7340.715000	988.560000	12684.735000	55.174481	70.839180	-0.120701	23.540326	101.927392	10.365696	-12.616525	11.708086	32.244380	-8.408260	17.777900	0.979062	-0.181396	0.224670	-1.000000	-1.000000	-1.000000	-1.000000	-1.000000	-1.000000	-1.000000	83.586207	0.000000	-1.000000	-1.000000	896754.000000	1770063289.486504
7592.895000	13264.110000	21266.460000	16309.485000	-10376.055000	-7398.225000	990.855000	12697.875000	61.144708	120.989342	-16.035115	-6.978864	90.662937	11.240566	-17.008243	7.219793	32.244380	-8.408260	17.777900	0.979062	-0.181396	0.224670	-1.000000	-1.000000	-1.000000	-1.000000	-1.000000	-1.000000	-1.000000	83.586207	0.000000	-1.000000	-1.000000	896755.000000	1770063289.489862
7795.260000	13750.155000	21204.630000	16201.035000	-10311.840000	-7416.495000	983.745000	12747.465000	32.364890	101.249075	-34.619583	-23.185221	46.233947	7.143001	-14.337141	-1.888851	32.244380	-8.408260	17.777900	0.979062	-0.181396	0.224670	-1.000000	-1.000000	-1.000000	-1.000000	-1.000000	-1.000000	-1.000000	83.586207	0.000000	-1.000000	-1.000000	896756.000000	1770063289.489868
7883.910000	13934.835000	21390.750000	16183.170000	-10367.010000	-7365.330000	1014.660000	12779.865000	-3.518319	42.685248	-55.572606	-25.700742	-9.311752	-2.360465	-6.514976	-7.892187	32.244380	-8.408260	17.777900	0.979062	-0.181396	0.224670	-1.000000	-1.000000	-1.000000	-1.000000	-1.000000	-1.000000	-1.000000	83.586207	0.000000	-1.000000	-1.000000	896757.000000	1770063289.493742
7858.305000	13893.030000	21490.605000	16161.705000	-10536.165000	-7365.195000	1019.790000	12763.170000	-16.593720	3.481870	-57.644940	-24.112380	-55.249231	-10.193906	3.212307	-5.426338	32.244380	-8.408260	17.777900	0.979062	-0.181396	0.224670	-1.000000	-1.000000	-1.000000	-1.000000	-1.000000	-1.000000	-1.000000	83.586207	0.000000	-1.000000	-1.000000	896758.000000	1770063289.493749
7768.980000	13825.035000	21506.805000	16210.125000	-10612.980000	-7436.430000	1016.820000	12741.345000	-10.298875	-6.352025	-24.588280	-23.216800	-88.791081	-12.617749	11.656177	1.193270	32.244380	-8.408260	17.777900	0.979062	-0.181396	0.224670	-1.000000	-1.000000	-1.000000	-1.000000	-1.000000	-1.000000	-1.000000	83.586207	0.000000	-1.000000	-1.000000	896759.000000	1770063289.497718
7756.245000	13743.270000	21441.825000	16174.980000	-10550.925000	-7582.815000	992.970000	12740.445000	-10.164843	-15.769574	30.974332	-19.780265	-107.668021	-13.525431	15.829801	3.307329	32.244380	-8.408260	17.777900	0.979062	-0.181396	0.224670	-1.000000	-1.000000	-1.000000	-1.000000	-1.000000	-1.000000	-1.000000	83.586207	0.000000	-1.000000	-1.000000	896760.000000	1770063289.497730
7703.055000	13583.250000	21373.155000	16048.755000	-10352.970000	-7515.315000	994.815000	12710.430000	-28.778175	-51.532088	73.161915	-10.611393	-95.749078	-17.309965	13.967665	-1.819666	34.792800	-23.912420	26.766040	0.998227	-0.177856	0.261718	-1.000000	-1.000000	-1.000000	-1.000000	-1.000000	-1.000000	-1.000000	83.586207	0.000000	-1.000000	-1.000000	896761.000000	1770063289.501698
7641.045000	13528.755000	21331.710000	16057.845000	-10260.495000	-7447.050000	1005.435000	12682.035000	-53.620377	-110.084256	71.076672	-0.322802	-43.487077	-20.060488	7.466027	-9.731511	34.792800	-23.912420	26.766040	0.998227	-0.177856	0.261718	-1.000000	-1.000000	-1.000000	-1.000000	-1.000000	-1.000000	-1.000000	83.586207	0.000000	-1.000000	-1.000000	896762.000000	1770063289.501710
7611.345000	13493.880000	21300.525000	16217.865000	-10262.070000	-7477.830000	1006.875000	12683.295000	-62.630618	-147.837270	28.373300	7.328224	31.428026	-11.962590	0.660935	-14.465766	34.792800	-23.912420	26.766040	0.998227	-0.177856	0.261718	-1.000000	-1.000000	-1.000000	-1.000000	-1.000000	-1.000000	-1.000000	83.586207	0.000000	-1.000000	-1.000000	896763.000000	1770063289.505707
7621.065000	13466.160000	21355.245000	16345.620000	-10271.250000	-7513.290000	970.785000	12687.255000	-45.358719	-122.629535	-17.598279	19.357153	93.071517	8.839054	-3.401479	-12.942692	34.792800	-23.912420	26.766040	0.998227	-0.177856	0.261718	-1.000000	-1.000000	-1.000000	-1.000000	-1.000000	-1.000000	-1.000000	83.586207	0.000000	-1.000000	-1.000000	896764.000000	1770063289.505716
7691.130000	13625.910000	21424.680000	16323.030000	-10356.750000	-7564.860000	934.830000	12699.855000	-10.286139	-44.399640	-33.191512	41.516348	111.040545	29.649457	-6.342917	-6.255321	34.792800	-23.912420	26.766040	0.998227	-0.177856	0.261718	-1.000000	-1.000000	-1.000000	-1.000000	-1.000000	-1.000000	-1.000000	83.586207	0.000000	-1.000000	-1.000000	896765.000000	1770063289.509746
7587.135000	13571.370000	21546.135000	16344.720000	-10354.320000	-7505.505000	963.450000	12673.350000	25.350019	42.459850	-19.277770	60.888713	79.997854	35.465409	-10.428216	2.050789	34.792800	-23.912420	26.766040	0.998227	-0.177856	0.261718	-1.000000	-1.000000	-1.000000	-1.000000	-1.000000	-1.000000	-1.000000	83.586207	0.000000	-1.000000	-1.000000	896766.000000	1770063289.509752
7470.855000	13261.995000	21447.360000	16318.845000	-10339.740000	-7486.785000	980.775000	12658.365000	46.574122	99.890156	-0.351015	55.485944	23.301683	24.774303	-12.910391	8.657146	34.792800	-23.912420	26.766040	0.998227	-0.177856	0.261718	-1.000000	-1.000000	-1.000000	-1.000000	-1.000000	-1.000000	-1.000000	83.586207	0.000000	-1.000000	-1.000000	896767.000000	1770063289.513756
7593.120000	13254.660000	21155.985000	16115.085000	-10493.865000	-7569.135000	962.505000	12704.220000	48.811148	109.649737	0.782851	15.938041	-28.846412	8.434864	-9.261470	12.547412	34.792800	-23.912420	26.766040	0.998227	-0.177856	0.261718	-1.000000	-1.000000	-1.000000	-1.000000	-1.000000	-1.000000	-1.000000	83.586207	0.000000	-1.000000	-1.000000	896768.000000	1770063289.513764
7839.360000	13854.510000	21463.785000	16236.855000	-10587.645000	-7632.945000	925.920000	12758.580000	44.214596	88.509388	-17.223303	-42.661959	-64.715994	-4.626795	-0.419492	15.703188	34.792800	-23.912420	26.766040	0.998227	-0.177856	0.261718	-1.000000	-1.000000	-1.000000	-1.000000	-1.000000	-1.000000	-1.000000	83.586207	0.000000	-1.000000	-1.000000	896769.000000	1770063289.519575
7867.305000	13933.395000	21664.035000	16472.925000	-10425.420000	-7573.005000	940.005000	12776.760000	48.245265	78.027827	-26.059960	-80.598318	-84.686204	-14.412011	7.766583	19.967692	34.792800	-23.912420	26.766040	0.998227	-0.177856	0.261718	-1.000000	-1.000000	-1.000000	-1.000000	-1.000000	-1.000000	-1.000000	83.586207	0.000000	-1.000000	-1.000000	896770.000000	1770063289.519586
7796.880000	13756.005000	21487.185000	16330.320000	-10368.315000	-7529.805000	966.330000	12764.655000	56.165061	87.484657	-3.492114	-69.026601	-80.671448	-21.414301	11.494511	22.599211	79.626680	-18.983440	32.839520	1.008176	-0.202880	0.280700	-1.000000	-1.000000	-1.000000	-1.000000	-1.000000	-1.000000	-1.000000	83.586207	0.000000	-1.000000	-1.000000	896771.000000	1770063289.521735
7713.810000	13584.105000	21274.245000	16138.530000	-10451.565000	-7535.520000	971.280000	12734.010000	45.634948	77.946703	29.099491	-29.977795	-44.983310	-20.268991	11.751509	17.106384	79.626680	-18.983440	32.839520	1.008176	-0.202880	0.280700	-1.000000	-1.000000	-1.000000	-1.000000	-1.000000	-1.000000	-1.000000	83.586207	0.000000	-1.000000	-1.000000	896772.000000	1770063289.521745
7658.145000	13549.230000	21327.345000	16147.080000	-10425.465000	-7531.740000	958.320000	12694.950000	2.787036	15.377713	34.783103	-6.600524	9.845038	-8.087952	10.572955	-0.192970	79.626680	-18.983440	32.839520	1.008176	-0.202880	0.280700	-1.000000	-1.000000	-1.000000	-1.000000	-1.000000	-1.000000	-1.000000	83.586207	0.000000	-1.000000	-1.000000	896773.000000	1770063289.526806
7622.460000	13519.530000	21419.910000	16256.160000	-10419.660000	-7516.440000	951.030000	12677.490000	-59.687129	-86.266056	7.287350	-6.211415	59.792181	8.657892	7.787819	-24.263070	79.626680	-18.983440	32.839520	1.008176	-0.202880	0.280700	-1.000000	-1.000000	-1.000000	-1.000000	-1.000000	-1.000000	-1.000000	83.586207	0.000000	-1.000000	-1.000000	896774.000000	1770063289.526820
7657.470000	13558.545000	21478.005000	16342.605000	-10593.945000	-7608.285000	910.170000	12701.610000	-106.098283	-169.562696	-28.503297	-3.623362	84.161248	17.474010	1.326407	-41.833813	79.626680	-18.983440	32.839520	1.008176	-0.202880	0.280700	-1.000000	-1.000000	-1.000000	-1.000000	-1.000000	-1.000000	-1.000000	83.586207	0.000000	-1.000000	-1.000000	896775.000000	1770063289.529757
7671.825000	13542.030000	21470.130000	16318.530000	-10658.385000	-7641.540000	916.830000	12726.495000	-103.777723	-175.275136	-42.251984	17.854513	70.762453	9.840332	-9.025357	-40.499605	79.626680	-18.983440	32.839520	1.008176	-0.202880	0.280700	-1.000000	-1.000000	-1.000000	-1.000000	-1.000000	-1.000000	-1.000000	83.586207	0.000000	-1.000000	-1.000000	896776.000000	1770063289.529775
7626.960000	13478.445000	21507.525000	16268.895000	-10586.835000	-7530.795000	937.485000	12720.105000	-55.561616	-98.806056	-20.715621	48.909304	29.386437	-5.622908	-17.436816	-20.505289	79.626680	-18.983440	32.839520	1.008176	-0.202880	0.280700	-1.000000	-1.000000	-1.000000	-1.000000	-1.000000	-1.000000	-1.000000	83.586207	0.000000	-1.000000	-1.000000	896777.000000	1770063289.533726
7674.570000	13579.380000	21695.895000	16484.265000	-10437.975000	-7481.790000	867.600000	12728.070000	2.311470	0.447951	19.660383	67.471374	-9.925571	-9.777842	-17.189332	5.031420	79.626680	-18.983440	32.839520	1.008176	-0.202880	0.280700	-1.000000	-1.000000	-1.000000	-1.000000	-1.000000	-1.000000	-1.000000	83.586207	0.000000	-1.000000	-1.000000	896778.000000	1770063289.533735
7672.635000	13454.685000	21379.545000	16188.300000	-10442.565000	-7382.565000	904.725000	12758.760000	39.642838	62.512827	43.763579	55.811372	-27.368532	2.420333	-9.450534	23.090129	79.626680	-18.983440	32.839520	1.008176	-0.202880	0.280700	-1.000000	-1.000000	-1.000000	-1.000000	-1.000000	-1.000000	-1.000000	83.586207	0.000000	-1.000000	-1.000000	896779.000000	1770063289.537817
7637.805000	13432.770000	21257.595000	16029.810000	-10596.375000	-7399.440000	878.895000	12728.880000	53.282881	78.017783	29.544845	9.560373	-29.028130	18.111945	-0.335194	29.242042	79.626680	-18.983440	32.839520	1.008176	-0.202880	0.280700	-1.000000	-1.000000	-1.000000	-1.000000	-1.000000	-1.000000	-1.000000	83.586207	0.000000	-1.000000	-1.000000	896780.000000	1770063289.537824
7751.970000	13737.105000	21605.670000	16329.735000	-10687.050000	-7533.270000	759.645000	12738.870000	53.647060	74.387091	-5.061368	-46.955794	-29.856832	21.194332	4.508851	25.034549	80.237080	-7.263760	31.984960	1.031797	-0.241210	0.206970	-1.000000	-1.000000	-1.000000	-1.000000	-1.000000	-1.000000	-1.000000	83.586207	0.000000	-1.000000	-1.000000	896781.000000	1770063289.541806
7650.540000	13465.710000	21416.310000	16216.425000	-10530.900000	-7538.310000	740.520000	12723.030000	48.063058	72.241047	-23.270821	-71.319840	-31.616792	4.015876	1.689885	14.610246	80.237080	-7.263760	31.984960	1.031797	-0.241210	0.206970	-1.000000	-1.000000	-1.000000	-1.000000	-1.000000	-1.000000	-1.000000	83.586207	0.000000	-1.000000	-1.000000	896782.000000	1770063289.541812
7616.295000	13352.535000	21331.845000	16306.200000	-10254.015000	-7446.465000	745.650000	12727.080000	34.649849	59.593122	-21.424205	-51.033759	-18.088255	-23.091474	-5.047755	2.873751	80.237080	-7.263760	31.984960	1.031797	-0.241210	0.206970	-1.000000	-1.000000	-1.000000	-1.000000	-1.000000	-1.000000	-1.000000	83.586207	0.000000	-1.000000	-1.000000	896783.000000	1770063289.545899
7789.770000	13695.165000	21265.560000	16048.260000	-10484.955000	-7503.570000	741.060000	12774.105000	13.123644	25.565168	-21.707170	-13.757770	20.114880	-37.945455	-6.659292	-6.186486	80.237080	-7.263760	31.984960	1.031797	-0.241210	0.206970	-1.000000	-1.000000	-1.000000	-1.000000	-1.000000	-1.000000	-1.000000	83.586207	0.000000	-1.000000	-1.000000	896784.000000	1770063289.545909
7781.175000	13830.165000	21379.005000	16136.685000	-10453.410000	-7447.050000	726.210000	12726.045000	-6.379327	-5.170281	-25.875500	11.043500	59.519292	-28.986966	0.632036	-10.952694	80.237080	-7.263760	31.984960	1.031797	-0.241210	0.206970	-1.000000	-1.000000	-1.000000	-1.000000	-1.000000	-1.000000	-1.000000	83.586207	0.000000	-1.000000	-1.000000	896785.000000	1770063289.557085
7709.220000	13689.585000	21538.665000	16467.255000	-10364.400000	-7369.245000	731.925000	12711.555000	-18.562848	-13.608606	-17.078476	22.154606	66.387649	-3.708745	12.275502	-13.335433	80.237080	-7.263760	31.984960	1.031797	-0.241210	0.206970	-1.000000	-1.000000	-1.000000	-1.000000	-1.000000	-1.000000	-1.000000	83.586207	0.000000	-1.000000	-1.000000	896786.000000	1770063289.557100
7605.630000	13431.420000	21390.795000	16239.780000	-10501.695000	-7414.020000	774.360000	12717.180000	-30.711816	-21.600569	6.936182	31.788198	30.650113	20.013465	22.241673	-15.210737	80.237080	-7.263760	31.984960	1.031797	-0.241210	0.206970	-1.000000	-1.000000	-1.000000	-1.000000	-1.000000	-1.000000	-1.000000	83.586207	0.000000	-1.000000	-1.000000	896787.000000	1770063289.558299
7395.660000	13067.685000	21242.790000	15980.130000	-10567.845000	-7346.340000	779.940000	12652.785000	-47.972438	-53.943828	30.683184	34.838455	-31.740073	26.478391	26.517141	-15.607915	80.237080	-7.263760	31.984960	1.031797	-0.241210	0.206970	-1.000000	-1.000000	-1.000000	-1.000000	-1.000000	-1.000000	-1.000000	83.586207	0.000000	-1.000000	-1.000000	896788.000000	1770063289.558307
7450.560000	13079.700000	21325.455000	16224.435000	-10429.740000	-7486.290000	689.985000	12645.675000	-62.761783	-100.290723	41.650903	22.299307	-83.009740	14.285944	21.714803	-13.100910	80.237080	-7.263760	31.984960	1.031797	-0.241210	0.206970	-1.000000	-1.000000	-1.000000	-1.000000	-1.000000	-1.000000	-1.000000	83.586207	0.000000	-1.000000	-1.000000	896789.000000	1770063289.558532
7658.460000	13469.085000	21216.960000	16174.350000	-10275.795000	-7447.455000	715.275000	12688.785000	-56.186789	-119.341536	34.026717	2.356218	-83.423005	-4.246916	8.327154	-6.061832	80.237080	-7.263760	31.984960	1.031797	-0.241210	0.206970	-1.000000	-1.000000	-1.000000	-1.000000	-1.000000	-1.000000	-1.000000	83.586207	0.000000	-1.000000	-1.000000	896790.000000	1770063289.558538
7807.545000	13922.595000	21411.270000	16088.760000	-10568.565000	-7347.330000	771.480000	12727.170000	-11.913930	-63.895031	11.320062	-15.125816	-36.005497	-14.149947	-6.009970	7.026290	54.981780	17.625300	18.052580	1.078488	-0.263061	0.117614	-1.000000	-1.000000	-1.000000	-1.000000	-1.000000	-1.000000	-1.000000	83.586207	0.000000	-1.000000	-1.000000	896791.000000	1770063289.561783
7768.800000	13793.985000	21439.620000	16079.895000	-10545.795000	-7311.195000	788.670000	12724.695000	57.890598	64.639375	-6.287206	-27.795847	11.756114	-8.068476	-13.040001	22.510393	54.981780	17.625300	18.052580	1.078488	-0.263061	0.117614	-1.000000	-1.000000	-1.000000	-1.000000	-1.000000	-1.000000	-1.000000	83.586207	0.000000	-1.000000	-1.000000	896792.000000	1770063289.561800
7710.930000	13636.395000	21380.130000	16203.375000	-10199.880000	-7390.665000	782.145000	12725.010000	107.576878	180.808160	-4.546921	-27.901676	34.068262	7.717304	-12.090520	30.831494	54.981780	17.625300	18.052580	1.078488	-0.263061	0.117614	-1.000000	-1.000000	-1.000000	-1.000000	-1.000000	-1.000000	-1.000000	83.586207	0.000000	-1.000000	-1.000000	896793.000000	1770063289.567464
7578.135000	13275.135000	21340.755000	16213.590000	-10254.195000	-7373.880000	800.505000	12692.520000	96.982509	184.211350	2.683581	-9.490991	47.440979	17.355738	-8.402825	25.356265	54.981780	17.625300	18.052580	1.078488	-0.263061	0.117614	-1.000000	-1.000000	-1.000000	-1.000000	-1.000000	-1.000000	-1.000000	83.586207	0.000000	-1.000000	-1.000000	896794.000000	1770063289.567477
7553.385000	13260.510000	21347.820000	16264.980000	-10283.130000	-7419.825000	780.795000	12689.055000	30.746949	63.710257	-6.255953	12.453384	56.540702	9.604426	-6.695637	8.602018	54.981780	17.625300	18.052580	1.078488	-0.263061	0.117614	-1.000000	-1.000000	-1.000000	-1.000000	-1.000000	-1.000000	-1.000000	83.586207	0.000000	-1.000000	-1.000000	896795.000000	1770063289.569786
7709.670000	13732.110000	21433.230000	16303.680000	-10236.690000	-7401.780000	730.530000	12701.205000	-43.721272	-82.574752	-25.642749	23.695893	46.749221	-11.425289	-9.727257	-10.368619	54.981780	17.625300	18.052580	1.078488	-0.263061	0.117614	-1.000000	-1.000000	-1.000000	-1.000000	-1.000000	-1.000000	-1.000000	83.586207	0.000000	-1.000000	-1.000000	896796.000000	1770063289.569796
7784.145000	13765.185000	21432.510000	16259.715000	-10343.340000	-7362.720000	766.665000	12732.840000	-73.287889	-133.927591	-27.469204	30.467885	17.936034	-29.125388	-16.171324	-20.813863	54.981780	17.625300	18.052580	1.078488	-0.263061	0.117614	-1.000000	-1.000000	-1.000000	-1.000000	-1.000000	-1.000000	-1.000000	83.586207	0.000000	-1.000000	-1.000000	896797.000000	1770063289.574869
7764.660000	13760.460000	21482.505000	16314.210000	-10364.490000	-7352.865000	810.855000	12731.670000	-46.845003	-68.657346	-3.909419	32.152314	-19.626699	-26.635844	-16.783855	-17.513627	54.981780	17.625300	18.052580	1.078488	-0.263061	0.117614	-1.000000	-1.000000	-1.000000	-1.000000	-1.000000	-1.000000	-1.000000	83.586207	0.000000	-1.000000	-1.000000	896798.000000	1770063289.574876
7680.330000	13603.995000	21414.735000	16350.975000	-10229.445000	-7354.395000	841.815000	12706.380000	-4.212161	22.294775	22.422468	18.179026	-53.306664	-3.135556	-4.239368	-6.647454	54.981780	17.625300	18.052580	1.078488	-0.263061	0.117614	-1.000000	-1.000000	-1.000000	-1.000000	-1.000000	-1.000000	-1.000000	83.586207	0.000000	-1.000000	-1.000000	896799.000000	1770063289.578080
7552.080000	13372.155000	21441.645000	16393.275000	-10297.980000	-7322.490000	853.380000	12656.835000	9.504829	42.515014	27.473711	-5.682387	-63.319410	22.457703	14.381731	-0.161388	54.981780	17.625300	18.052580	1.078488	-0.263061	0.117614	-1.000000	-1.000000	-1.000000	-1.000000	-1.000000	-1.000000	-1.000000	83.586207	0.000000	-1.000000	-1.000000	896800.000000	1770063289.578093
7574.445000	13354.965000	21537.315000	16417.620000	-10466.325000	-7295.625000	882.180000	12686.490000	-12.767219	-19.533910	9.206165	-23.479562	-44.516885	32.408483	25.423620	-3.235944	15.946700	24.248140	10.788820	1.056150	-0.214294	0.126526	-1.000000	-1.000000	-1.000000	-1.000000	-1.000000	-1.000000	-1.000000	83.586207	0.000000	-1.000000	-1.000000	896801.000000	1770063289.581736
7687.215000	13476.465000	21335.940000	16002.990000	-10891.305000	-7376.400000	942.030000	12755.970000	-39.232579	-92.540399	-15.386229	-34.991413	-25.890805	25.144765	23.647452	-8.547713	15.946700	24.248140	10.788820	1.056150	-0.214294	0.126526	-1.000000	-1.000000	-1.000000	-1.000000	-1.000000	-1.000000	-1.000000	83.586207	0.000000	-1.000000	-1.000000	896802.000000	1770063289.581745
7777.170000	13789.980000	21500.865000	16010.055000	-10850.985000	-7489.395000	913.230000	12770.370000	-32.313155	-92.227496	-31.571708	-55.411435	-34.605227	5.532461	13.041652	-4.835442	15.946700	24.248140	10.788820	1.056150	-0.214294	0.126526	-1.000000	-1.000000	-1.000000	-1.000000	-1.000000	-1.000000	-1.000000	83.586207	0.000000	-1.000000	-1.000000	896803.000000	1770063289.587673
7517.250000	13312.305000	21546.765000	16326.360000	-10117.980000	-7217.055000	927.315000	12682.620000	9.504544	-6.815245	-31.122364	-76.110428	-42.144281	-16.618955	-0.711143	7.455675	15.946700	24.248140	10.788820	1.056150	-0.214294	0.126526	-1.000000	-1.000000	-1.000000	-1.000000	-1.000000	-1.000000	-1.000000	83.586207	0.000000	-1.000000	-1.000000	896804.000000	1770063289.587682
7295.265000	12687.255000	21346.380000	16184.430000	-10099.755000	-7002.990000	1017.180000	12618.810000	44.299539	76.556517	-13.529333	-60.052030	7.412110	-20.321812	-11.430897	14.843479	15.946700	24.248140	10.788820	1.056150	-0.214294	0.126526	-1.000000	-1.000000	-1.000000	-1.000000	-1.000000	-1.000000	-1.000000	83.586207	0.000000	-1.000000	-1.000000	896805.000000	1770063289.598546
7420.365000	12939.480000	21251.610000	16074.315000	-11120.670000	-7150.680000	987.255000	12623.490000	36.627615	71.636451	3.868634	-2.283951	93.722045	3.007012	-13.775082	7.972172	15.946700	24.248140	10.788820	1.056150	-0.214294	0.126526	-1.000000	-1.000000	-1.000000	-1.000000	-1.000000	-1.000000	-1.000000	83.586207	0.000000	-1.000000	-1.000000	896806.000000	1770063289.598558
7781.895000	13906.170000	21363.660000	16236.540000	-11009.880000	-7176.870000	949.230000	12683.655000	5.121875	12.863874	5.784433	57.603705	120.284614	29.319561	-10.734615	-6.335039	15.946700	24.248140	10.788820	1.056150	-0.214294	0.126526	-1.000000	-1.000000	-1.000000	-1.000000	-1.000000	-1.000000	-1.000000	83.586207	0.000000	-1.000000	-1.000000	896807.000000	1770063289.598570
8009.235000	14184.360000	21353.355000	16075.215000	-10356.435000	-7297.515000	1035.360000	12830.760000	-0.444123	8.776190	0.984682	86.025751	59.299594	27.773984	-9.717190	-11.247486	15.946700	24.248140	10.788820	1.056150	-0.214294	0.126526	-1.000000	-1.000000	-1.000000	-1.000000	-1.000000	-1.000000	-1.000000	83.586207	0.000000	-1.000000	-1.000000	896808.000000	1770063289.598575
7857.270000	13890.330000	21294.945000	15752.790000	-10486.575000	-7403.175000	1038.645000	12777.165000	35.259868	86.822791	1.977798	70.021593	-8.583559	-7.885111	-10.642175	2.084189	15.946700	24.248140	10.788820	1.056150	-0.214294	0.126526	-1.000000	-1.000000	-1.000000	-1.000000	-1.000000	-1.000000	-1.000000	83.586207	0.000000	-1.000000	-1.000000	896809.000000	1770063289.598581
7571.205000	13564.260000	21271.455000	16085.925000	-10000.890000	-7182.945000	990.450000	12616.335000	67.846499	153.895775	7.022601	20.040111	-13.492614	-52.495854	-9.988770	19.439819	15.946700	24.248140	10.788820	1.056150	-0.214294	0.126526	-1.000000	-1.000000	-1.000000	-1.000000	-1.000000	-1.000000	-1.000000	83.586207	0.000000	-1.000000	-1.000000	896810.000000	1770063289.598586
7517.205000	13387.770000	21260.025000	16433.595000	-9855.405000	-7084.035000	1009.260000	12614.805000	44.143340	111.601678	11.901040	-14.240229	44.080349	-64.482493	-8.624197	16.929124	10.971940	19.593840	24.599120	1.025449	-0.168457	0.187683	-1.000000	-1.000000	-1.000000	-1.000000	-1.000000	-1.000000	-1.000000	83.586207	0.000000	-1.000000	-1.000000	896811.000000	1770063289.601828
7528.770000	13267.440000	21224.610000	16143.435000	-10349.955000	-7213.185000	1097.235000	12685.500000	-31.622773	-37.130758	13.703340	2.365366	101.617917	-28.256896	-5.304612	-6.316282	10.971940	19.593840	24.599120	1.025449	-0.168457	0.187683	-1.000000	-1.000000	-1.000000	-1.000000	-1.000000	-1.000000	-1.000000	83.586207	0.000000	-1.000000	-1.000000	896812.000000	1770063289.601834
7598.745000	13369.320000	21471.300000	16124.265000	-10555.920000	-7232.715000	1122.120000	12707.235000	-98.378791	-189.202865	12.688117	33.031114	65.763531	20.944831	4.435847	-25.417495	10.971940	19.593840	24.599120	1.025449	-0.168457	0.187683	-1.000000	-1.000000	-1.000000	-1.000000	-1.000000	-1.000000	-1.000000	83.586207	0.000000	-1.000000	-1.000000	896813.000000	1770063289.610232
7743.330000	13720.095000	21745.665000	16178.355000	-10628.505000	-7110.990000	1173.195000	12751.605000	-99.286056	-225.388536	23.554441	29.275158	-76.365626	39.898378	18.113365	-20.325239	10.971940	19.593840	24.599120	1.025449	-0.168457	0.187683	-1.000000	-1.000000	-1.000000	-1.000000	-1.000000	-1.000000	-1.000000	83.586207	0.000000	-1.000000	-1.000000	896814.000000	1770063289.610243
7802.100000	13808.835000	21620.700000	16302.105000	-10606.905000	-7013.745000	1204.245000	12772.170000	-35.805622	-121.113534	52.472630	-3.519357	-208.872522	29.493192	27.757786	4.330257	10.971940	19.593840	24.599120	1.025449	-0.168457	0.187683	-1.000000	-1.000000	-1.000000	-1.000000	-1.000000	-1.000000	-1.000000	83.586207	0.000000	-1.000000	-1.000000	896815.000000	1770063289.610513
7716.060000	13619.475000	21257.145000	16082.820000	-10673.685000	-7158.060000	1199.070000	12734.055000	34.794224	20.902406	64.815664	-37.334149	-222.425188	16.733544	27.876849	26.185051	10.971940	19.593840	24.599120	1.025449	-0.168457	0.187683	-1.000000	-1.000000	-1.000000	-1.000000	-1.000000	-1.000000	-1.000000	83.586207	0.000000	-1.000000	-1.000000	896816.000000	1770063289.610522
7590.330000	13442.850000	21125.970000	15794.280000	-10425.465000	-7135.155000	1202.760000	12665.970000	55.641056	81.633103	19.420766	-61.088342	-126.534574	12.165654	15.795859	24.607390	10.971940	19.593840	24.599120	1.025449	-0.168457	0.187683	-1.000000	-1.000000	-1.000000	-1.000000	-1.000000	-1.000000	-1.000000	83.586207	0.000000	-1.000000	-1.000000	896817.000000	1770063289.613841
7487.010000	13373.145000	21233.160000	16012.980000	-10114.695000	-7248.060000	1161.720000	12603.195000	22.749738	48.058814	-68.143202	-69.541944	9.330879	8.753019	-6.119962	-0.830973	10.971940	19.593840	24.599120	1.025449	-0.168457	0.187683	-1.000000	-1.000000	-1.000000	-1.000000	-1.000000	-1.000000	-1.000000	83.586207	0.000000	-1.000000	-1.000000	896818.000000	1770063289.613851
7484.130000	13153.545000	20905.695000	15906.465000	-10025.640000	-7257.285000	1211.895000	12649.860000	-20.825207	-7.577842	-136.130106	-55.577271	127.991563	-3.771301	-27.332893	-28.351469	10.971940	19.593840	24.599120	1.025449	-0.168457	0.187683	-1.000000	-1.000000	-1.000000	-1.000000	-1.000000	-1.000000	-1.000000	83.586207	0.000000	-1.000000	-1.000000	896819.000000	1770063289.621020
7524.585000	13203.135000	20941.560000	16009.830000	-10089.090000	-7387.965000	1195.245000	12643.605000	-33.641996	-24.912084	-142.937756	-25.775849	187.104898	-27.473195	-36.002454	-35.338871	10.971940	19.593840	24.599120	1.025449	-0.168457	0.187683	-1.000000	-1.000000	-1.000000	-1.000000	-1.000000	-1.000000	-1.000000	83.586207	0.000000	-1.000000	-1.000000	896820.000000	1770063289.621027
7662.060000	13499.730000	21393.585000	16212.555000	-10220.490000	-7355.070000	1174.635000	12676.500000	-7.061651	10.262498	-84.405517	11.438192	168.381491	-48.425822	-30.133676	-19.091457	33.297320	30.581040	46.253060	1.038144	-0.095886	0.190612	-1.000000	-1.000000	-1.000000	-1.000000	-1.000000	-1.000000	-1.000000	83.586207	0.000000	-1.000000	-1.000000	896821.000000	1770063289.621834
7738.965000	13709.160000	21416.310000	16244.460000	-10237.995000	-7187.625000	1219.860000	12709.125000	39.660400	81.176111	20.080436	56.489481	90.133774	-47.020603	-16.809340	7.122001	33.297320	30.581040	46.253060	1.038144	-0.095886	0.190612	-1.000000	-1.000000	-1.000000	-1.000000	-1.000000	-1.000000	-1.000000	83.586207	0.000000	-1.000000	-1.000000	896822.000000	1770063289.621840
7678.935000	13658.265000	21253.680000	16090.110000	-10262.295000	-7091.145000	1344.645000	12716.730000	72.598059	139.671977	118.536919	92.168789	-2.297569	-15.809578	-0.626402	28.151042	33.297320	30.581040	46.253060	1.038144	-0.095886	0.190612	-1.000000	-1.000000	-1.000000	-1.000000	-1.000000	-1.000000	-1.000000	83.586207	0.000000	-1.000000	-1.000000	896823.000000	1770063289.626319
7602.255000	13411.530000	21342.330000	15985.485000	-10368.360000	-7099.515000	1377.180000	12696.435000	61.242651	123.615706	155.733996	85.155473	-67.119792	31.865434	18.456890	33.601416	33.297320	30.581040	46.253060	1.038144	-0.095886	0.190612	-1.000000	-1.000000	-1.000000	-1.000000	-1.000000	-1.000000	-1.000000	83.586207	0.000000	-1.000000	-1.000000	896824.000000	1770063289.626331
7602.030000	13424.040000	21560.625000	15868.710000	-10726.200000	-7143.615000	1360.980000	12682.215000	6.614194	20.148375	130.886014	31.379448	-100.967146	69.943808	35.287898	21.816580	33.297320	30.581040	46.253060	1.038144	-0.095886	0.190612	-1.000000	-1.000000	-1.000000	-1.000000	-1.000000	-1.000000	-1.000000	83.586207	0.000000	-1.000000	-1.000000	896825.000000	1770063289.630598
7534.125000	13340.565000	21518.190000	16362.720000	-10443.060000	-7283.025000	1346.895000	12670.470000	-53.629387	-104.979784	81.763163	-24.804237	-122.315350	76.398815	39.041631	1.869271	33.297320	30.581040	46.253060	1.038144	-0.095886	0.190612	-1.000000	-1.000000	-1.000000	-1.000000	-1.000000	-1.000000	-1.000000	83.586207	0.000000	-1.000000	-1.000000	896826.000000	1770063289.630609
7504.155000	13182.570000	21018.285000	16187.130000	-10196.280000	-7168.680000	1423.980000	12684.465000	-78.605881	-168.415642	23.103809	-38.653165	-124.086191	46.848048	26.448857	-12.527637	33.297320	30.581040	46.253060	1.038144	-0.095886	0.190612	-1.000000	-1.000000	-1.000000	-1.000000	-1.000000	-1.000000	-1.000000	83.586207	0.000000	-1.000000	-1.000000	896827.000000	1770063289.644221
7711.425000	13609.530000	21215.565000	16130.295000	-10647.990000	-7269.030000	1407.960000	12733.920000	-55.074047	-134.397684	-48.164601	-20.225666	-88.212849	-0.923105	5.751306	-14.041571	33.297320	30.581040	46.253060	1.038144	-0.095886	0.190612	-1.000000	-1.000000	-1.000000	-1.000000	-1.000000	-1.000000	-1.000000	83.586207	0.000000	-1.000000	-1.000000	896828.000000	1770063289.644230
7803.675000	13821.660000	21604.545000	16338.015000	-10515.105000	-7283.655000	1404.990000	12758.535000	1.023575	-21.738061	-106.020439	-7.937262	-23.948789	-40.977635	-13.528656	-5.917633	33.297320	30.581040	46.253060	1.038144	-0.095886	0.190612	-1.000000	-1.000000	-1.000000	-1.000000	-1.000000	-1.000000	-1.000000	83.586207	0.000000	-1.000000	-1.000000	896829.000000	1770063289.649353
7781.265000	13748.085000	21527.010000	16135.830000	-10527.480000	-7230.645000	1436.580000	12760.965000	54.630872	102.444878	-117.493988	-16.574518	48.741510	-58.274548	-25.794393	2.977570	33.297320	30.581040	46.253060	1.038144	-0.095886	0.190612	-1.000000	-1.000000	-1.000000	-1.000000	-1.000000	-1.000000	-1.000000	83.586207	0.000000	-1.000000	-1.000000	896830.000000	1770063289.649361
7742.970000	13742.055000	21512.790000	16323.660000	-10456.200000	-7248.510000	1441.485000	12738.915000	70.045907	154.098380	-88.505580	-35.990803	114.777801	-54.557370	-29.118229	4.537242	0.900340	27.666380	77.459760	1.034177	-0.042053	0.157470	-1.000000	-1.000000	-1.000000	-1.000000	-1.000000	-1.000000	-1.000000	83.586207	0.000000	-1.000000	-1.000000	896831.000000	1770063289.649371
7600.365000	13426.875000	21186.945000	16121.970000	-10164.510000	-7267.680000	1468.170000	12684.060000	36.599837	97.868080	-47.911688	-45.980951	158.288488	-40.770930	-26.022189	-3.904885	0.900340	27.666380	77.459760	1.034177	-0.042053	0.157470	-1.000000	-1.000000	-1.000000	-1.000000	-1.000000	-1.000000	-1.000000	83.586207	0.000000	-1.000000	-1.000000	896832.000000	1770063289.649376
7543.170000	13329.720000	21167.010000	16091.190000	-10135.305000	-7156.485000	1494.045000	12644.505000	-24.178236	-26.554289	-18.463841	-33.340918	168.488228	-21.558061	-19.099100	-17.658846	0.900340	27.666380	77.459760	1.034177	-0.042053	0.157470	-1.000000	-1.000000	-1.000000	-1.000000	-1.000000	-1.000000	-1.000000	83.586207	0.000000	-1.000000	-1.000000	896833.000000	1770063289.651025
7637.130000	13506.615000	21146.175000	16032.105000	-10322.640000	-7226.145000	1517.625000	12688.110000	-72.756586	-135.077323	-6.271262	-4.767769	135.157023	6.752382	-7.279682	-26.280017	0.900340	27.666380	77.459760	1.034177	-0.042053	0.157470	-1.000000	-1.000000	-1.000000	-1.000000	-1.000000	-1.000000	-1.000000	83.586207	0.000000	-1.000000	-1.000000	896834.000000	1770063289.651032
7648.740000	13595.175000	21264.705000	16135.425000	-10382.130000	-7240.455000	1545.660000	12684.735000	-74.995715	-153.153621	5.277259	19.371572	44.086231	39.055467	9.216454	-19.991940	0.900340	27.666380	77.459760	1.034177	-0.042053	0.157470	-1.000000	-1.000000	-1.000000	-1.000000	-1.000000	-1.000000	-1.000000	83.586207	0.000000	-1.000000	-1.000000	896835.000000	1770063289.651041
7628.985000	13527.675000	21275.010000	16144.695000	-10385.145000	-7247.520000	1564.605000	12685.185000	-29.662338	-71.139010	40.876688	27.158464	-90.326760	57.643128	24.175262	-0.034135	0.900340	27.666380	77.459760	1.034177	-0.042053	0.157470	-1.000000	-1.000000	-1.000000	-1.000000	-1.000000	-1.000000	-1.000000	83.586207	0.000000	-1.000000	-1.000000	896836.000000	1770063289.651046
7628.715000	13503.735000	21286.755000	16147.035000	-10423.620000	-7287.840000	1566.135000	12693.600000	26.780545	42.759491	92.332120	25.340615	-201.110541	51.291052	29.773485	20.326085	0.900340	27.666380	77.459760	1.034177	-0.042053	0.157470	-1.000000	-1.000000	-1.000000	-1.000000	-1.000000	-1.000000	-1.000000	83.586207	0.000000	-1.000000	-1.000000	896837.000000	1770063289.657066
7589.700000	13439.835000	21313.305000	16167.465000	-10423.260000	-7297.920000	1598.580000	12686.040000	53.683320	103.004869	111.119852	20.371466	-220.482734	25.140606	24.032095	28.333961	0.900340	27.666380	77.459760	1.034177	-0.042053	0.157470	-1.000000	-1.000000	-1.000000	-1.000000	-1.000000	-1.000000	-1.000000	83.586207	0.000000	-1.000000	-1.000000	896838.000000	1770063289.657079
7614.990000	13464.945000	21355.380000	16121.655000	-10449.495000	-7290.675000	1624.320000	12702.105000	40.976193	81.699603	68.845232	12.123590	-143.623247	-8.606839	11.134838	21.764948	0.900340	27.666380	77.459760	1.034177	-0.042053	0.157470	-1.000000	-1.000000	-1.000000	-1.000000	-1.000000	-1.000000	-1.000000	83.586207	0.000000	-1.000000	-1.000000	896839.000000	1770063289.660311
7633.305000	13498.560000	21304.575000	15775.830000	-10594.035000	-7263.495000	1628.460000	12698.010000	10.363870	18.164017	-4.148370	-1.651322	-24.665617	-36.732557	-3.512830	8.060995	0.900340	27.666380	77.459760	1.034177	-0.042053	0.157470	-1.000000	-1.000000	-1.000000	-1.000000	-1.000000	-1.000000	-1.000000	83.586207	0.000000	-1.000000	-1.000000	896840.000000	1770063289.660324
7619.805000	13552.920000	21521.430000	16164.855000	-10623.780000	-7372.260000	1580.760000	12662.820000	-9.065990	-26.194177	-52.574204	-16.902324	67.594715	-48.696486	-16.627247	-3.182817	-41.354600	26.674480	78.466920	0.982114	-0.140991	0.129944	-1.000000	-1.000000	-1.000000	-1.000000	-1.000000	-1.000000	-1.000000	83.586207	0.000000	-1.000000	-1.000000	896841.000000	1770063289.661830
7665.480000	13542.075000	21334.095000	16404.660000	-10327.905000	-7396.650000	1589.625000	12714.840000	-5.424563	-19.969624	-49.977992	-8.407335	103.065094	-43.917940	-26.046592	-6.912806	-41.354600	26.674480	78.466920	0.982114	-0.140991	0.129944	-1.000000	-1.000000	-1.000000	-1.000000	-1.000000	-1.000000	-1.000000	83.586207	0.000000	-1.000000	-1.000000	896842.000000	1770063289.661839
7704.855000	13563.765000	21316.680000	16253.730000	-10337.940000	-7361.010000	1553.940000	12745.710000	11.576752	16.499409	-20.105374	33.260706	103.595884	-26.283015	-28.641404	-3.337830	-41.354600	26.674480	78.466920	0.982114	-0.140991	0.129944	-1.000000	-1.000000	-1.000000	-1.000000	-1.000000	-1.000000	-1.000000	83.586207	0.000000	-1.000000	-1.000000	896843.000000	1770063289.666049
7656.885000	13510.035000	21346.740000	16246.980000	-10382.310000	-7388.055000	1542.780000	12706.335000	24.294617	41.791510	-0.013043	67.306681	91.402524	1.014117	-22.962393	2.949946	-41.354600	26.674480	78.466920	0.982114	-0.140991	0.129944	-1.000000	-1.000000	-1.000000	-1.000000	-1.000000	-1.000000	-1.000000	83.586207	0.000000	-1.000000	-1.000000	896844.000000	1770063289.666058
7656.705000	13505.895000	21324.870000	16199.865000	-10431.495000	-7415.595000	1554.885000	12697.740000	20.153282	34.144604	-0.275465	53.050291	64.586666	28.565304	-10.972028	4.572811	-41.354600	26.674480	78.466920	0.982114	-0.140991	0.129944	-1.000000	-1.000000	-1.000000	-1.000000	-1.000000	-1.000000	-1.000000	83.586207	0.000000	-1.000000	-1.000000	896845.000000	1770063289.669848
7677.315000	13599.135000	21320.370000	16167.465000	-10467.225000	-7416.540000	1598.310000	12705.345000	-0.978028	0.507906	-14.834537	-4.356441	23.364695	44.232973	4.971467	-1.903645	-41.354600	26.674480	78.466920	0.982114	-0.140991	0.129944	-1.000000	-1.000000	-1.000000	-1.000000	-1.000000	-1.000000	-1.000000	83.586207	0.000000	-1.000000	-1.000000	896846.000000	1770063289.669856
7646.355000	13548.600000	21288.105000	16146.000000	-10477.080000	-7384.995000	1662.120000	12704.220000	-26.509663	-35.363174	-35.247938	-69.025553	-20.655432	42.729125	22.143747	-11.841835	-41.354600	26.674480	78.466920	0.982114	-0.140991	0.129944	-1.000000	-1.000000	-1.000000	-1.000000	-1.000000	-1.000000	-1.000000	83.586207	0.000000	-1.000000	-1.000000	896847.000000	1770063289.676236
7595.820000	13478.535000	21270.825000	16114.005000	-10516.815000	-7391.070000	1691.865000	12669.210000	-42.591184	-54.691608	-47.600413	-101.347917	-52.716380	26.381145	35.281165	-18.206424	-41.354600	26.674480	78.466920	0.982114	-0.140991	0.129944	-1.000000	-1.000000	-1.000000	-1.000000	-1.000000	-1.000000	-1.000000	83.586207	0.000000	-1.000000	-1.000000	896848.000000	1770063289.676250
7549.560000	13460.760000	21279.870000	16102.755000	-10555.875000	-7410.600000	1723.005000	12620.385000	-43.395434	-53.966072	-38.294696	-80.954054	-62.815925	2.904994	38.707380	-17.906852	-41.354600	26.674480	78.466920	0.982114	-0.140991	0.129944	-1.000000	-1.000000	-1.000000	-1.000000	-1.000000	-1.000000	-1.000000	83.586207	0.000000	-1.000000	-1.000000	896849.000000	1770063289.682132
7592.220000	13498.380000	21320.460000	16147.035000	-10508.625000	-7374.060000	1786.770000	12653.685000	-29.014910	-35.435165	-6.877591	-24.643265	-52.731975	-16.446450	31.396981	-11.120949	-41.354600	26.674480	78.466920	0.982114	-0.140991	0.129944	-1.000000	-1.000000	-1.000000	-1.000000	-1.000000	-1.000000	-1.000000	83.586207	0.000000	-1.000000	-1.000000	896850.000000	1770063289.682144
7718.940000	13624.110000	21442.410000	16269.480000	-10383.615000	-7317.135000	1820.385000	12754.260000	-2.595695	-3.094982	35.307090	28.904064	-31.882449	-21.564767	17.756977	1.358727	-21.058800	41.430900	16.724960	0.923460	-0.339110	0.104126	-1.000000	-1.000000	-1.000000	-1.000000	-1.000000	-1.000000	-1.000000	83.586207	0.000000	-1.000000	-1.000000	896851.000000	1770063289.682156
7800.345000	13720.860000	21527.955000	16340.265000	-10335.330000	-7321.365000	1781.730000	12809.970000	29.400121	34.644937	74.401964	58.375275	-7.192677	-11.786328	2.075255	17.738680	-21.058800	41.430900	16.724960	0.923460	-0.339110	0.104126	-1.000000	-1.000000	-1.000000	-1.000000	-1.000000	-1.000000	-1.000000	83.586207	0.000000	-1.000000	-1.000000	896852.000000	1770063289.682161
7780.230000	13670.685000	21476.430000	16323.885000	-10333.530000	-7360.245000	1659.240000	12793.455000	55.711828	64.289645	93.085368	66.198387	18.154739	1.931244	-16.094749	32.448108	-21.058800	41.430900	16.724960	0.923460	-0.339110	0.104126	-1.000000	-1.000000	-1.000000	-1.000000	-1.000000	-1.000000	-1.000000	83.586207	0.000000	-1.000000	-1.000000	896853.000000	1770063289.690667
7676.685000	13565.340000	21371.715000	16205.670000	-10460.025000	-7484.175000	1551.555000	12708.855000	60.193547	67.147623	73.193741	55.172701	37.486441	6.080031	-38.758205	35.080491	-21.058800	41.430900	16.724960	0.923460	-0.339110	0.104126	-1.000000	-1.000000	-1.000000	-1.000000	-1.000000	-1.000000	-1.000000	83.586207	0.000000	-1.000000	-1.000000	896854.000000	1770063289.690679
7597.935000	13431.420000	21246.300000	16109.550000	-10527.615000	-7501.725000	1614.510000	12677.670000	32.478771	31.092517	12.352412	23.716203	39.178323	-5.159866	-60.064247	17.865306	-21.058800	41.430900	16.724960	0.923460	-0.339110	0.104126	-1.000000	-1.000000	-1.000000	-1.000000	-1.000000	-1.000000	-1.000000	83.586207	0.000000	-1.000000	-1.000000	896855.000000	1770063289.690693
7647.660000	13517.190000	21321.270000	16165.035000	-10486.395000	-7459.290000	1671.885000	12697.695000	-15.769358	-28.632733	-62.933580	-18.417057	20.273172	-24.314655	-64.339047	-12.639157	-21.058800	41.430900	16.724960	0.923460	-0.339110	0.104126	-1.000000	-1.000000	-1.000000	-1.000000	-1.000000	-1.000000	-1.000000	83.586207	0.000000	-1.000000	-1.000000	896856.000000	1770063289.690698
7673.535000	13543.380000	21349.125000	16185.015000	-10468.440000	-7442.370000	1693.845000	12717.945000	-53.561176	-71.964899	-108.553288	-46.337929	-4.298860	-34.445700	-40.585102	-36.657392	-21.058800	41.430900	16.724960	0.923460	-0.339110	0.104126	-1.000000	-1.000000	-1.000000	-1.000000	-1.000000	-1.000000	-1.000000	83.586207	0.000000	-1.000000	-1.000000	896857.000000	1770063289.700305
7665.255000	13531.905000	21345.075000	16185.420000	-10467.495000	-7443.315000	1703.160000	12713.445000	-56.964125	-69.467379	-98.154873	-43.501173	-17.068245	-24.258873	3.410087	-38.064854	-21.058800	41.430900	16.724960	0.923460	-0.339110	0.104126	-1.000000	-1.000000	-1.000000	-1.000000	-1.000000	-1.000000	-1.000000	83.586207	0.000000	-1.000000	-1.000000	896858.000000	1770063289.700355
7667.280000	13544.820000	21364.380000	16203.825000	-10459.755000	-7453.620000	1701.810000	12710.880000	-30.304918	-29.073723	-44.214648	-20.811615	-16.788671	0.901011	45.332514	-19.367746	-21.058800	41.430900	16.724960	0.923460	-0.339110	0.104126	-1.000000	-1.000000	-1.000000	-1.000000	-1.000000	-1.000000	-1.000000	83.586207	0.000000	-1.000000	-1.000000	896859.000000	1770063289.700410
7672.725000	13552.380000	21377.655000	16214.805000	-10446.930000	-7439.400000	1709.595000	12710.970000	1.392190	16.333718	17.902107	-1.045582	-14.466861	24.721329	65.283592	1.901038	-21.058800	41.430900	16.724960	0.923460	-0.339110	0.104126	-1.000000	-1.000000	-1.000000	-1.000000	-1.000000	-1.000000	-1.000000	83.586207	0.000000	-1.000000	-1.000000	896860.000000	1770063289.700441
7675.695000	13554.630000	21387.420000	16222.095000	-10440.990000	-7436.520000	1699.695000	12712.680000	17.673416	39.806387	57.291446	5.382794	-15.889083	34.890355	59.172846	11.509989	0.610400	44.421860	-26.155640	0.850767	-0.448851	0.127258	-1.000000	-1.000000	-1.000000	-1.000000	-1.000000	-1.000000	-1.000000	83.586207	0.000000	-1.000000	-1.000000	896861.000000	1770063289.701863
7660.485000	13504.095000	21347.820000	16199.235000	-10455.345000	-7429.275000	1734.885000	12710.205000	17.249171	37.076853	63.404230	3.838266	-15.031408	31.567774	38.446076	10.072862	0.610400	44.421860	-26.155640	0.850767	-0.448851	0.127258	-1.000000	-1.000000	-1.000000	-1.000000	-1.000000	-1.000000	-1.000000	83.586207	0.000000	-1.000000	-1.000000	896862.000000	1770063289.701874
7642.395000	13567.275000	21413.880000	16223.445000	-10480.905000	-7457.805000	1731.780000	12665.790000	11.524600	21.766735	46.635910	5.491821	-3.916847	22.382799	17.343124	6.655441	0.610400	44.421860	-26.155640	0.850767	-0.448851	0.127258	-1.000000	-1.000000	-1.000000	-1.000000	-1.000000	-1.000000	-1.000000	83.586207	0.000000	-1.000000	-1.000000	896863.000000	1770063289.705976
7597.215000	13554.045000	21368.430000	16160.040000	-10535.265000	-7470.540000	1765.665000	12632.985000	9.459566	10.486315	24.927455	15.020394	14.949809	11.386330	0.031856	6.011387	0.610400	44.421860	-26.155640	0.850767	-0.448851	0.127258	-1.000000	-1.000000	-1.000000	-1.000000	-1.000000	-1.000000	-1.000000	83.586207	0.000000	-1.000000	-1.000000	896864.000000	1770063289.706008
7559.595000	13440.510000	21233.520000	16092.450000	-10510.290000	-7377.300000	1866.645000	12657.330000	9.328741	6.130531	5.033977	23.595645	28.925469	-1.629763	-15.647714	6.186956	0.610400	44.421860	-26.155640	0.850767	-0.448851	0.127258	-1.000000	-1.000000	-1.000000	-1.000000	-1.000000	-1.000000	-1.000000	83.586207	0.000000	-1.000000	-1.000000	896865.000000	1770063289.719589
7601.805000	13489.155000	21281.130000	16116.030000	-10507.230000	-7346.475000	1920.915000	12691.395000	5.971514	-0.733324	-16.784667	19.394919	28.662263	-12.877239	-26.661015	5.957444	0.610400	44.421860	-26.155640	0.850767	-0.448851	0.127258	-1.000000	-1.000000	-1.000000	-1.000000	-1.000000	-1.000000	-1.000000	83.586207	0.000000	-1.000000	-1.000000	896866.000000	1770063289.719596
7648.020000	13532.445000	21343.005000	16170.660000	-10427.085000	-7297.290000	1948.680000	12708.495000	1.372299	-11.387883	-35.359907	3.375729	16.497382	-16.287003	-27.922877	6.874336	0.610400	44.421860	-26.155640	0.850767	-0.448851	0.127258	-1.000000	-1.000000	-1.000000	-1.000000	-1.000000	-1.000000	-1.000000	83.586207	0.000000	-1.000000	-1.000000	896867.000000	1770063289.719604
7675.605000	13536.180000	21400.245000	16234.110000	-10380.555000	-7310.115000	1903.050000	12718.665000	0.377295	-17.519023	-37.285975	-12.477634	1.475940	-11.951887	-21.627193	8.096645	0.610400	44.421860	-26.155640	0.850767	-0.448851	0.127258	-1.000000	-1.000000	-1.000000	-1.000000	-1.000000	-1.000000	-1.000000	83.586207	0.000000	-1.000000	-1.000000	896868.000000	1770063289.719609
7656.210000	13456.215000	21397.005000	16229.925000	-10404.945000	-7335.180000	1913.985000	12737.700000	1.850254	-17.094360	-20.129345	-18.223072	-9.744692	-6.790116	-14.836012	6.313092	0.610400	44.421860	-26.155640	0.850767	-0.448851	0.127258	-1.000000	-1.000000	-1.000000	-1.000000	-1.000000	-1.000000	-1.000000	83.586207	0.000000	-1.000000	-1.000000	896869.000000	1770063289.719615
7647.255000	13504.905000	21387.195000	16241.445000	-10372.050000	-7311.555000	1934.010000	12760.155000	1.081600	-13.876433	4.023316	-13.109021	-15.500663	-6.524128	-10.182400	1.093285	0.610400	44.421860	-26.155640	0.850767	-0.448851	0.127258	-1.000000	-1.000000	-1.000000	-1.000000	-1.000000	-1.000000	-1.000000	83.586207	0.000000	-1.000000	-1.000000	896870.000000	1770063289.719619
7689.555000	13610.070000	21398.490000	16249.320000	-10366.200000	-7382.475000	1762.020000	12745.215000	-2.187562	-6.041265	21.410611	-2.166989	-14.641405	-9.786616	-7.263989	-4.147308	18.083100	35.616840	-38.134740	0.818601	-0.372314	0.193847	-1.000000	-1.000000	-1.000000	-1.000000	-1.000000	-1.000000	-1.000000	83.586207	0.000000	-1.000000	-1.000000	896871.000000	1770063289.721850
7671.780000	13588.155000	21387.105000	16221.555000	-10410.885000	-7440.165000	1707.300000	12692.475000	-3.122605	9.503038	25.584506	8.733496	-6.991580	-12.928207	-9.860656	-6.802768	18.083100	35.616840	-38.134740	0.818601	-0.372314	0.193847	-1.000000	-1.000000	-1.000000	-1.000000	-1.000000	-1.000000	-1.000000	83.586207	0.000000	-1.000000	-1.000000	896872.000000	1770063289.721864
7645.725000	13536.045000	21372.615000	16224.075000	-10382.625000	-7377.795000	1804.095000	12686.310000	0.085091	25.073111	18.181966	14.736672	2.669994	-14.134869	-17.895393	-7.936919	18.083100	35.616840	-38.134740	0.818601	-0.372314	0.193847	-1.000000	-1.000000	-1.000000	-1.000000	-1.000000	-1.000000	-1.000000	83.586207	0.000000	-1.000000	-1.000000	896873.000000	1770063289.725866
7639.695000	13568.670000	21413.340000	16239.150000	-10361.520000	-7345.890000	1847.115000	12687.570000	3.015347	28.948884	6.953321	14.394387	8.183304	-11.169958	-20.281361	-9.569351	18.083100	35.616840	-38.134740	0.818601	-0.372314	0.193847	-1.000000	-1.000000	-1.000000	-1.000000	-1.000000	-1.000000	-1.000000	83.586207	0.000000	-1.000000	-1.000000	896874.000000	1770063289.725876
7679.430000	13660.605000	21438.630000	16250.220000	-10355.670000	-7326.135000	1870.695000	12660.795000	1.336489	19.645357	-1.054434	8.493633	6.673183	-2.770570	-7.975720	-11.814885	18.083100	35.616840	-38.134740	0.818601	-0.372314	0.193847	-1.000000	-1.000000	-1.000000	-1.000000	-1.000000	-1.000000	-1.000000	83.586207	0.000000	-1.000000	-1.000000	896875.000000	1770063289.729883
7657.560000	13655.025000	21417.750000	16219.890000	-10384.110000	-7344.765000	1875.645000	12586.770000	-5.028412	4.080394	-6.540116	-3.395739	-2.474959	8.035637	15.189330	-14.267612	18.083100	35.616840	-38.134740	0.818601	-0.372314	0.193847	-1.000000	-1.000000	-1.000000	-1.000000	-1.000000	-1.000000	-1.000000	83.586207	0.000000	-1.000000	-1.000000	896876.000000	1770063289.729889
7722.720000	13615.785000	21397.005000	16195.005000	-10407.420000	-7351.830000	1911.960000	12643.830000	-12.375022	-11.766991	-14.282676	-20.276275	-17.061461	15.945094	38.078358	-15.625975	18.083100	35.616840	-38.134740	0.818601	-0.372314	0.193847	-1.000000	-1.000000	-1.000000	-1.000000	-1.000000	-1.000000	-1.000000	83.586207	0.000000	-1.000000	-1.000000	896877.000000	1770063289.733909
7743.870000	13571.460000	21366.585000	16184.790000	-10394.685000	-7317.990000	1975.365000	12737.655000	-14.015108	-24.426582	-23.904336	-34.930618	-28.819954	18.486440	51.098513	-10.330715	18.083100	35.616840	-38.134740	0.818601	-0.372314	0.193847	-1.000000	-1.000000	-1.000000	-1.000000	-1.000000	-1.000000	-1.000000	83.586207	0.000000	-1.000000	-1.000000	896878.000000	1770063289.733914
7723.935000	13557.870000	21366.495000	16188.165000	-10388.205000	-7323.030000	1972.215000	12768.705000	-6.512733	-31.651382	-28.380725	-36.851973	-27.571581	17.247595	50.034199	6.384453	18.083100	35.616840	-38.134740	0.818601	-0.372314	0.193847	-1.000000	-1.000000	-1.000000	-1.000000	-1.000000	-1.000000	-1.000000	83.586207	0.000000	-1.000000	-1.000000	896879.000000	1770063289.737950
7681.635000	13547.160000	21369.330000	16187.130000	-10392.705000	-7345.755000	1930.455000	12778.020000	4.159749	-32.838662	-21.506506	-21.299123	-10.556420	14.701279	36.190245	29.288816	18.083100	35.616840	-38.134740	0.818601	-0.372314	0.193847	-1.000000	-1.000000	-1.000000	-1.000000	-1.000000	-1.000000	-1.000000	83.586207	0.000000	-1.000000	-1.000000	896880.000000	1770063289.737961
7651.080000	13551.930000	21381.930000	16178.130000	-10423.170000	-7383.960000	1916.595000	12773.565000	9.148065	-26.285415	-3.856882	6.016920	14.507691	10.634024	12.697099	45.402724	6.088740	22.767920	-22.142260	0.835508	-0.212646	0.251891	-1.000000	-1.000000	-1.000000	-1.000000	-1.000000	-1.000000	-1.000000	83.586207	0.000000	-1.000000	-1.000000	896881.000000	1770063289.742612
7628.670000	13540.950000	21369.060000	16187.895000	-10398.195000	-7368.975000	1904.625000	12753.360000	6.332710	-9.357981	17.675779	32.454291	34.092420	1.662376	-18.170851	43.405634	6.088740	22.767920	-22.142260	0.835508	-0.212646	0.251891	-1.000000	-1.000000	-1.000000	-1.000000	-1.000000	-1.000000	-1.000000	83.586207	0.000000	-1.000000	-1.000000	896882.000000	1770063289.742618
7571.295000	13539.645000	21370.905000	16205.580000	-10369.440000	-7356.825000	1879.200000	12635.100000	-1.043046	13.427542	32.521904	45.772464	38.342904	-12.558566	-50.313423	19.558311	6.088740	22.767920	-22.142260	0.835508	-0.212646	0.251891	-1.000000	-1.000000	-1.000000	-1.000000	-1.000000	-1.000000	-1.000000	83.586207	0.000000	-1.000000	-1.000000	896883.000000	1770063289.746902
7681.635000	13592.655000	21415.005000	16236.810000	-10346.085000	-7357.185000	1895.445000	12585.870000	-8.175395	30.020451	32.736423	40.785016	27.586717	-25.053760	-70.477105	-18.840920	6.088740	22.767920	-22.142260	0.835508	-0.212646	0.251891	-1.000000	-1.000000	-1.000000	-1.000000	-1.000000	-1.000000	-1.000000	83.586207	0.000000	-1.000000	-1.000000	896884.000000	1770063289.746912
7761.870000	13659.885000	21488.220000	16296.435000	-10284.435000	-7282.890000	1991.610000	12697.875000	-7.658117	34.210452	21.103855	22.624174	10.285384	-26.400450	-64.591096	-51.753649	6.088740	22.767920	-22.142260	0.835508	-0.212646	0.251891	-1.000000	-1.000000	-1.000000	-1.000000	-1.000000	-1.000000	-1.000000	83.586207	0.000000	-1.000000	-1.000000	896885.000000	1770063289.749765
7687.980000	13649.760000	21510.360000	16321.230000	-10256.220000	-7244.145000	2029.815000	12698.640000	2.727310	30.760872	8.314556	2.879207	-3.261956	-12.258167	-29.907234	-58.425156	6.088740	22.767920	-22.142260	0.835508	-0.212646	0.251891	-1.000000	-1.000000	-1.000000	-1.000000	-1.000000	-1.000000	-1.000000	83.586207	0.000000	-1.000000	-1.000000	896886.000000	1770063289.749772
7539.120000	13564.935000	21431.295000	16244.280000	-10324.620000	-7281.495000	2017.215000	12566.880000	11.056226	23.470049	0.183663	-11.089525	-9.515456	10.213753	17.430779	-39.349898	6.088740	22.767920	-22.142260	0.835508	-0.212646	0.251891	-1.000000	-1.000000	-1.000000	-1.000000	-1.000000	-1.000000	-1.000000	83.586207	0.000000	-1.000000	-1.000000	896887.000000	1770063289.753851
7422.615000	13448.745000	21288.690000	16101.495000	-10447.695000	-7349.760000	1990.035000	12498.390000	3.501740	7.892850	-8.627548	-22.380776	-15.035317	25.177246	52.711824	-14.850957	6.088740	22.767920	-22.142260	0.835508	-0.212646	0.251891	-1.000000	-1.000000	-1.000000	-1.000000	-1.000000	-1.000000	-1.000000	83.586207	0.000000	-1.000000	-1.000000	896888.000000	1770063289.753860
7488.855000	13380.075000	21198.285000	15994.080000	-10547.370000	-7396.920000	2012.400000	12580.740000	-15.624366	-18.491214	-25.373771	-36.715719	-26.428342	22.291163	61.922774	1.850505	6.088740	22.767920	-22.142260	0.835508	-0.212646	0.251891	-1.000000	-1.000000	-1.000000	-1.000000	-1.000000	-1.000000	-1.000000	83.586207	0.000000	-1.000000	-1.000000	896889.000000	1770063289.761588
7668.360000	13446.585000	21255.795000	16052.670000	-10474.965000	-7312.005000	2149.020000	12777.345000	-23.215395	-43.897698	-44.038458	-49.016240	-38.240605	6.123444	48.438361	17.667587	6.088740	22.767920	-22.142260	0.835508	-0.212646	0.251891	-1.000000	-1.000000	-1.000000	-1.000000	-1.000000	-1.000000	-1.000000	83.586207	0.000000	-1.000000	-1.000000	896890.000000	1770063289.761594
7772.400000	13602.915000	21428.190000	16226.865000	-10321.335000	-7261.470000	2157.390000	12889.845000	-0.587294	-46.884545	-44.672290	-42.693540	-34.758102	-8.921169	25.308319	43.761183	-40.789980	17.732120	-9.186520	0.855711	-0.092407	0.262145	-1.000000	-1.000000	-1.000000	-1.000000	-1.000000	-1.000000	-1.000000	83.586207	0.000000	-1.000000	-1.000000	896891.000000	1770063289.762011
7785.180000	13692.735000	21554.955000	16381.485000	-10182.555000	-7235.190000	2003.265000	12826.395000	42.208785	-17.467370	-13.578982	-6.806691	-5.960390	-12.209889	0.752395	73.847771	-40.789980	17.732120	-9.186520	0.855711	-0.092407	0.262145	-1.000000	-1.000000	-1.000000	-1.000000	-1.000000	-1.000000	-1.000000	83.586207	0.000000	-1.000000	-1.000000	896892.000000	1770063289.762026
7708.410000	13628.115000	21480.345000	16307.910000	-10259.820000	-7352.730000	1810.080000	12742.650000	69.416083	26.815649	35.289588	44.596022	36.259654	-6.727207	-28.468322	82.509196	-40.789980	17.732120	-9.186520	0.855711	-0.092407	0.262145	-1.000000	-1.000000	-1.000000	-1.000000	-1.000000	-1.000000	-1.000000	83.586207	0.000000	-1.000000	-1.000000	896893.000000	1770063289.765924
7604.100000	13489.875000	21328.425000	16149.555000	-10404.315000	-7460.595000	1786.995000	12735.360000	50.852136	51.432193	64.771341	74.847453	60.380465	-6.050554	-63.308026	48.675045	-40.789980	17.732120	-9.186520	0.855711	-0.092407	0.262145	-1.000000	-1.000000	-1.000000	-1.000000	-1.000000	-1.000000	-1.000000	83.586207	0.000000	-1.000000	-1.000000	896894.000000	1770063289.765934
7614.450000	13483.710000	21317.895000	16136.370000	-10408.770000	-7432.065000	1848.870000	12734.595000	-6.765425	37.118051	49.314275	57.404014	43.919074	-17.140135	-86.686120	-17.926192	-40.789980	17.732120	-9.186520	0.855711	-0.092407	0.262145	-1.000000	-1.000000	-1.000000	-1.000000	-1.000000	-1.000000	-1.000000	83.586207	0.000000	-1.000000	-1.000000	896895.000000	1770063289.774318
7589.655000	13463.640000	21307.725000	16139.340000	-10386.855000	-7388.550000	1898.235000	12700.485000	-62.311527	-0.963115	3.142628	6.040139	0.122785	-27.307511	-73.599861	-79.236633	-40.789980	17.732120	-9.186520	0.855711	-0.092407	0.262145	-1.000000	-1.000000	-1.000000	-1.000000	-1.000000	-1.000000	-1.000000	83.586207	0.000000	-1.000000	-1.000000	896896.000000	1770063289.774328
7583.670000	13481.910000	21327.120000	16154.730000	-10364.265000	-7352.190000	1932.705000	12708.135000	-78.235894	-30.276947	-34.883000	-38.017979	-34.080237	-17.396548	-18.452759	-100.744554	-40.789980	17.732120	-9.186520	0.855711	-0.092407	0.262145	-1.000000	-1.000000	-1.000000	-1.000000	-1.000000	-1.000000	-1.000000	83.586207	0.000000	-1.000000	-1.000000	896897.000000	1770063289.774758
7624.080000	13529.655000	21351.060000	16167.285000	-10347.615000	-7326.045000	1957.905000	12732.030000	-51.748971	-30.900623	-38.906615	-45.733629	-34.618140	14.042095	52.936577	-77.858910	-40.789980	17.732120	-9.186520	0.855711	-0.092407	0.262145	-1.000000	-1.000000	-1.000000	-1.000000	-1.000000	-1.000000	-1.000000	83.586207	0.000000	-1.000000	-1.000000	896898.000000	1770063289.774765
7714.035000	13576.410000	21392.685000	16206.930000	-10308.195000	-7289.325000	1995.480000	12802.230000	-8.092492	-8.299982	-14.580344	-21.962644	-9.533669	46.472752	100.447882	-32.396592	-40.789980	17.732120	-9.186520	0.855711	-0.092407	0.262145	-1.000000	-1.000000	-1.000000	-1.000000	-1.000000	-1.000000	-1.000000	83.586207	0.000000	-1.000000	-1.000000	896899.000000	1770063289.780903
