Channel1	Channel2	Channel3	Channel4	Channel5	Channel6	Channel7	Channel8	FilteredChannel1	FilteredChannel2	FilteredChannel3	FilteredChannel4	FilteredChannel5	FilteredChannel6	FilteredChannel7	FilteredChannel8	GyroX	GyroY	GyroZ	AccX	AccY	AccZ	PPG1	PPG2	rawPPG1	rawPPG2	rawPPG3	Hr	Hrv	Battery	Trigger	PhysicalTrigger	AutoTrigger	NumMeasurements	Timestamp
6745.275000	14757.750000	22710.960000	9678.330000	-14423.490000	6564.960000	-2225.880000	910.080000	9.474961	0.026395	-1.717496	-1.550486	7.360713	15.508075	-3.946361	10.789703	-4.974760	2.227960	-2.182180	0.928037	-0.338683	0.199462	-1.000000	-1.000000	-1.000000	-1.000000	-1.000000	-1.000000	-1.000000	68.137931	0.000000	-1.000000	-1.000000	1468665.000000	1773690494.300320
6736.500000	14760.810000	22713.300000	9681.300000	-14415.345000	6578.730000	-2220.660000	917.280000	16.279391	1.822992	-0.530874	-0.995103	4.054486	10.025427	-5.350522	10.906317	-4.974760	2.227960	-2.182180	0.928037	-0.338683	0.199462	-1.000000	-1.000000	-1.000000	-1.000000	-1.000000	-1.000000	-1.000000	68.137931	0.000000	-1.000000	-1.000000	1468666.000000	1773690494.300332
6729.390000	14767.560000	22713.255000	9679.995000	-14411.070000	6586.470000	-2223.585000	927.720000	13.816936	2.356942	0.742757	-0.326951	0.538477	3.191174	-4.262437	7.637101	-4.974760	2.227960	-2.182180	0.928037	-0.338683	0.199462	-1.000000	-1.000000	-1.000000	-1.000000	-1.000000	-1.000000	-1.000000	68.137931	0.000000	-1.000000	-1.000000	1468667.000000	1773690494.303015
6731.685000	14770.890000	22683.105000	9670.860000	-14406.795000	6601.995000	-2221.155000	937.845000	3.907926	2.685329	2.012297	0.400514	-0.117956	1.304377	-1.386600	3.593879	-4.974760	2.227960	-2.182180	0.928037	-0.338683	0.199462	-1.000000	-1.000000	-1.000000	-1.000000	-1.000000	-1.000000	-1.000000	68.137931	0.000000	-1.000000	-1.000000	1468668.000000	1773690494.303024
6731.460000	14768.370000	22665.105000	9668.745000	-14413.815000	6598.035000	-2216.205000	934.695000	-6.870522	3.288528	2.021088	0.939932	1.452263	3.685336	1.828420	0.310104	-4.974760	2.227960	-2.182180	0.928037	-0.338683	0.199462	-1.000000	-1.000000	-1.000000	-1.000000	-1.000000	-1.000000	-1.000000	68.137931	0.000000	-1.000000	-1.000000	1468669.000000	1773690494.313804
6714.090000	14757.345000	22699.755000	9680.085000	-14422.365000	6572.925000	-2216.655000	912.555000	-12.700503	3.334733	0.723299	1.219857	1.656426	3.554413	3.851937	-2.575795	-4.974760	2.227960	-2.182180	0.928037	-0.338683	0.199462	-1.000000	-1.000000	-1.000000	-1.000000	-1.000000	-1.000000	-1.000000	68.137931	0.000000	-1.000000	-1.000000	1468670.000000	1773690494.313816
6711.435000	14765.715000	22731.660000	9685.620000	-14435.370000	6536.070000	-2218.320000	907.155000	-12.791406	2.298052	1.311420	2.009862	-1.552042	-3.680072	3.866317	-6.238668	-1.190280	2.014320	-1.953280	0.927305	-0.337707	0.199340	-1.000000	-1.000000	-1.000000	-1.000000	-1.000000	-1.000000	-1.000000	68.137931	0.000000	-1.000000	-1.000000	1468671.000000	1773690494.313829
6716.520000	14785.020000	22771.800000	9703.035000	-14430.015000	6543.045000	-2226.285000	908.505000	-10.109856	0.945534	6.193003	3.813892	-6.218201	-14.758374	2.359131	-10.038619	-1.190280	2.014320	-1.953280	0.927305	-0.337707	0.199340	-1.000000	-1.000000	-1.000000	-1.000000	-1.000000	-1.000000	-1.000000	68.137931	0.000000	-1.000000	-1.000000	1468672.000000	1773690494.313835
6725.970000	14791.635000	22757.265000	9703.170000	-14418.990000	6562.485000	-2223.720000	914.715000	-6.788522	0.414790	12.498014	5.632588	-8.524873	-21.426144	0.448084	-10.942891	-1.190280	2.014320	-1.953280	0.927305	-0.337707	0.199340	-1.000000	-1.000000	-1.000000	-1.000000	-1.000000	-1.000000	-1.000000	68.137931	0.000000	-1.000000	-1.000000	1468673.000000	1773690494.316126
6717.285000	14776.335000	22735.035000	9692.505000	-14422.770000	6566.535000	-2221.695000	906.210000	-2.924457	0.501336	13.675451	5.341078	-6.466355	-17.956044	-1.102974	-6.934326	-1.190280	2.014320	-1.953280	0.927305	-0.337707	0.199340	-1.000000	-1.000000	-1.000000	-1.000000	-1.000000	-1.000000	-1.000000	68.137931	0.000000	-1.000000	-1.000000	1468674.000000	1773690494.316137
6709.815000	14762.205000	22718.880000	9687.195000	-14421.330000	6573.510000	-2217.690000	905.085000	1.414943	-0.618873	5.600423	1.445309	-1.474138	-5.743995	-1.964849	0.114145	-1.190280	2.014320	-1.953280	0.927305	-0.337707	0.199340	-1.000000	-1.000000	-1.000000	-1.000000	-1.000000	-1.000000	-1.000000	68.137931	0.000000	-1.000000	-1.000000	1468675.000000	1773690494.321907
6709.455000	14763.060000	22704.120000	9685.485000	-14414.445000	6584.130000	-2213.325000	909.405000	5.472562	-3.851363	-8.649964	-4.747184	3.587416	8.961014	-1.882543	6.157343	-1.190280	2.014320	-1.953280	0.927305	-0.337707	0.199340	-1.000000	-1.000000	-1.000000	-1.000000	-1.000000	-1.000000	-1.000000	68.137931	0.000000	-1.000000	-1.000000	1468676.000000	1773690494.321917
6706.080000	14757.795000	22701.825000	9680.310000	-14413.905000	6588.270000	-2211.345000	906.750000	8.276358	-7.357775	-20.490660	-9.586733	6.757907	19.419144	-0.865409	8.503992	-1.190280	2.014320	-1.953280	0.927305	-0.337707	0.199340	-1.000000	-1.000000	-1.000000	-1.000000	-1.000000	-1.000000	-1.000000	68.137931	0.000000	-1.000000	-1.000000	1468677.000000	1773690494.325830
6700.680000	14765.085000	22716.675000	9692.595000	-14406.795000	6593.760000	-2204.145000	910.125000	9.092351	-8.169886	-22.498644	-10.163354	7.230434	21.272366	0.424754	7.278874	-1.190280	2.014320	-1.953280	0.927305	-0.337707	0.199340	-1.000000	-1.000000	-1.000000	-1.000000	-1.000000	-1.000000	-1.000000	68.137931	0.000000	-1.000000	-1.000000	1468678.000000	1773690494.325840
6708.600000	14777.595000	22715.145000	9705.285000	-14394.420000	6602.220000	-2197.890000	912.645000	7.951521	-4.547174	-14.160221	-6.093154	5.571799	15.143277	1.298347	4.605117	-1.190280	2.014320	-1.953280	0.927305	-0.337707	0.199340	-1.000000	-1.000000	-1.000000	-1.000000	-1.000000	-1.000000	-1.000000	68.137931	0.000000	-1.000000	-1.000000	1468679.000000	1773690494.327070
6733.215000	14778.720000	22723.425000	9707.850000	-14402.880000	6589.530000	-2208.555000	916.155000	5.635299	2.250688	-1.775225	0.539852	3.208870	5.754831	1.573671	2.414184	-1.190280	2.014320	-1.953280	0.927305	-0.337707	0.199340	-1.000000	-1.000000	-1.000000	-1.000000	-1.000000	-1.000000	-1.000000	68.137931	0.000000	-1.000000	-1.000000	1468680.000000	1773690494.327080
6740.910000	14784.660000	22747.770000	9710.505000	-14407.200000	6585.480000	-2216.790000	908.235000	2.966490	8.061317	7.747857	6.114641	0.486225	-3.124254	1.051123	0.887477	-3.036740	1.907500	-2.090620	0.926206	-0.330443	0.198913	-1.000000	-1.000000	-1.000000	-1.000000	-1.000000	-1.000000	-1.000000	68.137931	0.000000	-1.000000	-1.000000	1468681.000000	1773690494.335717
6734.655000	14785.785000	22757.310000	9702.945000	-14408.460000	6591.105000	-2216.070000	899.055000	0.015270	9.455068	12.432900	7.795706	-3.073712	-10.377100	-0.455267	-0.903169	-3.036740	1.907500	-2.090620	0.926206	-0.330443	0.198913	-1.000000	-1.000000	-1.000000	-1.000000	-1.000000	-1.000000	-1.000000	68.137931	0.000000	-1.000000	-1.000000	1468682.000000	1773690494.335728
6736.140000	14782.680000	22763.655000	9705.150000	-14419.170000	6583.635000	-2215.530000	896.445000	-3.314276	6.608593	13.948653	5.496518	-6.787932	-14.967382	-2.383322	-3.254647	-3.036740	1.907500	-2.090620	0.926206	-0.330443	0.198913	-1.000000	-1.000000	-1.000000	-1.000000	-1.000000	-1.000000	-1.000000	68.137931	0.000000	-1.000000	-1.000000	1468683.000000	1773690494.335739
6722.370000	14777.010000	22751.280000	9705.420000	-14421.690000	6578.280000	-2216.970000	903.645000	-6.184496	1.954279	13.204138	1.446367	-8.941594	-15.466280	-3.602622	-5.116526	-3.036740	1.907500	-2.090620	0.926206	-0.330443	0.198913	-1.000000	-1.000000	-1.000000	-1.000000	-1.000000	-1.000000	-1.000000	68.137931	0.000000	-1.000000	-1.000000	1468684.000000	1773690494.335744
6726.870000	14796.180000	22759.065000	9709.200000	-14420.385000	6573.285000	-2214.315000	921.960000	-7.509903	-2.059915	9.742054	-1.721076	-8.232889	-11.747977	-3.328954	-4.966742	-3.036740	1.907500	-2.090620	0.926206	-0.330443	0.198913	-1.000000	-1.000000	-1.000000	-1.000000	-1.000000	-1.000000	-1.000000	68.137931	0.000000	-1.000000	-1.000000	1468685.000000	1773690494.342575
6721.605000	14784.930000	22746.465000	9702.585000	-14416.515000	6587.820000	-2201.985000	931.815000	-6.741331	-3.932944	3.677659	-2.783325	-4.566744	-5.196374	-1.496515	-2.097052	-3.036740	1.907500	-2.090620	0.926206	-0.330443	0.198913	-1.000000	-1.000000	-1.000000	-1.000000	-1.000000	-1.000000	-1.000000	68.137931	0.000000	-1.000000	-1.000000	1468686.000000	1773690494.342586
6719.985000	14779.935000	22746.600000	9712.755000	-14395.185000	6609.060000	-2197.890000	929.385000	-3.995503	-3.965338	-3.994585	-2.406724	0.988566	2.648218	1.279389	2.329454	-3.036740	1.907500	-2.090620	0.926206	-0.330443	0.198913	-1.000000	-1.000000	-1.000000	-1.000000	-1.000000	-1.000000	-1.000000	68.137931	0.000000	-1.000000	-1.000000	1468687.000000	1773690494.343028
6728.805000	14790.780000	22753.710000	9716.805000	-14391.045000	6606.855000	-2203.560000	927.495000	-0.476772	-3.542634	-11.294910	-1.755050	6.722768	10.292199	3.722286	5.491678	-3.036740	1.907500	-2.090620	0.926206	-0.330443	0.198913	-1.000000	-1.000000	-1.000000	-1.000000	-1.000000	-1.000000	-1.000000	68.137931	0.000000	-1.000000	-1.000000	1468688.000000	1773690494.343037
6734.880000	14792.085000	22755.285000	9720.000000	-14385.150000	6621.120000	-2195.640000	936.000000	2.023067	-3.149463	-15.461734	-1.240967	10.628404	15.459663	4.779161	5.308732	-3.036740	1.907500	-2.090620	0.926206	-0.330443	0.198913	-1.000000	-1.000000	-1.000000	-1.000000	-1.000000	-1.000000	-1.000000	68.137931	0.000000	-1.000000	-1.000000	1468689.000000	1773690494.347650
6738.480000	14791.275000	22748.850000	9709.605000	-14393.115000	6619.860000	-2193.390000	947.385000	2.641356	-2.448114	-14.967156	-0.857845	10.864569	15.773082	4.497116	2.569567	-3.036740	1.907500	-2.090620	0.926206	-0.330443	0.198913	-1.000000	-1.000000	-1.000000	-1.000000	-1.000000	-1.000000	-1.000000	68.137931	0.000000	-1.000000	-1.000000	1468690.000000	1773690494.347661
6744.420000	14789.970000	22742.505000	9701.955000	-14407.200000	6608.790000	-2190.195000	951.255000	2.191872	-1.255192	-10.347781	-0.669412	6.683171	10.248816	3.246146	-0.159536	-4.791640	3.677660	-2.884140	0.924619	-0.325256	0.197021	-1.000000	-1.000000	-1.000000	-1.000000	-1.000000	-1.000000	-1.000000	68.137931	0.000000	-1.000000	-1.000000	1468691.000000	1773690494.351076
6737.535000	14785.425000	22741.110000	9704.655000	-14417.010000	6580.845000	-2193.075000	938.160000	2.042529	0.401533	-3.160083	-0.589387	-0.604268	0.202450	1.064090	-1.627329	-4.791640	3.677660	-2.884140	0.924619	-0.325256	0.197021	-1.000000	-1.000000	-1.000000	-1.000000	-1.000000	-1.000000	-1.000000	68.137931	0.000000	-1.000000	-1.000000	1468692.000000	1773690494.351084
6738.345000	14787.405000	22746.735000	9714.060000	-14397.120000	6605.730000	-2189.700000	933.480000	2.504102	2.097227	4.831363	-0.087028	-7.476841	-10.241071	-1.705191	-2.940442	-4.791640	3.677660	-2.884140	0.924619	-0.325256	0.197021	-1.000000	-1.000000	-1.000000	-1.000000	-1.000000	-1.000000	-1.000000	68.137931	0.000000	-1.000000	-1.000000	1468693.000000	1773690494.355074
6738.210000	14792.715000	22749.030000	9715.320000	-14395.365000	6611.400000	-2184.840000	933.885000	2.831053	3.064287	11.642638	1.324510	-10.112461	-15.551123	-4.106862	-5.218783	-4.791640	3.677660	-2.884140	0.924619	-0.325256	0.197021	-1.000000	-1.000000	-1.000000	-1.000000	-1.000000	-1.000000	-1.000000	68.137931	0.000000	-1.000000	-1.000000	1468694.000000	1773690494.355085
6739.155000	14793.120000	22744.395000	9704.880000	-14414.535000	6593.670000	-2187.135000	942.975000	2.392115	3.103870	14.977574	2.951170	-7.912753	-13.515731	-5.326754	-7.292144	-4.791640	3.677660	-2.884140	0.924619	-0.325256	0.197021	-1.000000	-1.000000	-1.000000	-1.000000	-1.000000	-1.000000	-1.000000	68.137931	0.000000	-1.000000	-1.000000	1468695.000000	1773690494.363765
6738.570000	14791.725000	22732.110000	9695.520000	-14422.230000	6581.745000	-2197.620000	942.435000	1.115953	2.558067	13.028547	2.928299	-4.170605	-7.439208	-5.311479	-6.708430	-4.791640	3.677660	-2.884140	0.924619	-0.325256	0.197021	-1.000000	-1.000000	-1.000000	-1.000000	-1.000000	-1.000000	-1.000000	68.137931	0.000000	-1.000000	-1.000000	1468696.000000	1773690494.363777
6733.125000	14791.230000	22721.535000	9695.610000	-14410.845000	6596.505000	-2195.865000	931.275000	-1.060685	1.336786	5.799939	0.343517	-1.715409	-1.463776	-4.239786	-2.874383	-4.791640	3.677660	-2.884140	0.924619	-0.325256	0.197021	-1.000000	-1.000000	-1.000000	-1.000000	-1.000000	-1.000000	-1.000000	68.137931	0.000000	-1.000000	-1.000000	1468697.000000	1773690494.363791
6728.940000	14787.855000	22723.785000	9701.010000	-14401.080000	6610.725000	-2196.855000	927.675000	-4.012382	-0.693485	-3.888377	-3.058606	0.088984	3.359252	-2.092895	1.882018	-4.791640	3.677660	-2.884140	0.924619	-0.325256	0.197021	-1.000000	-1.000000	-1.000000	-1.000000	-1.000000	-1.000000	-1.000000	68.137931	0.000000	-1.000000	-1.000000	1468698.000000	1773690494.363796
6718.005000	14765.805000	22739.220000	9708.525000	-14394.555000	6624.360000	-2203.155000	915.570000	-6.661819	-3.049260	-10.876825	-4.142782	3.025212	7.494963	0.642569	4.661211	-4.791640	3.677660	-2.884140	0.924619	-0.325256	0.197021	-1.000000	-1.000000	-1.000000	-1.000000	-1.000000	-1.000000	-1.000000	68.137931	0.000000	-1.000000	-1.000000	1468699.000000	1773690494.367016
6719.805000	14778.945000	22753.035000	9709.605000	-14405.265000	6613.920000	-2206.305000	915.930000	-7.339243	-4.698428	-10.802841	-1.456367	6.932162	10.650763	2.807038	4.571042	-4.791640	3.677660	-2.884140	0.924619	-0.325256	0.197021	-1.000000	-1.000000	-1.000000	-1.000000	-1.000000	-1.000000	-1.000000	68.137931	0.000000	-1.000000	-1.000000	1468700.000000	1773690494.367025
6724.530000	14788.710000	22747.680000	9710.145000	-14404.905000	6602.310000	-2199.465000	930.060000	-4.773834	-4.035925	-3.960378	3.086786	9.401684	11.302966	3.744243	3.267208	-6.882260	4.242280	-2.746800	0.921873	-0.324645	0.194580	-1.000000	-1.000000	-1.000000	-1.000000	-1.000000	-1.000000	-1.000000	68.137931	0.000000	-1.000000	-1.000000	1468701.000000	1773690494.373849
6721.605000	14788.125000	22742.685000	9705.825000	-14411.205000	6576.120000	-2194.245000	929.205000	0.657462	-0.546913	4.446350	5.870413	7.848121	7.348897	3.812995	2.927734	-6.882260	4.242280	-2.746800	0.921873	-0.324645	0.194580	-1.000000	-1.000000	-1.000000	-1.000000	-1.000000	-1.000000	-1.000000	68.137931	0.000000	-1.000000	-1.000000	1468702.000000	1773690494.373861
6679.890000	14797.080000	22754.475000	9717.705000	-14397.570000	6589.530000	-2193.480000	901.080000	5.855497	3.787840	8.868108	5.050067	2.418340	-1.085820	3.417389	3.192634	-6.882260	4.242280	-2.746800	0.921873	-0.324645	0.194580	-1.000000	-1.000000	-1.000000	-1.000000	-1.000000	-1.000000	-1.000000	68.137931	0.000000	-1.000000	-1.000000	1468703.000000	1773690494.375237
6693.930000	14803.965000	22762.350000	9725.175000	-14388.120000	6600.240000	-2197.305000	864.675000	7.172153	6.523529	7.919630	2.059666	-3.278453	-9.201035	2.503857	1.294271	-6.882260	4.242280	-2.746800	0.921873	-0.324645	0.194580	-1.000000	-1.000000	-1.000000	-1.000000	-1.000000	-1.000000	-1.000000	68.137931	0.000000	-1.000000	-1.000000	1468704.000000	1773690494.375248
6745.365000	14804.685000	22759.920000	9720.450000	-14391.765000	6601.095000	-2193.525000	874.845000	5.224211	6.562032	3.840556	-0.630379	-5.706753	-11.295123	1.238040	-3.551932	-6.882260	4.242280	-2.746800	0.921873	-0.324645	0.194580	-1.000000	-1.000000	-1.000000	-1.000000	-1.000000	-1.000000	-1.000000	68.137931	0.000000	-1.000000	-1.000000	1468705.000000	1773690494.381734
6763.230000	14776.920000	22728.960000	9691.425000	-14414.400000	6589.080000	-2197.485000	928.215000	4.397122	3.588603	-1.189535	-2.598144	-5.238515	-7.077034	0.081011	-6.913600	-6.882260	4.242280	-2.746800	0.921873	-0.324645	0.194580	-1.000000	-1.000000	-1.000000	-1.000000	-1.000000	-1.000000	-1.000000	68.137931	0.000000	-1.000000	-1.000000	1468706.000000	1773690494.381744
6749.820000	14752.710000	22702.905000	9664.470000	-14441.850000	6568.875000	-2209.545000	964.710000	6.173164	-2.052385	-6.712070	-5.296646	-5.070134	-1.589742	-1.004993	-3.039904	-6.882260	4.242280	-2.746800	0.921873	-0.324645	0.194580	-1.000000	-1.000000	-1.000000	-1.000000	-1.000000	-1.000000	-1.000000	68.137931	0.000000	-1.000000	-1.000000	1468707.000000	1773690494.383155
6721.245000	14751.855000	22704.480000	9669.195000	-14433.795000	6577.965000	-2209.680000	954.450000	6.734402	-8.121075	-11.980135	-8.750790	-6.478498	0.895919	-2.271660	7.400413	-6.882260	4.242280	-2.746800	0.921873	-0.324645	0.194580	-1.000000	-1.000000	-1.000000	-1.000000	-1.000000	-1.000000	-1.000000	68.137931	0.000000	-1.000000	-1.000000	1468708.000000	1773690494.383165
6718.860000	14761.620000	22716.675000	9685.665000	-14419.305000	6588.405000	-2203.065000	942.795000	2.243986	-10.928256	-13.995209	-9.879128	-6.599013	1.234433	-3.156549	16.092367	-6.882260	4.242280	-2.746800	0.921873	-0.324645	0.194580	-1.000000	-1.000000	-1.000000	-1.000000	-1.000000	-1.000000	-1.000000	68.137931	0.000000	-1.000000	-1.000000	1468709.000000	1773690494.388783
6733.035000	14782.230000	22736.205000	9699.795000	-14418.765000	6578.730000	-2199.555000	940.320000	-5.860637	-8.129549	-9.435350	-5.556607	-2.425420	2.595152	-2.783389	14.922476	-6.882260	4.242280	-2.746800	0.921873	-0.324645	0.194580	-1.000000	-1.000000	-1.000000	-1.000000	-1.000000	-1.000000	-1.000000	68.137931	0.000000	-1.000000	-1.000000	1468710.000000	1773690494.388790
6730.425000	14788.890000	22740.660000	9698.805000	-14423.355000	6576.120000	-2199.015000	920.475000	-11.873348	-0.617159	1.274444	3.260440	4.577683	5.317114	-1.268126	3.534813	-5.035800	5.310480	-1.617560	0.925046	-0.329345	0.195861	-1.000000	-1.000000	-1.000000	-1.000000	-1.000000	-1.000000	-1.000000	68.137931	0.000000	-1.000000	-1.000000	1468711.000000	1773690494.391358
6721.155000	14780.205000	22734.720000	9695.610000	-14419.980000	6583.500000	-2198.475000	919.080000	-11.471317	7.539606	12.596703	11.468194	9.876854	6.982360	0.448084	-10.830425	-5.035800	5.310480	-1.617560	0.925046	-0.329345	0.195861	-1.000000	-1.000000	-1.000000	-1.000000	-1.000000	-1.000000	-1.000000	68.137931	0.000000	-1.000000	-1.000000	1468712.000000	1773690494.391388
6709.005000	14780.070000	22737.555000	9701.055000	-14404.455000	6610.635000	-2195.865000	901.845000	-6.104500	11.417982	17.820206	14.085513	10.569348	6.128728	1.704534	-19.418315	-5.035800	5.310480	-1.617560	0.925046	-0.329345	0.195861	-1.000000	-1.000000	-1.000000	-1.000000	-1.000000	-1.000000	-1.000000	68.137931	0.000000	-1.000000	-1.000000	1468713.000000	1773690494.395042
6713.145000	14780.070000	22739.895000	9705.420000	-14393.205000	6632.640000	-2192.445000	900.000000	-1.329480	9.225728	14.764480	10.484599	7.587539	3.980497	2.369827	-18.775904	-5.035800	5.310480	-1.617560	0.925046	-0.329345	0.195861	-1.000000	-1.000000	-1.000000	-1.000000	-1.000000	-1.000000	-1.000000	68.137931	0.000000	-1.000000	-1.000000	1468714.000000	1773690494.395052
6732.585000	14779.035000	22733.595000	9698.085000	-14408.190000	6610.095000	-2198.205000	923.310000	-0.022413	3.728435	6.836195	4.116574	3.687941	2.071734	2.410730	-11.937758	-5.035800	5.310480	-1.617560	0.925046	-0.329345	0.195861	-1.000000	-1.000000	-1.000000	-1.000000	-1.000000	-1.000000	-1.000000	68.137931	0.000000	-1.000000	-1.000000	1468715.000000	1773690494.399806
6742.035000	14774.085000	22723.740000	9688.140000	-14421.240000	6581.295000	-2200.455000	943.470000	0.641771	-0.838937	-1.148425	-1.403739	0.247499	-0.508346	1.810532	-3.178792	-5.035800	5.310480	-1.617560	0.925046	-0.329345	0.195861	-1.000000	-1.000000	-1.000000	-1.000000	-1.000000	-1.000000	-1.000000	68.137931	0.000000	-1.000000	-1.000000	1468716.000000	1773690494.399814
6731.820000	14775.075000	22726.485000	9691.470000	-14420.880000	6578.910000	-2199.555000	929.745000	3.993014	-2.747520	-6.742809	-4.991811	-3.103585	-5.270408	0.681930	5.280112	-5.035800	5.310480	-1.617560	0.925046	-0.329345	0.195861	-1.000000	-1.000000	-1.000000	-1.000000	-1.000000	-1.000000	-1.000000	68.137931	0.000000	-1.000000	-1.000000	1468717.000000	1773690494.403037
6725.070000	14780.385000	22730.715000	9698.580000	-14417.505000	6588.990000	-2196.225000	916.830000	8.506891	-3.241158	-9.643408	-7.152313	-6.444833	-10.498550	-0.762142	11.407430	-5.035800	5.310480	-1.617560	0.925046	-0.329345	0.195861	-1.000000	-1.000000	-1.000000	-1.000000	-1.000000	-1.000000	-1.000000	68.137931	0.000000	-1.000000	-1.000000	1468718.000000	1773690494.403044
6721.920000	14776.920000	22695.570000	9687.285000	-14428.890000	6573.600000	-2195.775000	915.840000	9.765621	-4.038291	-10.503644	-8.168932	-8.655609	-12.140613	-2.147252	12.962979	-5.035800	5.310480	-1.617560	0.925046	-0.329345	0.195861	-1.000000	-1.000000	-1.000000	-1.000000	-1.000000	-1.000000	-1.000000	68.137931	0.000000	-1.000000	-1.000000	1468719.000000	1773690494.409950
6724.980000	14775.750000	22646.880000	9668.790000	-14426.280000	6581.655000	-2189.115000	934.605000	6.214890	-5.368173	-10.941099	-8.083353	-8.507695	-8.420092	-2.848739	10.383645	-5.035800	5.310480	-1.617560	0.925046	-0.329345	0.195861	-1.000000	-1.000000	-1.000000	-1.000000	-1.000000	-1.000000	-1.000000	68.137931	0.000000	-1.000000	-1.000000	1468720.000000	1773690494.409962
6720.660000	14770.395000	22678.155000	9671.220000	-14426.595000	6586.110000	-2187.495000	938.655000	0.522608	-5.983494	-11.188541	-6.899693	-5.836952	-1.450747	-2.290362	6.821301	0.030520	5.203660	-0.091560	0.930357	-0.340209	0.195800	-1.000000	-1.000000	-1.000000	-1.000000	-1.000000	-1.000000	-1.000000	68.137931	0.000000	-1.000000	-1.000000	1468721.000000	1773690494.412646
6717.780000	14776.110000	22725.495000	9687.150000	-14420.475000	6588.405000	-2195.640000	931.320000	-4.226140	-4.595191	-7.537437	-4.023825	-1.743210	4.815481	-0.775561	4.248821	0.030520	5.203660	-0.091560	0.930357	-0.340209	0.195800	-1.000000	-1.000000	-1.000000	-1.000000	-1.000000	-1.000000	-1.000000	68.137931	0.000000	-1.000000	-1.000000	1468722.000000	1773690494.412658
6728.175000	14798.070000	22792.860000	9714.645000	-14409.225000	6598.170000	-2199.105000	918.045000	-6.892705	-0.748432	3.904947	1.451672	2.491376	7.601020	0.467672	1.263577	0.030520	5.203660	-0.091560	0.930357	-0.340209	0.195800	-1.000000	-1.000000	-1.000000	-1.000000	-1.000000	-1.000000	-1.000000	68.137931	0.000000	-1.000000	-1.000000	1468723.000000	1773690494.416296
6730.650000	14799.915000	22793.310000	9719.325000	-14415.120000	6593.445000	-2200.095000	909.360000	-7.295323	4.968209	20.571627	9.045989	6.373467	7.467884	0.777215	-4.536517	0.030520	5.203660	-0.091560	0.930357	-0.340209	0.195800	-1.000000	-1.000000	-1.000000	-1.000000	-1.000000	-1.000000	-1.000000	68.137931	0.000000	-1.000000	-1.000000	1468724.000000	1773690494.416307
6726.870000	14797.485000	22772.430000	9714.735000	-14419.575000	6590.385000	-2201.805000	916.740000	-5.438801	10.092454	32.239734	15.359703	9.113399	6.639353	0.642593	-12.085705	0.030520	5.203660	-0.091560	0.930357	-0.340209	0.195800	-1.000000	-1.000000	-1.000000	-1.000000	-1.000000	-1.000000	-1.000000	68.137931	0.000000	-1.000000	-1.000000	1468725.000000	1773690494.419071
6728.535000	14805.450000	22774.770000	9733.320000	-14414.715000	6601.230000	-2192.040000	914.220000	-1.790588	11.205006	28.747541	15.897630	9.037421	5.751741	0.664559	-16.134039	0.030520	5.203660	-0.091560	0.930357	-0.340209	0.195800	-1.000000	-1.000000	-1.000000	-1.000000	-1.000000	-1.000000	-1.000000	68.137931	0.000000	-1.000000	-1.000000	1468726.000000	1773690494.419078
6697.575000	14806.305000	22779.810000	9739.125000	-14404.005000	6605.685000	-2187.675000	902.835000	2.020927	6.979325	10.069846	9.471813	5.653636	4.113743	1.024811	-12.651016	0.030520	5.203660	-0.091560	0.930357	-0.340209	0.195800	-1.000000	-1.000000	-1.000000	-1.000000	-1.000000	-1.000000	-1.000000	68.137931	0.000000	-1.000000	-1.000000	1468727.000000	1773690494.423113
6688.305000	14798.430000	22766.985000	9725.535000	-14408.280000	6605.730000	-2189.205000	897.885000	3.507279	-0.667831	-12.976070	-0.697358	0.763154	1.573995	1.451432	-3.383538	0.030520	5.203660	-0.091560	0.930357	-0.340209	0.195800	-1.000000	-1.000000	-1.000000	-1.000000	-1.000000	-1.000000	-1.000000	68.137931	0.000000	-1.000000	-1.000000	1468728.000000	1773690494.423125
6712.155000	14786.370000	22746.645000	9705.510000	-14428.755000	6589.305000	-2205.270000	904.680000	2.305403	-8.194056	-28.164877	-10.152154	-3.762066	-1.770726	1.082772	6.233310	0.030520	5.203660	-0.091560	0.930357	-0.340209	0.195800	-1.000000	-1.000000	-1.000000	-1.000000	-1.000000	-1.000000	-1.000000	68.137931	0.000000	-1.000000	-1.000000	1468729.000000	1773690494.427147
6735.735000	14768.730000	22728.285000	9693.495000	-14440.590000	6583.365000	-2201.445000	930.105000	1.403595	-12.637047	-31.167946	-16.081967	-7.597273	-6.077823	-0.610366	12.264528	0.030520	5.203660	-0.091560	0.930357	-0.340209	0.195800	-1.000000	-1.000000	-1.000000	-1.000000	-1.000000	-1.000000	-1.000000	68.137931	0.000000	-1.000000	-1.000000	1468730.000000	1773690494.427157
6749.055000	14760.405000	22718.385000	9687.645000	-14441.040000	6579.855000	-2197.665000	938.700000	3.194010	-12.964915	-25.923708	-17.651772	-10.398351	-10.392194	-2.456155	14.255087	0.976640	4.623780	0.228900	0.934080	-0.342895	0.196228	-1.000000	-1.000000	-1.000000	-1.000000	-1.000000	-1.000000	-1.000000	68.137931	0.000000	-1.000000	-1.000000	1468731.000000	1773690494.437402
6733.125000	14764.725000	22721.265000	9689.535000	-14447.025000	6565.770000	-2201.355000	924.615000	5.856153	-9.679115	-17.663068	-14.893593	-10.619172	-12.326258	-2.596518	12.615908	0.976640	4.623780	0.228900	0.934080	-0.342895	0.196228	-1.000000	-1.000000	-1.000000	-1.000000	-1.000000	-1.000000	-1.000000	68.137931	0.000000	-1.000000	-1.000000	1468732.000000	1773690494.437412
6735.240000	14768.280000	22718.025000	9693.045000	-14441.040000	6576.030000	-2199.735000	934.425000	5.522855	-3.583527	-7.740924	-8.030094	-6.817073	-9.734568	-0.750662	7.147589	0.976640	4.623780	0.228900	0.934080	-0.342895	0.196228	-1.000000	-1.000000	-1.000000	-1.000000	-1.000000	-1.000000	-1.000000	68.137931	0.000000	-1.000000	-1.000000	1468733.000000	1773690494.437424
6732.585000	14759.595000	22706.955000	9686.745000	-14442.570000	6582.105000	-2202.255000	940.905000	1.239561	3.851597	4.360446	1.506353	0.402372	-2.458392	1.626136	-0.693771	0.976640	4.623780	0.228900	0.934080	-0.342895	0.196228	-1.000000	-1.000000	-1.000000	-1.000000	-1.000000	-1.000000	-1.000000	68.137931	0.000000	-1.000000	-1.000000	1468734.000000	1773690494.437429
6721.515000	14764.905000	22717.620000	9690.300000	-14439.690000	6588.450000	-2200.500000	932.220000	-4.252533	9.802084	16.574560	10.129983	7.832475	6.640366	2.744964	-7.450806	0.976640	4.623780	0.228900	0.934080	-0.342895	0.196228	-1.000000	-1.000000	-1.000000	-1.000000	-1.000000	-1.000000	-1.000000	68.137931	0.000000	-1.000000	-1.000000	1468735.000000	1773690494.441541
6713.775000	14780.385000	22741.335000	9697.770000	-14437.260000	6587.820000	-2200.680000	914.490000	-7.586992	12.112173	25.099731	14.493606	11.778533	13.104238	1.883537	-10.665790	0.976640	4.623780	0.228900	0.934080	-0.342895	0.196228	-1.000000	-1.000000	-1.000000	-1.000000	-1.000000	-1.000000	-1.000000	68.137931	0.000000	-1.000000	-1.000000	1468736.000000	1773690494.441552
6716.295000	14791.545000	22750.560000	9709.425000	-14428.215000	6584.895000	-2197.170000	904.185000	-7.207075	11.277940	28.028875	14.554971	11.084610	14.034989	0.015969	-10.503846	0.976640	4.623780	0.228900	0.934080	-0.342895	0.196228	-1.000000	-1.000000	-1.000000	-1.000000	-1.000000	-1.000000	-1.000000	68.137931	0.000000	-1.000000	-1.000000	1468737.000000	1773690494.454214
6727.770000	14793.210000	22744.485000	9703.305000	-14432.670000	6583.950000	-2192.625000	916.605000	-4.128537	9.018458	24.994089	12.312996	7.447560	9.650698	-1.042822	-8.348177	0.976640	4.623780	0.228900	0.934080	-0.342895	0.196228	-1.000000	-1.000000	-1.000000	-1.000000	-1.000000	-1.000000	-1.000000	68.137931	0.000000	-1.000000	-1.000000	1468738.000000	1773690494.454226
6739.335000	14791.320000	22736.070000	9692.010000	-14446.845000	6572.475000	-2194.740000	929.475000	-0.646067	6.067512	15.556294	8.462573	2.810362	2.411198	-0.489896	-4.941701	0.976640	4.623780	0.228900	0.934080	-0.342895	0.196228	-1.000000	-1.000000	-1.000000	-1.000000	-1.000000	-1.000000	-1.000000	68.137931	0.000000	-1.000000	-1.000000	1468739.000000	1773690494.454240
6718.275000	14770.845000	22719.330000	9682.650000	-14450.850000	6575.625000	-2200.140000	925.200000	1.457304	1.781321	0.600361	2.328926	-2.123078	-4.614495	0.652366	-0.534028	0.976640	4.623780	0.228900	0.934080	-0.342895	0.196228	-1.000000	-1.000000	-1.000000	-1.000000	-1.000000	-1.000000	-1.000000	68.137931	0.000000	-1.000000	-1.000000	1468740.000000	1773690494.454245
6705.315000	14769.675000	22725.045000	9694.710000	-14436.990000	6588.180000	-2204.190000	909.855000	1.422268	-4.409553	-15.603618	-5.273145	-6.285271	-8.442800	0.915581	3.776682	-6.348160	4.196500	-2.258480	0.932615	-0.333007	0.196411	-1.000000	-1.000000	-1.000000	-1.000000	-1.000000	-1.000000	-1.000000	68.137931	0.000000	-1.000000	-1.000000	1468741.000000	1773690494.465782
6717.915000	14789.745000	22743.315000	9710.415000	-14426.055000	6599.655000	-2196.270000	924.030000	0.094074	-10.552379	-25.879079	-10.914486	-7.602881	-7.415063	0.063744	6.224722	-6.348160	4.196500	-2.258480	0.932615	-0.333007	0.196411	-1.000000	-1.000000	-1.000000	-1.000000	-1.000000	-1.000000	-1.000000	68.137931	0.000000	-1.000000	-1.000000	1468742.000000	1773690494.465804
6713.505000	14790.825000	22748.130000	9716.310000	-14419.710000	6610.365000	-2185.875000	923.355000	-0.341318	-12.776022	-24.780144	-11.400835	-5.269270	-2.853654	-0.833492	6.262241	-6.348160	4.196500	-2.258480	0.932615	-0.333007	0.196411	-1.000000	-1.000000	-1.000000	-1.000000	-1.000000	-1.000000	-1.000000	68.137931	0.000000	-1.000000	-1.000000	1468743.000000	1773690494.465817
6740.955000	14801.760000	22753.980000	9723.735000	-14413.095000	6613.470000	-2182.950000	906.165000	1.810453	-9.538485	-13.818369	-7.044617	-1.005980	1.922962	-0.749360	4.848929	-6.348160	4.196500	-2.258480	0.932615	-0.333007	0.196411	-1.000000	-1.000000	-1.000000	-1.000000	-1.000000	-1.000000	-1.000000	68.137931	0.000000	-1.000000	-1.000000	1468744.000000	1773690494.465822
6753.870000	14801.535000	22738.005000	9721.395000	-14416.020000	6607.845000	-2182.635000	898.605000	6.425522	-3.244271	-0.465985	-1.147488	2.385772	4.125796	0.133649	2.928785	-6.348160	4.196500	-2.258480	0.932615	-0.333007	0.196411	-1.000000	-1.000000	-1.000000	-1.000000	-1.000000	-1.000000	-1.000000	68.137931	0.000000	-1.000000	-1.000000	1468745.000000	1773690494.465829
6724.305000	14765.445000	22704.930000	9693.990000	-14437.035000	6594.705000	-2193.345000	910.530000	10.265595	1.900095	7.679761	2.578551	2.795528	2.790239	0.678215	1.066752	-6.348160	4.196500	-2.258480	0.932615	-0.333007	0.196411	-1.000000	-1.000000	-1.000000	-1.000000	-1.000000	-1.000000	-1.000000	68.137931	0.000000	-1.000000	-1.000000	1468746.000000	1773690494.465833
6735.240000	14756.535000	22703.130000	9666.585000	-14461.470000	6583.545000	-2208.375000	914.310000	8.434097	2.832803	7.824250	1.985680	-0.194722	-1.135891	-0.232153	-0.412785	-6.348160	4.196500	-2.258480	0.932615	-0.333007	0.196411	-1.000000	-1.000000	-1.000000	-1.000000	-1.000000	-1.000000	-1.000000	68.137931	0.000000	-1.000000	-1.000000	1468747.000000	1773690494.465839
6733.755000	14797.395000	22759.020000	9698.040000	-14436.405000	6608.430000	-2203.695000	901.395000	0.286379	0.933793	3.956342	-1.441883	-4.303308	-4.882261	-2.446260	-1.852298	-6.348160	4.196500	-2.258480	0.932615	-0.333007	0.196411	-1.000000	-1.000000	-1.000000	-1.000000	-1.000000	-1.000000	-1.000000	68.137931	0.000000	-1.000000	-1.000000	1468748.000000	1773690494.465844
6720.660000	14801.265000	22758.255000	9710.235000	-14430.105000	6604.515000	-2196.855000	926.010000	-8.926000	1.072032	2.857127	-3.024983	-5.475843	-5.347221	-3.914445	-3.090862	-6.348160	4.196500	-2.258480	0.932615	-0.333007	0.196411	-1.000000	-1.000000	-1.000000	-1.000000	-1.000000	-1.000000	-1.000000	68.137931	0.000000	-1.000000	-1.000000	1468749.000000	1773690494.469076
6723.045000	14788.395000	22738.905000	9692.550000	-14465.250000	6552.585000	-2199.195000	945.315000	-13.432483	4.725043	5.786485	-0.500639	-2.659448	-3.029280	-2.700017	-2.370034	-6.348160	4.196500	-2.258480	0.932615	-0.333007	0.196411	-1.000000	-1.000000	-1.000000	-1.000000	-1.000000	-1.000000	-1.000000	68.137931	0.000000	-1.000000	-1.000000	1468750.000000	1773690494.469091
6721.155000	14768.370000	22724.280000	9688.095000	-14460.750000	6573.420000	-2194.470000	940.995000	-11.422699	7.438670	7.426260	2.997975	0.607752	-1.707581	0.537494	0.805635	-9.201780	4.837420	-4.349100	0.929624	-0.328551	0.194824	-1.000000	-1.000000	-1.000000	-1.000000	-1.000000	-1.000000	-1.000000	68.137931	0.000000	-1.000000	-1.000000	1468751.000000	1773690494.471159
6719.580000	14763.870000	22722.210000	9691.470000	-14448.240000	6590.700000	-2191.230000	935.325000	-5.048233	4.883493	3.639868	3.757852	1.695582	-2.114916	3.401578	3.818432	-9.201780	4.837420	-4.349100	0.929624	-0.328551	0.194824	-1.000000	-1.000000	-1.000000	-1.000000	-1.000000	-1.000000	-1.000000	68.137931	0.000000	-1.000000	-1.000000	1468752.000000	1773690494.471169
6728.715000	14779.080000	22734.180000	9698.895000	-14443.875000	6592.095000	-2187.315000	940.770000	1.856066	-1.779131	-3.591473	1.832083	1.739784	-1.167277	4.292852	4.353984	-9.201780	4.837420	-4.349100	0.929624	-0.328551	0.194824	-1.000000	-1.000000	-1.000000	-1.000000	-1.000000	-1.000000	-1.000000	68.137931	0.000000	-1.000000	-1.000000	1468753.000000	1773690494.484456
6730.470000	14782.995000	22733.595000	9695.745000	-14452.200000	6582.420000	-2189.070000	938.115000	6.382445	-7.169300	-8.532359	-0.194435	2.418407	2.461891	3.315947	2.617854	-9.201780	4.837420	-4.349100	0.929624	-0.328551	0.194824	-1.000000	-1.000000	-1.000000	-1.000000	-1.000000	-1.000000	-1.000000	68.137931	0.000000	-1.000000	-1.000000	1468754.000000	1773690494.484468
6728.625000	14780.610000	22734.090000	9700.200000	-14443.560000	6595.155000	-2183.265000	935.280000	7.825678	-6.760691	-7.158567	0.033880	4.054278	6.948534	1.689498	-0.554731	-9.201780	4.837420	-4.349100	0.929624	-0.328551	0.194824	-1.000000	-1.000000	-1.000000	-1.000000	-1.000000	-1.000000	-1.000000	68.137931	0.000000	-1.000000	-1.000000	1468755.000000	1773690494.484481
6723.495000	14774.085000	22728.105000	9694.350000	-14448.690000	6593.985000	-2185.020000	928.980000	6.532773	-1.158057	-1.061075	2.699121	6.038032	9.840013	0.655702	-4.509625	-9.201780	4.837420	-4.349100	0.929624	-0.328551	0.194824	-1.000000	-1.000000	-1.000000	-1.000000	-1.000000	-1.000000	-1.000000	68.137931	0.000000	-1.000000	-1.000000	1468756.000000	1773690494.484486
6733.485000	14784.435000	22737.420000	9703.035000	-14444.325000	6598.080000	-2184.525000	934.785000	3.363064	4.513838	4.018594	5.059722	6.520867	9.180525	0.294231	-7.621461	-9.201780	4.837420	-4.349100	0.929624	-0.328551	0.194824	-1.000000	-1.000000	-1.000000	-1.000000	-1.000000	-1.000000	-1.000000	68.137931	0.000000	-1.000000	-1.000000	1468757.000000	1773690494.484492
6738.660000	14793.435000	22746.825000	9712.395000	-14439.330000	6604.560000	-2184.570000	931.320000	0.454098	6.243395	4.558814	4.258258	3.960303	4.902213	-0.287058	-8.133035	-9.201780	4.837420	-4.349100	0.929624	-0.328551	0.194824	-1.000000	-1.000000	-1.000000	-1.000000	-1.000000	-1.000000	-1.000000	68.137931	0.000000	-1.000000	-1.000000	1468758.000000	1773690494.484496
6742.575000	14796.225000	22748.850000	9714.195000	-14437.395000	6605.730000	-2185.965000	927.855000	-0.490506	4.544443	2.399403	0.791719	-0.318749	-0.223007	-1.548618	-6.111238	-9.201780	4.837420	-4.349100	0.929624	-0.328551	0.194824	-1.000000	-1.000000	-1.000000	-1.000000	-1.000000	-1.000000	-1.000000	68.137931	0.000000	-1.000000	-1.000000	1468759.000000	1773690494.487325
6721.695000	14791.770000	22745.520000	9712.530000	-14431.860000	6615.990000	-2177.100000	933.210000	-0.303079	1.953485	0.748951	-2.816435	-3.775388	-3.753018	-2.986633	-2.608511	-9.201780	4.837420	-4.349100	0.929624	-0.328551	0.194824	-1.000000	-1.000000	-1.000000	-1.000000	-1.000000	-1.000000	-1.000000	68.137931	0.000000	-1.000000	-1.000000	1468760.000000	1773690494.487336
6683.895000	14787.450000	22742.775000	9708.705000	-14427.765000	6628.590000	-2173.005000	920.385000	-1.584974	-0.350412	0.201176	-5.150881	-5.539735	-5.684655	-3.618842	1.715295	-7.263760	4.059160	-5.295220	0.930479	-0.335143	0.193176	-1.000000	-1.000000	-1.000000	-1.000000	-1.000000	-1.000000	-1.000000	68.137931	0.000000	-1.000000	-1.000000	1468761.000000	1773690494.491109
6704.820000	14794.785000	22746.780000	9711.135000	-14419.845000	6641.460000	-2178.765000	918.990000	-5.496497	-2.647605	-0.399016	-6.075725	-5.792188	-6.138254	-2.915093	5.687043	-7.263760	4.059160	-5.295220	0.930479	-0.335143	0.193176	-1.000000	-1.000000	-1.000000	-1.000000	-1.000000	-1.000000	-1.000000	68.137931	0.000000	-1.000000	-1.000000	1468762.000000	1773690494.491118
6739.560000	14804.955000	22751.685000	9712.485000	-14422.545000	6633.945000	-2181.870000	926.775000	-8.542244	-4.411258	-1.242943	-5.322121	-4.445708	-4.676658	-1.364425	7.733292	-7.263760	4.059160	-5.295220	0.930479	-0.335143	0.193176	-1.000000	-1.000000	-1.000000	-1.000000	-1.000000	-1.000000	-1.000000	68.137931	0.000000	-1.000000	-1.000000	1468763.000000	1773690494.495066
6744.150000	14802.750000	22743.720000	9708.930000	-14447.160000	6584.445000	-2176.785000	933.840000	-5.806374	-4.091367	-1.503854	-2.626021	-2.132295	-2.841753	0.256426	7.491554	-7.263760	4.059160	-5.295220	0.930479	-0.335143	0.193176	-1.000000	-1.000000	-1.000000	-1.000000	-1.000000	-1.000000	-1.000000	68.137931	0.000000	-1.000000	-1.000000	1468764.000000	1773690494.495075
6717.960000	14789.565000	22711.185000	9697.185000	-14456.700000	6573.420000	-2172.240000	921.555000	1.816182	-1.932534	-1.778802	0.810235	-0.785098	-3.666101	1.688214	5.577982	-7.263760	4.059160	-5.295220	0.930479	-0.335143	0.193176	-1.000000	-1.000000	-1.000000	-1.000000	-1.000000	-1.000000	-1.000000	68.137931	0.000000	-1.000000	-1.000000	1468765.000000	1773690494.499201
6721.245000	14798.340000	22732.020000	9713.835000	-14428.620000	6616.035000	-2170.800000	907.065000	8.100652	-0.255084	-3.443918	2.825134	-1.077423	-6.422294	2.821863	2.153540	-7.263760	4.059160	-5.295220	0.930479	-0.335143	0.193176	-1.000000	-1.000000	-1.000000	-1.000000	-1.000000	-1.000000	-1.000000	68.137931	0.000000	-1.000000	-1.000000	1468766.000000	1773690494.499211
6749.370000	14798.295000	22735.755000	9706.500000	-14429.205000	6624.405000	-2180.655000	928.530000	9.063887	-0.224557	-5.169544	2.697288	-0.947029	-5.804768	3.111154	-2.270705	-7.263760	4.059160	-5.295220	0.930479	-0.335143	0.193176	-1.000000	-1.000000	-1.000000	-1.000000	-1.000000	-1.000000	-1.000000	68.137931	0.000000	-1.000000	-1.000000	1468767.000000	1773690494.503096
6757.335000	14818.005000	22773.150000	9719.685000	-14433.165000	6611.625000	-2176.470000	953.055000	6.276961	-0.520839	-3.597536	1.572931	1.074370	0.481709	1.975502	-5.084434	-7.263760	4.059160	-5.295220	0.930479	-0.335143	0.193176	-1.000000	-1.000000	-1.000000	-1.000000	-1.000000	-1.000000	-1.000000	68.137931	0.000000	-1.000000	-1.000000	1468768.000000	1773690494.503106
6780.105000	14822.460000	22797.180000	9734.085000	-14446.215000	6577.200000	-2174.130000	951.120000	3.603550	0.732538	2.701205	1.126724	3.276203	7.350145	-0.269197	-3.785532	-7.263760	4.059160	-5.295220	0.930479	-0.335143	0.193176	-1.000000	-1.000000	-1.000000	-1.000000	-1.000000	-1.000000	-1.000000	68.137931	0.000000	-1.000000	-1.000000	1468769.000000	1773690494.510005
6770.655000	14785.110000	22728.915000	9692.730000	-14468.715000	6577.650000	-2181.420000	929.385000	2.980188	2.863635	9.980627	1.581216	2.920718	8.381541	-2.469262	0.248345	-7.263760	4.059160	-5.295220	0.930479	-0.335143	0.193176	-1.000000	-1.000000	-1.000000	-1.000000	-1.000000	-1.000000	-1.000000	68.137931	0.000000	-1.000000	-1.000000	1468770.000000	1773690494.510017
6743.385000	14782.905000	22679.055000	9679.545000	-14472.855000	6582.150000	-2179.755000	925.650000	1.965359	2.653828	10.362212	0.803939	-0.491612	3.408637	-3.463771	2.807335	0.152600	4.501700	-5.463080	0.927915	-0.339904	0.195190	-1.000000	-1.000000	-1.000000	-1.000000	-1.000000	-1.000000	-1.000000	68.137931	0.000000	-1.000000	-1.000000	1468771.000000	1773690494.511597
6726.915000	14780.745000	22674.870000	9678.420000	-14462.325000	6588.765000	-2182.995000	925.830000	-3.571495	-0.911234	0.583760	-2.253510	-4.007303	-1.815807	-2.689703	1.404842	0.152600	4.501700	-5.463080	0.927915	-0.339904	0.195190	-1.000000	-1.000000	-1.000000	-1.000000	-1.000000	-1.000000	-1.000000	68.137931	0.000000	-1.000000	-1.000000	1468772.000000	1773690494.511608
6735.060000	14785.605000	22741.155000	9703.665000	-14452.515000	6590.880000	-2184.300000	939.780000	-12.543068	-4.645455	-11.308545	-4.727487	-3.436191	-1.766304	-0.688549	-2.355379	0.152600	4.501700	-5.463080	0.927915	-0.339904	0.195190	-1.000000	-1.000000	-1.000000	-1.000000	-1.000000	-1.000000	-1.000000	68.137931	0.000000	-1.000000	-1.000000	1468773.000000	1773690494.515489
6733.935000	14761.755000	22764.825000	9706.680000	-14451.795000	6599.700000	-2181.240000	953.730000	-17.842042	-5.304238	-13.085627	-3.176890	1.919509	3.528182	1.254826	-4.435042	0.152600	4.501700	-5.463080	0.927915	-0.339904	0.195190	-1.000000	-1.000000	-1.000000	-1.000000	-1.000000	-1.000000	-1.000000	68.137931	0.000000	-1.000000	-1.000000	1468774.000000	1773690494.515502
6734.430000	14776.830000	22776.795000	9715.320000	-14450.625000	6606.495000	-2185.155000	940.005000	-14.332332	-2.882463	-2.066610	1.853878	7.722289	8.603355	2.308172	-2.650727	0.152600	4.501700	-5.463080	0.927915	-0.339904	0.195190	-1.000000	-1.000000	-1.000000	-1.000000	-1.000000	-1.000000	-1.000000	68.137931	0.000000	-1.000000	-1.000000	1468775.000000	1773690494.519108
6732.045000	14783.670000	22758.660000	9712.935000	-14440.365000	6619.185000	-2187.585000	930.150000	-4.325260	0.936732	12.001099	6.533428	9.316489	8.571689	2.412416	0.500702	0.152600	4.501700	-5.463080	0.927915	-0.339904	0.195190	-1.000000	-1.000000	-1.000000	-1.000000	-1.000000	-1.000000	-1.000000	68.137931	0.000000	-1.000000	-1.000000	1468776.000000	1773690494.519120
6731.910000	14784.165000	22746.735000	9699.570000	-14460.030000	6597.585000	-2191.140000	931.680000	5.921209	4.516217	16.937287	7.278181	5.956925	3.565285	1.668607	1.055966	0.152600	4.501700	-5.463080	0.927915	-0.339904	0.195190	-1.000000	-1.000000	-1.000000	-1.000000	-1.000000	-1.000000	-1.000000	68.137931	0.000000	-1.000000	-1.000000	1468777.000000	1773690494.523335
6731.280000	14780.295000	22738.410000	9694.260000	-14467.680000	6591.735000	-2185.470000	932.220000	11.918440	6.405691	8.926130	3.176061	-0.176332	-3.159788	0.329457	-1.058501	0.152600	4.501700	-5.463080	0.927915	-0.339904	0.195190	-1.000000	-1.000000	-1.000000	-1.000000	-1.000000	-1.000000	-1.000000	68.137931	0.000000	-1.000000	-1.000000	1468778.000000	1773690494.523376
6728.985000	14779.665000	22741.380000	9701.550000	-14469.300000	6583.095000	-2183.130000	920.970000	12.794328	6.303870	-4.446219	-2.591940	-5.847586	-8.574739	-0.681785	-2.533105	0.152600	4.501700	-5.463080	0.927915	-0.339904	0.195190	-1.000000	-1.000000	-1.000000	-1.000000	-1.000000	-1.000000	-1.000000	68.137931	0.000000	-1.000000	-1.000000	1468779.000000	1773690494.527917
6735.195000	14788.755000	22748.130000	9707.805000	-14468.625000	6567.030000	-2183.580000	921.735000	10.285428	4.995248	-11.786918	-5.146816	-8.233336	-11.201113	-0.518240	-1.423918	0.152600	4.501700	-5.463080	0.927915	-0.339904	0.195190	-1.000000	-1.000000	-1.000000	-1.000000	-1.000000	-1.000000	-1.000000	68.137931	0.000000	-1.000000	-1.000000	1468780.000000	1773690494.527928
6733.755000	14783.310000	22741.470000	9702.045000	-14470.245000	6578.820000	-2182.995000	923.760000	6.677791	2.935805	-9.265729	-3.206774	-6.774652	-10.477941	0.484934	1.210689	-0.503580	3.998120	-5.112100	0.929685	-0.334533	0.195068	-1.000000	-1.000000	-1.000000	-1.000000	-1.000000	-1.000000	-1.000000	68.137931	0.000000	-1.000000	-1.000000	1468781.000000	1773690494.531188
6727.635000	14771.925000	22728.555000	9690.300000	-14477.895000	6589.440000	-2183.535000	924.165000	3.014944	0.055709	-3.012923	-0.160823	-3.257185	-5.980070	1.249194	3.267239	-0.503580	3.998120	-5.112100	0.929685	-0.334533	0.195068	-1.000000	-1.000000	-1.000000	-1.000000	-1.000000	-1.000000	-1.000000	68.137931	0.000000	-1.000000	-1.000000	1468782.000000	1773690494.531198
6729.975000	14781.060000	22736.070000	9699.480000	-14464.800000	6606.180000	-2187.180000	925.605000	-0.690939	-3.148856	-0.531484	0.382557	0.049837	1.197662	0.970624	3.540768	-0.503580	3.998120	-5.112100	0.929685	-0.334533	0.195068	-1.000000	-1.000000	-1.000000	-1.000000	-1.000000	-1.000000	-1.000000	68.137931	0.000000	-1.000000	-1.000000	1468783.000000	1773690494.536677
6724.440000	14783.220000	22739.355000	9704.790000	-14458.365000	6608.565000	-2189.565000	918.180000	-4.232323	-5.426485	-2.550306	-1.440703	2.188418	7.758846	-0.286011	2.355146	-0.503580	3.998120	-5.112100	0.929685	-0.334533	0.195068	-1.000000	-1.000000	-1.000000	-1.000000	-1.000000	-1.000000	-1.000000	68.137931	0.000000	-1.000000	-1.000000	1468784.000000	1773690494.536687
6728.670000	14783.355000	22731.210000	9707.445000	-14466.465000	6584.670000	-2183.715000	910.170000	-6.836599	-6.072002	-4.574501	-2.858140	3.264209	10.227185	-1.581275	0.586823	-0.503580	3.998120	-5.112100	0.929685	-0.334533	0.195068	-1.000000	-1.000000	-1.000000	-1.000000	-1.000000	-1.000000	-1.000000	68.137931	0.000000	-1.000000	-1.000000	1468785.000000	1773690494.545515
6745.995000	14790.330000	22721.985000	9715.995000	-14454.585000	6602.085000	-2176.605000	894.555000	-7.255111	-5.128326	-3.338741	-1.829210	3.637915	7.829018	-1.849313	-1.405764	-0.503580	3.998120	-5.112100	0.929685	-0.334533	0.195068	-1.000000	-1.000000	-1.000000	-1.000000	-1.000000	-1.000000	-1.000000	68.137931	0.000000	-1.000000	-1.000000	1468786.000000	1773690494.545527
6751.620000	14789.520000	22732.560000	9715.275000	-14452.920000	6601.230000	-2173.950000	919.575000	-4.589755	-2.593896	1.121472	1.520790	3.984632	3.346639	-0.831634	-2.803654	-0.503580	3.998120	-5.112100	0.929685	-0.334533	0.195068	-1.000000	-1.000000	-1.000000	-1.000000	-1.000000	-1.000000	-1.000000	68.137931	0.000000	-1.000000	-1.000000	1468787.000000	1773690494.545539
6738.975000	14798.295000	22754.340000	9696.105000	-14464.215000	6581.565000	-2181.105000	936.405000	0.022998	1.044275	7.390043	4.846687	4.155997	-0.309157	0.587488	-1.611217	-0.503580	3.998120	-5.112100	0.929685	-0.334533	0.195068	-1.000000	-1.000000	-1.000000	-1.000000	-1.000000	-1.000000	-1.000000	68.137931	0.000000	-1.000000	-1.000000	1468788.000000	1773690494.545544
6723.720000	14783.355000	22737.465000	9674.370000	-14477.085000	6578.640000	-2182.995000	937.440000	3.366908	4.019155	12.792385	4.825725	2.599490	-2.723605	1.122126	2.564027	-0.503580	3.998120	-5.112100	0.929685	-0.334533	0.195068	-1.000000	-1.000000	-1.000000	-1.000000	-1.000000	-1.000000	-1.000000	68.137931	0.000000	-1.000000	-1.000000	1468789.000000	1773690494.560528
6711.345000	14765.220000	22728.645000	9688.410000	-14482.125000	6579.630000	-2186.775000	925.560000	2.935020	4.254958	13.237527	0.711294	-1.353248	-4.380895	0.315919	6.386654	-0.503580	3.998120	-5.112100	0.929685	-0.334533	0.195068	-1.000000	-1.000000	-1.000000	-1.000000	-1.000000	-1.000000	-1.000000	68.137931	0.000000	-1.000000	-1.000000	1468790.000000	1773690494.560541
6723.360000	14769.540000	22731.255000	9698.580000	-14482.170000	6584.220000	-2182.185000	931.860000	-0.357769	1.588928	6.843055	-3.963344	-5.899616	-5.334423	-1.075732	6.021673	-4.974760	3.097780	-4.761120	0.929746	-0.328673	0.194152	-1.000000	-1.000000	-1.000000	-1.000000	-1.000000	-1.000000	-1.000000	68.137931	0.000000	-1.000000	-1.000000	1468791.000000	1773690494.560555
6734.520000	14788.035000	22745.835000	9707.670000	-14468.940000	6599.745000	-2180.565000	930.105000	-2.948996	-1.583003	-3.157023	-5.200987	-8.268107	-5.272373	-1.728860	1.402068	-4.974760	3.097780	-4.761120	0.929746	-0.328673	0.194152	-1.000000	-1.000000	-1.000000	-1.000000	-1.000000	-1.000000	-1.000000	68.137931	0.000000	-1.000000	-1.000000	1468792.000000	1773690494.560560
6729.030000	14813.100000	22769.055000	9726.345000	-14451.345000	6619.905000	-2176.290000	917.145000	-2.337375	-2.321440	-10.587735	-2.331461	-6.656225	-3.243641	-0.883153	-4.294297	-4.974760	3.097780	-4.761120	0.929746	-0.328673	0.194152	-1.000000	-1.000000	-1.000000	-1.000000	-1.000000	-1.000000	-1.000000	68.137931	0.000000	-1.000000	-1.000000	1468793.000000	1773690494.560566
6697.395000	14809.410000	22764.015000	9721.665000	-14454.000000	6619.860000	-2176.695000	900.090000	0.093974	0.159976	-11.119425	2.425428	-1.290970	1.406724	0.830081	-8.104109	-4.974760	3.097780	-4.761120	0.929746	-0.328673	0.194152	-1.000000	-1.000000	-1.000000	-1.000000	-1.000000	-1.000000	-1.000000	68.137931	0.000000	-1.000000	-1.000000	1468794.000000	1773690494.560571
6694.020000	14778.765000	22738.725000	9706.320000	-14461.560000	6600.465000	-2177.370000	903.780000	0.745886	3.148429	-5.926247	5.576178	4.883329	6.473867	1.902854	-8.763652	-4.974760	3.097780	-4.761120	0.929746	-0.328673	0.194152	-1.000000	-1.000000	-1.000000	-1.000000	-1.000000	-1.000000	-1.000000	68.137931	0.000000	-1.000000	-1.000000	1468795.000000	1773690494.562676
6720.435000	14773.410000	22727.340000	9689.985000	-14480.730000	6582.735000	-2182.500000	922.185000	-0.943126	2.812212	-0.507352	4.508489	7.757127	7.695038	1.417027	-6.221141	-4.974760	3.097780	-4.761120	0.929746	-0.328673	0.194152	-1.000000	-1.000000	-1.000000	-1.000000	-1.000000	-1.000000	-1.000000	68.137931	0.000000	-1.000000	-1.000000	1468796.000000	1773690494.562688
6731.730000	14764.995000	22716.945000	9678.780000	-14498.235000	6570.360000	-2186.775000	929.790000	-1.236571	-1.394985	0.795894	-0.092972	5.452108	3.643759	-0.183380	-1.399637	-4.974760	3.097780	-4.761120	0.929746	-0.328673	0.194152	-1.000000	-1.000000	-1.000000	-1.000000	-1.000000	-1.000000	-1.000000	68.137931	0.000000	-1.000000	-1.000000	1468797.000000	1773690494.564770
6742.710000	14769.495000	22722.120000	9685.260000	-14495.535000	6566.580000	-2186.910000	938.790000	2.593925	-5.887831	-1.345217	-4.671937	-0.058941	-2.750276	-1.651010	3.996105	-4.974760	3.097780	-4.761120	0.929746	-0.328673	0.194152	-1.000000	-1.000000	-1.000000	-1.000000	-1.000000	-1.000000	-1.000000	68.137931	0.000000	-1.000000	-1.000000	1468798.000000	1773690494.564780
6738.660000	14779.575000	22733.460000	9696.285000	-14481.630000	6585.480000	-2182.770000	932.085000	8.400102	-6.268437	-2.796817	-5.988988	-4.442038	-7.254552	-1.936473	7.957558	-4.974760	3.097780	-4.761120	0.929746	-0.328673	0.194152	-1.000000	-1.000000	-1.000000	-1.000000	-1.000000	-1.000000	-1.000000	68.137931	0.000000	-1.000000	-1.000000	1468799.000000	1773690494.567358
6718.995000	14774.895000	22732.065000	9698.040000	-14472.090000	6602.040000	-2176.290000	909.180000	10.818056	-1.705941	-0.938333	-3.671493	-4.559363	-7.127682	-0.784808	8.350568	-4.974760	3.097780	-4.761120	0.929746	-0.328673	0.194152	-1.000000	-1.000000	-1.000000	-1.000000	-1.000000	-1.000000	-1.000000	68.137931	0.000000	-1.000000	-1.000000	1468800.000000	1773690494.567369
6708.735000	14792.310000	22751.010000	9714.690000	-14463.585000	6608.745000	-2172.375000	878.760000	6.046392	4.043852	2.901205	0.212384	-1.082788	-2.763670	1.195761	3.935272	-8.240400	3.555580	-2.899400	0.933408	-0.327575	0.193298	-1.000000	-1.000000	-1.000000	-1.000000	-1.000000	-1.000000	-1.000000	68.206897	0.000000	-1.000000	-1.000000	1468801.000000	1773690494.577173
6731.055000	14828.760000	22782.960000	9737.460000	-14456.745000	6602.490000	-2174.670000	892.350000	-3.514312	7.205121	6.282825	3.629218	2.803183	2.556926	2.778539	-3.174587	-8.240400	3.555580	-2.899400	0.933408	-0.327575	0.193298	-1.000000	-1.000000	-1.000000	-1.000000	-1.000000	-1.000000	-1.000000	68.206897	0.000000	-1.000000	-1.000000	1468802.000000	1773690494.577185
6745.275000	14808.555000	22760.955000	9719.505000	-14467.680000	6596.910000	-2178.450000	934.920000	-10.400267	7.369081	8.172444	5.628935	4.505526	5.476312	2.752110	-7.156677	-8.240400	3.555580	-2.899400	0.933408	-0.327575	0.193298	-1.000000	-1.000000	-1.000000	-1.000000	-1.000000	-1.000000	-1.000000	68.206897	0.000000	-1.000000	-1.000000	1468803.000000	1773690494.577199
6719.490000	14764.545000	22718.070000	9683.775000	-14487.210000	6591.870000	-2181.150000	960.705000	-10.121704	4.937490	7.328381	5.120485	3.183394	5.135577	0.918505	-3.617461	-8.240400	3.555580	-2.899400	0.933408	-0.327575	0.193298	-1.000000	-1.000000	-1.000000	-1.000000	-1.000000	-1.000000	-1.000000	68.206897	0.000000	-1.000000	-1.000000	1468804.000000	1773690494.577204
6712.155000	14752.170000	22706.910000	9674.280000	-14494.770000	6589.530000	-2182.590000	943.785000	-5.749486	-0.499745	2.220648	1.407930	-0.230851	3.143361	-1.529194	4.540894	-8.240400	3.555580	-2.899400	0.933408	-0.327575	0.193298	-1.000000	-1.000000	-1.000000	-1.000000	-1.000000	-1.000000	-1.000000	68.206897	0.000000	-1.000000	-1.000000	1468805.000000	1773690494.585834
6721.740000	14762.520000	22714.335000	9679.545000	-14494.950000	6582.600000	-2185.605000	919.620000	-2.306596	-7.152176	-5.406927	-3.524486	-3.310047	1.372780	-2.978224	9.138238	-8.240400	3.555580	-2.899400	0.933408	-0.327575	0.193298	-1.000000	-1.000000	-1.000000	-1.000000	-1.000000	-1.000000	-1.000000	68.206897	0.000000	-1.000000	-1.000000	1468806.000000	1773690494.585847
6730.650000	14767.830000	22709.025000	9679.860000	-14492.970000	6580.215000	-2185.245000	921.600000	-0.649968	-10.551637	-10.744126	-6.315873	-4.058611	0.051151	-2.747196	5.307177	-8.240400	3.555580	-2.899400	0.933408	-0.327575	0.193298	-1.000000	-1.000000	-1.000000	-1.000000	-1.000000	-1.000000	-1.000000	68.206897	0.000000	-1.000000	-1.000000	1468807.000000	1773690494.585860
6737.895000	14774.805000	22709.160000	9687.510000	-14479.920000	6598.755000	-2179.080000	932.670000	1.172195	-8.033081	-10.779860	-5.638476	-2.545389	-1.563431	-1.306861	-3.538529	-8.240400	3.555580	-2.899400	0.933408	-0.327575	0.193298	-1.000000	-1.000000	-1.000000	-1.000000	-1.000000	-1.000000	-1.000000	68.206897	0.000000	-1.000000	-1.000000	1468808.000000	1773690494.585865
6737.040000	14775.930000	22710.825000	9697.230000	-14471.280000	6609.690000	-2175.345000	937.485000	4.156195	-1.408347	-6.349082	-2.469428	-0.135578	-3.301010	0.452275	-9.508343	-8.240400	3.555580	-2.899400	0.933408	-0.327575	0.193298	-1.000000	-1.000000	-1.000000	-1.000000	-1.000000	-1.000000	-1.000000	68.206897	0.000000	-1.000000	-1.000000	1468809.000000	1773690494.587190
6740.595000	14776.470000	22702.995000	9692.280000	-14479.515000	6598.980000	-2177.865000	942.345000	7.072999	4.642364	-0.681218	1.081561	1.602373	-4.227161	1.708860	-7.784510	-8.240400	3.555580	-2.899400	0.933408	-0.327575	0.193298	-1.000000	-1.000000	-1.000000	-1.000000	-1.000000	-1.000000	-1.000000	68.206897	0.000000	-1.000000	-1.000000	1468810.000000	1773690494.587196
6736.860000	14780.160000	22736.970000	9696.375000	-14496.930000	6573.330000	-2187.270000	939.420000	7.508599	6.291102	3.422210	2.861354	1.374928	-4.201324	1.839229	-0.624713	-4.745860	4.944240	-0.427280	0.937070	-0.332580	0.193115	-1.000000	-1.000000	-1.000000	-1.000000	-1.000000	-1.000000	-1.000000	68.206897	0.000000	-1.000000	-1.000000	1468811.000000	1773690494.591199
6730.515000	14793.030000	22755.285000	9700.425000	-14492.700000	6581.025000	-2182.410000	941.580000	4.178142	4.412236	6.767144	2.995820	-0.500466	-3.565449	0.860319	5.080778	-4.745860	4.944240	-0.427280	0.937070	-0.332580	0.193115	-1.000000	-1.000000	-1.000000	-1.000000	-1.000000	-1.000000	-1.000000	68.206897	0.000000	-1.000000	-1.000000	1468812.000000	1773690494.591206
6736.905000	14796.630000	22756.995000	9697.995000	-14484.375000	6593.715000	-2172.195000	945.450000	-1.217228	3.487307	11.509678	3.754573	-1.467532	-1.579869	-0.132654	4.573422	-4.745860	4.944240	-0.427280	0.937070	-0.332580	0.193115	-1.000000	-1.000000	-1.000000	-1.000000	-1.000000	-1.000000	-1.000000	68.206897	0.000000	-1.000000	-1.000000	1468813.000000	1773690494.595947
6726.825000	14786.235000	22745.565000	9707.715000	-14466.555000	6612.840000	-2169.585000	918.450000	-5.379832	5.219247	15.565720	5.898067	0.792161	2.767231	0.129575	-0.739908	-4.745860	4.944240	-0.427280	0.937070	-0.332580	0.193115	-1.000000	-1.000000	-1.000000	-1.000000	-1.000000	-1.000000	-1.000000	68.206897	0.000000	-1.000000	-1.000000	1468814.000000	1773690494.595959
6717.510000	14783.355000	22705.695000	9695.790000	-14466.780000	6615.720000	-2174.445000	904.455000	-6.896912	6.258208	13.310405	7.145852	5.332744	8.345986	1.446773	-6.146374	-4.745860	4.944240	-0.427280	0.937070	-0.332580	0.193115	-1.000000	-1.000000	-1.000000	-1.000000	-1.000000	-1.000000	-1.000000	68.206897	0.000000	-1.000000	-1.000000	1468815.000000	1773690494.599123
6720.165000	14772.645000	22685.400000	9685.440000	-14476.230000	6613.560000	-2180.340000	911.160000	-6.522190	3.033946	2.024736	4.514656	8.109983	11.510353	2.123412	-8.066379	-4.745860	4.944240	-0.427280	0.937070	-0.332580	0.193115	-1.000000	-1.000000	-1.000000	-1.000000	-1.000000	-1.000000	-1.000000	68.206897	0.000000	-1.000000	-1.000000	1468816.000000	1773690494.599134
6723.495000	14769.540000	22727.700000	9705.645000	-14472.855000	6615.495000	-2184.885000	913.185000	-4.731118	-4.034449	-13.135921	-2.063340	5.567460	8.758888	0.726736	-5.391993	-4.745860	4.944240	-0.427280	0.937070	-0.332580	0.193115	-1.000000	-1.000000	-1.000000	-1.000000	-1.000000	-1.000000	-1.000000	68.206897	0.000000	-1.000000	-1.000000	1468817.000000	1773690494.603160
6734.205000	14787.945000	22764.960000	9717.570000	-14462.370000	6623.145000	-2179.530000	900.360000	-1.276306	-10.864846	-21.608279	-8.670871	-1.515914	0.493684	-2.262775	0.480242	-4.745860	4.944240	-0.427280	0.937070	-0.332580	0.193115	-1.000000	-1.000000	-1.000000	-1.000000	-1.000000	-1.000000	-1.000000	68.206897	0.000000	-1.000000	-1.000000	1468818.000000	1773690494.603171
6736.320000	14792.535000	22784.490000	9722.925000	-14462.055000	6609.375000	-2178.270000	903.465000	3.268076	-12.970780	-17.069955	-10.974000	-8.289444	-8.405091	-4.552765	6.287624	-4.745860	4.944240	-0.427280	0.937070	-0.332580	0.193115	-1.000000	-1.000000	-1.000000	-1.000000	-1.000000	-1.000000	-1.000000	68.206897	0.000000	-1.000000	-1.000000	1468819.000000	1773690494.607184
6736.275000	14790.555000	22758.660000	9710.910000	-14473.665000	6592.095000	-2179.845000	938.520000	6.985292	-9.044029	-3.961133	-8.130445	-10.342239	-12.842667	-4.155576	9.475681	-4.745860	4.944240	-0.427280	0.937070	-0.332580	0.193115	-1.000000	-1.000000	-1.000000	-1.000000	-1.000000	-1.000000	-1.000000	68.206897	0.000000	-1.000000	-1.000000	1468820.000000	1773690494.607196
6728.715000	14788.800000	22748.580000	9699.795000	-14501.430000	6564.960000	-2186.685000	951.120000	7.953124	-1.522477	7.251348	-2.703360	-7.635612	-11.892385	-1.472305	9.869365	-1.083460	4.867940	0.167860	0.936216	-0.335693	0.194396	-1.000000	-1.000000	-1.000000	-1.000000	-1.000000	-1.000000	-1.000000	68.206897	0.000000	-1.000000	-1.000000	1468821.000000	1773690494.611212
6740.100000	14802.705000	22757.535000	9711.540000	-14490.675000	6572.160000	-2177.955000	928.935000	5.797073	5.938731	10.293991	2.248350	-3.433643	-8.099551	1.346748	7.944448	-1.083460	4.867940	0.167860	0.936216	-0.335693	0.194396	-1.000000	-1.000000	-1.000000	-1.000000	-1.000000	-1.000000	-1.000000	68.206897	0.000000	-1.000000	-1.000000	1468822.000000	1773690494.611223
6735.285000	14788.755000	22742.010000	9702.585000	-14484.690000	6591.645000	-2173.995000	920.295000	1.976253	10.539441	6.816144	5.117290	-0.043552	-3.321576	2.935845	3.826289	-1.083460	4.867940	0.167860	0.936216	-0.335693	0.194396	-1.000000	-1.000000	-1.000000	-1.000000	-1.000000	-1.000000	-1.000000	68.206897	0.000000	-1.000000	-1.000000	1468823.000000	1773690494.616887
6721.560000	14778.945000	22735.665000	9700.155000	-14478.615000	6604.830000	-2177.145000	918.585000	-1.763135	10.515551	1.917252	5.520370	2.590120	2.511967	3.397844	-1.444658	-1.083460	4.867940	0.167860	0.936216	-0.335693	0.194396	-1.000000	-1.000000	-1.000000	-1.000000	-1.000000	-1.000000	-1.000000	68.206897	0.000000	-1.000000	-1.000000	1468824.000000	1773690494.616897
6729.525000	14779.755000	22733.280000	9697.275000	-14483.565000	6594.210000	-2171.385000	932.760000	-4.620672	5.908558	-1.050928	3.830358	4.831467	8.514105	3.114088	-5.902541	-1.083460	4.867940	0.167860	0.936216	-0.335693	0.194396	-1.000000	-1.000000	-1.000000	-1.000000	-1.000000	-1.000000	-1.000000	68.206897	0.000000	-1.000000	-1.000000	1468825.000000	1773690494.619604
6734.655000	14788.755000	22742.145000	9706.410000	-14471.145000	6597.720000	-2167.965000	939.015000	-5.931840	-0.617022	-2.330252	0.867855	6.033919	11.671136	2.300645	-7.668269	-1.083460	4.867940	0.167860	0.936216	-0.335693	0.194396	-1.000000	-1.000000	-1.000000	-1.000000	-1.000000	-1.000000	-1.000000	68.206897	0.000000	-1.000000	-1.000000	1468826.000000	1773690494.619615
6714.585000	14806.395000	22758.840000	9719.505000	-14453.910000	6615.630000	-2164.005000	928.215000	-5.420515	-5.532898	-3.589864	-2.072070	5.689422	10.273935	1.124645	-6.137575	-1.083460	4.867940	0.167860	0.936216	-0.335693	0.194396	-1.000000	-1.000000	-1.000000	-1.000000	-1.000000	-1.000000	-1.000000	68.206897	0.000000	-1.000000	-1.000000	1468827.000000	1773690494.626474
6696.810000	14797.170000	22751.370000	9711.495000	-14480.010000	6588.675000	-2165.220000	913.635000	-4.278977	-6.895313	-4.772103	-3.370540	4.143604	6.006482	-0.240104	-3.337586	-1.083460	4.867940	0.167860	0.936216	-0.335693	0.194396	-1.000000	-1.000000	-1.000000	-1.000000	-1.000000	-1.000000	-1.000000	68.206897	0.000000	-1.000000	-1.000000	1468828.000000	1773690494.626496
6720.435000	14784.975000	22742.730000	9708.165000	-14483.880000	6586.830000	-2163.915000	916.695000	-3.170903	-5.234523	-4.321115	-2.313488	1.724512	1.356762	-1.466353	-2.539326	-1.083460	4.867940	0.167860	0.936216	-0.335693	0.194396	-1.000000	-1.000000	-1.000000	-1.000000	-1.000000	-1.000000	-1.000000	68.206897	0.000000	-1.000000	-1.000000	1468829.000000	1773690494.627088
6746.895000	14772.105000	22729.230000	9697.770000	-14478.570000	6607.395000	-2162.565000	934.020000	-0.424392	-2.731969	-1.634721	0.195630	-0.848452	-1.927745	-2.210420	-3.958564	-1.083460	4.867940	0.167860	0.936216	-0.335693	0.194396	-1.000000	-1.000000	-1.000000	-1.000000	-1.000000	-1.000000	-1.000000	68.206897	0.000000	-1.000000	-1.000000	1468830.000000	1773690494.627098
6752.475000	14776.155000	22735.755000	9703.620000	-14476.725000	6601.860000	-2175.390000	937.755000	4.934239	-1.095411	2.031719	2.284944	-2.517216	-3.081211	-2.630635	-3.726809	-2.563680	4.165980	-0.412020	0.934568	-0.332946	0.196166	-1.000000	-1.000000	-1.000000	-1.000000	-1.000000	-1.000000	-1.000000	68.206897	0.000000	-1.000000	-1.000000	1468831.000000	1773690494.640050
6754.140000	14790.960000	22744.845000	9710.280000	-14478.255000	6584.310000	-2174.130000	941.985000	10.406345	0.196934	5.472917	2.919426	-3.285316	-3.699861	-3.162017	0.995310	-2.563680	4.165980	-0.412020	0.934568	-0.332946	0.196166	-1.000000	-1.000000	-1.000000	-1.000000	-1.000000	-1.000000	-1.000000	68.206897	0.000000	-1.000000	-1.000000	1468832.000000	1773690494.640064
6738.570000	14790.555000	22742.055000	9710.820000	-14474.745000	6593.400000	-2164.815000	931.995000	12.035604	2.663780	8.278360	2.657992	-3.609309	-5.707207	-3.289698	7.693651	-2.563680	4.165980	-0.412020	0.934568	-0.332946	0.196166	-1.000000	-1.000000	-1.000000	-1.000000	-1.000000	-1.000000	-1.000000	68.206897	0.000000	-1.000000	-1.000000	1468833.000000	1773690494.640078
6749.820000	14801.085000	22752.045000	9718.515000	-14470.155000	6597.360000	-2167.245000	923.850000	7.809311	5.872937	9.109536	2.040283	-3.294313	-7.768253	-1.995057	10.805209	-2.563680	4.165980	-0.412020	0.934568	-0.332946	0.196166	-1.000000	-1.000000	-1.000000	-1.000000	-1.000000	-1.000000	-1.000000	68.206897	0.000000	-1.000000	-1.000000	1468834.000000	1773690494.640084
6739.875000	14787.945000	22743.405000	9716.355000	-14457.330000	6623.460000	-2156.580000	915.030000	-0.530013	7.134144	6.019803	0.680980	-2.153392	-6.839393	0.528433	7.439240	-2.563680	4.165980	-0.412020	0.934568	-0.332946	0.196166	-1.000000	-1.000000	-1.000000	-1.000000	-1.000000	-1.000000	-1.000000	68.206897	0.000000	-1.000000	-1.000000	1468835.000000	1773690494.640090
6717.015000	14790.330000	22748.850000	9720.945000	-14451.120000	6631.020000	-2150.145000	912.600000	-8.722737	4.238990	-0.971344	-1.628650	-0.384578	-1.826666	3.155696	0.021746	-2.563680	4.165980	-0.412020	0.934568	-0.332946	0.196166	-1.000000	-1.000000	-1.000000	-1.000000	-1.000000	-1.000000	-1.000000	68.206897	0.000000	-1.000000	-1.000000	1468836.000000	1773690494.640095
6703.740000	14792.625000	22751.505000	9720.720000	-14453.775000	6623.955000	-2155.815000	909.135000	-13.312987	-1.472801	-8.330398	-3.721487	1.961200	5.427998	4.806581	-6.519079	-2.563680	4.165980	-0.412020	0.934568	-0.332946	0.196166	-1.000000	-1.000000	-1.000000	-1.000000	-1.000000	-1.000000	-1.000000	68.206897	0.000000	-1.000000	-1.000000	1468837.000000	1773690494.655273
6727.140000	14776.200000	22730.535000	9698.130000	-14485.365000	6590.565000	-2184.210000	906.885000	-13.127146	-5.969134	-11.423991	-4.110623	4.025669	10.545705	4.208107	-9.134920	-2.563680	4.165980	-0.412020	0.934568	-0.332946	0.196166	-1.000000	-1.000000	-1.000000	-1.000000	-1.000000	-1.000000	-1.000000	68.206897	0.000000	-1.000000	-1.000000	1468838.000000	1773690494.655287
6732.495000	14759.505000	22708.080000	9674.235000	-14513.130000	6563.610000	-2197.080000	913.635000	-8.607103	-7.002380	-9.249023	-3.275087	3.230881	8.711277	0.531544	-7.659322	-2.563680	4.165980	-0.412020	0.934568	-0.332946	0.196166	-1.000000	-1.000000	-1.000000	-1.000000	-1.000000	-1.000000	-1.000000	68.206897	0.000000	-1.000000	-1.000000	1468839.000000	1773690494.655301
6724.170000	14763.915000	22710.735000	9684.630000	-14501.295000	6580.530000	-2187.135000	913.185000	-1.570049	-5.421019	-4.566575	-2.715081	-1.471980	-0.058393	-4.447261	-3.228967	-2.563680	4.165980	-0.412020	0.934568	-0.332946	0.196166	-1.000000	-1.000000	-1.000000	-1.000000	-1.000000	-1.000000	-1.000000	68.206897	0.000000	-1.000000	-1.000000	1468840.000000	1773690494.655306
6726.375000	14770.305000	22706.010000	9698.085000	-14488.425000	6598.800000	-2177.055000	932.760000	5.258122	-2.610734	0.035028	-2.028570	-6.451840	-8.855371	-6.782323	2.562861	-6.546540	3.601360	-1.129240	0.932310	-0.329467	0.195495	-1.000000	-1.000000	-1.000000	-1.000000	-1.000000	-1.000000	-1.000000	68.206897	0.000000	-1.000000	-1.000000	1468841.000000	1773690494.655313
6747.480000	14792.535000	22717.395000	9704.655000	-14483.745000	6605.505000	-2175.165000	955.755000	9.971277	0.961238	3.650619	0.319089	-6.898061	-10.522517	-4.372355	8.106792	-6.546540	3.601360	-1.129240	0.932310	-0.329467	0.195495	-1.000000	-1.000000	-1.000000	-1.000000	-1.000000	-1.000000	-1.000000	68.206897	0.000000	-1.000000	-1.000000	1468842.000000	1773690494.655317
6742.935000	14806.125000	22742.505000	9706.905000	-14479.020000	6605.415000	-2168.280000	956.880000	11.818804	4.988398	6.260543	3.934134	-2.235296	-4.775057	1.033505	11.859345	-6.546540	3.601360	-1.129240	0.932310	-0.329467	0.195495	-1.000000	-1.000000	-1.000000	-1.000000	-1.000000	-1.000000	-1.000000	68.206897	0.000000	-1.000000	-1.000000	1468843.000000	1773690494.655323
6720.255000	14766.750000	22726.080000	9690.840000	-14485.410000	6599.565000	-2165.040000	937.935000	10.159585	7.684132	7.705193	6.277851	3.746066	2.721515	5.860863	11.733423	-6.546540	3.601360	-1.129240	0.932310	-0.329467	0.195495	-1.000000	-1.000000	-1.000000	-1.000000	-1.000000	-1.000000	-1.000000	68.206897	0.000000	-1.000000	-1.000000	1468844.000000	1773690494.655328
6731.235000	14763.465000	22716.225000	9684.900000	-14492.745000	6594.795000	-2166.750000	937.710000	5.438211	6.216380	6.779058	5.179503	6.887791	6.540581	7.407644	6.321123	-6.546540	3.601360	-1.129240	0.932310	-0.329467	0.195495	-1.000000	-1.000000	-1.000000	-1.000000	-1.000000	-1.000000	-1.000000	68.206897	0.000000	-1.000000	-1.000000	1468845.000000	1773690494.663821
6728.940000	14780.430000	22730.895000	9691.155000	-14497.020000	6584.895000	-2175.930000	929.835000	-0.102000	0.893295	3.160179	1.381692	6.136692	5.807551	5.314411	-2.770104	-6.546540	3.601360	-1.129240	0.932310	-0.329467	0.195495	-1.000000	-1.000000	-1.000000	-1.000000	-1.000000	-1.000000	-1.000000	68.206897	0.000000	-1.000000	-1.000000	1468846.000000	1773690494.663834
6728.715000	14781.285000	22737.735000	9696.870000	-14491.845000	6590.970000	-2176.740000	931.680000	-4.816746	-3.652811	-0.383212	-1.561854	3.755506	3.312111	1.509745	-11.366280	-6.546540	3.601360	-1.129240	0.932310	-0.329467	0.195495	-1.000000	-1.000000	-1.000000	-1.000000	-1.000000	-1.000000	-1.000000	68.206897	0.000000	-1.000000	-1.000000	1468847.000000	1773690494.663847
6717.555000	14767.245000	22736.205000	9705.150000	-14482.395000	6604.155000	-2176.155000	921.285000	-8.431944	-3.982667	-0.990947	-0.903066	2.511130	2.075092	-1.513824	-15.566518	-6.546540	3.601360	-1.129240	0.932310	-0.329467	0.195495	-1.000000	-1.000000	-1.000000	-1.000000	-1.000000	-1.000000	-1.000000	68.206897	0.000000	-1.000000	-1.000000	1468848.000000	1773690494.663852
6726.735000	14778.405000	22733.460000	9712.125000	-14472.135000	6619.320000	-2169.360000	915.120000	-9.985215	-1.413959	0.526862	2.209859	2.703559	2.670187	-2.754956	-14.071205	-6.546540	3.601360	-1.129240	0.932310	-0.329467	0.195495	-1.000000	-1.000000	-1.000000	-1.000000	-1.000000	-1.000000	-1.000000	68.206897	0.000000	-1.000000	-1.000000	1468849.000000	1773690494.667226
6733.170000	14793.480000	22741.470000	9709.470000	-14487.030000	6600.420000	-2167.560000	917.865000	-8.009918	1.024661	1.256880	4.041728	2.125927	2.830622	-2.862827	-8.482818	-6.546540	3.601360	-1.129240	0.932310	-0.329467	0.195495	-1.000000	-1.000000	-1.000000	-1.000000	-1.000000	-1.000000	-1.000000	68.206897	0.000000	-1.000000	-1.000000	1468850.000000	1773690494.667238
6734.160000	14802.705000	22762.710000	9725.220000	-14472.090000	6608.520000	-2155.770000	918.810000	-3.010577	1.739592	-0.226273	2.283249	-0.947974	0.166448	-2.577915	-1.612548	-8.026760	2.121140	-1.678600	0.932127	-0.332946	0.196472	-1.000000	-1.000000	-1.000000	-1.000000	-1.000000	-1.000000	-1.000000	68.206897	0.000000	-1.000000	-1.000000	1468851.000000	1773690494.671199
6745.230000	14807.565000	22765.185000	9721.845000	-14474.565000	6603.705000	-2166.030000	943.605000	2.734467	0.852054	-3.062252	-1.834132	-5.338566	-4.655465	-2.148286	4.853008	-8.026760	2.121140	-1.678600	0.932127	-0.332946	0.196472	-1.000000	-1.000000	-1.000000	-1.000000	-1.000000	-1.000000	-1.000000	68.206897	0.000000	-1.000000	-1.000000	1468852.000000	1773690494.671211
6760.845000	14820.570000	22781.655000	9719.775000	-14484.915000	6587.910000	-2172.960000	958.455000	7.755683	0.079570	-5.111520	-5.313132	-8.309853	-8.673269	-2.038226	10.868380	-8.026760	2.121140	-1.678600	0.932127	-0.332946	0.196472	-1.000000	-1.000000	-1.000000	-1.000000	-1.000000	-1.000000	-1.000000	68.206897	0.000000	-1.000000	-1.000000	1468853.000000	1773690494.676887
6732.360000	14798.565000	22750.560000	9706.095000	-14485.905000	6592.230000	-2166.165000	932.670000	10.678448	0.553703	-4.954448	-6.399356	-8.157319	-9.391120	-2.266387	15.217816	-8.026760	2.121140	-1.678600	0.932127	-0.332946	0.196472	-1.000000	-1.000000	-1.000000	-1.000000	-1.000000	-1.000000	-1.000000	68.206897	0.000000	-1.000000	-1.000000	1468854.000000	1773690494.676909
6734.925000	14785.695000	22745.520000	9706.455000	-14480.415000	6601.455000	-2166.165000	923.985000	8.921539	0.445417	-3.792908	-5.396342	-4.716019	-5.715665	-1.560764	14.427842	-8.026760	2.121140	-1.678600	0.932127	-0.332946	0.196472	-1.000000	-1.000000	-1.000000	-1.000000	-1.000000	-1.000000	-1.000000	68.206897	0.000000	-1.000000	-1.000000	1468855.000000	1773690494.679230
6755.220000	14790.600000	22737.645000	9694.485000	-14499.810000	6580.080000	-2175.570000	938.790000	2.465764	-1.873504	-3.378964	-3.415531	0.475588	0.943341	0.752594	7.337845	-8.026760	2.121140	-1.678600	0.932127	-0.332946	0.196472	-1.000000	-1.000000	-1.000000	-1.000000	-1.000000	-1.000000	-1.000000	68.206897	0.000000	-1.000000	-1.000000	1468856.000000	1773690494.679254
6732.675000	14784.075000	22736.160000	9693.990000	-14508.675000	6573.285000	-2182.095000	930.150000	-4.583071	-4.644199	-3.270637	-1.511631	4.129197	6.161108	3.075755	-2.181495	-8.026760	2.121140	-1.678600	0.932127	-0.332946	0.196472	-1.000000	-1.000000	-1.000000	-1.000000	-1.000000	-1.000000	-1.000000	68.206897	0.000000	-1.000000	-1.000000	1468857.000000	1773690494.683456
6738.840000	14800.680000	22761.945000	9725.220000	-14487.390000	6591.285000	-2178.270000	925.785000	-8.691382	-5.367280	-1.708574	0.138094	4.202431	6.596748	3.335255	-9.249908	-8.026760	2.121140	-1.678600	0.932127	-0.332946	0.196472	-1.000000	-1.000000	-1.000000	-1.000000	-1.000000	-1.000000	-1.000000	68.206897	0.000000	-1.000000	-1.000000	1468858.000000	1773690494.683468
6727.095000	14768.010000	22727.295000	9699.750000	-14495.130000	6600.330000	-2169.720000	947.475000	-9.341659	-4.077442	1.515291	2.077719	2.304347	3.873765	1.513433	-11.562940	-8.026760	2.121140	-1.678600	0.932127	-0.332946	0.196472	-1.000000	-1.000000	-1.000000	-1.000000	-1.000000	-1.000000	-1.000000	68.206897	0.000000	-1.000000	-1.000000	1468859.000000	1773690494.687188
6691.950000	14748.615000	22712.670000	9688.590000	-14497.245000	6605.505000	-2166.795000	936.495000	-7.879028	-3.076154	3.386600	3.307823	0.712142	1.670074	-0.605353	-9.263651	-8.026760	2.121140	-1.678600	0.932127	-0.332946	0.196472	-1.000000	-1.000000	-1.000000	-1.000000	-1.000000	-1.000000	-1.000000	68.206897	0.000000	-1.000000	-1.000000	1468860.000000	1773690494.687198
6668.100000	14761.260000	22727.160000	9702.045000	-14482.665000	6614.505000	-2163.690000	911.655000	-6.328365	-3.287566	1.685119	2.581249	0.137849	1.482674	-1.350657	-5.024719	-2.182180	2.594200	-2.517900	0.931028	-0.338134	0.197998	-1.000000	-1.000000	-1.000000	-1.000000	-1.000000	-1.000000	-1.000000	68.206897	0.000000	-1.000000	-1.000000	1468861.000000	1773690494.691157
6697.035000	14767.605000	22728.060000	9699.390000	-14486.670000	6600.285000	-2164.815000	916.110000	-4.814228	-2.272381	-0.952689	1.362679	0.987183	2.516433	-0.348333	-2.169032	-2.182180	2.594200	-2.517900	0.931028	-0.338134	0.197998	-1.000000	-1.000000	-1.000000	-1.000000	-1.000000	-1.000000	-1.000000	68.206897	0.000000	-1.000000	-1.000000	1468862.000000	1773690494.691167
6733.620000	14780.835000	22734.720000	9699.390000	-14494.905000	6589.170000	-2163.195000	931.590000	-0.243332	2.385909	-0.439012	1.609458	2.717888	2.671944	1.372523	-0.455354	-2.182180	2.594200	-2.517900	0.931028	-0.338134	0.197998	-1.000000	-1.000000	-1.000000	-1.000000	-1.000000	-1.000000	-1.000000	68.206897	0.000000	-1.000000	-1.000000	1468863.000000	1773690494.695270
6750.630000	14785.245000	22732.650000	9698.355000	-14489.145000	6605.280000	-2167.155000	939.105000	8.965821	9.626401	3.860893	3.047448	3.541112	0.565585	2.389794	2.690743	-2.182180	2.594200	-2.517900	0.931028	-0.338134	0.197998	-1.000000	-1.000000	-1.000000	-1.000000	-1.000000	-1.000000	-1.000000	68.206897	0.000000	-1.000000	-1.000000	1468864.000000	1773690494.695279
6760.890000	14791.995000	22704.165000	9696.555000	-14460.480000	6650.640000	-2164.680000	951.480000	18.493248	15.363584	8.388961	4.075919	3.127636	-1.704650	2.139719	7.243508	-2.182180	2.594200	-2.517900	0.931028	-0.338134	0.197998	-1.000000	-1.000000	-1.000000	-1.000000	-1.000000	-1.000000	-1.000000	68.206897	0.000000	-1.000000	-1.000000	1468865.000000	1773690494.711532
6741.495000	14783.760000	22690.620000	9693.540000	-14443.335000	6682.185000	-2163.465000	938.385000	21.567323	15.359582	8.327176	3.157483	2.882924	-0.615443	0.984655	10.359081	-2.182180	2.594200	-2.517900	0.931028	-0.338134	0.197998	-1.000000	-1.000000	-1.000000	-1.000000	-1.000000	-1.000000	-1.000000	68.206897	0.000000	-1.000000	-1.000000	1468866.000000	1773690494.711618
6730.515000	14775.345000	22724.370000	9699.480000	-14483.880000	6616.620000	-2160.720000	928.710000	14.686673	8.174928	2.743937	-0.161457	2.340204	2.491953	-0.572107	9.157929	-2.182180	2.594200	-2.517900	0.931028	-0.338134	0.197998	-1.000000	-1.000000	-1.000000	-1.000000	-1.000000	-1.000000	-1.000000	68.206897	0.000000	-1.000000	-1.000000	1468867.000000	1773690494.711678
6723.270000	14787.045000	22761.630000	9710.505000	-14511.780000	6541.200000	-2169.315000	914.805000	0.405445	-2.901152	-3.038468	-3.887219	-1.349417	0.542755	-2.358443	2.774219	-2.182180	2.594200	-2.517900	0.931028	-0.338134	0.197998	-1.000000	-1.000000	-1.000000	-1.000000	-1.000000	-1.000000	-1.000000	68.206897	0.000000	-1.000000	-1.000000	1468868.000000	1773690494.711708
6719.895000	14787.045000	22777.020000	9719.010000	-14498.685000	6565.095000	-2167.065000	914.760000	-13.509209	-11.476460	-3.100518	-4.835486	-8.337246	-9.644525	-4.090565	-6.002954	-2.182180	2.594200	-2.517900	0.931028	-0.338134	0.197998	-1.000000	-1.000000	-1.000000	-1.000000	-1.000000	-1.000000	-1.000000	68.206897	0.000000	-1.000000	-1.000000	1468869.000000	1773690494.711902
6718.410000	14771.340000	22740.345000	9701.145000	-14495.940000	6589.620000	-2166.840000	924.345000	-19.801505	-13.891259	1.225854	-2.598615	-13.768032	-19.834031	-4.781214	-11.641588	-2.182180	2.594200	-2.517900	0.931028	-0.338134	0.197998	-1.000000	-1.000000	-1.000000	-1.000000	-1.000000	-1.000000	-1.000000	68.206897	0.000000	-1.000000	-1.000000	1468870.000000	1773690494.711907
6723.090000	14774.040000	22737.645000	9701.955000	-14490.495000	6595.560000	-2165.940000	935.280000	-17.288694	-11.537394	3.150385	0.044864	-12.577049	-18.588030	-3.494688	-10.284057	0.076300	1.373400	-3.036740	0.928770	-0.338500	0.197326	-1.000000	-1.000000	-1.000000	-1.000000	-1.000000	-1.000000	-1.000000	68.206897	0.000000	-1.000000	-1.000000	1468871.000000	1773690494.711913
6720.030000	14774.805000	22735.800000	9697.950000	-14500.530000	6585.390000	-2166.930000	928.305000	-10.183337	-7.140615	-0.605095	0.914627	-4.590055	-4.454470	-0.532583	-3.310670	0.076300	1.373400	-3.036740	0.928770	-0.338500	0.197326	-1.000000	-1.000000	-1.000000	-1.000000	-1.000000	-1.000000	-1.000000	68.206897	0.000000	-1.000000	-1.000000	1468872.000000	1773690494.711918
6721.785000	14783.895000	22743.135000	9705.285000	-14501.790000	6575.985000	-2164.230000	916.785000	-3.352323	-2.193537	-6.597109	0.313146	5.374419	12.809178	2.796781	3.786879	0.076300	1.373400	-3.036740	0.928770	-0.338500	0.197326	-1.000000	-1.000000	-1.000000	-1.000000	-1.000000	-1.000000	-1.000000	68.206897	0.000000	-1.000000	-1.000000	1468873.000000	1773690494.717100
6716.700000	14781.330000	22738.860000	9701.055000	-14500.530000	6584.085000	-2170.440000	907.155000	1.240355	2.436869	-9.244396	-0.392474	11.344122	21.590730	4.994218	6.233843	0.076300	1.373400	-3.036740	0.928770	-0.338500	0.197326	-1.000000	-1.000000	-1.000000	-1.000000	-1.000000	-1.000000	-1.000000	68.206897	0.000000	-1.000000	-1.000000	1468874.000000	1773690494.717111
6721.200000	14787.045000	22742.055000	9704.835000	-14493.915000	6587.955000	-2175.525000	915.030000	4.490206	5.855100	-6.492868	-0.584435	10.832302	17.979841	4.845865	3.971435	0.076300	1.373400	-3.036740	0.928770	-0.338500	0.197326	-1.000000	-1.000000	-1.000000	-1.000000	-1.000000	-1.000000	-1.000000	68.206897	0.000000	-1.000000	-1.000000	1468875.000000	1773690494.719804
6723.360000	14794.605000	22748.355000	9709.470000	-14492.790000	6585.795000	-2175.705000	926.280000	7.646819	7.528953	-1.301005	-0.466583	6.644319	8.114499	2.268799	0.812269	0.076300	1.373400	-3.036740	0.928770	-0.338500	0.197326	-1.000000	-1.000000	-1.000000	-1.000000	-1.000000	-1.000000	-1.000000	68.206897	0.000000	-1.000000	-1.000000	1468876.000000	1773690494.719814
6726.105000	14782.545000	22740.390000	9707.310000	-14490.540000	6591.690000	-2167.740000	937.980000	10.522767	7.235087	1.890589	-0.265208	3.300020	1.149214	-1.038388	0.268851	0.076300	1.373400	-3.036740	0.928770	-0.338500	0.197326	-1.000000	-1.000000	-1.000000	-1.000000	-1.000000	-1.000000	-1.000000	68.206897	0.000000	-1.000000	-1.000000	1468877.000000	1773690494.723180
6721.830000	14766.975000	22725.495000	9694.395000	-14496.885000	6593.535000	-2162.250000	935.055000	11.643653	4.512767	1.257273	-0.304558	1.870178	-0.190060	-2.740147	2.538312	0.076300	1.373400	-3.036740	0.928770	-0.338500	0.197326	-1.000000	-1.000000	-1.000000	-1.000000	-1.000000	-1.000000	-1.000000	68.206897	0.000000	-1.000000	-1.000000	1468878.000000	1773690494.723191
6717.195000	14768.460000	22725.945000	9696.645000	-14486.175000	6597.855000	-2166.390000	926.685000	9.263367	-0.182317	-1.095512	-0.638394	0.442477	-0.041524	-2.033363	4.560887	0.076300	1.373400	-3.036740	0.928770	-0.338500	0.197326	-1.000000	-1.000000	-1.000000	-1.000000	-1.000000	-1.000000	-1.000000	68.206897	0.000000	-1.000000	-1.000000	1468879.000000	1773690494.733226
6714.180000	14764.905000	22710.330000	9695.745000	-14485.725000	6593.760000	-2173.320000	919.080000	2.898316	-4.620466	-1.740295	-0.541735	-1.769311	-2.097274	-0.247182	3.085275	0.076300	1.373400	-3.036740	0.928770	-0.338500	0.197326	-1.000000	-1.000000	-1.000000	-1.000000	-1.000000	-1.000000	-1.000000	68.206897	0.000000	-1.000000	-1.000000	1468880.000000	1773690494.733238
6716.295000	14763.285000	22682.565000	9694.170000	-14487.660000	6591.105000	-2177.145000	912.555000	-5.360072	-6.670440	-0.218420	0.394855	-3.725144	-5.869860	0.759957	-1.879706	-1.022420	1.144500	-4.516960	0.923337	-0.333556	0.196838	-1.000000	-1.000000	-1.000000	-1.000000	-1.000000	-1.000000	-1.000000	68.206897	0.000000	-1.000000	-1.000000	1468881.000000	1773690494.733252
6729.885000	14786.820000	22706.415000	9702.900000	-14484.555000	6595.605000	-2182.590000	908.685000	-11.413068	-5.584841	1.694647	1.642070	-4.607672	-8.917721	0.298907	-7.041039	-1.022420	1.144500	-4.516960	0.923337	-0.333556	0.196838	-1.000000	-1.000000	-1.000000	-1.000000	-1.000000	-1.000000	-1.000000	68.206897	0.000000	-1.000000	-1.000000	1468882.000000	1773690494.733257
6737.310000	14807.970000	22756.635000	9707.535000	-14492.250000	6596.865000	-2175.030000	908.460000	-11.712830	-1.387524	4.326641	2.593493	-4.681060	-9.649874	-0.817230	-8.843018	-1.022420	1.144500	-4.516960	0.923337	-0.333556	0.196838	-1.000000	-1.000000	-1.000000	-1.000000	-1.000000	-1.000000	-1.000000	68.206897	0.000000	-1.000000	-1.000000	1468883.000000	1773690494.735256
6733.260000	14802.795000	22782.375000	9710.235000	-14489.955000	6587.910000	-2166.930000	898.020000	-6.246041	4.423597	9.016217	2.841656	-4.345835	-7.707071	-1.059728	-6.431077	-1.022420	1.144500	-4.516960	0.923337	-0.333556	0.196838	-1.000000	-1.000000	-1.000000	-1.000000	-1.000000	-1.000000	-1.000000	68.206897	0.000000	-1.000000	-1.000000	1468884.000000	1773690494.735268
6730.425000	14784.480000	22755.330000	9695.160000	-14486.760000	6597.810000	-2158.515000	920.160000	1.156991	8.098398	13.103080	1.803452	-3.120182	-3.128635	0.329669	-1.701161	-1.022420	1.144500	-4.516960	0.923337	-0.333556	0.196838	-1.000000	-1.000000	-1.000000	-1.000000	-1.000000	-1.000000	-1.000000	68.206897	0.000000	-1.000000	-1.000000	1468885.000000	1773690494.739319
6718.500000	14770.845000	22738.995000	9703.845000	-14491.845000	6592.950000	-2161.440000	951.255000	6.007091	6.521383	11.092885	-0.568182	-0.655576	2.916377	2.338514	3.576318	-1.022420	1.144500	-4.516960	0.923337	-0.333556	0.196838	-1.000000	-1.000000	-1.000000	-1.000000	-1.000000	-1.000000	-1.000000	68.206897	0.000000	-1.000000	-1.000000	1468886.000000	1773690494.739328
6714.765000	14786.910000	22753.035000	9719.640000	-14491.845000	6584.805000	-2169.495000	948.780000	6.211352	0.921311	1.990662	-2.513746	2.004559	7.305089	2.958790	8.505193	-1.022420	1.144500	-4.516960	0.923337	-0.333556	0.196838	-1.000000	-1.000000	-1.000000	-1.000000	-1.000000	-1.000000	-1.000000	68.206897	0.000000	-1.000000	-1.000000	1468887.000000	1773690494.743220
6713.370000	14793.615000	22747.860000	9708.660000	-14488.875000	6589.710000	-2167.020000	922.590000	2.759611	-4.134108	-8.545874	-2.108650	3.435757	7.483242	1.316850	10.832951	-1.022420	1.144500	-4.516960	0.923337	-0.333556	0.196838	-1.000000	-1.000000	-1.000000	-1.000000	-1.000000	-1.000000	-1.000000	68.206897	0.000000	-1.000000	-1.000000	1468888.000000	1773690494.743231
6724.935000	14804.865000	22748.220000	9719.460000	-14472.000000	6612.030000	-2146.185000	922.860000	-1.385274	-5.260013	-14.121199	0.018857	3.511732	4.579444	-0.988635	7.989622	-1.022420	1.144500	-4.516960	0.923337	-0.333556	0.196838	-1.000000	-1.000000	-1.000000	-1.000000	-1.000000	-1.000000	-1.000000	68.206897	0.000000	-1.000000	-1.000000	1468889.000000	1773690494.751823
6728.760000	14815.935000	22758.885000	9727.695000	-14469.705000	6615.810000	-2143.215000	918.090000	-3.452147	-2.665707	-12.400295	1.926203	3.260744	1.956823	-1.481268	0.906169	-1.022420	1.144500	-4.516960	0.923337	-0.333556	0.196838	-1.000000	-1.000000	-1.000000	-1.000000	-1.000000	-1.000000	-1.000000	68.206897	0.000000	-1.000000	-1.000000	1468890.000000	1773690494.751833
6738.840000	14800.815000	22748.805000	9710.730000	-14487.885000	6595.470000	-2161.665000	931.770000	-2.673769	0.509805	-5.996502	2.211763	2.790780	0.703189	-0.074541	-6.047089	-5.234180	2.441600	-4.562740	0.922788	-0.327087	0.193847	-1.000000	-1.000000	-1.000000	-1.000000	-1.000000	-1.000000	-1.000000	68.206897	0.000000	-1.000000	-1.000000	1468891.000000	1773690494.751870
6749.775000	14790.960000	22742.415000	9695.475000	-14508.855000	6571.440000	-2174.490000	953.370000	-0.048242	0.661195	-0.891982	-0.100850	0.770915	-1.140406	0.521865	-8.546445	-5.234180	2.441600	-4.562740	0.922788	-0.327087	0.193847	-1.000000	-1.000000	-1.000000	-1.000000	-1.000000	-1.000000	-1.000000	68.206897	0.000000	-1.000000	-1.000000	1468892.000000	1773690494.751875
6744.510000	14792.985000	22756.410000	9707.355000	-14497.470000	6582.735000	-2171.745000	943.785000	2.848642	-2.503530	-0.656303	-4.192042	-2.910452	-4.293685	-1.601176	-5.618769	-5.234180	2.441600	-4.562740	0.922788	-0.327087	0.193847	-1.000000	-1.000000	-1.000000	-1.000000	-1.000000	-1.000000	-1.000000	68.206897	0.000000	-1.000000	-1.000000	1468893.000000	1773690494.755250
6729.930000	14765.580000	22728.285000	9697.680000	-14490.090000	6606.495000	-2153.295000	942.615000	4.242390	-5.551250	-2.706208	-6.847187	-5.700907	-6.059394	-4.750739	-0.897153	-5.234180	2.441600	-4.562740	0.922788	-0.327087	0.193847	-1.000000	-1.000000	-1.000000	-1.000000	-1.000000	-1.000000	-1.000000	68.206897	0.000000	-1.000000	-1.000000	1468894.000000	1773690494.755257
6734.520000	14764.230000	22723.605000	9693.585000	-14491.620000	6604.965000	-2150.685000	950.760000	3.108824	-5.563452	-2.798656	-5.896916	-5.029596	-3.812204	-5.380455	1.007231	-5.234180	2.441600	-4.562740	0.922788	-0.327087	0.193847	-1.000000	-1.000000	-1.000000	-1.000000	-1.000000	-1.000000	-1.000000	68.206897	0.000000	-1.000000	-1.000000	1468895.000000	1773690494.759395
6744.195000	14774.220000	22731.705000	9699.660000	-14488.245000	6603.030000	-2151.225000	959.220000	0.478608	-2.485128	0.199357	-2.238027	-1.231161	1.348368	-2.079042	-0.216308	-5.234180	2.441600	-4.562740	0.922788	-0.327087	0.193847	-1.000000	-1.000000	-1.000000	-1.000000	-1.000000	-1.000000	-1.000000	68.206897	0.000000	-1.000000	-1.000000	1468896.000000	1773690494.759407
6753.870000	14796.360000	22752.045000	9717.885000	-14474.700000	6613.380000	-2141.865000	971.460000	-1.553133	2.307470	5.231315	2.443485	3.140667	5.682151	3.066222	-0.973228	-5.234180	2.441600	-4.562740	0.922788	-0.327087	0.193847	-1.000000	-1.000000	-1.000000	-1.000000	-1.000000	-1.000000	-1.000000	68.206897	0.000000	-1.000000	-1.000000	1468897.000000	1773690494.763352
6727.455000	14794.155000	22755.780000	9723.735000	-14469.390000	6620.895000	-2137.680000	961.020000	-2.461911	6.990581	10.552486	6.851943	5.721523	6.413769	6.639857	0.970040	-5.234180	2.441600	-4.562740	0.922788	-0.327087	0.193847	-1.000000	-1.000000	-1.000000	-1.000000	-1.000000	-1.000000	-1.000000	68.206897	0.000000	-1.000000	-1.000000	1468898.000000	1773690494.763363
6721.200000	14793.120000	22760.640000	9732.420000	-14461.065000	6628.500000	-2144.565000	939.285000	-3.695445	9.168712	13.398213	9.324488	5.677015	3.717173	6.647220	3.507772	-5.234180	2.441600	-4.562740	0.922788	-0.327087	0.193847	-1.000000	-1.000000	-1.000000	-1.000000	-1.000000	-1.000000	-1.000000	68.206897	0.000000	-1.000000	-1.000000	1468899.000000	1773690494.767355
6736.095000	14793.840000	22754.925000	9724.770000	-14467.545000	6624.405000	-2156.040000	938.340000	-5.626290	7.465552	11.118136	8.663171	3.862604	0.113102	3.541816	2.972273	-5.234180	2.441600	-4.562740	0.922788	-0.327087	0.193847	-1.000000	-1.000000	-1.000000	-1.000000	-1.000000	-1.000000	-1.000000	68.206897	0.000000	-1.000000	-1.000000	1468900.000000	1773690494.767366
6728.265000	14780.070000	22737.105000	9705.645000	-14482.890000	6614.730000	-2161.800000	934.020000	-6.239632	2.941152	3.370928	4.824989	1.434815	-2.018916	-0.770448	-1.255432	-6.012440	4.089680	-3.952340	0.924741	-0.328429	0.191711	-1.000000	-1.000000	-1.000000	-1.000000	-1.000000	-1.000000	-1.000000	68.206897	0.000000	-1.000000	-1.000000	1468901.000000	1773690494.771252
6736.230000	14783.895000	22739.040000	9707.670000	-14480.910000	6615.945000	-2149.020000	929.610000	-3.712619	-1.961678	-6.876034	-1.312890	-1.534020	-2.701727	-4.338778	-6.047043	-6.012440	4.089680	-3.952340	0.924741	-0.328429	0.191711	-1.000000	-1.000000	-1.000000	-1.000000	-1.000000	-1.000000	-1.000000	68.206897	0.000000	-1.000000	-1.000000	1468902.000000	1773690494.771262
6740.505000	14784.930000	22733.910000	9699.570000	-14486.670000	6599.160000	-2144.520000	944.550000	1.746521	-4.586529	-14.032614	-7.363663	-4.904031	-3.693952	-5.783310	-7.704589	-6.012440	4.089680	-3.952340	0.924741	-0.328429	0.191711	-1.000000	-1.000000	-1.000000	-1.000000	-1.000000	-1.000000	-1.000000	68.206897	0.000000	-1.000000	-1.000000	1468903.000000	1773690494.776833
6738.930000	14790.825000	22744.395000	9709.920000	-14474.025000	6608.160000	-2144.385000	944.685000	7.720699	-3.745086	-13.796517	-10.254268	-7.106908	-5.467780	-4.658367	-4.833403	-6.012440	4.089680	-3.952340	0.924741	-0.328429	0.191711	-1.000000	-1.000000	-1.000000	-1.000000	-1.000000	-1.000000	-1.000000	68.206897	0.000000	-1.000000	-1.000000	1468904.000000	1773690494.776844
6744.555000	14807.610000	22748.355000	9711.180000	-14472.855000	6610.050000	-2143.710000	938.520000	10.605984	-1.042964	-6.997302	-8.629486	-6.431170	-6.100056	-1.726856	0.877614	-6.012440	4.089680	-3.952340	0.924741	-0.328429	0.191711	-1.000000	-1.000000	-1.000000	-1.000000	-1.000000	-1.000000	-1.000000	68.206897	0.000000	-1.000000	-1.000000	1468905.000000	1773690494.779496
6738.660000	14824.845000	22761.135000	9720.000000	-14474.700000	6608.970000	-2147.310000	921.780000	8.494378	1.087281	1.700336	-3.827408	-3.235600	-4.098222	1.205114	5.801737	-6.012440	4.089680	-3.952340	0.924741	-0.328429	0.191711	-1.000000	-1.000000	-1.000000	-1.000000	-1.000000	-1.000000	-1.000000	68.206897	0.000000	-1.000000	-1.000000	1468906.000000	1773690494.779506
6732.720000	14824.620000	22771.080000	9740.115000	-14451.570000	6644.295000	-2141.460000	916.110000	2.863164	1.602665	7.864849	1.588559	0.587738	-0.019106	2.561555	7.275839	-6.012440	4.089680	-3.952340	0.924741	-0.328429	0.191711	-1.000000	-1.000000	-1.000000	-1.000000	-1.000000	-1.000000	-1.000000	68.206897	0.000000	-1.000000	-1.000000	1468907.000000	1773690494.783407
6725.835000	14795.100000	22766.445000	9738.765000	-14443.695000	6662.655000	-2136.555000	931.230000	-3.193919	0.262560	9.438960	5.778907	4.009337	5.254816	2.643181	5.868510	-6.012440	4.089680	-3.952340	0.924741	-0.328429	0.191711	-1.000000	-1.000000	-1.000000	-1.000000	-1.000000	-1.000000	-1.000000	68.206897	0.000000	-1.000000	-1.000000	1468908.000000	1773690494.783416
6751.530000	14786.550000	22751.190000	9718.695000	-14470.560000	6628.950000	-2142.900000	965.160000	-7.122174	-2.912256	6.492958	7.579317	6.483355	10.077787	2.816976	4.348548	-6.012440	4.089680	-3.952340	0.924741	-0.328429	0.191711	-1.000000	-1.000000	-1.000000	-1.000000	-1.000000	-1.000000	-1.000000	68.206897	0.000000	-1.000000	-1.000000	1468909.000000	1773690494.787409
6749.550000	14781.960000	22742.505000	9712.575000	-14488.605000	6575.895000	-2145.375000	965.250000	-7.238806	-6.324857	0.732808	6.163542	6.351298	10.343676	3.095575	4.520907	-6.012440	4.089680	-3.952340	0.924741	-0.328429	0.191711	-1.000000	-1.000000	-1.000000	-1.000000	-1.000000	-1.000000	-1.000000	68.206897	0.000000	-1.000000	-1.000000	1468910.000000	1773690494.787415
6739.965000	14785.110000	22747.545000	9719.955000	-14468.445000	6609.375000	-2148.885000	942.030000	-3.882729	-7.118846	-4.733843	2.245578	2.849005	3.641147	2.046906	4.789861	-2.090620	5.310480	-2.731540	0.924802	-0.333251	0.191223	-1.000000	-1.000000	-1.000000	-1.000000	-1.000000	-1.000000	-1.000000	68.206897	0.000000	-1.000000	-1.000000	1468911.000000	1773690494.793605
6746.400000	14792.895000	22752.990000	9723.600000	-14459.985000	6626.250000	-2143.755000	934.335000	0.213905	-3.859737	-6.778256	-1.725384	-1.530381	-5.253790	-0.818714	1.640828	-2.090620	5.310480	-2.731540	0.924802	-0.333251	0.191223	-1.000000	-1.000000	-1.000000	-1.000000	-1.000000	-1.000000	-1.000000	68.206897	0.000000	-1.000000	-1.000000	1468912.000000	1773690494.793615
6746.445000	14790.915000	22749.435000	9719.235000	-14469.615000	6602.130000	-2140.650000	941.940000	2.607754	1.804823	-4.767228	-3.831427	-3.840325	-9.360535	-3.769566	-5.182825	-2.090620	5.310480	-2.731540	0.924802	-0.333251	0.191223	-1.000000	-1.000000	-1.000000	-1.000000	-1.000000	-1.000000	-1.000000	68.206897	0.000000	-1.000000	-1.000000	1468913.000000	1773690494.797754
6739.515000	14790.555000	22748.580000	9714.780000	-14479.245000	6589.260000	-2145.060000	937.620000	2.619563	6.088808	-1.103633	-4.236322	-4.073116	-7.855144	-4.721037	-11.197730	-2.090620	5.310480	-2.731540	0.924802	-0.333251	0.191223	-1.000000	-1.000000	-1.000000	-1.000000	-1.000000	-1.000000	-1.000000	68.206897	0.000000	-1.000000	-1.000000	1468914.000000	1773690494.797763
6753.195000	14804.730000	22757.805000	9722.700000	-14480.865000	6598.980000	-2145.285000	942.705000	1.146582	6.395420	1.419008	-4.003298	-3.782590	-4.339579	-3.409956	-11.776004	-2.090620	5.310480	-2.731540	0.924802	-0.333251	0.191223	-1.000000	-1.000000	-1.000000	-1.000000	-1.000000	-1.000000	-1.000000	68.206897	0.000000	-1.000000	-1.000000	1468915.000000	1773690494.799328
6767.100000	14817.015000	22736.880000	9722.430000	-14469.570000	6609.645000	-2144.340000	950.040000	0.386178	4.033122	1.671165	-3.551829	-3.571459	-1.357546	-0.994716	-6.171549	-2.090620	5.310480	-2.731540	0.924802	-0.333251	0.191223	-1.000000	-1.000000	-1.000000	-1.000000	-1.000000	-1.000000	-1.000000	68.206897	0.000000	-1.000000	-1.000000	1468916.000000	1773690494.799334
6756.930000	14810.490000	22713.570000	9712.620000	-14466.915000	6611.130000	-2143.935000	945.180000	1.318097	2.392999	-0.129463	-2.487619	-2.520767	0.853745	1.383253	1.896282	-2.090620	5.310480	-2.731540	0.924802	-0.333251	0.191223	-1.000000	-1.000000	-1.000000	-1.000000	-1.000000	-1.000000	-1.000000	68.206897	0.000000	-1.000000	-1.000000	1468917.000000	1773690494.805027
6749.055000	14802.570000	22744.620000	9717.615000	-14463.405000	6617.610000	-2142.675000	944.100000	1.853166	2.634084	-2.095972	-0.135929	0.774782	3.767677	3.144446	6.823784	-2.090620	5.310480	-2.731540	0.924802	-0.333251	0.191223	-1.000000	-1.000000	-1.000000	-1.000000	-1.000000	-1.000000	-1.000000	68.206897	0.000000	-1.000000	-1.000000	1468918.000000	1773690494.805036
6750.495000	14808.690000	22774.860000	9725.265000	-14461.875000	6621.660000	-2143.260000	943.830000	0.043246	3.023572	-0.732787	3.503171	5.845925	8.325994	3.921536	6.175808	-2.090620	5.310480	-2.731540	0.924802	-0.333251	0.191223	-1.000000	-1.000000	-1.000000	-1.000000	-1.000000	-1.000000	-1.000000	68.206897	0.000000	-1.000000	-1.000000	1468919.000000	1773690494.807441
6748.740000	14818.500000	22803.885000	9736.380000	-14474.790000	6604.560000	-2141.145000	949.500000	-2.859334	1.982225	5.337859	7.020906	9.216670	11.629554	3.345327	2.583895	-2.090620	5.310480	-2.731540	0.924802	-0.333251	0.191223	-1.000000	-1.000000	-1.000000	-1.000000	-1.000000	-1.000000	-1.000000	68.206897	0.000000	-1.000000	-1.000000	1468920.000000	1773690494.807452
6743.610000	14805.180000	22776.705000	9731.700000	-14473.935000	6600.870000	-2133.945000	945.855000	-4.506342	-0.621346	12.084150	8.294185	7.426946	9.073236	1.593654	-0.115833	-0.381500	5.814060	-1.785420	0.925169	-0.332152	0.192565	-1.000000	-1.000000	-1.000000	-1.000000	-1.000000	-1.000000	-1.000000	68.206897	0.000000	-1.000000	-1.000000	1468921.000000	1773690494.812658
6746.625000	14810.805000	22773.060000	9731.385000	-14463.450000	6610.815000	-2136.645000	941.625000	-4.029385	-4.177077	12.883096	6.090002	1.367135	1.034891	-0.455732	-0.744471	-0.381500	5.814060	-1.785420	0.925169	-0.332152	0.192565	-1.000000	-1.000000	-1.000000	-1.000000	-1.000000	-1.000000	-1.000000	68.206897	0.000000	-1.000000	-1.000000	1468922.000000	1773690494.812669
6747.255000	14807.385000	22767.930000	9728.460000	-14457.330000	6624.630000	-2139.840000	935.730000	-1.764939	-7.372391	5.176258	1.068924	-4.304649	-6.670888	-1.987872	-0.358680	-0.381500	5.814060	-1.785420	0.925169	-0.332152	0.192565	-1.000000	-1.000000	-1.000000	-1.000000	-1.000000	-1.000000	-1.000000	68.206897	0.000000	-1.000000	-1.000000	1468923.000000	1773690494.815174
6732.225000	14784.255000	22750.470000	9720.900000	-14449.230000	6645.870000	-2137.995000	917.910000	0.985196	-9.027954	-7.149917	-4.802042	-6.127704	-9.294697	-2.677538	-0.314292	-0.381500	5.814060	-1.785420	0.925169	-0.332152	0.192565	-1.000000	-1.000000	-1.000000	-1.000000	-1.000000	-1.000000	-1.000000	68.206897	0.000000	-1.000000	-1.000000	1468924.000000	1773690494.815184
6738.480000	14800.455000	22761.990000	9727.605000	-14463.180000	6623.010000	-2139.795000	927.495000	2.392103	-8.567400	-16.878755	-9.089619	-4.661119	-7.210454	-2.504162	-1.270900	-0.381500	5.814060	-1.785420	0.925169	-0.332152	0.192565	-1.000000	-1.000000	-1.000000	-1.000000	-1.000000	-1.000000	-1.000000	68.206897	0.000000	-1.000000	-1.000000	1468925.000000	1773690494.819221
6708.465000	14809.455000	22772.655000	9741.960000	-14450.670000	6636.870000	-2128.815000	926.145000	1.752057	-4.818156	-17.849273	-9.171517	-2.331606	-3.693657	-1.497744	-2.523336	-0.381500	5.814060	-1.785420	0.925169	-0.332152	0.192565	-1.000000	-1.000000	-1.000000	-1.000000	-1.000000	-1.000000	-1.000000	68.206897	0.000000	-1.000000	-1.000000	1468926.000000	1773690494.819235
6707.745000	14828.535000	22791.915000	9760.905000	-14426.640000	6661.935000	-2122.740000	899.505000	-0.189857	2.683901	-9.573518	-4.038896	0.023771	-0.332217	0.290479	-3.007881	-0.381500	5.814060	-1.785420	0.925169	-0.332152	0.192565	-1.000000	-1.000000	-1.000000	-1.000000	-1.000000	-1.000000	-1.000000	68.206897	0.000000	-1.000000	-1.000000	1468927.000000	1773690494.823316
6749.955000	14816.835000	22776.840000	9744.660000	-14442.390000	6647.220000	-2129.265000	931.365000	-1.251444	10.903691	1.758291	3.412474	2.556605	2.924483	2.178459	-2.288100	-0.381500	5.814060	-1.785420	0.925169	-0.332152	0.192565	-1.000000	-1.000000	-1.000000	-1.000000	-1.000000	-1.000000	-1.000000	68.206897	0.000000	-1.000000	-1.000000	1468928.000000	1773690494.823326
6773.760000	14773.680000	22727.205000	9694.845000	-14497.065000	6578.865000	-2148.570000	985.680000	1.379610	14.048758	8.002799	7.224194	3.293043	3.929034	2.502423	0.926142	-0.381500	5.814060	-1.785420	0.925169	-0.332152	0.192565	-1.000000	-1.000000	-1.000000	-1.000000	-1.000000	-1.000000	-1.000000	68.206897	0.000000	-1.000000	-1.000000	1468929.000000	1773690494.827583
6767.280000	14770.395000	22724.280000	9695.070000	-14492.340000	6583.050000	-2153.565000	987.750000	7.216498	8.633508	5.790575	3.628759	-0.259043	-0.052167	0.079099	7.386717	-0.381500	5.814060	-1.785420	0.925169	-0.332152	0.192565	-1.000000	-1.000000	-1.000000	-1.000000	-1.000000	-1.000000	-1.000000	68.206897	0.000000	-1.000000	-1.000000	1468930.000000	1773690494.827595
6757.695000	14786.235000	22728.915000	9710.505000	-14471.460000	6609.555000	-2142.900000	964.395000	11.208376	-1.943751	-0.588846	-4.019446	-5.991480	-6.452721	-3.590562	13.288747	-0.686700	6.653360	-1.648080	0.925901	-0.330566	0.193115	-1.000000	-1.000000	-1.000000	-1.000000	-1.000000	-1.000000	-1.000000	68.206897	0.000000	-1.000000	-1.000000	1468931.000000	1773690494.831281
6755.985000	14787.945000	22700.745000	9698.985000	-14478.030000	6607.935000	-2139.480000	953.370000	8.843615	-9.913056	-4.468214	-8.542061	-8.471666	-9.134026	-5.079918	12.646455	-0.686700	6.653360	-1.648080	0.925901	-0.330566	0.193115	-1.000000	-1.000000	-1.000000	-1.000000	-1.000000	-1.000000	-1.000000	68.206897	0.000000	-1.000000	-1.000000	1468932.000000	1773690494.831290
6753.015000	14801.040000	22732.605000	9717.210000	-14464.215000	6618.510000	-2140.290000	961.560000	0.781311	-10.079337	-2.859803	-6.335886	-5.237482	-5.642916	-2.756568	4.265606	-0.686700	6.653360	-1.648080	0.925901	-0.330566	0.193115	-1.000000	-1.000000	-1.000000	-1.000000	-1.000000	-1.000000	-1.000000	68.206897	0.000000	-1.000000	-1.000000	1468933.000000	1773690494.835425
6740.370000	14809.095000	22768.650000	9730.125000	-14458.905000	6619.995000	-2143.395000	952.920000	-8.345792	-3.321264	3.853134	1.028429	1.875161	1.803123	1.597088	-7.123829	-0.686700	6.653360	-1.648080	0.925901	-0.330566	0.193115	-1.000000	-1.000000	-1.000000	-1.000000	-1.000000	-1.000000	-1.000000	68.206897	0.000000	-1.000000	-1.000000	1468934.000000	1773690494.835435
6737.580000	14801.670000	22774.905000	9728.010000	-14465.520000	6616.935000	-2140.605000	943.695000	-13.666843	4.902639	12.456978	8.961240	8.796047	9.090635	4.830883	-15.554545	-0.686700	6.653360	-1.648080	0.925901	-0.330566	0.193115	-1.000000	-1.000000	-1.000000	-1.000000	-1.000000	-1.000000	-1.000000	68.206897	0.000000	-1.000000	-1.000000	1468935.000000	1773690494.839245
6744.555000	14791.635000	22768.020000	9738.000000	-14463.135000	6617.970000	-2136.105000	950.985000	-12.892861	8.671761	16.800342	12.488816	11.185643	11.981373	5.188700	-17.234361	-0.686700	6.653360	-1.648080	0.925901	-0.330566	0.193115	-1.000000	-1.000000	-1.000000	-1.000000	-1.000000	-1.000000	-1.000000	68.206897	0.000000	-1.000000	-1.000000	1468936.000000	1773690494.839257
6742.530000	14778.675000	22739.220000	9723.735000	-14469.525000	6612.120000	-2137.500000	955.170000	-7.770027	6.010327	12.416895	10.015785	8.146404	9.461856	3.358810	-12.269260	-0.686700	6.653360	-1.648080	0.925901	-0.330566	0.193115	-1.000000	-1.000000	-1.000000	-1.000000	-1.000000	-1.000000	-1.000000	68.206897	0.000000	-1.000000	-1.000000	1468937.000000	1773690494.844788
6744.780000	14802.480000	22772.070000	9731.295000	-14458.680000	6625.710000	-2131.245000	917.550000	-2.120204	0.511430	1.819779	4.302283	3.310687	5.114456	1.306360	-5.188688	-0.686700	6.653360	-1.648080	0.925901	-0.330566	0.193115	-1.000000	-1.000000	-1.000000	-1.000000	-1.000000	-1.000000	-1.000000	68.206897	0.000000	-1.000000	-1.000000	1468938.000000	1773690494.844799
6767.190000	14851.755000	22829.985000	9771.930000	-14424.120000	6654.150000	-2120.580000	856.935000	2.352193	-1.994391	-6.829295	-0.527265	0.556535	2.695355	0.411377	-1.431937	-0.686700	6.653360	-1.648080	0.925901	-0.330566	0.193115	-1.000000	-1.000000	-1.000000	-1.000000	-1.000000	-1.000000	-1.000000	68.206897	0.000000	-1.000000	-1.000000	1468939.000000	1773690494.847353
6793.110000	14857.785000	22817.970000	9767.745000	-14433.165000	6642.000000	-2131.155000	881.595000	6.759033	0.699744	-7.749883	-2.356044	0.173354	1.699185	0.328555	-1.504566	-0.686700	6.653360	-1.648080	0.925901	-0.330566	0.193115	-1.000000	-1.000000	-1.000000	-1.000000	-1.000000	-1.000000	-1.000000	68.206897	0.000000	-1.000000	-1.000000	1468940.000000	1773690494.847366
6776.010000	14822.145000	22772.070000	9722.475000	-14477.760000	6601.545000	-2148.300000	961.335000	11.181684	4.558866	-3.818954	-2.981809	-1.023116	-1.557325	-0.670032	0.692395	-4.440660	7.446880	-3.280900	0.928098	-0.324828	0.192871	-1.000000	-1.000000	-1.000000	-1.000000	-1.000000	-1.000000	-1.000000	68.206897	0.000000	-1.000000	-1.000000	1468941.000000	1773690494.857604
6729.210000	14787.180000	22740.210000	9699.120000	-14496.030000	6583.545000	-2153.655000	1008.135000	12.116413	3.029711	-3.298805	-6.284637	-6.095370	-8.962979	-3.474466	10.815060	-4.440660	7.446880	-3.280900	0.928098	-0.324828	0.192871	-1.000000	-1.000000	-1.000000	-1.000000	-1.000000	-1.000000	-1.000000	68.206897	0.000000	-1.000000	-1.000000	1468942.000000	1773690494.857614
6754.860000	14798.835000	22751.100000	9708.570000	-14489.100000	6587.415000	-2149.830000	1002.375000	6.812028	-5.510374	-10.073632	-12.577297	-13.310773	-17.002716	-6.488673	25.216392	-4.440660	7.446880	-3.280900	0.928098	-0.324828	0.192871	-1.000000	-1.000000	-1.000000	-1.000000	-1.000000	-1.000000	-1.000000	68.206897	0.000000	-1.000000	-1.000000	1468943.000000	1773690494.857624
6748.515000	14778.990000	22736.970000	9705.420000	-14476.815000	6608.970000	-2141.595000	973.170000	-1.670783	-15.040507	-18.821319	-16.796554	-16.556702	-19.034444	-7.048139	32.385821	-4.440660	7.446880	-3.280900	0.928098	-0.324828	0.192871	-1.000000	-1.000000	-1.000000	-1.000000	-1.000000	-1.000000	-1.000000	68.206897	0.000000	-1.000000	-1.000000	1468944.000000	1773690494.857629
6741.495000	14782.770000	22741.830000	9708.930000	-14469.480000	6613.335000	-2140.830000	959.355000	-8.223959	-17.912656	-20.623340	-13.903657	-11.376673	-11.398106	-4.023317	23.382668	-4.440660	7.446880	-3.280900	0.928098	-0.324828	0.192871	-1.000000	-1.000000	-1.000000	-1.000000	-1.000000	-1.000000	-1.000000	68.206897	0.000000	-1.000000	-1.000000	1468945.000000	1773690494.859232
6742.170000	14792.265000	22749.660000	9713.070000	-14474.115000	6609.735000	-2137.005000	957.915000	-10.795448	-11.176834	-11.029276	-3.497418	0.758965	3.079189	1.304623	0.335692	-4.440660	7.446880	-3.280900	0.928098	-0.324828	0.192871	-1.000000	-1.000000	-1.000000	-1.000000	-1.000000	-1.000000	-1.000000	68.206897	0.000000	-1.000000	-1.000000	1468946.000000	1773690494.859241
6734.160000	14778.180000	22729.905000	9703.935000	-14478.750000	6610.095000	-2137.455000	947.295000	-9.602709	1.444586	5.648952	9.668424	13.074790	16.528483	6.166159	-23.917566	-4.440660	7.446880	-3.280900	0.928098	-0.324828	0.192871	-1.000000	-1.000000	-1.000000	-1.000000	-1.000000	-1.000000	-1.000000	68.206897	0.000000	-1.000000	-1.000000	1468947.000000	1773690494.869514
6736.230000	14776.830000	22734.810000	9703.440000	-14480.550000	6610.410000	-2138.850000	941.445000	-5.985880	11.557754	18.805273	17.979276	17.998709	21.197548	7.958291	-35.309590	-4.440660	7.446880	-3.280900	0.928098	-0.324828	0.192871	-1.000000	-1.000000	-1.000000	-1.000000	-1.000000	-1.000000	-1.000000	68.206897	0.000000	-1.000000	-1.000000	1468948.000000	1773690494.869524
6744.465000	14791.905000	22750.020000	9715.860000	-14471.595000	6618.960000	-2136.555000	946.890000	-1.667486	13.832768	22.085314	17.486786	13.673923	15.583443	6.149490	-29.743962	-4.440660	7.446880	-3.280900	0.928098	-0.324828	0.192871	-1.000000	-1.000000	-1.000000	-1.000000	-1.000000	-1.000000	-1.000000	68.206897	0.000000	-1.000000	-1.000000	1468949.000000	1773690494.869535
6738.660000	14796.360000	22755.870000	9722.430000	-14465.880000	6622.605000	-2137.905000	943.335000	2.894162	10.943785	18.535924	11.663831	5.532221	5.454692	2.662521	-15.063865	-4.440660	7.446880	-3.280900	0.928098	-0.324828	0.192871	-1.000000	-1.000000	-1.000000	-1.000000	-1.000000	-1.000000	-1.000000	68.206897	0.000000	-1.000000	-1.000000	1468950.000000	1773690494.869540
6734.880000	14796.315000	22756.410000	9723.285000	-14465.475000	6613.605000	-2137.680000	944.820000	7.765641	8.059604	13.209923	5.895683	-0.189705	-2.483552	-0.298880	-1.878872	-5.905620	8.484560	-3.433500	0.929990	-0.324401	0.194152	-1.000000	-1.000000	-1.000000	-1.000000	-1.000000	-1.000000	-1.000000	68.206897	0.000000	-1.000000	-1.000000	1468951.000000	1773690494.873266
6738.030000	14794.605000	22750.110000	9715.140000	-14472.045000	6609.105000	-2138.760000	948.375000	11.243222	6.345955	7.014966	1.471527	-2.396118	-6.415933	-2.146038	5.907767	-5.905620	8.484560	-3.433500	0.929990	-0.324401	0.194152	-1.000000	-1.000000	-1.000000	-1.000000	-1.000000	-1.000000	-1.000000	68.206897	0.000000	-1.000000	-1.000000	1468952.000000	1773690494.873277
6737.985000	14793.885000	22753.980000	9721.755000	-14459.355000	6626.745000	-2130.795000	950.535000	10.798540	4.076284	-0.632710	-2.940788	-3.544545	-7.986941	-3.280357	10.731573	-5.905620	8.484560	-3.433500	0.929990	-0.324401	0.194152	-1.000000	-1.000000	-1.000000	-1.000000	-1.000000	-1.000000	-1.000000	68.206897	0.000000	-1.000000	-1.000000	1468953.000000	1773690494.876171
6733.305000	14788.710000	22749.030000	9718.065000	-14458.995000	6627.735000	-2133.045000	942.480000	6.047031	0.270244	-8.194691	-7.271690	-4.880673	-7.914070	-3.727710	14.507619	-5.905620	8.484560	-3.433500	0.929990	-0.324401	0.194152	-1.000000	-1.000000	-1.000000	-1.000000	-1.000000	-1.000000	-1.000000	68.206897	0.000000	-1.000000	-1.000000	1468954.000000	1773690494.876181
6736.860000	14789.520000	22748.715000	9716.085000	-14463.450000	6622.380000	-2136.645000	946.260000	-0.772600	-4.539121	-13.091336	-9.907051	-5.615012	-5.861111	-3.339431	16.012283	-5.905620	8.484560	-3.433500	0.929990	-0.324401	0.194152	-1.000000	-1.000000	-1.000000	-1.000000	-1.000000	-1.000000	-1.000000	68.206897	0.000000	-1.000000	-1.000000	1468955.000000	1773690494.889729
6751.800000	14807.250000	22761.630000	9722.520000	-14471.640000	6600.960000	-2139.075000	949.005000	-6.293879	-8.626489	-13.854939	-9.784867	-5.369563	-3.099056	-2.458764	14.222924	-5.905620	8.484560	-3.433500	0.929990	-0.324401	0.194152	-1.000000	-1.000000	-1.000000	-1.000000	-1.000000	-1.000000	-1.000000	68.206897	0.000000	-1.000000	-1.000000	1468956.000000	1773690494.889741
6753.375000	14803.335000	22755.195000	9716.490000	-14471.730000	6605.595000	-2140.695000	948.960000	-8.139537	-9.959004	-10.611144	-7.162507	-4.662803	-1.727086	-1.459241	9.743418	-5.905620	8.484560	-3.433500	0.929990	-0.324401	0.194152	-1.000000	-1.000000	-1.000000	-1.000000	-1.000000	-1.000000	-1.000000	68.206897	0.000000	-1.000000	-1.000000	1468957.000000	1773690494.889754
6746.085000	14789.970000	22744.170000	9711.810000	-14462.145000	6627.690000	-2140.155000	947.520000	-6.540293	-8.235385	-5.187499	-3.277975	-3.328123	-1.299146	-0.279029	2.947568	-5.905620	8.484560	-3.433500	0.929990	-0.324401	0.194152	-1.000000	-1.000000	-1.000000	-1.000000	-1.000000	-1.000000	-1.000000	68.206897	0.000000	-1.000000	-1.000000	1468958.000000	1773690494.889759
6754.185000	14803.650000	22758.840000	9726.885000	-14450.760000	6635.160000	-2133.855000	951.345000	-3.142276	-4.766797	0.024609	0.617357	-0.521610	0.732766	1.271127	-5.494629	-5.905620	8.484560	-3.433500	0.929990	-0.324401	0.194152	-1.000000	-1.000000	-1.000000	-1.000000	-1.000000	-1.000000	-1.000000	68.206897	0.000000	-1.000000	-1.000000	1468959.000000	1773690494.889764
6755.895000	14820.030000	22772.655000	9734.130000	-14462.730000	6610.815000	-2129.040000	944.055000	0.669907	-0.345754	4.046324	4.073357	3.352308	4.639493	3.019426	-12.853347	-5.905620	8.484560	-3.433500	0.929990	-0.324401	0.194152	-1.000000	-1.000000	-1.000000	-1.000000	-1.000000	-1.000000	-1.000000	68.206897	0.000000	-1.000000	-1.000000	1468960.000000	1773690494.889769
6735.555000	14799.285000	22757.085000	9724.905000	-14462.865000	6627.735000	-2127.465000	930.960000	3.139248	4.268958	6.731608	6.566796	6.002573	7.318981	4.179558	-15.877763	-4.562740	6.836480	-3.265640	0.929685	-0.333556	0.195190	-1.000000	-1.000000	-1.000000	-1.000000	-1.000000	-1.000000	-1.000000	68.206897	0.000000	-1.000000	-1.000000	1468961.000000	1773690494.910231
6731.775000	14788.755000	22746.735000	9716.445000	-14463.045000	6633.180000	-2139.525000	936.360000	2.533340	6.856847	7.076141	6.709098	5.441641	6.400114	3.630708	-13.352527	-4.562740	6.836480	-3.265640	0.929685	-0.333556	0.195190	-1.000000	-1.000000	-1.000000	-1.000000	-1.000000	-1.000000	-1.000000	68.206897	0.000000	-1.000000	-1.000000	1468962.000000	1773690494.910244
6742.215000	14788.980000	22744.080000	9714.060000	-14462.460000	6618.105000	-2143.395000	949.230000	-0.427995	5.679641	4.388865	3.844340	2.193359	2.569278	0.963242	-6.198169	-4.562740	6.836480	-3.265640	0.929685	-0.333556	0.195190	-1.000000	-1.000000	-1.000000	-1.000000	-1.000000	-1.000000	-1.000000	68.206897	0.000000	-1.000000	-1.000000	1468963.000000	1773690494.910256
6743.520000	14784.840000	22740.570000	9711.585000	-14458.770000	6611.085000	-2137.320000	953.820000	-2.888148	1.646592	-0.056796	-0.582458	-1.260007	-2.104090	-2.478231	3.202029	-4.562740	6.836480	-3.265640	0.929685	-0.333556	0.195190	-1.000000	-1.000000	-1.000000	-1.000000	-1.000000	-1.000000	-1.000000	68.206897	0.000000	-1.000000	-1.000000	1468964.000000	1773690494.910261
6755.130000	14796.045000	22750.020000	9719.820000	-14457.510000	6609.105000	-2134.980000	953.145000	-2.994850	-2.724445	-3.886078	-4.125577	-2.733865	-5.468149	-4.320809	11.161800	-4.562740	6.836480	-3.265640	0.929685	-0.333556	0.195190	-1.000000	-1.000000	-1.000000	-1.000000	-1.000000	-1.000000	-1.000000	68.206897	0.000000	-1.000000	-1.000000	1468965.000000	1773690494.910267
6764.580000	14806.035000	22752.540000	9715.545000	-14472.765000	6594.435000	-2129.355000	931.995000	-0.860541	-4.726000	-4.940234	-4.947287	-2.121673	-6.332393	-3.282994	13.702475	-4.562740	6.836480	-3.265640	0.929685	-0.333556	0.195190	-1.000000	-1.000000	-1.000000	-1.000000	-1.000000	-1.000000	-1.000000	68.206897	0.000000	-1.000000	-1.000000	1468966.000000	1773690494.910272
6749.955000	14803.335000	22747.455000	9708.975000	-14473.485000	6609.330000	-2129.850000	911.835000	2.300554	-2.874469	-2.622260	-3.052110	-1.216174	-5.259590	-0.219511	8.788781	-4.562740	6.836480	-3.265640	0.929685	-0.333556	0.195190	-1.000000	-1.000000	-1.000000	-1.000000	-1.000000	-1.000000	-1.000000	68.206897	0.000000	-1.000000	-1.000000	1468967.000000	1773690494.910277
6722.820000	14803.965000	22744.305000	9710.370000	-14469.390000	6609.780000	-2141.370000	928.170000	4.043596	1.188397	0.938379	-0.416708	-1.257344	-2.827984	2.481424	-1.085705	-4.562740	6.836480	-3.265640	0.929685	-0.333556	0.195190	-1.000000	-1.000000	-1.000000	-1.000000	-1.000000	-1.000000	-1.000000	68.206897	0.000000	-1.000000	-1.000000	1468968.000000	1773690494.910282
6717.285000	14790.735000	22724.280000	9693.630000	-14480.280000	6597.270000	-2147.850000	955.845000	2.224529	3.854853	2.533418	0.897126	-1.539620	0.839993	2.581600	-8.916415	-4.562740	6.836480	-3.265640	0.929685	-0.333556	0.195190	-1.000000	-1.000000	-1.000000	-1.000000	-1.000000	-1.000000	-1.000000	68.206897	0.000000	-1.000000	-1.000000	1468969.000000	1773690494.910287
6717.060000	14759.820000	22724.325000	9703.080000	-14468.805000	6612.570000	-2136.690000	948.870000	-1.805450	3.016057	1.225075	0.662450	-0.983760	4.285372	0.199060	-8.826484	-4.562740	6.836480	-3.265640	0.929685	-0.333556	0.195190	-1.000000	-1.000000	-1.000000	-1.000000	-1.000000	-1.000000	-1.000000	68.206897	0.000000	-1.000000	-1.000000	1468970.000000	1773690494.910291
6720.345000	14756.760000	22737.690000	9712.395000	-14458.365000	6621.525000	-2138.355000	934.920000	-4.271122	-0.583230	-0.681244	0.556556	0.734131	5.898703	-2.023902	-2.257994	-2.212700	6.302380	-3.341940	0.932859	-0.337463	0.197875	-1.000000	-1.000000	-1.000000	-1.000000	-1.000000	-1.000000	-1.000000	68.206897	0.000000	-1.000000	-1.000000	1468971.000000	1773690494.911564
6738.300000	14793.885000	22756.635000	9718.920000	-14467.230000	6615.675000	-2136.690000	940.995000	-3.081081	-3.747093	-0.204577	2.081724	3.055796	5.829177	-1.913763	4.144605	-2.212700	6.302380	-3.341940	0.932859	-0.337463	0.197875	-1.000000	-1.000000	-1.000000	-1.000000	-1.000000	-1.000000	-1.000000	68.206897	0.000000	-1.000000	-1.000000	1468972.000000	1773690494.911574
6739.560000	14796.135000	22755.105000	9720.585000	-14462.820000	6619.680000	-2137.545000	945.180000	0.827373	-3.061080	2.911030	4.463982	4.427224	4.787230	0.050663	5.968956	-2.212700	6.302380	-3.341940	0.932859	-0.337463	0.197875	-1.000000	-1.000000	-1.000000	-1.000000	-1.000000	-1.000000	-1.000000	68.206897	0.000000	-1.000000	-1.000000	1468973.000000	1773690494.927542
6727.860000	14788.755000	22730.220000	9714.960000	-14458.950000	6622.245000	-2145.510000	933.525000	4.390947	1.013607	5.396079	5.349605	3.847294	3.062080	1.810843	3.609990	-2.212700	6.302380	-3.341940	0.932859	-0.337463	0.197875	-1.000000	-1.000000	-1.000000	-1.000000	-1.000000	-1.000000	-1.000000	68.206897	0.000000	-1.000000	-1.000000	1468974.000000	1773690494.927555
6732.585000	14792.760000	22698.180000	9707.310000	-14469.615000	6592.230000	-2138.805000	939.195000	4.832953	4.517996	3.427127	3.293117	1.886850	0.392303	1.911526	-0.120941	-2.212700	6.302380	-3.341940	0.932859	-0.337463	0.197875	-1.000000	-1.000000	-1.000000	-1.000000	-1.000000	-1.000000	-1.000000	68.206897	0.000000	-1.000000	-1.000000	1468975.000000	1773690494.927778
6724.485000	14772.555000	22706.055000	9703.125000	-14477.130000	6592.680000	-2137.590000	934.290000	2.518321	4.544788	-3.016544	-0.988089	-0.727267	-3.839551	0.728259	-2.489988	-2.212700	6.302380	-3.341940	0.932859	-0.337463	0.197875	-1.000000	-1.000000	-1.000000	-1.000000	-1.000000	-1.000000	-1.000000	68.206897	0.000000	-1.000000	-1.000000	1468976.000000	1773690494.927786
6727.725000	14776.200000	22736.430000	9711.855000	-14478.660000	6591.555000	-2141.595000	933.615000	0.125897	1.142595	-8.810002	-5.135578	-3.468114	-8.330609	-0.308080	-2.928799	-2.212700	6.302380	-3.341940	0.932859	-0.337463	0.197875	-1.000000	-1.000000	-1.000000	-1.000000	-1.000000	-1.000000	-1.000000	68.206897	0.000000	-1.000000	-1.000000	1468977.000000	1773690494.927794
6741.630000	14798.295000	22781.565000	9723.735000	-14471.640000	6589.935000	-2144.970000	938.655000	-0.329298	-2.581864	-7.493665	-6.370886	-5.047997	-9.875996	-0.555299	-2.739183	-2.212700	6.302380	-3.341940	0.932859	-0.337463	0.197875	-1.000000	-1.000000	-1.000000	-1.000000	-1.000000	-1.000000	-1.000000	68.206897	0.000000	-1.000000	-1.000000	1468978.000000	1773690494.927799
6743.205000	14803.515000	22753.125000	9712.980000	-14472.270000	6586.830000	-2145.915000	938.385000	1.101498	-2.383876	1.627033	-3.892845	-4.420968	-7.293444	-0.535715	-2.349417	-2.212700	6.302380	-3.341940	0.932859	-0.337463	0.197875	-1.000000	-1.000000	-1.000000	-1.000000	-1.000000	-1.000000	-1.000000	68.206897	0.000000	-1.000000	-1.000000	1468979.000000	1773690494.927805
6733.755000	14793.885000	22737.105000	9707.175000	-14470.470000	6594.975000	-2142.270000	933.885000	2.239823	1.752990	10.684484	-0.254125	-2.136922	-2.221093	-0.660216	-1.107022	-2.212700	6.302380	-3.341940	0.932859	-0.337463	0.197875	-1.000000	-1.000000	-1.000000	-1.000000	-1.000000	-1.000000	-1.000000	68.206897	0.000000	-1.000000	-1.000000	1468980.000000	1773690494.927809
6722.685000	14793.120000	22750.785000	9708.570000	-14468.490000	6602.715000	-2140.650000	922.995000	0.434115	4.623738	11.262402	1.463100	0.560413	3.477376	-0.630127	0.545720	-2.227960	5.264700	-3.418240	0.933225	-0.336303	0.199890	-1.000000	-1.000000	-1.000000	-1.000000	-1.000000	-1.000000	-1.000000	68.206897	0.000000	-1.000000	-1.000000	1468981.000000	1773690494.931178
6733.440000	14799.420000	22778.730000	9722.700000	-14462.505000	6607.935000	-2140.920000	925.335000	-4.201122	2.421617	3.912163	1.011966	2.777581	8.289051	-0.147029	1.303226	-2.227960	5.264700	-3.418240	0.933225	-0.336303	0.199890	-1.000000	-1.000000	-1.000000	-1.000000	-1.000000	-1.000000	-1.000000	68.206897	0.000000	-1.000000	-1.000000	1468982.000000	1773690494.931189
