Channel1	Channel2	Channel3	Channel4	Channel5	Channel6	Channel7	Channel8	FilteredChannel1	FilteredChannel2	FilteredChannel3	FilteredChannel4	FilteredChannel5	FilteredChannel6	FilteredChannel7	FilteredChannel8	GyroX	GyroY	GyroZ	AccX	AccY	AccZ	PPG1	PPG2	rawPPG1	rawPPG2	rawPPG3	Hr	Hrv	Battery	Trigger	PhysicalTrigger	AutoTrigger	NumMeasurements	Timestamp
-20842.155000	-13769.190000	-20102.220000	-15350.670000	-21827.160000	-16199.730000	-3345.120000	-8264.385000	4.354618	2.198222	2.475205	5.143609	6.032814	6.599453	4.767105	4.946629	-0.503580	5.020540	-6.653360	0.912290	-0.263122	0.308105	-1.000000	-1.000000	-1.000000	-1.000000	-1.000000	-1.000000	-1.000000	68.000000	0.000000	-1.000000	-1.000000	2830219.000000	1770067158.099755
-20834.145000	-13785.930000	-20112.255000	-15362.235000	-21836.790000	-16206.705000	-3341.385000	-8237.700000	-0.727189	-4.415062	-3.277918	1.799344	2.374147	2.636744	0.101231	-5.376473	-0.503580	5.020540	-6.653360	0.912290	-0.263122	0.308105	-1.000000	-1.000000	-1.000000	-1.000000	-1.000000	-1.000000	-1.000000	68.000000	0.000000	-1.000000	-1.000000	2830220.000000	1770067158.099769
-20789.460000	-13761.630000	-20102.580000	-15359.715000	-21834.450000	-16204.500000	-3334.005000	-8199.225000	-0.364273	-7.627709	-7.468354	-2.837088	-2.688494	-2.624352	-4.355204	-11.154759	-1.739640	6.775440	-3.052000	0.915220	-0.258666	0.308288	-1.000000	-1.000000	-1.000000	-1.000000	-1.000000	-1.000000	-1.000000	68.000000	0.000000	-1.000000	-1.000000	2830221.000000	1770067158.103393
-20806.245000	-13746.150000	-20094.120000	-15354.315000	-21828.645000	-16198.605000	-3331.440000	-8220.060000	0.906343	-8.206389	-8.939824	-7.035006	-7.127754	-6.859767	-6.180415	-8.828060	-1.739640	6.775440	-3.052000	0.915220	-0.258666	0.308288	-1.000000	-1.000000	-1.000000	-1.000000	-1.000000	-1.000000	-1.000000	68.000000	0.000000	-1.000000	-1.000000	2830222.000000	1770067158.103404
-20810.160000	-13746.555000	-20089.665000	-15345.765000	-21821.310000	-16191.765000	-3327.030000	-8217.585000	-3.254191	-7.823593	-7.648024	-8.787021	-8.799079	-8.177214	-5.226243	-2.940247	-1.739640	6.775440	-3.052000	0.915220	-0.258666	0.308288	-1.000000	-1.000000	-1.000000	-1.000000	-1.000000	-1.000000	-1.000000	68.000000	0.000000	-1.000000	-1.000000	2830223.000000	1770067158.107429
-20844.900000	-13777.020000	-20094.750000	-15354.855000	-21826.440000	-16196.040000	-3328.740000	-8214.840000	-12.504340	-7.180316	-4.389609	-7.321934	-7.101659	-6.445551	-2.999701	0.867028	-1.739640	6.775440	-3.052000	0.915220	-0.258666	0.308288	-1.000000	-1.000000	-1.000000	-1.000000	-1.000000	-1.000000	-1.000000	68.000000	0.000000	-1.000000	-1.000000	2830224.000000	1770067158.107435
-20847.780000	-13770.855000	-20093.850000	-15370.920000	-21836.565000	-16203.645000	-3333.330000	-8215.290000	-18.922810	-5.493904	-0.237611	-3.927998	-3.570351	-3.358676	-1.110768	1.756579	-1.739640	6.775440	-3.052000	0.915220	-0.258666	0.308288	-1.000000	-1.000000	-1.000000	-1.000000	-1.000000	-1.000000	-1.000000	68.000000	0.000000	-1.000000	-1.000000	2830225.000000	1770067158.111439
-20806.290000	-13743.180000	-20108.340000	-15374.385000	-21833.280000	-16199.010000	-3331.305000	-8209.755000	-15.972306	-1.993917	3.010061	-1.251787	-0.695668	-1.021743	-0.344005	1.527681	-1.739640	6.775440	-3.052000	0.915220	-0.258666	0.308288	-1.000000	-1.000000	-1.000000	-1.000000	-1.000000	-1.000000	-1.000000	68.000000	0.000000	-1.000000	-1.000000	2830226.000000	1770067158.111447
-20839.725000	-13755.240000	-20114.820000	-15361.515000	-21822.840000	-16191.270000	-3331.485000	-8227.395000	-4.652344	2.881917	3.611553	-0.329903	0.700568	0.195411	-0.111705	1.437751	-1.739640	6.775440	-3.052000	0.915220	-0.258666	0.308288	-1.000000	-1.000000	-1.000000	-1.000000	-1.000000	-1.000000	-1.000000	68.000000	0.000000	-1.000000	-1.000000	2830227.000000	1770067158.115469
-20914.470000	-13796.730000	-20094.930000	-15344.640000	-21813.120000	-16186.230000	-3333.915000	-8258.220000	6.833668	6.722724	2.142588	0.719457	1.988275	1.537404	0.577815	0.837475	-1.739640	6.775440	-3.052000	0.915220	-0.258666	0.308288	-1.000000	-1.000000	-1.000000	-1.000000	-1.000000	-1.000000	-1.000000	68.000000	0.000000	-1.000000	-1.000000	2830228.000000	1770067158.115481
-20909.070000	-13833.540000	-20102.040000	-15343.785000	-21818.925000	-16191.675000	-3336.390000	-8255.655000	10.227317	6.354670	1.200158	3.842690	4.172935	3.576427	1.655466	-1.790017	-1.739640	6.775440	-3.052000	0.915220	-0.258666	0.308288	-1.000000	-1.000000	-1.000000	-1.000000	-1.000000	-1.000000	-1.000000	68.000000	0.000000	-1.000000	-1.000000	2830229.000000	1770067158.119554
-20824.200000	-13770.180000	-20089.080000	-15343.740000	-21827.070000	-16198.245000	-3336.795000	-8227.035000	6.062585	1.535724	1.816167	7.811022	5.915162	5.044596	2.183500	-5.558453	-1.739640	6.775440	-3.052000	0.915220	-0.258666	0.308288	-1.000000	-1.000000	-1.000000	-1.000000	-1.000000	-1.000000	-1.000000	68.000000	0.000000	-1.000000	-1.000000	2830230.000000	1770067158.119565
-20761.425000	-13714.200000	-20084.760000	-15352.785000	-21838.545000	-16210.215000	-3340.080000	-8202.555000	3.118070	-2.752779	2.526144	8.997895	4.796968	4.027394	1.504759	-6.348945	-3.387720	6.500760	-0.518840	0.917478	-0.258239	0.308715	-1.000000	-1.000000	-1.000000	-1.000000	-1.000000	-1.000000	-1.000000	68.000000	0.000000	-1.000000	-1.000000	2830231.000000	1770067158.123362
-20816.280000	-13737.870000	-20093.175000	-15352.470000	-21832.110000	-16203.780000	-3336.480000	-8218.395000	7.244641	-1.114302	1.925020	5.356729	0.475595	0.334713	-0.036450	-1.546406	-3.387720	6.500760	-0.518840	0.917478	-0.258239	0.308715	-1.000000	-1.000000	-1.000000	-1.000000	-1.000000	-1.000000	-1.000000	68.000000	0.000000	-1.000000	-1.000000	2830232.000000	1770067158.123372
-20824.965000	-13749.615000	-20090.745000	-15352.155000	-21828.870000	-16199.415000	-3336.480000	-8226.990000	13.982467	5.140294	0.096450	-1.071225	-4.154703	-3.525159	-1.267893	5.677247	-3.387720	6.500760	-0.518840	0.917478	-0.258239	0.308715	-1.000000	-1.000000	-1.000000	-1.000000	-1.000000	-1.000000	-1.000000	68.000000	0.000000	-1.000000	-1.000000	2830233.000000	1770067158.128529
-20828.745000	-13758.525000	-20093.535000	-15354.090000	-21828.060000	-16198.740000	-3337.515000	-8229.015000	14.920060	9.260755	-1.827709	-6.112525	-5.727453	-4.654671	-1.264013	9.702479	-3.387720	6.500760	-0.518840	0.917478	-0.258239	0.308715	-1.000000	-1.000000	-1.000000	-1.000000	-1.000000	-1.000000	-1.000000	68.000000	0.000000	-1.000000	-1.000000	2830234.000000	1770067158.128539
-20878.245000	-13776.300000	-20104.380000	-15350.490000	-21821.580000	-16193.250000	-3336.030000	-8234.865000	6.091787	6.071701	-2.785608	-7.331672	-3.623500	-2.613140	-0.129438	8.243858	-3.387720	6.500760	-0.518840	0.917478	-0.258239	0.308715	-1.000000	-1.000000	-1.000000	-1.000000	-1.000000	-1.000000	-1.000000	68.000000	0.000000	-1.000000	-1.000000	2830235.000000	1770067158.131771
-20852.910000	-13778.010000	-20110.095000	-15355.845000	-21828.195000	-16198.290000	-3342.195000	-8245.755000	-8.623824	-3.014184	-2.718223	-5.457318	0.010612	0.658554	1.276399	3.293809	-3.387720	6.500760	-0.518840	0.917478	-0.258239	0.308715	-1.000000	-1.000000	-1.000000	-1.000000	-1.000000	-1.000000	-1.000000	68.000000	0.000000	-1.000000	-1.000000	2830236.000000	1770067158.131782
-20833.470000	-13773.915000	-20104.560000	-15357.870000	-21832.020000	-16201.620000	-3340.125000	-8234.910000	-18.215598	-10.471343	-2.216451	-2.801169	2.454848	2.830356	2.042366	-1.387932	-3.387720	6.500760	-0.518840	0.917478	-0.258239	0.308715	-1.000000	-1.000000	-1.000000	-1.000000	-1.000000	-1.000000	-1.000000	68.000000	0.000000	-1.000000	-1.000000	2830237.000000	1770067158.140846
-20869.515000	-13787.685000	-20112.570000	-15363.540000	-21836.295000	-16205.220000	-3342.960000	-8245.665000	-16.117143	-10.415080	-1.571175	-0.925772	2.588984	2.922015	1.791636	-3.729156	-3.387720	6.500760	-0.518840	0.917478	-0.258239	0.308715	-1.000000	-1.000000	-1.000000	-1.000000	-1.000000	-1.000000	-1.000000	68.000000	0.000000	-1.000000	-1.000000	2830238.000000	1770067158.140857
-20885.490000	-13804.515000	-20119.815000	-15363.180000	-21830.805000	-16197.750000	-3338.865000	-8246.250000	-9.352111	-5.904526	-1.106837	0.120871	1.398686	1.717034	0.782270	-4.893040	-3.387720	6.500760	-0.518840	0.917478	-0.258239	0.308715	-1.000000	-1.000000	-1.000000	-1.000000	-1.000000	-1.000000	-1.000000	68.000000	0.000000	-1.000000	-1.000000	2830239.000000	1770067158.141130
-20832.345000	-13789.800000	-20111.355000	-15353.370000	-21822.030000	-16190.415000	-3335.355000	-8232.615000	-6.441822	-3.694843	-1.040455	1.155897	0.629525	0.756110	-0.326614	-6.075625	-3.387720	6.500760	-0.518840	0.917478	-0.258239	0.308715	-1.000000	-1.000000	-1.000000	-1.000000	-1.000000	-1.000000	-1.000000	68.000000	0.000000	-1.000000	-1.000000	2830240.000000	1770067158.141137
-20808.720000	-13764.780000	-20097.225000	-15344.865000	-21816.090000	-16187.805000	-3336.390000	-8233.740000	-3.954965	-3.453417	-0.226341	2.962836	1.082551	0.746779	-0.956604	-5.719750	-2.899400	6.287120	-0.534100	0.919553	-0.260375	0.311279	-1.000000	-1.000000	-1.000000	-1.000000	-1.000000	-1.000000	-1.000000	68.000000	0.000000	-1.000000	-1.000000	2830241.000000	1770067158.144763
-20867.490000	-13776.840000	-20100.825000	-15360.705000	-21834.450000	-16205.535000	-3349.305000	-8251.470000	3.999737	0.094895	2.392741	5.038855	1.785702	0.753456	-1.225320	-2.453156	-2.899400	6.287120	-0.534100	0.919553	-0.260375	0.311279	-1.000000	-1.000000	-1.000000	-1.000000	-1.000000	-1.000000	-1.000000	68.000000	0.000000	-1.000000	-1.000000	2830242.000000	1770067158.144774
-20832.660000	-13765.320000	-20102.580000	-15368.130000	-21848.490000	-16216.380000	-3355.515000	-8254.935000	13.657344	7.351967	5.551429	5.405215	0.802951	-0.756287	-1.723343	1.975584	-2.899400	6.287120	-0.534100	0.919553	-0.260375	0.311279	-1.000000	-1.000000	-1.000000	-1.000000	-1.000000	-1.000000	-1.000000	68.000000	0.000000	-1.000000	-1.000000	2830243.000000	1770067158.148108
-20843.415000	-13760.460000	-20104.695000	-15368.355000	-21846.960000	-16212.420000	-3349.080000	-8248.095000	18.464427	13.759607	6.997285	2.807776	-2.403979	-3.727678	-2.342341	5.120606	-2.899400	6.287120	-0.534100	0.919553	-0.260375	0.311279	-1.000000	-1.000000	-1.000000	-1.000000	-1.000000	-1.000000	-1.000000	68.000000	0.000000	-1.000000	-1.000000	2830244.000000	1770067158.148118
-20842.605000	-13761.945000	-20102.445000	-15363.225000	-21841.335000	-16207.020000	-3340.485000	-8230.995000	16.447992	15.548653	5.638980	-1.397489	-5.560209	-5.806797	-1.901532	6.698538	-2.899400	6.287120	-0.534100	0.919553	-0.260375	0.311279	-1.000000	-1.000000	-1.000000	-1.000000	-1.000000	-1.000000	-1.000000	68.000000	0.000000	-1.000000	-1.000000	2830245.000000	1770067158.151407
-20788.650000	-13738.230000	-20092.455000	-15356.340000	-21836.655000	-16204.770000	-3341.610000	-8216.730000	9.157537	12.013572	2.057692	-4.289635	-5.547644	-4.573796	0.268867	7.368056	-2.899400	6.287120	-0.534100	0.919553	-0.260375	0.311279	-1.000000	-1.000000	-1.000000	-1.000000	-1.000000	-1.000000	-1.000000	68.000000	0.000000	-1.000000	-1.000000	2830246.000000	1770067158.151417
-20808.045000	-13743.090000	-20091.195000	-15353.190000	-21834.540000	-16203.690000	-3342.285000	-8223.165000	0.485736	4.868019	-1.870210	-3.981479	-1.647570	-0.194101	2.976145	6.614696	-2.899400	6.287120	-0.534100	0.919553	-0.260375	0.311279	-1.000000	-1.000000	-1.000000	-1.000000	-1.000000	-1.000000	-1.000000	68.000000	0.000000	-1.000000	-1.000000	2830247.000000	1770067158.155394
-20809.890000	-13738.275000	-20085.345000	-15349.455000	-21830.220000	-16199.730000	-3338.865000	-8221.995000	-7.043658	-3.689813	-4.366229	-1.105670	3.736463	4.646627	4.267423	3.230720	-2.899400	6.287120	-0.534100	0.919553	-0.260375	0.311279	-1.000000	-1.000000	-1.000000	-1.000000	-1.000000	-1.000000	-1.000000	68.000000	0.000000	-1.000000	-1.000000	2830248.000000	1770067158.155404
-20839.995000	-13752.945000	-20095.605000	-15353.505000	-21825.720000	-16190.955000	-3333.015000	-8231.940000	-13.976321	-11.752678	-5.134151	1.836414	7.182366	7.112843	3.371328	-2.666503	-2.899400	6.287120	-0.534100	0.919553	-0.260375	0.311279	-1.000000	-1.000000	-1.000000	-1.000000	-1.000000	-1.000000	-1.000000	68.000000	0.000000	-1.000000	-1.000000	2830249.000000	1770067158.159575
-20875.230000	-13766.940000	-20091.015000	-15340.680000	-21811.905000	-16179.345000	-3327.840000	-8245.215000	-19.919831	-17.309283	-5.055693	2.815623	7.064813	6.457280	1.239852	-8.790436	-2.899400	6.287120	-0.534100	0.919553	-0.260375	0.311279	-1.000000	-1.000000	-1.000000	-1.000000	-1.000000	-1.000000	-1.000000	68.000000	0.000000	-1.000000	-1.000000	2830250.000000	1770067158.159583
-20849.715000	-13760.550000	-20088.045000	-15336.630000	-21811.140000	-16180.920000	-3331.980000	-8248.995000	-21.109131	-18.276953	-4.455747	2.204697	4.589324	4.091157	-0.523526	-11.935768	-1.144500	7.553700	0.106820	0.921628	-0.260864	0.309325	-1.000000	-1.000000	-1.000000	-1.000000	-1.000000	-1.000000	-1.000000	68.000000	0.000000	-1.000000	-1.000000	2830251.000000	1770067158.163441
-20851.830000	-13763.655000	-20099.655000	-15351.750000	-21825.990000	-16194.240000	-3344.715000	-8255.745000	-13.783912	-13.408830	-2.820904	1.287817	1.579637	1.341346	-1.403971	-10.277571	-1.144500	7.553700	0.106820	0.921628	-0.260864	0.309325	-1.000000	-1.000000	-1.000000	-1.000000	-1.000000	-1.000000	-1.000000	68.000000	0.000000	-1.000000	-1.000000	2830252.000000	1770067158.163453
-20836.530000	-13767.660000	-20104.740000	-15356.790000	-21830.625000	-16198.470000	-3348.315000	-8242.200000	0.617872	-4.042287	-0.461436	-0.109383	-1.696785	-1.869754	-2.289289	-4.655692	-1.144500	7.553700	0.106820	0.921628	-0.260864	0.309325	-1.000000	-1.000000	-1.000000	-1.000000	-1.000000	-1.000000	-1.000000	68.000000	0.000000	-1.000000	-1.000000	2830253.000000	1770067158.167513
-20899.620000	-13806.000000	-20119.140000	-15364.980000	-21835.170000	-16202.295000	-3348.045000	-8249.670000	14.421209	5.455922	1.194453	-2.562339	-5.287661	-5.459627	-3.683058	2.013101	-1.144500	7.553700	0.106820	0.921628	-0.260864	0.309325	-1.000000	-1.000000	-1.000000	-1.000000	-1.000000	-1.000000	-1.000000	68.000000	0.000000	-1.000000	-1.000000	2830254.000000	1770067158.167523
-20955.780000	-13829.535000	-20112.615000	-15356.295000	-21821.490000	-16188.615000	-3337.290000	-8264.205000	17.791655	9.857073	1.225012	-5.134598	-7.809310	-7.800070	-4.461227	6.191450	-1.144500	7.553700	0.106820	0.921628	-0.260864	0.309325	-1.000000	-1.000000	-1.000000	-1.000000	-1.000000	-1.000000	-1.000000	68.000000	0.000000	-1.000000	-1.000000	2830255.000000	1770067158.171770
-20828.295000	-13762.890000	-20096.280000	-15354.945000	-21825.405000	-16193.880000	-3341.385000	-8247.330000	9.638477	8.339402	0.621186	-5.850308	-7.426160	-7.067807	-3.202551	6.319725	-1.144500	7.553700	0.106820	0.921628	-0.260864	0.309325	-1.000000	-1.000000	-1.000000	-1.000000	-1.000000	-1.000000	-1.000000	68.000000	0.000000	-1.000000	-1.000000	2830256.000000	1770067158.171777
-20764.935000	-13732.605000	-20097.855000	-15356.835000	-21832.695000	-16200.270000	-3341.205000	-8217.270000	2.455827	6.561874	1.212140	-3.749084	-4.241359	-3.648966	-0.289779	4.623039	-1.144500	7.553700	0.106820	0.921628	-0.260864	0.309325	-1.000000	-1.000000	-1.000000	-1.000000	-1.000000	-1.000000	-1.000000	68.000000	0.000000	-1.000000	-1.000000	2830257.000000	1770067158.177944
-20793.870000	-13776.570000	-20118.420000	-15363.090000	-21840.435000	-16205.715000	-3342.555000	-8211.060000	6.425446	8.539840	2.854261	-0.046343	-0.573128	-0.050689	2.372256	4.539748	-1.144500	7.553700	0.106820	0.921628	-0.260864	0.309325	-1.000000	-1.000000	-1.000000	-1.000000	-1.000000	-1.000000	-1.000000	68.000000	0.000000	-1.000000	-1.000000	2830258.000000	1770067158.177955
-20787.345000	-13782.420000	-20112.390000	-15364.440000	-21843.315000	-16206.795000	-3342.555000	-8205.570000	16.157930	10.595426	3.483268	2.995214	1.482918	1.799208	3.436315	6.626453	-1.144500	7.553700	0.106820	0.921628	-0.260864	0.309325	-1.000000	-1.000000	-1.000000	-1.000000	-1.000000	-1.000000	-1.000000	68.000000	0.000000	-1.000000	-1.000000	2830259.000000	1770067158.180892
-20792.205000	-13759.785000	-20097.495000	-15350.445000	-21828.555000	-16192.530000	-3340.530000	-8222.760000	19.274097	8.013471	2.477823	4.329700	2.195499	2.418438	3.146321	7.997158	-1.144500	7.553700	0.106820	0.921628	-0.260864	0.309325	-1.000000	-1.000000	-1.000000	-1.000000	-1.000000	-1.000000	-1.000000	68.000000	0.000000	-1.000000	-1.000000	2830260.000000	1770067158.180903
-20809.170000	-13723.920000	-20081.655000	-15338.700000	-21819.465000	-16184.520000	-3338.955000	-8225.145000	9.540819	2.109492	1.734188	4.945328	3.545414	3.698249	2.590456	5.296543	-1.892240	6.271860	-1.281840	0.920835	-0.263183	0.309997	-1.000000	-1.000000	-1.000000	-1.000000	-1.000000	-1.000000	-1.000000	68.000000	0.000000	-1.000000	-1.000000	2830261.000000	1770067158.183401
-20879.190000	-13744.215000	-20084.940000	-15337.800000	-21813.840000	-16176.420000	-3331.800000	-8231.670000	-9.855316	-2.638977	2.619932	5.826387	6.276949	6.163272	2.364049	-1.930278	-1.892240	6.271860	-1.281840	0.920835	-0.263183	0.309997	-1.000000	-1.000000	-1.000000	-1.000000	-1.000000	-1.000000	-1.000000	68.000000	0.000000	-1.000000	-1.000000	2830262.000000	1770067158.183412
-20883.915000	-13762.395000	-20085.435000	-15337.395000	-21811.770000	-16175.970000	-3330.180000	-8233.470000	-29.158949	-4.604527	3.806405	6.050222	8.475484	7.982472	2.104284	-10.351354	-1.892240	6.271860	-1.281840	0.920835	-0.263183	0.309997	-1.000000	-1.000000	-1.000000	-1.000000	-1.000000	-1.000000	-1.000000	68.000000	0.000000	-1.000000	-1.000000	2830263.000000	1770067158.187515
-20863.935000	-13773.195000	-20102.670000	-15350.220000	-21820.320000	-16181.190000	-3334.905000	-8253.045000	-37.144895	-5.792433	2.631122	3.789886	7.397247	6.701695	1.007484	-15.376666	-1.892240	6.271860	-1.281840	0.920835	-0.263183	0.309997	-1.000000	-1.000000	-1.000000	-1.000000	-1.000000	-1.000000	-1.000000	68.000000	0.000000	-1.000000	-1.000000	2830264.000000	1770067158.187525
-20930.940000	-13794.255000	-20112.435000	-15346.710000	-21811.455000	-16171.245000	-3331.215000	-8300.430000	-30.945003	-9.100915	-2.257760	-1.292979	2.418823	1.913614	-1.141874	-15.593250	-1.892240	6.271860	-1.281840	0.920835	-0.263183	0.309997	-1.000000	-1.000000	-1.000000	-1.000000	-1.000000	-1.000000	-1.000000	68.000000	0.000000	-1.000000	-1.000000	2830265.000000	1770067158.196027
-20829.105000	-13739.490000	-20090.655000	-15344.280000	-21818.790000	-16182.855000	-3341.475000	-8291.340000	-16.925605	-13.766334	-8.449641	-6.808404	-3.930047	-4.003255	-3.505440	-13.041058	-1.892240	6.271860	-1.281840	0.920835	-0.263183	0.309997	-1.000000	-1.000000	-1.000000	-1.000000	-1.000000	-1.000000	-1.000000	68.000000	0.000000	-1.000000	-1.000000	2830266.000000	1770067158.196038
-20763.945000	-13718.520000	-20083.545000	-15337.395000	-21812.085000	-16174.395000	-3328.515000	-8220.960000	2.281749	-13.025554	-10.656158	-9.300215	-8.208498	-8.095230	-4.839465	-7.432637	-1.892240	6.271860	-1.281840	0.920835	-0.263183	0.309997	-1.000000	-1.000000	-1.000000	-1.000000	-1.000000	-1.000000	-1.000000	68.000000	0.000000	-1.000000	-1.000000	2830267.000000	1770067158.196185
-20817.045000	-13762.845000	-20107.080000	-15347.790000	-21817.800000	-16177.590000	-3332.070000	-8198.415000	25.300047	-3.211817	-6.778532	-7.495527	-8.733374	-8.808008	-4.178870	4.205606	-1.892240	6.271860	-1.281840	0.920835	-0.263183	0.309997	-1.000000	-1.000000	-1.000000	-1.000000	-1.000000	-1.000000	-1.000000	68.000000	0.000000	-1.000000	-1.000000	2830268.000000	1770067158.196196
-20825.055000	-13771.665000	-20111.040000	-15357.195000	-21828.510000	-16191.540000	-3346.470000	-8215.335000	41.016960	8.240484	-0.743583	-3.468887	-6.410334	-6.686382	-1.842901	19.456223	-1.892240	6.271860	-1.281840	0.920835	-0.263183	0.309997	-1.000000	-1.000000	-1.000000	-1.000000	-1.000000	-1.000000	-1.000000	68.000000	0.000000	-1.000000	-1.000000	2830269.000000	1770067158.199388
-20819.340000	-13792.230000	-20110.500000	-15361.065000	-21834.135000	-16197.840000	-3350.745000	-8224.470000	39.027227	11.654068	2.816479	-0.281678	-3.553640	-3.851812	0.348861	28.851751	-1.892240	6.271860	-1.281840	0.920835	-0.263183	0.309997	-1.000000	-1.000000	-1.000000	-1.000000	-1.000000	-1.000000	-1.000000	68.000000	0.000000	-1.000000	-1.000000	2830270.000000	1770067158.199394
-20869.560000	-13793.490000	-20106.315000	-15351.480000	-21824.910000	-16187.940000	-3343.230000	-8250.435000	21.889622	6.410228	3.338648	1.140236	-1.412158	-1.632259	1.108148	24.681372	-3.433500	5.569900	-0.747740	0.919736	-0.260925	0.312926	-1.000000	-1.000000	-1.000000	-1.000000	-1.000000	-1.000000	-1.000000	68.000000	0.000000	-1.000000	-1.000000	2830271.000000	1770067158.203444
-21000.105000	-13803.030000	-20095.740000	-15339.870000	-21812.175000	-16171.830000	-3321.225000	-8249.220000	-2.353221	-0.545821	3.103563	2.226828	0.714980	0.696671	1.253815	8.337247	-3.433500	5.569900	-0.747740	0.919736	-0.260925	0.312926	-1.000000	-1.000000	-1.000000	-1.000000	-1.000000	-1.000000	-1.000000	68.000000	0.000000	-1.000000	-1.000000	2830272.000000	1770067158.203452
-21077.955000	-13859.955000	-20120.490000	-15348.240000	-21808.980000	-16166.610000	-3326.580000	-8290.980000	-28.555833	-4.073183	3.616828	4.147775	3.697151	4.088114	2.283439	-11.080859	-3.433500	5.569900	-0.747740	0.919736	-0.260925	0.312926	-1.000000	-1.000000	-1.000000	-1.000000	-1.000000	-1.000000	-1.000000	68.000000	0.000000	-1.000000	-1.000000	2830273.000000	1770067158.207685
-20880.495000	-13793.580000	-20112.660000	-15361.920000	-21831.480000	-16196.625000	-3360.870000	-8296.470000	-46.830768	-4.212638	4.018917	5.714611	6.416373	7.192948	3.456192	-23.913457	-3.433500	5.569900	-0.747740	0.919736	-0.260925	0.312926	-1.000000	-1.000000	-1.000000	-1.000000	-1.000000	-1.000000	-1.000000	68.000000	0.000000	-1.000000	-1.000000	2830274.000000	1770067158.207696
-20770.155000	-13712.805000	-20072.430000	-15349.950000	-21830.040000	-16198.200000	-3358.620000	-8257.005000	-40.658428	-0.566983	3.479208	4.948611	6.507329	7.153243	2.382492	-25.306163	-3.433500	5.569900	-0.747740	0.919736	-0.260925	0.312926	-1.000000	-1.000000	-1.000000	-1.000000	-1.000000	-1.000000	-1.000000	68.000000	0.000000	-1.000000	-1.000000	2830275.000000	1770067158.211555
-20817.045000	-13756.815000	-20083.455000	-15361.380000	-21836.520000	-16198.515000	-3346.065000	-8226.720000	-7.861260	7.367218	2.897050	1.922398	3.407627	3.355986	-0.899175	-16.213709	-3.433500	5.569900	-0.747740	0.919736	-0.260925	0.312926	-1.000000	-1.000000	-1.000000	-1.000000	-1.000000	-1.000000	-1.000000	68.000000	0.000000	-1.000000	-1.000000	2830276.000000	1770067158.211567
-20769.930000	-13729.410000	-20077.245000	-15351.795000	-21820.500000	-16177.365000	-3320.055000	-8180.415000	30.895886	14.984969	2.725684	-1.405964	-0.671517	-1.265163	-3.005824	-1.315336	-3.433500	5.569900	-0.747740	0.919736	-0.260925	0.312926	-1.000000	-1.000000	-1.000000	-1.000000	-1.000000	-1.000000	-1.000000	68.000000	0.000000	-1.000000	-1.000000	2830277.000000	1770067158.215532
-20837.295000	-13788.630000	-20122.785000	-15360.165000	-21820.860000	-16178.040000	-3331.350000	-8211.870000	51.793734	15.695809	1.451425	-3.107470	-2.744551	-3.025071	-1.198282	13.452715	-3.433500	5.569900	-0.747740	0.919736	-0.260925	0.312926	-1.000000	-1.000000	-1.000000	-1.000000	-1.000000	-1.000000	-1.000000	68.000000	0.000000	-1.000000	-1.000000	2830278.000000	1770067158.215538
-20852.685000	-13824.315000	-20155.230000	-15379.920000	-21848.355000	-16208.370000	-3356.685000	-8224.515000	44.333333	6.555687	-3.100247	-3.043903	-2.216391	-1.593484	2.625593	21.469098	-3.433500	5.569900	-0.747740	0.919736	-0.260925	0.312926	-1.000000	-1.000000	-1.000000	-1.000000	-1.000000	-1.000000	-1.000000	68.000000	0.000000	-1.000000	-1.000000	2830279.000000	1770067158.219516
-20761.515000	-13741.290000	-20122.695000	-15372.540000	-21849.480000	-16209.450000	-3349.800000	-8207.370000	17.159495	-7.830527	-9.938893	-2.735378	-1.556018	-0.408006	3.751680	18.993939	-3.433500	5.569900	-0.747740	0.919736	-0.260925	0.312926	-1.000000	-1.000000	-1.000000	-1.000000	-1.000000	-1.000000	-1.000000	68.000000	0.000000	-1.000000	-1.000000	2830280.000000	1770067158.219526
-20845.620000	-13732.695000	-20088.630000	-15338.880000	-21813.570000	-16174.845000	-3323.430000	-8227.620000	-8.495234	-16.121225	-12.990277	-2.342557	-2.100472	-1.426856	0.832531	8.898412	-4.120200	5.798800	2.685760	0.921995	-0.258239	0.313354	-1.000000	-1.000000	-1.000000	-1.000000	-1.000000	-1.000000	-1.000000	68.000000	0.000000	-1.000000	-1.000000	2830281.000000	1770067158.223682
-20901.330000	-13740.300000	-20070.990000	-15314.895000	-21786.750000	-16149.915000	-3315.375000	-8275.950000	-21.752644	-11.996788	-6.861397	0.263680	-1.423557	-1.967848	-2.392487	-2.990324	-4.120200	5.798800	2.685760	0.921995	-0.258239	0.313354	-1.000000	-1.000000	-1.000000	-1.000000	-1.000000	-1.000000	-1.000000	68.000000	0.000000	-1.000000	-1.000000	2830282.000000	1770067158.223694
-20857.950000	-13723.155000	-20054.745000	-15303.645000	-21776.940000	-16144.515000	-3324.240000	-8282.475000	-29.940098	-2.237976	5.884966	5.696850	2.781049	1.150874	-2.118219	-12.888625	-4.120200	5.798800	2.685760	0.921995	-0.258239	0.313354	-1.000000	-1.000000	-1.000000	-1.000000	-1.000000	-1.000000	-1.000000	68.000000	0.000000	-1.000000	-1.000000	2830283.000000	1770067158.227868
-20854.350000	-13745.115000	-20071.485000	-15320.880000	-21794.850000	-16162.515000	-3340.260000	-8276.670000	-39.144637	1.972397	15.914237	10.289498	8.174101	6.312326	0.691897	-19.216526	-4.120200	5.798800	2.685760	0.921995	-0.258239	0.313354	-1.000000	-1.000000	-1.000000	-1.000000	-1.000000	-1.000000	-1.000000	68.000000	0.000000	-1.000000	-1.000000	2830284.000000	1770067158.227878
-20838.690000	-13757.130000	-20105.370000	-15359.490000	-21834.585000	-16196.895000	-3348.855000	-8210.925000	-41.691211	-2.286684	15.394494	8.805248	8.942091	7.716423	1.663252	-20.016841	-4.120200	5.798800	2.685760	0.921995	-0.258239	0.313354	-1.000000	-1.000000	-1.000000	-1.000000	-1.000000	-1.000000	-1.000000	68.000000	0.000000	-1.000000	-1.000000	2830285.000000	1770067158.239607
-20830.545000	-13756.950000	-20106.540000	-15351.480000	-21825.495000	-16185.690000	-3337.605000	-8224.650000	-27.603920	-8.745613	4.629149	0.018425	1.968208	1.852400	-1.218408	-13.000133	-4.120200	5.798800	2.685760	0.921995	-0.258239	0.313354	-1.000000	-1.000000	-1.000000	-1.000000	-1.000000	-1.000000	-1.000000	68.000000	0.000000	-1.000000	-1.000000	2830286.000000	1770067158.239618
-20778.300000	-13726.845000	-20089.665000	-15341.580000	-21817.485000	-16180.785000	-3342.645000	-8260.650000	2.302603	-9.081118	-7.894593	-10.541881	-8.437947	-7.409610	-4.963124	-0.031853	-4.120200	5.798800	2.685760	0.921995	-0.258239	0.313354	-1.000000	-1.000000	-1.000000	-1.000000	-1.000000	-1.000000	-1.000000	68.000000	0.000000	-1.000000	-1.000000	2830287.000000	1770067158.239779
-20756.250000	-13737.645000	-20110.230000	-15362.955000	-21836.610000	-16195.545000	-3343.455000	-8206.695000	36.315788	-0.295492	-13.106256	-15.396926	-14.346878	-12.556166	-5.435751	12.837789	-4.120200	5.798800	2.685760	0.921995	-0.258239	0.313354	-1.000000	-1.000000	-1.000000	-1.000000	-1.000000	-1.000000	-1.000000	68.000000	0.000000	-1.000000	-1.000000	2830288.000000	1770067158.239789
-20777.670000	-13782.780000	-20154.555000	-15391.890000	-21856.140000	-16202.070000	-3335.580000	-8167.860000	57.758749	10.337006	-10.766395	-13.018641	-12.783806	-10.654136	-2.156829	21.423266	-4.120200	5.798800	2.685760	0.921995	-0.258239	0.313354	-1.000000	-1.000000	-1.000000	-1.000000	-1.000000	-1.000000	-1.000000	68.000000	0.000000	-1.000000	-1.000000	2830289.000000	1770067158.239801
-20840.805000	-13803.840000	-20153.970000	-15395.490000	-21859.920000	-16204.545000	-3341.340000	-8207.595000	55.128303	12.183164	-7.468668	-7.857889	-7.410140	-5.082836	1.811055	24.388875	-4.120200	5.798800	2.685760	0.921995	-0.258239	0.313354	-1.000000	-1.000000	-1.000000	-1.000000	-1.000000	-1.000000	-1.000000	68.000000	0.000000	-1.000000	-1.000000	2830290.000000	1770067158.239806
-20822.040000	-13776.390000	-20127.960000	-15393.105000	-21855.240000	-16205.220000	-3347.550000	-8212.365000	29.544392	4.081908	-6.068135	-3.504188	-2.431801	-0.204056	3.614065	20.320711	-0.534100	7.599480	2.273740	0.923032	-0.260742	0.309142	-1.000000	-1.000000	-1.000000	-1.000000	-1.000000	-1.000000	-1.000000	68.000000	0.000000	-1.000000	-1.000000	2830291.000000	1770067158.250679
-20781.180000	-13746.735000	-20114.280000	-15391.215000	-21850.020000	-16208.280000	-3353.850000	-8210.205000	-7.166845	-5.630598	-3.549149	0.334652	1.607024	2.784566	3.086452	8.935405	-0.534100	7.599480	2.273740	0.923032	-0.260742	0.309142	-1.000000	-1.000000	-1.000000	-1.000000	-1.000000	-1.000000	-1.000000	68.000000	0.000000	-1.000000	-1.000000	2830292.000000	1770067158.250688
-20814.075000	-13748.220000	-20091.645000	-15349.590000	-21831.120000	-16195.770000	-3350.880000	-8230.365000	-38.279921	-8.375380	3.057406	5.922955	6.492845	5.336037	1.863075	-7.276147	-0.534100	7.599480	2.273740	0.923032	-0.260742	0.309142	-1.000000	-1.000000	-1.000000	-1.000000	-1.000000	-1.000000	-1.000000	68.000000	0.000000	-1.000000	-1.000000	2830293.000000	1770067158.250908
-20857.140000	-13768.830000	-20097.090000	-15341.670000	-21830.220000	-16191.630000	-3349.485000	-8245.800000	-51.546148	-2.525470	12.814676	14.374127	12.830556	8.751156	1.220981	-23.937157	-0.534100	7.599480	2.273740	0.923032	-0.260742	0.309142	-1.000000	-1.000000	-1.000000	-1.000000	-1.000000	-1.000000	-1.000000	68.000000	0.000000	-1.000000	-1.000000	2830294.000000	1770067158.250914
-20863.260000	-13782.915000	-20113.605000	-15359.130000	-21837.780000	-16194.735000	-3350.790000	-8239.905000	-45.543040	5.876965	20.286027	21.815143	17.441757	11.610573	1.127401	-34.109174	-0.534100	7.599480	2.273740	0.923032	-0.260742	0.309142	-1.000000	-1.000000	-1.000000	-1.000000	-1.000000	-1.000000	-1.000000	68.000000	0.000000	-1.000000	-1.000000	2830295.000000	1770067158.251581
-20836.440000	-13767.840000	-20103.930000	-15356.790000	-21837.960000	-16196.265000	-3348.900000	-8219.070000	-25.906282	9.965601	19.527514	21.378006	15.801107	10.913302	1.092371	-30.241307	-0.534100	7.599480	2.273740	0.923032	-0.260742	0.309142	-1.000000	-1.000000	-1.000000	-1.000000	-1.000000	-1.000000	-1.000000	68.000000	0.000000	-1.000000	-1.000000	2830296.000000	1770067158.251591
-20840.265000	-13769.325000	-20104.695000	-15355.395000	-21831.885000	-16187.895000	-3335.220000	-8206.380000	-0.636693	8.183064	10.345852	11.403274	7.710608	6.081893	1.070989	-12.522896	-0.534100	7.599480	2.273740	0.923032	-0.260742	0.309142	-1.000000	-1.000000	-1.000000	-1.000000	-1.000000	-1.000000	-1.000000	68.000000	0.000000	-1.000000	-1.000000	2830297.000000	1770067158.255487
-20860.965000	-13770.315000	-20099.475000	-15341.265000	-21809.475000	-16167.555000	-3323.205000	-8222.220000	22.182086	3.614816	-1.667384	-2.459340	-2.135926	-0.275269	1.101093	9.024462	-0.534100	7.599480	2.273740	0.923032	-0.260742	0.309142	-1.000000	-1.000000	-1.000000	-1.000000	-1.000000	-1.000000	-1.000000	68.000000	0.000000	-1.000000	-1.000000	2830298.000000	1770067158.255494
-20828.205000	-13752.270000	-20092.230000	-15340.545000	-21809.205000	-16169.265000	-3328.560000	-8232.345000	37.026372	0.038909	-10.820106	-13.229317	-8.945329	-5.225116	0.973001	23.838603	-0.534100	7.599480	2.273740	0.923032	-0.260742	0.309142	-1.000000	-1.000000	-1.000000	-1.000000	-1.000000	-1.000000	-1.000000	68.000000	0.000000	-1.000000	-1.000000	2830299.000000	1770067158.259538
-20831.985000	-13739.850000	-20077.920000	-15331.545000	-21803.220000	-16164.315000	-3328.605000	-8237.385000	40.007603	-1.705376	-15.045740	-17.525307	-11.308081	-7.583880	0.468755	27.463282	-0.534100	7.599480	2.273740	0.923032	-0.260742	0.309142	-1.000000	-1.000000	-1.000000	-1.000000	-1.000000	-1.000000	-1.000000	68.000000	0.000000	-1.000000	-1.000000	2830300.000000	1770067158.259548
-20859.390000	-13774.455000	-20105.325000	-15355.170000	-21823.290000	-16178.400000	-3339.720000	-8259.930000	28.357536	-3.823120	-15.283519	-16.139095	-10.725528	-7.785025	-0.536833	20.348245	-3.296160	-1.159760	-6.027700	0.914304	-0.266479	0.313293	-1.000000	-1.000000	-1.000000	-1.000000	-1.000000	-1.000000	-1.000000	68.000000	0.000000	-1.000000	-1.000000	2830301.000000	1770067158.264911
-20931.435000	-13814.595000	-20126.475000	-15362.370000	-21826.485000	-16181.370000	-3345.615000	-8284.950000	5.152144	-7.987176	-13.472777	-12.357638	-9.292424	-6.958840	-2.175142	6.037390	-3.296160	-1.159760	-6.027700	0.914304	-0.266479	0.313293	-1.000000	-1.000000	-1.000000	-1.000000	-1.000000	-1.000000	-1.000000	68.000000	0.000000	-1.000000	-1.000000	2830302.000000	1770067158.264920
-20845.845000	-13791.690000	-20126.025000	-15361.740000	-21827.790000	-16184.250000	-3347.190000	-8241.705000	-18.101965	-12.090609	-10.387420	-8.563319	-7.667240	-5.899706	-4.187557	-8.519856	-3.296160	-1.159760	-6.027700	0.914304	-0.266479	0.313293	-1.000000	-1.000000	-1.000000	-1.000000	-1.000000	-1.000000	-1.000000	68.000000	0.000000	-1.000000	-1.000000	2830303.000000	1770067158.267547
-20830.590000	-13759.605000	-20105.460000	-15359.760000	-21831.165000	-16183.530000	-3334.770000	-8199.450000	-27.601559	-10.946748	-4.751649	-4.168325	-5.009116	-4.389664	-5.234414	-14.620637	-3.296160	-1.159760	-6.027700	0.914304	-0.266479	0.313293	-1.000000	-1.000000	-1.000000	-1.000000	-1.000000	-1.000000	-1.000000	68.000000	0.000000	-1.000000	-1.000000	2830304.000000	1770067158.267557
-20947.995000	-13794.570000	-20103.570000	-15358.455000	-21828.015000	-16177.680000	-3331.890000	-8233.290000	-21.248328	-2.818039	3.957550	1.922300	-0.753445	-1.718162	-3.827825	-9.666853	-3.296160	-1.159760	-6.027700	0.914304	-0.266479	0.313293	-1.000000	-1.000000	-1.000000	-1.000000	-1.000000	-1.000000	-1.000000	68.000000	0.000000	-1.000000	-1.000000	2830305.000000	1770067158.271533
-20882.520000	-13802.535000	-20123.730000	-15359.895000	-21825.720000	-16178.175000	-3340.530000	-8252.370000	-9.754900	6.824215	12.580674	8.450819	4.146137	1.850534	-0.676562	-1.222747	-3.296160	-1.159760	-6.027700	0.914304	-0.266479	0.313293	-1.000000	-1.000000	-1.000000	-1.000000	-1.000000	-1.000000	-1.000000	68.000000	0.000000	-1.000000	-1.000000	2830306.000000	1770067158.271544
-20877.345000	-13765.320000	-20090.295000	-15333.435000	-21804.615000	-16158.375000	-3326.355000	-8252.370000	0.227417	12.106108	16.579930	12.768093	7.792037	4.810726	1.876115	2.692397	-3.296160	-1.159760	-6.027700	0.914304	-0.266479	0.313293	-1.000000	-1.000000	-1.000000	-1.000000	-1.000000	-1.000000	-1.000000	68.000000	0.000000	-1.000000	-1.000000	2830307.000000	1770067158.275458
-20895.030000	-13786.245000	-20105.685000	-15351.075000	-21822.615000	-16175.430000	-3341.565000	-8263.935000	8.223540	11.772202	14.129337	13.094456	8.738828	5.927369	2.842779	1.788858	-3.296160	-1.159760	-6.027700	0.914304	-0.266479	0.313293	-1.000000	-1.000000	-1.000000	-1.000000	-1.000000	-1.000000	-1.000000	68.000000	0.000000	-1.000000	-1.000000	2830308.000000	1770067158.275465
-20718.675000	-13744.530000	-20114.730000	-15376.635000	-21853.305000	-16206.030000	-3357.090000	-8212.770000	13.597503	7.093600	6.344592	8.753504	6.192040	4.501360	2.513627	0.206265	-3.296160	-1.159760	-6.027700	0.914304	-0.266479	0.313293	-1.000000	-1.000000	-1.000000	-1.000000	-1.000000	-1.000000	-1.000000	68.000000	0.000000	-1.000000	-1.000000	2830309.000000	1770067158.282213
-20726.145000	-13711.680000	-20096.415000	-15363.765000	-21843.495000	-16195.365000	-3341.340000	-8181.180000	19.182981	2.305844	-2.950286	1.023410	0.864147	0.801477	1.472443	2.104627	-3.296160	-1.159760	-6.027700	0.914304	-0.266479	0.313293	-1.000000	-1.000000	-1.000000	-1.000000	-1.000000	-1.000000	-1.000000	68.000000	0.000000	-1.000000	-1.000000	2830310.000000	1770067158.282223
-20811.285000	-13729.455000	-20080.665000	-15336.765000	-21813.930000	-16168.140000	-3332.430000	-8220.330000	24.019222	1.931211	-7.970313	-5.598008	-3.534737	-2.304174	1.115952	7.351569	-10.071600	-5.951400	-8.179360	0.909483	-0.264343	0.321410	-1.000000	-1.000000	-1.000000	-1.000000	-1.000000	-1.000000	-1.000000	68.000000	0.000000	-1.000000	-1.000000	2830311.000000	1770067158.284807
-20854.035000	-13769.280000	-20090.430000	-15334.425000	-21807.000000	-16161.975000	-3335.715000	-8256.645000	16.820418	3.246203	-6.263072	-6.775488	-3.143701	-1.552170	2.129331	8.795095	-10.071600	-5.951400	-8.179360	0.909483	-0.264343	0.321410	-1.000000	-1.000000	-1.000000	-1.000000	-1.000000	-1.000000	-1.000000	68.000000	0.000000	-1.000000	-1.000000	2830312.000000	1770067158.284815
-20934.540000	-13803.390000	-20098.935000	-15333.750000	-21801.915000	-16156.080000	-3331.215000	-8287.875000	-7.959402	-0.975896	-1.730979	-2.930041	1.553174	2.576961	3.056876	-0.049242	-10.071600	-5.951400	-8.179360	0.909483	-0.264343	0.321410	-1.000000	-1.000000	-1.000000	-1.000000	-1.000000	-1.000000	-1.000000	68.000000	0.000000	-1.000000	-1.000000	2830313.000000	1770067158.287508
-20992.545000	-13788.360000	-20084.715000	-15322.950000	-21796.200000	-16154.820000	-3338.370000	-8311.455000	-38.235513	-11.063406	0.661933	1.877713	6.284148	6.272181	2.151992	-15.372730	-10.071600	-5.951400	-8.179360	0.909483	-0.264343	0.321410	-1.000000	-1.000000	-1.000000	-1.000000	-1.000000	-1.000000	-1.000000	68.000000	0.000000	-1.000000	-1.000000	2830314.000000	1770067158.287518
-20922.345000	-13811.535000	-20117.160000	-15360.075000	-21829.500000	-16183.035000	-3355.020000	-8268.795000	-54.284048	-19.067428	-0.183086	3.563373	6.499728	5.659523	-0.907620	-25.031981	-10.071600	-5.951400	-8.179360	0.909483	-0.264343	0.321410	-1.000000	-1.000000	-1.000000	-1.000000	-1.000000	-1.000000	-1.000000	68.000000	0.000000	-1.000000	-1.000000	2830315.000000	1770067158.291487
-20714.265000	-13741.470000	-20108.970000	-15383.070000	-21855.150000	-16200.270000	-3342.105000	-8168.760000	-41.239204	-18.068604	-3.288290	-0.305498	0.056938	-0.620230	-4.777395	-18.141662	-10.071600	-5.951400	-8.179360	0.909483	-0.264343	0.321410	-1.000000	-1.000000	-1.000000	-1.000000	-1.000000	-1.000000	-1.000000	68.000000	0.000000	-1.000000	-1.000000	2830316.000000	1770067158.291502
-20687.895000	-13694.175000	-20090.880000	-15368.265000	-21843.000000	-16189.695000	-3330.135000	-8151.660000	0.473937	-6.677050	-6.371273	-7.642404	-9.756546	-9.059462	-6.390623	5.238200	-10.071600	-5.951400	-8.179360	0.909483	-0.264343	0.321410	-1.000000	-1.000000	-1.000000	-1.000000	-1.000000	-1.000000	-1.000000	68.000000	0.000000	-1.000000	-1.000000	2830317.000000	1770067158.295623
-20804.310000	-13720.005000	-20080.845000	-15317.640000	-21787.560000	-16138.170000	-3307.680000	-8208.360000	44.991663	9.994191	-5.709956	-10.969265	-14.326708	-12.110608	-3.126487	29.680625	-10.071600	-5.951400	-8.179360	0.909483	-0.264343	0.321410	-1.000000	-1.000000	-1.000000	-1.000000	-1.000000	-1.000000	-1.000000	68.000000	0.000000	-1.000000	-1.000000	2830318.000000	1770067158.295630
-20903.490000	-13753.215000	-20061.045000	-15292.035000	-21763.620000	-16118.730000	-3312.855000	-8314.245000	58.048002	20.943859	-0.191422	-4.751130	-7.656351	-5.293947	3.541777	34.473720	-10.071600	-5.951400	-8.179360	0.909483	-0.264343	0.321410	-1.000000	-1.000000	-1.000000	-1.000000	-1.000000	-1.000000	-1.000000	68.000000	0.000000	-1.000000	-1.000000	2830319.000000	1770067158.299686
-20857.320000	-13775.445000	-20105.190000	-15353.820000	-21827.970000	-16181.865000	-3354.480000	-8294.445000	32.754191	18.477352	6.310384	6.555679	5.168460	5.960107	7.931968	13.864905	-10.071600	-5.951400	-8.179360	0.909483	-0.264343	0.321410	-1.000000	-1.000000	-1.000000	-1.000000	-1.000000	-1.000000	-1.000000	68.000000	0.000000	-1.000000	-1.000000	2830320.000000	1770067158.299694
-20774.205000	-13781.520000	-20150.145000	-15408.810000	-21880.395000	-16225.695000	-3358.440000	-8170.965000	-4.617799	5.839668	7.763015	11.607916	11.518381	10.245888	5.293869	-14.272216	-8.270920	-2.014320	-0.427280	0.917600	-0.258361	0.318420	-1.000000	-1.000000	-1.000000	-1.000000	-1.000000	-1.000000	-1.000000	68.000000	0.000000	-1.000000	-1.000000	2830321.000000	1770067158.303494
-20801.115000	-13763.520000	-20125.395000	-15376.995000	-21852.585000	-16200.900000	-3340.845000	-8173.890000	-23.287141	-6.759502	2.172228	5.052185	5.342317	3.056969	-2.607983	-25.244546	-8.270920	-2.014320	-0.427280	0.917600	-0.258361	0.318420	-1.000000	-1.000000	-1.000000	-1.000000	-1.000000	-1.000000	-1.000000	68.000000	0.000000	-1.000000	-1.000000	2830322.000000	1770067158.303640
-20899.170000	-13779.405000	-20108.700000	-15350.715000	-21821.355000	-16172.865000	-3334.140000	-8236.755000	-17.059438	-11.447536	-4.915761	-5.743240	-5.741307	-7.616345	-8.744109	-13.782713	-8.270920	-2.014320	-0.427280	0.917600	-0.258361	0.318420	-1.000000	-1.000000	-1.000000	-1.000000	-1.000000	-1.000000	-1.000000	68.000000	0.000000	-1.000000	-1.000000	2830323.000000	1770067158.316520
-20896.245000	-13790.655000	-20100.105000	-15334.335000	-21803.670000	-16159.635000	-3342.960000	-8288.415000	-5.442924	-8.554030	-6.200953	-9.293382	-9.528117	-10.486308	-8.183529	2.382540	-8.270920	-2.014320	-0.427280	0.917600	-0.258361	0.318420	-1.000000	-1.000000	-1.000000	-1.000000	-1.000000	-1.000000	-1.000000	68.000000	0.000000	-1.000000	-1.000000	2830324.000000	1770067158.316533
-21099.465000	-13871.430000	-20106.810000	-15323.220000	-21787.740000	-16145.100000	-3344.535000	-8362.845000	-10.441556	-5.502441	-0.863658	-1.963953	-1.785345	-2.364564	-2.442316	3.669736	-8.270920	-2.014320	-0.427280	0.917600	-0.258361	0.318420	-1.000000	-1.000000	-1.000000	-1.000000	-1.000000	-1.000000	-1.000000	68.000000	0.000000	-1.000000	-1.000000	2830325.000000	1770067158.316546
-21034.710000	-13881.375000	-20155.365000	-15387.795000	-21854.295000	-16202.295000	-3364.470000	-8262.270000	-33.748798	-8.859001	4.928052	8.829497	10.020104	9.355198	3.190290	-10.397567	-8.270920	-2.014320	-0.427280	0.917600	-0.258361	0.318420	-1.000000	-1.000000	-1.000000	-1.000000	-1.000000	-1.000000	-1.000000	68.000000	0.000000	-1.000000	-1.000000	2830326.000000	1770067158.316551
-20751.705000	-13752.045000	-20122.560000	-15382.665000	-21857.220000	-16202.070000	-3351.240000	-8177.895000	-46.571559	-13.465566	5.121329	11.413623	13.320927	13.190508	4.770040	-19.421026	-8.270920	-2.014320	-0.427280	0.917600	-0.258361	0.318420	-1.000000	-1.000000	-1.000000	-1.000000	-1.000000	-1.000000	-1.000000	68.000000	0.000000	-1.000000	-1.000000	2830327.000000	1770067158.316557
-20684.250000	-13721.355000	-20107.125000	-15375.825000	-21848.895000	-16193.295000	-3341.790000	-8176.005000	-15.224689	-5.620308	0.801173	2.514060	3.910230	5.389276	3.035277	-5.228506	-8.270920	-2.014320	-0.427280	0.917600	-0.258361	0.318420	-1.000000	-1.000000	-1.000000	-1.000000	-1.000000	-1.000000	-1.000000	68.000000	0.000000	-1.000000	-1.000000	2830328.000000	1770067158.316562
-20717.325000	-13725.225000	-20098.170000	-15367.590000	-21842.415000	-16190.595000	-3344.850000	-8198.505000	50.060959	16.912812	-1.501831	-8.406660	-8.564035	-5.525630	1.947948	23.849885	-8.270920	-2.014320	-0.427280	0.917600	-0.258361	0.318420	-1.000000	-1.000000	-1.000000	-1.000000	-1.000000	-1.000000	-1.000000	68.000000	0.000000	-1.000000	-1.000000	2830329.000000	1770067158.319622
-20838.420000	-13761.045000	-20105.145000	-15356.790000	-21835.350000	-16179.660000	-3340.350000	-8240.805000	96.698023	37.959736	1.796392	-10.260804	-12.004296	-8.994023	3.248214	40.447145	-8.270920	-2.014320	-0.427280	0.917600	-0.258361	0.318420	-1.000000	-1.000000	-1.000000	-1.000000	-1.000000	-1.000000	-1.000000	68.000000	0.000000	-1.000000	-1.000000	2830330.000000	1770067158.319635
-20823.570000	-13723.155000	-20084.445000	-15331.905000	-21823.785000	-16166.115000	-3333.645000	-8260.560000	86.179507	40.131378	7.188280	-2.140692	-4.849495	-3.556915	4.707885	28.579763	-2.090620	2.166920	-0.534100	0.922910	-0.264953	0.308776	-1.000000	-1.000000	-1.000000	-1.000000	-1.000000	-1.000000	-1.000000	68.000000	0.000000	-1.000000	-1.000000	2830331.000000	1770067158.325522
-20751.525000	-13674.420000	-20042.370000	-15301.665000	-21787.965000	-16137.765000	-3315.465000	-8244.180000	29.428943	22.258504	9.315504	8.326883	5.367275	4.521118	4.138470	-1.137616	-2.090620	2.166920	-0.534100	0.922910	-0.264953	0.308776	-1.000000	-1.000000	-1.000000	-1.000000	-1.000000	-1.000000	-1.000000	68.000000	0.000000	-1.000000	-1.000000	2830332.000000	1770067158.325535
-20812.770000	-13689.315000	-20047.950000	-15309.315000	-21781.440000	-16137.990000	-3319.605000	-8279.820000	-33.489613	-2.752363	6.767276	13.694286	11.576339	9.140912	1.899621	-25.990750	-2.090620	2.166920	-0.534100	0.922910	-0.264953	0.308776	-1.000000	-1.000000	-1.000000	-1.000000	-1.000000	-1.000000	-1.000000	68.000000	0.000000	-1.000000	-1.000000	2830333.000000	1770067158.327573
-20856.555000	-13721.895000	-20090.025000	-15348.555000	-21815.145000	-16166.025000	-3338.415000	-8270.370000	-71.006659	-22.346244	0.577128	10.657563	10.993562	7.797565	-1.027934	-32.756926	-2.090620	2.166920	-0.534100	0.922910	-0.264953	0.308776	-1.000000	-1.000000	-1.000000	-1.000000	-1.000000	-1.000000	-1.000000	68.000000	0.000000	-1.000000	-1.000000	2830334.000000	1770067158.327584
-20797.020000	-13739.715000	-20113.470000	-15361.470000	-21834.360000	-16181.550000	-3337.920000	-8176.050000	-75.175027	-32.491553	-7.954978	0.571822	4.183856	1.299701	-4.330511	-22.872139	-2.090620	2.166920	-0.534100	0.922910	-0.264953	0.308776	-1.000000	-1.000000	-1.000000	-1.000000	-1.000000	-1.000000	-1.000000	68.000000	0.000000	-1.000000	-1.000000	2830335.000000	1770067158.331513
-20797.065000	-13745.745000	-20094.795000	-15330.015000	-21808.755000	-16158.645000	-3320.280000	-8153.505000	-56.474152	-35.628535	-16.149396	-10.765711	-5.165296	-6.662644	-7.051558	-4.391057	-2.090620	2.166920	-0.534100	0.922910	-0.264953	0.308776	-1.000000	-1.000000	-1.000000	-1.000000	-1.000000	-1.000000	-1.000000	68.000000	0.000000	-1.000000	-1.000000	2830336.000000	1770067158.331523
-20797.290000	-13746.375000	-20089.215000	-15343.155000	-21814.515000	-16159.410000	-3332.340000	-8188.380000	-30.189317	-33.497446	-19.602278	-16.507177	-11.635445	-11.216723	-7.460567	13.316808	-2.090620	2.166920	-0.534100	0.922910	-0.264953	0.308776	-1.000000	-1.000000	-1.000000	-1.000000	-1.000000	-1.000000	-1.000000	68.000000	0.000000	-1.000000	-1.000000	2830337.000000	1770067158.335974
-20844.945000	-13771.395000	-20116.440000	-15392.520000	-21870.090000	-16192.710000	-3357.855000	-8244.405000	-4.640947	-23.924778	-15.234546	-14.446808	-12.500094	-10.084196	-5.379588	20.633949	-2.090620	2.166920	-0.534100	0.922910	-0.264953	0.308776	-1.000000	-1.000000	-1.000000	-1.000000	-1.000000	-1.000000	-1.000000	68.000000	0.000000	-1.000000	-1.000000	2830338.000000	1770067158.335985
-20918.835000	-13812.345000	-20134.980000	-15395.355000	-21868.245000	-16188.705000	-3353.940000	-8276.490000	17.832464	-6.913007	-5.274139	-8.616115	-10.000119	-5.708821	-2.785291	13.386753	-2.090620	2.166920	-0.534100	0.922910	-0.264953	0.308776	-1.000000	-1.000000	-1.000000	-1.000000	-1.000000	-1.000000	-1.000000	68.000000	0.000000	-1.000000	-1.000000	2830339.000000	1770067158.339565
-20855.070000	-13832.955000	-20157.300000	-15406.245000	-21881.520000	-16225.380000	-3367.800000	-8223.210000	34.241581	10.677442	3.828694	-3.959108	-7.322628	-2.391216	-1.259569	-1.340100	-2.090620	2.166920	-0.534100	0.922910	-0.264953	0.308776	-1.000000	-1.000000	-1.000000	-1.000000	-1.000000	-1.000000	-1.000000	68.000000	0.000000	-1.000000	-1.000000	2830340.000000	1770067158.339572
-20877.570000	-13803.255000	-20124.720000	-15376.770000	-21848.940000	-16213.230000	-3362.445000	-8233.650000	40.793864	21.225861	7.612575	-1.259624	-4.757571	-2.158608	-0.627974	-10.819205	4.486440	7.416360	-3.372460	0.920957	-0.271423	0.298217	-1.000000	-1.000000	-1.000000	-1.000000	-1.000000	-1.000000	-1.000000	68.000000	0.000000	-1.000000	-1.000000	2830341.000000	1770067158.343478
-20887.110000	-13783.590000	-20105.640000	-15357.510000	-21826.620000	-16173.045000	-3332.070000	-8231.805000	37.176060	24.666381	8.172574	2.690064	-0.014643	-2.261275	0.889568	-8.742476	4.486440	7.416360	-3.372460	0.920957	-0.271423	0.298217	-1.000000	-1.000000	-1.000000	-1.000000	-1.000000	-1.000000	-1.000000	68.000000	0.000000	-1.000000	-1.000000	2830342.000000	1770067158.343489
-20804.040000	-13742.190000	-20086.020000	-15335.415000	-21806.640000	-16147.215000	-3319.335000	-8212.860000	27.844290	26.321809	11.013892	10.917239	9.003981	2.814734	5.386682	0.262919	4.486440	7.416360	-3.372460	0.920957	-0.271423	0.298217	-1.000000	-1.000000	-1.000000	-1.000000	-1.000000	-1.000000	-1.000000	68.000000	0.000000	-1.000000	-1.000000	2830343.000000	1770067158.347652
-20765.520000	-13742.055000	-20104.965000	-15355.125000	-21827.115000	-16172.100000	-3332.205000	-8177.580000	16.842396	27.684217	16.702939	20.689450	19.560404	13.142838	11.336180	6.548213	4.486440	7.416360	-3.372460	0.920957	-0.271423	0.298217	-1.000000	-1.000000	-1.000000	-1.000000	-1.000000	-1.000000	-1.000000	68.000000	0.000000	-1.000000	-1.000000	2830344.000000	1770067158.347665
-20795.940000	-13741.830000	-20094.030000	-15346.800000	-21822.300000	-16172.865000	-3332.160000	-8197.290000	3.766562	24.061028	18.847400	23.879126	23.810223	20.397908	13.370610	5.179624	4.486440	7.416360	-3.372460	0.920957	-0.271423	0.298217	-1.000000	-1.000000	-1.000000	-1.000000	-1.000000	-1.000000	-1.000000	68.000000	0.000000	-1.000000	-1.000000	2830345.000000	1770067158.353675
-20815.020000	-13746.150000	-20099.970000	-15358.680000	-21835.530000	-16182.540000	-3338.370000	-8222.220000	-11.726845	11.987310	12.444373	16.098139	17.053618	17.346552	8.689264	-0.783151	4.486440	7.416360	-3.372460	0.920957	-0.271423	0.298217	-1.000000	-1.000000	-1.000000	-1.000000	-1.000000	-1.000000	-1.000000	68.000000	0.000000	-1.000000	-1.000000	2830346.000000	1770067158.353683
-20822.310000	-13761.225000	-20107.755000	-15361.380000	-21833.955000	-16179.075000	-3338.955000	-8214.840000	-24.199744	-5.050416	0.066076	1.797083	3.296714	5.743581	0.188739	-4.943370	4.486440	7.416360	-3.372460	0.920957	-0.271423	0.298217	-1.000000	-1.000000	-1.000000	-1.000000	-1.000000	-1.000000	-1.000000	68.000000	0.000000	-1.000000	-1.000000	2830347.000000	1770067158.355658
-20812.320000	-13755.465000	-20085.705000	-15353.910000	-21828.690000	-16171.290000	-3337.155000	-8203.905000	-26.109232	-19.442891	-11.331917	-11.306443	-9.641642	-7.005440	-7.326161	-3.169091	4.486440	7.416360	-3.372460	0.920957	-0.271423	0.298217	-1.000000	-1.000000	-1.000000	-1.000000	-1.000000	-1.000000	-1.000000	68.000000	0.000000	-1.000000	-1.000000	2830348.000000	1770067158.355673
-20791.845000	-13732.695000	-20048.715000	-15339.105000	-21817.080000	-16152.615000	-3321.495000	-8192.160000	-17.445646	-25.448515	-15.936707	-18.242643	-16.713578	-14.185490	-10.619685	2.743764	4.486440	7.416360	-3.372460	0.920957	-0.271423	0.298217	-1.000000	-1.000000	-1.000000	-1.000000	-1.000000	-1.000000	-1.000000	68.000000	0.000000	-1.000000	-1.000000	2830349.000000	1770067158.359543
-20801.430000	-13727.475000	-20054.295000	-15328.710000	-21802.995000	-16146.765000	-3315.555000	-8200.665000	-5.265442	-22.429595	-12.972917	-18.050775	-17.211090	-13.634201	-9.010578	7.395172	4.486440	7.416360	-3.372460	0.920957	-0.271423	0.298217	-1.000000	-1.000000	-1.000000	-1.000000	-1.000000	-1.000000	-1.000000	68.000000	0.000000	-1.000000	-1.000000	2830350.000000	1770067158.359554
-20791.035000	-13741.020000	-20119.905000	-15352.605000	-21828.015000	-16168.860000	-3331.215000	-8199.495000	4.328188	-14.318088	-7.696877	-13.050376	-13.373359	-8.855932	-4.874087	7.270624	3.280900	6.500760	-2.502640	0.915830	-0.263366	0.297118	-1.000000	-1.000000	-1.000000	-1.000000	-1.000000	-1.000000	-1.000000	68.000000	0.000000	-1.000000	-1.000000	2830351.000000	1770067158.363570
-20816.370000	-13751.820000	-20120.625000	-15369.030000	-21846.240000	-16188.345000	-3349.890000	-8227.665000	6.637678	-6.670778	-6.106420	-7.040348	-8.345545	-5.229606	-2.005823	1.163384	3.280900	6.500760	-2.502640	0.915830	-0.263366	0.297118	-1.000000	-1.000000	-1.000000	-1.000000	-1.000000	-1.000000	-1.000000	68.000000	0.000000	-1.000000	-1.000000	2830352.000000	1770067158.363581
-20837.655000	-13751.955000	-20101.455000	-15367.860000	-21845.880000	-16193.655000	-3348.090000	-8242.920000	-0.948074	-2.600195	-7.730347	-2.533555	-3.984571	-4.506239	-1.899523	-9.840803	3.280900	6.500760	-2.502640	0.915830	-0.263366	0.297118	-1.000000	-1.000000	-1.000000	-1.000000	-1.000000	-1.000000	-1.000000	68.000000	0.000000	-1.000000	-1.000000	2830353.000000	1770067158.367846
-20857.770000	-13751.730000	-20098.305000	-15350.265000	-21815.865000	-16163.595000	-3334.230000	-8270.505000	-12.848050	-0.719451	-7.012323	0.974179	0.452076	-3.783445	-2.298826	-19.790894	3.280900	6.500760	-2.502640	0.915830	-0.263366	0.297118	-1.000000	-1.000000	-1.000000	-1.000000	-1.000000	-1.000000	-1.000000	68.000000	0.000000	-1.000000	-1.000000	2830354.000000	1770067158.367856
-20850.570000	-13743.810000	-20089.170000	-15330.330000	-21799.890000	-16147.395000	-3325.680000	-8255.070000	-17.614668	2.331117	-0.797230	5.696866	6.851596	0.712392	-0.020486	-20.462127	3.280900	6.500760	-2.502640	0.915830	-0.263366	0.297118	-1.000000	-1.000000	-1.000000	-1.000000	-1.000000	-1.000000	-1.000000	68.000000	0.000000	-1.000000	-1.000000	2830355.000000	1770067158.384975
-20797.290000	-13756.995000	-20105.955000	-15342.390000	-21817.890000	-16161.165000	-3332.520000	-8179.380000	-7.900264	7.824923	8.485893	11.646443	14.057052	8.425265	4.975752	-7.884942	3.280900	6.500760	-2.502640	0.915830	-0.263366	0.297118	-1.000000	-1.000000	-1.000000	-1.000000	-1.000000	-1.000000	-1.000000	68.000000	0.000000	-1.000000	-1.000000	2830356.000000	1770067158.384986
-20770.155000	-13736.565000	-20084.895000	-15331.320000	-21820.320000	-16160.940000	-3328.920000	-8175.600000	12.864702	13.338079	15.040494	14.974586	16.847005	13.847665	9.161815	13.393277	3.280900	6.500760	-2.502640	0.915830	-0.263366	0.297118	-1.000000	-1.000000	-1.000000	-1.000000	-1.000000	-1.000000	-1.000000	68.000000	0.000000	-1.000000	-1.000000	2830357.000000	1770067158.384999
-20783.340000	-13731.390000	-20077.245000	-15328.890000	-21810.780000	-16155.360000	-3326.085000	-8208.855000	31.648671	14.956042	14.561132	12.025390	11.543883	12.337447	9.125824	30.693297	3.280900	6.500760	-2.502640	0.915830	-0.263366	0.297118	-1.000000	-1.000000	-1.000000	-1.000000	-1.000000	-1.000000	-1.000000	68.000000	0.000000	-1.000000	-1.000000	2830358.000000	1770067158.385004
-20858.670000	-13753.035000	-20089.530000	-15332.310000	-21807.180000	-16153.740000	-3331.350000	-8249.850000	34.976416	10.701317	7.983013	3.504002	0.613228	4.647694	4.539093	31.647489	3.280900	6.500760	-2.502640	0.915830	-0.263366	0.297118	-1.000000	-1.000000	-1.000000	-1.000000	-1.000000	-1.000000	-1.000000	68.000000	0.000000	-1.000000	-1.000000	2830359.000000	1770067158.385010
-20843.370000	-13759.110000	-20109.690000	-15342.570000	-21805.245000	-16148.790000	-3334.680000	-8217.450000	18.639304	1.900669	0.184640	-5.992398	-9.205095	-4.090312	-1.863637	15.047811	3.280900	6.500760	-2.502640	0.915830	-0.263366	0.297118	-1.000000	-1.000000	-1.000000	-1.000000	-1.000000	-1.000000	-1.000000	68.000000	0.000000	-1.000000	-1.000000	2830360.000000	1770067158.385015
-20827.260000	-13749.570000	-20109.870000	-15338.565000	-21794.715000	-16143.345000	-3332.295000	-8241.255000	-8.035617	-7.207226	-4.937446	-11.437227	-12.177692	-8.392097	-6.246096	-8.083342	-1.205540	4.349100	-3.326680	0.910398	-0.255004	0.304198	-1.000000	-1.000000	-1.000000	-1.000000	-1.000000	-1.000000	-1.000000	68.000000	0.000000	-1.000000	-1.000000	2830361.000000	1770067158.385102
-20839.500000	-13761.000000	-20122.245000	-15358.995000	-21819.060000	-16164.405000	-3340.980000	-8257.455000	-28.041958	-11.967332	-7.176554	-11.168277	-8.257208	-7.003610	-6.690835	-24.248845	-1.205540	4.349100	-3.326680	0.910398	-0.255004	0.304198	-1.000000	-1.000000	-1.000000	-1.000000	-1.000000	-1.000000	-1.000000	68.000000	0.000000	-1.000000	-1.000000	2830362.000000	1770067158.385112
-20803.770000	-13786.380000	-20132.640000	-15395.625000	-21870.135000	-16201.260000	-3348.630000	-8217.450000	-29.959607	-11.134152	-7.968732	-8.031281	-3.400507	-4.166229	-4.577382	-25.970251	-1.205540	4.349100	-3.326680	0.910398	-0.255004	0.304198	-1.000000	-1.000000	-1.000000	-1.000000	-1.000000	-1.000000	-1.000000	68.000000	0.000000	-1.000000	-1.000000	2830363.000000	1770067158.387645
-20796.300000	-13766.265000	-20115.090000	-15366.060000	-21852.630000	-16173.270000	-3325.005000	-8185.680000	-14.982695	-6.663160	-7.332434	-5.368012	-2.921347	-4.021200	-2.016177	-13.833187	-1.205540	4.349100	-3.326680	0.910398	-0.255004	0.304198	-1.000000	-1.000000	-1.000000	-1.000000	-1.000000	-1.000000	-1.000000	68.000000	0.000000	-1.000000	-1.000000	2830364.000000	1770067158.387655
-20795.265000	-13718.520000	-20123.820000	-15367.770000	-21847.275000	-16171.380000	-3338.595000	-8225.055000	5.189189	0.181995	-4.195035	-2.665658	-4.839385	-4.870677	0.499976	2.906443	-1.205540	4.349100	-3.326680	0.910398	-0.255004	0.304198	-1.000000	-1.000000	-1.000000	-1.000000	-1.000000	-1.000000	-1.000000	68.000000	0.000000	-1.000000	-1.000000	2830365.000000	1770067158.391669
-20799.360000	-13707.675000	-20122.470000	-15364.125000	-21820.770000	-16158.015000	-3342.240000	-8283.915000	16.874971	8.345206	0.371592	1.651611	-3.457167	-2.722959	2.472754	11.420943	-1.205540	4.349100	-3.326680	0.910398	-0.255004	0.304198	-1.000000	-1.000000	-1.000000	-1.000000	-1.000000	-1.000000	-1.000000	68.000000	0.000000	-1.000000	-1.000000	2830366.000000	1770067158.391679
-20829.240000	-13714.290000	-20092.095000	-15329.970000	-21769.605000	-16111.080000	-3323.745000	-8312.490000	15.158408	14.032016	3.941991	6.766731	3.367518	3.128528	2.957474	6.923969	-1.205540	4.349100	-3.326680	0.910398	-0.255004	0.304198	-1.000000	-1.000000	-1.000000	-1.000000	-1.000000	-1.000000	-1.000000	68.000000	0.000000	-1.000000	-1.000000	2830367.000000	1770067158.396244
-20825.595000	-13722.795000	-20073.465000	-15333.165000	-21766.905000	-16102.125000	-3305.205000	-8205.480000	5.606942	13.302902	6.905641	11.189559	12.912449	10.463404	2.782565	-2.290108	-1.205540	4.349100	-3.326680	0.910398	-0.255004	0.304198	-1.000000	-1.000000	-1.000000	-1.000000	-1.000000	-1.000000	-1.000000	68.000000	0.000000	-1.000000	-1.000000	2830368.000000	1770067158.396253
-20805.840000	-13752.720000	-20142.495000	-15397.965000	-21821.670000	-16146.540000	-3315.870000	-8169.165000	-3.567137	5.745344	9.660822	12.506708	18.669231	14.821186	3.386908	-3.551818	-1.205540	4.349100	-3.326680	0.910398	-0.255004	0.304198	-1.000000	-1.000000	-1.000000	-1.000000	-1.000000	-1.000000	-1.000000	68.000000	0.000000	-1.000000	-1.000000	2830369.000000	1770067158.401123
-20815.875000	-13746.555000	-20149.065000	-15368.265000	-21831.255000	-16174.395000	-3332.475000	-8232.255000	-7.780303	-5.520794	8.434803	7.925756	14.181969	11.116534	3.763281	5.684549	-1.205540	4.349100	-3.326680	0.910398	-0.255004	0.304198	-1.000000	-1.000000	-1.000000	-1.000000	-1.000000	-1.000000	-1.000000	68.000000	0.000000	-1.000000	-1.000000	2830370.000000	1770067158.401134
-20801.475000	-13749.030000	-20091.645000	-15309.135000	-21792.285000	-16151.670000	-3334.005000	-8207.415000	-6.611133	-14.650113	2.013481	0.488064	1.272065	-0.001105	1.850145	15.538489	-0.854560	5.508860	-2.884140	0.910581	-0.252014	0.310424	-1.000000	-1.000000	-1.000000	-1.000000	-1.000000	-1.000000	-1.000000	68.000000	0.000000	-1.000000	-1.000000	2830371.000000	1770067158.404644
-20765.475000	-13778.190000	-20110.950000	-15354.495000	-21831.390000	-16176.600000	-3334.410000	-8137.305000	-1.909054	-16.603239	-4.121164	-3.118585	-10.403007	-10.988829	-2.135087	16.942750	-0.854560	5.508860	-2.884140	0.910581	-0.252014	0.310424	-1.000000	-1.000000	-1.000000	-1.000000	-1.000000	-1.000000	-1.000000	68.000000	0.000000	-1.000000	-1.000000	2830372.000000	1770067158.404655
-20812.815000	-13800.105000	-20132.865000	-15387.930000	-21864.015000	-16193.790000	-3336.075000	-8187.570000	2.908526	-12.195813	-6.352058	-3.316604	-15.195874	-15.935258	-5.993064	9.175259	-0.854560	5.508860	-2.884140	0.910581	-0.252014	0.310424	-1.000000	-1.000000	-1.000000	-1.000000	-1.000000	-1.000000	-1.000000	68.000000	0.000000	-1.000000	-1.000000	2830373.000000	1770067158.407619
-20871.180000	-13818.960000	-20163.195000	-15413.265000	-21893.895000	-16216.920000	-3359.700000	-8252.370000	2.755303	-6.841615	-6.948434	-5.903757	-15.469710	-15.036848	-7.804833	-4.620517	-0.854560	5.508860	-2.884140	0.910581	-0.252014	0.310424	-1.000000	-1.000000	-1.000000	-1.000000	-1.000000	-1.000000	-1.000000	68.000000	0.000000	-1.000000	-1.000000	2830374.000000	1770067158.407627
-20904.525000	-13769.055000	-20133.540000	-15393.330000	-21876.300000	-16203.780000	-3373.290000	-8397.585000	-4.541514	-3.193905	-8.043060	-11.635532	-14.406560	-10.786147	-7.282035	-20.527917	-0.854560	5.508860	-2.884140	0.910581	-0.252014	0.310424	-1.000000	-1.000000	-1.000000	-1.000000	-1.000000	-1.000000	-1.000000	68.000000	0.000000	-1.000000	-1.000000	2830375.000000	1770067158.414984
-20900.115000	-13713.525000	-20092.545000	-15339.915000	-21823.470000	-16159.905000	-3367.260000	-8435.565000	-13.039168	2.498864	-7.615143	-14.615796	-11.088666	-4.425170	-5.351995	-34.165338	-0.854560	5.508860	-2.884140	0.910581	-0.252014	0.310424	-1.000000	-1.000000	-1.000000	-1.000000	-1.000000	-1.000000	-1.000000	68.000000	0.000000	-1.000000	-1.000000	2830376.000000	1770067158.414995
-20868.660000	-13766.085000	-20167.515000	-15400.890000	-21870.540000	-16194.195000	-3371.445000	-8256.195000	-13.641034	12.864345	-3.302459	-9.497767	-2.969667	3.730119	-2.500478	-38.408781	-0.854560	5.508860	-2.884140	0.910581	-0.252014	0.310424	-1.000000	-1.000000	-1.000000	-1.000000	-1.000000	-1.000000	-1.000000	68.000000	0.000000	-1.000000	-1.000000	2830377.000000	1770067158.415633
-20793.240000	-13806.315000	-20251.485000	-15504.165000	-21927.105000	-16229.835000	-3345.570000	-8085.870000	-2.793643	21.470603	1.881152	0.457005	7.902351	11.522987	1.844826	-21.505481	-0.854560	5.508860	-2.884140	0.910581	-0.252014	0.310424	-1.000000	-1.000000	-1.000000	-1.000000	-1.000000	-1.000000	-1.000000	68.000000	0.000000	-1.000000	-1.000000	2830378.000000	1770067158.415645
-20755.530000	-13740.255000	-20177.550000	-15442.380000	-21876.165000	-16193.070000	-3323.430000	-8128.665000	15.713666	20.473546	3.396380	6.390689	15.638107	15.736644	8.243960	18.779499	-0.854560	5.508860	-2.884140	0.910581	-0.252014	0.310424	-1.000000	-1.000000	-1.000000	-1.000000	-1.000000	-1.000000	-1.000000	68.000000	0.000000	-1.000000	-1.000000	2830379.000000	1770067158.419747
-20716.965000	-13664.970000	-20078.280000	-15321.330000	-21770.640000	-16109.730000	-3293.505000	-8134.155000	32.345386	12.618791	3.815359	7.586090	19.132206	16.711889	15.305336	59.428920	-0.854560	5.508860	-2.884140	0.910581	-0.252014	0.310424	-1.000000	-1.000000	-1.000000	-1.000000	-1.000000	-1.000000	-1.000000	68.000000	0.000000	-1.000000	-1.000000	2830380.000000	1770067158.419759
-20793.195000	-13744.935000	-20116.980000	-15325.515000	-21804.615000	-16147.980000	-3324.690000	-8202.015000	35.284647	5.517604	8.668734	12.013413	21.841068	16.728966	18.690600	68.419552	12.024880	7.645260	-1.251320	0.916502	-0.251159	0.307555	-1.000000	-1.000000	-1.000000	-1.000000	-1.000000	-1.000000	-1.000000	68.000000	0.000000	-1.000000	-1.000000	2830381.000000	1770067158.423759
-20844.495000	-13795.470000	-20166.660000	-15387.885000	-21860.730000	-16193.205000	-3355.020000	-8282.340000	18.621196	-1.296098	15.067654	20.203389	21.768694	13.509458	13.603965	36.218610	12.024880	7.645260	-1.251320	0.916502	-0.251159	0.307555	-1.000000	-1.000000	-1.000000	-1.000000	-1.000000	-1.000000	-1.000000	68.000000	0.000000	-1.000000	-1.000000	2830382.000000	1770067158.423770
-20836.215000	-13774.230000	-20182.140000	-15419.610000	-21889.620000	-16208.145000	-3359.520000	-8261.145000	-9.894396	-11.905656	14.217193	21.539773	12.049422	2.811688	0.336859	-15.184783	12.024880	7.645260	-1.251320	0.916502	-0.251159	0.307555	-1.000000	-1.000000	-1.000000	-1.000000	-1.000000	-1.000000	-1.000000	68.000000	0.000000	-1.000000	-1.000000	2830383.000000	1770067158.427758
-20837.070000	-13789.710000	-20180.205000	-15395.580000	-21855.375000	-16180.470000	-3340.890000	-8232.660000	-32.681865	-23.685563	2.893013	8.847486	-7.735825	-13.315419	-13.920915	-49.985751	12.024880	7.645260	-1.251320	0.916502	-0.251159	0.307555	-1.000000	-1.000000	-1.000000	-1.000000	-1.000000	-1.000000	-1.000000	68.000000	0.000000	-1.000000	-1.000000	2830384.000000	1770067158.427770
-20856.465000	-13847.715000	-20216.115000	-15413.715000	-21860.730000	-16178.265000	-3352.725000	-8236.530000	-37.622646	-30.569644	-13.331715	-12.248819	-27.978884	-26.485590	-21.104886	-49.349192	12.024880	7.645260	-1.251320	0.916502	-0.251159	0.307555	-1.000000	-1.000000	-1.000000	-1.000000	-1.000000	-1.000000	-1.000000	68.000000	0.000000	-1.000000	-1.000000	2830385.000000	1770067158.437243
-20803.545000	-13790.520000	-20182.815000	-15388.740000	-21837.780000	-16141.680000	-3328.155000	-8272.170000	-26.501987	-27.364504	-23.242114	-27.356964	-35.758157	-27.839038	-18.471421	-27.508998	12.024880	7.645260	-1.251320	0.916502	-0.251159	0.307555	-1.000000	-1.000000	-1.000000	-1.000000	-1.000000	-1.000000	-1.000000	68.000000	0.000000	-1.000000	-1.000000	2830386.000000	1770067158.437254
-20835.720000	-13730.760000	-20129.400000	-15371.460000	-21833.550000	-16147.530000	-3345.435000	-8398.260000	-9.234788	-10.220218	-16.896239	-24.682411	-24.726017	-14.497367	-9.044945	-12.286633	12.024880	7.645260	-1.251320	0.916502	-0.251159	0.307555	-1.000000	-1.000000	-1.000000	-1.000000	-1.000000	-1.000000	-1.000000	68.000000	0.000000	-1.000000	-1.000000	2830387.000000	1770067158.442295
-20840.265000	-13743.180000	-20151.945000	-15395.985000	-21848.940000	-16168.680000	-3362.130000	-8321.175000	3.991968	15.549807	2.028755	-8.003738	-2.859796	4.944862	0.670968	-12.965677	12.024880	7.645260	-1.251320	0.916502	-0.251159	0.307555	-1.000000	-1.000000	-1.000000	-1.000000	-1.000000	-1.000000	-1.000000	68.000000	0.000000	-1.000000	-1.000000	2830388.000000	1770067158.442306
-20811.915000	-13782.150000	-20241.630000	-15489.765000	-21913.425000	-16196.715000	-3338.595000	-8147.250000	8.993424	33.838945	15.306725	4.573479	12.420988	15.725736	5.535836	-12.370064	12.024880	7.645260	-1.251320	0.916502	-0.251159	0.307555	-1.000000	-1.000000	-1.000000	-1.000000	-1.000000	-1.000000	-1.000000	68.000000	0.000000	-1.000000	-1.000000	2830389.000000	1770067158.442317
-20831.355000	-13751.055000	-20200.095000	-15482.340000	-21908.610000	-16199.370000	-3336.345000	-8172.315000	10.411472	34.225572	11.144642	1.541739	12.028256	12.199412	6.542922	8.791312	12.024880	7.645260	-1.251320	0.916502	-0.251159	0.307555	-1.000000	-1.000000	-1.000000	-1.000000	-1.000000	-1.000000	-1.000000	68.000000	0.000000	-1.000000	-1.000000	2830390.000000	1770067158.442322
-20837.430000	-13745.520000	-20132.820000	-15404.940000	-21856.140000	-16181.415000	-3336.660000	-8214.030000	14.133484	21.825806	-0.782786	-7.368178	4.477095	2.777614	7.816011	44.366834	3.845520	0.289940	0.824040	0.908506	-0.249572	0.313537	-1.000000	-1.000000	-1.000000	-1.000000	-1.000000	-1.000000	-1.000000	68.000000	0.000000	-1.000000	-1.000000	2830391.000000	1770067158.444701
-20852.145000	-13814.955000	-20115.990000	-15370.290000	-21847.140000	-16178.445000	-3322.530000	-8175.555000	18.813859	5.420484	-4.106139	-4.850220	2.999804	-1.999919	10.210623	68.264602	3.845520	0.289940	0.824040	0.908506	-0.249572	0.313537	-1.000000	-1.000000	-1.000000	-1.000000	-1.000000	-1.000000	-1.000000	68.000000	0.000000	-1.000000	-1.000000	2830392.000000	1770067158.444712
-20866.365000	-13870.350000	-20145.870000	-15403.455000	-21886.740000	-16203.285000	-3352.455000	-8199.855000	18.593593	-11.963407	3.189486	10.636539	8.285022	-0.883159	10.549369	61.679963	3.845520	0.289940	0.824040	0.908506	-0.249572	0.313537	-1.000000	-1.000000	-1.000000	-1.000000	-1.000000	-1.000000	-1.000000	68.000000	0.000000	-1.000000	-1.000000	2830393.000000	1770067158.453804
-20817.945000	-13819.995000	-20137.320000	-15407.325000	-21894.300000	-16209.000000	-3366.720000	-8163.180000	10.979092	-25.993864	11.084643	24.855997	11.021778	0.692662	5.541954	25.972599	3.845520	0.289940	0.824040	0.908506	-0.249572	0.313537	-1.000000	-1.000000	-1.000000	-1.000000	-1.000000	-1.000000	-1.000000	68.000000	0.000000	-1.000000	-1.000000	2830394.000000	1770067158.453813
-20761.200000	-13731.975000	-20093.535000	-15367.320000	-21839.940000	-16160.805000	-3325.770000	-8119.440000	-0.109820	-27.742616	12.226741	26.657072	7.147315	0.291632	-3.540624	-20.027930	3.845520	0.289940	0.824040	0.908506	-0.249572	0.313537	-1.000000	-1.000000	-1.000000	-1.000000	-1.000000	-1.000000	-1.000000	68.000000	0.000000	-1.000000	-1.000000	2830395.000000	1770067158.454046
-20807.550000	-13728.915000	-20100.240000	-15352.875000	-21806.235000	-16119.090000	-3312.270000	-8230.590000	-8.791987	-14.317940	5.922097	16.546466	1.596190	1.087880	-10.305084	-52.589363	3.845520	0.289940	0.824040	0.908506	-0.249572	0.313537	-1.000000	-1.000000	-1.000000	-1.000000	-1.000000	-1.000000	-1.000000	68.000000	0.000000	-1.000000	-1.000000	2830396.000000	1770067158.454052
-20843.685000	-13777.200000	-20183.310000	-15376.590000	-21827.385000	-16142.220000	-3351.780000	-8305.920000	-14.018728	4.746674	-6.001389	0.905778	-0.900749	5.152869	-10.352952	-63.789682	3.845520	0.289940	0.824040	0.908506	-0.249572	0.313537	-1.000000	-1.000000	-1.000000	-1.000000	-1.000000	-1.000000	-1.000000	68.000000	0.000000	-1.000000	-1.000000	2830397.000000	1770067158.455661
-20856.240000	-13806.045000	-20202.795000	-15406.830000	-21867.615000	-16199.865000	-3372.165000	-8271.180000	-17.955851	16.340507	-19.317441	-13.362724	-1.218912	8.384392	-6.686674	-61.308897	3.845520	0.289940	0.824040	0.908506	-0.249572	0.313537	-1.000000	-1.000000	-1.000000	-1.000000	-1.000000	-1.000000	-1.000000	68.000000	0.000000	-1.000000	-1.000000	2830398.000000	1770067158.455671
-20812.995000	-13826.070000	-20205.180000	-15427.305000	-21876.075000	-16198.560000	-3332.565000	-8162.145000	-18.316567	14.820351	-27.320769	-21.783223	-2.785721	5.366354	-3.510740	-45.567996	3.845520	0.289940	0.824040	0.908506	-0.249572	0.313537	-1.000000	-1.000000	-1.000000	-1.000000	-1.000000	-1.000000	-1.000000	68.000000	0.000000	-1.000000	-1.000000	2830399.000000	1770067158.459688
-20825.505000	-13840.920000	-20204.820000	-15415.695000	-21848.850000	-16162.290000	-3323.430000	-8171.775000	-10.409572	3.920499	-25.783450	-24.208023	-6.945828	-2.851180	-0.143364	-10.310155	3.845520	0.289940	0.824040	0.908506	-0.249572	0.313537	-1.000000	-1.000000	-1.000000	-1.000000	-1.000000	-1.000000	-1.000000	68.000000	0.000000	-1.000000	-1.000000	2830400.000000	1770067158.459700
-20838.150000	-13794.615000	-20211.255000	-15478.380000	-21882.330000	-16170.435000	-3337.200000	-8201.430000	3.784389	-6.162189	-15.360029	-22.640004	-11.482840	-9.760491	4.376219	34.323388	-12.742100	0.534100	-2.960440	0.903806	-0.245849	0.317992	-1.000000	-1.000000	-1.000000	-1.000000	-1.000000	-1.000000	-1.000000	68.000000	0.000000	-1.000000	-1.000000	2830401.000000	1770067158.463653
-20854.755000	-13667.715000	-20113.155000	-15459.075000	-21858.525000	-16138.665000	-3340.665000	-8412.075000	15.510109	-4.113388	2.046604	-17.479496	-12.516532	-10.304913	7.866658	60.756977	-12.742100	0.534100	-2.960440	0.903806	-0.245849	0.317992	-1.000000	-1.000000	-1.000000	-1.000000	-1.000000	-1.000000	-1.000000	68.000000	0.000000	-1.000000	-1.000000	2830402.000000	1770067158.463660
-20874.465000	-13597.740000	-19986.885000	-15382.620000	-21805.335000	-16107.570000	-3358.170000	-8558.595000	16.327160	11.834302	24.908152	-6.197477	-6.964597	-4.099344	7.820367	46.861680	-12.742100	0.534100	-2.960440	0.903806	-0.245849	0.317992	-1.000000	-1.000000	-1.000000	-1.000000	-1.000000	-1.000000	-1.000000	68.000000	0.000000	-1.000000	-1.000000	2830403.000000	1770067158.467638
-20811.330000	-13670.190000	-20087.415000	-15442.965000	-21913.920000	-16219.170000	-3403.755000	-8223.165000	5.775089	26.917634	44.858018	10.519509	2.284502	2.843059	2.536799	4.184766	-12.742100	0.534100	-2.960440	0.903806	-0.245849	0.317992	-1.000000	-1.000000	-1.000000	-1.000000	-1.000000	-1.000000	-1.000000	68.000000	0.000000	-1.000000	-1.000000	2830404.000000	1770067158.467649
-20754.045000	-13731.660000	-20148.795000	-15394.230000	-21885.120000	-16193.745000	-3333.420000	-8058.150000	-4.990225	22.079080	45.616397	24.285623	6.266690	1.728672	-6.064593	-20.919586	-12.742100	0.534100	-2.960440	0.903806	-0.245849	0.317992	-1.000000	-1.000000	-1.000000	-1.000000	-1.000000	-1.000000	-1.000000	68.000000	0.000000	-1.000000	-1.000000	2830405.000000	1770067158.478945
-20836.890000	-13767.255000	-20129.895000	-15326.595000	-21802.725000	-16127.415000	-3322.035000	-8243.190000	-5.197297	-4.348567	22.007087	29.585437	4.014353	-5.419562	-9.943753	-1.966574	-12.742100	0.534100	-2.960440	0.903806	-0.245849	0.317992	-1.000000	-1.000000	-1.000000	-1.000000	-1.000000	-1.000000	-1.000000	68.000000	0.000000	-1.000000	-1.000000	2830406.000000	1770067158.478956
-20854.755000	-13782.735000	-20137.680000	-15387.885000	-21860.190000	-16185.555000	-3357.990000	-8244.495000	1.475402	-34.359865	-10.594709	28.404017	4.543311	-6.732202	-4.306763	31.656353	-12.742100	0.534100	-2.960440	0.903806	-0.245849	0.317992	-1.000000	-1.000000	-1.000000	-1.000000	-1.000000	-1.000000	-1.000000	68.000000	0.000000	-1.000000	-1.000000	2830407.000000	1770067158.478995
-20797.155000	-13739.445000	-20153.655000	-15404.175000	-21898.395000	-16210.710000	-3352.950000	-8173.080000	5.281883	-47.428509	-33.841381	20.177990	8.962763	0.345954	4.571375	39.371367	-12.742100	0.534100	-2.960440	0.903806	-0.245849	0.317992	-1.000000	-1.000000	-1.000000	-1.000000	-1.000000	-1.000000	-1.000000	68.000000	0.000000	-1.000000	-1.000000	2830408.000000	1770067158.479001
-20830.590000	-13773.735000	-20181.060000	-15424.020000	-21916.080000	-16221.285000	-3356.010000	-8179.560000	4.083008	-35.591647	-40.717517	2.935255	8.689728	6.596962	8.109580	15.976080	-12.742100	0.534100	-2.960440	0.903806	-0.245849	0.317992	-1.000000	-1.000000	-1.000000	-1.000000	-1.000000	-1.000000	-1.000000	68.000000	0.000000	-1.000000	-1.000000	2830409.000000	1770067158.479902
-20870.865000	-13820.580000	-20163.150000	-15420.420000	-21894.120000	-16208.820000	-3354.345000	-8207.595000	0.320449	-8.936169	-33.245144	-17.282079	1.191137	6.088650	5.159549	-17.040125	-12.742100	0.534100	-2.960440	0.903806	-0.245849	0.317992	-1.000000	-1.000000	-1.000000	-1.000000	-1.000000	-1.000000	-1.000000	68.000000	0.000000	-1.000000	-1.000000	2830410.000000	1770067158.479913
-20833.785000	-13802.265000	-20104.830000	-15372.045000	-21834.180000	-16151.355000	-3326.175000	-8205.390000	-4.296137	12.515762	-17.543573	-29.536194	-6.388079	1.963339	0.549782	-36.024481	-4.639040	-22.279600	-10.071600	0.895811	-0.252014	0.348022	-1.000000	-1.000000	-1.000000	-1.000000	-1.000000	-1.000000	-1.000000	68.000000	0.000000	-1.000000	-1.000000	2830411.000000	1770067158.483835
-20791.890000	-13724.325000	-20091.105000	-15361.425000	-21819.915000	-16126.875000	-3319.020000	-8201.925000	-6.929467	18.392867	-0.699247	-28.165886	-6.945918	0.686160	-0.830793	-31.846981	-4.639040	-22.279600	-10.071600	0.895811	-0.252014	0.348022	-1.000000	-1.000000	-1.000000	-1.000000	-1.000000	-1.000000	-1.000000	68.000000	0.000000	-1.000000	-1.000000	2830412.000000	1770067158.483845
-20848.140000	-13801.905000	-20199.510000	-15442.560000	-21889.890000	-16188.615000	-3358.170000	-8243.010000	-6.333978	15.395387	12.169965	-16.971853	-0.860931	4.557054	1.030362	-18.674611	-4.639040	-22.279600	-10.071600	0.895811	-0.252014	0.348022	-1.000000	-1.000000	-1.000000	-1.000000	-1.000000	-1.000000	-1.000000	68.000000	0.000000	-1.000000	-1.000000	2830413.000000	1770067158.487763
-20846.295000	-13832.370000	-20198.205000	-15399.045000	-21858.480000	-16171.155000	-3346.155000	-8255.430000	-5.501167	13.244774	18.734683	-5.129168	4.675179	8.370453	1.216227	-16.300463	-4.639040	-22.279600	-10.071600	0.895811	-0.252014	0.348022	-1.000000	-1.000000	-1.000000	-1.000000	-1.000000	-1.000000	-1.000000	68.000000	0.000000	-1.000000	-1.000000	2830414.000000	1770067158.487770
-20824.290000	-13797.135000	-20150.370000	-15349.005000	-21826.755000	-16146.495000	-3317.940000	-8173.305000	-4.351804	14.541287	19.896809	2.738868	4.339797	6.456041	-2.442822	-21.023676	-4.639040	-22.279600	-10.071600	0.895811	-0.252014	0.348022	-1.000000	-1.000000	-1.000000	-1.000000	-1.000000	-1.000000	-1.000000	68.000000	0.000000	-1.000000	-1.000000	2830415.000000	1770067158.491990
-20801.610000	-13699.665000	-20065.545000	-15314.220000	-21807.000000	-16129.755000	-3321.180000	-8244.765000	1.076562	18.636636	19.787159	10.256466	1.374548	1.169545	-5.591308	-15.211585	-4.639040	-22.279600	-10.071600	0.895811	-0.252014	0.348022	-1.000000	-1.000000	-1.000000	-1.000000	-1.000000	-1.000000	-1.000000	68.000000	0.000000	-1.000000	-1.000000	2830416.000000	1770067158.492002
-20841.075000	-13704.840000	-20095.065000	-15399.765000	-21884.265000	-16188.570000	-3370.545000	-8282.205000	8.865337	23.133092	20.916712	18.773457	0.517079	-2.526573	-5.290530	1.454529	-4.639040	-22.279600	-10.071600	0.895811	-0.252014	0.348022	-1.000000	-1.000000	-1.000000	-1.000000	-1.000000	-1.000000	-1.000000	68.000000	0.000000	-1.000000	-1.000000	2830417.000000	1770067158.495799
-20828.880000	-13801.410000	-20196.495000	-15514.740000	-21978.720000	-16245.045000	-3377.835000	-8138.340000	12.538180	21.143999	18.215448	20.010341	-1.287134	-5.851477	-4.158423	17.614670	-4.639040	-22.279600	-10.071600	0.895811	-0.252014	0.348022	-1.000000	-1.000000	-1.000000	-1.000000	-1.000000	-1.000000	-1.000000	68.000000	0.000000	-1.000000	-1.000000	2830418.000000	1770067158.495809
-20823.570000	-13816.665000	-20222.955000	-15556.455000	-21984.705000	-16210.080000	-3344.670000	-8145.450000	10.435973	5.799399	3.158531	6.145397	-9.534231	-11.838594	-3.839542	31.430845	-4.639040	-22.279600	-10.071600	0.895811	-0.252014	0.348022	-1.000000	-1.000000	-1.000000	-1.000000	-1.000000	-1.000000	-1.000000	68.000000	0.000000	-1.000000	-1.000000	2830419.000000	1770067158.499939
-20851.470000	-13811.265000	-20251.215000	-15603.615000	-22005.945000	-16218.945000	-3354.705000	-8207.505000	4.272331	-20.413852	-23.781229	-18.350058	-21.857571	-18.065431	-2.510040	41.918966	-4.639040	-22.279600	-10.071600	0.895811	-0.252014	0.348022	-1.000000	-1.000000	-1.000000	-1.000000	-1.000000	-1.000000	-1.000000	68.000000	0.000000	-1.000000	-1.000000	2830420.000000	1770067158.499950
-20811.780000	-13802.490000	-20225.115000	-15560.280000	-21967.515000	-16209.360000	-3349.035000	-8185.410000	-4.591698	-44.070275	-47.403497	-37.328251	-27.530500	-18.456555	0.917325	38.660459	-6.867000	-13.825560	1.663340	0.912717	-0.233032	0.334289	-1.000000	-1.000000	-1.000000	-1.000000	-1.000000	-1.000000	-1.000000	68.000000	0.000000	-1.000000	-1.000000	2830421.000000	1770067158.503888
-20780.190000	-13794.435000	-20199.960000	-15487.605000	-21899.430000	-16171.830000	-3326.985000	-8140.770000	-11.234680	-48.834344	-47.152803	-33.224120	-15.667023	-8.455237	5.707613	17.036415	-6.867000	-13.825560	1.663340	0.912717	-0.233032	0.334289	-1.000000	-1.000000	-1.000000	-1.000000	-1.000000	-1.000000	-1.000000	68.000000	0.000000	-1.000000	-1.000000	2830422.000000	1770067158.503898
-20807.370000	-13780.080000	-20170.980000	-15418.935000	-21850.560000	-16159.455000	-3318.345000	-8158.455000	-9.902174	-28.192730	-17.298480	-2.998524	12.712879	9.631495	9.986830	-11.503258	-6.867000	-13.825560	1.663340	0.912717	-0.233032	0.334289	-1.000000	-1.000000	-1.000000	-1.000000	-1.000000	-1.000000	-1.000000	68.000000	0.000000	-1.000000	-1.000000	2830423.000000	1770067158.511796
-20842.380000	-13782.240000	-20118.960000	-15312.420000	-21786.930000	-16149.195000	-3334.860000	-8223.795000	-3.102466	6.114492	24.280724	36.880078	42.263687	25.799823	10.670650	-32.928659	-6.867000	-13.825560	1.663340	0.912717	-0.233032	0.334289	-1.000000	-1.000000	-1.000000	-1.000000	-1.000000	-1.000000	-1.000000	68.000000	0.000000	-1.000000	-1.000000	2830424.000000	1770067158.511807
-20852.100000	-13790.385000	-20109.735000	-15292.800000	-21790.440000	-16170.255000	-3363.030000	-8226.630000	0.989217	31.848335	51.850408	64.520874	56.190650	30.449725	5.830350	-41.463607	-6.867000	-13.825560	1.663340	0.912717	-0.233032	0.334289	-1.000000	-1.000000	-1.000000	-1.000000	-1.000000	-1.000000	-1.000000	68.000000	0.000000	-1.000000	-1.000000	2830425.000000	1770067158.511970
-20883.555000	-13774.995000	-20074.320000	-15278.580000	-21775.230000	-16139.655000	-3350.610000	-8315.955000	-0.761502	36.099371	53.098731	67.200379	48.293078	22.610503	-2.096947	-37.465755	-6.867000	-13.825560	1.663340	0.912717	-0.233032	0.334289	-1.000000	-1.000000	-1.000000	-1.000000	-1.000000	-1.000000	-1.000000	68.000000	0.000000	-1.000000	-1.000000	2830426.000000	1770067158.511981
-20897.865000	-13756.095000	-20088.855000	-15339.960000	-21829.005000	-16156.890000	-3360.420000	-8327.970000	-4.742634	25.003443	34.171721	44.905771	23.519334	8.879219	-7.971950	-26.534506	-6.867000	-13.825560	1.663340	0.912717	-0.233032	0.334289	-1.000000	-1.000000	-1.000000	-1.000000	-1.000000	-1.000000	-1.000000	68.000000	0.000000	-1.000000	-1.000000	2830427.000000	1770067158.516308
-20801.700000	-13698.855000	-20140.065000	-15448.590000	-21932.595000	-16198.605000	-3357.360000	-8206.965000	-5.311906	12.113159	6.937024	4.715898	-10.350970	-5.708658	-9.518443	-11.779889	-6.867000	-13.825560	1.663340	0.912717	-0.233032	0.334289	-1.000000	-1.000000	-1.000000	-1.000000	-1.000000	-1.000000	-1.000000	68.000000	0.000000	-1.000000	-1.000000	2830428.000000	1770067158.516319
-20785.635000	-13686.975000	-20194.290000	-15525.045000	-21984.615000	-16208.595000	-3355.875000	-8212.095000	1.633468	3.803166	-21.227255	-42.961605	-45.980061	-19.944609	-7.798918	10.568374	-6.867000	-13.825560	1.663340	0.912717	-0.233032	0.334289	-1.000000	-1.000000	-1.000000	-1.000000	-1.000000	-1.000000	-1.000000	68.000000	0.000000	-1.000000	-1.000000	2830429.000000	1770067158.519730
-20844.585000	-13819.410000	-20318.715000	-15636.195000	-22053.645000	-16245.405000	-3361.995000	-8183.295000	12.211880	-3.045022	-45.065369	-83.302023	-72.317898	-30.327852	-4.102032	36.197056	-6.867000	-13.825560	1.663340	0.912717	-0.233032	0.334289	-1.000000	-1.000000	-1.000000	-1.000000	-1.000000	-1.000000	-1.000000	68.000000	0.000000	-1.000000	-1.000000	2830430.000000	1770067158.519741
-20847.555000	-13892.220000	-20343.240000	-15592.095000	-21975.255000	-16191.315000	-3316.140000	-8149.905000	15.725163	-14.832394	-58.743462	-100.678600	-77.007204	-31.493029	0.414624	50.453335	-4.822160	-15.473640	-17.518480	0.921445	-0.286559	0.296996	-1.000000	-1.000000	-1.000000	-1.000000	-1.000000	-1.000000	-1.000000	68.000000	0.000000	-1.000000	-1.000000	2830431.000000	1770067158.523613
-20812.185000	-13829.130000	-20257.200000	-15500.385000	-21905.550000	-16181.190000	-3317.085000	-8116.695000	8.877973	-30.098049	-55.499187	-84.367419	-53.447819	-20.873567	4.799588	45.674513	-4.822160	-15.473640	-17.518480	0.921445	-0.286559	0.296996	-1.000000	-1.000000	-1.000000	-1.000000	-1.000000	-1.000000	-1.000000	68.000000	0.000000	-1.000000	-1.000000	2830432.000000	1770067158.523624
-20791.170000	-13741.515000	-20093.445000	-15363.540000	-21830.940000	-16175.205000	-3329.955000	-8145.765000	-0.185657	-35.725176	-29.385914	-34.165478	-6.485188	-1.377427	8.076526	26.551798	-4.822160	-15.473640	-17.518480	0.921445	-0.286559	0.296996	-1.000000	-1.000000	-1.000000	-1.000000	-1.000000	-1.000000	-1.000000	68.000000	0.000000	-1.000000	-1.000000	2830433.000000	1770067158.527645
-20839.275000	-13764.105000	-20037.780000	-15283.215000	-21785.445000	-16158.645000	-3339.540000	-8211.510000	-4.177627	-21.474142	16.378228	35.041201	46.674776	19.039106	8.814291	1.467694	-4.822160	-15.473640	-17.518480	0.921445	-0.286559	0.296996	-1.000000	-1.000000	-1.000000	-1.000000	-1.000000	-1.000000	-1.000000	68.000000	0.000000	-1.000000	-1.000000	2830434.000000	1770067158.527654
-20846.565000	-13761.045000	-20078.325000	-15320.700000	-21809.070000	-16161.345000	-3350.475000	-8217.405000	-3.871030	6.085936	62.328498	95.830648	83.798389	31.819509	6.107791	-22.500282	-4.822160	-15.473640	-17.518480	0.921445	-0.286559	0.296996	-1.000000	-1.000000	-1.000000	-1.000000	-1.000000	-1.000000	-1.000000	68.000000	0.000000	-1.000000	-1.000000	2830435.000000	1770067158.531576
-20791.845000	-13704.570000	-20111.670000	-15418.170000	-21888.855000	-16169.040000	-3341.655000	-8209.845000	-2.879912	30.288318	81.980664	119.349579	87.920822	31.919466	0.542605	-38.738363	-4.822160	-15.473640	-17.518480	0.921445	-0.286559	0.296996	-1.000000	-1.000000	-1.000000	-1.000000	-1.000000	-1.000000	-1.000000	68.000000	0.000000	-1.000000	-1.000000	2830436.000000	1770067158.531584
-20805.750000	-13709.655000	-20171.070000	-15559.830000	-22018.950000	-16210.935000	-3355.695000	-8219.970000	-3.312672	38.513150	62.916892	91.934344	55.708727	19.690045	-5.587078	-43.057832	-4.822160	-15.473640	-17.518480	0.921445	-0.286559	0.296996	-1.000000	-1.000000	-1.000000	-1.000000	-1.000000	-1.000000	-1.000000	68.000000	0.000000	-1.000000	-1.000000	2830437.000000	1770067158.535598
-20803.230000	-13757.805000	-20229.750000	-15629.220000	-22073.040000	-16222.410000	-3337.605000	-8166.105000	-5.852006	28.132133	16.494153	25.986874	0.783866	0.794845	-9.248034	-35.231197	-4.822160	-15.473640	-17.518480	0.921445	-0.286559	0.296996	-1.000000	-1.000000	-1.000000	-1.000000	-1.000000	-1.000000	-1.000000	68.000000	0.000000	-1.000000	-1.000000	2830438.000000	1770067158.535608
-20791.305000	-13751.595000	-20228.625000	-15595.515000	-22046.445000	-16209.225000	-3326.265000	-8162.280000	-7.962011	7.787255	-31.071975	-44.921136	-51.125844	-16.230834	-8.534826	-17.591319	-4.822160	-15.473640	-17.518480	0.921445	-0.286559	0.296996	-1.000000	-1.000000	-1.000000	-1.000000	-1.000000	-1.000000	-1.000000	68.000000	0.000000	-1.000000	-1.000000	2830439.000000	1770067158.539541
-20795.940000	-13776.120000	-20242.440000	-15588.315000	-22058.775000	-16220.070000	-3328.155000	-8167.095000	-5.868990	-9.114011	-57.043995	-87.032707	-76.975284	-24.938595	-4.567860	3.541679	-4.822160	-15.473640	-17.518480	0.921445	-0.286559	0.296996	-1.000000	-1.000000	-1.000000	-1.000000	-1.000000	-1.000000	-1.000000	68.000000	0.000000	-1.000000	-1.000000	2830440.000000	1770067158.539549
-20814.345000	-13833.405000	-20231.910000	-15587.955000	-22036.050000	-16203.870000	-3315.780000	-8175.780000	-0.736811	-18.398914	-57.178139	-88.653874	-70.485385	-23.936800	-0.151165	19.464398	13.093080	-16.724960	-32.946340	0.905454	-0.309203	0.305053	-1.000000	-1.000000	-1.000000	-1.000000	-1.000000	-1.000000	-1.000000	68.000000	0.000000	-1.000000	-1.000000	2830441.000000	1770067158.546609
-20807.640000	-13792.455000	-20218.770000	-15603.795000	-21992.265000	-16194.645000	-3331.755000	-8236.620000	3.001681	-24.629653	-42.645738	-61.660043	-40.291555	-14.846159	3.502481	25.376491	13.093080	-16.724960	-32.946340	0.905454	-0.309203	0.305053	-1.000000	-1.000000	-1.000000	-1.000000	-1.000000	-1.000000	-1.000000	68.000000	0.000000	-1.000000	-1.000000	2830442.000000	1770067158.546620
-20777.805000	-13704.390000	-20171.745000	-15551.955000	-21961.440000	-16218.990000	-3361.005000	-8210.295000	5.012151	-25.719963	-23.266120	-23.789982	0.122226	-1.621035	5.728047	22.814410	13.093080	-16.724960	-32.946340	0.905454	-0.309203	0.305053	-1.000000	-1.000000	-1.000000	-1.000000	-1.000000	-1.000000	-1.000000	68.000000	0.000000	-1.000000	-1.000000	2830443.000000	1770067158.547584
-20803.995000	-13751.370000	-20129.175000	-15422.985000	-21876.480000	-16189.830000	-3346.290000	-8172.315000	7.373403	-15.008920	0.353603	16.870460	38.750498	9.967915	5.234035	17.160232	13.093080	-16.724960	-32.946340	0.905454	-0.309203	0.305053	-1.000000	-1.000000	-1.000000	-1.000000	-1.000000	-1.000000	-1.000000	68.000000	0.000000	-1.000000	-1.000000	2830444.000000	1770067158.547590
-20854.710000	-13810.500000	-20107.395000	-15319.755000	-21801.915000	-16168.545000	-3363.570000	-8269.965000	6.817556	1.706159	28.275381	59.839219	68.180240	16.928115	2.276233	10.801562	13.093080	-16.724960	-32.946340	0.905454	-0.309203	0.305053	-1.000000	-1.000000	-1.000000	-1.000000	-1.000000	-1.000000	-1.000000	68.000000	0.000000	-1.000000	-1.000000	2830445.000000	1770067158.551650
-20821.140000	-13718.520000	-20085.795000	-15304.590000	-21807.765000	-16190.640000	-3384.270000	-8251.515000	-0.588131	12.291300	53.185886	97.592292	82.915617	19.649869	-1.544031	0.710886	13.093080	-16.724960	-32.946340	0.905454	-0.309203	0.305053	-1.000000	-1.000000	-1.000000	-1.000000	-1.000000	-1.000000	-1.000000	68.000000	0.000000	-1.000000	-1.000000	2830446.000000	1770067158.551656
-20805.615000	-13722.030000	-20100.015000	-15350.130000	-21839.850000	-16173.000000	-3341.655000	-8168.130000	-9.566634	16.651246	63.959784	109.588219	74.327322	17.818819	-4.482717	-11.873931	13.093080	-16.724960	-32.946340	0.905454	-0.309203	0.305053	-1.000000	-1.000000	-1.000000	-1.000000	-1.000000	-1.000000	-1.000000	68.000000	0.000000	-1.000000	-1.000000	2830447.000000	1770067158.559409
-20853.090000	-13836.780000	-20142.855000	-15383.025000	-21866.580000	-16162.245000	-3310.920000	-8154.990000	-11.976467	19.026890	52.360432	76.725837	36.047458	10.618125	-4.196698	-18.122071	13.093080	-16.724960	-32.946340	0.905454	-0.309203	0.305053	-1.000000	-1.000000	-1.000000	-1.000000	-1.000000	-1.000000	-1.000000	68.000000	0.000000	-1.000000	-1.000000	2830448.000000	1770067158.559418
-20833.245000	-13814.820000	-20127.015000	-15397.605000	-21915.090000	-16191.945000	-3314.610000	-8163.405000	-7.149619	15.835116	18.595497	3.136801	-23.893609	-0.805988	0.152400	-13.122654	13.093080	-16.724960	-32.946340	0.905454	-0.309203	0.305053	-1.000000	-1.000000	-1.000000	-1.000000	-1.000000	-1.000000	-1.000000	68.000000	0.000000	-1.000000	-1.000000	2830449.000000	1770067158.559566
-20816.190000	-13775.670000	-20136.195000	-15454.620000	-21971.340000	-16217.190000	-3320.640000	-8175.780000	1.237863	5.844224	-25.360427	-80.071530	-82.648578	-13.667413	5.575885	-1.416472	13.093080	-16.724960	-32.946340	0.905454	-0.309203	0.305053	-1.000000	-1.000000	-1.000000	-1.000000	-1.000000	-1.000000	-1.000000	68.000000	0.000000	-1.000000	-1.000000	2830450.000000	1770067158.559572
-20820.915000	-13802.310000	-20191.455000	-15553.395000	-22045.365000	-16239.600000	-3321.270000	-8187.300000	9.788649	-5.299255	-61.748822	-135.584663	-116.124685	-24.029442	8.229539	9.605640	1.068200	-9.980040	-6.943300	0.913023	-0.265563	0.285949	-1.000000	-1.000000	-1.000000	-1.000000	-1.000000	-1.000000	-1.000000	68.000000	0.000000	-1.000000	-1.000000	2830451.000000	1770067158.566478
-20815.740000	-13793.535000	-20228.400000	-15635.970000	-22146.255000	-16279.920000	-3326.715000	-8191.845000	14.691360	-13.837470	-77.410526	-143.266269	-112.448578	-27.651605	7.001933	14.216541	1.068200	-9.980040	-6.943300	0.913023	-0.265563	0.285949	-1.000000	-1.000000	-1.000000	-1.000000	-1.000000	-1.000000	-1.000000	68.000000	0.000000	-1.000000	-1.000000	2830452.000000	1770067158.566488
-20819.070000	-13771.710000	-20260.575000	-15716.565000	-22240.035000	-16315.740000	-3322.395000	-8190.720000	13.509540	-17.226418	-68.081507	-106.800523	-76.537360	-23.302708	2.833255	9.907312	1.068200	-9.980040	-6.943300	0.913023	-0.265563	0.285949	-1.000000	-1.000000	-1.000000	-1.000000	-1.000000	-1.000000	-1.000000	68.000000	0.000000	-1.000000	-1.000000	2830453.000000	1770067158.567721
-20792.565000	-13732.290000	-20230.785000	-15694.875000	-22202.190000	-16296.120000	-3319.380000	-8178.930000	7.799289	-11.761554	-37.234714	-43.764498	-22.778511	-12.765042	-2.235226	0.690865	1.068200	-9.980040	-6.943300	0.913023	-0.265563	0.285949	-1.000000	-1.000000	-1.000000	-1.000000	-1.000000	-1.000000	-1.000000	68.000000	0.000000	-1.000000	-1.000000	2830454.000000	1770067158.567731
-20775.825000	-13710.960000	-20193.255000	-15652.305000	-22131.090000	-16281.945000	-3344.490000	-8175.285000	1.177430	1.111132	6.245864	27.774330	36.424849	2.499445	-6.079113	-6.880895	1.068200	-9.980040	-6.943300	0.913023	-0.265563	0.285949	-1.000000	-1.000000	-1.000000	-1.000000	-1.000000	-1.000000	-1.000000	68.000000	0.000000	-1.000000	-1.000000	2830455.000000	1770067158.571692
-20810.115000	-13763.565000	-20213.370000	-15618.195000	-22062.825000	-16282.755000	-3359.295000	-8202.870000	-4.395067	13.650649	48.796885	91.606511	90.246878	19.228564	-9.150576	-11.918450	1.068200	-9.980040	-6.943300	0.913023	-0.265563	0.285949	-1.000000	-1.000000	-1.000000	-1.000000	-1.000000	-1.000000	-1.000000	68.000000	0.000000	-1.000000	-1.000000	2830456.000000	1770067158.571703
-20812.320000	-13753.890000	-20171.520000	-15467.310000	-21926.790000	-16235.730000	-3363.525000	-8231.805000	-8.680110	19.207471	74.733494	131.546997	124.850055	31.023831	-12.657086	-16.533856	1.068200	-9.980040	-6.943300	0.913023	-0.265563	0.285949	-1.000000	-1.000000	-1.000000	-1.000000	-1.000000	-1.000000	-1.000000	68.000000	0.000000	-1.000000	-1.000000	2830457.000000	1770067158.575588
-20857.545000	-13821.030000	-20133.675000	-15317.100000	-21829.860000	-16172.775000	-3356.280000	-8247.690000	-11.767327	15.115416	74.332971	138.212439	129.191680	34.641588	-14.135828	-18.828469	1.068200	-9.980040	-6.943300	0.913023	-0.265563	0.285949	-1.000000	-1.000000	-1.000000	-1.000000	-1.000000	-1.000000	-1.000000	68.000000	0.000000	-1.000000	-1.000000	2830458.000000	1770067158.575594
-20862.540000	-13849.065000	-20117.790000	-15345.675000	-21896.325000	-16178.040000	-3338.955000	-8225.955000	-13.957263	0.852678	49.849422	112.230706	99.644631	31.318478	-9.260117	-13.781710	1.068200	-9.980040	-6.943300	0.913023	-0.265563	0.285949	-1.000000	-1.000000	-1.000000	-1.000000	-1.000000	-1.000000	-1.000000	68.000000	0.000000	-1.000000	-1.000000	2830459.000000	1770067158.580308
-20826.000000	-13824.675000	-20128.770000	-15461.145000	-21960.855000	-16198.380000	-3336.750000	-8194.365000	-13.604458	-18.168790	13.372379	58.049290	39.858409	21.339729	2.474102	0.745130	1.068200	-9.980040	-6.943300	0.913023	-0.265563	0.285949	-1.000000	-1.000000	-1.000000	-1.000000	-1.000000	-1.000000	-1.000000	68.000000	0.000000	-1.000000	-1.000000	2830460.000000	1770067158.580317
-20832.795000	-13821.030000	-20188.620000	-15562.935000	-22017.150000	-16224.615000	-3342.420000	-8200.845000	-7.545557	-29.748429	-21.153216	-15.514917	-34.408908	4.481061	15.581604	19.309249	-16.282420	-9.506980	-6.805960	0.926389	-0.275024	0.284911	-1.000000	-1.000000	-1.000000	-1.000000	-1.000000	-1.000000	-1.000000	68.000000	0.000000	-1.000000	-1.000000	2830461.000000	1770067158.583544
-20822.490000	-13770.270000	-20193.480000	-15570.585000	-22026.015000	-16248.915000	-3358.170000	-8215.605000	3.464158	-25.050599	-44.551634	-87.978928	-96.387224	-15.937821	22.201284	31.281946	-16.282420	-9.506980	-6.805960	0.926389	-0.275024	0.284911	-1.000000	-1.000000	-1.000000	-1.000000	-1.000000	-1.000000	-1.000000	68.000000	0.000000	-1.000000	-1.000000	2830462.000000	1770067158.583550
-20803.815000	-13766.535000	-20178.855000	-15536.610000	-21995.595000	-16252.245000	-3361.635000	-8210.790000	13.835347	-6.689620	-52.581477	-131.116284	-122.858020	-33.357441	18.446112	29.158310	-16.282420	-9.506980	-6.805960	0.926389	-0.275024	0.284911	-1.000000	-1.000000	-1.000000	-1.000000	-1.000000	-1.000000	-1.000000	68.000000	0.000000	-1.000000	-1.000000	2830463.000000	1770067158.587667
-20828.070000	-13795.065000	-20170.620000	-15468.255000	-21919.005000	-16221.105000	-3351.420000	-8221.680000	17.900802	13.850863	-44.567443	-125.840440	-106.788672	-40.732267	7.390466	13.695876	-16.282420	-9.506980	-6.805960	0.926389	-0.275024	0.284911	-1.000000	-1.000000	-1.000000	-1.000000	-1.000000	-1.000000	-1.000000	68.000000	0.000000	-1.000000	-1.000000	2830464.000000	1770067158.587680
-20818.890000	-13749.840000	-20118.645000	-15362.415000	-21791.745000	-16168.995000	-3341.520000	-8244.495000	14.325536	26.656956	-23.562524	-75.385351	-57.994848	-33.588846	-4.039318	-7.084879	-16.282420	-9.506980	-6.805960	0.926389	-0.275024	0.284911	-1.000000	-1.000000	-1.000000	-1.000000	-1.000000	-1.000000	-1.000000	68.000000	0.000000	-1.000000	-1.000000	2830465.000000	1770067158.593906
-20828.115000	-13765.545000	-20101.140000	-15307.155000	-21727.305000	-16137.495000	-3335.310000	-8261.370000	6.663130	29.506683	2.860535	-5.297704	2.256128	-13.984575	-10.409730	-22.709081	-16.282420	-9.506980	-6.805960	0.926389	-0.275024	0.284911	-1.000000	-1.000000	-1.000000	-1.000000	-1.000000	-1.000000	-1.000000	68.000000	0.000000	-1.000000	-1.000000	2830466.000000	1770067158.593915
-20871.000000	-13862.925000	-20130.480000	-15316.695000	-21737.925000	-16120.170000	-3329.055000	-8242.875000	-0.957901	22.505364	22.902272	50.264938	49.189327	8.695051	-10.577018	-26.080184	-16.282420	-9.506980	-6.805960	0.926389	-0.275024	0.284911	-1.000000	-1.000000	-1.000000	-1.000000	-1.000000	-1.000000	-1.000000	68.000000	0.000000	-1.000000	-1.000000	2830467.000000	1770067158.595777
-20871.045000	-13822.065000	-20136.240000	-15362.820000	-21804.525000	-16152.840000	-3348.990000	-8223.030000	-7.225086	6.175964	27.382485	70.508314	66.469966	23.640688	-7.198557	-16.891226	-16.282420	-9.506980	-6.805960	0.926389	-0.275024	0.284911	-1.000000	-1.000000	-1.000000	-1.000000	-1.000000	-1.000000	-1.000000	68.000000	0.000000	-1.000000	-1.000000	2830468.000000	1770067158.595783
-20853.135000	-13768.965000	-20138.355000	-15381.405000	-21823.245000	-16165.620000	-3348.045000	-8228.115000	-11.615947	-12.317314	18.155109	59.215278	54.443343	25.594390	-3.934412	-1.618316	-16.282420	-9.506980	-6.805960	0.926389	-0.275024	0.284911	-1.000000	-1.000000	-1.000000	-1.000000	-1.000000	-1.000000	-1.000000	68.000000	0.000000	-1.000000	-1.000000	2830469.000000	1770067158.599735
-20851.200000	-13787.865000	-20152.980000	-15403.005000	-21845.340000	-16171.605000	-3341.745000	-8236.440000	-12.161963	-22.594891	5.642174	34.330682	26.682046	16.961161	-2.099696	10.818227	-16.282420	-9.506980	-6.805960	0.926389	-0.275024	0.284911	-1.000000	-1.000000	-1.000000	-1.000000	-1.000000	-1.000000	-1.000000	68.000000	0.000000	-1.000000	-1.000000	2830470.000000	1770067158.599746
-20894.940000	-13814.190000	-20151.630000	-15417.900000	-21901.005000	-16203.015000	-3360.420000	-8254.935000	-8.547275	-22.561572	-1.982918	10.143247	-1.992492	4.324874	-0.661563	14.945439	-6.165040	23.744560	-1.754900	0.946958	-0.265075	0.258178	-1.000000	-1.000000	-1.000000	-1.000000	-1.000000	-1.000000	-1.000000	68.000000	0.000000	-1.000000	-1.000000	2830471.000000	1770067158.607428
-20889.225000	-13799.925000	-20129.130000	-15411.330000	-21934.485000	-16215.480000	-3362.040000	-8264.520000	-4.061671	-17.218127	-3.793854	-9.104192	-24.487938	-7.107997	0.847681	10.359367	-6.165040	23.744560	-1.754900	0.946958	-0.265075	0.258178	-1.000000	-1.000000	-1.000000	-1.000000	-1.000000	-1.000000	-1.000000	68.000000	0.000000	-1.000000	-1.000000	2830472.000000	1770067158.607438
-20826.000000	-13767.795000	-20137.140000	-15436.440000	-21957.570000	-16221.105000	-3361.995000	-8262.270000	0.289833	-8.660802	-2.641824	-24.140631	-39.649906	-15.154799	1.658782	1.051730	-6.165040	23.744560	-1.754900	0.946958	-0.265075	0.258178	-1.000000	-1.000000	-1.000000	-1.000000	-1.000000	-1.000000	-1.000000	68.000000	0.000000	-1.000000	-1.000000	2830473.000000	1770067158.607860
-20786.265000	-13752.855000	-20134.170000	-15444.585000	-21944.250000	-16222.365000	-3353.760000	-8233.830000	7.709370	3.300827	-2.139732	-35.931768	-46.533198	-19.008535	1.460447	-5.743337	-6.165040	23.744560	-1.754900	0.946958	-0.265075	0.258178	-1.000000	-1.000000	-1.000000	-1.000000	-1.000000	-1.000000	-1.000000	68.000000	0.000000	-1.000000	-1.000000	2830474.000000	1770067158.607884
-20801.115000	-13775.445000	-20128.635000	-15434.640000	-21899.340000	-16208.730000	-3339.720000	-8203.230000	17.855937	15.448217	-4.328503	-42.432818	-41.327427	-17.943159	1.103833	-4.365275	-6.165040	23.744560	-1.754900	0.946958	-0.265075	0.258178	-1.000000	-1.000000	-1.000000	-1.000000	-1.000000	-1.000000	-1.000000	68.000000	0.000000	-1.000000	-1.000000	2830475.000000	1770067158.613442
-20872.755000	-13831.020000	-20136.825000	-15401.790000	-21828.465000	-16164.855000	-3327.840000	-8207.550000	23.245557	22.167297	-7.037617	-36.280077	-18.194576	-10.381615	1.759372	3.486314	-6.165040	23.744560	-1.754900	0.946958	-0.265075	0.258178	-1.000000	-1.000000	-1.000000	-1.000000	-1.000000	-1.000000	-1.000000	68.000000	0.000000	-1.000000	-1.000000	2830476.000000	1770067158.613452
-20919.690000	-13837.500000	-20172.960000	-15406.065000	-21827.430000	-16152.345000	-3327.345000	-8243.460000	15.348460	18.147052	-6.907498	-11.341622	22.193818	4.633146	3.684032	9.208639	-6.165040	23.744560	-1.754900	0.946958	-0.265075	0.258178	-1.000000	-1.000000	-1.000000	-1.000000	-1.000000	-1.000000	-1.000000	68.000000	0.000000	-1.000000	-1.000000	2830477.000000	1770067158.615790
-20903.265000	-13811.940000	-20188.620000	-15416.910000	-21855.825000	-16167.015000	-3333.600000	-8265.150000	-5.404719	3.186463	-3.713067	25.902400	63.680536	22.575756	5.402758	5.626894	-6.165040	23.744560	-1.754900	0.946958	-0.265075	0.258178	-1.000000	-1.000000	-1.000000	-1.000000	-1.000000	-1.000000	-1.000000	68.000000	0.000000	-1.000000	-1.000000	2830478.000000	1770067158.615800
-20869.200000	-13811.670000	-20192.265000	-15422.535000	-21865.410000	-16167.870000	-3327.570000	-8256.690000	-25.894118	-13.680474	0.908563	56.834048	82.513614	33.624823	4.871143	-5.196780	-6.165040	23.744560	-1.754900	0.946958	-0.265075	0.258178	-1.000000	-1.000000	-1.000000	-1.000000	-1.000000	-1.000000	-1.000000	68.000000	0.000000	-1.000000	-1.000000	2830479.000000	1770067158.620134
-20871.225000	-13781.745000	-20176.560000	-15412.590000	-21859.020000	-16170.390000	-3335.805000	-8267.940000	-31.055098	-20.927844	5.414395	64.381421	67.173358	30.961087	1.929715	-14.423765	-6.165040	23.744560	-1.754900	0.946958	-0.265075	0.258178	-1.000000	-1.000000	-1.000000	-1.000000	-1.000000	-1.000000	-1.000000	68.000000	0.000000	-1.000000	-1.000000	2830480.000000	1770067158.620145
-20864.835000	-13783.545000	-20192.445000	-15422.985000	-21867.885000	-16182.180000	-3356.550000	-8292.330000	-18.310560	-14.707431	8.073693	44.604018	26.025093	15.753798	-2.195905	-15.829898	17.823680	56.889280	32.976860	0.972593	-0.253051	0.228210	-1.000000	-1.000000	-1.000000	-1.000000	-1.000000	-1.000000	-1.000000	68.000000	0.000000	-1.000000	-1.000000	2830481.000000	1770067158.624385
-20789.685000	-13771.395000	-20189.115000	-15447.555000	-21904.110000	-16205.040000	-3362.850000	-8245.935000	2.272667	-1.081252	7.414853	7.200741	-22.372149	-5.623292	-6.640180	-9.436987	17.823680	56.889280	32.976860	0.972593	-0.253051	0.228210	-1.000000	-1.000000	-1.000000	-1.000000	-1.000000	-1.000000	-1.000000	68.000000	0.000000	-1.000000	-1.000000	2830482.000000	1770067158.624396
-20748.330000	-13769.370000	-20151.360000	-15446.205000	-21906.855000	-16204.725000	-3347.595000	-8173.125000	19.587387	10.409328	4.109472	-31.268202	-60.693476	-25.183290	-9.948225	2.285524	17.823680	56.889280	32.976860	0.972593	-0.253051	0.228210	-1.000000	-1.000000	-1.000000	-1.000000	-1.000000	-1.000000	-1.000000	68.000000	0.000000	-1.000000	-1.000000	2830483.000000	1770067158.631545
-20815.515000	-13804.560000	-20165.040000	-15456.510000	-21908.250000	-16190.055000	-3337.515000	-8193.240000	27.563370	14.885948	1.022476	-55.002289	-77.093204	-35.441253	-9.805617	15.103074	17.823680	56.889280	32.976860	0.972593	-0.253051	0.228210	-1.000000	-1.000000	-1.000000	-1.000000	-1.000000	-1.000000	-1.000000	68.000000	0.000000	-1.000000	-1.000000	2830484.000000	1770067158.631555
-20837.745000	-13774.680000	-20145.690000	-15445.440000	-21889.980000	-16168.320000	-3341.160000	-8223.615000	23.724785	13.269253	0.354151	-55.089409	-66.703549	-32.097324	-5.411324	21.461134	17.823680	56.889280	32.976860	0.972593	-0.253051	0.228210	-1.000000	-1.000000	-1.000000	-1.000000	-1.000000	-1.000000	-1.000000	68.000000	0.000000	-1.000000	-1.000000	2830485.000000	1770067158.631707
-20841.795000	-13771.710000	-20100.600000	-15406.830000	-21867.840000	-16169.985000	-3336.705000	-8237.430000	9.934987	8.118487	2.963865	-32.292311	-33.144601	-16.438992	1.362138	16.188001	17.823680	56.889280	32.976860	0.972593	-0.253051	0.228210	-1.000000	-1.000000	-1.000000	-1.000000	-1.000000	-1.000000	-1.000000	68.000000	0.000000	-1.000000	-1.000000	2830486.000000	1770067158.631716
-20857.545000	-13761.630000	-20098.350000	-15407.190000	-21868.695000	-16185.555000	-3337.470000	-8248.455000	-7.654924	1.081572	8.283009	3.303276	11.342241	4.471244	7.434051	2.502345	17.823680	56.889280	32.976860	0.972593	-0.253051	0.228210	-1.000000	-1.000000	-1.000000	-1.000000	-1.000000	-1.000000	-1.000000	68.000000	0.000000	-1.000000	-1.000000	2830487.000000	1770067158.636186
-20884.680000	-13757.445000	-20121.255000	-15393.960000	-21843.810000	-16153.560000	-3320.595000	-8250.255000	-22.514014	-6.226173	11.630329	35.112634	49.121740	21.526543	10.576989	-11.374330	17.823680	56.889280	32.976860	0.972593	-0.253051	0.228210	-1.000000	-1.000000	-1.000000	-1.000000	-1.000000	-1.000000	-1.000000	68.000000	0.000000	-1.000000	-1.000000	2830488.000000	1770067158.636198
-20884.230000	-13776.660000	-20144.520000	-15405.705000	-21851.820000	-16146.090000	-3319.470000	-8232.030000	-29.543954	-11.813392	6.599949	47.972236	65.046574	29.059662	10.499754	-18.143841	17.823680	56.889280	32.976860	0.972593	-0.253051	0.228210	-1.000000	-1.000000	-1.000000	-1.000000	-1.000000	-1.000000	-1.000000	68.000000	0.000000	-1.000000	-1.000000	2830489.000000	1770067158.639657
-20864.880000	-13772.835000	-20134.935000	-15413.580000	-21862.080000	-16158.015000	-3342.195000	-8253.810000	-25.982318	-14.431116	-6.804534	37.279871	54.107098	26.059165	7.766495	-15.100512	17.823680	56.889280	32.976860	0.972593	-0.253051	0.228210	-1.000000	-1.000000	-1.000000	-1.000000	-1.000000	-1.000000	-1.000000	68.000000	0.000000	-1.000000	-1.000000	2830490.000000	1770067158.639668
-20843.730000	-13800.420000	-20182.095000	-15449.085000	-21890.070000	-16193.790000	-3364.785000	-8263.305000	-13.952712	-13.761248	-21.323405	10.668716	23.251500	14.129365	2.210250	-6.922118	23.866640	63.939400	28.597240	0.946775	-0.246093	0.240539	-1.000000	-1.000000	-1.000000	-1.000000	-1.000000	-1.000000	-1.000000	68.000000	0.000000	-1.000000	-1.000000	2830491.000000	1770067158.643585
-20910.240000	-13782.690000	-20179.125000	-15429.240000	-21867.120000	-16161.705000	-3335.715000	-8308.530000	0.288655	-9.469175	-29.715301	-17.738629	-12.638002	-2.505222	-5.453988	-2.213614	23.866640	63.939400	28.597240	0.946775	-0.246093	0.240539	-1.000000	-1.000000	-1.000000	-1.000000	-1.000000	-1.000000	-1.000000	68.000000	0.000000	-1.000000	-1.000000	2830492.000000	1770067158.643591
-20967.795000	-13770.090000	-20129.445000	-15378.075000	-21822.030000	-16102.935000	-3307.275000	-8331.165000	10.978890	-0.701996	-27.077222	-33.713261	-37.316184	-16.128552	-11.173391	-4.144783	23.866640	63.939400	28.597240	0.946775	-0.246093	0.240539	-1.000000	-1.000000	-1.000000	-1.000000	-1.000000	-1.000000	-1.000000	68.000000	0.000000	-1.000000	-1.000000	2830493.000000	1770067158.650765
-20916.855000	-13811.265000	-20141.595000	-15389.370000	-21837.780000	-16130.205000	-3313.800000	-8280.990000	16.735585	9.980850	-11.986283	-30.119938	-41.289875	-19.990686	-10.598337	-6.343022	23.866640	63.939400	28.597240	0.946775	-0.246093	0.240539	-1.000000	-1.000000	-1.000000	-1.000000	-1.000000	-1.000000	-1.000000	68.000000	0.000000	-1.000000	-1.000000	2830494.000000	1770067158.650775
-20812.140000	-13824.765000	-20169.495000	-15439.725000	-21898.485000	-16199.415000	-3343.185000	-8174.115000	21.206599	15.167486	8.398004	-13.260661	-28.232885	-15.382516	-4.774813	1.035365	23.866640	63.939400	28.597240	0.946775	-0.246093	0.240539	-1.000000	-1.000000	-1.000000	-1.000000	-1.000000	-1.000000	-1.000000	68.000000	0.000000	-1.000000	-1.000000	2830495.000000	1770067158.651604
-20771.415000	-13813.065000	-20173.320000	-15451.830000	-21905.505000	-16207.785000	-3352.095000	-8152.920000	27.955965	10.939403	22.408644	2.738817	-10.616182	-9.430553	0.713103	19.958652	23.866640	63.939400	28.597240	0.946775	-0.246093	0.240539	-1.000000	-1.000000	-1.000000	-1.000000	-1.000000	-1.000000	-1.000000	68.000000	0.000000	-1.000000	-1.000000	2830496.000000	1770067158.651610
-20719.485000	-13748.940000	-20145.015000	-15447.330000	-21904.155000	-16201.890000	-3358.440000	-8177.220000	34.125005	2.659522	25.153245	9.299350	2.066743	-6.092377	2.034842	38.441212	23.866640	63.939400	28.597240	0.946775	-0.246093	0.240539	-1.000000	-1.000000	-1.000000	-1.000000	-1.000000	-1.000000	-1.000000	68.000000	0.000000	-1.000000	-1.000000	2830497.000000	1770067158.657141
-20725.470000	-13730.940000	-20142.450000	-15433.965000	-21878.505000	-16179.030000	-3342.915000	-8214.345000	31.729080	-0.815459	20.266330	8.122714	8.653640	-3.330975	0.499972	39.549991	23.866640	63.939400	28.597240	0.946775	-0.246093	0.240539	-1.000000	-1.000000	-1.000000	-1.000000	-1.000000	-1.000000	-1.000000	68.000000	0.000000	-1.000000	-1.000000	2830498.000000	1770067158.657147
-20787.975000	-13745.520000	-20142.000000	-15413.220000	-21857.580000	-16157.925000	-3321.405000	-8224.470000	13.638298	2.809963	12.720301	5.887450	12.897447	2.788420	0.620452	17.756696	23.866640	63.939400	28.597240	0.946775	-0.246093	0.240539	-1.000000	-1.000000	-1.000000	-1.000000	-1.000000	-1.000000	-1.000000	68.000000	0.000000	-1.000000	-1.000000	2830499.000000	1770067158.661486
-20894.310000	-13760.550000	-20108.340000	-15390.225000	-21843.315000	-16142.805000	-3323.565000	-8279.415000	-20.027784	7.459806	5.398078	7.315912	17.268603	12.798278	4.665431	-16.415180	23.866640	63.939400	28.597240	0.946775	-0.246093	0.240539	-1.000000	-1.000000	-1.000000	-1.000000	-1.000000	-1.000000	-1.000000	68.000000	0.000000	-1.000000	-1.000000	2830500.000000	1770067158.661493
-20976.255000	-13823.280000	-20104.830000	-15388.245000	-21849.165000	-16141.905000	-3332.565000	-8310.240000	-56.457604	5.841929	-0.196510	11.069180	19.194931	20.974250	8.861709	-45.297493	-5.279960	37.997400	3.662400	0.908628	-0.234435	0.304443	-1.000000	-1.000000	-1.000000	-1.000000	-1.000000	-1.000000	-1.000000	68.137931	0.000000	-1.000000	-1.000000	2830501.000000	1770067158.663567
-21039.660000	-13885.155000	-20141.370000	-15396.930000	-21839.625000	-16137.585000	-3346.605000	-8366.490000	-75.763376	-4.740362	-5.305900	11.271260	14.164134	19.654749	7.422498	-55.427187	-5.279960	37.997400	3.662400	0.908628	-0.234435	0.304443	-1.000000	-1.000000	-1.000000	-1.000000	-1.000000	-1.000000	-1.000000	68.137931	0.000000	-1.000000	-1.000000	2830502.000000	1770067158.663578
-20908.440000	-13833.405000	-20155.095000	-15422.850000	-21867.165000	-16167.780000	-3352.455000	-8274.195000	-65.333199	-18.715618	-12.120705	4.477306	2.682061	8.192273	-0.055303	-43.870802	-5.279960	37.997400	3.662400	0.908628	-0.234435	0.304443	-1.000000	-1.000000	-1.000000	-1.000000	-1.000000	-1.000000	-1.000000	68.137931	0.000000	-1.000000	-1.000000	2830503.000000	1770067158.671342
-20856.690000	-13774.455000	-20128.905000	-15400.350000	-21852.945000	-16158.420000	-3334.185000	-8204.220000	-26.992556	-23.460045	-18.033283	-5.487074	-8.583924	-5.396704	-7.585965	-16.171422	-5.279960	37.997400	3.662400	0.908628	-0.234435	0.304443	-1.000000	-1.000000	-1.000000	-1.000000	-1.000000	-1.000000	-1.000000	68.137931	0.000000	-1.000000	-1.000000	2830504.000000	1770067158.671350
-20760.435000	-13757.265000	-20137.680000	-15407.595000	-21857.985000	-16165.575000	-3345.390000	-8178.750000	24.313540	-11.961835	-17.475909	-11.518702	-13.292901	-12.826314	-9.167002	17.688788	-5.279960	37.997400	3.662400	0.908628	-0.234435	0.304443	-1.000000	-1.000000	-1.000000	-1.000000	-1.000000	-1.000000	-1.000000	68.137931	0.000000	-1.000000	-1.000000	2830505.000000	1770067158.671739
-20793.420000	-13787.145000	-20166.930000	-15445.755000	-21889.395000	-16184.565000	-3349.350000	-8195.445000	66.227523	7.366789	-10.152774	-11.476125	-11.573857	-13.002072	-4.744282	44.847984	-5.279960	37.997400	3.662400	0.908628	-0.234435	0.304443	-1.000000	-1.000000	-1.000000	-1.000000	-1.000000	-1.000000	-1.000000	68.137931	0.000000	-1.000000	-1.000000	2830506.000000	1770067158.671746
-20823.615000	-13803.840000	-20195.415000	-15469.245000	-21905.190000	-16187.805000	-3351.015000	-8241.390000	79.094080	19.277087	-1.815479	-9.338539	-8.636141	-10.213336	1.026393	53.476143	-5.279960	37.997400	3.662400	0.908628	-0.234435	0.304443	-1.000000	-1.000000	-1.000000	-1.000000	-1.000000	-1.000000	-1.000000	68.137931	0.000000	-1.000000	-1.000000	2830507.000000	1770067158.678574
-20830.140000	-13804.515000	-20222.100000	-15495.570000	-21917.340000	-16193.205000	-3343.140000	-8217.765000	58.559228	17.202957	2.468633	-8.827018	-8.051498	-7.712793	4.124906	39.968732	-5.279960	37.997400	3.662400	0.908628	-0.234435	0.304443	-1.000000	-1.000000	-1.000000	-1.000000	-1.000000	-1.000000	-1.000000	68.137931	0.000000	-1.000000	-1.000000	2830508.000000	1770067158.678583
-20779.065000	-13810.275000	-20204.820000	-15474.060000	-21919.095000	-16202.790000	-3340.080000	-8157.015000	21.070722	6.886293	2.366294	-9.189164	-8.597610	-5.791692	3.861948	14.180539	-5.279960	37.997400	3.662400	0.908628	-0.234435	0.304443	-1.000000	-1.000000	-1.000000	-1.000000	-1.000000	-1.000000	-1.000000	68.137931	0.000000	-1.000000	-1.000000	2830509.000000	1770067158.679681
-20835.495000	-13846.905000	-20183.445000	-15448.455000	-21897.090000	-16187.490000	-3343.545000	-8205.615000	-9.667060	-2.105666	1.771814	-6.426173	-6.753398	-3.673346	1.827162	-7.761457	-5.279960	37.997400	3.662400	0.908628	-0.234435	0.304443	-1.000000	-1.000000	-1.000000	-1.000000	-1.000000	-1.000000	-1.000000	68.137931	0.000000	-1.000000	-1.000000	2830510.000000	1770067158.679687
-20929.815000	-13832.370000	-20185.065000	-15436.575000	-21892.320000	-16185.465000	-3348.855000	-8268.300000	-25.388488	-4.735633	5.098165	2.364768	-0.173295	-0.030535	-0.098993	-19.674532	-22.600060	8.911840	-12.574240	0.888120	-0.203002	0.358886	-1.000000	-1.000000	-1.000000	-1.000000	-1.000000	-1.000000	-1.000000	68.137931	0.000000	-1.000000	-1.000000	2830511.000000	1770067158.688653
-20912.355000	-13769.955000	-20149.875000	-15410.430000	-21875.040000	-16173.630000	-3340.350000	-8272.440000	-35.628904	-1.891179	12.551036	15.347432	10.361317	6.437063	-0.747992	-27.935957	-22.600060	8.911840	-12.574240	0.888120	-0.203002	0.358886	-1.000000	-1.000000	-1.000000	-1.000000	-1.000000	-1.000000	-1.000000	68.137931	0.000000	-1.000000	-1.000000	2830512.000000	1770067158.688665
-20826.315000	-13716.630000	-20116.620000	-15391.845000	-21855.690000	-16151.670000	-3318.885000	-8231.490000	-45.833124	2.880373	19.828847	26.310059	20.673995	14.534202	0.211150	-36.491950	-22.600060	8.911840	-12.574240	0.888120	-0.203002	0.358886	-1.000000	-1.000000	-1.000000	-1.000000	-1.000000	-1.000000	-1.000000	68.137931	0.000000	-1.000000	-1.000000	2830513.000000	1770067158.695154
-20801.520000	-13727.430000	-20065.320000	-15350.715000	-21819.780000	-16130.745000	-3313.530000	-8245.440000	-47.160176	6.011692	22.516723	29.179344	25.640246	20.250210	2.429329	-38.514689	-22.600060	8.911840	-12.574240	0.888120	-0.203002	0.358886	-1.000000	-1.000000	-1.000000	-1.000000	-1.000000	-1.000000	-1.000000	68.137931	0.000000	-1.000000	-1.000000	2830514.000000	1770067158.695164
-20831.760000	-13772.340000	-20075.895000	-15354.045000	-21815.865000	-16130.790000	-3317.040000	-8269.245000	-31.299299	4.486015	19.039188	22.604088	22.854813	19.793132	4.516675	-26.329798	-22.600060	8.911840	-12.574240	0.888120	-0.203002	0.358886	-1.000000	-1.000000	-1.000000	-1.000000	-1.000000	-1.000000	-1.000000	68.137931	0.000000	-1.000000	-1.000000	2830515.000000	1770067158.695175
-20884.545000	-13791.960000	-20108.205000	-15352.965000	-21799.710000	-16111.440000	-3309.705000	-8281.890000	-3.019547	-2.595070	9.248182	9.273168	13.181515	12.174445	4.369137	-2.171216	-22.600060	8.911840	-12.574240	0.888120	-0.203002	0.358886	-1.000000	-1.000000	-1.000000	-1.000000	-1.000000	-1.000000	-1.000000	68.137931	0.000000	-1.000000	-1.000000	2830516.000000	1770067158.695180
-20836.575000	-13723.560000	-20116.575000	-15375.195000	-21829.365000	-16139.925000	-3334.140000	-8255.520000	24.590450	-10.874967	-6.054492	-7.152857	-0.920419	-0.408518	0.829131	23.119268	-22.600060	8.911840	-12.574240	0.888120	-0.203002	0.358886	-1.000000	-1.000000	-1.000000	-1.000000	-1.000000	-1.000000	-1.000000	68.137931	0.000000	-1.000000	-1.000000	2830517.000000	1770067158.695866
-20810.070000	-13741.695000	-20132.460000	-15393.690000	-21852.135000	-16159.500000	-3338.865000	-8209.350000	41.953992	-12.557967	-23.082683	-23.203362	-16.489396	-14.251855	-5.257451	39.017462	-22.600060	8.911840	-12.574240	0.888120	-0.203002	0.358886	-1.000000	-1.000000	-1.000000	-1.000000	-1.000000	-1.000000	-1.000000	68.137931	0.000000	-1.000000	-1.000000	2830518.000000	1770067158.695875
-20864.700000	-13801.635000	-20157.165000	-15415.695000	-21861.450000	-16160.670000	-3328.830000	-8190.990000	46.546606	-5.736669	-35.543370	-35.166253	-29.687956	-25.196916	-10.583508	42.707041	-22.600060	8.911840	-12.574240	0.888120	-0.203002	0.358886	-1.000000	-1.000000	-1.000000	-1.000000	-1.000000	-1.000000	-1.000000	68.137931	0.000000	-1.000000	-1.000000	2830519.000000	1770067158.702625
-20902.275000	-13792.545000	-20156.040000	-15420.240000	-21870.315000	-16162.065000	-3336.840000	-8248.230000	37.555740	1.989534	-37.680202	-38.563724	-35.267896	-28.487385	-11.149391	35.743029	-22.600060	8.911840	-12.574240	0.888120	-0.203002	0.358886	-1.000000	-1.000000	-1.000000	-1.000000	-1.000000	-1.000000	-1.000000	68.137931	0.000000	-1.000000	-1.000000	2830520.000000	1770067158.702635
-20947.095000	-13821.390000	-20162.205000	-15400.080000	-21844.800000	-16144.020000	-3329.865000	-8312.355000	14.124105	2.025566	-27.865958	-30.212906	-29.202302	-21.367374	-6.354711	16.850023	-18.006800	-2.182180	-0.534100	0.897276	-0.212402	0.353942	-1.000000	-1.000000	-1.000000	-1.000000	-1.000000	-1.000000	-1.000000	68.137931	0.000000	-1.000000	-1.000000	2830521.000000	1770067158.706150
-21012.075000	-13847.490000	-20176.785000	-15405.030000	-21843.630000	-16155.855000	-3332.250000	-8336.295000	-20.108394	-6.866661	-10.648712	-11.884809	-12.772979	-6.696915	0.495639	-13.018677	-18.006800	-2.182180	-0.534100	0.897276	-0.212402	0.353942	-1.000000	-1.000000	-1.000000	-1.000000	-1.000000	-1.000000	-1.000000	68.137931	0.000000	-1.000000	-1.000000	2830522.000000	1770067158.706157
-20980.170000	-13855.455000	-20195.820000	-15436.215000	-21867.435000	-16182.720000	-3366.540000	-8346.195000	-51.826858	-17.028203	6.179611	8.809884	6.626644	7.864212	5.299933	-41.723182	-18.006800	-2.182180	-0.534100	0.897276	-0.212402	0.353942	-1.000000	-1.000000	-1.000000	-1.000000	-1.000000	-1.000000	-1.000000	68.137931	0.000000	-1.000000	-1.000000	2830523.000000	1770067158.707654
-20896.470000	-13832.145000	-20186.820000	-15449.445000	-21886.740000	-16197.120000	-3372.930000	-8292.780000	-59.899473	-16.967625	17.834989	22.967672	19.784737	15.207454	5.636405	-51.261854	-18.006800	-2.182180	-0.534100	0.897276	-0.212402	0.353942	-1.000000	-1.000000	-1.000000	-1.000000	-1.000000	-1.000000	-1.000000	68.137931	0.000000	-1.000000	-1.000000	2830524.000000	1770067158.707659
