Channel1	Channel2	Channel3	Channel4	Channel5	Channel6	Channel7	Channel8	FilteredChannel1	FilteredChannel2	FilteredChannel3	FilteredChannel4	FilteredChannel5	FilteredChannel6	FilteredChannel7	FilteredChannel8	GyroX	GyroY	GyroZ	AccX	AccY	AccZ	PPG1	PPG2	rawPPG1	rawPPG2	rawPPG3	Hr	Hrv	Battery	Trigger	PhysicalTrigger	AutoTrigger	NumMeasurements	Timestamp
-20708.055000	-13648.995000	-20387.520000	-15498.720000	-21868.785000	-16064.460000	-3324.780000	-8173.665000	-7.276131	1.743720	3.935550	3.580652	2.448403	2.167860	0.330319	-2.911859	-3.097780	7.797860	-0.442540	0.906248	-0.274413	0.323058	-1.000000	-1.000000	-1.000000	-1.000000	-1.000000	-1.000000	-1.000000	68.000000	0.000000	-1.000000	-1.000000	2841115.000000	1770067179.903755
-20684.205000	-13635.540000	-20376.495000	-15489.270000	-21859.290000	-16055.730000	-3319.155000	-8171.325000	-6.381720	-0.458798	3.244064	1.599465	0.685379	0.586854	-0.571660	-4.590009	-3.097780	7.797860	-0.442540	0.906248	-0.274413	0.323058	-1.000000	-1.000000	-1.000000	-1.000000	-1.000000	-1.000000	-1.000000	68.000000	0.000000	-1.000000	-1.000000	2841116.000000	1770067179.903768
-20700.405000	-13642.560000	-20380.230000	-15489.765000	-21859.380000	-16056.990000	-3329.955000	-8224.560000	-1.908822	-0.940477	2.424722	-0.083906	-0.805872	-0.511281	-0.778696	-5.243608	-3.097780	7.797860	-0.442540	0.906248	-0.274413	0.323058	-1.000000	-1.000000	-1.000000	-1.000000	-1.000000	-1.000000	-1.000000	68.000000	0.000000	-1.000000	-1.000000	2841117.000000	1770067179.903781
-20725.605000	-13655.070000	-20393.415000	-15503.580000	-21873.195000	-16071.390000	-3345.570000	-8268.885000	1.865292	-0.949469	0.533462	-1.597031	-2.187622	-1.449689	-0.926837	-6.764347	-3.097780	7.797860	-0.442540	0.906248	-0.274413	0.323058	-1.000000	-1.000000	-1.000000	-1.000000	-1.000000	-1.000000	-1.000000	68.000000	0.000000	-1.000000	-1.000000	2841118.000000	1770067179.903787
-20731.545000	-13683.105000	-20429.145000	-15543.180000	-21911.355000	-16105.500000	-3354.345000	-8196.930000	2.075280	-2.201601	-3.385826	-4.243500	-4.689403	-3.655185	-2.119481	-8.514672	-3.097780	7.797860	-0.442540	0.906248	-0.274413	0.323058	-1.000000	-1.000000	-1.000000	-1.000000	-1.000000	-1.000000	-1.000000	68.000000	0.000000	-1.000000	-1.000000	2841119.000000	1770067179.907493
-20701.620000	-13679.100000	-20430.180000	-15544.170000	-21912.165000	-16101.225000	-3329.775000	-8101.485000	0.434490	-4.514842	-8.583390	-8.272785	-8.512960	-7.296814	-3.562680	-4.109853	-3.097780	7.797860	-0.442540	0.906248	-0.274413	0.323058	-1.000000	-1.000000	-1.000000	-1.000000	-1.000000	-1.000000	-1.000000	68.000000	0.000000	-1.000000	-1.000000	2841120.000000	1770067179.907500
-20674.980000	-13652.820000	-20402.325000	-15521.940000	-21893.445000	-16083.765000	-3318.615000	-8105.850000	0.912584	-5.421595	-11.503000	-10.692146	-10.691593	-9.346755	-2.682026	10.012732	-4.410140	6.470240	0.106820	0.908323	-0.273986	0.324706	-1.000000	-1.000000	-1.000000	-1.000000	-1.000000	-1.000000	-1.000000	68.000000	0.000000	-1.000000	-1.000000	2841121.000000	1770067179.913590
-20699.280000	-13660.470000	-20400.930000	-15520.275000	-21892.365000	-16084.440000	-3329.595000	-8143.785000	4.698548	-2.596761	-8.229464	-7.643508	-7.491681	-6.309564	1.299217	25.217149	-4.410140	6.470240	0.106820	0.908323	-0.273986	0.324706	-1.000000	-1.000000	-1.000000	-1.000000	-1.000000	-1.000000	-1.000000	68.000000	0.000000	-1.000000	-1.000000	2841122.000000	1770067179.913601
-20703.690000	-13667.760000	-20411.640000	-15522.570000	-21890.430000	-16081.020000	-3331.170000	-8149.860000	8.341758	2.643548	0.278175	0.205256	0.456720	0.945643	5.432558	27.954940	-4.410140	6.470240	0.106820	0.908323	-0.273986	0.324706	-1.000000	-1.000000	-1.000000	-1.000000	-1.000000	-1.000000	-1.000000	68.000000	0.000000	-1.000000	-1.000000	2841123.000000	1770067179.915665
-20696.760000	-13663.170000	-20413.170000	-15520.320000	-21888.720000	-16081.020000	-3332.520000	-8158.905000	7.423121	6.223914	8.141982	7.763616	8.272640	7.719730	6.167621	13.912266	-4.410140	6.470240	0.106820	0.908323	-0.273986	0.324706	-1.000000	-1.000000	-1.000000	-1.000000	-1.000000	-1.000000	-1.000000	68.000000	0.000000	-1.000000	-1.000000	2841124.000000	1770067179.915671
-20698.065000	-13656.780000	-20405.205000	-15516.180000	-21885.345000	-16078.905000	-3333.150000	-8176.770000	1.060324	5.751118	10.570046	10.783431	11.644367	10.147496	2.972067	-8.919303	-4.410140	6.470240	0.106820	0.908323	-0.273986	0.324706	-1.000000	-1.000000	-1.000000	-1.000000	-1.000000	-1.000000	-1.000000	68.000000	0.000000	-1.000000	-1.000000	2841125.000000	1770067179.920036
-20701.800000	-13660.740000	-20407.770000	-15520.950000	-21889.845000	-16082.730000	-3334.815000	-8177.940000	-7.095764	2.426849	7.707223	8.828017	9.774077	7.827603	-1.600048	-26.986415	-4.410140	6.470240	0.106820	0.908323	-0.273986	0.324706	-1.000000	-1.000000	-1.000000	-1.000000	-1.000000	-1.000000	-1.000000	68.000000	0.000000	-1.000000	-1.000000	2841126.000000	1770067179.920043
-20702.880000	-13662.540000	-20408.895000	-15521.265000	-21889.755000	-16083.315000	-3332.115000	-8160.750000	-11.529670	-0.726531	3.056465	4.427486	4.993135	3.258908	-4.280624	-30.290016	-4.410140	6.470240	0.106820	0.908323	-0.273986	0.324706	-1.000000	-1.000000	-1.000000	-1.000000	-1.000000	-1.000000	-1.000000	68.000000	0.000000	-1.000000	-1.000000	2841127.000000	1770067179.926434
-20705.670000	-13665.465000	-20412.675000	-15524.550000	-21892.545000	-16087.005000	-3330.630000	-8140.545000	-9.602144	-1.478471	0.032661	0.855248	0.732240	-0.364993	-3.719180	-19.649192	-4.410140	6.470240	0.106820	0.908323	-0.273986	0.324706	-1.000000	-1.000000	-1.000000	-1.000000	-1.000000	-1.000000	-1.000000	68.000000	0.000000	-1.000000	-1.000000	2841128.000000	1770067179.926445
-20697.030000	-13653.720000	-20402.685000	-15515.595000	-21883.320000	-16077.330000	-3322.800000	-8140.725000	-3.832262	-0.057239	-0.497490	-0.438085	-1.178156	-1.663635	-1.357144	-5.002932	-4.410140	6.470240	0.106820	0.908323	-0.273986	0.324706	-1.000000	-1.000000	-1.000000	-1.000000	-1.000000	-1.000000	-1.000000	68.000000	0.000000	-1.000000	-1.000000	2841129.000000	1770067179.927700
-20708.955000	-13661.820000	-20407.455000	-15519.555000	-21886.875000	-16080.120000	-3327.255000	-8155.215000	1.282577	1.239261	-0.325513	-0.722654	-1.623092	-1.643948	0.492780	5.035065	-4.410140	6.470240	0.106820	0.908323	-0.273986	0.324706	-1.000000	-1.000000	-1.000000	-1.000000	-1.000000	-1.000000	-1.000000	68.000000	0.000000	-1.000000	-1.000000	2841130.000000	1770067179.927706
-20725.605000	-13680.315000	-20422.575000	-15528.105000	-21888.945000	-16079.760000	-3329.820000	-8165.745000	3.571585	0.375473	-1.542744	-1.990367	-2.435644	-1.898180	0.917274	9.293765	-3.006220	6.638100	0.076300	0.908506	-0.274291	0.323119	-1.000000	-1.000000	-1.000000	-1.000000	-1.000000	-1.000000	-1.000000	68.000000	0.000000	-1.000000	-1.000000	2841131.000000	1770067179.934384
-20714.625000	-13677.480000	-20423.385000	-15524.505000	-21882.330000	-16071.975000	-3326.445000	-8160.300000	3.592216	-2.509652	-4.209316	-4.518134	-4.091443	-2.826941	0.426869	10.371513	-3.006220	6.638100	0.076300	0.908506	-0.274291	0.323119	-1.000000	-1.000000	-1.000000	-1.000000	-1.000000	-1.000000	-1.000000	68.000000	0.000000	-1.000000	-1.000000	2841132.000000	1770067179.934394
-20702.790000	-13668.615000	-20405.430000	-15512.895000	-21877.695000	-16070.175000	-3324.870000	-8152.830000	2.768593	-5.274465	-6.217132	-6.497009	-5.381167	-3.558371	-0.128952	10.229296	-3.006220	6.638100	0.076300	0.908506	-0.274291	0.323119	-1.000000	-1.000000	-1.000000	-1.000000	-1.000000	-1.000000	-1.000000	68.000000	0.000000	-1.000000	-1.000000	2841133.000000	1770067179.935654
-20665.530000	-13634.280000	-20382.300000	-15500.655000	-21867.975000	-16061.805000	-3317.265000	-8133.030000	2.779365	-5.181027	-5.073900	-5.740193	-4.834426	-3.086221	-0.096538	10.091807	-3.006220	6.638100	0.076300	0.908506	-0.274291	0.323119	-1.000000	-1.000000	-1.000000	-1.000000	-1.000000	-1.000000	-1.000000	68.000000	0.000000	-1.000000	-1.000000	2841134.000000	1770067179.935665
-20685.105000	-13642.380000	-20381.085000	-15497.190000	-21865.455000	-16059.375000	-3317.400000	-8143.920000	4.614036	-0.956436	-0.246064	-1.717724	-2.012839	-1.104252	0.752825	10.108635	-3.006220	6.638100	0.076300	0.908506	-0.274291	0.323119	-1.000000	-1.000000	-1.000000	-1.000000	-1.000000	-1.000000	-1.000000	68.000000	0.000000	-1.000000	-1.000000	2841135.000000	1770067179.944345
-20705.760000	-13666.455000	-20406.330000	-15519.870000	-21889.440000	-16081.470000	-3332.430000	-8164.710000	6.237580	4.942052	5.498602	3.516429	1.795255	1.506995	1.650623	7.474516	-3.006220	6.638100	0.076300	0.908506	-0.274291	0.323119	-1.000000	-1.000000	-1.000000	-1.000000	-1.000000	-1.000000	-1.000000	68.000000	0.000000	-1.000000	-1.000000	2841136.000000	1770067179.944355
-20700.675000	-13670.730000	-20416.005000	-15530.445000	-21900.015000	-16089.660000	-3334.320000	-8165.790000	4.162333	7.652806	7.695700	6.309395	3.882979	2.710862	1.051129	-1.057349	-3.006220	6.638100	0.076300	0.908506	-0.274291	0.323119	-1.000000	-1.000000	-1.000000	-1.000000	-1.000000	-1.000000	-1.000000	68.000000	0.000000	-1.000000	-1.000000	2841137.000000	1770067179.944366
-20696.490000	-13658.490000	-20403.450000	-15518.790000	-21888.405000	-16077.555000	-3327.570000	-8160.975000	-1.706485	4.932442	4.401345	4.615342	2.676586	1.358294	-1.340921	-12.842960	-3.006220	6.638100	0.076300	0.908506	-0.274291	0.323119	-1.000000	-1.000000	-1.000000	-1.000000	-1.000000	-1.000000	-1.000000	68.000000	0.000000	-1.000000	-1.000000	2841138.000000	1770067179.944371
-20727.315000	-13683.780000	-20407.680000	-15518.070000	-21885.255000	-16075.305000	-3332.700000	-8180.865000	-7.711859	-0.845918	-1.635821	0.271563	-0.198888	-1.040309	-3.597037	-19.844495	-3.006220	6.638100	0.076300	0.908506	-0.274291	0.323119	-1.000000	-1.000000	-1.000000	-1.000000	-1.000000	-1.000000	-1.000000	68.000000	0.000000	-1.000000	-1.000000	2841139.000000	1770067179.947576
-20730.780000	-13693.905000	-20408.850000	-15517.395000	-21884.175000	-16074.135000	-3337.920000	-8196.165000	-10.427442	-5.820988	-5.802901	-3.080229	-1.912624	-2.162971	-3.792957	-17.110192	-3.006220	6.638100	0.076300	0.908506	-0.274291	0.323119	-1.000000	-1.000000	-1.000000	-1.000000	-1.000000	-1.000000	-1.000000	68.000000	0.000000	-1.000000	-1.000000	2841140.000000	1770067179.947584
-20688.795000	-13654.260000	-20403.990000	-15520.095000	-21888.945000	-16079.445000	-3337.875000	-8177.805000	-8.553117	-7.249735	-5.828256	-3.693239	-1.601581	-1.550271	-2.011638	-6.860761	-3.723440	3.982860	-2.517900	0.906065	-0.274902	0.324462	-1.000000	-1.000000	-1.000000	-1.000000	-1.000000	-1.000000	-1.000000	68.000000	0.000000	-1.000000	-1.000000	2841141.000000	1770067179.951586
-20697.795000	-13645.260000	-20406.465000	-15523.515000	-21891.420000	-16080.975000	-3331.620000	-8153.730000	-2.829213	-4.121114	-3.062839	-2.564455	-0.488924	-0.373992	0.506269	5.615983	-3.723440	3.982860	-2.517900	0.906065	-0.274902	0.324462	-1.000000	-1.000000	-1.000000	-1.000000	-1.000000	-1.000000	-1.000000	68.000000	0.000000	-1.000000	-1.000000	2841142.000000	1770067179.951594
-20697.480000	-13648.455000	-20398.680000	-15513.705000	-21880.125000	-16069.635000	-3322.620000	-8143.290000	3.472625	1.462655	-0.359451	-1.301325	0.268659	0.481538	2.813426	15.706739	-3.723440	3.982860	-2.517900	0.906065	-0.274902	0.324462	-1.000000	-1.000000	-1.000000	-1.000000	-1.000000	-1.000000	-1.000000	68.000000	0.000000	-1.000000	-1.000000	2841143.000000	1770067179.956779
-20700.090000	-13655.700000	-20403.675000	-15517.890000	-21884.580000	-16073.595000	-3327.300000	-8158.320000	7.053336	5.589989	1.095930	-0.097962	0.907957	1.304351	4.412520	19.768896	-3.723440	3.982860	-2.517900	0.906065	-0.274902	0.324462	-1.000000	-1.000000	-1.000000	-1.000000	-1.000000	-1.000000	-1.000000	68.000000	0.000000	-1.000000	-1.000000	2841144.000000	1770067179.956790
-20688.840000	-13652.415000	-20399.355000	-15513.165000	-21880.305000	-16070.265000	-3326.625000	-8155.440000	7.707377	6.515417	2.316437	1.832246	2.268486	2.707078	4.871772	15.865226	-3.723440	3.982860	-2.517900	0.906065	-0.274902	0.324462	-1.000000	-1.000000	-1.000000	-1.000000	-1.000000	-1.000000	-1.000000	68.000000	0.000000	-1.000000	-1.000000	2841145.000000	1770067179.959512
-20686.815000	-13650.165000	-20399.490000	-15513.840000	-21880.080000	-16069.050000	-3325.860000	-8144.505000	6.544189	4.888517	3.985035	4.318507	4.119673	4.270316	3.793902	5.729345	-3.723440	3.982860	-2.517900	0.906065	-0.274902	0.324462	-1.000000	-1.000000	-1.000000	-1.000000	-1.000000	-1.000000	-1.000000	68.000000	0.000000	-1.000000	-1.000000	2841146.000000	1770067179.959520
-20686.950000	-13647.105000	-20396.925000	-15511.005000	-21876.120000	-16064.145000	-3324.240000	-8140.455000	4.083634	1.800844	4.919855	5.580692	4.781599	4.473852	1.272629	-5.230839	-3.723440	3.982860	-2.517900	0.906065	-0.274902	0.324462	-1.000000	-1.000000	-1.000000	-1.000000	-1.000000	-1.000000	-1.000000	68.000000	0.000000	-1.000000	-1.000000	2841147.000000	1770067179.963444
-20709.990000	-13655.385000	-20395.755000	-15510.555000	-21875.895000	-16063.560000	-3326.490000	-8162.730000	1.033716	-1.217705	3.903920	4.161039	2.935141	2.381175	-1.671043	-11.629882	-3.723440	3.982860	-2.517900	0.906065	-0.274902	0.324462	-1.000000	-1.000000	-1.000000	-1.000000	-1.000000	-1.000000	-1.000000	68.000000	0.000000	-1.000000	-1.000000	2841148.000000	1770067179.963450
-20735.685000	-13667.310000	-20391.660000	-15517.080000	-21882.690000	-16067.295000	-3331.215000	-8197.650000	-2.564312	-3.121287	1.413213	0.566699	-0.869492	-1.238630	-3.719550	-12.492668	-3.723440	3.982860	-2.517900	0.906065	-0.274902	0.324462	-1.000000	-1.000000	-1.000000	-1.000000	-1.000000	-1.000000	-1.000000	68.000000	0.000000	-1.000000	-1.000000	2841149.000000	1770067179.968934
-20702.835000	-13652.460000	-20379.870000	-15514.830000	-21883.320000	-16068.780000	-3328.605000	-8177.895000	-7.149612	-4.666470	-1.217364	-3.431868	-4.787754	-4.624641	-4.307596	-10.684650	-3.723440	3.982860	-2.517900	0.906065	-0.274902	0.324462	-1.000000	-1.000000	-1.000000	-1.000000	-1.000000	-1.000000	-1.000000	68.000000	0.000000	-1.000000	-1.000000	2841150.000000	1770067179.968944
-20689.380000	-13658.445000	-20398.050000	-15517.575000	-21883.410000	-16070.715000	-3329.235000	-8164.080000	-10.291683	-6.372461	-3.249861	-6.041425	-6.947169	-6.278132	-3.705185	-8.030614	-4.471180	2.685760	-2.578940	0.905698	-0.273071	0.324279	-1.000000	-1.000000	-1.000000	-1.000000	-1.000000	-1.000000	-1.000000	68.000000	0.000000	-1.000000	-1.000000	2841151.000000	1770067179.971556
-20701.980000	-13672.620000	-20417.265000	-15523.515000	-21889.890000	-16077.645000	-3332.700000	-8161.020000	-8.422873	-7.034249	-5.068088	-6.387993	-6.555623	-5.848995	-2.533823	-3.893454	-4.471180	2.685760	-2.578940	0.905698	-0.273071	0.324279	-1.000000	-1.000000	-1.000000	-1.000000	-1.000000	-1.000000	-1.000000	68.000000	0.000000	-1.000000	-1.000000	2841152.000000	1770067179.971567
-20701.350000	-13649.130000	-20405.430000	-15517.080000	-21889.080000	-16078.815000	-3333.870000	-8164.395000	-2.051443	-4.946880	-6.523366	-4.517545	-3.990483	-3.813632	-1.170136	1.915487	-4.471180	2.685760	-2.578940	0.905698	-0.273071	0.324279	-1.000000	-1.000000	-1.000000	-1.000000	-1.000000	-1.000000	-1.000000	68.000000	0.000000	-1.000000	-1.000000	2841153.000000	1770067179.975537
-20700.540000	-13638.465000	-20399.400000	-15508.755000	-21881.205000	-16073.505000	-3334.680000	-8197.515000	4.704377	0.565464	-5.750719	-0.809074	-0.055817	-0.692854	0.341728	6.964568	-4.471180	2.685760	-2.578940	0.905698	-0.273071	0.324279	-1.000000	-1.000000	-1.000000	-1.000000	-1.000000	-1.000000	-1.000000	68.000000	0.000000	-1.000000	-1.000000	2841154.000000	1770067179.975545
-20697.660000	-13637.430000	-20389.770000	-15505.065000	-21873.375000	-16063.695000	-3332.340000	-8210.790000	8.186750	7.440045	-1.712107	3.551992	4.059149	2.771764	1.746440	7.581517	-4.471180	2.685760	-2.578940	0.905698	-0.273071	0.324279	-1.000000	-1.000000	-1.000000	-1.000000	-1.000000	-1.000000	-1.000000	68.000000	0.000000	-1.000000	-1.000000	2841155.000000	1770067179.979547
-20707.155000	-13656.690000	-20405.205000	-15520.590000	-21887.010000	-16074.270000	-3336.165000	-8173.440000	7.677076	11.467591	3.656022	6.280378	6.554459	5.257434	2.599945	3.972530	-4.471180	2.685760	-2.578940	0.905698	-0.273071	0.324279	-1.000000	-1.000000	-1.000000	-1.000000	-1.000000	-1.000000	-1.000000	68.000000	0.000000	-1.000000	-1.000000	2841156.000000	1770067179.979553
-20687.715000	-13660.605000	-20416.455000	-15529.410000	-21896.370000	-16080.615000	-3326.130000	-8111.295000	5.296597	9.937684	6.829405	5.434370	5.799609	5.336748	2.842955	2.350090	-4.471180	2.685760	-2.578940	0.905698	-0.273071	0.324279	-1.000000	-1.000000	-1.000000	-1.000000	-1.000000	-1.000000	-1.000000	68.000000	0.000000	-1.000000	-1.000000	2841157.000000	1770067179.984508
-20682.045000	-13654.170000	-20411.415000	-15519.780000	-21887.820000	-16073.820000	-3321.180000	-8116.245000	3.425647	3.815435	5.728944	1.560108	2.175743	2.975876	2.893636	7.410380	-4.471180	2.685760	-2.578940	0.905698	-0.273071	0.324279	-1.000000	-1.000000	-1.000000	-1.000000	-1.000000	-1.000000	-1.000000	68.000000	0.000000	-1.000000	-1.000000	2841158.000000	1770067179.984516
-20712.645000	-13659.480000	-20408.400000	-15518.880000	-21887.055000	-16074.675000	-3331.755000	-8167.815000	1.374230	-3.622188	1.629981	-2.376448	-1.652539	0.023988	2.683242	13.550156	-4.471180	2.685760	-2.578940	0.905698	-0.273071	0.324279	-1.000000	-1.000000	-1.000000	-1.000000	-1.000000	-1.000000	-1.000000	68.000000	0.000000	-1.000000	-1.000000	2841159.000000	1770067179.988779
-20732.940000	-13667.715000	-20414.790000	-15526.170000	-21891.870000	-16078.995000	-3339.540000	-8195.310000	-3.424207	-9.014767	-2.037618	-3.937373	-3.399465	-1.744553	1.266340	10.022870	-4.471180	2.685760	-2.578940	0.905698	-0.273071	0.324279	-1.000000	-1.000000	-1.000000	-1.000000	-1.000000	-1.000000	-1.000000	68.000000	0.000000	-1.000000	-1.000000	2841160.000000	1770067179.988789
-20722.005000	-13675.320000	-20423.745000	-15538.635000	-21901.635000	-16086.195000	-3338.955000	-8170.020000	-9.842444	-10.234189	-2.867819	-3.177783	-2.978041	-2.048228	-1.488365	-4.558951	-3.540320	4.272800	-1.770160	0.907224	-0.274535	0.321471	-1.000000	-1.000000	-1.000000	-1.000000	-1.000000	-1.000000	-1.000000	68.000000	0.000000	-1.000000	-1.000000	2841161.000000	1770067179.991557
-20712.690000	-13668.660000	-20410.830000	-15522.255000	-21884.940000	-16069.095000	-3317.130000	-8126.550000	-12.631652	-7.420663	-1.191592	-1.446260	-1.389259	-1.274308	-3.692993	-18.761318	-3.540320	4.272800	-1.770160	0.907224	-0.274535	0.321471	-1.000000	-1.000000	-1.000000	-1.000000	-1.000000	-1.000000	-1.000000	68.000000	0.000000	-1.000000	-1.000000	2841162.000000	1770067179.991568
-20728.125000	-13668.120000	-20399.715000	-15501.465000	-21869.955000	-16056.405000	-3314.295000	-8140.365000	-8.823459	-2.614414	1.228432	0.637765	0.710558	0.322548	-3.214308	-20.601488	-3.540320	4.272800	-1.770160	0.907224	-0.274535	0.321471	-1.000000	-1.000000	-1.000000	-1.000000	-1.000000	-1.000000	-1.000000	68.000000	0.000000	-1.000000	-1.000000	2841163.000000	1770067179.995520
-20712.240000	-13658.445000	-20404.710000	-15512.670000	-21879.495000	-16063.785000	-3322.395000	-8152.650000	-0.693602	2.297281	2.908410	2.939535	2.658613	2.005425	-0.427207	-9.902909	-3.540320	4.272800	-1.770160	0.907224	-0.274535	0.321471	-1.000000	-1.000000	-1.000000	-1.000000	-1.000000	-1.000000	-1.000000	68.000000	0.000000	-1.000000	-1.000000	2841164.000000	1770067179.995526
-20678.040000	-13641.435000	-20403.135000	-15517.125000	-21884.445000	-16068.150000	-3324.915000	-8146.980000	8.099918	6.815079	3.167775	4.458572	3.328777	2.456526	2.020643	3.144718	-3.540320	4.272800	-1.770160	0.907224	-0.274535	0.321471	-1.000000	-1.000000	-1.000000	-1.000000	-1.000000	-1.000000	-1.000000	68.000000	0.000000	-1.000000	-1.000000	2841165.000000	1770067180.001575
-20694.105000	-13653.000000	-20399.670000	-15509.160000	-21876.615000	-16062.120000	-3321.000000	-8148.690000	14.487300	10.295561	2.235350	4.131660	2.293386	1.227102	2.128808	9.039778	-3.540320	4.272800	-1.770160	0.907224	-0.274535	0.321471	-1.000000	-1.000000	-1.000000	-1.000000	-1.000000	-1.000000	-1.000000	68.000000	0.000000	-1.000000	-1.000000	2841166.000000	1770067180.001584
-20707.605000	-13654.440000	-20392.110000	-15500.475000	-21867.930000	-16055.865000	-3316.455000	-8147.835000	14.828675	10.367431	0.661873	2.173071	0.449794	-0.685601	0.282168	6.549710	-3.540320	4.272800	-1.770160	0.907224	-0.274535	0.321471	-1.000000	-1.000000	-1.000000	-1.000000	-1.000000	-1.000000	-1.000000	68.000000	0.000000	-1.000000	-1.000000	2841167.000000	1770067180.005593
-20709.135000	-13653.945000	-20389.005000	-15498.270000	-21867.930000	-16056.000000	-3315.195000	-8141.715000	8.009249	5.654628	-1.016472	-0.298969	-1.060972	-1.986675	-1.521783	1.580226	-3.540320	4.272800	-1.770160	0.907224	-0.274535	0.321471	-1.000000	-1.000000	-1.000000	-1.000000	-1.000000	-1.000000	-1.000000	68.000000	0.000000	-1.000000	-1.000000	2841168.000000	1770067180.005605
-20654.280000	-13629.015000	-20385.450000	-15499.485000	-21868.920000	-16055.820000	-3312.045000	-8130.240000	-1.064475	-1.053757	-1.949809	-2.098973	-1.701110	-2.067023	-1.642750	0.180672	-3.540320	4.272800	-1.770160	0.907224	-0.274535	0.321471	-1.000000	-1.000000	-1.000000	-1.000000	-1.000000	-1.000000	-1.000000	68.000000	0.000000	-1.000000	-1.000000	2841169.000000	1770067180.009058
-20655.720000	-13635.315000	-20399.220000	-15511.365000	-21876.795000	-16062.030000	-3314.745000	-8137.350000	-5.861162	-5.389405	-1.855581	-2.829345	-1.661823	-1.256683	-0.309277	2.395288	-3.540320	4.272800	-1.770160	0.907224	-0.274535	0.321471	-1.000000	-1.000000	-1.000000	-1.000000	-1.000000	-1.000000	-1.000000	68.000000	0.000000	-1.000000	-1.000000	2841170.000000	1770067180.009068
-20709.135000	-13671.135000	-20424.150000	-15529.455000	-21893.310000	-16079.265000	-3328.380000	-8170.830000	-5.992326	-6.677258	-2.291767	-3.672583	-2.122368	-1.005599	0.481358	3.226402	-3.204600	5.463080	-1.297100	0.909116	-0.274780	0.321105	-1.000000	-1.000000	-1.000000	-1.000000	-1.000000	-1.000000	-1.000000	68.000000	0.000000	-1.000000	-1.000000	2841171.000000	1770067180.012862
-20719.530000	-13670.460000	-20416.770000	-15524.685000	-21887.505000	-16075.575000	-3330.270000	-8170.605000	-6.393771	-7.525756	-4.676228	-5.753222	-4.001122	-2.541935	-0.784241	-0.321492	-3.204600	5.463080	-1.297100	0.909116	-0.274780	0.321105	-1.000000	-1.000000	-1.000000	-1.000000	-1.000000	-1.000000	-1.000000	68.000000	0.000000	-1.000000	-1.000000	2841172.000000	1770067180.012870
-20719.035000	-13658.625000	-20394.315000	-15508.170000	-21877.245000	-16066.800000	-3330.405000	-8172.360000	-9.344954	-8.486348	-6.807603	-7.100594	-5.521596	-4.369575	-2.932849	-5.467150	-3.204600	5.463080	-1.297100	0.909116	-0.274780	0.321105	-1.000000	-1.000000	-1.000000	-1.000000	-1.000000	-1.000000	-1.000000	68.000000	0.000000	-1.000000	-1.000000	2841173.000000	1770067180.015666
-20707.605000	-13649.220000	-20388.285000	-15500.340000	-21875.400000	-16065.540000	-3326.355000	-8162.100000	-11.988040	-7.153332	-4.778157	-4.302689	-3.727915	-3.501799	-3.453164	-7.777162	-3.204600	5.463080	-1.297100	0.909116	-0.274780	0.321105	-1.000000	-1.000000	-1.000000	-1.000000	-1.000000	-1.000000	-1.000000	68.000000	0.000000	-1.000000	-1.000000	2841174.000000	1770067180.015684
-20724.615000	-13659.030000	-20396.745000	-15506.595000	-21877.965000	-16064.595000	-3323.340000	-8154.180000	-10.449590	-2.319663	1.338288	2.252167	1.161825	0.439480	-1.453091	-5.462542	-3.204600	5.463080	-1.297100	0.909116	-0.274780	0.321105	-1.000000	-1.000000	-1.000000	-1.000000	-1.000000	-1.000000	-1.000000	68.000000	0.000000	-1.000000	-1.000000	2841175.000000	1770067180.019535
-20774.070000	-13698.810000	-20418.525000	-15524.550000	-21886.515000	-16068.915000	-3330.315000	-8164.980000	-4.327532	3.432017	6.764742	7.781308	5.566709	4.700166	1.731999	0.333949	-3.204600	5.463080	-1.297100	0.909116	-0.274780	0.321105	-1.000000	-1.000000	-1.000000	-1.000000	-1.000000	-1.000000	-1.000000	68.000000	0.000000	-1.000000	-1.000000	2841176.000000	1770067180.019547
-20729.565000	-13687.875000	-20413.485000	-15522.705000	-21884.490000	-16069.770000	-3332.655000	-8163.360000	3.130562	6.067109	7.325463	8.233451	6.550597	6.506796	4.010428	6.333024	-3.204600	5.463080	-1.297100	0.909116	-0.274780	0.321105	-1.000000	-1.000000	-1.000000	-1.000000	-1.000000	-1.000000	-1.000000	68.000000	0.000000	-1.000000	-1.000000	2841177.000000	1770067180.024684
-20739.645000	-13658.715000	-20383.020000	-15494.220000	-21864.735000	-16053.660000	-3319.065000	-8161.155000	8.770583	5.061362	4.062693	4.665551	4.671974	5.522073	4.380830	9.045880	-3.204600	5.463080	-1.297100	0.909116	-0.274780	0.321105	-1.000000	-1.000000	-1.000000	-1.000000	-1.000000	-1.000000	-1.000000	68.000000	0.000000	-1.000000	-1.000000	2841178.000000	1770067180.024694
-20760.030000	-13679.280000	-20405.655000	-15514.515000	-21883.365000	-16068.015000	-3327.345000	-8183.340000	11.062192	3.545156	1.225184	1.258706	2.414438	3.284899	3.377681	7.116060	-3.204600	5.463080	-1.297100	0.909116	-0.274780	0.321105	-1.000000	-1.000000	-1.000000	-1.000000	-1.000000	-1.000000	-1.000000	68.000000	0.000000	-1.000000	-1.000000	2841179.000000	1770067180.027493
-20707.065000	-13667.580000	-20405.520000	-15510.690000	-21882.420000	-16069.680000	-3334.005000	-8191.980000	11.050954	3.744627	0.591279	-0.113167	0.747830	0.861895	1.743566	2.060327	-3.204600	5.463080	-1.297100	0.909116	-0.274780	0.321105	-1.000000	-1.000000	-1.000000	-1.000000	-1.000000	-1.000000	-1.000000	68.000000	0.000000	-1.000000	-1.000000	2841180.000000	1770067180.027500
-20711.925000	-13656.015000	-20393.505000	-15497.280000	-21865.995000	-16056.270000	-3333.285000	-8200.035000	11.609662	5.185198	0.711705	-0.417741	-0.673426	-1.410655	-0.129113	-3.017103	-2.227960	8.560860	0.427280	0.910703	-0.274047	0.320068	-1.000000	-1.000000	-1.000000	-1.000000	-1.000000	-1.000000	-1.000000	68.000000	0.000000	-1.000000	-1.000000	2841181.000000	1770067180.031636
-20663.910000	-13630.140000	-20394.315000	-15509.340000	-21879.315000	-16066.620000	-3333.060000	-8172.405000	12.572084	6.115639	0.026832	-0.831888	-1.790425	-2.999577	-1.702642	-5.529991	-2.227960	8.560860	0.427280	0.910703	-0.274047	0.320068	-1.000000	-1.000000	-1.000000	-1.000000	-1.000000	-1.000000	-1.000000	68.000000	0.000000	-1.000000	-1.000000	2841182.000000	1770067180.031644
-20646.990000	-13594.410000	-20370.870000	-15492.915000	-21865.680000	-16053.120000	-3316.545000	-8159.265000	11.180472	5.605095	-1.444668	-1.901942	-2.496288	-3.568539	-2.330335	-4.356865	-2.227960	8.560860	0.427280	0.910703	-0.274047	0.320068	-1.000000	-1.000000	-1.000000	-1.000000	-1.000000	-1.000000	-1.000000	68.000000	0.000000	-1.000000	-1.000000	2841183.000000	1770067180.035671
-20675.115000	-13627.710000	-20393.280000	-15511.500000	-21879.675000	-16063.155000	-3317.985000	-8141.805000	6.214657	3.933340	-2.418388	-3.120274	-2.755817	-3.149284	-1.647599	-0.113666	-2.227960	8.560860	0.427280	0.910703	-0.274047	0.320068	-1.000000	-1.000000	-1.000000	-1.000000	-1.000000	-1.000000	-1.000000	68.000000	0.000000	-1.000000	-1.000000	2841184.000000	1770067180.035754
-20700.990000	-13655.565000	-20409.165000	-15526.395000	-21893.040000	-16075.620000	-3329.190000	-8141.670000	-2.194364	0.500317	-2.450948	-3.682464	-2.676890	-2.221508	-0.205476	4.922216	-2.227960	8.560860	0.427280	0.910703	-0.274047	0.320068	-1.000000	-1.000000	-1.000000	-1.000000	-1.000000	-1.000000	-1.000000	68.000000	0.000000	-1.000000	-1.000000	2841185.000000	1770067180.039567
-20733.210000	-13666.815000	-20407.005000	-15522.390000	-21888.450000	-16071.930000	-3328.875000	-8155.035000	-13.656963	-5.970766	-2.645063	-3.652796	-2.671961	-1.584075	0.577502	7.438217	-2.227960	8.560860	0.427280	0.910703	-0.274047	0.320068	-1.000000	-1.000000	-1.000000	-1.000000	-1.000000	-1.000000	-1.000000	68.000000	0.000000	-1.000000	-1.000000	2841186.000000	1770067180.039575
-20690.145000	-13663.305000	-20409.345000	-15524.460000	-21890.565000	-16073.685000	-3331.080000	-8150.715000	-24.576758	-14.021714	-3.513614	-3.188968	-2.568472	-1.316045	-0.153702	5.105207	-2.227960	8.560860	0.427280	0.910703	-0.274047	0.320068	-1.000000	-1.000000	-1.000000	-1.000000	-1.000000	-1.000000	-1.000000	68.000000	0.000000	-1.000000	-1.000000	2841187.000000	1770067180.043559
-20644.020000	-13645.755000	-20415.645000	-15530.940000	-21898.395000	-16081.785000	-3337.020000	-8142.975000	-26.525390	-18.200763	-3.765243	-1.831710	-1.557515	-0.704218	-1.688210	-0.384944	-2.227960	8.560860	0.427280	0.910703	-0.274047	0.320068	-1.000000	-1.000000	-1.000000	-1.000000	-1.000000	-1.000000	-1.000000	68.000000	0.000000	-1.000000	-1.000000	2841188.000000	1770067180.043565
-20657.745000	-13635.045000	-20400.975000	-15514.020000	-21882.195000	-16066.170000	-3326.130000	-8146.890000	-15.119934	-13.735397	-1.890491	0.732357	0.657358	0.741312	-2.345789	-4.654559	-2.227960	8.560860	0.427280	0.910703	-0.274047	0.320068	-1.000000	-1.000000	-1.000000	-1.000000	-1.000000	-1.000000	-1.000000	68.000000	0.000000	-1.000000	-1.000000	2841189.000000	1770067180.050849
-20709.315000	-13648.950000	-20395.755000	-15504.165000	-21872.115000	-16056.405000	-3321.855000	-8157.870000	1.707892	-2.610184	1.774779	3.955810	3.461727	2.843196	-0.992938	-5.828098	-2.227960	8.560860	0.427280	0.910703	-0.274047	0.320068	-1.000000	-1.000000	-1.000000	-1.000000	-1.000000	-1.000000	-1.000000	68.000000	0.000000	-1.000000	-1.000000	2841190.000000	1770067180.050860
-20736.180000	-13661.730000	-20398.590000	-15504.975000	-21872.430000	-16058.520000	-3323.610000	-8152.065000	10.787796	7.370588	5.043323	6.530098	5.754151	4.771356	1.602277	-5.664771	-2.472120	10.620960	2.289000	0.911436	-0.272643	0.318359	-1.000000	-1.000000	-1.000000	-1.000000	-1.000000	-1.000000	-1.000000	68.000000	0.000000	-1.000000	-1.000000	2841191.000000	1770067180.051526
-20731.140000	-13654.170000	-20398.095000	-15507.090000	-21872.520000	-16057.440000	-3321.405000	-8151.030000	7.581438	10.308187	5.750009	6.884856	6.232302	5.174479	3.214074	-5.881316	-2.472120	10.620960	2.289000	0.911436	-0.272643	0.318359	-1.000000	-1.000000	-1.000000	-1.000000	-1.000000	-1.000000	-1.000000	68.000000	0.000000	-1.000000	-1.000000	2841192.000000	1770067180.051537
-20688.255000	-13637.925000	-20393.055000	-15507.270000	-21874.005000	-16058.385000	-3320.595000	-8150.490000	0.643188	8.098829	4.108683	4.675104	4.389362	3.439393	2.642701	-5.931662	-2.472120	10.620960	2.289000	0.911436	-0.272643	0.318359	-1.000000	-1.000000	-1.000000	-1.000000	-1.000000	-1.000000	-1.000000	68.000000	0.000000	-1.000000	-1.000000	2841193.000000	1770067180.055620
-20674.890000	-13631.670000	-20381.760000	-15499.170000	-21867.840000	-16054.920000	-3321.180000	-8154.450000	1.293235	6.780703	2.448920	1.492301	1.327059	0.635404	0.885249	-4.320831	-2.472120	10.620960	2.289000	0.911436	-0.272643	0.318359	-1.000000	-1.000000	-1.000000	-1.000000	-1.000000	-1.000000	-1.000000	68.000000	0.000000	-1.000000	-1.000000	2841194.000000	1770067180.055630
-20737.305000	-13639.230000	-20360.790000	-15473.430000	-21840.570000	-16031.790000	-3314.565000	-8193.195000	9.786710	8.068543	2.180067	-0.776304	-1.164543	-1.511300	-0.534171	-1.059268	-2.472120	10.620960	2.289000	0.911436	-0.272643	0.318359	-1.000000	-1.000000	-1.000000	-1.000000	-1.000000	-1.000000	-1.000000	68.000000	0.000000	-1.000000	-1.000000	2841195.000000	1770067180.059606
-20804.130000	-13665.195000	-20367.855000	-15472.845000	-21836.340000	-16028.505000	-3320.820000	-8239.095000	14.506939	8.014030	2.636496	-1.289087	-1.759006	-1.816838	-1.019530	1.307088	-2.472120	10.620960	2.289000	0.911436	-0.272643	0.318359	-1.000000	-1.000000	-1.000000	-1.000000	-1.000000	-1.000000	-1.000000	68.000000	0.000000	-1.000000	-1.000000	2841196.000000	1770067180.059616
-20740.635000	-13652.595000	-20393.730000	-15501.015000	-21867.030000	-16055.640000	-3336.615000	-8240.895000	6.877401	3.075251	1.821585	-1.111338	-1.130857	-0.932174	-1.046355	0.673053	-2.472120	10.620960	2.289000	0.911436	-0.272643	0.318359	-1.000000	-1.000000	-1.000000	-1.000000	-1.000000	-1.000000	-1.000000	68.000000	0.000000	-1.000000	-1.000000	2841197.000000	1770067180.063637
-20680.830000	-13635.495000	-20399.715000	-15511.950000	-21881.250000	-16065.405000	-3331.080000	-8181.360000	-5.662033	-4.945883	-2.246847	-2.983324	-2.323985	-1.595839	-1.561524	-0.225128	-2.472120	10.620960	2.289000	0.911436	-0.272643	0.318359	-1.000000	-1.000000	-1.000000	-1.000000	-1.000000	-1.000000	-1.000000	68.000000	0.000000	-1.000000	-1.000000	2841198.000000	1770067180.063647
-20749.815000	-13689.990000	-20425.500000	-15510.105000	-21874.680000	-16057.620000	-3323.205000	-8155.665000	-9.613012	-11.250884	-8.969128	-7.547051	-6.556889	-4.939924	-2.434368	3.850884	-2.472120	10.620960	2.289000	0.911436	-0.272643	0.318359	-1.000000	-1.000000	-1.000000	-1.000000	-1.000000	-1.000000	-1.000000	68.000000	0.000000	-1.000000	-1.000000	2841199.000000	1770067180.075980
-20685.285000	-13688.730000	-20440.935000	-15532.920000	-21897.495000	-16078.590000	-3334.905000	-8124.615000	-2.833080	-13.610018	-14.811723	-11.577789	-10.695249	-8.329482	-2.561431	12.929520	-2.472120	10.620960	2.289000	0.911436	-0.272643	0.318359	-1.000000	-1.000000	-1.000000	-1.000000	-1.000000	-1.000000	-1.000000	68.000000	0.000000	-1.000000	-1.000000	2841200.000000	1770067180.075991
-20624.580000	-13661.865000	-20428.695000	-15537.465000	-21902.625000	-16082.415000	-3330.990000	-8098.740000	8.240097	-11.641039	-15.609958	-11.574759	-11.060797	-8.758384	-1.655395	20.793196	-4.883200	8.927100	-0.549360	0.908567	-0.274596	0.318298	-1.000000	-1.000000	-1.000000	-1.000000	-1.000000	-1.000000	-1.000000	68.000000	0.000000	-1.000000	-1.000000	2841201.000000	1770067180.076004
-20709.360000	-13661.145000	-20391.075000	-15520.230000	-21888.135000	-16069.140000	-3322.215000	-8120.925000	15.889070	-4.781986	-8.623740	-6.304622	-6.381610	-5.189587	0.016545	20.861682	-4.883200	8.927100	-0.549360	0.908567	-0.274596	0.318298	-1.000000	-1.000000	-1.000000	-1.000000	-1.000000	-1.000000	-1.000000	68.000000	0.000000	-1.000000	-1.000000	2841202.000000	1770067180.076009
-20899.170000	-13727.340000	-20396.745000	-15504.570000	-21865.680000	-16048.440000	-3319.245000	-8194.320000	10.021048	4.000352	4.497850	2.896555	2.242179	1.714191	2.275647	9.976193	-4.883200	8.927100	-0.549360	0.908567	-0.274596	0.318298	-1.000000	-1.000000	-1.000000	-1.000000	-1.000000	-1.000000	-1.000000	68.000000	0.000000	-1.000000	-1.000000	2841203.000000	1770067180.076015
-20849.355000	-13731.165000	-20441.025000	-15528.240000	-21884.130000	-16064.550000	-3331.530000	-8207.730000	-11.580721	8.612047	16.107423	11.616193	10.926683	8.944009	4.079978	-9.004752	-4.883200	8.927100	-0.549360	0.908567	-0.274596	0.318298	-1.000000	-1.000000	-1.000000	-1.000000	-1.000000	-1.000000	-1.000000	68.000000	0.000000	-1.000000	-1.000000	2841204.000000	1770067180.076020
-20705.265000	-13655.880000	-20431.800000	-15531.840000	-21888.540000	-16070.535000	-3332.520000	-8185.140000	-31.016953	8.186386	18.611832	14.854590	14.811054	12.317113	4.085610	-25.763862	-4.883200	8.927100	-0.549360	0.908567	-0.274596	0.318298	-1.000000	-1.000000	-1.000000	-1.000000	-1.000000	-1.000000	-1.000000	68.000000	0.000000	-1.000000	-1.000000	2841205.000000	1770067180.079750
-20696.535000	-13655.115000	-20417.985000	-15525.855000	-21886.650000	-16070.040000	-3329.460000	-8159.625000	-27.556342	7.721293	12.450171	11.799076	12.490879	10.362390	2.444054	-29.525175	-4.883200	8.927100	-0.549360	0.908567	-0.274596	0.318298	-1.000000	-1.000000	-1.000000	-1.000000	-1.000000	-1.000000	-1.000000	68.000000	0.000000	-1.000000	-1.000000	2841206.000000	1770067180.079785
-20733.615000	-13667.040000	-20394.720000	-15499.620000	-21864.825000	-16052.265000	-3325.230000	-8178.390000	-3.573885	8.945746	4.418087	6.157112	6.902558	5.390478	0.367411	-19.586147	-4.883200	8.927100	-0.549360	0.908567	-0.274596	0.318298	-1.000000	-1.000000	-1.000000	-1.000000	-1.000000	-1.000000	-1.000000	68.000000	0.000000	-1.000000	-1.000000	2841207.000000	1770067180.086798
-20802.915000	-13658.580000	-20370.150000	-15468.165000	-21830.940000	-16024.500000	-3323.385000	-8254.350000	20.190715	9.111733	0.418964	2.303076	2.194682	1.022679	-1.288267	-6.089904	-4.883200	8.927100	-0.549360	0.908567	-0.274596	0.318298	-1.000000	-1.000000	-1.000000	-1.000000	-1.000000	-1.000000	-1.000000	68.000000	0.000000	-1.000000	-1.000000	2841208.000000	1770067180.086809
-20764.845000	-13635.720000	-20360.790000	-15464.385000	-21834.990000	-16025.985000	-3326.670000	-8254.485000	26.565994	6.572050	1.447213	2.042749	0.667420	-0.427844	-2.134193	0.346904	-4.883200	8.927100	-0.549360	0.908567	-0.274596	0.318298	-1.000000	-1.000000	-1.000000	-1.000000	-1.000000	-1.000000	-1.000000	68.000000	0.000000	-1.000000	-1.000000	2841209.000000	1770067180.087536
-20605.140000	-13633.155000	-20410.740000	-15544.350000	-21944.160000	-16094.340000	-3341.025000	-8136.045000	16.553010	1.532444	2.791792	2.239239	-0.436607	-0.675383	-2.388118	0.614359	-4.883200	8.927100	-0.549360	0.908567	-0.274596	0.318298	-1.000000	-1.000000	-1.000000	-1.000000	-1.000000	-1.000000	-1.000000	68.000000	0.000000	-1.000000	-1.000000	2841210.000000	1770067180.087547
-20613.870000	-13617.180000	-20406.870000	-15543.315000	-21951.630000	-16089.030000	-3324.150000	-8130.915000	7.300702	-4.448815	-1.824288	-2.953360	-7.066964	-4.221706	-2.606799	5.560052	-4.165980	12.467420	0.518840	0.913084	-0.272277	0.319030	-1.000000	-1.000000	-1.000000	-1.000000	-1.000000	-1.000000	-1.000000	68.000000	0.000000	-1.000000	-1.000000	2841211.000000	1770067180.091490
-20695.455000	-13644.225000	-20402.145000	-15517.170000	-21897.405000	-16069.680000	-3324.375000	-8182.305000	10.054088	-8.296707	-11.733529	-13.140273	-17.872893	-11.053836	-2.393756	19.163468	-4.165980	12.467420	0.518840	0.913084	-0.272277	0.319030	-1.000000	-1.000000	-1.000000	-1.000000	-1.000000	-1.000000	-1.000000	68.000000	0.000000	-1.000000	-1.000000	2841212.000000	1770067180.091498
-20665.035000	-13646.520000	-20414.205000	-15520.770000	-21884.040000	-16089.795000	-3334.365000	-8127.000000	15.208072	-9.001998	-18.686083	-19.690041	-21.995049	-15.106770	-0.985809	31.899794	-4.165980	12.467420	0.518840	0.913084	-0.272277	0.319030	-1.000000	-1.000000	-1.000000	-1.000000	-1.000000	-1.000000	-1.000000	68.000000	0.000000	-1.000000	-1.000000	2841213.000000	1770067180.095562
-20665.215000	-13654.665000	-20415.870000	-15514.335000	-21870.315000	-16070.580000	-3331.755000	-8120.520000	6.714910	-9.541748	-16.668883	-15.845237	-12.230338	-11.617693	1.143963	32.924086	-4.165980	12.467420	0.518840	0.913084	-0.272277	0.319030	-1.000000	-1.000000	-1.000000	-1.000000	-1.000000	-1.000000	-1.000000	68.000000	0.000000	-1.000000	-1.000000	2841214.000000	1770067180.095571
-20714.400000	-13668.750000	-20407.365000	-15500.115000	-21856.680000	-16046.955000	-3320.955000	-8163.180000	-17.100482	-11.851240	-7.415461	-3.530744	6.444258	-1.323877	2.831065	18.689466	-4.165980	12.467420	0.518840	0.913084	-0.272277	0.319030	-1.000000	-1.000000	-1.000000	-1.000000	-1.000000	-1.000000	-1.000000	68.000000	0.000000	-1.000000	-1.000000	2841215.000000	1770067180.100218
-20700.540000	-13661.910000	-20410.515000	-15512.130000	-21870.720000	-16060.815000	-3328.785000	-8151.480000	-40.800467	-12.865900	3.218572	9.351712	21.872385	10.349495	3.263951	-5.930753	-4.165980	12.467420	0.518840	0.913084	-0.272277	0.319030	-1.000000	-1.000000	-1.000000	-1.000000	-1.000000	-1.000000	-1.000000	68.000000	0.000000	-1.000000	-1.000000	2841216.000000	1770067180.100229
-20715.930000	-13653.270000	-20396.295000	-15497.730000	-21857.265000	-16042.320000	-3308.355000	-8112.735000	-46.159896	-8.446096	10.228288	15.289130	24.465060	16.475347	2.400474	-27.512233	-4.165980	12.467420	0.518840	0.913084	-0.272277	0.319030	-1.000000	-1.000000	-1.000000	-1.000000	-1.000000	-1.000000	-1.000000	68.000000	0.000000	-1.000000	-1.000000	2841217.000000	1770067180.110346
-20720.160000	-13671.180000	-20407.545000	-15501.285000	-21855.240000	-16035.975000	-3309.345000	-8142.660000	-30.419321	0.552582	12.017004	13.085082	14.874239	14.786061	1.304235	-34.505695	-4.165980	12.467420	0.518840	0.913084	-0.272277	0.319030	-1.000000	-1.000000	-1.000000	-1.000000	-1.000000	-1.000000	-1.000000	68.000000	0.000000	-1.000000	-1.000000	2841218.000000	1770067180.110359
-20698.650000	-13646.295000	-20394.630000	-15491.745000	-21849.930000	-16035.705000	-3317.670000	-8156.520000	-6.907271	9.178588	10.215079	7.830445	2.702045	9.143887	0.711169	-29.060567	-4.165980	12.467420	0.518840	0.913084	-0.272277	0.319030	-1.000000	-1.000000	-1.000000	-1.000000	-1.000000	-1.000000	-1.000000	68.000000	0.000000	-1.000000	-1.000000	2841219.000000	1770067180.110372
-20700.810000	-13626.045000	-20385.045000	-15493.545000	-21859.965000	-16051.410000	-3322.395000	-8161.875000	13.415638	14.594127	7.290361	3.911497	-4.593204	3.054979	-0.337184	-19.174578	-4.165980	12.467420	0.518840	0.913084	-0.272277	0.319030	-1.000000	-1.000000	-1.000000	-1.000000	-1.000000	-1.000000	-1.000000	68.000000	0.000000	-1.000000	-1.000000	2841220.000000	1770067180.110378
-20697.345000	-13646.520000	-20404.890000	-15525.945000	-21896.820000	-16082.235000	-3346.245000	-8181.855000	29.092437	16.969260	4.306723	0.431380	-8.687314	-3.837550	-2.798215	-7.385071	1.648080	14.481740	2.792580	0.916074	-0.274047	0.311340	-1.000000	-1.000000	-1.000000	-1.000000	-1.000000	-1.000000	-1.000000	68.000000	0.000000	-1.000000	-1.000000	2841221.000000	1770067180.111655
-20798.595000	-13688.055000	-20402.055000	-15523.380000	-21906.675000	-16079.895000	-3348.855000	-8264.115000	36.056341	14.697094	1.004421	-4.836986	-13.960542	-11.381467	-5.749257	3.730618	1.648080	14.481740	2.792580	0.916074	-0.274047	0.311340	-1.000000	-1.000000	-1.000000	-1.000000	-1.000000	-1.000000	-1.000000	68.000000	0.000000	-1.000000	-1.000000	2841222.000000	1770067180.111667
-20741.940000	-13660.740000	-20393.685000	-15522.210000	-21901.005000	-16074.180000	-3331.665000	-8200.845000	27.541713	6.001541	-2.505529	-10.419036	-19.116601	-16.229524	-6.859383	9.348463	1.648080	14.481740	2.792580	0.916074	-0.274047	0.311340	-1.000000	-1.000000	-1.000000	-1.000000	-1.000000	-1.000000	-1.000000	68.000000	0.000000	-1.000000	-1.000000	2841223.000000	1770067180.115589
-20634.255000	-13639.590000	-20410.065000	-15534.720000	-21903.345000	-16084.530000	-3328.380000	-8102.340000	10.401550	-4.691087	-5.531013	-12.934084	-18.969807	-15.468623	-4.414079	12.524672	1.648080	14.481740	2.792580	0.916074	-0.274047	0.311340	-1.000000	-1.000000	-1.000000	-1.000000	-1.000000	-1.000000	-1.000000	68.000000	0.000000	-1.000000	-1.000000	2841224.000000	1770067180.115600
-20625.705000	-13627.575000	-20415.465000	-15527.475000	-21891.510000	-16076.790000	-3323.430000	-8099.865000	1.107558	-10.091374	-7.827401	-10.916452	-10.996723	-9.430032	0.816275	20.365145	1.648080	14.481740	2.792580	0.916074	-0.274047	0.311340	-1.000000	-1.000000	-1.000000	-1.000000	-1.000000	-1.000000	-1.000000	68.000000	0.000000	-1.000000	-1.000000	2841225.000000	1770067180.119593
-20674.440000	-13645.890000	-20421.405000	-15525.630000	-21893.310000	-16070.400000	-3317.625000	-8115.480000	2.953289	-8.647474	-9.100343	-5.066212	2.204080	-0.583173	5.935134	29.152654	1.648080	14.481740	2.792580	0.916074	-0.274047	0.311340	-1.000000	-1.000000	-1.000000	-1.000000	-1.000000	-1.000000	-1.000000	68.000000	0.000000	-1.000000	-1.000000	2841226.000000	1770067180.119604
-20706.030000	-13659.615000	-20422.530000	-15530.175000	-21903.345000	-16075.170000	-3322.845000	-8122.635000	3.293784	-4.748724	-8.147477	2.759937	15.010786	8.072222	8.262564	27.611986	1.648080	14.481740	2.792580	0.916074	-0.274047	0.311340	-1.000000	-1.000000	-1.000000	-1.000000	-1.000000	-1.000000	-1.000000	68.000000	0.000000	-1.000000	-1.000000	2841227.000000	1770067180.123560
-20685.420000	-13654.665000	-20418.750000	-15529.005000	-21899.610000	-16071.345000	-3318.705000	-8115.885000	-6.720439	-2.874333	-4.235603	9.705028	22.123563	13.794915	7.065787	12.303509	1.648080	14.481740	2.792580	0.916074	-0.274047	0.311340	-1.000000	-1.000000	-1.000000	-1.000000	-1.000000	-1.000000	-1.000000	68.000000	0.000000	-1.000000	-1.000000	2841228.000000	1770067180.123571
-20667.150000	-13638.465000	-20402.550000	-15504.615000	-21875.355000	-16053.840000	-3309.300000	-8107.020000	-20.257331	-3.304323	1.672907	13.203797	21.391460	15.256380	3.748210	-8.302967	1.648080	14.481740	2.792580	0.916074	-0.274047	0.311340	-1.000000	-1.000000	-1.000000	-1.000000	-1.000000	-1.000000	-1.000000	68.000000	0.000000	-1.000000	-1.000000	2841229.000000	1770067180.130494
-20674.665000	-13599.405000	-20349.000000	-15445.665000	-21815.190000	-16002.045000	-3291.300000	-8137.980000	-24.889954	-2.140319	8.615264	13.832028	15.694037	13.971774	1.042346	-22.781485	1.648080	14.481740	2.792580	0.916074	-0.274047	0.311340	-1.000000	-1.000000	-1.000000	-1.000000	-1.000000	-1.000000	-1.000000	68.000000	0.000000	-1.000000	-1.000000	2841230.000000	1770067180.130504
-20681.730000	-13586.940000	-20328.615000	-15439.680000	-21799.845000	-15988.320000	-3287.565000	-8167.410000	-16.730238	3.749133	15.698400	13.731616	10.048693	12.229107	0.525999	-26.279509	2.334780	12.055400	-5.295220	0.910215	-0.282470	0.310851	-1.000000	-1.000000	-1.000000	-1.000000	-1.000000	-1.000000	-1.000000	68.000000	0.000000	-1.000000	-1.000000	2841231.000000	1770067180.135676
-20712.870000	-13636.980000	-20371.005000	-15488.955000	-21840.030000	-16021.665000	-3307.770000	-8178.795000	-3.041814	10.685214	18.915757	11.085839	4.827420	8.632787	0.348229	-22.440069	2.334780	12.055400	-5.295220	0.910215	-0.282470	0.310851	-1.000000	-1.000000	-1.000000	-1.000000	-1.000000	-1.000000	-1.000000	68.000000	0.000000	-1.000000	-1.000000	2841232.000000	1770067180.135688
-20734.740000	-13651.425000	-20386.215000	-15496.740000	-21867.255000	-16049.295000	-3315.060000	-8144.505000	4.409935	10.340389	13.009711	1.905819	-4.050914	-0.354601	-2.475055	-17.282924	2.334780	12.055400	-5.295220	0.910215	-0.282470	0.310851	-1.000000	-1.000000	-1.000000	-1.000000	-1.000000	-1.000000	-1.000000	68.000000	0.000000	-1.000000	-1.000000	2841233.000000	1770067180.135916
-20696.265000	-13651.155000	-20406.105000	-15518.565000	-21889.170000	-16067.070000	-3332.610000	-8137.305000	1.978679	0.283931	-1.618308	-12.558490	-17.364173	-14.185223	-7.921579	-11.572761	2.334780	12.055400	-5.295220	0.910215	-0.282470	0.310851	-1.000000	-1.000000	-1.000000	-1.000000	-1.000000	-1.000000	-1.000000	68.000000	0.000000	-1.000000	-1.000000	2841234.000000	1770067180.135922
-20676.645000	-13654.845000	-20399.355000	-15506.010000	-21871.755000	-16046.145000	-3329.730000	-8141.490000	-1.374608	-11.949034	-17.385013	-24.882090	-28.763676	-26.207004	-12.691395	-2.379193	2.334780	12.055400	-5.295220	0.910215	-0.282470	0.310851	-1.000000	-1.000000	-1.000000	-1.000000	-1.000000	-1.000000	-1.000000	68.000000	0.000000	-1.000000	-1.000000	2841235.000000	1770067180.141057
-20713.680000	-13633.605000	-20367.315000	-15464.970000	-21819.195000	-15998.895000	-3310.380000	-8203.500000	2.520335	-16.733442	-24.858145	-26.696440	-28.910279	-27.560439	-12.595129	8.892183	2.334780	12.055400	-5.295220	0.910215	-0.282470	0.310851	-1.000000	-1.000000	-1.000000	-1.000000	-1.000000	-1.000000	-1.000000	68.000000	0.000000	-1.000000	-1.000000	2841236.000000	1770067180.141071
-20802.195000	-13626.945000	-20362.905000	-15477.570000	-21840.570000	-16024.095000	-3322.845000	-8293.095000	9.232674	-10.893413	-19.568797	-15.458107	-14.703756	-15.186503	-6.015393	14.893260	2.334780	12.055400	-5.295220	0.910215	-0.282470	0.310851	-1.000000	-1.000000	-1.000000	-1.000000	-1.000000	-1.000000	-1.000000	68.000000	0.000000	-1.000000	-1.000000	2841237.000000	1770067180.143548
-20716.875000	-13675.725000	-20437.965000	-15579.270000	-21950.595000	-16117.515000	-3348.900000	-8172.540000	10.199740	0.231699	-6.683732	0.440291	3.845925	2.052435	3.348793	12.315187	2.334780	12.055400	-5.295220	0.910215	-0.282470	0.310851	-1.000000	-1.000000	-1.000000	-1.000000	-1.000000	-1.000000	-1.000000	68.000000	0.000000	-1.000000	-1.000000	2841238.000000	1770067180.143556
-20643.345000	-13690.170000	-20452.815000	-15576.030000	-21936.870000	-16096.770000	-3327.120000	-8076.285000	7.628708	7.366052	2.464035	7.819816	11.702913	10.604606	9.634591	10.539955	2.334780	12.055400	-5.295220	0.910215	-0.282470	0.310851	-1.000000	-1.000000	-1.000000	-1.000000	-1.000000	-1.000000	-1.000000	68.000000	0.000000	-1.000000	-1.000000	2841239.000000	1770067180.147557
-20661.525000	-13632.930000	-20394.315000	-15498.315000	-21858.075000	-16024.725000	-3286.980000	-8088.885000	9.296440	7.113789	3.222612	4.916515	7.230699	8.422669	11.271204	18.725269	2.334780	12.055400	-5.295220	0.910215	-0.282470	0.310851	-1.000000	-1.000000	-1.000000	-1.000000	-1.000000	-1.000000	-1.000000	68.000000	0.000000	-1.000000	-1.000000	2841240.000000	1770067180.147563
-20694.690000	-13628.655000	-20383.695000	-15491.250000	-21859.875000	-16031.115000	-3304.530000	-8153.370000	13.170396	5.378352	2.935531	3.449704	3.440598	6.015702	10.855664	28.028762	-0.350980	3.189340	-9.995300	0.901609	-0.278136	0.325378	-1.000000	-1.000000	-1.000000	-1.000000	-1.000000	-1.000000	-1.000000	68.000000	0.000000	-1.000000	-1.000000	2841241.000000	1770067180.151567
-20703.195000	-13617.270000	-20378.295000	-15506.370000	-21871.305000	-16038.180000	-3321.585000	-8183.070000	10.364227	7.543622	8.791742	10.561506	8.775653	10.151353	9.289299	21.149009	-0.350980	3.189340	-9.995300	0.901609	-0.278136	0.325378	-1.000000	-1.000000	-1.000000	-1.000000	-1.000000	-1.000000	-1.000000	68.000000	0.000000	-1.000000	-1.000000	2841242.000000	1770067180.151573
-20706.795000	-13625.145000	-20403.090000	-15537.780000	-21878.235000	-16045.830000	-3334.590000	-8179.920000	-1.769249	11.300732	17.590115	19.512040	17.850101	16.275581	4.971568	-4.465149	-0.350980	3.189340	-9.995300	0.901609	-0.278136	0.325378	-1.000000	-1.000000	-1.000000	-1.000000	-1.000000	-1.000000	-1.000000	68.000000	0.000000	-1.000000	-1.000000	2841243.000000	1770067180.155656
-20647.125000	-13633.425000	-20420.640000	-15552.225000	-21902.085000	-16067.790000	-3334.365000	-8107.740000	-15.995452	11.087464	20.286142	19.641726	20.254028	15.979795	-2.093308	-31.543450	-0.350980	3.189340	-9.995300	0.901609	-0.278136	0.325378	-1.000000	-1.000000	-1.000000	-1.000000	-1.000000	-1.000000	-1.000000	68.000000	0.000000	-1.000000	-1.000000	2841244.000000	1770067180.155666
-20596.455000	-13612.230000	-20417.400000	-15520.230000	-21900.420000	-16062.525000	-3305.520000	-8044.470000	-20.272437	4.499034	11.755478	8.188033	10.779369	5.791302	-8.750773	-38.094314	-0.350980	3.189340	-9.995300	0.901609	-0.278136	0.325378	-1.000000	-1.000000	-1.000000	-1.000000	-1.000000	-1.000000	-1.000000	68.000000	0.000000	-1.000000	-1.000000	2841245.000000	1770067180.159734
-20619.855000	-13576.230000	-20344.365000	-15466.365000	-21850.470000	-16011.765000	-3276.135000	-8070.525000	-9.313467	-4.828933	-2.742318	-6.177374	-4.800620	-7.889116	-10.308890	-18.142663	-0.350980	3.189340	-9.995300	0.901609	-0.278136	0.325378	-1.000000	-1.000000	-1.000000	-1.000000	-1.000000	-1.000000	-1.000000	68.000000	0.000000	-1.000000	-1.000000	2841246.000000	1770067180.159746
-20639.655000	-13567.725000	-20323.125000	-15467.265000	-21817.845000	-15987.195000	-3283.560000	-8136.585000	6.293732	-9.879948	-10.922472	-11.267444	-13.208833	-13.138477	-4.849719	9.156243	-0.350980	3.189340	-9.995300	0.901609	-0.278136	0.325378	-1.000000	-1.000000	-1.000000	-1.000000	-1.000000	-1.000000	-1.000000	68.000000	0.000000	-1.000000	-1.000000	2841247.000000	1770067180.169203
-20638.575000	-13589.730000	-20355.390000	-15487.560000	-21833.820000	-16015.860000	-3311.730000	-8151.120000	10.589951	-8.326998	-7.829672	-5.721280	-9.054910	-7.075820	2.587929	17.932555	-0.350980	3.189340	-9.995300	0.901609	-0.278136	0.325378	-1.000000	-1.000000	-1.000000	-1.000000	-1.000000	-1.000000	-1.000000	68.000000	0.000000	-1.000000	-1.000000	2841248.000000	1770067180.169211
-20681.595000	-13628.205000	-20380.995000	-15489.000000	-21854.745000	-16042.455000	-3317.760000	-8110.665000	0.497567	-5.721436	-2.078821	-0.093186	-1.608590	-0.135031	4.218246	4.242467	-0.350980	3.189340	-9.995300	0.901609	-0.278136	0.325378	-1.000000	-1.000000	-1.000000	-1.000000	-1.000000	-1.000000	-1.000000	68.000000	0.000000	-1.000000	-1.000000	2841249.000000	1770067180.169274
-20705.850000	-13655.025000	-20391.480000	-15482.790000	-21854.205000	-16035.795000	-3303.945000	-8105.400000	-13.907662	-7.912621	-3.205707	-1.983164	-1.001377	-1.173204	-0.818651	-12.934137	-0.350980	3.189340	-9.995300	0.901609	-0.278136	0.325378	-1.000000	-1.000000	-1.000000	-1.000000	-1.000000	-1.000000	-1.000000	68.000000	0.000000	-1.000000	-1.000000	2841250.000000	1770067180.169284
-20702.880000	-13629.690000	-20375.595000	-15488.010000	-21844.170000	-16022.565000	-3309.120000	-8186.580000	-21.319596	-13.099379	-9.923641	-8.052224	-6.165262	-7.008391	-5.857977	-17.165791	-1.678600	-0.686700	-6.928040	0.901975	-0.265380	0.331481	-1.000000	-1.000000	-1.000000	-1.000000	-1.000000	-1.000000	-1.000000	68.000000	0.000000	-1.000000	-1.000000	2841251.000000	1770067180.171771
-20728.620000	-13628.520000	-20370.555000	-15475.500000	-21830.940000	-16017.030000	-3325.545000	-8302.860000	-17.386074	-13.806571	-13.656031	-10.733402	-9.550634	-9.418111	-5.749319	-11.350533	-1.678600	-0.686700	-6.928040	0.901975	-0.265380	0.331481	-1.000000	-1.000000	-1.000000	-1.000000	-1.000000	-1.000000	-1.000000	68.000000	0.000000	-1.000000	-1.000000	2841252.000000	1770067180.171782
-20783.340000	-13656.690000	-20375.730000	-15460.245000	-21832.650000	-16025.040000	-3328.020000	-8290.080000	-6.868481	-6.316667	-9.124188	-6.728605	-6.827750	-5.245476	-1.818294	-7.546708	-1.678600	-0.686700	-6.928040	0.901975	-0.265380	0.331481	-1.000000	-1.000000	-1.000000	-1.000000	-1.000000	-1.000000	-1.000000	68.000000	0.000000	-1.000000	-1.000000	2841253.000000	1770067180.178333
-20705.220000	-13683.915000	-20442.015000	-15544.665000	-21917.790000	-16089.615000	-3322.845000	-8073.720000	3.371400	4.233970	-0.411832	-0.466094	-1.300368	1.103575	1.653006	-5.174474	-1.678600	-0.686700	-6.928040	0.901975	-0.265380	0.331481	-1.000000	-1.000000	-1.000000	-1.000000	-1.000000	-1.000000	-1.000000	68.000000	0.000000	-1.000000	-1.000000	2841254.000000	1770067180.178343
-20586.960000	-13648.995000	-20450.655000	-15570.540000	-21937.545000	-16094.565000	-3314.430000	-7998.435000	14.237542	10.708337	3.574620	0.140389	-0.268021	2.771577	2.565067	9.284675	-1.678600	-0.686700	-6.928040	0.901975	-0.265380	0.331481	-1.000000	-1.000000	-1.000000	-1.000000	-1.000000	-1.000000	-1.000000	68.000000	0.000000	-1.000000	-1.000000	2841255.000000	1770067180.179685
-20649.645000	-13644.630000	-20426.985000	-15544.665000	-21915.900000	-16076.520000	-3333.645000	-8130.105000	27.810462	12.311636	0.574067	-5.482025	-5.197407	-1.104821	1.926562	35.466074	-1.678600	-0.686700	-6.928040	0.901975	-0.265380	0.331481	-1.000000	-1.000000	-1.000000	-1.000000	-1.000000	-1.000000	-1.000000	68.000000	0.000000	-1.000000	-1.000000	2841256.000000	1770067180.179696
-20634.930000	-13608.315000	-20388.195000	-15517.530000	-21899.880000	-16062.120000	-3328.920000	-8096.625000	36.210383	12.782919	-1.754479	-8.566774	-8.817147	-4.089235	1.418326	50.895623	-1.678600	-0.686700	-6.928040	0.901975	-0.265380	0.331481	-1.000000	-1.000000	-1.000000	-1.000000	-1.000000	-1.000000	-1.000000	68.000000	0.000000	-1.000000	-1.000000	2841257.000000	1770067180.183818
-20624.625000	-13578.255000	-20353.455000	-15501.600000	-21902.400000	-16074.315000	-3327.885000	-8072.730000	31.001046	14.930467	4.274714	-2.235665	-4.089265	-0.620545	1.867814	39.100670	-1.678600	-0.686700	-6.928040	0.901975	-0.265380	0.331481	-1.000000	-1.000000	-1.000000	-1.000000	-1.000000	-1.000000	-1.000000	68.000000	0.000000	-1.000000	-1.000000	2841258.000000	1770067180.183829
-20671.650000	-13600.125000	-20382.795000	-15509.340000	-21892.410000	-16065.315000	-3325.005000	-8146.665000	13.715996	17.348801	16.452310	10.741969	7.920063	7.650845	3.052523	6.769720	-1.678600	-0.686700	-6.928040	0.901975	-0.265380	0.331481	-1.000000	-1.000000	-1.000000	-1.000000	-1.000000	-1.000000	-1.000000	68.000000	0.000000	-1.000000	-1.000000	2841259.000000	1770067180.190277
-20753.190000	-13662.540000	-20434.770000	-15504.660000	-21857.715000	-16032.555000	-3324.465000	-8255.610000	-9.889500	13.612742	23.477118	21.605336	20.053440	14.817358	4.115931	-28.408554	-1.678600	-0.686700	-6.928040	0.901975	-0.265380	0.331481	-1.000000	-1.000000	-1.000000	-1.000000	-1.000000	-1.000000	-1.000000	68.000000	0.000000	-1.000000	-1.000000	2841260.000000	1770067180.190288
-20745.630000	-13703.040000	-20501.055000	-15562.170000	-21908.790000	-16081.740000	-3365.505000	-8229.195000	-32.788254	-1.047132	15.567582	22.458960	24.810759	16.156703	3.879892	-50.405740	-4.852680	-0.412020	-7.630000	0.907407	-0.260436	0.328796	-1.000000	-1.000000	-1.000000	-1.000000	-1.000000	-1.000000	-1.000000	68.000000	0.000000	-1.000000	-1.000000	2841261.000000	1770067180.193538
-20690.460000	-13698.495000	-20482.380000	-15549.120000	-21899.340000	-16056.675000	-3325.455000	-8113.770000	-43.930419	-21.053097	-4.718682	11.299815	18.585515	10.411061	1.423768	-49.628411	-4.852680	-0.412020	-7.630000	0.907407	-0.260436	0.328796	-1.000000	-1.000000	-1.000000	-1.000000	-1.000000	-1.000000	-1.000000	68.000000	0.000000	-1.000000	-1.000000	2841262.000000	1770067180.193549
-20670.390000	-13663.710000	-20410.695000	-15473.385000	-21829.140000	-15986.880000	-3288.780000	-8178.480000	-36.092263	-33.118068	-22.009469	-3.540367	6.377151	2.325851	-1.542424	-30.048824	-4.852680	-0.412020	-7.630000	0.907407	-0.260436	0.328796	-1.000000	-1.000000	-1.000000	-1.000000	-1.000000	-1.000000	-1.000000	68.000000	0.000000	-1.000000	-1.000000	2841263.000000	1770067180.195706
-20756.835000	-13694.220000	-20439.855000	-15513.300000	-21868.065000	-16034.220000	-3334.365000	-8301.240000	-16.324914	-29.006660	-22.501786	-10.028173	-2.622921	-1.841994	-2.418031	-8.596022	-4.852680	-0.412020	-7.630000	0.907407	-0.260436	0.328796	-1.000000	-1.000000	-1.000000	-1.000000	-1.000000	-1.000000	-1.000000	68.000000	0.000000	-1.000000	-1.000000	2841264.000000	1770067180.195716
-20773.440000	-13686.750000	-20476.620000	-15588.495000	-21947.625000	-16095.105000	-3367.035000	-8285.760000	1.370374	-12.781384	-9.207100	-8.335906	-8.116094	-4.347144	-2.460813	3.136918	-4.852680	-0.412020	-7.630000	0.907407	-0.260436	0.328796	-1.000000	-1.000000	-1.000000	-1.000000	-1.000000	-1.000000	-1.000000	68.000000	0.000000	-1.000000	-1.000000	2841265.000000	1770067180.199631
-20687.355000	-13606.830000	-20402.145000	-15531.570000	-21901.050000	-16060.140000	-3341.160000	-8166.105000	12.065198	6.212519	4.430735	-7.925839	-15.517415	-10.653510	-3.966126	10.090214	-4.852680	-0.412020	-7.630000	0.907407	-0.260436	0.328796	-1.000000	-1.000000	-1.000000	-1.000000	-1.000000	-1.000000	-1.000000	68.000000	0.000000	-1.000000	-1.000000	2841266.000000	1770067180.199641
-20583.900000	-13561.605000	-20335.005000	-15457.905000	-21834.270000	-16017.570000	-3289.455000	-8014.230000	21.793790	22.296956	12.180702	-9.708327	-21.405504	-17.024763	-4.746686	23.417991	-4.852680	-0.412020	-7.630000	0.907407	-0.260436	0.328796	-1.000000	-1.000000	-1.000000	-1.000000	-1.000000	-1.000000	-1.000000	68.000000	0.000000	-1.000000	-1.000000	2841267.000000	1770067180.203727
-20596.545000	-13591.755000	-20349.135000	-15439.545000	-21807.990000	-15988.905000	-3256.875000	-8002.305000	35.000081	32.070246	16.350853	-6.201781	-17.154876	-15.274431	-0.727242	46.278709	-4.852680	-0.412020	-7.630000	0.907407	-0.260436	0.328796	-1.000000	-1.000000	-1.000000	-1.000000	-1.000000	-1.000000	-1.000000	68.000000	0.000000	-1.000000	-1.000000	2841268.000000	1770067180.203734
-20731.095000	-13690.305000	-20433.555000	-15501.690000	-21852.495000	-16024.770000	-3293.280000	-8123.850000	43.452897	30.412823	16.932499	3.395793	-3.639968	-5.151647	7.203898	65.569565	-4.852680	-0.412020	-7.630000	0.907407	-0.260436	0.328796	-1.000000	-1.000000	-1.000000	-1.000000	-1.000000	-1.000000	-1.000000	68.000000	0.000000	-1.000000	-1.000000	2841269.000000	1770067180.207735
-20694.015000	-13678.290000	-20466.765000	-15562.755000	-21922.470000	-16084.440000	-3333.240000	-8103.465000	33.036308	14.833587	9.895777	10.042453	8.293515	5.126881	11.992624	58.398328	-4.852680	-0.412020	-7.630000	0.907407	-0.260436	0.328796	-1.000000	-1.000000	-1.000000	-1.000000	-1.000000	-1.000000	-1.000000	68.000000	0.000000	-1.000000	-1.000000	2841270.000000	1770067180.207747
-20669.265000	-13667.760000	-20488.320000	-15599.925000	-21979.980000	-16122.600000	-3348.270000	-8081.415000	2.856979	-7.923689	-5.356914	5.626094	8.899471	7.033187	6.778045	16.106336	-10.392060	-6.332900	-1.831200	0.899961	-0.256774	0.331542	-1.000000	-1.000000	-1.000000	-1.000000	-1.000000	-1.000000	-1.000000	68.000000	0.000000	-1.000000	-1.000000	2841271.000000	1770067180.213168
-20695.635000	-13640.940000	-20462.445000	-15555.645000	-21913.920000	-16062.120000	-3325.590000	-8153.820000	-31.310086	-25.479539	-22.377550	-7.578410	-1.257214	-0.040868	-6.946460	-41.725948	-10.392060	-6.332900	-1.831200	0.899961	-0.256774	0.331542	-1.000000	-1.000000	-1.000000	-1.000000	-1.000000	-1.000000	-1.000000	68.000000	0.000000	-1.000000	-1.000000	2841272.000000	1770067180.213178
-20692.260000	-13584.735000	-20399.490000	-15484.410000	-21831.165000	-15997.905000	-3299.670000	-8205.615000	-50.484719	-28.444303	-29.793869	-16.433266	-9.174632	-5.707396	-17.915636	-82.223507	-10.392060	-6.332900	-1.831200	0.899961	-0.256774	0.331542	-1.000000	-1.000000	-1.000000	-1.000000	-1.000000	-1.000000	-1.000000	68.000000	0.000000	-1.000000	-1.000000	2841273.000000	1770067180.215800
-20611.260000	-13531.410000	-20357.325000	-15444.315000	-21788.325000	-15970.410000	-3290.805000	-8115.120000	-44.275861	-15.640194	-19.354621	-8.643898	-1.379608	1.035228	-15.589485	-84.731053	-10.392060	-6.332900	-1.831200	0.899961	-0.256774	0.331542	-1.000000	-1.000000	-1.000000	-1.000000	-1.000000	-1.000000	-1.000000	68.000000	0.000000	-1.000000	-1.000000	2841274.000000	1770067180.215810
-20621.835000	-13556.835000	-20410.200000	-15513.300000	-21866.805000	-16024.005000	-3314.160000	-8112.825000	-18.237947	3.162255	2.386727	10.653802	17.357058	16.100127	-2.301946	-53.289578	-10.392060	-6.332900	-1.831200	0.899961	-0.256774	0.331542	-1.000000	-1.000000	-1.000000	-1.000000	-1.000000	-1.000000	-1.000000	68.000000	0.000000	-1.000000	-1.000000	2841275.000000	1770067180.219849
-20686.770000	-13590.090000	-20432.970000	-15568.920000	-21900.555000	-16043.220000	-3331.665000	-8231.085000	8.224677	13.216727	17.271647	21.016677	25.970930	22.789139	9.111656	-11.392792	-10.392060	-6.332900	-1.831200	0.899961	-0.256774	0.331542	-1.000000	-1.000000	-1.000000	-1.000000	-1.000000	-1.000000	-1.000000	68.000000	0.000000	-1.000000	-1.000000	2841276.000000	1770067180.219860
-20698.380000	-13652.955000	-20425.815000	-15581.745000	-21920.715000	-16065.090000	-3337.875000	-8222.805000	19.605772	8.661291	16.155126	10.615805	12.104123	11.379833	9.578212	18.657305	-10.392060	-6.332900	-1.831200	0.899961	-0.256774	0.331542	-1.000000	-1.000000	-1.000000	-1.000000	-1.000000	-1.000000	-1.000000	68.000000	0.000000	-1.000000	-1.000000	2841277.000000	1770067180.226500
-20736.945000	-13741.425000	-20485.080000	-15612.345000	-21962.970000	-16111.620000	-3345.030000	-8127.450000	17.449762	-3.974035	6.841579	-10.145966	-13.827982	-10.498327	2.313638	34.709030	-10.392060	-6.332900	-1.831200	0.899961	-0.256774	0.331542	-1.000000	-1.000000	-1.000000	-1.000000	-1.000000	-1.000000	-1.000000	68.000000	0.000000	-1.000000	-1.000000	2841278.000000	1770067180.226511
-20672.010000	-13689.855000	-20450.070000	-15536.115000	-21920.715000	-16079.940000	-3320.055000	-8066.790000	11.136095	-14.617132	0.389655	-21.077508	-30.445832	-26.226306	-2.978174	45.546002	-10.392060	-6.332900	-1.831200	0.899961	-0.256774	0.331542	-1.000000	-1.000000	-1.000000	-1.000000	-1.000000	-1.000000	-1.000000	68.000000	0.000000	-1.000000	-1.000000	2841279.000000	1770067180.227687
-20681.325000	-13654.620000	-20456.865000	-15552.315000	-21937.635000	-16076.205000	-3323.610000	-8119.170000	6.038356	-15.643387	0.264432	-12.197728	-25.278618	-24.810712	-1.201849	50.776057	-10.392060	-6.332900	-1.831200	0.899961	-0.256774	0.331542	-1.000000	-1.000000	-1.000000	-1.000000	-1.000000	-1.000000	-1.000000	68.000000	0.000000	-1.000000	-1.000000	2841280.000000	1770067180.227696
-20752.290000	-13701.510000	-20484.990000	-15579.045000	-21930.255000	-16055.955000	-3336.930000	-8250.975000	2.803648	-6.091086	2.397001	7.193211	-5.011761	-9.333142	4.255788	42.420225	-13.428800	-10.712520	3.143560	0.896543	-0.258239	0.342895	-1.000000	-1.000000	-1.000000	-1.000000	-1.000000	-1.000000	-1.000000	68.000000	0.000000	-1.000000	-1.000000	2841281.000000	1770067180.232889
-20774.610000	-13800.015000	-20579.805000	-15662.160000	-21963.195000	-16088.670000	-3354.840000	-8251.830000	-0.986767	4.441743	-0.842088	17.764747	12.645231	7.389080	6.751413	17.724916	-13.428800	-10.712520	3.143560	0.896543	-0.258239	0.342895	-1.000000	-1.000000	-1.000000	-1.000000	-1.000000	-1.000000	-1.000000	68.000000	0.000000	-1.000000	-1.000000	2841282.000000	1770067180.232895
-20766.780000	-13741.425000	-20520.045000	-15584.760000	-21901.680000	-16054.245000	-3334.050000	-8303.535000	-7.554627	5.419959	-11.783269	10.491799	17.176931	15.237274	3.663929	-16.738230	-13.428800	-10.712520	3.143560	0.896543	-0.258239	0.342895	-1.000000	-1.000000	-1.000000	-1.000000	-1.000000	-1.000000	-1.000000	68.000000	0.000000	-1.000000	-1.000000	2841283.000000	1770067180.235600
-20773.710000	-13693.320000	-20481.975000	-15591.060000	-21912.255000	-16068.240000	-3355.335000	-8260.560000	-14.119015	0.561736	-20.361233	-4.091139	12.788555	14.106961	-1.933918	-46.754946	-13.428800	-10.712520	3.143560	0.896543	-0.258239	0.342895	-1.000000	-1.000000	-1.000000	-1.000000	-1.000000	-1.000000	-1.000000	68.000000	0.000000	-1.000000	-1.000000	2841284.000000	1770067180.235611
-20683.890000	-13654.665000	-20462.715000	-15634.440000	-21967.200000	-16114.905000	-3365.190000	-8063.820000	-12.459962	3.230517	-13.939912	-10.645020	7.559952	8.739345	-5.968505	-52.038845	-13.428800	-10.712520	3.143560	0.896543	-0.258239	0.342895	-1.000000	-1.000000	-1.000000	-1.000000	-1.000000	-1.000000	-1.000000	68.000000	0.000000	-1.000000	-1.000000	2841285.000000	1770067180.239708
-20596.185000	-13517.235000	-20336.040000	-15505.560000	-21878.010000	-16042.275000	-3323.880000	-8095.545000	4.477780	20.559347	8.704314	-4.148022	4.576625	3.194758	-6.035733	-21.949503	-13.428800	-10.712520	3.143560	0.896543	-0.258239	0.342895	-1.000000	-1.000000	-1.000000	-1.000000	-1.000000	-1.000000	-1.000000	68.000000	0.000000	-1.000000	-1.000000	2841286.000000	1770067180.239719
-20659.770000	-13477.185000	-20263.095000	-15398.685000	-21792.690000	-15979.680000	-3324.060000	-8346.015000	30.322468	46.432576	38.225858	13.266136	6.767311	2.906983	-1.088575	19.862581	-13.428800	-10.712520	3.143560	0.896543	-0.258239	0.342895	-1.000000	-1.000000	-1.000000	-1.000000	-1.000000	-1.000000	-1.000000	68.000000	0.000000	-1.000000	-1.000000	2841287.000000	1770067180.244961
-20669.355000	-13519.125000	-20302.380000	-15407.505000	-21808.440000	-15995.025000	-3341.475000	-8324.100000	43.474974	60.768074	58.020541	32.794275	14.398430	9.412693	5.807622	32.781134	-13.428800	-10.712520	3.143560	0.896543	-0.258239	0.342895	-1.000000	-1.000000	-1.000000	-1.000000	-1.000000	-1.000000	-1.000000	68.000000	0.000000	-1.000000	-1.000000	2841288.000000	1770067180.244968
-20670.840000	-13646.070000	-20448.540000	-15550.020000	-21930.840000	-16072.065000	-3340.800000	-8036.640000	29.420577	41.549012	48.848813	36.694508	16.753453	13.045829	8.605055	14.160149	-13.428800	-10.712520	3.143560	0.896543	-0.258239	0.342895	-1.000000	-1.000000	-1.000000	-1.000000	-1.000000	-1.000000	-1.000000	68.000000	0.000000	-1.000000	-1.000000	2841289.000000	1770067180.247808
-20697.795000	-13734.045000	-20552.445000	-15636.105000	-22005.180000	-16091.730000	-3295.755000	-7920.135000	-2.266656	-11.851553	5.287234	12.538602	1.176116	2.936492	5.888647	3.242885	-13.428800	-10.712520	3.143560	0.896543	-0.258239	0.342895	-1.000000	-1.000000	-1.000000	-1.000000	-1.000000	-1.000000	-1.000000	68.000000	0.000000	-1.000000	-1.000000	2841290.000000	1770067180.247814
-20685.195000	-13739.310000	-20545.875000	-15623.370000	-21991.635000	-16070.040000	-3285.360000	-7997.085000	-31.132787	-72.045531	-52.238717	-29.815375	-28.834227	-17.578198	2.000228	20.304559	-9.445940	-14.710640	3.509800	0.901426	-0.264221	0.346740	-1.000000	-1.000000	-1.000000	-1.000000	-1.000000	-1.000000	-1.000000	68.000000	0.000000	-1.000000	-1.000000	2841291.000000	1770067180.251715
-20703.735000	-13744.170000	-20518.965000	-15619.185000	-21961.845000	-16073.865000	-3310.245000	-8116.065000	-44.103201	-104.412662	-89.612513	-63.677420	-52.698445	-33.317577	-0.315615	38.980979	-9.445940	-14.710640	3.509800	0.901426	-0.264221	0.346740	-1.000000	-1.000000	-1.000000	-1.000000	-1.000000	-1.000000	-1.000000	68.000000	0.000000	-1.000000	-1.000000	2841292.000000	1770067180.251724
-20731.320000	-13683.780000	-20456.100000	-15565.005000	-21904.740000	-16054.425000	-3337.920000	-8286.255000	-39.635142	-91.549927	-84.258899	-66.551831	-50.181234	-32.180026	-2.741106	23.828053	-9.445940	-14.710640	3.509800	0.901426	-0.264221	0.346740	-1.000000	-1.000000	-1.000000	-1.000000	-1.000000	-1.000000	-1.000000	68.000000	0.000000	-1.000000	-1.000000	2841293.000000	1770067180.259590
-20786.400000	-13704.975000	-20465.415000	-15578.055000	-21920.445000	-16078.185000	-3384.810000	-8302.950000	-25.485669	-41.073387	-39.784498	-35.352267	-18.536959	-14.163885	-7.391623	-29.732006	-9.445940	-14.710640	3.509800	0.901426	-0.264221	0.346740	-1.000000	-1.000000	-1.000000	-1.000000	-1.000000	-1.000000	-1.000000	68.000000	0.000000	-1.000000	-1.000000	2841294.000000	1770067180.259598
-20748.330000	-13722.030000	-20488.680000	-15604.290000	-21957.480000	-16093.665000	-3354.570000	-8142.840000	-10.976612	19.877961	16.792141	9.831856	22.564469	8.775750	-13.328300	-85.272119	-9.445940	-14.710640	3.509800	0.901426	-0.264221	0.346740	-1.000000	-1.000000	-1.000000	-1.000000	-1.000000	-1.000000	-1.000000	68.000000	0.000000	-1.000000	-1.000000	2841295.000000	1770067180.261394
-20643.345000	-13622.940000	-20427.030000	-15555.015000	-21930.750000	-16059.870000	-3318.165000	-8062.605000	3.533808	62.904705	55.225073	40.688413	46.331135	22.352454	-15.340975	-91.537540	-9.445940	-14.710640	3.509800	0.901426	-0.264221	0.346740	-1.000000	-1.000000	-1.000000	-1.000000	-1.000000	-1.000000	-1.000000	68.000000	0.000000	-1.000000	-1.000000	2841296.000000	1770067180.261404
-20637.360000	-13567.995000	-20396.070000	-15533.820000	-21914.730000	-16056.675000	-3314.070000	-8061.705000	22.469223	78.594117	65.345649	46.365741	43.554551	22.832078	-8.297121	-35.917424	-9.445940	-14.710640	3.509800	0.901426	-0.264221	0.346740	-1.000000	-1.000000	-1.000000	-1.000000	-1.000000	-1.000000	-1.000000	68.000000	0.000000	-1.000000	-1.000000	2841297.000000	1770067180.263705
-20662.965000	-13619.430000	-20449.170000	-15568.245000	-21926.655000	-16074.495000	-3332.925000	-8096.265000	41.106367	73.708817	56.594075	37.347342	26.493354	16.637998	5.120656	37.596804	-9.445940	-14.710640	3.509800	0.901426	-0.264221	0.346740	-1.000000	-1.000000	-1.000000	-1.000000	-1.000000	-1.000000	-1.000000	68.000000	0.000000	-1.000000	-1.000000	2841298.000000	1770067180.263711
-20709.630000	-13682.295000	-20461.320000	-15572.295000	-21923.280000	-16056.135000	-3335.625000	-8211.375000	46.458205	54.104974	39.588360	26.246932	10.460750	9.956210	15.268016	73.751727	-9.445940	-14.710640	3.509800	0.901426	-0.264221	0.346740	-1.000000	-1.000000	-1.000000	-1.000000	-1.000000	-1.000000	-1.000000	68.000000	0.000000	-1.000000	-1.000000	2841299.000000	1770067180.273946
-20801.295000	-13754.430000	-20483.730000	-15598.125000	-21946.365000	-16063.830000	-3353.535000	-8311.140000	29.859156	20.380423	17.164853	14.983198	-0.347343	4.103545	15.218684	55.361822	-9.445940	-14.710640	3.509800	0.901426	-0.264221	0.346740	-1.000000	-1.000000	-1.000000	-1.000000	-1.000000	-1.000000	-1.000000	68.000000	0.000000	-1.000000	-1.000000	2841300.000000	1770067180.273957
-20737.665000	-13742.730000	-20490.255000	-15630.120000	-21971.070000	-16074.270000	-3325.095000	-8119.440000	-2.822123	-22.538377	-10.339766	-0.538990	-10.338368	-1.973973	7.368741	11.198124	-2.105880	-23.881900	-3.219860	0.901609	-0.269958	0.356322	-1.000000	-1.000000	-1.000000	-1.000000	-1.000000	-1.000000	-1.000000	68.000000	0.000000	-1.000000	-1.000000	2841301.000000	1770067180.273970
-20615.445000	-13643.820000	-20421.720000	-15578.190000	-21923.955000	-16031.880000	-3278.655000	-7964.595000	-30.023095	-58.197697	-36.679509	-19.172904	-21.112488	-7.500149	0.878513	-12.591836	-2.105880	-23.881900	-3.219860	0.901609	-0.269958	0.356322	-1.000000	-1.000000	-1.000000	-1.000000	-1.000000	-1.000000	-1.000000	68.000000	0.000000	-1.000000	-1.000000	2841302.000000	1770067180.273975
-20645.910000	-13645.620000	-20431.845000	-15584.175000	-21940.740000	-16041.015000	-3295.035000	-8059.230000	-32.513781	-67.456491	-49.951485	-31.937291	-26.838924	-9.313406	1.868702	1.322379	-2.105880	-23.881900	-3.219860	0.901609	-0.269958	0.356322	-1.000000	-1.000000	-1.000000	-1.000000	-1.000000	-1.000000	-1.000000	68.000000	0.000000	-1.000000	-1.000000	2841303.000000	1770067180.275604
-20701.890000	-13663.755000	-20443.050000	-15588.180000	-21951.315000	-16054.650000	-3321.810000	-8157.690000	-15.312571	-47.414687	-44.185397	-32.109792	-22.733218	-7.129308	5.765744	24.175724	-2.105880	-23.881900	-3.219860	0.901609	-0.269958	0.356322	-1.000000	-1.000000	-1.000000	-1.000000	-1.000000	-1.000000	-1.000000	68.000000	0.000000	-1.000000	-1.000000	2841304.000000	1770067180.275610
-20688.255000	-13641.255000	-20417.625000	-15558.120000	-21930.255000	-16060.905000	-3326.355000	-8120.160000	-0.283195	-14.887646	-25.312011	-21.861616	-11.420079	-5.062932	3.427666	20.477889	-2.105880	-23.881900	-3.219860	0.901609	-0.269958	0.356322	-1.000000	-1.000000	-1.000000	-1.000000	-1.000000	-1.000000	-1.000000	68.000000	0.000000	-1.000000	-1.000000	2841305.000000	1770067180.286663
-20657.295000	-13622.130000	-20381.355000	-15515.415000	-21883.680000	-16025.670000	-3296.070000	-8055.180000	1.377657	11.900899	-2.232412	-5.894586	2.488685	-4.793370	-6.002609	-10.318925	-2.105880	-23.881900	-3.219860	0.901609	-0.269958	0.356322	-1.000000	-1.000000	-1.000000	-1.000000	-1.000000	-1.000000	-1.000000	68.000000	0.000000	-1.000000	-1.000000	2841306.000000	1770067180.286674
-20651.895000	-13642.065000	-20418.840000	-15544.620000	-21885.390000	-16019.910000	-3290.175000	-8058.915000	-2.692397	27.331061	19.730341	12.540486	16.299420	-3.014184	-14.276777	-40.797437	-2.105880	-23.881900	-3.219860	0.901609	-0.269958	0.356322	-1.000000	-1.000000	-1.000000	-1.000000	-1.000000	-1.000000	-1.000000	68.000000	0.000000	-1.000000	-1.000000	2841307.000000	1770067180.286686
-20664.495000	-13545.180000	-20397.780000	-15533.550000	-21880.845000	-16040.340000	-3346.740000	-8306.820000	-1.584270	34.935410	34.827945	27.158560	25.665039	1.477613	-15.286097	-49.435372	-2.105880	-23.881900	-3.219860	0.901609	-0.269958	0.356322	-1.000000	-1.000000	-1.000000	-1.000000	-1.000000	-1.000000	-1.000000	68.000000	0.000000	-1.000000	-1.000000	2841308.000000	1770067180.286691
-20759.625000	-13591.845000	-20481.480000	-15629.040000	-21972.915000	-16121.475000	-3416.265000	-8369.640000	5.176970	37.685368	35.750457	29.293559	24.086624	3.962786	-11.614698	-38.649307	-2.105880	-23.881900	-3.219860	0.901609	-0.269958	0.356322	-1.000000	-1.000000	-1.000000	-1.000000	-1.000000	-1.000000	-1.000000	68.000000	0.000000	-1.000000	-1.000000	2841309.000000	1770067180.287738
-20711.385000	-13656.105000	-20546.190000	-15688.845000	-22018.455000	-16134.480000	-3374.280000	-8096.715000	8.699791	30.392829	18.418735	14.581326	8.242038	-0.216026	-8.345325	-19.872394	-2.105880	-23.881900	-3.219860	0.901609	-0.269958	0.356322	-1.000000	-1.000000	-1.000000	-1.000000	-1.000000	-1.000000	-1.000000	68.000000	0.000000	-1.000000	-1.000000	2841310.000000	1770067180.287744
-20637.270000	-13603.230000	-20478.015000	-15604.470000	-21935.520000	-16054.290000	-3326.310000	-8112.645000	4.007176	6.740368	-11.089208	-10.540219	-15.072754	-7.757636	-4.533278	4.278714	-1.938020	-15.229480	-1.220800	0.909483	-0.273559	0.337768	-1.000000	-1.000000	-1.000000	-1.000000	-1.000000	-1.000000	-1.000000	68.000000	0.000000	-1.000000	-1.000000	2841311.000000	1770067180.291668
-20658.150000	-13598.010000	-20470.140000	-15585.480000	-21915.495000	-16028.820000	-3294.855000	-8102.340000	-2.498794	-24.437134	-34.561836	-29.015489	-29.418284	-8.733503	4.425224	31.748040	-1.938020	-15.229480	-1.220800	0.909483	-0.273559	0.337768	-1.000000	-1.000000	-1.000000	-1.000000	-1.000000	-1.000000	-1.000000	68.000000	0.000000	-1.000000	-1.000000	2841312.000000	1770067180.291674
-20668.455000	-13601.925000	-20499.210000	-15648.120000	-21992.895000	-16093.080000	-3313.170000	-8011.125000	-3.602009	-44.384892	-36.647860	-28.865971	-24.951003	0.476561	17.531474	53.613551	-1.938020	-15.229480	-1.220800	0.909483	-0.273559	0.337768	-1.000000	-1.000000	-1.000000	-1.000000	-1.000000	-1.000000	-1.000000	68.000000	0.000000	-1.000000	-1.000000	2841313.000000	1770067180.297232
-20686.680000	-13673.880000	-20502.495000	-15659.370000	-22020.525000	-16099.200000	-3317.625000	-8059.140000	-0.840894	-44.589840	-19.655663	-15.393197	-9.813100	11.129012	26.276824	59.148571	-1.938020	-15.229480	-1.220800	0.909483	-0.273559	0.337768	-1.000000	-1.000000	-1.000000	-1.000000	-1.000000	-1.000000	-1.000000	68.000000	0.000000	-1.000000	-1.000000	2841314.000000	1770067180.297243
-20716.650000	-13709.970000	-20496.870000	-15673.140000	-22045.455000	-16077.600000	-3307.680000	-8107.740000	0.120246	-30.466652	3.562828	-0.541869	2.072707	13.854787	23.001883	39.595289	-1.938020	-15.229480	-1.220800	0.909483	-0.273559	0.337768	-1.000000	-1.000000	-1.000000	-1.000000	-1.000000	-1.000000	-1.000000	68.000000	0.000000	-1.000000	-1.000000	2841315.000000	1770067180.299714
-20693.700000	-13690.890000	-20505.420000	-15686.595000	-22046.265000	-16086.195000	-3312.765000	-8073.045000	-2.245258	-10.421904	22.467448	9.907521	5.918150	8.522425	8.868206	0.737825	-1.938020	-15.229480	-1.220800	0.909483	-0.273559	0.337768	-1.000000	-1.000000	-1.000000	-1.000000	-1.000000	-1.000000	-1.000000	68.000000	0.000000	-1.000000	-1.000000	2841316.000000	1770067180.299721
-20700.135000	-13734.585000	-20493.270000	-15644.880000	-21994.560000	-16079.445000	-3304.980000	-8070.390000	-3.098195	9.189168	31.540892	16.397367	6.869857	1.222044	-6.714586	-30.931575	-1.938020	-15.229480	-1.220800	0.909483	-0.273559	0.337768	-1.000000	-1.000000	-1.000000	-1.000000	-1.000000	-1.000000	-1.000000	68.000000	0.000000	-1.000000	-1.000000	2841317.000000	1770067180.312336
-20708.010000	-13718.565000	-20449.035000	-15600.240000	-21961.485000	-16075.620000	-3312.540000	-8093.160000	1.949197	23.542462	30.900996	22.662046	13.077320	-1.651058	-14.364316	-36.511694	-1.938020	-15.229480	-1.220800	0.909483	-0.273559	0.337768	-1.000000	-1.000000	-1.000000	-1.000000	-1.000000	-1.000000	-1.000000	68.000000	0.000000	-1.000000	-1.000000	2841318.000000	1770067180.312350
-20714.445000	-13632.165000	-20417.715000	-15593.040000	-21969.405000	-16082.235000	-3338.820000	-8220.465000	8.360271	31.752787	24.689549	29.538007	24.850826	0.810261	-13.840757	-29.838193	-1.938020	-15.229480	-1.220800	0.909483	-0.273559	0.337768	-1.000000	-1.000000	-1.000000	-1.000000	-1.000000	-1.000000	-1.000000	68.000000	0.000000	-1.000000	-1.000000	2841319.000000	1770067180.312364
-20758.005000	-13624.605000	-20453.265000	-15643.755000	-22011.255000	-16084.305000	-3364.380000	-8326.755000	6.881318	34.895003	13.792921	28.571809	30.095386	2.273359	-12.601213	-33.815322	-1.938020	-15.229480	-1.220800	0.909483	-0.273559	0.337768	-1.000000	-1.000000	-1.000000	-1.000000	-1.000000	-1.000000	-1.000000	68.000000	0.000000	-1.000000	-1.000000	2841320.000000	1770067180.312369
-20707.155000	-13683.420000	-20561.850000	-15789.240000	-22101.975000	-16113.870000	-3314.655000	-8081.730000	-2.909326	30.218909	-4.822374	9.609121	16.997829	-2.492414	-14.012102	-43.632897	2.472120	-7.172200	-14.069720	0.920652	-0.319884	0.286254	-1.000000	-1.000000	-1.000000	-1.000000	-1.000000	-1.000000	-1.000000	68.000000	0.000000	-1.000000	-1.000000	2841321.000000	1770067180.317006
-20630.610000	-13674.105000	-20587.995000	-15822.315000	-22103.595000	-16098.615000	-3270.645000	-7985.880000	-9.735490	14.809980	-29.296614	-24.236909	-10.482529	-10.002313	-12.200513	-33.140595	2.472120	-7.172200	-14.069720	0.920652	-0.319884	0.286254	-1.000000	-1.000000	-1.000000	-1.000000	-1.000000	-1.000000	-1.000000	68.000000	0.000000	-1.000000	-1.000000	2841322.000000	1770067180.317019
-20673.495000	-13705.830000	-20572.380000	-15776.145000	-22062.510000	-16083.855000	-3288.015000	-8072.865000	-4.587763	-5.879662	-48.043695	-53.238838	-33.901830	-12.539950	-2.087796	5.997539	2.472120	-7.172200	-14.069720	0.920652	-0.319884	0.286254	-1.000000	-1.000000	-1.000000	-1.000000	-1.000000	-1.000000	-1.000000	68.000000	0.000000	-1.000000	-1.000000	2841323.000000	1770067180.317031
-20686.995000	-13677.975000	-20509.920000	-15667.920000	-21984.120000	-16079.670000	-3333.600000	-8108.910000	7.539552	-20.812049	-46.694525	-54.397536	-35.807466	-7.416127	10.729011	49.586002	2.472120	-7.172200	-14.069720	0.920652	-0.319884	0.286254	-1.000000	-1.000000	-1.000000	-1.000000	-1.000000	-1.000000	-1.000000	68.000000	0.000000	-1.000000	-1.000000	2841324.000000	1770067180.317037
-20714.805000	-13697.460000	-20481.210000	-15590.565000	-21934.890000	-16084.710000	-3348.090000	-8115.615000	14.387013	-23.988253	-21.060449	-20.913810	-13.934612	1.445257	16.205514	68.792938	2.472120	-7.172200	-14.069720	0.920652	-0.319884	0.286254	-1.000000	-1.000000	-1.000000	-1.000000	-1.000000	-1.000000	-1.000000	68.000000	0.000000	-1.000000	-1.000000	2841325.000000	1770067180.321082
-20704.545000	-13694.130000	-20466.810000	-15593.760000	-21921.210000	-16061.760000	-3321.180000	-8106.570000	10.475303	-17.536830	16.715313	28.958385	16.926719	9.070522	12.173107	56.339304	2.472120	-7.172200	-14.069720	0.920652	-0.319884	0.286254	-1.000000	-1.000000	-1.000000	-1.000000	-1.000000	-1.000000	-1.000000	68.000000	0.000000	-1.000000	-1.000000	2841326.000000	1770067180.321094
-20705.850000	-13620.555000	-20436.390000	-15622.920000	-21984.120000	-16093.575000	-3352.140000	-8169.480000	0.021076	-6.687822	45.926660	63.355576	35.510768	12.483428	4.370524	22.633535	2.472120	-7.172200	-14.069720	0.920652	-0.319884	0.286254	-1.000000	-1.000000	-1.000000	-1.000000	-1.000000	-1.000000	-1.000000	68.000000	0.000000	-1.000000	-1.000000	2841327.000000	1770067180.324808
-20706.525000	-13635.540000	-20465.055000	-15647.130000	-22048.020000	-16114.680000	-3352.770000	-8166.240000	-9.976106	2.855503	51.262147	60.481349	28.406996	9.383733	-2.004973	-14.983174	2.472120	-7.172200	-14.069720	0.920652	-0.319884	0.286254	-1.000000	-1.000000	-1.000000	-1.000000	-1.000000	-1.000000	-1.000000	68.000000	0.000000	-1.000000	-1.000000	2841328.000000	1770067180.324815
-20718.180000	-13734.495000	-20514.870000	-15684.210000	-22042.755000	-16088.760000	-3310.560000	-8127.855000	-14.658978	4.864094	31.654647	24.632712	0.557820	0.407947	-4.702915	-38.417647	2.472120	-7.172200	-14.069720	0.920652	-0.319884	0.286254	-1.000000	-1.000000	-1.000000	-1.000000	-1.000000	-1.000000	-1.000000	68.000000	0.000000	-1.000000	-1.000000	2841329.000000	1770067180.334045
-20711.925000	-13727.970000	-20519.505000	-15724.800000	-22061.700000	-16111.530000	-3329.820000	-8135.460000	-13.396322	-2.278734	0.547548	-18.977769	-26.981481	-8.247189	-3.751902	-42.610877	2.472120	-7.172200	-14.069720	0.920652	-0.319884	0.286254	-1.000000	-1.000000	-1.000000	-1.000000	-1.000000	-1.000000	-1.000000	68.000000	0.000000	-1.000000	-1.000000	2841330.000000	1770067180.334056
-20656.350000	-13653.765000	-20466.135000	-15699.150000	-22053.105000	-16107.705000	-3329.820000	-8081.820000	-8.540361	-10.051314	-23.258317	-45.358677	-35.709993	-10.949829	-2.236449	-35.895299	23.851380	-0.473060	-28.032620	0.912168	-0.346557	0.283630	-1.000000	-1.000000	-1.000000	-1.000000	-1.000000	-1.000000	-1.000000	68.000000	0.000000	-1.000000	-1.000000	2841331.000000	1770067180.334066
-20608.650000	-13534.965000	-20377.440000	-15631.245000	-22020.030000	-16102.845000	-3321.810000	-8073.045000	0.040087	-5.485959	-28.048496	-45.562878	-24.206222	-8.024455	-2.147524	-21.509381	23.851380	-0.473060	-28.032620	0.912168	-0.346557	0.283630	-1.000000	-1.000000	-1.000000	-1.000000	-1.000000	-1.000000	-1.000000	68.000000	0.000000	-1.000000	-1.000000	2841332.000000	1770067180.334072
-20635.245000	-13532.490000	-20346.390000	-15577.155000	-22011.030000	-16107.885000	-3308.490000	-8120.295000	12.445723	13.800000	-15.412575	-26.382768	-3.963114	-2.710514	-0.957123	1.186510	23.851380	-0.473060	-28.032620	0.912168	-0.346557	0.283630	-1.000000	-1.000000	-1.000000	-1.000000	-1.000000	-1.000000	-1.000000	68.000000	0.000000	-1.000000	-1.000000	2841333.000000	1770067180.352579
-20700.990000	-13622.895000	-20373.570000	-15561.270000	-21977.325000	-16079.400000	-3288.195000	-8198.325000	21.489884	32.559961	1.872495	-1.990470	12.244011	2.648374	3.671928	22.686020	23.851380	-0.473060	-28.032620	0.912168	-0.346557	0.283630	-1.000000	-1.000000	-1.000000	-1.000000	-1.000000	-1.000000	-1.000000	68.000000	0.000000	-1.000000	-1.000000	2841334.000000	1770067180.352588
-20675.115000	-13642.695000	-20413.755000	-15593.040000	-22009.140000	-16087.860000	-3307.905000	-8099.820000	18.399091	31.134251	9.055237	14.951768	18.404701	6.932698	9.038336	30.773648	23.851380	-0.473060	-28.032620	0.912168	-0.346557	0.283630	-1.000000	-1.000000	-1.000000	-1.000000	-1.000000	-1.000000	-1.000000	68.000000	0.000000	-1.000000	-1.000000	2841335.000000	1770067180.352598
-20621.160000	-13609.935000	-20428.020000	-15606.180000	-22023.495000	-16088.940000	-3311.865000	-8046.450000	4.809150	5.511392	0.471372	18.877517	16.106993	9.155362	10.061519	26.978490	23.851380	-0.473060	-28.032620	0.912168	-0.346557	0.283630	-1.000000	-1.000000	-1.000000	-1.000000	-1.000000	-1.000000	-1.000000	68.000000	0.000000	-1.000000	-1.000000	2841336.000000	1770067180.352603
-20684.790000	-13715.370000	-20499.795000	-15663.645000	-21995.235000	-16084.710000	-3320.370000	-8092.845000	-9.179984	-28.750588	-16.501416	11.775000	10.910511	8.409609	4.734836	20.567064	23.851380	-0.473060	-28.032620	0.912168	-0.346557	0.283630	-1.000000	-1.000000	-1.000000	-1.000000	-1.000000	-1.000000	-1.000000	68.000000	0.000000	-1.000000	-1.000000	2841337.000000	1770067180.352609
-20714.670000	-13768.155000	-20516.670000	-15658.425000	-21957.525000	-16069.365000	-3307.365000	-8078.805000	-17.477933	-50.848967	-27.910281	1.162988	8.392891	4.970690	-4.774424	11.505446	23.851380	-0.473060	-28.032620	0.912168	-0.346557	0.283630	-1.000000	-1.000000	-1.000000	-1.000000	-1.000000	-1.000000	-1.000000	68.000000	0.000000	-1.000000	-1.000000	2841338.000000	1770067180.352614
-20699.145000	-13685.040000	-20486.385000	-15632.955000	-21960.540000	-16075.170000	-3308.625000	-8089.380000	-20.618242	-48.708351	-23.880502	-3.916460	9.716343	0.612566	-13.548498	-5.141028	23.851380	-0.473060	-28.032620	0.912168	-0.346557	0.283630	-1.000000	-1.000000	-1.000000	-1.000000	-1.000000	-1.000000	-1.000000	68.000000	0.000000	-1.000000	-1.000000	2841339.000000	1770067180.352620
-20691.135000	-13654.305000	-20470.590000	-15646.725000	-22020.210000	-16102.215000	-3321.945000	-8109.405000	-19.255435	-23.517827	-5.858744	-1.002504	9.022220	-3.529013	-16.630448	-25.427816	23.851380	-0.473060	-28.032620	0.912168	-0.346557	0.283630	-1.000000	-1.000000	-1.000000	-1.000000	-1.000000	-1.000000	-1.000000	68.000000	0.000000	-1.000000	-1.000000	2841340.000000	1770067180.352624
-20694.870000	-13684.770000	-20480.220000	-15687.090000	-22120.560000	-16134.795000	-3324.690000	-8114.805000	-12.735968	10.110580	14.185695	1.926637	-2.347306	-8.173373	-12.672604	-37.960044	9.552760	-11.918060	-6.668620	0.898618	-0.299194	0.296447	-1.000000	-1.000000	-1.000000	-1.000000	-1.000000	-1.000000	-1.000000	68.000000	0.000000	-1.000000	-1.000000	2841341.000000	1770067180.352630
-20688.435000	-13686.525000	-20497.095000	-15764.040000	-22236.480000	-16162.920000	-3321.225000	-8107.695000	-1.074973	33.836161	23.935321	-4.686458	-26.426521	-13.370260	-4.229817	-33.173340	9.552760	-11.918060	-6.668620	0.898618	-0.299194	0.296447	-1.000000	-1.000000	-1.000000	-1.000000	-1.000000	-1.000000	-1.000000	68.000000	0.000000	-1.000000	-1.000000	2841342.000000	1770067180.352635
-20664.720000	-13657.545000	-20489.715000	-15820.020000	-22260.240000	-16180.335000	-3325.545000	-8104.365000	14.125430	41.159156	21.293352	-20.092604	-52.438954	-16.978590	4.521265	-11.227280	9.552760	-11.918060	-6.668620	0.898618	-0.299194	0.296447	-1.000000	-1.000000	-1.000000	-1.000000	-1.000000	-1.000000	-1.000000	68.000000	0.000000	-1.000000	-1.000000	2841343.000000	1770067180.355882
-20662.380000	-13657.005000	-20479.815000	-15814.665000	-22173.030000	-16163.145000	-3329.145000	-8114.445000	27.105543	36.277572	13.508510	-31.640589	-59.454793	-15.460295	10.291991	14.733265	9.552760	-11.918060	-6.668620	0.898618	-0.299194	0.296447	-1.000000	-1.000000	-1.000000	-1.000000	-1.000000	-1.000000	-1.000000	68.000000	0.000000	-1.000000	-1.000000	2841344.000000	1770067180.355893
-20676.285000	-13648.410000	-20447.640000	-15682.320000	-21992.580000	-16105.500000	-3327.570000	-8126.190000	29.442064	23.489681	8.598020	-23.722811	-30.164581	-5.541095	12.152592	28.444373	9.552760	-11.918060	-6.668620	0.898618	-0.299194	0.296447	-1.000000	-1.000000	-1.000000	-1.000000	-1.000000	-1.000000	-1.000000	68.000000	0.000000	-1.000000	-1.000000	2841345.000000	1770067180.363448
-20687.715000	-13630.815000	-20403.855000	-15516.405000	-21834.900000	-16058.475000	-3332.475000	-8139.780000	18.944617	8.609129	10.631076	10.732211	31.200142	11.950584	10.350050	24.612323	9.552760	-11.918060	-6.668620	0.898618	-0.299194	0.296447	-1.000000	-1.000000	-1.000000	-1.000000	-1.000000	-1.000000	-1.000000	68.000000	0.000000	-1.000000	-1.000000	2841346.000000	1770067180.363457
-20687.310000	-13638.105000	-20396.790000	-15474.195000	-21813.615000	-16043.670000	-3329.685000	-8141.490000	2.261756	-1.510729	17.361525	59.871591	94.244565	29.612413	5.384507	9.396754	9.552760	-11.918060	-6.668620	0.898618	-0.299194	0.296447	-1.000000	-1.000000	-1.000000	-1.000000	-1.000000	-1.000000	-1.000000	68.000000	0.000000	-1.000000	-1.000000	2841347.000000	1770067180.365194
-20711.070000	-13661.325000	-20406.690000	-15485.940000	-21849.210000	-16039.665000	-3327.345000	-8152.155000	-12.956833	-8.469446	19.144419	92.881083	119.815581	37.344929	-0.762486	-6.959177	9.552760	-11.918060	-6.668620	0.898618	-0.299194	0.296447	-1.000000	-1.000000	-1.000000	-1.000000	-1.000000	-1.000000	-1.000000	68.000000	0.000000	-1.000000	-1.000000	2841348.000000	1770067180.365203
-20718.180000	-13654.575000	-20405.430000	-15515.505000	-21863.475000	-16027.515000	-3320.595000	-8159.265000	-22.802722	-18.575698	7.174776	81.789265	88.808136	30.079067	-4.802712	-15.545721	9.552760	-11.918060	-6.668620	0.898618	-0.299194	0.296447	-1.000000	-1.000000	-1.000000	-1.000000	-1.000000	-1.000000	-1.000000	68.000000	0.000000	-1.000000	-1.000000	2841349.000000	1770067180.375881
-20710.890000	-13643.505000	-20419.425000	-15580.980000	-21922.065000	-16049.520000	-3318.480000	-8156.835000	-24.865477	-29.538684	-15.828627	26.108774	16.983589	11.318503	-4.851847	-12.790075	9.552760	-11.918060	-6.668620	0.898618	-0.299194	0.296447	-1.000000	-1.000000	-1.000000	-1.000000	-1.000000	-1.000000	-1.000000	68.000000	0.000000	-1.000000	-1.000000	2841350.000000	1770067180.375891
-20713.005000	-13660.830000	-20415.780000	-15604.785000	-21975.480000	-16076.790000	-3318.930000	-8146.665000	-17.713463	-31.968796	-36.839679	-45.992115	-58.764157	-10.881312	-2.164815	-1.492964	-17.365880	-12.467420	-1.693860	0.904478	-0.286254	0.305907	-1.000000	-1.000000	-1.000000	-1.000000	-1.000000	-1.000000	-1.000000	68.000000	0.000000	-1.000000	-1.000000	2841351.000000	1770067180.375901
-20710.665000	-13701.915000	-20427.795000	-15618.105000	-22058.955000	-16120.440000	-3319.335000	-8130.645000	-4.296989	-22.623441	-43.495178	-97.100178	-106.798570	-29.303209	0.517890	11.172324	-17.365880	-12.467420	-1.693860	0.904478	-0.286254	0.305907	-1.000000	-1.000000	-1.000000	-1.000000	-1.000000	-1.000000	-1.000000	68.000000	0.000000	-1.000000	-1.000000	2841352.000000	1770067180.375906
-20679.795000	-13672.845000	-20447.055000	-15665.580000	-22122.585000	-16152.795000	-3328.425000	-8126.550000	8.865374	-7.515294	-33.268818	-105.349116	-116.697989	-39.713623	1.518436	17.857280	-17.365880	-12.467420	-1.693860	0.904478	-0.286254	0.305907	-1.000000	-1.000000	-1.000000	-1.000000	-1.000000	-1.000000	-1.000000	68.000000	0.000000	-1.000000	-1.000000	2841353.000000	1770067180.375998
-20700.045000	-13656.465000	-20451.645000	-15696.405000	-22150.035000	-16177.995000	-3339.855000	-8145.630000	17.161673	7.501872	-13.226499	-76.975126	-96.909358	-40.993629	0.427758	15.499528	-17.365880	-12.467420	-1.693860	0.904478	-0.286254	0.305907	-1.000000	-1.000000	-1.000000	-1.000000	-1.000000	-1.000000	-1.000000	68.000000	0.000000	-1.000000	-1.000000	2841354.000000	1770067180.376009
-20701.080000	-13683.285000	-20460.555000	-15678.945000	-22102.920000	-16159.275000	-3328.830000	-8139.330000	19.069704	19.888623	6.831998	-34.418843	-60.036547	-33.239563	-2.132479	5.896656	-17.365880	-12.467420	-1.693860	0.904478	-0.286254	0.305907	-1.000000	-1.000000	-1.000000	-1.000000	-1.000000	-1.000000	-1.000000	68.000000	0.000000	-1.000000	-1.000000	2841355.000000	1770067180.380034
-20660.310000	-13666.995000	-20459.295000	-15615.495000	-21993.570000	-16115.220000	-3327.795000	-8121.960000	15.060922	26.008984	19.892723	5.709093	-11.123994	-15.778512	-4.206690	-5.780231	-17.365880	-12.467420	-1.693860	0.904478	-0.286254	0.305907	-1.000000	-1.000000	-1.000000	-1.000000	-1.000000	-1.000000	-1.000000	68.000000	0.000000	-1.000000	-1.000000	2841356.000000	1770067180.380046
-20674.890000	-13646.835000	-20422.395000	-15513.030000	-21863.430000	-16058.925000	-3330.315000	-8137.260000	7.911955	23.259960	24.192852	40.070145	48.091280	10.375442	-4.036227	-13.390315	-17.365880	-12.467420	-1.693860	0.904478	-0.286254	0.305907	-1.000000	-1.000000	-1.000000	-1.000000	-1.000000	-1.000000	-1.000000	68.000000	0.000000	-1.000000	-1.000000	2841357.000000	1770067180.383774
-20717.190000	-13664.340000	-20407.185000	-15474.060000	-21816.495000	-16034.805000	-3321.810000	-8150.310000	-0.180410	13.546461	22.579453	68.807723	105.821142	38.304118	-1.676943	-14.176323	-17.365880	-12.467420	-1.693860	0.904478	-0.286254	0.305907	-1.000000	-1.000000	-1.000000	-1.000000	-1.000000	-1.000000	-1.000000	68.000000	0.000000	-1.000000	-1.000000	2841358.000000	1770067180.383782
-20735.865000	-13666.590000	-20408.715000	-15504.930000	-21841.155000	-16022.700000	-3312.495000	-8159.040000	-9.126770	1.061058	18.379806	85.141273	138.158026	56.515226	1.648443	-10.040439	-17.365880	-12.467420	-1.693860	0.904478	-0.286254	0.305907	-1.000000	-1.000000	-1.000000	-1.000000	-1.000000	-1.000000	-1.000000	68.000000	0.000000	-1.000000	-1.000000	2841359.000000	1770067180.388486
-20732.715000	-13655.835000	-20391.930000	-15519.555000	-21857.130000	-16010.955000	-3305.790000	-8172.360000	-17.133904	-9.159201	12.735596	78.036083	124.788373	56.196316	4.626741	-4.833660	-17.365880	-12.467420	-1.693860	0.904478	-0.286254	0.305907	-1.000000	-1.000000	-1.000000	-1.000000	-1.000000	-1.000000	-1.000000	68.000000	0.000000	-1.000000	-1.000000	2841360.000000	1770067180.388497
-20688.210000	-13648.995000	-20399.040000	-15542.595000	-21878.190000	-16024.320000	-3307.860000	-8164.395000	-19.598505	-12.747935	5.894642	44.470003	66.613472	37.014857	6.161017	-1.530517	0.854560	22.783180	1.403920	0.938108	-0.269470	0.270507	-1.000000	-1.000000	-1.000000	-1.000000	-1.000000	-1.000000	-1.000000	68.000000	0.000000	-1.000000	-1.000000	2841361.000000	1770067180.393008
-20694.015000	-13672.530000	-20421.810000	-15541.560000	-21870.360000	-16020.315000	-3303.945000	-8162.865000	-13.445196	-10.158850	-1.721277	-4.148911	-12.936249	6.518739	5.655107	-0.008216	0.854560	22.783180	1.403920	0.938108	-0.269470	0.270507	-1.000000	-1.000000	-1.000000	-1.000000	-1.000000	-1.000000	-1.000000	68.000000	0.000000	-1.000000	-1.000000	2841362.000000	1770067180.393020
-20729.295000	-13716.855000	-20444.220000	-15541.290000	-21867.075000	-16022.115000	-3318.795000	-8177.940000	-1.345694	-6.564337	-9.707395	-48.377548	-82.333922	-24.114316	3.098735	1.786740	0.854560	22.783180	1.403920	0.938108	-0.269470	0.270507	-1.000000	-1.000000	-1.000000	-1.000000	-1.000000	-1.000000	-1.000000	68.000000	0.000000	-1.000000	-1.000000	2841363.000000	1770067180.395845
-20774.565000	-13740.795000	-20450.790000	-15555.600000	-21889.980000	-16026.525000	-3324.960000	-8194.185000	8.707986	-6.096591	-16.730189	-72.705827	-118.707685	-45.017933	-1.251646	3.835907	0.854560	22.783180	1.403920	0.938108	-0.269470	0.270507	-1.000000	-1.000000	-1.000000	-1.000000	-1.000000	-1.000000	-1.000000	68.000000	0.000000	-1.000000	-1.000000	2841364.000000	1770067180.395854
-20780.505000	-13716.990000	-20433.825000	-15551.685000	-21900.195000	-16032.060000	-3326.085000	-8194.815000	9.819195	-7.889152	-19.936547	-72.757361	-116.472588	-51.573382	-6.202037	4.321605	0.854560	22.783180	1.403920	0.938108	-0.269470	0.270507	-1.000000	-1.000000	-1.000000	-1.000000	-1.000000	-1.000000	-1.000000	68.000000	0.000000	-1.000000	-1.000000	2841365.000000	1770067180.401044
-20699.100000	-13643.460000	-20416.635000	-15553.755000	-21922.740000	-16062.840000	-3332.340000	-8186.310000	4.629921	-6.746212	-16.993630	-53.769668	-84.578833	-44.988747	-9.320566	3.530410	0.854560	22.783180	1.403920	0.938108	-0.269470	0.270507	-1.000000	-1.000000	-1.000000	-1.000000	-1.000000	-1.000000	-1.000000	68.000000	0.000000	-1.000000	-1.000000	2841366.000000	1770067180.401050
-20622.555000	-13619.385000	-20426.175000	-15564.465000	-21911.715000	-16055.280000	-3330.270000	-8163.315000	4.279171	2.089673	-8.522025	-24.291117	-36.772735	-29.331331	-8.891035	4.029180	0.854560	22.783180	1.403920	0.938108	-0.269470	0.270507	-1.000000	-1.000000	-1.000000	-1.000000	-1.000000	-1.000000	-1.000000	68.000000	0.000000	-1.000000	-1.000000	2841367.000000	1770067180.403845
-20680.200000	-13647.285000	-20440.080000	-15571.215000	-21911.445000	-16040.520000	-3302.820000	-8134.470000	13.436245	15.733951	1.751032	8.035841	15.100570	-8.210340	-4.909953	7.222444	0.854560	22.783180	1.403920	0.938108	-0.269470	0.270507	-1.000000	-1.000000	-1.000000	-1.000000	-1.000000	-1.000000	-1.000000	68.000000	0.000000	-1.000000	-1.000000	2841368.000000	1770067180.403851
-20758.500000	-13672.260000	-20457.045000	-15579.045000	-21918.105000	-16041.735000	-3302.055000	-8154.900000	20.542216	23.609362	9.082424	35.864723	59.617462	14.595079	1.531200	10.784966	0.854560	22.783180	1.403920	0.938108	-0.269470	0.270507	-1.000000	-1.000000	-1.000000	-1.000000	-1.000000	-1.000000	-1.000000	68.000000	0.000000	-1.000000	-1.000000	2841369.000000	1770067180.409503
-20713.680000	-13662.270000	-20463.930000	-15590.655000	-21934.755000	-16056.000000	-3313.080000	-8146.080000	11.970020	18.158564	11.109253	51.572708	84.240111	32.927800	7.789006	9.978780	0.854560	22.783180	1.403920	0.938108	-0.269470	0.270507	-1.000000	-1.000000	-1.000000	-1.000000	-1.000000	-1.000000	-1.000000	68.000000	0.000000	-1.000000	-1.000000	2841370.000000	1770067180.409513
-20717.055000	-13622.445000	-20434.140000	-15573.105000	-21923.865000	-16046.640000	-3311.640000	-8158.365000	-8.540774	3.650656	9.905271	50.535628	80.782272	40.257888	10.492548	2.916596	3.708180	38.470460	29.436540	0.949338	-0.246398	0.267700	-1.000000	-1.000000	-1.000000	-1.000000	-1.000000	-1.000000	-1.000000	68.000000	0.000000	-1.000000	-1.000000	2841371.000000	1770067180.420781
-20721.735000	-13622.085000	-20431.575000	-15568.605000	-21909.960000	-16035.885000	-3308.040000	-8168.355000	-24.556648	-8.212134	9.369728	34.593271	52.326187	34.496451	8.591300	-7.115044	3.708180	38.470460	29.436540	0.949338	-0.246398	0.267700	-1.000000	-1.000000	-1.000000	-1.000000	-1.000000	-1.000000	-1.000000	68.000000	0.000000	-1.000000	-1.000000	2841372.000000	1770067180.420790
-20678.580000	-13625.055000	-20448.090000	-15591.690000	-21935.160000	-16052.310000	-3308.355000	-8140.590000	-24.729746	-10.861610	9.804990	10.794606	12.369279	19.152063	3.948123	-14.506514	3.708180	38.470460	29.436540	0.949338	-0.246398	0.267700	-1.000000	-1.000000	-1.000000	-1.000000	-1.000000	-1.000000	-1.000000	68.000000	0.000000	-1.000000	-1.000000	2841373.000000	1770067180.420801
-20710.530000	-13653.990000	-20440.890000	-15594.120000	-21941.190000	-16056.045000	-3305.385000	-8128.485000	-10.888493	-8.570152	7.390263	-12.885332	-23.589268	0.446273	-0.868334	-14.827256	3.708180	38.470460	29.436540	0.949338	-0.246398	0.267700	-1.000000	-1.000000	-1.000000	-1.000000	-1.000000	-1.000000	-1.000000	68.000000	0.000000	-1.000000	-1.000000	2841374.000000	1770067180.420806
-20762.415000	-13710.690000	-20417.265000	-15557.850000	-21916.800000	-16041.690000	-3304.710000	-8159.760000	3.696629	-10.117055	0.431320	-28.784945	-44.023693	-14.621675	-4.095079	-8.597778	3.708180	38.470460	29.436540	0.949338	-0.246398	0.267700	-1.000000	-1.000000	-1.000000	-1.000000	-1.000000	-1.000000	-1.000000	68.000000	0.000000	-1.000000	-1.000000	2841375.000000	1770067180.420812
-20728.980000	-13697.955000	-20401.380000	-15540.615000	-21906.225000	-16044.075000	-3325.365000	-8189.685000	6.764087	-17.678544	-6.978496	-30.253018	-43.538554	-20.734621	-5.642816	-2.048969	3.708180	38.470460	29.436540	0.949338	-0.246398	0.267700	-1.000000	-1.000000	-1.000000	-1.000000	-1.000000	-1.000000	-1.000000	68.000000	0.000000	-1.000000	-1.000000	2841376.000000	1770067180.420817
-20685.510000	-13656.060000	-20400.300000	-15554.025000	-21935.790000	-16054.065000	-3333.465000	-8183.790000	1.807915	-22.128591	-9.570434	-17.235458	-25.996956	-17.911734	-6.948467	-0.562525	3.708180	38.470460	29.436540	0.949338	-0.246398	0.267700	-1.000000	-1.000000	-1.000000	-1.000000	-1.000000	-1.000000	-1.000000	68.000000	0.000000	-1.000000	-1.000000	2841377.000000	1770067180.426101
-20655.180000	-13614.345000	-20395.980000	-15558.930000	-21944.340000	-16045.605000	-3309.120000	-8156.970000	1.765545	-12.667327	-6.417865	1.270935	-3.272156	-10.218408	-7.915860	-2.241117	3.708180	38.470460	29.436540	0.949338	-0.246398	0.267700	-1.000000	-1.000000	-1.000000	-1.000000	-1.000000	-1.000000	-1.000000	68.000000	0.000000	-1.000000	-1.000000	2841378.000000	1770067180.426113
-20652.795000	-13586.625000	-20379.195000	-15542.010000	-21911.130000	-16027.965000	-3287.925000	-8159.625000	9.913606	9.608547	-0.608165	14.335279	13.357710	-1.308602	-5.569173	-1.353138	3.708180	38.470460	29.436540	0.949338	-0.246398	0.267700	-1.000000	-1.000000	-1.000000	-1.000000	-1.000000	-1.000000	-1.000000	68.000000	0.000000	-1.000000	-1.000000	2841379.000000	1770067180.427873
-20726.595000	-13592.700000	-20374.380000	-15523.155000	-21879.945000	-16017.795000	-3296.160000	-8197.200000	16.759784	31.340651	3.803161	16.716504	19.641311	6.287188	1.302284	3.460224	3.708180	38.470460	29.436540	0.949338	-0.246398	0.267700	-1.000000	-1.000000	-1.000000	-1.000000	-1.000000	-1.000000	-1.000000	68.000000	0.000000	-1.000000	-1.000000	2841380.000000	1770067180.427883
-20766.195000	-13615.830000	-20384.730000	-15525.765000	-21877.560000	-16011.900000	-3312.675000	-8212.815000	12.152686	38.374439	4.129358	9.979413	17.066910	10.173681	8.610768	7.878479	-8.560860	39.080860	24.919580	0.918027	-0.236572	0.285522	-1.000000	-1.000000	-1.000000	-1.000000	-1.000000	-1.000000	-1.000000	68.000000	0.000000	-1.000000	-1.000000	2841381.000000	1770067180.431883
-20678.355000	-13653.225000	-20415.240000	-15542.910000	-21890.070000	-16017.930000	-3316.455000	-8167.140000	-2.960633	25.831065	0.019971	-0.706540	9.090328	9.227935	10.848956	8.210456	-8.560860	39.080860	24.919580	0.918027	-0.236572	0.285522	-1.000000	-1.000000	-1.000000	-1.000000	-1.000000	-1.000000	-1.000000	68.000000	0.000000	-1.000000	-1.000000	2841382.000000	1770067180.431893
-20723.940000	-13704.165000	-20438.415000	-15561.405000	-21909.015000	-16033.455000	-3311.055000	-8154.720000	-16.413038	0.020820	-7.227115	-10.653090	-1.032188	4.293744	6.805332	6.019918	-8.560860	39.080860	24.919580	0.918027	-0.236572	0.285522	-1.000000	-1.000000	-1.000000	-1.000000	-1.000000	-1.000000	-1.000000	68.000000	0.000000	-1.000000	-1.000000	2841383.000000	1770067180.435777
-20860.470000	-13763.115000	-20466.495000	-15594.300000	-21939.615000	-16056.585000	-3315.600000	-8178.345000	-20.574755	-26.327934	-14.988587	-17.517723	-10.953851	-2.918170	-0.012288	4.658394	-8.560860	39.080860	24.919580	0.918027	-0.236572	0.285522	-1.000000	-1.000000	-1.000000	-1.000000	-1.000000	-1.000000	-1.000000	68.000000	0.000000	-1.000000	-1.000000	2841384.000000	1770067180.435786
-20886.300000	-13738.050000	-20445.120000	-15582.555000	-21926.835000	-16048.845000	-3320.775000	-8223.930000	-20.261719	-40.976131	-18.770547	-19.618898	-17.847095	-9.813722	-5.204125	3.596103	-8.560860	39.080860	24.919580	0.918027	-0.236572	0.285522	-1.000000	-1.000000	-1.000000	-1.000000	-1.000000	-1.000000	-1.000000	68.000000	0.000000	-1.000000	-1.000000	2841385.000000	1770067180.444883
-20779.470000	-13690.170000	-20417.040000	-15544.845000	-21892.365000	-16026.885000	-3323.655000	-8219.790000	-18.187123	-36.930671	-13.596918	-13.989991	-16.955391	-12.288734	-6.715747	-0.232654	-8.560860	39.080860	24.919580	0.918027	-0.236572	0.285522	-1.000000	-1.000000	-1.000000	-1.000000	-1.000000	-1.000000	-1.000000	68.000000	0.000000	-1.000000	-1.000000	2841386.000000	1770067180.444892
-20747.700000	-13683.645000	-20407.680000	-15511.455000	-21864.015000	-16003.665000	-3317.940000	-8244.360000	-8.084359	-15.941204	1.119933	0.588288	-5.728124	-7.454917	-5.319920	-7.053535	-8.560860	39.080860	24.919580	0.918027	-0.236572	0.285522	-1.000000	-1.000000	-1.000000	-1.000000	-1.000000	-1.000000	-1.000000	68.000000	0.000000	-1.000000	-1.000000	2841387.000000	1770067180.445170
-20675.385000	-13672.215000	-20445.705000	-15566.670000	-21925.620000	-16061.220000	-3346.920000	-8218.125000	12.968563	10.959341	17.780625	17.556417	9.262097	1.591260	-3.249904	-12.590004	-8.560860	39.080860	24.919580	0.918027	-0.236572	0.285522	-1.000000	-1.000000	-1.000000	-1.000000	-1.000000	-1.000000	-1.000000	68.000000	0.000000	-1.000000	-1.000000	2841388.000000	1770067180.445180
-20626.110000	-13624.380000	-20463.075000	-15604.110000	-21959.640000	-16078.050000	-3325.815000	-8111.295000	38.534204	31.339420	25.379036	24.518876	15.258521	6.866770	-1.785861	-9.686092	-8.560860	39.080860	24.919580	0.918027	-0.236572	0.285522	-1.000000	-1.000000	-1.000000	-1.000000	-1.000000	-1.000000	-1.000000	68.000000	0.000000	-1.000000	-1.000000	2841389.000000	1770067180.447750
-20647.845000	-13611.555000	-20432.385000	-15581.970000	-21939.975000	-16063.335000	-3311.235000	-8070.615000	55.428563	39.572779	20.320106	16.107232	7.464787	4.537420	0.419971	5.154796	-8.560860	39.080860	24.919580	0.918027	-0.236572	0.285522	-1.000000	-1.000000	-1.000000	-1.000000	-1.000000	-1.000000	-1.000000	68.000000	0.000000	-1.000000	-1.000000	2841390.000000	1770067180.447761
-20568.780000	-13618.170000	-20445.210000	-15595.020000	-21954.240000	-16084.035000	-3326.670000	-8055.045000	50.175322	35.789212	9.085721	0.401807	-5.225618	-0.965329	4.404527	23.500968	-18.174660	22.233820	-2.838360	0.899473	-0.244933	0.325622	-1.000000	-1.000000	-1.000000	-1.000000	-1.000000	-1.000000	-1.000000	68.000000	0.000000	-1.000000	-1.000000	2841391.000000	1770067180.451726
-20580.300000	-13610.880000	-20429.325000	-15581.250000	-21941.415000	-16066.890000	-3308.490000	-8058.690000	23.148886	22.896698	-0.234542	-10.551584	-11.112179	-3.338536	7.933192	30.577074	-18.174660	22.233820	-2.838360	0.899473	-0.244933	0.325622	-1.000000	-1.000000	-1.000000	-1.000000	-1.000000	-1.000000	-1.000000	68.000000	0.000000	-1.000000	-1.000000	2841392.000000	1770067180.451737
-20638.395000	-13593.780000	-20398.590000	-15552.585000	-21909.915000	-16028.775000	-3281.805000	-8091.045000	-10.512564	6.113604	-3.965147	-10.628239	-5.735130	0.338468	8.885246	19.896639	-18.174660	22.233820	-2.838360	0.899473	-0.244933	0.325622	-1.000000	-1.000000	-1.000000	-1.000000	-1.000000	-1.000000	-1.000000	68.000000	0.000000	-1.000000	-1.000000	2841393.000000	1770067180.458016
-20718.090000	-13616.775000	-20395.530000	-15531.255000	-21882.555000	-16005.780000	-3273.345000	-8154.720000	-38.466911	-10.468226	-3.054593	-1.562780	7.283272	8.671186	7.813932	-3.305609	-18.174660	22.233820	-2.838360	0.899473	-0.244933	0.325622	-1.000000	-1.000000	-1.000000	-1.000000	-1.000000	-1.000000	-1.000000	68.000000	0.000000	-1.000000	-1.000000	2841394.000000	1770067180.458025
-20736.540000	-13642.560000	-20411.190000	-15524.460000	-21873.870000	-16007.805000	-3286.710000	-8172.360000	-58.278664	-26.164223	-2.043664	8.797760	19.030521	15.746894	5.071318	-28.373281	-18.174660	22.233820	-2.838360	0.899473	-0.244933	0.325622	-1.000000	-1.000000	-1.000000	-1.000000	-1.000000	-1.000000	-1.000000	68.000000	0.000000	-1.000000	-1.000000	2841395.000000	1770067180.459821
-20695.905000	-13658.130000	-20435.715000	-15556.815000	-21899.430000	-16026.885000	-3303.630000	-8168.265000	-66.975637	-39.105958	-4.965625	11.868569	20.745927	14.892185	-0.308545	-43.697720	-18.174660	22.233820	-2.838360	0.899473	-0.244933	0.325622	-1.000000	-1.000000	-1.000000	-1.000000	-1.000000	-1.000000	-1.000000	68.000000	0.000000	-1.000000	-1.000000	2841396.000000	1770067180.459831
-20665.890000	-13644.135000	-20432.295000	-15582.150000	-21944.925000	-16076.205000	-3328.965000	-8159.895000	-56.685112	-43.378834	-10.543630	5.144002	10.141518	4.727289	-7.846632	-41.593934	-18.174660	22.233820	-2.838360	0.899473	-0.244933	0.325622	-1.000000	-1.000000	-1.000000	-1.000000	-1.000000	-1.000000	-1.000000	68.000000	0.000000	-1.000000	-1.000000	2841397.000000	1770067180.469422
-20714.265000	-13644.765000	-20424.915000	-15565.680000	-21931.155000	-16060.095000	-3306.240000	-8111.115000	-26.065935	-34.150431	-13.389731	-5.955957	-6.824075	-9.587791	-14.373520	-23.836114	-18.174660	22.233820	-2.838360	0.899473	-0.244933	0.325622	-1.000000	-1.000000	-1.000000	-1.000000	-1.000000	-1.000000	-1.000000	68.000000	0.000000	-1.000000	-1.000000	2841398.000000	1770067180.469432
-20751.435000	-13669.065000	-20440.080000	-15560.325000	-21907.215000	-16035.255000	-3299.130000	-8133.525000	11.684774	-13.439732	-10.373643	-13.340430	-19.965143	-19.661605	-15.746464	-0.005334	-18.174660	22.233820	-2.838360	0.899473	-0.244933	0.325622	-1.000000	-1.000000	-1.000000	-1.000000	-1.000000	-1.000000	-1.000000	68.000000	0.000000	-1.000000	-1.000000	2841399.000000	1770067180.469548
-20735.730000	-13686.390000	-20447.775000	-15588.045000	-21940.020000	-16070.985000	-3328.830000	-8146.755000	38.680352	10.588775	-3.509811	-13.218814	-22.196091	-19.642279	-10.500850	19.083483	-18.174660	22.233820	-2.838360	0.899473	-0.244933	0.325622	-1.000000	-1.000000	-1.000000	-1.000000	-1.000000	-1.000000	-1.000000	68.000000	0.000000	-1.000000	-1.000000	2841400.000000	1770067180.469558
-20730.690000	-13687.155000	-20430.630000	-15596.190000	-21953.970000	-16078.770000	-3337.155000	-8166.780000	48.210508	28.875068	3.333070	-8.022103	-14.912199	-11.516344	-2.303247	27.323568	2.212700	18.067840	-4.425400	0.907590	-0.255126	0.316222	-1.000000	-1.000000	-1.000000	-1.000000	-1.000000	-1.000000	-1.000000	68.000000	0.000000	-1.000000	-1.000000	2841401.000000	1770067180.480822
-20726.640000	-13678.155000	-20418.930000	-15567.840000	-21939.750000	-16051.725000	-3318.570000	-8182.530000	46.168170	35.892909	7.627510	-2.178978	-4.985162	-2.083008	3.867647	25.938119	2.212700	18.067840	-4.425400	0.907590	-0.255126	0.316222	-1.000000	-1.000000	-1.000000	-1.000000	-1.000000	-1.000000	-1.000000	68.000000	0.000000	-1.000000	-1.000000	2841402.000000	1770067180.480835
-20775.465000	-13643.865000	-20391.435000	-15500.115000	-21864.465000	-15991.065000	-3282.570000	-8220.015000	38.484750	31.808399	9.023631	3.010337	3.324157	5.179614	7.289422	19.838084	2.212700	18.067840	-4.425400	0.907590	-0.255126	0.316222	-1.000000	-1.000000	-1.000000	-1.000000	-1.000000	-1.000000	-1.000000	68.000000	0.000000	-1.000000	-1.000000	2841403.000000	1770067180.480849
-20836.395000	-13663.440000	-20397.915000	-15509.745000	-21856.635000	-15996.555000	-3289.005000	-8244.585000	23.630046	21.242471	8.876177	8.601627	10.454432	11.026139	10.213661	11.956638	2.212700	18.067840	-4.425400	0.907590	-0.255126	0.316222	-1.000000	-1.000000	-1.000000	-1.000000	-1.000000	-1.000000	-1.000000	68.000000	0.000000	-1.000000	-1.000000	2841404.000000	1770067180.480855
-20759.040000	-13669.290000	-20412.945000	-15540.255000	-21912.975000	-16050.105000	-3324.060000	-8196.975000	0.354377	8.467284	7.982918	13.279941	15.960042	14.802747	12.511593	3.483379	2.212700	18.067840	-4.425400	0.907590	-0.255126	0.316222	-1.000000	-1.000000	-1.000000	-1.000000	-1.000000	-1.000000	-1.000000	68.000000	0.000000	-1.000000	-1.000000	2841405.000000	1770067180.480860
-20665.440000	-13687.740000	-20463.435000	-15598.170000	-21954.195000	-16086.780000	-3349.935000	-8124.165000	-21.438157	-4.719606	4.775952	12.764220	15.846280	13.123134	10.860647	-2.737553	2.212700	18.067840	-4.425400	0.907590	-0.255126	0.316222	-1.000000	-1.000000	-1.000000	-1.000000	-1.000000	-1.000000	-1.000000	68.000000	0.000000	-1.000000	-1.000000	2841406.000000	1770067180.480865
-20832.570000	-13719.870000	-20458.755000	-15576.570000	-21907.170000	-16040.745000	-3322.125000	-8200.890000	-29.366919	-16.609500	-2.312404	4.580783	8.009109	5.008916	3.620976	-5.438282	2.212700	18.067840	-4.425400	0.907590	-0.255126	0.316222	-1.000000	-1.000000	-1.000000	-1.000000	-1.000000	-1.000000	-1.000000	68.000000	0.000000	-1.000000	-1.000000	2841407.000000	1770067180.483922
-20902.815000	-13680.045000	-20405.790000	-15523.065000	-21848.580000	-15991.785000	-3305.565000	-8302.005000	-26.278167	-23.084989	-9.637111	-6.450595	-2.241960	-4.092866	-5.161162	-9.278068	2.212700	18.067840	-4.425400	0.907590	-0.255126	0.316222	-1.000000	-1.000000	-1.000000	-1.000000	-1.000000	-1.000000	-1.000000	68.000000	0.000000	-1.000000	-1.000000	2841408.000000	1770067180.483932
-20686.995000	-13638.150000	-20416.590000	-15552.315000	-21887.955000	-16029.315000	-3329.145000	-8220.645000	-20.006226	-18.885254	-10.477428	-11.362004	-6.897861	-7.160196	-9.362096	-16.489919	2.212700	18.067840	-4.425400	0.907590	-0.255126	0.316222	-1.000000	-1.000000	-1.000000	-1.000000	-1.000000	-1.000000	-1.000000	68.000000	0.000000	-1.000000	-1.000000	2841409.000000	1770067180.490914
-20576.160000	-13635.945000	-20450.880000	-15602.580000	-21948.300000	-16077.780000	-3338.820000	-8092.890000	-5.114244	-4.297121	-4.904907	-8.557904	-5.931094	-5.063817	-7.917548	-17.196201	2.212700	18.067840	-4.425400	0.907590	-0.255126	0.316222	-1.000000	-1.000000	-1.000000	-1.000000	-1.000000	-1.000000	-1.000000	68.000000	0.000000	-1.000000	-1.000000	2841410.000000	1770067180.490927
-20668.140000	-13674.825000	-20467.935000	-15613.020000	-21955.680000	-16074.990000	-3340.710000	-8085.015000	20.788749	10.897146	-0.306282	-5.517673	-6.775810	-5.157764	-4.848189	-0.893783	10.575180	16.862300	-6.027700	0.909360	-0.279723	0.308532	-1.000000	-1.000000	-1.000000	-1.000000	-1.000000	-1.000000	-1.000000	68.000000	0.000000	-1.000000	-1.000000	2841411.000000	1770067180.492122
-20745.360000	-13690.080000	-20448.225000	-15589.035000	-21957.345000	-16056.855000	-3322.485000	-8151.615000	39.965883	15.059163	-0.927092	-7.316084	-13.062886	-10.104199	-3.275746	24.541330	10.575180	16.862300	-6.027700	0.909360	-0.279723	0.308532	-1.000000	-1.000000	-1.000000	-1.000000	-1.000000	-1.000000	-1.000000	68.000000	0.000000	-1.000000	-1.000000	2841412.000000	1770067180.492133
-20716.920000	-13682.205000	-20449.215000	-15580.800000	-21948.390000	-16076.790000	-3335.040000	-8190.180000	33.954509	6.448030	-3.191675	-9.620637	-19.043166	-14.107073	-2.268830	37.236978	10.575180	16.862300	-6.027700	0.909360	-0.279723	0.308532	-1.000000	-1.000000	-1.000000	-1.000000	-1.000000	-1.000000	-1.000000	68.000000	0.000000	-1.000000	-1.000000	2841413.000000	1770067180.495921
-20685.780000	-13686.255000	-20478.780000	-15612.165000	-21957.615000	-16094.205000	-3346.605000	-8168.445000	4.696491	-6.073097	-1.914723	-5.123086	-15.152139	-10.098515	0.582205	23.655573	10.575180	16.862300	-6.027700	0.909360	-0.279723	0.308532	-1.000000	-1.000000	-1.000000	-1.000000	-1.000000	-1.000000	-1.000000	68.000000	0.000000	-1.000000	-1.000000	2841414.000000	1770067180.495931
-20738.070000	-13683.870000	-20464.605000	-15607.170000	-21919.095000	-16051.005000	-3326.715000	-8181.630000	-29.830519	-12.712017	3.547243	6.527339	1.305784	2.614552	5.272131	-9.046962	10.575180	16.862300	-6.027700	0.909360	-0.279723	0.308532	-1.000000	-1.000000	-1.000000	-1.000000	-1.000000	-1.000000	-1.000000	68.000000	0.000000	-1.000000	-1.000000	2841415.000000	1770067180.499825
-20864.610000	-13701.420000	-20429.820000	-15555.690000	-21874.815000	-16002.225000	-3295.845000	-8188.830000	-50.132902	-10.039179	10.157856	18.432628	21.767242	17.566535	9.284739	-38.937025	10.575180	16.862300	-6.027700	0.909360	-0.279723	0.308532	-1.000000	-1.000000	-1.000000	-1.000000	-1.000000	-1.000000	-1.000000	68.000000	0.000000	-1.000000	-1.000000	2841416.000000	1770067180.499832
-20928.915000	-13754.070000	-20442.240000	-15533.280000	-21862.440000	-15996.645000	-3293.595000	-8193.105000	-48.972747	-2.743579	13.724207	23.823577	33.826945	26.346515	10.388820	-46.078994	10.575180	16.862300	-6.027700	0.909360	-0.279723	0.308532	-1.000000	-1.000000	-1.000000	-1.000000	-1.000000	-1.000000	-1.000000	68.000000	0.000000	-1.000000	-1.000000	2841417.000000	1770067180.513130
-20871.900000	-13706.775000	-20430.495000	-15524.685000	-21856.185000	-15999.165000	-3302.595000	-8215.560000	-34.483167	1.645089	11.291662	21.065441	31.763017	24.729326	8.071335	-29.455397	10.575180	16.862300	-6.027700	0.909360	-0.279723	0.308532	-1.000000	-1.000000	-1.000000	-1.000000	-1.000000	-1.000000	-1.000000	68.000000	0.000000	-1.000000	-1.000000	2841418.000000	1770067180.513142
-20739.420000	-13631.130000	-20441.295000	-15552.045000	-21865.770000	-16003.890000	-3308.445000	-8180.010000	-14.129190	3.089577	4.150324	12.290042	18.730504	14.289630	2.815531	-5.247466	10.575180	16.862300	-6.027700	0.909360	-0.279723	0.308532	-1.000000	-1.000000	-1.000000	-1.000000	-1.000000	-1.000000	-1.000000	68.000000	0.000000	-1.000000	-1.000000	2841419.000000	1770067180.513154
-20573.280000	-13598.280000	-20452.455000	-15575.850000	-21898.755000	-16027.065000	-3309.120000	-8080.155000	16.935459	8.089674	-3.915955	-0.776987	0.353894	-1.160788	-4.322133	14.366591	10.575180	16.862300	-6.027700	0.909360	-0.279723	0.308532	-1.000000	-1.000000	-1.000000	-1.000000	-1.000000	-1.000000	-1.000000	68.000000	0.000000	-1.000000	-1.000000	2841420.000000	1770067180.513159
