Channel1	Channel2	Channel3	Channel4	Channel5	Channel6	Channel7	Channel8	FilteredChannel1	FilteredChannel2	FilteredChannel3	FilteredChannel4	FilteredChannel5	FilteredChannel6	FilteredChannel7	FilteredChannel8	GyroX	GyroY	GyroZ	AccX	AccY	AccZ	PPG1	PPG2	rawPPG1	rawPPG2	rawPPG3	Hr	Hrv	Battery	Trigger	PhysicalTrigger	AutoTrigger	NumMeasurements	Timestamp
-3580.695000	-7764.120000	242.460000	13372.695000	-2683.755000	-3850.785000	8198.460000	-3651.390000	17.291167	14.470338	12.736683	12.377617	10.135611	14.843324	2.143029	8.545676	-1.876980	3.860780	-4.745860	0.655577	0.733946	0.079468	-1.000000	-1.000000	-1.000000	-1.000000	-1.000000	-1.000000	-1.000000	75.310345	0.000000	-1.000000	-1.000000	1852225.000000	1770065201.278579
-3572.055000	-7765.110000	242.685000	13379.220000	-2668.140000	-3840.615000	8206.245000	-3616.965000	24.987641	24.277949	23.841763	24.613146	20.418221	22.647777	11.790532	18.724559	-1.876980	3.860780	-4.745860	0.655577	0.733946	0.079468	-1.000000	-1.000000	-1.000000	-1.000000	-1.000000	-1.000000	-1.000000	75.310345	0.000000	-1.000000	-1.000000	1852226.000000	1770065201.278665
-3594.780000	-7785.180000	220.905000	13350.555000	-2703.015000	-3875.940000	8149.410000	-3625.695000	14.403208	13.850108	15.220429	17.780579	14.783824	13.971755	12.066288	14.721812	-1.876980	3.860780	-4.745860	0.655577	0.733946	0.079468	-1.000000	-1.000000	-1.000000	-1.000000	-1.000000	-1.000000	-1.000000	75.310345	0.000000	-1.000000	-1.000000	1852227.000000	1770065201.291574
-3577.905000	-7763.355000	242.730000	13369.500000	-2685.645000	-3849.660000	8168.985000	-3632.670000	-2.674731	-4.148220	-1.599111	2.072361	1.506490	-1.616300	2.785241	4.509561	-1.876980	3.860780	-4.745860	0.655577	0.733946	0.079468	-1.000000	-1.000000	-1.000000	-1.000000	-1.000000	-1.000000	-1.000000	75.310345	0.000000	-1.000000	-1.000000	1852228.000000	1770065201.291588
-3541.950000	-7726.050000	279.585000	13406.130000	-2649.780000	-3817.080000	8241.345000	-3601.665000	-9.835004	-10.911016	-8.494774	-5.627154	-5.098151	-9.208367	-5.927014	-1.286774	-1.876980	3.860780	-4.745860	0.655577	0.733946	0.079468	-1.000000	-1.000000	-1.000000	-1.000000	-1.000000	-1.000000	-1.000000	75.310345	0.000000	-1.000000	-1.000000	1852229.000000	1770065201.291603
-3555.045000	-7740.720000	264.960000	13393.935000	-2663.280000	-3837.690000	8233.200000	-3614.265000	-3.800431	-2.737175	-1.393999	-0.700721	-0.694298	-4.426343	-4.241029	1.247311	-1.876980	3.860780	-4.745860	0.655577	0.733946	0.079468	-1.000000	-1.000000	-1.000000	-1.000000	-1.000000	-1.000000	-1.000000	75.310345	0.000000	-1.000000	-1.000000	1852230.000000	1770065201.291608
-3581.010000	-7768.980000	237.780000	13367.880000	-2686.230000	-3857.715000	8203.005000	-3618.630000	4.869063	7.958695	8.096160	6.800202	6.114962	3.339134	4.439100	6.711475	-1.693860	4.684820	-4.562740	0.656737	0.733213	0.081360	-1.000000	-1.000000	-1.000000	-1.000000	-1.000000	-1.000000	-1.000000	75.310345	0.000000	-1.000000	-1.000000	1852231.000000	1770065201.291615
-3550.140000	-7731.675000	273.465000	13397.445000	-2662.740000	-3839.580000	8210.970000	-3595.050000	7.092173	10.333826	9.581027	7.308005	6.843973	4.685788	9.736155	7.736040	-1.693860	4.684820	-4.562740	0.656737	0.733213	0.081360	-1.000000	-1.000000	-1.000000	-1.000000	-1.000000	-1.000000	-1.000000	75.310345	0.000000	-1.000000	-1.000000	1852232.000000	1770065201.291621
-3545.190000	-7723.260000	278.145000	13395.645000	-2674.845000	-3850.020000	8201.115000	-3588.345000	2.972802	4.515526	3.083982	0.449027	0.804176	-1.038749	6.867976	2.673016	-1.693860	4.684820	-4.562740	0.656737	0.733213	0.081360	-1.000000	-1.000000	-1.000000	-1.000000	-1.000000	-1.000000	-1.000000	75.310345	0.000000	-1.000000	-1.000000	1852233.000000	1770065201.292950
-3582.180000	-7760.925000	238.725000	13365.405000	-2695.365000	-3860.730000	8183.160000	-3584.565000	-4.295354	-4.951134	-7.093072	-10.011039	-9.173662	-9.914552	-2.281782	-5.217749	-1.693860	4.684820	-4.562740	0.656737	0.733213	0.081360	-1.000000	-1.000000	-1.000000	-1.000000	-1.000000	-1.000000	-1.000000	75.310345	0.000000	-1.000000	-1.000000	1852234.000000	1770065201.292962
-3590.865000	-7773.480000	231.885000	13367.160000	-2680.740000	-3843.450000	8190.540000	-3589.695000	-13.201715	-15.307984	-17.877308	-20.453334	-19.454558	-17.332358	-12.913637	-12.387243	-1.693860	4.684820	-4.562740	0.656737	0.733213	0.081360	-1.000000	-1.000000	-1.000000	-1.000000	-1.000000	-1.000000	-1.000000	75.310345	0.000000	-1.000000	-1.000000	1852235.000000	1770065201.300889
-3579.390000	-7772.670000	232.065000	13363.020000	-2693.385000	-3861.045000	8184.645000	-3626.730000	-19.433851	-21.964004	-23.933538	-24.693460	-23.257058	-17.662950	-18.415309	-16.599749	-1.693860	4.684820	-4.562740	0.656737	0.733213	0.081360	-1.000000	-1.000000	-1.000000	-1.000000	-1.000000	-1.000000	-1.000000	75.310345	0.000000	-1.000000	-1.000000	1852236.000000	1770065201.300901
-3549.960000	-7747.875000	255.060000	13383.495000	-2677.005000	-3853.845000	8207.955000	-3650.805000	-16.083938	-18.528501	-18.801502	-16.864822	-15.120875	-8.413476	-14.266765	-16.469286	-1.693860	4.684820	-4.562740	0.656737	0.733213	0.081360	-1.000000	-1.000000	-1.000000	-1.000000	-1.000000	-1.000000	-1.000000	75.310345	0.000000	-1.000000	-1.000000	1852237.000000	1770065201.302603
-3538.575000	-7739.370000	261.045000	13388.355000	-2670.975000	-3850.605000	8205.885000	-3635.910000	-2.834430	-5.048955	-3.445452	0.358011	1.472624	5.488997	-3.304942	-11.747606	-1.693860	4.684820	-4.562740	0.656737	0.733213	0.081360	-1.000000	-1.000000	-1.000000	-1.000000	-1.000000	-1.000000	-1.000000	75.310345	0.000000	-1.000000	-1.000000	1852238.000000	1770065201.302614
-3537.630000	-7724.970000	275.175000	13398.885000	-2662.065000	-3840.480000	8187.435000	-3572.865000	12.574704	11.173629	13.807766	17.490856	17.266484	16.524336	7.035327	-2.322532	-1.693860	4.684820	-4.562740	0.656737	0.733213	0.081360	-1.000000	-1.000000	-1.000000	-1.000000	-1.000000	-1.000000	-1.000000	75.310345	0.000000	-1.000000	-1.000000	1852239.000000	1770065201.308316
-3502.530000	-7679.700000	319.050000	13437.810000	-2626.335000	-3802.905000	8207.595000	-3529.620000	22.507599	23.187155	25.602456	27.281623	25.841397	21.247979	12.389899	11.531564	-1.693860	4.684820	-4.562740	0.656737	0.733213	0.081360	-1.000000	-1.000000	-1.000000	-1.000000	-1.000000	-1.000000	-1.000000	75.310345	0.000000	-1.000000	-1.000000	1852240.000000	1770065201.308327
-3482.055000	-7637.040000	366.210000	13486.905000	-2576.340000	-3754.440000	8286.930000	-3520.440000	23.763766	27.564545	28.893025	27.929718	26.074929	20.409659	14.196014	24.978810	-1.358140	5.615680	-3.265640	0.658873	0.733519	0.082275	-1.000000	-1.000000	-1.000000	-1.000000	-1.000000	-1.000000	-1.000000	75.310345	0.000000	-1.000000	-1.000000	1852241.000000	1770065201.309004
-3610.890000	-7784.370000	220.860000	13348.935000	-2703.600000	-3880.215000	8207.370000	-3612.195000	14.873794	21.165035	21.407459	18.853689	17.840478	13.885409	14.494370	28.222403	-1.358140	5.615680	-3.265640	0.658873	0.733519	0.082275	-1.000000	-1.000000	-1.000000	-1.000000	-1.000000	-1.000000	-1.000000	75.310345	0.000000	-1.000000	-1.000000	1852242.000000	1770065201.309017
-3623.715000	-7829.730000	174.060000	13304.790000	-2746.665000	-3917.565000	8164.395000	-3658.815000	-4.016987	1.476948	1.187845	-1.131173	-0.424786	-1.215350	10.015249	14.143803	-1.358140	5.615680	-3.265640	0.658873	0.733519	0.082275	-1.000000	-1.000000	-1.000000	-1.000000	-1.000000	-1.000000	-1.000000	75.310345	0.000000	-1.000000	-1.000000	1852243.000000	1770065201.313053
-3595.005000	-7796.205000	205.425000	13333.050000	-2719.980000	-3885.930000	8196.300000	-3639.015000	-24.562463	-24.150267	-24.665173	-25.640689	-23.778381	-21.482184	-1.645363	-11.637284	-1.358140	5.615680	-3.265640	0.658873	0.733519	0.082275	-1.000000	-1.000000	-1.000000	-1.000000	-1.000000	-1.000000	-1.000000	75.310345	0.000000	-1.000000	-1.000000	1852244.000000	1770065201.313060
-3586.590000	-7777.845000	223.965000	13351.005000	-2705.580000	-3874.050000	8187.345000	-3607.335000	-32.699322	-38.338322	-39.200842	-38.873900	-37.419612	-33.226550	-14.092548	-30.883695	-1.358140	5.615680	-3.265640	0.658873	0.733519	0.082275	-1.000000	-1.000000	-1.000000	-1.000000	-1.000000	-1.000000	-1.000000	75.310345	0.000000	-1.000000	-1.000000	1852245.000000	1770065201.322869
-3572.370000	-7766.505000	236.115000	13360.995000	-2697.390000	-3867.210000	8182.260000	-3608.415000	-22.936565	-30.782177	-31.960418	-30.922968	-30.967240	-26.609576	-19.534680	-29.025849	-1.358140	5.615680	-3.265640	0.658873	0.733519	0.082275	-1.000000	-1.000000	-1.000000	-1.000000	-1.000000	-1.000000	-1.000000	75.310345	0.000000	-1.000000	-1.000000	1852246.000000	1770065201.322881
-3531.735000	-7712.640000	291.555000	13418.460000	-2637.045000	-3809.880000	8212.905000	-3621.105000	-2.118922	-6.982907	-7.975989	-6.822713	-8.296408	-5.405070	-16.127272	-9.648464	-1.358140	5.615680	-3.265640	0.658873	0.733519	0.082275	-1.000000	-1.000000	-1.000000	-1.000000	-1.000000	-1.000000	-1.000000	75.310345	0.000000	-1.000000	-1.000000	1852247.000000	1770065201.322954
-3521.790000	-7680.555000	322.245000	13446.450000	-2614.455000	-3795.750000	8219.160000	-3553.200000	18.999285	19.979739	19.725050	20.624204	18.619038	18.856639	-5.352016	11.537636	-1.358140	5.615680	-3.265640	0.658873	0.733519	0.082275	-1.000000	-1.000000	-1.000000	-1.000000	-1.000000	-1.000000	-1.000000	75.310345	0.000000	-1.000000	-1.000000	1852248.000000	1770065201.322960
-3505.230000	-7685.730000	317.970000	13443.705000	-2619.450000	-3794.130000	8232.435000	-3562.920000	30.812006	36.646394	37.184463	37.738116	36.181812	33.423111	7.917979	22.290211	-1.358140	5.615680	-3.265640	0.658873	0.733519	0.082275	-1.000000	-1.000000	-1.000000	-1.000000	-1.000000	-1.000000	-1.000000	75.310345	0.000000	-1.000000	-1.000000	1852249.000000	1770065201.325454
-3468.645000	-7658.370000	344.160000	13470.480000	-2591.820000	-3763.170000	8253.405000	-3600.315000	29.061846	35.084736	35.894577	36.133455	35.534168	30.983095	16.196431	19.666563	-1.358140	5.615680	-3.265640	0.658873	0.733519	0.082275	-1.000000	-1.000000	-1.000000	-1.000000	-1.000000	-1.000000	-1.000000	75.310345	0.000000	-1.000000	-1.000000	1852250.000000	1770065201.325460
-3567.105000	-7763.760000	236.430000	13360.905000	-2699.235000	-3864.960000	8205.660000	-3577.680000	17.606946	19.030053	19.387656	19.122470	19.349179	15.385964	16.248114	8.905359	-3.479280	5.356260	-3.280900	0.662901	0.736082	0.081360	-1.000000	-1.000000	-1.000000	-1.000000	-1.000000	-1.000000	-1.000000	75.310345	0.000000	-1.000000	-1.000000	1852251.000000	1770065201.330789
-3599.820000	-7791.480000	208.980000	13334.220000	-2723.085000	-3900.015000	8189.280000	-3601.620000	1.434887	-2.106765	-2.597208	-3.739008	-3.218112	-4.866460	9.954893	-0.965445	-3.479280	5.356260	-3.280900	0.662901	0.736082	0.081360	-1.000000	-1.000000	-1.000000	-1.000000	-1.000000	-1.000000	-1.000000	75.310345	0.000000	-1.000000	-1.000000	1852252.000000	1770065201.330799
-3623.760000	-7811.730000	188.775000	13313.610000	-2741.895000	-3915.810000	8170.515000	-3646.575000	-16.745890	-21.455259	-22.525098	-24.410428	-23.858247	-23.368224	-0.070599	-6.264281	-3.479280	5.356260	-3.280900	0.662901	0.736082	0.081360	-1.000000	-1.000000	-1.000000	-1.000000	-1.000000	-1.000000	-1.000000	75.310345	0.000000	-1.000000	-1.000000	1852253.000000	1770065201.333112
-3604.320000	-7786.800000	212.760000	13333.185000	-2718.315000	-3881.205000	8184.780000	-3658.320000	-31.206311	-33.209024	-34.136626	-35.895824	-34.958579	-33.383516	-10.261333	-9.972773	-3.479280	5.356260	-3.280900	0.662901	0.736082	0.081360	-1.000000	-1.000000	-1.000000	-1.000000	-1.000000	-1.000000	-1.000000	75.310345	0.000000	-1.000000	-1.000000	1852254.000000	1770065201.333118
-3607.740000	-7791.120000	206.235000	13323.510000	-2728.755000	-3885.840000	8180.325000	-3641.490000	-34.432077	-32.567553	-32.792326	-33.589574	-31.865051	-29.501418	-15.762044	-13.117660	-3.479280	5.356260	-3.280900	0.662901	0.736082	0.081360	-1.000000	-1.000000	-1.000000	-1.000000	-1.000000	-1.000000	-1.000000	75.310345	0.000000	-1.000000	-1.000000	1852255.000000	1770065201.340209
-3588.390000	-7779.195000	214.065000	13332.645000	-2722.995000	-3881.295000	8181.945000	-3625.650000	-24.043974	-20.261622	-19.820704	-19.464567	-17.314772	-13.979758	-14.051308	-12.542241	-3.479280	5.356260	-3.280900	0.662901	0.736082	0.081360	-1.000000	-1.000000	-1.000000	-1.000000	-1.000000	-1.000000	-1.000000	75.310345	0.000000	-1.000000	-1.000000	1852256.000000	1770065201.340219
-3565.080000	-7753.320000	242.730000	13364.910000	-2697.525000	-3855.330000	8199.585000	-3611.880000	-4.615391	-2.526113	-1.873934	-0.567240	0.897581	4.623717	-6.695443	-7.193106	-3.479280	5.356260	-3.280900	0.662901	0.736082	0.081360	-1.000000	-1.000000	-1.000000	-1.000000	-1.000000	-1.000000	-1.000000	75.310345	0.000000	-1.000000	-1.000000	1852257.000000	1770065201.341006
-3557.295000	-7742.115000	256.500000	13381.380000	-2685.015000	-3844.035000	8224.335000	-3614.130000	15.308555	13.685111	14.254671	16.266342	16.000571	18.574056	2.486623	0.449662	-3.479280	5.356260	-3.280900	0.662901	0.736082	0.081360	-1.000000	-1.000000	-1.000000	-1.000000	-1.000000	-1.000000	-1.000000	75.310345	0.000000	-1.000000	-1.000000	1852258.000000	1770065201.341017
-3554.955000	-7732.395000	271.890000	13403.160000	-2653.830000	-3837.330000	8211.780000	-3614.220000	28.179665	24.565571	25.215060	27.564729	25.415489	24.913187	9.931888	8.286615	-3.479280	5.356260	-3.280900	0.662901	0.736082	0.081360	-1.000000	-1.000000	-1.000000	-1.000000	-1.000000	-1.000000	-1.000000	75.310345	0.000000	-1.000000	-1.000000	1852259.000000	1770065201.344967
-3626.595000	-7808.265000	197.235000	13331.835000	-2717.865000	-3896.145000	8140.860000	-3646.980000	31.106378	29.276194	30.376554	32.532570	29.584207	24.793059	13.130931	14.142536	-3.479280	5.356260	-3.280900	0.662901	0.736082	0.081360	-1.000000	-1.000000	-1.000000	-1.000000	-1.000000	-1.000000	-1.000000	75.310345	0.000000	-1.000000	-1.000000	1852260.000000	1770065201.344978
-3582.585000	-7765.380000	239.580000	13372.290000	-2679.435000	-3846.375000	8202.960000	-3584.295000	24.787783	26.845772	28.413428	29.801902	27.724414	20.032623	11.118495	15.775524	-4.684820	5.295220	-3.464020	0.663267	0.735472	0.079284	-1.000000	-1.000000	-1.000000	-1.000000	-1.000000	-1.000000	-1.000000	75.310345	0.000000	-1.000000	-1.000000	1852261.000000	1770065201.348995
-3557.880000	-7750.890000	250.290000	13380.210000	-2673.135000	-3844.125000	8212.140000	-3583.080000	12.848737	17.251509	18.620752	18.723061	18.441061	11.865516	6.571527	14.352664	-4.684820	5.295220	-3.464020	0.663267	0.735472	0.079284	-1.000000	-1.000000	-1.000000	-1.000000	-1.000000	-1.000000	-1.000000	75.310345	0.000000	-1.000000	-1.000000	1852262.000000	1770065201.349005
-3582.810000	-7772.310000	228.555000	13357.305000	-2696.805000	-3869.415000	8170.155000	-3629.790000	-0.058553	3.051404	3.277521	1.905667	3.010424	0.923300	2.391749	10.829015	-4.684820	5.295220	-3.464020	0.663267	0.735472	0.079284	-1.000000	-1.000000	-1.000000	-1.000000	-1.000000	-1.000000	-1.000000	75.310345	0.000000	-1.000000	-1.000000	1852263.000000	1770065201.352990
-3565.440000	-7752.420000	246.915000	13375.080000	-2683.395000	-3853.890000	8185.050000	-3596.715000	-11.677453	-12.273899	-13.595912	-16.025786	-14.680107	-11.990114	-2.291465	2.868021	-4.684820	5.295220	-3.464020	0.663267	0.735472	0.079284	-1.000000	-1.000000	-1.000000	-1.000000	-1.000000	-1.000000	-1.000000	75.310345	0.000000	-1.000000	-1.000000	1852264.000000	1770065201.352998
-3563.280000	-7756.515000	240.705000	13366.035000	-2693.475000	-3859.155000	8155.485000	-3622.815000	-20.295900	-24.207901	-26.591762	-29.290395	-28.602577	-23.049114	-7.989710	-9.412658	-4.684820	5.295220	-3.464020	0.663267	0.735472	0.079284	-1.000000	-1.000000	-1.000000	-1.000000	-1.000000	-1.000000	-1.000000	75.310345	0.000000	-1.000000	-1.000000	1852265.000000	1770065201.358059
-3572.730000	-7755.795000	244.530000	13370.895000	-2691.270000	-3862.485000	8184.510000	-3641.895000	-23.796438	-28.739715	-31.209953	-33.509115	-33.520713	-27.502453	-12.678055	-21.539033	-4.684820	5.295220	-3.464020	0.663267	0.735472	0.079284	-1.000000	-1.000000	-1.000000	-1.000000	-1.000000	-1.000000	-1.000000	75.310345	0.000000	-1.000000	-1.000000	1852266.000000	1770065201.358069
-3607.920000	-7786.440000	214.695000	13343.580000	-2718.090000	-3902.310000	8195.805000	-3631.815000	-21.942828	-25.175609	-26.861527	-28.382970	-28.557661	-24.234599	-13.554706	-27.428902	-4.684820	5.295220	-3.464020	0.663267	0.735472	0.079284	-1.000000	-1.000000	-1.000000	-1.000000	-1.000000	-1.000000	-1.000000	75.310345	0.000000	-1.000000	-1.000000	1852267.000000	1770065201.361404
-3593.385000	-7780.860000	219.330000	13346.730000	-2713.095000	-3903.300000	8180.370000	-3622.500000	-14.865320	-14.649430	-15.174515	-15.794717	-15.867621	-14.602124	-8.168439	-22.010598	-4.684820	5.295220	-3.464020	0.663267	0.735472	0.079284	-1.000000	-1.000000	-1.000000	-1.000000	-1.000000	-1.000000	-1.000000	75.310345	0.000000	-1.000000	-1.000000	1852268.000000	1770065201.361416
-3547.035000	-7729.335000	269.280000	13393.665000	-2672.775000	-3848.760000	8221.635000	-3584.880000	-1.294932	2.033984	2.469042	2.593196	2.269464	0.639746	3.191713	-5.590860	-4.684820	5.295220	-3.464020	0.663267	0.735472	0.079284	-1.000000	-1.000000	-1.000000	-1.000000	-1.000000	-1.000000	-1.000000	75.310345	0.000000	-1.000000	-1.000000	1852269.000000	1770065201.365106
-3517.695000	-7695.945000	301.320000	13422.780000	-2643.975000	-3809.520000	8250.030000	-3594.420000	16.514891	21.180269	22.098311	22.681883	21.685109	18.892924	15.624207	14.084200	-4.684820	5.295220	-3.464020	0.663267	0.735472	0.079284	-1.000000	-1.000000	-1.000000	-1.000000	-1.000000	-1.000000	-1.000000	75.310345	0.000000	-1.000000	-1.000000	1852270.000000	1770065201.365118
-3530.205000	-7705.755000	291.420000	13412.520000	-2648.655000	-3811.590000	8225.865000	-3624.975000	29.509440	33.729761	34.784129	35.720501	34.369424	32.661305	21.732035	26.086964	-2.655240	5.264700	-1.388660	0.661619	0.733519	0.080688	-1.000000	-1.000000	-1.000000	-1.000000	-1.000000	-1.000000	-1.000000	75.310345	0.000000	-1.000000	-1.000000	1852271.000000	1770065201.369155
-3533.580000	-7711.425000	285.210000	13405.095000	-2653.875000	-3822.840000	8214.840000	-3569.490000	28.965483	31.468092	32.556676	33.939656	33.372841	33.819421	17.061083	25.111143	-2.655240	5.264700	-1.388660	0.661619	0.733519	0.080688	-1.000000	-1.000000	-1.000000	-1.000000	-1.000000	-1.000000	-1.000000	75.310345	0.000000	-1.000000	-1.000000	1852272.000000	1770065201.369162
-3593.385000	-7776.990000	219.870000	13340.520000	-2718.000000	-3886.065000	8158.230000	-3585.870000	13.713018	13.604132	14.719693	16.548580	17.812843	19.470847	3.040717	14.657983	-2.655240	5.264700	-1.388660	0.661619	0.733519	0.080688	-1.000000	-1.000000	-1.000000	-1.000000	-1.000000	-1.000000	-1.000000	75.310345	0.000000	-1.000000	-1.000000	1852273.000000	1770065201.372912
-3613.590000	-7795.845000	201.195000	13324.995000	-2728.395000	-3887.325000	8169.525000	-3630.015000	-10.009854	-12.936842	-11.877237	-9.850381	-6.687223	-5.621441	-14.215165	0.609203	-2.655240	5.264700	-1.388660	0.661619	0.733519	0.080688	-1.000000	-1.000000	-1.000000	-1.000000	-1.000000	-1.000000	-1.000000	75.310345	0.000000	-1.000000	-1.000000	1852274.000000	1770065201.372918
-3592.485000	-7770.915000	228.690000	13359.735000	-2691.360000	-3851.910000	8194.815000	-3604.230000	-30.286258	-35.092126	-34.337057	-32.460164	-28.357570	-28.655290	-26.100471	-12.168744	-2.655240	5.264700	-1.388660	0.661619	0.733519	0.080688	-1.000000	-1.000000	-1.000000	-1.000000	-1.000000	-1.000000	-1.000000	75.310345	0.000000	-1.000000	-1.000000	1852275.000000	1770065201.377201
-3559.005000	-7741.215000	258.345000	13389.885000	-2662.965000	-3835.980000	8212.320000	-3574.305000	-34.155646	-39.021186	-38.868906	-37.485921	-34.076798	-35.121928	-25.444038	-18.143117	-2.655240	5.264700	-1.388660	0.661619	0.733519	0.080688	-1.000000	-1.000000	-1.000000	-1.000000	-1.000000	-1.000000	-1.000000	75.310345	0.000000	-1.000000	-1.000000	1852276.000000	1770065201.377212
-3567.420000	-7753.005000	245.970000	13375.395000	-2679.255000	-3852.315000	8203.500000	-3639.375000	-18.142337	-21.231373	-21.779376	-21.287743	-20.324328	-21.405035	-11.723323	-15.264071	-2.655240	5.264700	-1.388660	0.661619	0.733519	0.080688	-1.000000	-1.000000	-1.000000	-1.000000	-1.000000	-1.000000	-1.000000	75.310345	0.000000	-1.000000	-1.000000	1852277.000000	1770065201.381171
-3575.700000	-7771.320000	224.145000	13348.530000	-2710.440000	-3883.545000	8162.640000	-3616.965000	6.234180	5.706979	4.635814	3.874159	1.551741	0.219960	6.069608	-8.633834	-2.655240	5.264700	-1.388660	0.661619	0.733519	0.080688	-1.000000	-1.000000	-1.000000	-1.000000	-1.000000	-1.000000	-1.000000	75.310345	0.000000	-1.000000	-1.000000	1852278.000000	1770065201.381179
-3581.325000	-7775.325000	219.690000	13343.535000	-2715.255000	-3885.165000	8164.485000	-3576.870000	22.192622	23.507846	22.249005	20.233029	15.368992	13.146393	15.636869	-2.565409	-2.655240	5.264700	-1.388660	0.661619	0.733519	0.080688	-1.000000	-1.000000	-1.000000	-1.000000	-1.000000	-1.000000	-1.000000	75.310345	0.000000	-1.000000	-1.000000	1852279.000000	1770065201.387923
-3522.780000	-7693.515000	299.790000	13415.625000	-2650.140000	-3822.795000	8206.065000	-3621.690000	23.196869	25.379488	24.301260	21.520220	15.884347	12.947262	14.235004	3.607965	-2.655240	5.264700	-1.388660	0.661619	0.733519	0.080688	-1.000000	-1.000000	-1.000000	-1.000000	-1.000000	-1.000000	-1.000000	75.310345	0.000000	-1.000000	-1.000000	1852280.000000	1770065201.387935
-3524.310000	-7681.365000	311.895000	13418.685000	-2653.245000	-3825.225000	8223.570000	-3585.330000	15.588221	18.943607	18.340271	15.395026	10.677348	8.315926	9.894993	8.565662	-2.609460	0.030520	-1.953280	0.660643	0.732481	0.080505	-1.000000	-1.000000	-1.000000	-1.000000	-1.000000	-1.000000	-1.000000	75.310345	0.000000	-1.000000	-1.000000	1852281.000000	1770065201.390591
-3610.710000	-7784.595000	206.280000	13316.580000	-2749.140000	-3916.035000	8175.645000	-3664.350000	6.747090	11.863485	11.845267	9.210010	6.561052	6.213088	8.806142	8.824337	-2.609460	0.030520	-1.953280	0.660643	0.732481	0.080505	-1.000000	-1.000000	-1.000000	-1.000000	-1.000000	-1.000000	-1.000000	75.310345	0.000000	-1.000000	-1.000000	1852282.000000	1770065201.390598
-3587.940000	-7783.740000	209.970000	13335.255000	-2726.820000	-3902.670000	8164.305000	-3659.625000	-1.999438	3.127075	3.565872	2.019259	2.186405	4.194102	7.960241	4.153911	-2.609460	0.030520	-1.953280	0.660643	0.732481	0.080505	-1.000000	-1.000000	-1.000000	-1.000000	-1.000000	-1.000000	-1.000000	75.310345	0.000000	-1.000000	-1.000000	1852283.000000	1770065201.393030
-3579.570000	-7773.210000	237.330000	13387.095000	-2659.545000	-3836.205000	8186.220000	-3630.870000	-9.881220	-8.546321	-7.699134	-6.780210	-3.494082	-0.117024	2.135329	-1.913197	-2.609460	0.030520	-1.953280	0.660643	0.732481	0.080505	-1.000000	-1.000000	-1.000000	-1.000000	-1.000000	-1.000000	-1.000000	75.310345	0.000000	-1.000000	-1.000000	1852284.000000	1770065201.393041
-3557.610000	-7740.630000	269.685000	13413.015000	-2635.155000	-3812.535000	8239.455000	-3607.200000	-13.526263	-17.763648	-16.177751	-11.793815	-5.882384	-2.353942	-6.286882	-4.378294	-2.609460	0.030520	-1.953280	0.660643	0.732481	0.080505	-1.000000	-1.000000	-1.000000	-1.000000	-1.000000	-1.000000	-1.000000	75.310345	0.000000	-1.000000	-1.000000	1852285.000000	1770065201.397077
-3577.995000	-7775.820000	222.840000	13353.480000	-2704.815000	-3866.265000	8220.285000	-3593.430000	-11.207531	-18.530859	-16.275606	-9.633312	-2.873559	0.230778	-10.016554	-0.363851	-2.609460	0.030520	-1.953280	0.660643	0.732481	0.080505	-1.000000	-1.000000	-1.000000	-1.000000	-1.000000	-1.000000	-1.000000	75.310345	0.000000	-1.000000	-1.000000	1852286.000000	1770065201.397087
-3564.315000	-7754.355000	244.080000	13373.550000	-2689.020000	-3847.545000	8215.200000	-3610.890000	-5.118968	-11.203842	-9.476992	-4.034455	0.757098	3.296317	-6.973178	6.952070	-2.609460	0.030520	-1.953280	0.660643	0.732481	0.080505	-1.000000	-1.000000	-1.000000	-1.000000	-1.000000	-1.000000	-1.000000	75.310345	0.000000	-1.000000	-1.000000	1852287.000000	1770065201.401081
-3582.675000	-7759.530000	241.965000	13373.910000	-2683.755000	-3847.455000	8197.245000	-3634.605000	0.728921	-1.072329	-1.169448	0.037607	0.693566	2.300142	-1.888006	10.013551	-2.609460	0.030520	-1.953280	0.660643	0.732481	0.080505	-1.000000	-1.000000	-1.000000	-1.000000	-1.000000	-1.000000	-1.000000	75.310345	0.000000	-1.000000	-1.000000	1852288.000000	1770065201.401090
-3574.170000	-7760.925000	237.960000	13370.310000	-2686.860000	-3852.000000	8179.020000	-3599.640000	2.986172	5.646671	3.661448	0.439071	-2.839878	-2.951872	-0.462696	5.360842	-2.609460	0.030520	-1.953280	0.660643	0.732481	0.080505	-1.000000	-1.000000	-1.000000	-1.000000	-1.000000	-1.000000	-1.000000	75.310345	0.000000	-1.000000	-1.000000	1852289.000000	1770065201.405015
-3531.330000	-7711.785000	288.315000	13419.945000	-2642.265000	-3815.820000	8215.200000	-3605.580000	2.604039	7.133686	4.319549	-0.949641	-5.910065	-8.360486	-3.294429	-2.635749	-2.609460	0.030520	-1.953280	0.660643	0.732481	0.080505	-1.000000	-1.000000	-1.000000	-1.000000	-1.000000	-1.000000	-1.000000	75.310345	0.000000	-1.000000	-1.000000	1852290.000000	1770065201.405025
-3510.315000	-7679.565000	323.910000	13455.945000	-2604.645000	-3777.975000	8257.185000	-3572.100000	5.302096	9.155406	6.870462	2.273269	-2.055627	-6.687871	-4.101229	-6.617291	-2.929920	3.586100	-0.167860	0.661619	0.736509	0.077453	-1.000000	-1.000000	-1.000000	-1.000000	-1.000000	-1.000000	-1.000000	75.310345	0.000000	-1.000000	-1.000000	1852291.000000	1770065201.409532
-3576.780000	-7762.905000	239.355000	13373.100000	-2683.035000	-3846.870000	8194.050000	-3614.490000	11.506537	14.309118	13.377580	10.484036	7.840486	2.513327	1.062385	-3.949383	-2.929920	3.586100	-0.167860	0.661619	0.736509	0.077453	-1.000000	-1.000000	-1.000000	-1.000000	-1.000000	-1.000000	-1.000000	75.310345	0.000000	-1.000000	-1.000000	1852292.000000	1770065201.409544
-3617.505000	-7821.585000	176.220000	13309.020000	-2744.415000	-3898.530000	8129.520000	-3669.030000	11.893328	13.559690	13.596138	11.658141	10.648166	7.444682	5.223828	-1.035735	-2.929920	3.586100	-0.167860	0.661619	0.736509	0.077453	-1.000000	-1.000000	-1.000000	-1.000000	-1.000000	-1.000000	-1.000000	75.310345	0.000000	-1.000000	-1.000000	1852293.000000	1770065201.412981
-3600.360000	-7786.080000	212.895000	13344.030000	-2711.295000	-3871.935000	8148.915000	-3606.705000	0.877349	0.306304	0.267989	-1.465522	-1.255866	-0.176616	0.253732	-4.217239	-2.929920	3.586100	-0.167860	0.661619	0.736509	0.077453	-1.000000	-1.000000	-1.000000	-1.000000	-1.000000	-1.000000	-1.000000	75.310345	0.000000	-1.000000	-1.000000	1852294.000000	1770065201.412988
-3597.165000	-7782.075000	216.045000	13344.615000	-2714.220000	-3884.760000	8166.645000	-3577.095000	-13.933079	-16.662537	-16.973612	-17.838851	-16.612354	-12.327124	-9.439308	-9.041304	-2.929920	3.586100	-0.167860	0.661619	0.736509	0.077453	-1.000000	-1.000000	-1.000000	-1.000000	-1.000000	-1.000000	-1.000000	75.310345	0.000000	-1.000000	-1.000000	1852295.000000	1770065201.416948
-3600.180000	-7782.615000	216.135000	13343.580000	-2717.685000	-3886.740000	8181.360000	-3616.830000	-20.892005	-23.843950	-23.602384	-22.335117	-20.272578	-16.507926	-12.106277	-7.828035	-2.929920	3.586100	-0.167860	0.661619	0.736509	0.077453	-1.000000	-1.000000	-1.000000	-1.000000	-1.000000	-1.000000	-1.000000	75.310345	0.000000	-1.000000	-1.000000	1852296.000000	1770065201.416955
-3591.090000	-7767.090000	231.885000	13358.070000	-2703.105000	-3863.430000	8222.355000	-3614.895000	-15.843497	-17.490047	-16.087014	-12.497414	-10.244400	-9.652412	-2.645715	-0.940189	-2.929920	3.586100	-0.167860	0.661619	0.736509	0.077453	-1.000000	-1.000000	-1.000000	-1.000000	-1.000000	-1.000000	-1.000000	75.310345	0.000000	-1.000000	-1.000000	1852297.000000	1770065201.425497
-3567.465000	-7742.655000	254.295000	13377.510000	-2684.745000	-3842.280000	8232.255000	-3614.625000	-2.861020	-3.072841	-0.821419	3.849353	5.456038	3.594764	13.586691	5.639817	-2.929920	3.586100	-0.167860	0.661619	0.736509	0.077453	-1.000000	-1.000000	-1.000000	-1.000000	-1.000000	-1.000000	-1.000000	75.310345	0.000000	-1.000000	-1.000000	1852298.000000	1770065201.425518
-3515.670000	-7691.715000	303.255000	13425.255000	-2639.475000	-3813.570000	8228.835000	-3592.305000	11.344448	11.972676	14.088572	18.010405	18.555565	16.679520	25.469801	8.207590	-2.929920	3.586100	-0.167860	0.661619	0.736509	0.077453	-1.000000	-1.000000	-1.000000	-1.000000	-1.000000	-1.000000	-1.000000	75.310345	0.000000	-1.000000	-1.000000	1852299.000000	1770065201.425607
-3562.155000	-7738.560000	261.630000	13388.490000	-2670.525000	-3858.030000	8193.510000	-3604.950000	20.911517	21.649585	22.633897	24.380292	23.957961	23.154142	23.683142	7.468898	-2.929920	3.586100	-0.167860	0.661619	0.736509	0.077453	-1.000000	-1.000000	-1.000000	-1.000000	-1.000000	-1.000000	-1.000000	75.310345	0.000000	-1.000000	-1.000000	1852300.000000	1770065201.425614
-3566.565000	-7748.730000	252.495000	13378.725000	-2682.000000	-3865.140000	8215.065000	-3607.920000	21.718060	22.306157	21.852468	20.999655	19.930333	19.292416	8.986631	5.405729	-4.059160	1.907500	-0.824040	0.660826	0.738157	0.076904	-1.000000	-1.000000	-1.000000	-1.000000	-1.000000	-1.000000	-1.000000	75.310345	0.000000	-1.000000	-1.000000	1852301.000000	1770065201.429064
-3523.815000	-7709.535000	283.860000	13401.315000	-2663.145000	-3842.190000	8229.420000	-3592.710000	14.358884	15.021085	13.570587	10.691143	9.245080	7.905237	-7.698710	3.445123	-4.059160	1.907500	-0.824040	0.660826	0.738157	0.076904	-1.000000	-1.000000	-1.000000	-1.000000	-1.000000	-1.000000	-1.000000	75.310345	0.000000	-1.000000	-1.000000	1852302.000000	1770065201.429083
-3523.905000	-7703.640000	286.740000	13401.270000	-2665.260000	-3833.280000	8217.585000	-3574.620000	3.906799	4.551477	2.726375	-0.952308	-2.471898	-3.690448	-16.714350	1.560064	-4.059160	1.907500	-0.824040	0.660826	0.738157	0.076904	-1.000000	-1.000000	-1.000000	-1.000000	-1.000000	-1.000000	-1.000000	75.310345	0.000000	-1.000000	-1.000000	1852303.000000	1770065201.433092
-3439.890000	-7616.295000	378.495000	13496.805000	-2574.540000	-3754.305000	8273.835000	-3398.895000	-4.455793	-4.276796	-5.899926	-8.820391	-9.879318	-9.230132	-16.642992	0.936635	-4.059160	1.907500	-0.824040	0.660826	0.738157	0.076904	-1.000000	-1.000000	-1.000000	-1.000000	-1.000000	-1.000000	-1.000000	75.310345	0.000000	-1.000000	-1.000000	1852304.000000	1770065201.433102
-3503.205000	-7694.415000	302.355000	13429.845000	-2629.170000	-3807.765000	8229.600000	-3477.915000	-8.263438	-8.996150	-9.774813	-10.458548	-10.438384	-7.443400	-10.997104	5.149387	-4.059160	1.907500	-0.824040	0.660826	0.738157	0.076904	-1.000000	-1.000000	-1.000000	-1.000000	-1.000000	-1.000000	-1.000000	75.310345	0.000000	-1.000000	-1.000000	1852305.000000	1770065201.438665
-3698.010000	-7893.090000	108.720000	13248.495000	-2791.980000	-3947.895000	8143.785000	-3749.130000	-12.567235	-14.773347	-14.193979	-11.763343	-9.973924	-5.889307	-6.567435	7.038040	-4.059160	1.907500	-0.824040	0.660826	0.738157	0.076904	-1.000000	-1.000000	-1.000000	-1.000000	-1.000000	-1.000000	-1.000000	75.310345	0.000000	-1.000000	-1.000000	1852306.000000	1770065201.438675
-3640.770000	-7830.180000	169.020000	13303.080000	-2745.270000	-3899.970000	8179.020000	-3722.130000	-24.629603	-28.251687	-26.324571	-21.166034	-17.240502	-13.306757	-8.566154	-8.147784	-4.059160	1.907500	-0.824040	0.660826	0.738157	0.076904	-1.000000	-1.000000	-1.000000	-1.000000	-1.000000	-1.000000	-1.000000	75.310345	0.000000	-1.000000	-1.000000	1852307.000000	1770065201.450974
-3605.445000	-7779.870000	219.690000	13350.150000	-2710.170000	-3876.705000	8186.670000	-3653.595000	-37.145411	-40.401133	-37.921154	-32.251754	-27.527303	-24.260248	-12.307210	-33.931948	-4.059160	1.907500	-0.824040	0.660826	0.738157	0.076904	-1.000000	-1.000000	-1.000000	-1.000000	-1.000000	-1.000000	-1.000000	75.310345	0.000000	-1.000000	-1.000000	1852308.000000	1770065201.450997
-3592.080000	-7766.595000	235.755000	13368.330000	-2690.865000	-3857.670000	8192.430000	-3626.640000	-32.615199	-32.709783	-30.989864	-28.049730	-25.610866	-23.708055	-8.479369	-43.881793	-4.059160	1.907500	-0.824040	0.660826	0.738157	0.076904	-1.000000	-1.000000	-1.000000	-1.000000	-1.000000	-1.000000	-1.000000	75.310345	0.000000	-1.000000	-1.000000	1852309.000000	1770065201.452085
-3558.465000	-7747.290000	252.810000	13383.135000	-2672.955000	-3832.245000	8208.270000	-3616.380000	-5.848870	-1.475503	-1.457609	-3.217015	-5.293704	-5.754816	4.647587	-24.215252	-4.059160	1.907500	-0.824040	0.660826	0.738157	0.076904	-1.000000	-1.000000	-1.000000	-1.000000	-1.000000	-1.000000	-1.000000	75.310345	0.000000	-1.000000	-1.000000	1852310.000000	1770065201.452095
-3529.665000	-7717.455000	281.610000	13411.755000	-2645.325000	-3808.620000	8237.160000	-3590.865000	29.378047	36.283337	34.744891	29.169914	23.423028	20.149319	20.008026	13.119690	-2.716280	2.639980	-0.396760	0.663695	0.736570	0.077942	-1.000000	-1.000000	-1.000000	-1.000000	-1.000000	-1.000000	-1.000000	75.310345	0.000000	-1.000000	-1.000000	1852311.000000	1770065201.452104
-3544.560000	-7732.620000	267.705000	13397.535000	-2662.020000	-3832.200000	8223.255000	-3607.605000	52.297564	57.796095	55.745587	49.379046	43.148364	37.566332	28.464491	43.180778	-2.716280	2.639980	-0.396760	0.663695	0.736570	0.077942	-1.000000	-1.000000	-1.000000	-1.000000	-1.000000	-1.000000	-1.000000	75.310345	0.000000	-1.000000	-1.000000	1852312.000000	1770065201.452109
-3616.065000	-7787.655000	213.075000	13341.060000	-2720.925000	-3901.005000	8171.820000	-3646.215000	48.768994	50.148342	48.636957	44.368112	40.676023	34.122723	23.624525	46.333909	-2.716280	2.639980	-0.396760	0.663695	0.736570	0.077942	-1.000000	-1.000000	-1.000000	-1.000000	-1.000000	-1.000000	-1.000000	75.310345	0.000000	-1.000000	-1.000000	1852313.000000	1770065201.452990
-3593.340000	-7770.285000	229.275000	13354.830000	-2708.820000	-3900.105000	8185.545000	-3616.605000	21.944574	19.685066	19.044984	17.791384	17.478243	11.487357	6.819328	24.826742	-2.716280	2.639980	-0.396760	0.663695	0.736570	0.077942	-1.000000	-1.000000	-1.000000	-1.000000	-1.000000	-1.000000	-1.000000	75.310345	0.000000	-1.000000	-1.000000	1852314.000000	1770065201.453000
-3552.255000	-7736.040000	262.260000	13387.185000	-2674.755000	-3858.120000	8203.995000	-3603.555000	-7.120199	-10.670565	-10.793235	-10.040656	-8.378147	-12.853716	-10.651627	2.259414	-2.716280	2.639980	-0.396760	0.663695	0.736570	0.077942	-1.000000	-1.000000	-1.000000	-1.000000	-1.000000	-1.000000	-1.000000	75.310345	0.000000	-1.000000	-1.000000	1852315.000000	1770065201.457219
-3528.270000	-7696.665000	302.490000	13427.100000	-2633.445000	-3814.335000	8211.780000	-3591.045000	-19.934512	-23.030529	-23.078765	-21.687310	-19.724122	-21.732114	-17.834037	-4.027682	-2.716280	2.639980	-0.396760	0.663695	0.736570	0.077942	-1.000000	-1.000000	-1.000000	-1.000000	-1.000000	-1.000000	-1.000000	75.310345	0.000000	-1.000000	-1.000000	1852316.000000	1770065201.457230
-3557.430000	-7738.245000	258.345000	13380.750000	-2683.170000	-3857.670000	8190.450000	-3592.980000	-17.608543	-19.816190	-19.931076	-18.476404	-16.591366	-14.494183	-14.351362	-0.528720	-2.716280	2.639980	-0.396760	0.663695	0.736570	0.077942	-1.000000	-1.000000	-1.000000	-1.000000	-1.000000	-1.000000	-1.000000	75.310345	0.000000	-1.000000	-1.000000	1852317.000000	1770065201.462703
-3572.145000	-7766.280000	227.205000	13347.945000	-2716.110000	-3880.665000	8192.205000	-3597.480000	-11.957861	-13.726520	-13.923570	-12.450306	-10.378008	-3.233547	-6.817028	-1.416055	-2.716280	2.639980	-0.396760	0.663695	0.736570	0.077942	-1.000000	-1.000000	-1.000000	-1.000000	-1.000000	-1.000000	-1.000000	75.310345	0.000000	-1.000000	-1.000000	1852318.000000	1770065201.462714
-3562.155000	-7745.580000	251.235000	13375.845000	-2682.000000	-3847.590000	8213.805000	-3624.390000	-10.785749	-12.461607	-12.644923	-11.086244	-8.935247	1.625122	-0.929352	-10.875587	-2.716280	2.639980	-0.396760	0.663695	0.736570	0.077942	-1.000000	-1.000000	-1.000000	-1.000000	-1.000000	-1.000000	-1.000000	75.310345	0.000000	-1.000000	-1.000000	1852319.000000	1770065201.465098
-3559.590000	-7735.455000	265.455000	13392.360000	-2662.875000	-3831.930000	8216.820000	-3634.065000	-13.584067	-14.393191	-14.076131	-12.205116	-10.244810	-0.275510	1.605246	-23.751838	-2.716280	2.639980	-0.396760	0.663695	0.736570	0.077942	-1.000000	-1.000000	-1.000000	-1.000000	-1.000000	-1.000000	-1.000000	75.310345	0.000000	-1.000000	-1.000000	1852320.000000	1770065201.465104
-3577.455000	-7759.170000	237.960000	13362.435000	-2705.130000	-3869.685000	8178.030000	-3658.725000	-14.842167	-13.760943	-12.479405	-10.231450	-8.720709	-3.246067	1.558047	-32.154233	-2.990960	4.303320	-0.381500	0.666502	0.735045	0.081543	-1.000000	-1.000000	-1.000000	-1.000000	-1.000000	-1.000000	-1.000000	75.310345	0.000000	-1.000000	-1.000000	1852321.000000	1770065201.469303
-3567.780000	-7739.415000	257.535000	13379.850000	-2693.160000	-3859.155000	8196.255000	-3632.490000	-9.515289	-6.857103	-4.958697	-2.940786	-2.598849	-2.913093	0.617900	-29.223243	-2.990960	4.303320	-0.381500	0.666502	0.735045	0.081543	-1.000000	-1.000000	-1.000000	-1.000000	-1.000000	-1.000000	-1.000000	75.310345	0.000000	-1.000000	-1.000000	1852322.000000	1770065201.469316
-3553.515000	-7726.995000	272.745000	13395.195000	-2675.835000	-3838.680000	8235.585000	-3536.415000	3.086541	6.114085	7.673844	8.440625	6.734465	2.032384	1.570982	-10.828926	-2.990960	4.303320	-0.381500	0.666502	0.735045	0.081543	-1.000000	-1.000000	-1.000000	-1.000000	-1.000000	-1.000000	-1.000000	75.310345	0.000000	-1.000000	-1.000000	1852323.000000	1770065201.472992
-3559.365000	-7757.280000	240.570000	13368.780000	-2693.475000	-3855.870000	8202.645000	-3577.050000	16.797791	18.890786	19.437076	18.481457	14.995856	8.291165	4.973490	18.517173	-2.990960	4.303320	-0.381500	0.666502	0.735045	0.081543	-1.000000	-1.000000	-1.000000	-1.000000	-1.000000	-1.000000	-1.000000	75.310345	0.000000	-1.000000	-1.000000	1852324.000000	1770065201.473003
-3549.555000	-7741.395000	253.710000	13379.580000	-2676.735000	-3833.415000	8189.460000	-3609.540000	22.356638	21.944177	21.376103	19.316635	16.003149	9.500865	6.612057	41.372794	-2.990960	4.303320	-0.381500	0.666502	0.735045	0.081543	-1.000000	-1.000000	-1.000000	-1.000000	-1.000000	-1.000000	-1.000000	75.310345	0.000000	-1.000000	-1.000000	1852325.000000	1770065201.477014
-3559.320000	-7744.635000	250.245000	13373.010000	-2684.115000	-3835.215000	8200.395000	-3602.115000	16.949105	13.728762	12.318332	10.220655	9.351114	4.738122	3.558476	41.232692	-2.990960	4.303320	-0.381500	0.666502	0.735045	0.081543	-1.000000	-1.000000	-1.000000	-1.000000	-1.000000	-1.000000	-1.000000	75.310345	0.000000	-1.000000	-1.000000	1852326.000000	1770065201.477024
-3572.370000	-7748.280000	252.585000	13381.380000	-2675.655000	-3840.615000	8207.415000	-3603.015000	5.382918	1.963223	0.364054	-1.061665	1.099073	-1.108908	-1.696100	19.633359	-2.990960	4.303320	-0.381500	0.666502	0.735045	0.081543	-1.000000	-1.000000	-1.000000	-1.000000	-1.000000	-1.000000	-1.000000	75.310345	0.000000	-1.000000	-1.000000	1852327.000000	1770065201.483932
-3565.890000	-7747.290000	255.105000	13389.480000	-2665.440000	-3832.110000	8202.960000	-3596.715000	-6.495143	-6.884230	-7.776541	-8.170903	-4.556695	-5.295585	-5.792897	-7.672416	-2.990960	4.303320	-0.381500	0.666502	0.735045	0.081543	-1.000000	-1.000000	-1.000000	-1.000000	-1.000000	-1.000000	-1.000000	75.310345	0.000000	-1.000000	-1.000000	1852328.000000	1770065201.483941
-3570.480000	-7748.685000	254.970000	13386.960000	-2663.325000	-3823.920000	8205.075000	-3608.955000	-14.160136	-11.095774	-10.797096	-10.108204	-7.255030	-7.553561	-7.264597	-25.542193	-2.990960	4.303320	-0.381500	0.666502	0.735045	0.081543	-1.000000	-1.000000	-1.000000	-1.000000	-1.000000	-1.000000	-1.000000	75.310345	0.000000	-1.000000	-1.000000	1852329.000000	1770065201.486616
-3577.770000	-7757.190000	244.575000	13371.750000	-2681.820000	-3841.065000	8187.120000	-3621.825000	-14.583445	-10.440963	-9.270649	-8.035314	-7.005510	-6.651541	-5.324043	-28.100366	-2.990960	4.303320	-0.381500	0.666502	0.735045	0.081543	-1.000000	-1.000000	-1.000000	-1.000000	-1.000000	-1.000000	-1.000000	75.310345	0.000000	-1.000000	-1.000000	1852330.000000	1770065201.486625
-3552.615000	-7745.580000	249.885000	13373.955000	-2682.675000	-3834.315000	8163.810000	-3587.220000	-7.859063	-5.637860	-4.511940	-3.729822	-4.304775	-2.372943	-1.362755	-18.613917	-2.639980	4.639040	-0.305200	0.666075	0.735838	0.083435	-1.000000	-1.000000	-1.000000	-1.000000	-1.000000	-1.000000	-1.000000	75.310345	0.000000	-1.000000	-1.000000	1852331.000000	1770065201.496299
-3537.945000	-7729.020000	267.255000	13393.485000	-2663.145000	-3830.895000	8186.130000	-3596.130000	2.417152	1.066030	1.142256	0.701204	-1.033769	2.534435	1.150410	-4.889491	-2.639980	4.639040	-0.305200	0.666075	0.735838	0.083435	-1.000000	-1.000000	-1.000000	-1.000000	-1.000000	-1.000000	-1.000000	75.310345	0.000000	-1.000000	-1.000000	1852332.000000	1770065201.496311
-3525.570000	-7701.660000	299.025000	13419.270000	-2639.520000	-3816.540000	8219.880000	-3592.215000	10.799388	7.053882	5.836204	4.159822	1.458430	4.928507	2.141072	6.207171	-2.639980	4.639040	-0.305200	0.666075	0.735838	0.083435	-1.000000	-1.000000	-1.000000	-1.000000	-1.000000	-1.000000	-1.000000	75.310345	0.000000	-1.000000	-1.000000	1852333.000000	1770065201.496855
-3518.370000	-7704.315000	284.895000	13400.235000	-2661.210000	-3804.885000	8206.245000	-3568.365000	13.339223	10.341664	8.606752	6.321166	2.931543	4.308868	4.662865	12.463547	-2.639980	4.639040	-0.305200	0.666075	0.735838	0.083435	-1.000000	-1.000000	-1.000000	-1.000000	-1.000000	-1.000000	-1.000000	75.310345	0.000000	-1.000000	-1.000000	1852334.000000	1770065201.496862
-3548.115000	-7736.670000	245.790000	13368.780000	-2685.150000	-3809.610000	8167.410000	-3591.090000	9.573713	9.238333	7.745298	5.843694	2.627152	2.440828	7.507288	14.290994	-2.639980	4.639040	-0.305200	0.666075	0.735838	0.083435	-1.000000	-1.000000	-1.000000	-1.000000	-1.000000	-1.000000	-1.000000	75.310345	0.000000	-1.000000	-1.000000	1852335.000000	1770065201.497357
-3550.230000	-7728.705000	254.205000	13391.460000	-2646.990000	-3800.745000	8089.245000	-3621.870000	1.340514	3.023595	1.812022	1.515101	0.063915	0.664135	4.687796	10.897600	-2.639980	4.639040	-0.305200	0.666075	0.735838	0.083435	-1.000000	-1.000000	-1.000000	-1.000000	-1.000000	-1.000000	-1.000000	75.310345	0.000000	-1.000000	-1.000000	1852336.000000	1770065201.497363
-3542.940000	-7737.255000	239.445000	13374.855000	-2651.535000	-3802.545000	8056.800000	-3577.365000	-7.779802	-5.869044	-6.965274	-4.847192	-2.950107	-1.060050	-6.345903	2.893093	-2.639980	4.639040	-0.305200	0.666075	0.735838	0.083435	-1.000000	-1.000000	-1.000000	-1.000000	-1.000000	-1.000000	-1.000000	75.310345	0.000000	-1.000000	-1.000000	1852337.000000	1770065201.502828
-3572.055000	-7753.095000	227.205000	13361.175000	-2680.290000	-3855.195000	8196.930000	-3599.865000	-13.315147	-12.632631	-13.392634	-9.376737	-4.147067	-3.265947	-17.088781	-4.624368	-2.639980	4.639040	-0.305200	0.666075	0.735838	0.083435	-1.000000	-1.000000	-1.000000	-1.000000	-1.000000	-1.000000	-1.000000	75.310345	0.000000	-1.000000	-1.000000	1852338.000000	1770065201.502840
-3578.850000	-7759.845000	235.935000	13359.015000	-2700.900000	-3883.005000	8179.110000	-3634.830000	-13.176135	-13.867688	-13.385161	-9.333890	-3.450944	-6.322012	-13.719494	-7.811970	-2.639980	4.639040	-0.305200	0.666075	0.735838	0.083435	-1.000000	-1.000000	-1.000000	-1.000000	-1.000000	-1.000000	-1.000000	75.310345	0.000000	-1.000000	-1.000000	1852339.000000	1770065201.508237
-3561.030000	-7750.710000	239.175000	13358.430000	-2691.855000	-3848.445000	8151.930000	-3616.605000	-8.614247	-9.531971	-6.667007	-4.796288	-2.065322	-8.822172	4.257031	-8.367103	-2.639980	4.639040	-0.305200	0.666075	0.735838	0.083435	-1.000000	-1.000000	-1.000000	-1.000000	-1.000000	-1.000000	-1.000000	75.310345	0.000000	-1.000000	-1.000000	1852340.000000	1770065201.508249
-3569.265000	-7755.660000	210.330000	13326.975000	-2688.075000	-3848.985000	8142.930000	-3608.235000	-2.226310	-2.347211	2.377576	0.825544	-0.795288	-7.551057	21.044013	-7.803396	-2.136400	4.333840	-1.022420	0.665587	0.735655	0.083313	-1.000000	-1.000000	-1.000000	-1.000000	-1.000000	-1.000000	-1.000000	75.310345	0.000000	-1.000000	-1.000000	1852341.000000	1770065201.513395
-3543.705000	-7722.090000	234.720000	13346.055000	-2658.690000	-3788.865000	8049.285000	-3613.095000	3.659642	4.359842	7.928626	3.594383	0.588957	-0.945484	21.899135	-4.738594	-2.136400	4.333840	-1.022420	0.665587	0.735655	0.083313	-1.000000	-1.000000	-1.000000	-1.000000	-1.000000	-1.000000	-1.000000	75.310345	0.000000	-1.000000	-1.000000	1852342.000000	1770065201.513405
-3513.600000	-7677.045000	295.290000	13419.180000	-2622.330000	-3766.680000	8177.535000	-3572.865000	8.545465	9.885165	9.681336	4.904666	3.920223	9.277678	7.274878	1.068051	-2.136400	4.333840	-1.022420	0.665587	0.735655	0.083313	-1.000000	-1.000000	-1.000000	-1.000000	-1.000000	-1.000000	-1.000000	75.310345	0.000000	-1.000000	-1.000000	1852343.000000	1770065201.513862
-3550.590000	-7723.665000	243.405000	13385.970000	-2661.570000	-3844.530000	8242.470000	-3592.035000	12.578028	14.595930	11.412344	9.041371	9.353699	17.459528	-6.362575	7.881153	-2.136400	4.333840	-1.022420	0.665587	0.735655	0.083313	-1.000000	-1.000000	-1.000000	-1.000000	-1.000000	-1.000000	-1.000000	75.310345	0.000000	-1.000000	-1.000000	1852344.000000	1770065201.513872
-3522.915000	-7722.765000	223.920000	13360.095000	-2683.530000	-3842.460000	8064.855000	-3585.015000	13.682491	15.293212	11.804427	13.332972	11.301739	15.869207	-6.223075	12.755964	-2.136400	4.333840	-1.022420	0.665587	0.735655	0.083313	-1.000000	-1.000000	-1.000000	-1.000000	-1.000000	-1.000000	-1.000000	75.310345	0.000000	-1.000000	-1.000000	1852345.000000	1770065201.518520
-3403.395000	-7615.890000	285.255000	13404.510000	-2620.665000	-3691.035000	7790.220000	-3489.660000	11.706141	10.428968	7.490394	11.581367	5.832069	5.902694	-4.341579	13.558868	-2.136400	4.333840	-1.022420	0.665587	0.735655	0.083313	-1.000000	-1.000000	-1.000000	-1.000000	-1.000000	-1.000000	-1.000000	75.310345	0.000000	-1.000000	-1.000000	1852346.000000	1770065201.518531
-3447.405000	-7669.710000	214.785000	13277.205000	-2661.120000	-3708.765000	7928.055000	-3507.525000	10.364101	4.609965	0.427273	3.107300	-1.924014	0.107580	-18.739517	11.875851	-2.136400	4.333840	-1.022420	0.665587	0.735655	0.083313	-1.000000	-1.000000	-1.000000	-1.000000	-1.000000	-1.000000	-1.000000	75.310345	0.000000	-1.000000	-1.000000	1852347.000000	1770065201.522557
-3515.805000	-7770.465000	116.640000	13118.085000	-2701.980000	-3763.395000	7930.440000	-3610.980000	7.807553	-1.395544	-8.163563	-11.763836	-6.534602	3.034970	-38.784810	7.487861	-2.136400	4.333840	-1.022420	0.665587	0.735655	0.083313	-1.000000	-1.000000	-1.000000	-1.000000	-1.000000	-1.000000	-1.000000	75.310345	0.000000	-1.000000	-1.000000	1852348.000000	1770065201.522568
-3448.620000	-7707.060000	192.780000	13205.655000	-2648.790000	-3607.020000	7778.970000	-3514.185000	-1.919676	-11.376852	-18.134879	-30.027174	-8.343942	6.340271	-39.912174	-2.770266	-2.136400	4.333840	-1.022420	0.665587	0.735655	0.083313	-1.000000	-1.000000	-1.000000	-1.000000	-1.000000	-1.000000	-1.000000	75.310345	0.000000	-1.000000	-1.000000	1852349.000000	1770065201.527603
-3403.890000	-7670.250000	182.520000	13262.310000	-2662.425000	-3697.425000	7717.905000	-3468.645000	-15.156008	-21.034022	-22.610816	-37.142159	-8.015297	4.010666	-19.267255	-14.092707	-2.136400	4.333840	-1.022420	0.665587	0.735655	0.083313	-1.000000	-1.000000	-1.000000	-1.000000	-1.000000	-1.000000	-1.000000	75.310345	0.000000	-1.000000	-1.000000	1852350.000000	1770065201.527614
-3483.855000	-7742.115000	68.355000	13302.045000	-2611.890000	-3700.890000	8086.905000	-3502.755000	-22.970536	-22.584769	-17.229360	-20.523227	-5.259024	-5.764117	13.712934	-17.522126	-1.144500	-3.525060	0.213640	0.662962	0.730528	0.084350	-1.000000	-1.000000	-1.000000	-1.000000	-1.000000	-1.000000	-1.000000	75.310345	0.000000	-1.000000	-1.000000	1852351.000000	1770065201.532561
-3616.470000	-7974.495000	-185.220000	12973.905000	-2733.480000	-3850.335000	8104.635000	-3602.340000	-25.487947	-19.757111	-11.829064	7.893461	-2.109114	-22.845768	53.639352	-14.650691	-1.144500	-3.525060	0.213640	0.662962	0.730528	0.084350	-1.000000	-1.000000	-1.000000	-1.000000	-1.000000	-1.000000	-1.000000	75.310345	0.000000	-1.000000	-1.000000	1852352.000000	1770065201.532571
-3582.180000	-7994.025000	-283.950000	12812.175000	-2691.270000	-3763.215000	8112.555000	-3599.145000	-26.702810	-21.486402	-17.638343	18.801745	-1.731820	-38.641535	85.372919	-13.121975	-1.144500	-3.525060	0.213640	0.662962	0.730528	0.084350	-1.000000	-1.000000	-1.000000	-1.000000	-1.000000	-1.000000	-1.000000	75.310345	0.000000	-1.000000	-1.000000	1852353.000000	1770065201.533092
-3574.665000	-7941.645000	-260.505000	12807.270000	-2736.090000	-3820.455000	7968.420000	-3577.275000	-23.564747	-23.994805	-27.994850	1.244656	-3.600548	-40.089204	87.623884	-13.590658	-1.144500	-3.525060	0.213640	0.662962	0.730528	0.084350	-1.000000	-1.000000	-1.000000	-1.000000	-1.000000	-1.000000	-1.000000	75.310345	0.000000	-1.000000	-1.000000	1852354.000000	1770065201.533102
-3546.405000	-7857.450000	-101.115000	13048.335000	-2812.815000	-3797.325000	7792.020000	-3566.970000	-11.558298	-13.743648	-21.905406	-19.254367	-5.676625	-24.569203	52.200274	-11.194238	-1.144500	-3.525060	0.213640	0.662962	0.730528	0.084350	-1.000000	-1.000000	-1.000000	-1.000000	-1.000000	-1.000000	-1.000000	75.310345	0.000000	-1.000000	-1.000000	1852355.000000	1770065201.539684
-3502.530000	-7724.205000	201.645000	13318.650000	-2763.180000	-3818.385000	7705.260000	-3574.035000	9.053949	16.572676	17.304756	-4.039724	-6.465099	-0.259382	-14.021048	-2.425273	-1.144500	-3.525060	0.213640	0.662962	0.730528	0.084350	-1.000000	-1.000000	-1.000000	-1.000000	-1.000000	-1.000000	-1.000000	75.310345	0.000000	-1.000000	-1.000000	1852356.000000	1770065201.539695
-3432.915000	-7600.905000	362.655000	13326.615000	-2670.660000	-3791.745000	7806.510000	-3561.885000	34.186085	60.284816	84.087461	54.906319	-0.737787	23.693778	-84.311229	12.175377	-1.144500	-3.525060	0.213640	0.662962	0.730528	0.084350	-1.000000	-1.000000	-1.000000	-1.000000	-1.000000	-1.000000	-1.000000	75.310345	0.000000	-1.000000	-1.000000	1852357.000000	1770065201.541157
-3454.470000	-7625.475000	107.010000	12922.020000	-2687.535000	-3825.945000	7966.215000	-3558.915000	53.072971	94.275731	137.689314	109.143472	13.641310	38.010125	-113.735102	25.431022	-1.144500	-3.525060	0.213640	0.662962	0.730528	0.084350	-1.000000	-1.000000	-1.000000	-1.000000	-1.000000	-1.000000	-1.000000	75.310345	0.000000	-1.000000	-1.000000	1852358.000000	1770065201.541164
-3486.420000	-7711.290000	-64.440000	12811.410000	-2681.415000	-3786.120000	7784.280000	-3559.815000	51.406322	89.354532	123.792262	92.365144	27.035149	37.295065	-80.823419	27.730561	-1.144500	-3.525060	0.213640	0.662962	0.730528	0.084350	-1.000000	-1.000000	-1.000000	-1.000000	-1.000000	-1.000000	-1.000000	75.310345	0.000000	-1.000000	-1.000000	1852359.000000	1770065201.546622
-3565.125000	-7873.920000	-132.075000	13137.885000	-2712.915000	-3891.915000	8248.545000	-3578.175000	26.072564	36.705273	32.673533	3.379418	27.517506	25.573849	-14.114037	17.800922	-1.144500	-3.525060	0.213640	0.662962	0.730528	0.084350	-1.000000	-1.000000	-1.000000	-1.000000	-1.000000	-1.000000	-1.000000	75.310345	0.000000	-1.000000	-1.000000	1852360.000000	1770065201.546632
-3637.845000	-8006.265000	-450.495000	12934.980000	-2835.180000	-4040.820000	8045.730000	-3630.195000	-9.942019	-39.613533	-84.320479	-83.412793	12.603608	8.581873	44.268727	3.506116	7.950460	-27.788460	16.450280	0.666990	0.716124	0.089233	-1.000000	-1.000000	-1.000000	-1.000000	-1.000000	-1.000000	-1.000000	75.310345	0.000000	-1.000000	-1.000000	1852361.000000	1770065201.549126
-3563.730000	-7868.430000	-269.820000	12737.430000	-2780.145000	-3882.780000	8079.345000	-3590.955000	-38.750780	-98.900701	-161.416005	-108.603102	-10.576624	-9.405782	70.493181	-7.480541	7.950460	-27.788460	16.450280	0.666990	0.716124	0.089233	-1.000000	-1.000000	-1.000000	-1.000000	-1.000000	-1.000000	-1.000000	75.310345	0.000000	-1.000000	-1.000000	1852362.000000	1770065201.549137
-3565.530000	-7788.330000	-84.105000	12957.795000	-2806.605000	-3908.115000	8418.870000	-3589.470000	-48.250902	-110.070378	-158.735890	-78.596053	-28.593633	-19.508102	67.752084	-12.631474	7.950460	-27.788460	16.450280	0.666990	0.716124	0.089233	-1.000000	-1.000000	-1.000000	-1.000000	-1.000000	-1.000000	-1.000000	75.310345	0.000000	-1.000000	-1.000000	1852363.000000	1770065201.553101
-3537.180000	-7725.780000	-146.295000	13070.160000	-2783.160000	-3986.370000	8194.500000	-3626.415000	-36.907932	-70.915991	-82.980449	-26.710179	-29.589858	-16.678195	57.099185	-13.116172	7.950460	-27.788460	16.450280	0.666990	0.716124	0.089233	-1.000000	-1.000000	-1.000000	-1.000000	-1.000000	-1.000000	-1.000000	75.310345	0.000000	-1.000000	-1.000000	1852364.000000	1770065201.553108
-3455.280000	-7620.570000	-311.400000	12769.245000	-2795.085000	-3906.765000	7994.835000	-3607.020000	-12.350853	-7.229868	9.525429	15.039282	-14.505244	-6.816158	37.743846	-10.617332	7.950460	-27.788460	16.450280	0.666990	0.716124	0.089233	-1.000000	-1.000000	-1.000000	-1.000000	-1.000000	-1.000000	-1.000000	75.310345	0.000000	-1.000000	-1.000000	1852365.000000	1770065201.557536
-3459.465000	-7609.770000	65.835000	12908.880000	-2793.510000	-3935.520000	7937.010000	-3593.970000	13.688577	47.094774	64.775975	26.474624	3.321217	2.973417	-9.431968	-5.773951	7.950460	-27.788460	16.450280	0.666990	0.716124	0.089233	-1.000000	-1.000000	-1.000000	-1.000000	-1.000000	-1.000000	-1.000000	75.310345	0.000000	-1.000000	-1.000000	1852366.000000	1770065201.557546
-3521.520000	-7659.810000	437.220000	13417.560000	-2727.990000	-3980.115000	8059.455000	-3559.770000	28.725767	69.104865	88.914107	28.548323	12.911505	8.038425	-73.452551	0.422301	7.950460	-27.788460	16.450280	0.666990	0.716124	0.089233	-1.000000	-1.000000	-1.000000	-1.000000	-1.000000	-1.000000	-1.000000	75.310345	0.000000	-1.000000	-1.000000	1852367.000000	1770065201.567594
-3551.895000	-7732.080000	356.265000	13350.510000	-2672.415000	-3971.565000	7890.705000	-3613.005000	26.289967	56.208126	114.222078	56.138664	15.460000	6.057282	-116.243089	5.770694	7.950460	-27.788460	16.450280	0.666990	0.716124	0.089233	-1.000000	-1.000000	-1.000000	-1.000000	-1.000000	-1.000000	-1.000000	75.310345	0.000000	-1.000000	-1.000000	1852368.000000	1770065201.567606
-3534.075000	-7710.030000	403.335000	13311.810000	-2651.400000	-3889.935000	7915.545000	-3609.225000	13.112922	26.177946	133.836474	90.981308	17.903196	3.668795	-118.422997	8.279433	7.950460	-27.788460	16.450280	0.666990	0.716124	0.089233	-1.000000	-1.000000	-1.000000	-1.000000	-1.000000	-1.000000	-1.000000	75.310345	0.000000	-1.000000	-1.000000	1852369.000000	1770065201.567625
-3513.195000	-7677.675000	408.420000	13370.895000	-2639.565000	-3827.655000	8015.535000	-3593.880000	2.365222	2.378092	116.816911	88.537197	22.495033	11.105779	-81.084348	8.330162	7.950460	-27.788460	16.450280	0.666990	0.716124	0.089233	-1.000000	-1.000000	-1.000000	-1.000000	-1.000000	-1.000000	-1.000000	75.310345	0.000000	-1.000000	-1.000000	1852370.000000	1770065201.567630
-3380.580000	-7561.080000	372.015000	13245.750000	-2603.745000	-3686.040000	7234.470000	-3524.895000	0.259350	-6.918600	48.606013	40.863339	23.752215	25.613133	-20.491807	7.660743	59.926020	-18.128880	25.224780	0.687498	0.709227	0.092651	-1.000000	-1.000000	-1.000000	-1.000000	-1.000000	-1.000000	-1.000000	75.310345	0.000000	-1.000000	-1.000000	1852371.000000	1770065201.572289
-3308.985000	-7503.840000	201.960000	12885.345000	-2551.680000	-3609.225000	7376.805000	-3436.965000	5.216606	-9.132790	-61.168477	-39.257772	16.091660	34.847267	22.992752	8.109372	59.926020	-18.128880	25.224780	0.687498	0.709227	0.092651	-1.000000	-1.000000	-1.000000	-1.000000	-1.000000	-1.000000	-1.000000	75.310345	0.000000	-1.000000	-1.000000	1852372.000000	1770065201.572296
-3444.525000	-7715.790000	-438.570000	12221.280000	-2755.035000	-3836.970000	7942.095000	-3467.295000	9.360537	-16.088216	-181.520629	-141.964372	-1.731239	28.181419	43.995637	10.575690	59.926020	-18.128880	25.224780	0.687498	0.709227	0.092651	-1.000000	-1.000000	-1.000000	-1.000000	-1.000000	-1.000000	-1.000000	75.310345	0.000000	-1.000000	-1.000000	1852373.000000	1770065201.574833
-3575.385000	-7898.535000	-958.995000	12309.885000	-2877.120000	-4132.530000	8624.655000	-3547.305000	-1.640879	-38.713408	-275.524633	-231.825300	-30.802051	-5.966487	96.284077	9.622187	59.926020	-18.128880	25.224780	0.687498	0.709227	0.092651	-1.000000	-1.000000	-1.000000	-1.000000	-1.000000	-1.000000	-1.000000	75.310345	0.000000	-1.000000	-1.000000	1852374.000000	1770065201.574843
-3678.300000	-8035.335000	-813.195000	12747.555000	-2869.425000	-4067.415000	8473.140000	-3667.545000	-32.225758	-73.409543	-307.766050	-238.457338	-63.984208	-64.141839	192.590079	-4.346939	59.926020	-18.128880	25.224780	0.687498	0.709227	0.092651	-1.000000	-1.000000	-1.000000	-1.000000	-1.000000	-1.000000	-1.000000	75.310345	0.000000	-1.000000	-1.000000	1852375.000000	1770065201.580402
-3572.640000	-7821.045000	-286.470000	12896.595000	-2778.795000	-3993.615000	8415.810000	-3629.205000	-61.381894	-90.090544	-234.958903	-120.968905	-79.409847	-108.340961	251.954328	-29.982823	59.926020	-18.128880	25.224780	0.687498	0.709227	0.092651	-1.000000	-1.000000	-1.000000	-1.000000	-1.000000	-1.000000	-1.000000	75.310345	0.000000	-1.000000	-1.000000	1852376.000000	1770065201.580414
-3580.605000	-7656.030000	405.360000	13248.630000	-2722.590000	-4005.765000	8284.680000	-3647.295000	-58.781132	-52.319625	-29.945299	78.069346	-58.132869	-98.141174	189.712283	-48.824409	59.926020	-18.128880	25.224780	0.687498	0.709227	0.092651	-1.000000	-1.000000	-1.000000	-1.000000	-1.000000	-1.000000	-1.000000	75.310345	0.000000	-1.000000	-1.000000	1852377.000000	1770065201.581290
-3638.835000	-7760.160000	581.805000	13428.270000	-2714.445000	-3997.260000	8261.055000	-3629.025000	-18.724572	37.336662	257.774227	266.420263	-4.094339	-35.053235	12.494085	-42.748717	59.926020	-18.128880	25.224780	0.687498	0.709227	0.092651	-1.000000	-1.000000	-1.000000	-1.000000	-1.000000	-1.000000	-1.000000	75.310345	0.000000	-1.000000	-1.000000	1852378.000000	1770065201.581300
-3578.490000	-7715.430000	505.980000	13560.885000	-2706.705000	-3976.380000	8130.870000	-3600.045000	32.442840	123.583612	486.678976	360.405230	55.785679	41.367268	-186.692548	-12.917991	59.926020	-18.128880	25.224780	0.687498	0.709227	0.092651	-1.000000	-1.000000	-1.000000	-1.000000	-1.000000	-1.000000	-1.000000	75.310345	0.000000	-1.000000	-1.000000	1852379.000000	1770065201.586634
-3496.320000	-7629.390000	417.060000	13623.390000	-2639.115000	-3896.955000	8068.185000	-3614.805000	63.862647	148.034736	512.718408	319.915823	90.549293	89.028178	-297.996383	21.994910	59.926020	-18.128880	25.224780	0.687498	0.709227	0.092651	-1.000000	-1.000000	-1.000000	-1.000000	-1.000000	-1.000000	-1.000000	75.310345	0.000000	-1.000000	-1.000000	1852380.000000	1770065201.586644
-3520.530000	-7655.175000	358.695000	13549.365000	-2623.995000	-3919.725000	8175.330000	-3611.160000	64.029767	100.503784	311.730341	168.911146	87.323802	92.428715	-272.765673	41.744063	40.133800	-36.196720	47.321260	0.646055	0.764341	0.084778	-1.000000	-1.000000	-1.000000	-1.000000	-1.000000	-1.000000	-1.000000	75.310345	0.000000	-1.000000	-1.000000	1852381.000000	1770065201.589240
-3556.305000	-7747.380000	137.295000	13310.910000	-2680.380000	-3865.005000	8072.865000	-3615.705000	41.061530	16.215255	1.248278	-20.744073	55.954035	67.179891	-155.909366	39.983733	40.133800	-36.196720	47.321260	0.646055	0.764341	0.084778	-1.000000	-1.000000	-1.000000	-1.000000	-1.000000	-1.000000	-1.000000	75.310345	0.000000	-1.000000	-1.000000	1852382.000000	1770065201.589259
-3550.140000	-7775.055000	-46.755000	13145.175000	-2734.695000	-3874.950000	7952.085000	-3570.615000	12.308731	-57.559561	-261.682913	-185.227854	14.547719	39.653436	-37.852217	26.605976	40.133800	-36.196720	47.321260	0.646055	0.764341	0.084778	-1.000000	-1.000000	-1.000000	-1.000000	-1.000000	-1.000000	-1.000000	75.310345	0.000000	-1.000000	-1.000000	1852383.000000	1770065201.593221
-3441.060000	-7708.365000	-104.220000	13020.795000	-2716.740000	-3784.230000	7617.690000	-3515.895000	-6.217953	-89.440609	-391.369896	-299.070566	-24.449907	20.678182	26.112193	15.919963	40.133800	-36.196720	47.321260	0.646055	0.764341	0.084778	-1.000000	-1.000000	-1.000000	-1.000000	-1.000000	-1.000000	-1.000000	75.310345	0.000000	-1.000000	-1.000000	1852384.000000	1770065201.593234
-3402.765000	-7711.920000	-258.300000	12699.810000	-2709.720000	-3721.770000	7952.355000	-3489.795000	-9.259991	-78.128092	-393.111834	-351.370973	-54.293802	3.645143	48.781532	13.066743	40.133800	-36.196720	47.321260	0.646055	0.764341	0.084778	-1.000000	-1.000000	-1.000000	-1.000000	-1.000000	-1.000000	-1.000000	75.310345	0.000000	-1.000000	-1.000000	1852385.000000	1770065201.602478
-3535.380000	-7810.155000	-305.865000	12755.880000	-2856.420000	-3998.205000	8173.620000	-3557.520000	-5.911596	-47.090582	-313.174336	-326.161730	-70.509894	-20.639419	78.804658	10.922365	40.133800	-36.196720	47.321260	0.646055	0.764341	0.084778	-1.000000	-1.000000	-1.000000	-1.000000	-1.000000	-1.000000	-1.000000	75.310345	0.000000	-1.000000	-1.000000	1852386.000000	1770065201.602489
-3587.760000	-7818.120000	-56.970000	13101.030000	-2829.330000	-4044.195000	8158.365000	-3575.340000	-10.791276	-19.845019	-182.881530	-208.788584	-70.632113	-56.397843	138.190912	-0.686606	40.133800	-36.196720	47.321260	0.646055	0.764341	0.084778	-1.000000	-1.000000	-1.000000	-1.000000	-1.000000	-1.000000	-1.000000	75.310345	0.000000	-1.000000	-1.000000	1852387.000000	1770065201.602501
-3511.665000	-7720.155000	165.870000	12794.400000	-2741.355000	-3878.370000	7764.570000	-3558.285000	-28.226722	-3.118438	-8.329522	-15.031847	-51.642593	-91.296861	190.676670	-22.535216	40.133800	-36.196720	47.321260	0.646055	0.764341	0.084778	-1.000000	-1.000000	-1.000000	-1.000000	-1.000000	-1.000000	-1.000000	75.310345	0.000000	-1.000000	-1.000000	1852388.000000	1770065201.602506
-3459.240000	-7611.345000	375.255000	12942.135000	-2650.590000	-3906.495000	8032.635000	-3601.080000	-45.906820	8.728921	188.619173	186.973342	-13.102853	-97.877160	182.511124	-43.581242	40.133800	-36.196720	47.321260	0.646055	0.764341	0.084778	-1.000000	-1.000000	-1.000000	-1.000000	-1.000000	-1.000000	-1.000000	75.310345	0.000000	-1.000000	-1.000000	1852389.000000	1770065201.605263
-3573.855000	-7703.055000	411.120000	13362.930000	-2701.710000	-4044.465000	8322.075000	-3645.450000	-47.369343	22.206042	349.015310	327.864159	34.279817	-64.310252	105.783220	-51.542979	40.133800	-36.196720	47.321260	0.646055	0.764341	0.084778	-1.000000	-1.000000	-1.000000	-1.000000	-1.000000	-1.000000	-1.000000	75.310345	0.000000	-1.000000	-1.000000	1852390.000000	1770065201.605274
-3552.930000	-7713.450000	210.015000	13401.045000	-2687.040000	-3914.640000	8322.120000	-3575.655000	-28.210719	36.286539	405.808433	383.252796	71.183507	-6.138934	1.486037	-40.860186	3.341940	-13.779780	20.097420	0.672117	0.795835	0.063171	-1.000000	-1.000000	-1.000000	-1.000000	-1.000000	-1.000000	-1.000000	75.310345	0.000000	-1.000000	-1.000000	1852391.000000	1770065201.612096
-3532.950000	-7715.925000	54.855000	13066.470000	-2663.055000	-3907.755000	8259.345000	-3582.225000	3.121532	43.570324	321.692023	337.711499	82.183435	52.623374	-84.296488	-13.616674	3.341940	-13.779780	20.097420	0.672117	0.795835	0.063171	-1.000000	-1.000000	-1.000000	-1.000000	-1.000000	-1.000000	-1.000000	75.310345	0.000000	-1.000000	-1.000000	1852392.000000	1770065201.612144
-3528.945000	-7688.475000	141.615000	13189.095000	-2682.855000	-3939.210000	8189.595000	-3602.610000	31.594167	36.834372	118.882954	182.603537	62.724353	88.357543	-126.849383	18.206232	3.341940	-13.779780	20.097420	0.672117	0.795835	0.063171	-1.000000	-1.000000	-1.000000	-1.000000	-1.000000	-1.000000	-1.000000	75.310345	0.000000	-1.000000	-1.000000	1852393.000000	1770065201.613212
-3455.190000	-7599.015000	357.255000	13471.965000	-2710.890000	-3883.590000	7978.230000	-3578.715000	44.945336	16.675916	-114.097412	-27.229413	20.247095	86.524730	-132.811111	39.022844	3.341940	-13.779780	20.097420	0.672117	0.795835	0.063171	-1.000000	-1.000000	-1.000000	-1.000000	-1.000000	-1.000000	-1.000000	75.310345	0.000000	-1.000000	-1.000000	1852394.000000	1770065201.613229
-3482.055000	-7680.600000	186.570000	13323.240000	-2718.315000	-3944.340000	8164.350000	-3544.875000	44.166625	-5.581198	-274.330376	-198.509377	-25.851168	57.100256	-124.576213	43.573756	3.341940	-13.779780	20.097420	0.672117	0.795835	0.063171	-1.000000	-1.000000	-1.000000	-1.000000	-1.000000	-1.000000	-1.000000	75.310345	0.000000	-1.000000	-1.000000	1852395.000000	1770065201.622770
-3578.805000	-7776.090000	261.315000	13340.925000	-2734.110000	-4006.755000	8131.680000	-3608.820000	34.034010	-22.288132	-314.909514	-280.725652	-55.438236	19.565717	-99.026028	35.507749	3.341940	-13.779780	20.097420	0.672117	0.795835	0.063171	-1.000000	-1.000000	-1.000000	-1.000000	-1.000000	-1.000000	-1.000000	75.310345	0.000000	-1.000000	-1.000000	1852396.000000	1770065201.622781
-3536.730000	-7713.225000	367.020000	13394.340000	-2717.055000	-3893.715000	7923.285000	-3613.590000	11.946218	-37.048634	-251.115744	-269.645097	-62.407735	-17.424701	-39.928618	17.769551	3.341940	-13.779780	20.097420	0.672117	0.795835	0.063171	-1.000000	-1.000000	-1.000000	-1.000000	-1.000000	-1.000000	-1.000000	75.310345	0.000000	-1.000000	-1.000000	1852397.000000	1770065201.622792
-3398.940000	-7558.695000	453.600000	13445.460000	-2614.275000	-3668.265000	7324.245000	-3586.005000	-16.394460	-46.316040	-123.996116	-181.783659	-50.394142	-41.483103	22.781259	-3.821825	3.341940	-13.779780	20.097420	0.672117	0.795835	0.063171	-1.000000	-1.000000	-1.000000	-1.000000	-1.000000	-1.000000	-1.000000	75.310345	0.000000	-1.000000	-1.000000	1852398.000000	1770065201.622797
-3374.100000	-7522.290000	350.730000	13308.615000	-2657.835000	-3827.520000	7475.580000	-3513.060000	-30.089447	-33.836175	19.421067	-62.138219	-22.795194	-36.708236	32.902042	-17.625867	3.341940	-13.779780	20.097420	0.672117	0.795835	0.063171	-1.000000	-1.000000	-1.000000	-1.000000	-1.000000	-1.000000	-1.000000	75.310345	0.000000	-1.000000	-1.000000	1852399.000000	1770065201.625211
-3563.550000	-7783.065000	28.710000	13104.765000	-2773.080000	-4070.205000	8253.540000	-3495.060000	-21.287322	0.502384	130.657376	33.411019	10.159974	-16.667453	6.786790	-17.007360	3.341940	-13.779780	20.097420	0.672117	0.795835	0.063171	-1.000000	-1.000000	-1.000000	-1.000000	-1.000000	-1.000000	-1.000000	75.310345	0.000000	-1.000000	-1.000000	1852400.000000	1770065201.625230
-3608.145000	-7866.585000	-4.140000	13122.180000	-2741.130000	-4054.590000	8351.370000	-3569.400000	-9.349869	27.458816	170.749648	80.240374	30.250665	-13.880879	27.416831	-8.326610	0.000000	30.565780	-22.676360	0.699705	0.711668	0.045227	-1.000000	-1.000000	-1.000000	-1.000000	-1.000000	-1.000000	-1.000000	75.310345	0.000000	-1.000000	-1.000000	1852401.000000	1770065201.640967
-3541.365000	-7749.315000	136.890000	13265.955000	-2689.695000	-3985.830000	8330.760000	-3599.280000	-11.260682	24.228396	134.272920	90.673186	30.739083	-31.186303	115.971265	-3.845024	0.000000	30.565780	-22.676360	0.699705	0.711668	0.045227	-1.000000	-1.000000	-1.000000	-1.000000	-1.000000	-1.000000	-1.000000	75.310345	0.000000	-1.000000	-1.000000	1852402.000000	1770065201.640979
-3473.415000	-7662.870000	163.575000	13231.710000	-2734.470000	-3897.405000	8179.335000	-3564.045000	-18.575097	4.059039	56.444900	83.080657	21.738644	-39.316985	193.482341	-8.055350	0.000000	30.565780	-22.676360	0.699705	0.711668	0.045227	-1.000000	-1.000000	-1.000000	-1.000000	-1.000000	-1.000000	-1.000000	75.310345	0.000000	-1.000000	-1.000000	1852403.000000	1770065201.640990
-3474.180000	-7649.865000	131.535000	13224.555000	-2756.340000	-3908.385000	8131.230000	-3591.495000	-13.339512	-4.288292	-14.730265	64.761594	12.864777	-16.475582	175.598882	-14.355783	0.000000	30.565780	-22.676360	0.699705	0.711668	0.045227	-1.000000	-1.000000	-1.000000	-1.000000	-1.000000	-1.000000	-1.000000	75.310345	0.000000	-1.000000	-1.000000	1852404.000000	1770065201.640996
-3554.640000	-7738.695000	61.740000	13207.455000	-2804.490000	-4056.210000	8325.945000	-3597.705000	6.399763	7.297964	-52.679445	40.958602	4.209068	24.630036	61.363209	-14.534894	0.000000	30.565780	-22.676360	0.699705	0.711668	0.045227	-1.000000	-1.000000	-1.000000	-1.000000	-1.000000	-1.000000	-1.000000	75.310345	0.000000	-1.000000	-1.000000	1852405.000000	1770065201.641002
-3565.170000	-7755.930000	76.500000	13059.810000	-2825.370000	-4013.550000	8200.035000	-3629.970000	23.251243	19.476839	-60.061574	16.228100	-7.558020	48.514412	-71.298097	-6.904195	0.000000	30.565780	-22.676360	0.699705	0.711668	0.045227	-1.000000	-1.000000	-1.000000	-1.000000	-1.000000	-1.000000	-1.000000	75.310345	0.000000	-1.000000	-1.000000	1852406.000000	1770065201.641007
-3498.480000	-7711.560000	-13.905000	12943.530000	-2769.840000	-3868.245000	7888.905000	-3587.715000	22.108071	12.906766	-48.968225	-11.644020	-20.182864	38.760066	-150.181622	3.935102	0.000000	30.565780	-22.676360	0.699705	0.711668	0.045227	-1.000000	-1.000000	-1.000000	-1.000000	-1.000000	-1.000000	-1.000000	75.310345	0.000000	-1.000000	-1.000000	1852407.000000	1770065201.641207
-3486.870000	-7763.715000	-316.755000	12919.860000	-2732.310000	-3824.055000	8067.915000	-3449.340000	8.673171	-7.105411	-26.809794	-38.333424	-22.641548	16.916440	-167.248975	13.587980	0.000000	30.565780	-22.676360	0.699705	0.711668	0.045227	-1.000000	-1.000000	-1.000000	-1.000000	-1.000000	-1.000000	-1.000000	75.310345	0.000000	-1.000000	-1.000000	1852408.000000	1770065201.641218
-3565.215000	-7815.780000	-407.475000	12795.570000	-2769.885000	-4026.915000	8359.965000	-3606.480000	-0.475105	-19.382913	0.457403	-45.643734	-7.205523	8.458166	-147.855222	19.751050	0.000000	30.565780	-22.676360	0.699705	0.711668	0.045227	-1.000000	-1.000000	-1.000000	-1.000000	-1.000000	-1.000000	-1.000000	75.310345	0.000000	-1.000000	-1.000000	1852409.000000	1770065201.645164
-3557.340000	-7819.200000	-139.680000	12782.025000	-2776.230000	-3945.645000	8289.810000	-3640.635000	0.368589	-13.138643	27.780720	-26.877675	16.182688	9.818085	-103.117283	17.805528	0.000000	30.565780	-22.676360	0.699705	0.711668	0.045227	-1.000000	-1.000000	-1.000000	-1.000000	-1.000000	-1.000000	-1.000000	75.310345	0.000000	-1.000000	-1.000000	1852410.000000	1770065201.645175
-3541.095000	-7783.875000	-69.390000	13002.390000	-2750.760000	-3918.780000	8286.030000	-3667.365000	3.217298	1.649636	51.162565	2.806952	29.292961	4.929589	-34.817635	5.602247	42.880600	23.027340	13.123600	0.651671	0.661192	0.040954	-1.000000	-1.000000	-1.000000	-1.000000	-1.000000	-1.000000	-1.000000	75.310345	0.000000	-1.000000	-1.000000	1852411.000000	1770065201.649193
-3578.220000	-7778.655000	177.840000	13256.325000	-2710.710000	-3948.345000	8235.045000	-3615.570000	-0.045303	9.745933	65.851044	32.607351	26.204948	-9.526297	41.975467	-9.841080	42.880600	23.027340	13.123600	0.651671	0.661192	0.040954	-1.000000	-1.000000	-1.000000	-1.000000	-1.000000	-1.000000	-1.000000	75.310345	0.000000	-1.000000	-1.000000	1852412.000000	1770065201.649198
-3575.115000	-7792.830000	333.765000	13362.255000	-2748.645000	-3993.840000	8169.165000	-3579.840000	-8.287185	7.801211	70.792036	62.831799	13.919895	-25.513529	99.371544	-16.832203	42.880600	23.027340	13.123600	0.651671	0.661192	0.040954	-1.000000	-1.000000	-1.000000	-1.000000	-1.000000	-1.000000	-1.000000	75.310345	0.000000	-1.000000	-1.000000	1852413.000000	1770065201.658663
-3545.190000	-7743.195000	387.810000	13450.680000	-2706.840000	-3952.125000	8175.600000	-3635.325000	-12.891092	3.039705	64.648781	84.859444	0.146344	-32.441040	114.294104	-9.935353	42.880600	23.027340	13.123600	0.651671	0.661192	0.040954	-1.000000	-1.000000	-1.000000	-1.000000	-1.000000	-1.000000	-1.000000	75.310345	0.000000	-1.000000	-1.000000	1852414.000000	1770065201.658674
-3529.395000	-7713.945000	341.055000	13420.710000	-2669.490000	-3903.975000	8200.980000	-3613.995000	-8.284810	2.013738	38.923880	81.146460	-10.472832	-25.650729	91.407306	3.957427	42.880600	23.027340	13.123600	0.651671	0.661192	0.040954	-1.000000	-1.000000	-1.000000	-1.000000	-1.000000	-1.000000	-1.000000	75.310345	0.000000	-1.000000	-1.000000	1852415.000000	1770065201.661560
-3528.675000	-7739.325000	255.825000	13326.165000	-2701.305000	-3914.955000	8182.935000	-3616.020000	1.008917	3.868745	-7.996165	42.369096	-16.411279	-11.271570	57.248667	12.250252	42.880600	23.027340	13.123600	0.651671	0.661192	0.040954	-1.000000	-1.000000	-1.000000	-1.000000	-1.000000	-1.000000	-1.000000	75.310345	0.000000	-1.000000	-1.000000	1852416.000000	1770065201.661654
-3523.275000	-7750.980000	233.010000	13209.525000	-2750.850000	-3943.170000	8110.170000	-3601.170000	8.084170	5.233885	-55.936680	-22.747082	-19.624483	2.736424	19.807522	8.110838	42.880600	23.027340	13.123600	0.651671	0.661192	0.040954	-1.000000	-1.000000	-1.000000	-1.000000	-1.000000	-1.000000	-1.000000	75.310345	0.000000	-1.000000	-1.000000	1852417.000000	1770065201.661914
-3465.495000	-7671.825000	217.845000	13155.435000	-2741.445000	-3902.895000	8097.120000	-3595.950000	12.848382	7.262210	-81.143391	-88.782342	-21.084199	15.665126	-32.881871	-1.906031	42.880600	23.027340	13.123600	0.651671	0.661192	0.040954	-1.000000	-1.000000	-1.000000	-1.000000	-1.000000	-1.000000	-1.000000	75.310345	0.000000	-1.000000	-1.000000	1852418.000000	1770065201.661924
-3395.160000	-7665.480000	123.255000	13229.550000	-2664.990000	-3760.425000	7954.200000	-3547.080000	17.576358	10.576517	-85.528337	-127.888987	-17.514125	28.252592	-89.980260	-4.238460	42.880600	23.027340	13.123600	0.651671	0.661192	0.040954	-1.000000	-1.000000	-1.000000	-1.000000	-1.000000	-1.000000	-1.000000	75.310345	0.000000	-1.000000	-1.000000	1852419.000000	1770065201.665685
-3321.990000	-7627.950000	198.405000	13306.500000	-2651.535000	-3663.720000	7547.535000	-3528.810000	20.521434	9.600286	-85.331469	-126.709041	-5.953990	37.131072	-121.534621	4.720222	42.880600	23.027340	13.123600	0.651671	0.661192	0.040954	-1.000000	-1.000000	-1.000000	-1.000000	-1.000000	-1.000000	-1.000000	75.310345	0.000000	-1.000000	-1.000000	1852420.000000	1770065201.665696
-3346.875000	-7628.355000	206.595000	13321.530000	-2641.275000	-3782.610000	7841.115000	-3540.555000	18.079253	0.407005	-81.191796	-90.681174	9.892667	36.549917	-109.362402	14.591738	30.352140	19.502280	17.075940	0.647093	0.725523	0.027344	-1.000000	-1.000000	-1.000000	-1.000000	-1.000000	-1.000000	-1.000000	75.310345	0.000000	-1.000000	-1.000000	1852421.000000	1770065201.669332
-3464.955000	-7729.470000	92.430000	13203.360000	-2737.395000	-3974.265000	8169.795000	-3592.530000	6.147642	-14.157269	-63.427755	-37.963240	20.431802	18.306958	-43.384821	13.116574	30.352140	19.502280	17.075940	0.647093	0.725523	0.027344	-1.000000	-1.000000	-1.000000	-1.000000	-1.000000	-1.000000	-1.000000	75.310345	0.000000	-1.000000	-1.000000	1852422.000000	1770065201.669342
-3513.015000	-7790.580000	105.840000	13187.610000	-2763.000000	-4034.970000	8373.735000	-3613.995000	-17.876618	-30.508142	-29.436819	11.543469	16.795702	-21.182683	69.238960	-1.516026	30.352140	19.502280	17.075940	0.647093	0.725523	0.027344	-1.000000	-1.000000	-1.000000	-1.000000	-1.000000	-1.000000	-1.000000	75.310345	0.000000	-1.000000	-1.000000	1852423.000000	1770065201.673281
-3517.695000	-7797.240000	122.625000	13172.310000	-2733.705000	-3984.075000	8346.690000	-3631.005000	-46.633319	-43.993597	18.733003	48.646369	-0.146981	-66.806566	180.347397	-20.424926	30.352140	19.502280	17.075940	0.647093	0.725523	0.027344	-1.000000	-1.000000	-1.000000	-1.000000	-1.000000	-1.000000	-1.000000	75.310345	0.000000	-1.000000	-1.000000	1852424.000000	1770065201.673291
-3484.530000	-7785.090000	22.635000	13074.660000	-2756.475000	-3928.995000	8138.430000	-3634.740000	-61.906964	-44.066521	74.717835	74.314411	-17.000340	-87.278782	218.512162	-33.166849	30.352140	19.502280	17.075940	0.647093	0.725523	0.027344	-1.000000	-1.000000	-1.000000	-1.000000	-1.000000	-1.000000	-1.000000	75.310345	0.000000	-1.000000	-1.000000	1852425.000000	1770065201.682184
-3458.475000	-7763.040000	-13.590000	13020.795000	-2747.655000	-3887.280000	7915.725000	-3609.990000	-48.856578	-22.401626	119.174195	87.825649	-19.750617	-60.625931	140.861390	-32.539936	30.352140	19.502280	17.075940	0.647093	0.725523	0.027344	-1.000000	-1.000000	-1.000000	-1.000000	-1.000000	-1.000000	-1.000000	75.310345	0.000000	-1.000000	-1.000000	1852426.000000	1770065201.682196
-3471.705000	-7767.900000	19.125000	13098.510000	-2742.975000	-3928.815000	8124.255000	-3508.875000	-11.704318	13.573889	127.573541	84.570654	-7.136933	0.862902	-18.972322	-15.038367	30.352140	19.502280	17.075940	0.647093	0.725523	0.027344	-1.000000	-1.000000	-1.000000	-1.000000	-1.000000	-1.000000	-1.000000	75.310345	0.000000	-1.000000	-1.000000	1852427.000000	1770065201.682229
-3421.530000	-7727.490000	85.275000	13230.900000	-2713.725000	-3917.745000	8235.585000	-3596.085000	27.851514	44.120653	92.910609	62.918841	9.996853	56.267882	-158.139164	12.959287	30.352140	19.502280	17.075940	0.647093	0.725523	0.027344	-1.000000	-1.000000	-1.000000	-1.000000	-1.000000	-1.000000	-1.000000	75.310345	0.000000	-1.000000	-1.000000	1852428.000000	1770065201.682237
-3391.200000	-7666.830000	169.695000	13337.505000	-2686.680000	-3913.020000	8203.905000	-3628.305000	50.161752	55.129936	32.126122	28.300121	20.392908	73.284831	-188.872550	33.232178	30.352140	19.502280	17.075940	0.647093	0.725523	0.027344	-1.000000	-1.000000	-1.000000	-1.000000	-1.000000	-1.000000	-1.000000	75.310345	0.000000	-1.000000	-1.000000	1852429.000000	1770065201.685190
-3433.770000	-7744.680000	13.455000	13265.820000	-2673.000000	-3848.670000	8097.300000	-3577.860000	50.954359	46.088807	-30.302598	-8.897861	21.414121	56.252919	-118.930931	32.970365	30.352140	19.502280	17.075940	0.647093	0.725523	0.027344	-1.000000	-1.000000	-1.000000	-1.000000	-1.000000	-1.000000	-1.000000	75.310345	0.000000	-1.000000	-1.000000	1852430.000000	1770065201.685200
-3387.780000	-7750.440000	-59.760000	13136.355000	-2707.110000	-3780.675000	7683.255000	-3526.020000	37.914604	24.289315	-76.761012	-40.219694	16.815022	33.451802	-35.038232	19.433161	-24.431260	-5.020540	-0.824040	0.644713	0.775145	0.034119	-1.000000	-1.000000	-1.000000	-1.000000	-1.000000	-1.000000	-1.000000	75.310345	0.000000	-1.000000	-1.000000	1852431.000000	1770065201.689277
-3401.145000	-7733.700000	21.555000	13046.580000	-2681.595000	-3913.830000	7960.365000	-3534.165000	21.153394	-0.072949	-95.252290	-61.967740	9.395627	20.431102	-5.178891	7.622044	-24.431260	-5.020540	-0.824040	0.644713	0.775145	0.034119	-1.000000	-1.000000	-1.000000	-1.000000	-1.000000	-1.000000	-1.000000	75.310345	0.000000	-1.000000	-1.000000	1852432.000000	1770065201.689289
-3406.905000	-7730.055000	-9.270000	12886.245000	-2741.445000	-3924.990000	7977.645000	-3580.065000	5.110133	-17.500625	-77.735046	-71.337539	-0.869963	6.470029	-12.785739	1.405588	-24.431260	-5.020540	-0.824040	0.644713	0.775145	0.034119	-1.000000	-1.000000	-1.000000	-1.000000	-1.000000	-1.000000	-1.000000	75.310345	0.000000	-1.000000	-1.000000	1852433.000000	1770065201.695136
-3351.825000	-7646.400000	16.245000	12907.035000	-2730.735000	-3791.835000	7635.960000	-3557.520000	-10.028246	-22.997305	-28.903791	-62.899885	-12.677468	-17.405973	-6.379529	-4.633637	-24.431260	-5.020540	-0.824040	0.644713	0.775145	0.034119	-1.000000	-1.000000	-1.000000	-1.000000	-1.000000	-1.000000	-1.000000	75.310345	0.000000	-1.000000	-1.000000	1852434.000000	1770065201.695147
-3416.355000	-7691.490000	-10.890000	12927.420000	-2741.355000	-3928.455000	8229.780000	-3504.690000	-22.676142	-17.982863	28.441003	-32.335703	-21.276396	-40.786517	32.331808	-12.211963	-24.431260	-5.020540	-0.824040	0.644713	0.775145	0.034119	-1.000000	-1.000000	-1.000000	-1.000000	-1.000000	-1.000000	-1.000000	75.310345	0.000000	-1.000000	-1.000000	1852435.000000	1770065201.697253
-3484.800000	-7757.145000	108.360000	13110.795000	-2790.315000	-4089.420000	8288.190000	-3533.490000	-32.294414	-11.415186	65.365341	13.209550	-23.423922	-54.744884	92.703960	-17.906032	-24.431260	-5.020540	-0.824040	0.644713	0.775145	0.034119	-1.000000	-1.000000	-1.000000	-1.000000	-1.000000	-1.000000	-1.000000	75.310345	0.000000	-1.000000	-1.000000	1852436.000000	1770065201.697260
-3474.945000	-7771.140000	269.145000	13469.850000	-2717.820000	-3940.605000	8106.615000	-3562.740000	-39.501514	-13.123283	68.117006	57.712350	-19.865708	-58.524575	141.622335	-18.937542	-24.431260	-5.020540	-0.824040	0.644713	0.775145	0.034119	-1.000000	-1.000000	-1.000000	-1.000000	-1.000000	-1.000000	-1.000000	75.310345	0.000000	-1.000000	-1.000000	1852437.000000	1770065201.707159
-3491.235000	-7799.040000	179.685000	13349.250000	-2772.675000	-3976.515000	8012.520000	-3599.280000	-39.836353	-22.323416	42.924440	85.846560	-11.650255	-45.402734	133.421104	-15.054132	-24.431260	-5.020540	-0.824040	0.644713	0.775145	0.034119	-1.000000	-1.000000	-1.000000	-1.000000	-1.000000	-1.000000	-1.000000	75.310345	0.000000	-1.000000	-1.000000	1852438.000000	1770065201.707170
-3457.935000	-7711.155000	273.780000	13380.615000	-2704.005000	-3979.845000	8248.455000	-3682.440000	-25.842001	-25.740815	6.718575	84.066480	0.497835	-12.499303	61.213920	-10.013159	-24.431260	-5.020540	-0.824040	0.644713	0.775145	0.034119	-1.000000	-1.000000	-1.000000	-1.000000	-1.000000	-1.000000	-1.000000	75.310345	0.000000	-1.000000	-1.000000	1852439.000000	1770065201.707181
-3464.730000	-7689.465000	308.385000	13329.585000	-2708.865000	-3970.620000	8434.260000	-3642.435000	2.273753	-10.588806	-20.581456	50.629652	14.873360	27.041931	-24.830325	-7.967250	-24.431260	-5.020540	-0.824040	0.644713	0.775145	0.034119	-1.000000	-1.000000	-1.000000	-1.000000	-1.000000	-1.000000	-1.000000	75.310345	0.000000	-1.000000	-1.000000	1852440.000000	1770065201.707186
-3457.935000	-7715.565000	217.260000	13283.280000	-2679.570000	-3910.320000	8258.085000	-3659.535000	32.640756	18.416173	-30.823749	1.679809	27.151680	57.317804	-77.131418	-5.932152	6.973820	-5.005280	-4.486440	0.678404	0.691771	0.041626	-1.000000	-1.000000	-1.000000	-1.000000	-1.000000	-1.000000	-1.000000	75.310345	0.000000	-1.000000	-1.000000	1852441.000000	1770065201.709270
-3445.965000	-7740.765000	171.180000	13228.830000	-2687.355000	-3844.530000	7936.290000	-3627.810000	50.220959	40.689665	-32.202497	-41.458700	31.593028	69.819083	-97.306692	2.360011	6.973820	-5.005280	-4.486440	0.678404	0.691771	0.041626	-1.000000	-1.000000	-1.000000	-1.000000	-1.000000	-1.000000	-1.000000	75.310345	0.000000	-1.000000	-1.000000	1852442.000000	1770065201.709275
-3409.920000	-7706.205000	213.255000	13240.980000	-2678.940000	-3806.010000	7964.460000	-3595.545000	47.687939	40.167894	-31.808645	-64.766331	25.496375	60.951956	-104.375353	16.539386	6.973820	-5.005280	-4.486440	0.678404	0.691771	0.041626	-1.000000	-1.000000	-1.000000	-1.000000	-1.000000	-1.000000	-1.000000	75.310345	0.000000	-1.000000	-1.000000	1852443.000000	1770065201.713352
-3435.705000	-7725.330000	195.435000	13210.155000	-2717.460000	-3924.315000	8285.895000	-3575.025000	29.434918	19.699503	-28.188202	-67.348433	10.195789	33.687269	-99.319590	28.614793	6.973820	-5.005280	-4.486440	0.678404	0.691771	0.041626	-1.000000	-1.000000	-1.000000	-1.000000	-1.000000	-1.000000	-1.000000	75.310345	0.000000	-1.000000	-1.000000	1852444.000000	1770065201.713364
-3457.665000	-7759.260000	145.890000	13192.155000	-2735.235000	-3928.680000	8229.825000	-3561.480000	5.833095	-5.294213	-22.656815	-61.419080	-9.867494	-2.316228	-70.555234	31.298894	6.973820	-5.005280	-4.486440	0.678404	0.691771	0.041626	-1.000000	-1.000000	-1.000000	-1.000000	-1.000000	-1.000000	-1.000000	75.310345	0.000000	-1.000000	-1.000000	1852445.000000	1770065201.717285
-3501.315000	-7786.350000	121.005000	13300.380000	-2712.960000	-3925.980000	8277.885000	-3585.195000	-15.594504	-22.507689	-21.358957	-57.878339	-27.802048	-36.449982	-12.515354	24.201644	6.973820	-5.005280	-4.486440	0.678404	0.691771	0.041626	-1.000000	-1.000000	-1.000000	-1.000000	-1.000000	-1.000000	-1.000000	75.310345	0.000000	-1.000000	-1.000000	1852446.000000	1770065201.717293
-3538.620000	-7823.160000	94.860000	13341.240000	-2740.320000	-3961.305000	8288.595000	-3610.845000	-31.112874	-28.376265	-21.502095	-47.042810	-35.976431	-58.716868	58.243550	10.838412	6.973820	-5.005280	-4.486440	0.678404	0.691771	0.041626	-1.000000	-1.000000	-1.000000	-1.000000	-1.000000	-1.000000	-1.000000	75.310345	0.000000	-1.000000	-1.000000	1852447.000000	1770065201.722663
-3575.295000	-7863.705000	61.785000	13229.370000	-2842.425000	-4050.945000	8178.885000	-3620.925000	-38.077848	-25.584184	-12.628107	-12.946796	-32.248652	-62.441471	104.408520	-4.801694	6.973820	-5.005280	-4.486440	0.678404	0.691771	0.041626	-1.000000	-1.000000	-1.000000	-1.000000	-1.000000	-1.000000	-1.000000	75.310345	0.000000	-1.000000	-1.000000	1852448.000000	1770065201.722674
-3459.060000	-7763.985000	152.460000	13147.695000	-2738.655000	-3927.645000	8213.490000	-3573.990000	-33.316373	-17.361855	8.547470	36.000066	-20.939953	-47.281013	95.633515	-17.866861	6.973820	-5.005280	-4.486440	0.678404	0.691771	0.041626	-1.000000	-1.000000	-1.000000	-1.000000	-1.000000	-1.000000	-1.000000	75.310345	0.000000	-1.000000	-1.000000	1852449.000000	1770065201.732303
-3399.570000	-7685.100000	241.290000	13321.350000	-2638.305000	-3837.555000	8263.530000	-3662.190000	-13.692252	-1.551592	38.916635	77.249596	-2.893529	-16.143743	44.143422	-24.599301	6.973820	-5.005280	-4.486440	0.678404	0.691771	0.041626	-1.000000	-1.000000	-1.000000	-1.000000	-1.000000	-1.000000	-1.000000	75.310345	0.000000	-1.000000	-1.000000	1852450.000000	1770065201.732341
-3426.480000	-7732.755000	192.060000	13280.130000	-2679.930000	-3901.140000	8271.270000	-3601.845000	14.919667	20.859464	69.536596	98.365496	21.573772	20.258337	-1.450963	-25.126058	30.336880	1.327620	1.037680	0.688719	0.677794	0.042114	-1.000000	-1.000000	-1.000000	-1.000000	-1.000000	-1.000000	-1.000000	75.310345	0.000000	-1.000000	-1.000000	1852451.000000	1770065201.732387
-3434.895000	-7734.510000	188.370000	13272.930000	-2675.565000	-3884.355000	8246.160000	-3616.605000	35.531613	36.702145	80.854907	92.325115	41.579745	43.867314	-15.048803	-21.147239	30.336880	1.327620	1.037680	0.688719	0.677794	0.042114	-1.000000	-1.000000	-1.000000	-1.000000	-1.000000	-1.000000	-1.000000	75.310345	0.000000	-1.000000	-1.000000	1852452.000000	1770065201.732419
-3449.520000	-7750.260000	171.585000	13255.245000	-2689.830000	-3909.285000	8209.440000	-3615.345000	36.041772	34.073703	58.045281	54.572206	44.303650	47.122925	-18.754213	-13.681401	30.336880	1.327620	1.037680	0.688719	0.677794	0.042114	-1.000000	-1.000000	-1.000000	-1.000000	-1.000000	-1.000000	-1.000000	75.310345	0.000000	-1.000000	-1.000000	1852453.000000	1770065201.739264
-3441.420000	-7754.220000	164.655000	13250.205000	-2697.345000	-3906.405000	8185.545000	-3618.945000	19.644882	15.706136	8.376421	-6.509312	27.895202	35.330262	-34.146164	-3.699944	30.336880	1.327620	1.037680	0.688719	0.677794	0.042114	-1.000000	-1.000000	-1.000000	-1.000000	-1.000000	-1.000000	-1.000000	75.310345	0.000000	-1.000000	-1.000000	1852454.000000	1770065201.739277
-3400.155000	-7712.820000	198.585000	13276.575000	-2679.795000	-3848.220000	8108.505000	-3605.985000	-0.611920	-5.705469	-42.945677	-68.102981	0.882537	15.957454	-51.215532	7.917186	30.336880	1.327620	1.037680	0.688719	0.677794	0.042114	-1.000000	-1.000000	-1.000000	-1.000000	-1.000000	-1.000000	-1.000000	75.310345	0.000000	-1.000000	-1.000000	1852455.000000	1770065201.739290
-3378.420000	-7699.995000	202.860000	13272.570000	-2697.570000	-3853.440000	8050.185000	-3569.895000	-11.914657	-17.750375	-69.652122	-101.623784	-22.895350	-1.729437	-53.560625	19.905688	30.336880	1.327620	1.037680	0.688719	0.677794	0.042114	-1.000000	-1.000000	-1.000000	-1.000000	-1.000000	-1.000000	-1.000000	75.310345	0.000000	-1.000000	-1.000000	1852456.000000	1770065201.739295
-3396.330000	-7705.890000	211.635000	13298.670000	-2667.690000	-3906.900000	8258.445000	-3561.120000	-11.539894	-17.315362	-62.599408	-88.140574	-32.006158	-11.538975	-34.271884	28.674945	30.336880	1.327620	1.037680	0.688719	0.677794	0.042114	-1.000000	-1.000000	-1.000000	-1.000000	-1.000000	-1.000000	-1.000000	75.310345	0.000000	-1.000000	-1.000000	1852457.000000	1770065201.741347
-3395.295000	-7705.305000	215.550000	13308.660000	-2656.485000	-3921.075000	8281.395000	-3565.620000	-8.544863	-12.309778	-34.065490	-33.661677	-26.207336	-18.117723	6.233981	28.696534	30.336880	1.327620	1.037680	0.688719	0.677794	0.042114	-1.000000	-1.000000	-1.000000	-1.000000	-1.000000	-1.000000	-1.000000	75.310345	0.000000	-1.000000	-1.000000	1852458.000000	1770065201.741361
-3414.780000	-7734.375000	186.345000	13283.280000	-2677.770000	-3917.610000	8249.580000	-3513.600000	-12.086446	-11.793902	-4.142775	29.906627	-15.221585	-28.030848	53.935091	18.644301	30.336880	1.327620	1.037680	0.688719	0.677794	0.042114	-1.000000	-1.000000	-1.000000	-1.000000	-1.000000	-1.000000	-1.000000	75.310345	0.000000	-1.000000	-1.000000	1852459.000000	1770065201.749076
-3423.420000	-7753.545000	163.710000	13261.230000	-2700.945000	-3922.020000	8214.660000	-3526.695000	-20.363245	-16.069766	13.986370	66.571929	-7.267120	-36.488847	82.599551	3.095325	30.336880	1.327620	1.037680	0.688719	0.677794	0.042114	-1.000000	-1.000000	-1.000000	-1.000000	-1.000000	-1.000000	-1.000000	75.310345	0.000000	-1.000000	-1.000000	1852460.000000	1770065201.749086
-3360.870000	-7683.975000	237.195000	13337.415000	-2625.120000	-3852.765000	8213.985000	-3638.655000	-22.845438	-17.030436	19.445888	63.680585	-1.630582	-30.930124	71.589865	-14.406843	-1.205540	7.019600	-3.219860	0.693297	0.737608	0.035217	-1.000000	-1.000000	-1.000000	-1.000000	-1.000000	-1.000000	-1.000000	75.310345	0.000000	-1.000000	-1.000000	1852461.000000	1770065201.750856
-3347.145000	-7652.925000	272.385000	13372.695000	-2593.395000	-3820.005000	8269.695000	-3630.285000	-11.387583	-6.581173	19.655533	34.866603	7.087063	-6.038520	26.146449	-31.470194	-1.205540	7.019600	-3.219860	0.693297	0.737608	0.035217	-1.000000	-1.000000	-1.000000	-1.000000	-1.000000	-1.000000	-1.000000	75.310345	0.000000	-1.000000	-1.000000	1852462.000000	1770065201.750868
-3395.430000	-7665.750000	265.320000	13366.440000	-2605.455000	-3828.780000	8302.185000	-3674.430000	9.474301	13.185047	19.928445	0.809546	18.735305	26.814755	-23.143350	-41.324301	-1.205540	7.019600	-3.219860	0.693297	0.737608	0.035217	-1.000000	-1.000000	-1.000000	-1.000000	-1.000000	-1.000000	-1.000000	75.310345	0.000000	-1.000000	-1.000000	1852463.000000	1770065201.753399
-3426.840000	-7729.155000	196.785000	13300.875000	-2665.575000	-3880.575000	8290.980000	-3582.855000	24.599287	28.484527	17.372418	-25.846383	24.649444	46.300800	-47.713338	-35.800479	-1.205540	7.019600	-3.219860	0.693297	0.737608	0.035217	-1.000000	-1.000000	-1.000000	-1.000000	-1.000000	-1.000000	-1.000000	75.310345	0.000000	-1.000000	-1.000000	1852464.000000	1770065201.753409
-3393.720000	-7729.965000	192.960000	13298.985000	-2670.930000	-3886.245000	8256.960000	-3479.580000	23.899152	26.584023	6.960312	-39.810629	17.609591	40.054629	-43.535372	-12.151676	-1.205540	7.019600	-3.219860	0.693297	0.737608	0.035217	-1.000000	-1.000000	-1.000000	-1.000000	-1.000000	-1.000000	-1.000000	75.310345	0.000000	-1.000000	-1.000000	1852465.000000	1770065201.760355
-3398.040000	-7742.430000	174.915000	13276.620000	-2694.375000	-3893.895000	8228.520000	-3533.490000	11.394433	8.552240	-9.364717	-38.313595	-0.054455	14.778688	-28.599621	21.337662	-1.205540	7.019600	-3.219860	0.693297	0.737608	0.035217	-1.000000	-1.000000	-1.000000	-1.000000	-1.000000	-1.000000	-1.000000	75.310345	0.000000	-1.000000	-1.000000	1852466.000000	1770065201.760365
-3395.430000	-7726.860000	189.270000	13286.655000	-2695.635000	-3915.180000	8181.945000	-3658.005000	-2.671732	-12.934978	-22.792080	-23.182142	-19.399570	-13.425829	-20.724273	44.200324	-1.205540	7.019600	-3.219860	0.693297	0.737608	0.035217	-1.000000	-1.000000	-1.000000	-1.000000	-1.000000	-1.000000	-1.000000	75.310345	0.000000	-1.000000	-1.000000	1852467.000000	1770065201.763098
-3435.480000	-7761.240000	156.870000	13251.780000	-2731.230000	-3957.930000	8134.560000	-3695.850000	-11.352039	-24.581882	-24.874349	-2.108346	-30.262219	-32.300447	-19.803089	38.039316	-1.205540	7.019600	-3.219860	0.693297	0.737608	0.035217	-1.000000	-1.000000	-1.000000	-1.000000	-1.000000	-1.000000	-1.000000	75.310345	0.000000	-1.000000	-1.000000	1852468.000000	1770065201.763108
-3395.115000	-7715.205000	204.525000	13300.830000	-2672.595000	-3883.230000	8198.235000	-3618.045000	-12.520808	-20.856448	-13.978116	16.218606	-26.045548	-35.693065	-15.251418	7.925738	-1.205540	7.019600	-3.219860	0.693297	0.737608	0.035217	-1.000000	-1.000000	-1.000000	-1.000000	-1.000000	-1.000000	-1.000000	75.310345	0.000000	-1.000000	-1.000000	1852469.000000	1770065201.765485
-3325.455000	-7624.665000	296.100000	13391.955000	-2599.560000	-3826.980000	8244.900000	-3572.415000	-6.615996	-4.954274	4.401182	26.675249	-7.700555	-22.153730	-0.447868	-18.411043	-1.205540	7.019600	-3.219860	0.693297	0.737608	0.035217	-1.000000	-1.000000	-1.000000	-1.000000	-1.000000	-1.000000	-1.000000	75.310345	0.000000	-1.000000	-1.000000	1852470.000000	1770065201.765495
-3321.315000	-7636.905000	280.305000	13376.295000	-2614.905000	-3847.005000	8277.705000	-3520.035000	4.360406	14.735183	21.617591	27.909467	15.946281	1.830162	21.854296	-18.957911	-20.036380	10.132640	-8.927100	0.701353	0.747679	0.038025	-1.000000	-1.000000	-1.000000	-1.000000	-1.000000	-1.000000	-1.000000	75.310345	0.000000	-1.000000	-1.000000	1852471.000000	1770065201.771966
-3322.890000	-7607.250000	320.625000	13422.195000	-2554.605000	-3783.645000	8354.115000	-3504.780000	15.622733	28.275650	29.971389	21.144907	33.301213	23.621831	41.792667	2.400778	-20.036380	10.132640	-8.927100	0.701353	0.747679	0.038025	-1.000000	-1.000000	-1.000000	-1.000000	-1.000000	-1.000000	-1.000000	75.310345	0.000000	-1.000000	-1.000000	1852472.000000	1770065201.771976
-3251.745000	-7536.195000	391.230000	13495.005000	-2494.620000	-3736.980000	8295.255000	-3458.250000	21.535227	30.615913	28.162583	11.970188	38.983901	35.149362	49.763885	23.826055	-20.036380	10.132640	-8.927100	0.701353	0.747679	0.038025	-1.000000	-1.000000	-1.000000	-1.000000	-1.000000	-1.000000	-1.000000	75.310345	0.000000	-1.000000	-1.000000	1852473.000000	1770065201.773463
-3266.415000	-7606.305000	263.340000	13402.125000	-2585.160000	-3834.135000	8141.355000	-3505.635000	19.103154	22.669238	18.690712	5.767819	32.876527	34.162557	37.817733	25.486564	-20.036380	10.132640	-8.927100	0.701353	0.747679	0.038025	-1.000000	-1.000000	-1.000000	-1.000000	-1.000000	-1.000000	-1.000000	75.310345	0.000000	-1.000000	-1.000000	1852474.000000	1770065201.773473
-3337.110000	-7708.770000	133.110000	13309.515000	-2665.305000	-3927.825000	7951.905000	-3547.755000	6.977644	4.080035	-0.893247	-1.698497	12.662740	17.421344	1.741653	5.202568	-20.036380	10.132640	-8.927100	0.701353	0.747679	0.038025	-1.000000	-1.000000	-1.000000	-1.000000	-1.000000	-1.000000	-1.000000	75.310345	0.000000	-1.000000	-1.000000	1852475.000000	1770065201.777566
-3327.525000	-7674.570000	242.235000	13296.330000	-2688.615000	-3948.390000	7936.920000	-3343.275000	-12.721416	-22.774859	-28.560700	-16.703221	-19.302548	-12.865316	-45.918048	-18.322805	-20.036380	10.132640	-8.927100	0.701353	0.747679	0.038025	-1.000000	-1.000000	-1.000000	-1.000000	-1.000000	-1.000000	-1.000000	75.310345	0.000000	-1.000000	-1.000000	1852476.000000	1770065201.777575
-3198.330000	-7547.940000	395.460000	13377.375000	-2606.715000	-3842.370000	8250.120000	-3339.720000	-28.517974	-42.549551	-44.813919	-32.249990	-46.891307	-39.985006	-71.917401	-22.582556	-20.036380	10.132640	-8.927100	0.701353	0.747679	0.038025	-1.000000	-1.000000	-1.000000	-1.000000	-1.000000	-1.000000	-1.000000	75.310345	0.000000	-1.000000	-1.000000	1852477.000000	1770065201.794161
-3110.355000	-7387.380000	472.545000	13519.260000	-2447.865000	-3647.115000	8360.235000	-3611.295000	-26.571127	-37.116045	-31.505172	-33.130637	-50.399092	-42.775789	-47.885742	-10.550100	-20.036380	10.132640	-8.927100	0.701353	0.747679	0.038025	-1.000000	-1.000000	-1.000000	-1.000000	-1.000000	-1.000000	-1.000000	75.310345	0.000000	-1.000000	-1.000000	1852478.000000	1770065201.794175
-3237.570000	-7521.750000	358.785000	13442.670000	-2500.380000	-3692.700000	8186.760000	-3695.535000	-9.158444	-8.937730	1.183672	-15.783766	-26.166240	-16.719811	12.938436	-9.010991	-20.036380	10.132640	-8.927100	0.701353	0.747679	0.038025	-1.000000	-1.000000	-1.000000	-1.000000	-1.000000	-1.000000	-1.000000	75.310345	0.000000	-1.000000	-1.000000	1852479.000000	1770065201.794189
-3467.925000	-7807.095000	108.045000	13234.410000	-2751.705000	-3950.325000	8079.930000	-3629.340000	2.679826	14.003798	21.254570	3.310084	4.734066	15.214701	59.554762	-27.890772	-20.036380	10.132640	-8.927100	0.701353	0.747679	0.038025	-1.000000	-1.000000	-1.000000	-1.000000	-1.000000	-1.000000	-1.000000	75.310345	0.000000	-1.000000	-1.000000	1852480.000000	1770065201.794195
-3411.990000	-7783.155000	151.920000	13290.750000	-2720.205000	-3940.470000	8315.370000	-3513.555000	-6.516455	6.575058	8.435317	5.423978	14.753565	21.781121	58.382133	-43.945210	-29.222900	5.051060	-14.207060	0.705015	0.733763	0.034363	-1.000000	-1.000000	-1.000000	-1.000000	-1.000000	-1.000000	-1.000000	75.310345	0.000000	-1.000000	-1.000000	1852481.000000	1770065201.794201
-3477.555000	-7808.670000	160.875000	13273.155000	-2736.900000	-3983.535000	8145.495000	-3644.190000	-26.827881	-22.480243	-22.525346	-6.405971	1.190887	-0.926309	24.769817	-34.141055	-29.222900	5.051060	-14.207060	0.705015	0.733763	0.034363	-1.000000	-1.000000	-1.000000	-1.000000	-1.000000	-1.000000	-1.000000	75.310345	0.000000	-1.000000	-1.000000	1852482.000000	1770065201.794206
-3388.545000	-7695.270000	280.575000	13334.085000	-2700.270000	-3945.825000	8007.885000	-3702.780000	-34.633229	-38.956737	-35.459402	-11.321607	-12.597642	-25.736461	-10.317348	-3.270119	-29.222900	5.051060	-14.207060	0.705015	0.733763	0.034363	-1.000000	-1.000000	-1.000000	-1.000000	-1.000000	-1.000000	-1.000000	75.310345	0.000000	-1.000000	-1.000000	1852483.000000	1770065201.794213
-3512.880000	-7882.380000	116.955000	13182.030000	-2819.970000	-4001.355000	8299.755000	-3615.930000	-16.768666	-21.085629	-11.746326	2.744172	-7.292014	-26.002212	-26.547735	29.430418	-29.222900	5.051060	-14.207060	0.705015	0.733763	0.034363	-1.000000	-1.000000	-1.000000	-1.000000	-1.000000	-1.000000	-1.000000	75.310345	0.000000	-1.000000	-1.000000	1852484.000000	1770065201.794218
-3592.305000	-7979.580000	-4.590000	13108.905000	-2869.065000	-4040.955000	8214.570000	-3688.470000	15.604583	15.797048	25.740518	23.481902	11.988440	-1.554004	-15.445147	48.484192	-29.222900	5.051060	-14.207060	0.705015	0.733763	0.034363	-1.000000	-1.000000	-1.000000	-1.000000	-1.000000	-1.000000	-1.000000	75.310345	0.000000	-1.000000	-1.000000	1852485.000000	1770065201.803511
-3437.685000	-7749.045000	199.755000	13341.150000	-2635.515000	-3835.215000	8202.735000	-3576.600000	38.845641	40.575026	40.788597	31.741231	28.227689	26.862953	4.116264	48.401301	-29.222900	5.051060	-14.207060	0.705015	0.733763	0.034363	-1.000000	-1.000000	-1.000000	-1.000000	-1.000000	-1.000000	-1.000000	75.310345	0.000000	-1.000000	-1.000000	1852486.000000	1770065201.803524
-3389.085000	-7737.165000	226.035000	13355.145000	-2612.115000	-3811.815000	8201.385000	-3576.645000	44.081636	43.696336	28.891783	25.774485	34.095648	41.544540	2.953811	39.883876	-29.222900	5.051060	-14.207060	0.705015	0.733763	0.034363	-1.000000	-1.000000	-1.000000	-1.000000	-1.000000	-1.000000	-1.000000	75.310345	0.000000	-1.000000	-1.000000	1852487.000000	1770065201.804856
-3349.665000	-7674.795000	211.995000	13353.480000	-2627.145000	-3848.895000	8167.410000	-3569.445000	41.624514	38.333320	13.075444	16.548359	32.334732	39.318910	-16.638746	34.921571	-29.222900	5.051060	-14.207060	0.705015	0.733763	0.034363	-1.000000	-1.000000	-1.000000	-1.000000	-1.000000	-1.000000	-1.000000	75.310345	0.000000	-1.000000	-1.000000	1852488.000000	1770065201.804866
-3093.255000	-7376.085000	401.805000	13682.475000	-2321.190000	-3578.355000	8449.560000	-3431.295000	45.338175	42.421427	13.410396	16.468235	31.219133	30.971518	-27.396229	28.712756	-29.222900	5.051060	-14.207060	0.705015	0.733763	0.034363	-1.000000	-1.000000	-1.000000	-1.000000	-1.000000	-1.000000	-1.000000	75.310345	0.000000	-1.000000	-1.000000	1852489.000000	1770065201.805485
-2767.140000	-7007.985000	892.620000	14027.850000	-2020.365000	-3297.195000	8401.005000	-3126.330000	60.196488	64.179608	36.401506	34.904724	41.149930	33.220678	-13.051925	16.109882	-29.222900	5.051060	-14.207060	0.705015	0.733763	0.034363	-1.000000	-1.000000	-1.000000	-1.000000	-1.000000	-1.000000	-1.000000	75.310345	0.000000	-1.000000	-1.000000	1852490.000000	1770065201.805496
-2767.365000	-7035.030000	949.050000	13967.055000	-2061.540000	-3287.340000	8576.010000	-3070.395000	73.970686	87.408235	71.666964	62.294685	56.850712	47.321091	20.063217	6.722125	-83.609540	-8.713460	-32.610620	0.695433	0.733091	0.033447	-1.000000	-1.000000	-1.000000	-1.000000	-1.000000	-1.000000	-1.000000	75.310345	0.000000	-1.000000	-1.000000	1852491.000000	1770065201.812414
-3272.310000	-7542.090000	364.590000	13412.025000	-2600.775000	-3789.990000	8230.860000	-3633.705000	54.384995	70.648751	80.540034	59.489356	45.617182	43.952402	50.153265	-1.974975	-83.609540	-8.713460	-32.610620	0.695433	0.733091	0.033447	-1.000000	-1.000000	-1.000000	-1.000000	-1.000000	-1.000000	-1.000000	75.310345	0.000000	-1.000000	-1.000000	1852492.000000	1770065201.812425
-3234.195000	-7489.845000	401.265000	13529.970000	-2494.440000	-3725.955000	8213.850000	-3477.555000	-21.005640	-11.840991	23.044307	-3.823685	-18.394059	-7.727425	46.127043	-33.705592	-83.609540	-8.713460	-32.610620	0.695433	0.733091	0.033447	-1.000000	-1.000000	-1.000000	-1.000000	-1.000000	-1.000000	-1.000000	75.310345	0.000000	-1.000000	-1.000000	1852493.000000	1770065201.813547
-3663.495000	-7956.045000	-13.185000	13175.145000	-2839.185000	-4045.860000	8052.435000	-3480.030000	-127.044875	-130.339706	-87.500151	-102.729020	-111.767436	-94.621083	-4.318547	-84.079727	-83.609540	-8.713460	-32.610620	0.695433	0.733091	0.033447	-1.000000	-1.000000	-1.000000	-1.000000	-1.000000	-1.000000	-1.000000	75.310345	0.000000	-1.000000	-1.000000	1852494.000000	1770065201.813604
-3909.105000	-8235.405000	-252.450000	12884.895000	-3123.630000	-4280.445000	7897.365000	-3827.565000	-213.480372	-230.497465	-196.410965	-186.485577	-188.009000	-173.681384	-73.880640	-116.077977	-83.609540	-8.713460	-32.610620	0.695433	0.733091	0.033447	-1.000000	-1.000000	-1.000000	-1.000000	-1.000000	-1.000000	-1.000000	75.310345	0.000000	-1.000000	-1.000000	1852495.000000	1770065201.817197
-3893.445000	-8221.905000	-247.635000	12887.010000	-3109.545000	-4249.485000	8048.970000	-4031.820000	-238.275129	-266.764447	-247.820377	-217.250760	-212.170738	-204.261003	-115.754387	-112.197991	-83.609540	-8.713460	-32.610620	0.695433	0.733091	0.033447	-1.000000	-1.000000	-1.000000	-1.000000	-1.000000	-1.000000	-1.000000	75.310345	0.000000	-1.000000	-1.000000	1852496.000000	1770065201.817207
-3721.905000	-8013.915000	-58.725000	13077.630000	-2929.905000	-4092.075000	8231.265000	-3772.080000	-172.212855	-202.932588	-198.276064	-166.280128	-156.827347	-153.846051	-93.589187	-75.996508	-83.609540	-8.713460	-32.610620	0.695433	0.733091	0.033447	-1.000000	-1.000000	-1.000000	-1.000000	-1.000000	-1.000000	-1.000000	75.310345	0.000000	-1.000000	-1.000000	1852497.000000	1770065201.821419
-3782.430000	-8075.610000	-117.405000	13027.905000	-2975.940000	-4139.190000	8185.095000	-3742.695000	-27.718798	-47.199856	-53.560553	-39.228280	-27.853791	-28.184623	-13.521736	-11.725850	-83.609540	-8.713460	-32.610620	0.695433	0.733091	0.033447	-1.000000	-1.000000	-1.000000	-1.000000	-1.000000	-1.000000	-1.000000	75.310345	0.000000	-1.000000	-1.000000	1852498.000000	1770065201.821433
-3780.135000	-8064.045000	-100.215000	13054.365000	-2953.890000	-4118.130000	8179.065000	-3634.560000	126.454095	126.668148	110.740158	103.521534	114.539762	111.008281	73.938488	62.626555	-83.609540	-8.713460	-32.610620	0.695433	0.733091	0.033447	-1.000000	-1.000000	-1.000000	-1.000000	-1.000000	-1.000000	-1.000000	75.310345	0.000000	-1.000000	-1.000000	1852499.000000	1770065201.840340
-3699.495000	-7945.245000	17.505000	13169.070000	-2849.175000	-4031.505000	8182.170000	-3748.095000	221.829464	241.098977	214.903811	200.460744	208.058658	199.906650	121.129124	119.238757	-83.609540	-8.713460	-32.610620	0.695433	0.733091	0.033447	-1.000000	-1.000000	-1.000000	-1.000000	-1.000000	-1.000000	-1.000000	75.310345	0.000000	-1.000000	-1.000000	1852500.000000	1770065201.840353
-3600.000000	-7838.775000	124.740000	13268.700000	-2759.310000	-3956.130000	8186.040000	-3664.890000	244.108350	275.681983	243.242354	237.955994	238.135292	223.236511	117.167689	144.454054	-73.583720	-33.816160	-27.651120	0.650145	0.713316	0.059021	-1.000000	-1.000000	-1.000000	-1.000000	-1.000000	-1.000000	-1.000000	75.310345	0.000000	-1.000000	-1.000000	1852501.000000	1770065201.840369
-3586.455000	-7807.950000	165.510000	13312.035000	-2712.195000	-3903.030000	8251.515000	-3505.725000	213.100432	247.148884	219.685749	225.016272	215.790003	195.307364	78.736878	137.049890	-73.583720	-33.816160	-27.651120	0.650145	0.713316	0.059021	-1.000000	-1.000000	-1.000000	-1.000000	-1.000000	-1.000000	-1.000000	75.310345	0.000000	-1.000000	-1.000000	1852502.000000	1770065201.840375
-3490.830000	-7703.640000	270.360000	13416.255000	-2614.905000	-3817.170000	8325.495000	-3598.920000	147.625496	173.813308	161.613912	166.295172	150.418351	130.721536	30.603420	98.243687	-73.583720	-33.816160	-27.651120	0.650145	0.713316	0.059021	-1.000000	-1.000000	-1.000000	-1.000000	-1.000000	-1.000000	-1.000000	75.310345	0.000000	-1.000000	-1.000000	1852503.000000	1770065201.840381
-3298.140000	-7459.065000	525.060000	13672.845000	-2363.670000	-3613.770000	8408.205000	-3561.480000	66.021925	77.986070	82.911562	77.676495	61.217616	48.621354	-6.847997	38.968030	-73.583720	-33.816160	-27.651120	0.650145	0.713316	0.059021	-1.000000	-1.000000	-1.000000	-1.000000	-1.000000	-1.000000	-1.000000	75.310345	0.000000	-1.000000	-1.000000	1852504.000000	1770065201.840386
-2974.995000	-7107.795000	876.510000	14020.245000	-2027.340000	-3305.430000	8554.545000	-3296.205000	-11.621106	-13.498602	3.419411	-10.567895	-21.815980	-25.939355	-28.111200	-17.243471	-73.583720	-33.816160	-27.651120	0.650145	0.713316	0.059021	-1.000000	-1.000000	-1.000000	-1.000000	-1.000000	-1.000000	-1.000000	75.310345	0.000000	-1.000000	-1.000000	1852505.000000	1770065201.840391
-2778.930000	-6989.535000	972.585000	14108.400000	-1944.405000	-3193.695000	8764.920000	-2848.275000	-72.202106	-84.926693	-62.883988	-78.459149	-81.112494	-77.448144	-39.662517	-49.063386	-73.583720	-33.816160	-27.651120	0.650145	0.713316	0.059021	-1.000000	-1.000000	-1.000000	-1.000000	-1.000000	-1.000000	-1.000000	75.310345	0.000000	-1.000000	-1.000000	1852506.000000	1770065201.840396
-3474.315000	-7759.530000	209.610000	13362.075000	-2646.225000	-3785.220000	8340.030000	-3458.205000	-122.906246	-146.957834	-126.847196	-137.212144	-130.214384	-116.088642	-50.703350	-62.107274	-73.583720	-33.816160	-27.651120	0.650145	0.713316	0.059021	-1.000000	-1.000000	-1.000000	-1.000000	-1.000000	-1.000000	-1.000000	75.310345	0.000000	-1.000000	-1.000000	1852507.000000	1770065201.849505
-3974.625000	-8273.205000	-303.930000	12849.615000	-3146.805000	-4256.505000	7831.485000	-4056.120000	-188.672187	-225.256420	-214.070573	-213.864653	-198.009526	-169.027961	-76.456399	-95.121671	-73.583720	-33.816160	-27.651120	0.650145	0.713316	0.059021	-1.000000	-1.000000	-1.000000	-1.000000	-1.000000	-1.000000	-1.000000	75.310345	0.000000	-1.000000	-1.000000	1852508.000000	1770065201.849518
-3834.315000	-8111.295000	-141.885000	13010.220000	-2987.370000	-4087.125000	7774.830000	-3900.240000	-260.302047	-302.795191	-303.697772	-290.935974	-270.031982	-228.819314	-120.212761	-159.831999	-73.583720	-33.816160	-27.651120	0.650145	0.713316	0.059021	-1.000000	-1.000000	-1.000000	-1.000000	-1.000000	-1.000000	-1.000000	75.310345	0.000000	-1.000000	-1.000000	1852509.000000	1770065201.849532
-3719.340000	-7968.870000	6.615000	13156.110000	-2862.495000	-3979.575000	7692.435000	-3796.470000	-269.816303	-302.298975	-311.883526	-291.472652	-273.079908	-233.433876	-147.418397	-197.292876	-73.583720	-33.816160	-27.651120	0.650145	0.713316	0.059021	-1.000000	-1.000000	-1.000000	-1.000000	-1.000000	-1.000000	-1.000000	75.310345	0.000000	-1.000000	-1.000000	1852510.000000	1770065201.849537
-3683.070000	-7934.220000	43.110000	13191.435000	-2836.800000	-4036.320000	7857.180000	-3693.915000	-163.679896	-170.226898	-181.559499	-163.719395	-156.274324	-137.213591	-113.895544	-146.224352	-14.161280	-1.297100	1.739640	0.593810	0.719664	0.088745	-1.000000	-1.000000	-1.000000	-1.000000	-1.000000	-1.000000	-1.000000	75.310345	0.000000	-1.000000	-1.000000	1852511.000000	1770065201.849700
-3529.170000	-7774.110000	203.535000	13351.320000	-2677.365000	-3884.850000	8090.955000	-3565.170000	29.083172	52.808979	45.079806	51.606927	44.031384	29.214813	-10.560401	-10.586599	-14.161280	-1.297100	1.739640	0.593810	0.719664	0.088745	-1.000000	-1.000000	-1.000000	-1.000000	-1.000000	-1.000000	-1.000000	75.310345	0.000000	-1.000000	-1.000000	1852512.000000	1770065201.849706
-3563.370000	-7808.445000	172.620000	13320.720000	-2706.300000	-3871.035000	8336.745000	-3596.355000	214.633868	257.692637	255.241838	248.849478	229.784110	184.876885	126.576326	147.736156	-14.161280	-1.297100	1.739640	0.593810	0.719664	0.088745	-1.000000	-1.000000	-1.000000	-1.000000	-1.000000	-1.000000	-1.000000	75.310345	0.000000	-1.000000	-1.000000	1852513.000000	1770065201.854610
-3531.195000	-7772.535000	210.195000	13358.295000	-2667.195000	-3833.595000	8400.330000	-3601.395000	297.035200	340.240555	342.511894	328.385650	307.220976	254.422771	230.782334	240.916215	-14.161280	-1.297100	1.739640	0.593810	0.719664	0.088745	-1.000000	-1.000000	-1.000000	-1.000000	-1.000000	-1.000000	-1.000000	75.310345	0.000000	-1.000000	-1.000000	1852514.000000	1770065201.854631
-3429.045000	-7647.975000	330.885000	13472.280000	-2562.120000	-3741.795000	8270.460000	-3579.210000	246.794594	275.598277	281.384704	266.951690	253.081414	217.046354	242.126308	213.524623	-14.161280	-1.297100	1.739640	0.593810	0.719664	0.088745	-1.000000	-1.000000	-1.000000	-1.000000	-1.000000	-1.000000	-1.000000	75.310345	0.000000	-1.000000	-1.000000	1852515.000000	1770065201.858739
-3040.380000	-7206.660000	798.075000	13946.850000	-2098.260000	-3315.780000	8533.395000	-3328.020000	131.591822	144.420957	151.550101	142.671299	139.485287	128.989667	160.840316	103.802002	-14.161280	-1.297100	1.739640	0.593810	0.719664	0.088745	-1.000000	-1.000000	-1.000000	-1.000000	-1.000000	-1.000000	-1.000000	75.310345	0.000000	-1.000000	-1.000000	1852516.000000	1770065201.858760
-3043.350000	-7193.430000	818.640000	13960.305000	-2095.920000	-3302.820000	8546.445000	-3238.110000	48.565550	52.533426	58.407707	57.692802	61.685457	68.471296	51.339841	10.906248	-14.161280	-1.297100	1.739640	0.593810	0.719664	0.088745	-1.000000	-1.000000	-1.000000	-1.000000	-1.000000	-1.000000	-1.000000	75.310345	0.000000	-1.000000	-1.000000	1852517.000000	1770065201.870595
-3451.320000	-7668.675000	331.335000	13470.705000	-2550.870000	-3689.685000	8216.910000	-3611.385000	13.297637	12.190904	15.146583	21.336332	27.498107	40.695856	-33.763778	-21.943608	-14.161280	-1.297100	1.739640	0.593810	0.719664	0.088745	-1.000000	-1.000000	-1.000000	-1.000000	-1.000000	-1.000000	-1.000000	75.310345	0.000000	-1.000000	-1.000000	1852518.000000	1770065201.870605
-3463.065000	-7728.615000	255.510000	13384.080000	-2614.005000	-3746.520000	8045.550000	-3490.245000	-33.786427	-45.219395	-46.390453	-37.712313	-30.402587	-13.051054	-99.475288	-38.908022	-14.161280	-1.297100	1.739640	0.593810	0.719664	0.088745	-1.000000	-1.000000	-1.000000	-1.000000	-1.000000	-1.000000	-1.000000	75.310345	0.000000	-1.000000	-1.000000	1852519.000000	1770065201.870617
-3439.665000	-7701.930000	276.840000	13395.960000	-2606.400000	-3747.330000	8223.930000	-3350.880000	-117.329665	-145.385719	-151.616664	-145.598631	-135.265267	-110.785961	-159.258187	-75.722815	-14.161280	-1.297100	1.739640	0.593810	0.719664	0.088745	-1.000000	-1.000000	-1.000000	-1.000000	-1.000000	-1.000000	-1.000000	75.310345	0.000000	-1.000000	-1.000000	1852520.000000	1770065201.870622
-3725.370000	-8000.190000	-17.370000	13120.155000	-2872.665000	-3971.025000	8179.740000	-3710.295000	-197.435561	-238.222478	-248.457602	-247.714858	-234.781873	-204.323950	-194.918691	-115.276084	-25.072180	27.406960	-15.275260	0.690367	0.719786	0.079834	-1.000000	-1.000000	-1.000000	-1.000000	-1.000000	-1.000000	-1.000000	75.310345	0.000000	-1.000000	-1.000000	1852521.000000	1770065201.870628
-3883.455000	-8152.605000	-158.535000	12995.910000	-2996.145000	-4070.295000	8088.480000	-3868.740000	-230.779268	-269.988151	-280.222545	-282.987762	-271.643509	-243.061702	-184.943390	-137.122443	-25.072180	27.406960	-15.275260	0.690367	0.719786	0.079834	-1.000000	-1.000000	-1.000000	-1.000000	-1.000000	-1.000000	-1.000000	75.310345	0.000000	-1.000000	-1.000000	1852522.000000	1770065201.870632
-3727.170000	-8014.770000	-16.200000	13127.760000	-2889.675000	-4005.315000	7987.095000	-3615.660000	-197.793939	-219.728313	-224.662506	-226.801137	-222.203560	-206.094397	-130.409590	-131.493025	-25.072180	27.406960	-15.275260	0.690367	0.719786	0.079834	-1.000000	-1.000000	-1.000000	-1.000000	-1.000000	-1.000000	-1.000000	75.310345	0.000000	-1.000000	-1.000000	1852523.000000	1770065201.888669
-3692.475000	-7967.070000	14.310000	13137.705000	-2886.705000	-4018.590000	7994.340000	-3625.290000	-96.665699	-93.185694	-90.173146	-89.493142	-94.892131	-99.670318	-43.791356	-82.527395	-25.072180	27.406960	-15.275260	0.690367	0.719786	0.079834	-1.000000	-1.000000	-1.000000	-1.000000	-1.000000	-1.000000	-1.000000	75.310345	0.000000	-1.000000	-1.000000	1852524.000000	1770065201.888682
-3703.680000	-7953.930000	33.975000	13165.290000	-2852.370000	-3954.780000	8245.755000	-3694.320000	44.262704	70.058460	78.250611	80.403875	65.997776	39.802844	59.907152	7.017341	-25.072180	27.406960	-15.275260	0.690367	0.719786	0.079834	-1.000000	-1.000000	-1.000000	-1.000000	-1.000000	-1.000000	-1.000000	75.310345	0.000000	-1.000000	-1.000000	1852525.000000	1770065201.888696
-3743.955000	-7994.205000	15.480000	13157.865000	-2851.380000	-3945.195000	8255.700000	-3779.505000	169.490354	206.320528	214.395488	215.830162	198.267762	160.690514	158.850699	98.568553	-25.072180	27.406960	-15.275260	0.690367	0.719786	0.079834	-1.000000	-1.000000	-1.000000	-1.000000	-1.000000	-1.000000	-1.000000	75.310345	0.000000	-1.000000	-1.000000	1852526.000000	1770065201.888701
-3636.405000	-7890.750000	117.675000	13256.955000	-2755.665000	-3869.820000	8213.445000	-3770.370000	235.163965	270.540164	275.821635	276.088647	262.542221	227.838484	223.366708	150.626525	-25.072180	27.406960	-15.275260	0.690367	0.719786	0.079834	-1.000000	-1.000000	-1.000000	-1.000000	-1.000000	-1.000000	-1.000000	75.310345	0.000000	-1.000000	-1.000000	1852527.000000	1770065201.888707
-3468.330000	-7691.040000	316.800000	13451.445000	-2563.380000	-3702.645000	8258.760000	-3749.130000	230.673973	256.444799	259.508715	259.306962	253.630563	231.821116	223.782970	145.969279	-25.072180	27.406960	-15.275260	0.690367	0.719786	0.079834	-1.000000	-1.000000	-1.000000	-1.000000	-1.000000	-1.000000	-1.000000	75.310345	0.000000	-1.000000	-1.000000	1852528.000000	1770065201.888712
-3375.090000	-7563.465000	450.720000	13583.970000	-2436.660000	-3582.495000	8410.680000	-3585.465000	168.303431	181.909890	183.905148	183.567454	185.376124	179.828249	149.085521	94.485063	-25.072180	27.406960	-15.275260	0.690367	0.719786	0.079834	-1.000000	-1.000000	-1.000000	-1.000000	-1.000000	-1.000000	-1.000000	75.310345	0.000000	-1.000000	-1.000000	1852529.000000	1770065201.888718
-3481.245000	-7726.815000	281.250000	13414.185000	-2612.745000	-3762.270000	8281.890000	-3390.615000	72.520139	74.030755	74.946379	73.908238	80.353925	88.453640	22.657988	34.195535	-25.072180	27.406960	-15.275260	0.690367	0.719786	0.079834	-1.000000	-1.000000	-1.000000	-1.000000	-1.000000	-1.000000	-1.000000	75.310345	0.000000	-1.000000	-1.000000	1852530.000000	1770065201.888722
-3467.070000	-7758.405000	242.505000	13378.770000	-2655.180000	-3805.560000	8262.225000	-3419.865000	-29.651681	-41.323943	-42.682530	-45.284242	-37.548423	-22.148452	-106.181885	0.470917	-14.634340	54.554500	-34.518120	0.772825	0.698179	0.062744	-1.000000	-1.000000	-1.000000	-1.000000	-1.000000	-1.000000	-1.000000	75.310345	0.000000	-1.000000	-1.000000	1852531.000000	1770065201.900157
-3445.515000	-7713.585000	294.210000	13424.220000	-2615.580000	-3760.830000	8279.910000	-3641.220000	-116.321840	-141.304338	-145.798133	-149.559422	-142.666894	-125.376360	-185.422539	-17.011361	-14.634340	54.554500	-34.518120	0.772825	0.698179	0.062744	-1.000000	-1.000000	-1.000000	-1.000000	-1.000000	-1.000000	-1.000000	75.310345	0.000000	-1.000000	-1.000000	1852532.000000	1770065201.900173
-3583.530000	-7828.470000	164.700000	13282.650000	-2733.660000	-3834.765000	8155.035000	-3661.605000	-170.447218	-202.384792	-209.050177	-212.036962	-206.232962	-188.716523	-188.987028	-49.203508	-14.634340	54.554500	-34.518120	0.772825	0.698179	0.062744	-1.000000	-1.000000	-1.000000	-1.000000	-1.000000	-1.000000	-1.000000	75.310345	0.000000	-1.000000	-1.000000	1852533.000000	1770065201.900188
-3480.840000	-7726.050000	274.005000	13379.670000	-2625.390000	-3708.450000	8319.420000	-3462.345000	-178.916256	-206.327795	-213.076517	-213.984892	-208.409006	-190.673139	-132.130494	-89.094656	-14.634340	54.554500	-34.518120	0.772825	0.698179	0.062744	-1.000000	-1.000000	-1.000000	-1.000000	-1.000000	-1.000000	-1.000000	75.310345	0.000000	-1.000000	-1.000000	1852534.000000	1770065201.900196
-3309.345000	-7605.855000	425.835000	13505.805000	-2499.030000	-3601.170000	8366.895000	-3342.915000	-132.579959	-146.427404	-151.034076	-150.887802	-145.410858	-129.911817	-45.819047	-95.865360	-14.634340	54.554500	-34.518120	0.772825	0.698179	0.062744	-1.000000	-1.000000	-1.000000	-1.000000	-1.000000	-1.000000	-1.000000	75.310345	0.000000	-1.000000	-1.000000	1852535.000000	1770065201.900204
