Channel1	Channel2	Channel3	Channel4	Channel5	Channel6	Channel7	Channel8	FilteredChannel1	FilteredChannel2	FilteredChannel3	FilteredChannel4	FilteredChannel5	FilteredChannel6	FilteredChannel7	FilteredChannel8	GyroX	GyroY	GyroZ	AccX	AccY	AccZ	PPG1	PPG2	rawPPG1	rawPPG2	rawPPG3	Hr	Hrv	Battery	Trigger	PhysicalTrigger	AutoTrigger	NumMeasurements	Timestamp
-2980.530000	-7951.365000	87.345000	13307.535000	-2530.350000	-3530.565000	8337.870000	-3539.340000	-9.118634	-10.812382	-9.808613	-8.794744	-5.998134	-0.133385	4.315784	-8.764891	-2.960440	1.510740	-1.113980	0.688048	0.706480	0.101562	-1.000000	-1.000000	-1.000000	-1.000000	-1.000000	-1.000000	-1.000000	75.586207	0.000000	-1.000000	-1.000000	1831311.000000	1770065159.427372
-2955.330000	-7927.965000	111.645000	13331.655000	-2509.110000	-3519.990000	8344.260000	-3513.870000	-2.690912	-3.282658	-2.755159	-2.409065	-1.190859	5.410089	13.139525	1.125468	-2.960440	1.510740	-1.113980	0.688048	0.706480	0.101562	-1.000000	-1.000000	-1.000000	-1.000000	-1.000000	-1.000000	-1.000000	75.586207	0.000000	-1.000000	-1.000000	1831312.000000	1770065159.427384
-2946.735000	-7915.995000	126.855000	13349.835000	-2495.295000	-3508.605000	8342.010000	-3533.130000	4.845185	5.306025	5.225164	4.466805	3.682282	7.561794	13.027195	9.649713	-2.960440	1.510740	-1.113980	0.688048	0.706480	0.101562	-1.000000	-1.000000	-1.000000	-1.000000	-1.000000	-1.000000	-1.000000	75.586207	0.000000	-1.000000	-1.000000	1831313.000000	1770065159.433594
-2921.355000	-7891.020000	148.050000	13367.385000	-2478.870000	-3479.715000	8381.025000	-3508.245000	11.177788	12.039801	11.578823	10.151317	7.704052	6.068607	5.261662	14.336519	-2.960440	1.510740	-1.113980	0.688048	0.706480	0.101562	-1.000000	-1.000000	-1.000000	-1.000000	-1.000000	-1.000000	-1.000000	75.586207	0.000000	-1.000000	-1.000000	1831314.000000	1770065159.433605
-2824.110000	-7784.640000	250.650000	13466.610000	-2382.930000	-3384.630000	8470.170000	-3420.765000	18.162273	18.988815	18.306721	16.947826	13.813136	7.314299	0.524682	17.740443	-2.960440	1.510740	-1.113980	0.688048	0.706480	0.101562	-1.000000	-1.000000	-1.000000	-1.000000	-1.000000	-1.000000	-1.000000	75.586207	0.000000	-1.000000	-1.000000	1831315.000000	1770065159.434035
-2850.480000	-7801.425000	236.610000	13452.660000	-2397.015000	-3407.400000	8411.580000	-3445.605000	27.098217	28.037960	27.053231	26.063064	23.169748	15.298261	6.110539	22.640406	-2.960440	1.510740	-1.113980	0.688048	0.706480	0.101562	-1.000000	-1.000000	-1.000000	-1.000000	-1.000000	-1.000000	-1.000000	75.586207	0.000000	-1.000000	-1.000000	1831316.000000	1770065159.434047
-2977.920000	-7941.645000	95.985000	13314.015000	-2531.205000	-3537.180000	8321.085000	-3519.765000	28.517450	29.699494	28.441121	27.697852	25.636507	19.946344	11.909698	22.685431	-2.960440	1.510740	-1.113980	0.688048	0.706480	0.101562	-1.000000	-1.000000	-1.000000	-1.000000	-1.000000	-1.000000	-1.000000	75.586207	0.000000	-1.000000	-1.000000	1831317.000000	1770065159.438278
-3021.615000	-8005.005000	30.870000	13251.690000	-2589.705000	-3595.680000	8291.790000	-3566.880000	9.966210	10.538504	9.357611	8.860189	8.312250	6.525646	2.504151	7.955359	-2.960440	1.510740	-1.113980	0.688048	0.706480	0.101562	-1.000000	-1.000000	-1.000000	-1.000000	-1.000000	-1.000000	-1.000000	75.586207	0.000000	-1.000000	-1.000000	1831318.000000	1770065159.438288
-2969.640000	-7945.065000	94.635000	13319.955000	-2521.440000	-3537.315000	8316.900000	-3541.095000	-22.989741	-24.585348	-25.185790	-25.021766	-23.485102	-21.835372	-19.653342	-18.764703	-2.960440	1.510740	-1.113980	0.688048	0.706480	0.101562	-1.000000	-1.000000	-1.000000	-1.000000	-1.000000	-1.000000	-1.000000	75.586207	0.000000	-1.000000	-1.000000	1831319.000000	1770065159.445988
-2927.970000	-7900.380000	141.705000	13368.060000	-2473.740000	-3487.500000	8380.485000	-3513.375000	-47.392399	-51.424434	-50.972448	-49.673927	-46.475227	-43.145272	-35.351460	-40.756989	-2.960440	1.510740	-1.113980	0.688048	0.706480	0.101562	-1.000000	-1.000000	-1.000000	-1.000000	-1.000000	-1.000000	-1.000000	75.586207	0.000000	-1.000000	-1.000000	1831320.000000	1770065159.446001
-2956.320000	-7930.305000	110.970000	13335.255000	-2506.230000	-3515.940000	8355.510000	-3518.505000	-46.706383	-51.246430	-49.630491	-47.367691	-43.932333	-40.389663	-30.298457	-43.343977	-4.669560	3.601360	-1.251320	0.690611	0.706236	0.103271	-1.000000	-1.000000	-1.000000	-1.000000	-1.000000	-1.000000	-1.000000	75.586207	0.000000	-1.000000	-1.000000	1831321.000000	1770065159.446162
-2989.080000	-7960.095000	77.805000	13295.655000	-2545.560000	-3547.440000	8318.430000	-3556.890000	-25.203886	-27.754793	-25.624040	-23.473242	-21.145502	-17.931026	-9.211834	-26.233284	-4.669560	3.601360	-1.251320	0.690611	0.706236	0.103271	-1.000000	-1.000000	-1.000000	-1.000000	-1.000000	-1.000000	-1.000000	75.586207	0.000000	-1.000000	-1.000000	1831322.000000	1770065159.446172
-2955.465000	-7922.655000	113.085000	13329.810000	-2513.340000	-3521.430000	8347.680000	-3524.895000	1.412477	2.174727	3.704133	4.437712	5.150229	7.643776	12.153469	-0.871724	-4.669560	3.601360	-1.251320	0.690611	0.706236	0.103271	-1.000000	-1.000000	-1.000000	-1.000000	-1.000000	-1.000000	-1.000000	75.586207	0.000000	-1.000000	-1.000000	1831323.000000	1770065159.456608
-2997.000000	-7980.345000	55.080000	13275.315000	-2567.880000	-3570.300000	8303.580000	-3498.165000	20.256804	23.653856	23.840694	22.746788	21.992941	23.104988	22.512725	20.236837	-4.669560	3.601360	-1.251320	0.690611	0.706236	0.103271	-1.000000	-1.000000	-1.000000	-1.000000	-1.000000	-1.000000	-1.000000	75.586207	0.000000	-1.000000	-1.000000	1831324.000000	1770065159.456619
-2974.500000	-7944.210000	95.085000	13316.985000	-2531.115000	-3542.040000	8268.300000	-3520.935000	26.895079	30.599601	29.525039	27.420563	25.544349	25.051469	20.292248	30.756845	-4.669560	3.601360	-1.251320	0.690611	0.706236	0.103271	-1.000000	-1.000000	-1.000000	-1.000000	-1.000000	-1.000000	-1.000000	75.586207	0.000000	-1.000000	-1.000000	1831325.000000	1770065159.458325
-2969.595000	-7941.285000	99.720000	13324.680000	-2517.120000	-3538.125000	8267.580000	-3513.420000	26.169197	28.591658	27.039745	25.202084	22.636572	20.753770	11.623354	30.846930	-4.669560	3.601360	-1.251320	0.690611	0.706236	0.103271	-1.000000	-1.000000	-1.000000	-1.000000	-1.000000	-1.000000	-1.000000	75.586207	0.000000	-1.000000	-1.000000	1831326.000000	1770065159.458336
-2975.265000	-7941.555000	98.370000	13321.845000	-2515.545000	-3520.080000	8349.300000	-3538.845000	24.297407	26.019500	24.951131	24.184882	21.727673	18.840592	5.595419	23.468629	-4.669560	3.601360	-1.251320	0.690611	0.706236	0.103271	-1.000000	-1.000000	-1.000000	-1.000000	-1.000000	-1.000000	-1.000000	75.586207	0.000000	-1.000000	-1.000000	1831327.000000	1770065159.458348
-2989.305000	-7952.670000	85.950000	13306.095000	-2531.385000	-3526.605000	8354.700000	-3565.620000	19.181172	21.254266	21.073139	21.269541	19.958169	17.530138	6.435630	10.186724	-4.669560	3.601360	-1.251320	0.690611	0.706236	0.103271	-1.000000	-1.000000	-1.000000	-1.000000	-1.000000	-1.000000	-1.000000	75.586207	0.000000	-1.000000	-1.000000	1831328.000000	1770065159.458353
-2989.395000	-7964.820000	76.410000	13299.255000	-2536.425000	-3531.735000	8349.300000	-3563.280000	5.897875	7.907024	8.281296	8.736390	9.123262	9.251854	9.098570	-7.463715	-4.669560	3.601360	-1.251320	0.690611	0.706236	0.103271	-1.000000	-1.000000	-1.000000	-1.000000	-1.000000	-1.000000	-1.000000	75.586207	0.000000	-1.000000	-1.000000	1831329.000000	1770065159.463340
-2981.205000	-7959.915000	81.405000	13304.430000	-2534.715000	-3533.895000	8351.730000	-3558.420000	-11.967254	-11.755845	-11.320048	-11.037162	-9.299240	-6.331430	6.451794	-22.857117	-4.669560	3.601360	-1.251320	0.690611	0.706236	0.103271	-1.000000	-1.000000	-1.000000	-1.000000	-1.000000	-1.000000	-1.000000	75.586207	0.000000	-1.000000	-1.000000	1831330.000000	1770065159.463351
-2963.160000	-7934.715000	105.030000	13324.725000	-2520.405000	-3525.120000	8340.255000	-3539.295000	-23.905441	-26.711322	-26.389255	-26.078007	-24.059841	-20.642229	-1.774665	-26.943193	-3.494540	4.761120	-1.892240	0.690855	0.708128	0.104187	-1.000000	-1.000000	-1.000000	-1.000000	-1.000000	-1.000000	-1.000000	75.586207	0.000000	-1.000000	-1.000000	1831331.000000	1770065159.466072
-2953.260000	-7926.975000	112.770000	13334.580000	-2507.175000	-3510.225000	8328.330000	-3548.250000	-23.512091	-28.477403	-28.184217	-27.519257	-26.385492	-25.489611	-11.377505	-18.015290	-3.494540	4.761120	-1.892240	0.690855	0.708128	0.104187	-1.000000	-1.000000	-1.000000	-1.000000	-1.000000	-1.000000	-1.000000	75.586207	0.000000	-1.000000	-1.000000	1831332.000000	1770065159.466082
-2967.615000	-7940.115000	102.105000	13326.480000	-2512.395000	-3517.560000	8329.995000	-3551.715000	-13.246307	-17.953753	-17.624000	-16.651596	-16.767225	-19.341562	-17.670089	-3.711119	-3.494540	4.761120	-1.892240	0.690855	0.708128	0.104187	-1.000000	-1.000000	-1.000000	-1.000000	-1.000000	-1.000000	-1.000000	75.586207	0.000000	-1.000000	-1.000000	1831333.000000	1770065159.492142
-2972.880000	-7939.305000	104.985000	13329.270000	-2511.765000	-3522.780000	8336.205000	-3533.265000	-0.181992	-2.415585	-2.140628	-1.276414	-2.048817	-6.507979	-15.996077	8.189538	-3.494540	4.761120	-1.892240	0.690855	0.708128	0.104187	-1.000000	-1.000000	-1.000000	-1.000000	-1.000000	-1.000000	-1.000000	75.586207	0.000000	-1.000000	-1.000000	1831334.000000	1770065159.492157
-2965.815000	-7932.465000	109.845000	13330.800000	-2509.830000	-3523.590000	8336.385000	-3528.270000	9.401425	10.527946	10.571114	10.774333	10.004882	6.163234	-6.461876	15.351224	-3.494540	4.761120	-1.892240	0.690855	0.708128	0.104187	-1.000000	-1.000000	-1.000000	-1.000000	-1.000000	-1.000000	-1.000000	75.586207	0.000000	-1.000000	-1.000000	1831335.000000	1770065159.492171
-2953.575000	-7923.690000	115.605000	13334.310000	-2504.565000	-3514.815000	8353.305000	-3505.590000	12.653678	16.306312	15.950298	15.127346	14.491567	12.814412	3.626400	17.939956	-3.494540	4.761120	-1.892240	0.690855	0.708128	0.104187	-1.000000	-1.000000	-1.000000	-1.000000	-1.000000	-1.000000	-1.000000	75.586207	0.000000	-1.000000	-1.000000	1831336.000000	1770065159.492177
-2949.390000	-7910.460000	127.935000	13347.180000	-2492.955000	-3503.790000	8343.765000	-3502.080000	9.990445	14.103440	13.264524	11.601388	11.023542	11.536561	7.004487	16.055932	-3.494540	4.761120	-1.892240	0.690855	0.708128	0.104187	-1.000000	-1.000000	-1.000000	-1.000000	-1.000000	-1.000000	-1.000000	75.586207	0.000000	-1.000000	-1.000000	1831337.000000	1770065159.492183
-2939.355000	-7894.575000	145.395000	13364.145000	-2481.930000	-3493.890000	8345.880000	-3510.180000	3.949305	6.967171	5.792450	4.029880	3.511151	5.383943	3.460141	9.619592	-3.494540	4.761120	-1.892240	0.690855	0.708128	0.104187	-1.000000	-1.000000	-1.000000	-1.000000	-1.000000	-1.000000	-1.000000	75.586207	0.000000	-1.000000	-1.000000	1831338.000000	1770065159.492188
-2927.340000	-7899.885000	138.555000	13355.730000	-2488.815000	-3495.015000	8354.025000	-3510.945000	-2.013710	-0.518248	-1.572245	-2.584588	-2.957335	-0.522458	-1.567920	-0.480205	-3.494540	4.761120	-1.892240	0.690855	0.708128	0.104187	-1.000000	-1.000000	-1.000000	-1.000000	-1.000000	-1.000000	-1.000000	75.586207	0.000000	-1.000000	-1.000000	1831339.000000	1770065159.492195
-2940.300000	-7917.345000	119.745000	13335.030000	-2511.720000	-3523.230000	8343.270000	-3519.945000	-5.850692	-6.434692	-6.820678	-6.604145	-6.561163	-3.973429	-3.101897	-11.405437	-3.494540	4.761120	-1.892240	0.690855	0.708128	0.104187	-1.000000	-1.000000	-1.000000	-1.000000	-1.000000	-1.000000	-1.000000	75.586207	0.000000	-1.000000	-1.000000	1831340.000000	1770065159.492200
-2937.465000	-7903.350000	136.350000	13355.595000	-2490.435000	-3498.435000	8376.480000	-3524.355000	-7.654906	-10.729828	-10.183767	-8.875762	-8.207787	-5.806828	-0.059617	-19.335342	-2.960440	4.379620	-0.488320	0.688353	0.707274	0.105591	-1.000000	-1.000000	-1.000000	-1.000000	-1.000000	-1.000000	-1.000000	75.586207	0.000000	-1.000000	-1.000000	1831341.000000	1770065159.492206
-2945.565000	-7913.250000	127.845000	13348.890000	-2489.490000	-3497.310000	8374.455000	-3526.425000	-7.313222	-11.677973	-10.400301	-8.613734	-7.431214	-5.607695	5.964185	-20.879518	-2.960440	4.379620	-0.488320	0.688353	0.707274	0.105591	-1.000000	-1.000000	-1.000000	-1.000000	-1.000000	-1.000000	-1.000000	75.586207	0.000000	-1.000000	-1.000000	1831342.000000	1770065159.492211
-2970.495000	-7945.065000	96.030000	13319.235000	-2516.895000	-3527.955000	8339.085000	-3547.980000	-4.686393	-8.267842	-6.807783	-5.196764	-3.672464	-2.586617	10.886454	-15.313810	-2.960440	4.379620	-0.488320	0.688353	0.707274	0.105591	-1.000000	-1.000000	-1.000000	-1.000000	-1.000000	-1.000000	-1.000000	75.586207	0.000000	-1.000000	-1.000000	1831343.000000	1770065159.492218
-2939.490000	-7913.700000	125.505000	13344.930000	-2497.095000	-3529.980000	8346.285000	-3512.250000	-1.121791	-2.715063	-1.647989	-0.614984	0.928196	0.899895	9.279709	-5.332940	-2.960440	4.379620	-0.488320	0.688353	0.707274	0.105591	-1.000000	-1.000000	-1.000000	-1.000000	-1.000000	-1.000000	-1.000000	75.586207	0.000000	-1.000000	-1.000000	1831344.000000	1770065159.492222
-2930.895000	-7901.145000	136.980000	13351.320000	-2497.230000	-3526.605000	8351.460000	-3487.365000	2.240921	2.721642	3.093141	3.310410	4.006579	1.884425	0.336341	5.818308	-2.960440	4.379620	-0.488320	0.688353	0.707274	0.105591	-1.000000	-1.000000	-1.000000	-1.000000	-1.000000	-1.000000	-1.000000	75.586207	0.000000	-1.000000	-1.000000	1831345.000000	1770065159.495370
-2926.755000	-7897.005000	138.870000	13349.835000	-2509.965000	-3522.600000	8342.415000	-3474.225000	4.969285	6.986105	6.650231	5.829205	4.666005	0.448805	-10.138565	15.407885	-2.960440	4.379620	-0.488320	0.688353	0.707274	0.105591	-1.000000	-1.000000	-1.000000	-1.000000	-1.000000	-1.000000	-1.000000	75.586207	0.000000	-1.000000	-1.000000	1831346.000000	1770065159.495378
-2906.325000	-7878.600000	160.605000	13380.930000	-2478.330000	-3483.945000	8363.475000	-3448.305000	6.330266	9.027167	8.173892	6.477291	3.323128	-0.630311	-15.108145	20.660493	-2.960440	4.379620	-0.488320	0.688353	0.707274	0.105591	-1.000000	-1.000000	-1.000000	-1.000000	-1.000000	-1.000000	-1.000000	75.586207	0.000000	-1.000000	-1.000000	1831347.000000	1770065159.500431
-2894.580000	-7857.540000	186.615000	13411.755000	-2433.240000	-3434.670000	8395.695000	-3513.690000	6.018548	8.794593	7.942098	6.431705	2.784499	2.067107	-11.105267	18.921867	-2.960440	4.379620	-0.488320	0.688353	0.707274	0.105591	-1.000000	-1.000000	-1.000000	-1.000000	-1.000000	-1.000000	-1.000000	75.586207	0.000000	-1.000000	-1.000000	1831348.000000	1770065159.500443
-2962.800000	-7933.365000	107.595000	13330.845000	-2506.815000	-3511.845000	8313.615000	-3586.995000	3.554596	6.272247	6.097526	6.067853	4.564651	7.923037	-1.087084	7.734110	-2.960440	4.379620	-0.488320	0.688353	0.707274	0.105591	-1.000000	-1.000000	-1.000000	-1.000000	-1.000000	-1.000000	-1.000000	75.586207	0.000000	-1.000000	-1.000000	1831349.000000	1770065159.503999
-2995.740000	-7963.785000	78.345000	13299.255000	-2537.595000	-3549.510000	8287.605000	-3552.480000	-2.392299	-0.279142	0.328676	1.835947	4.197384	9.571108	5.988360	-10.304175	-2.960440	4.379620	-0.488320	0.688353	0.707274	0.105591	-1.000000	-1.000000	-1.000000	-1.000000	-1.000000	-1.000000	-1.000000	75.586207	0.000000	-1.000000	-1.000000	1831350.000000	1770065159.504009
-2982.195000	-7959.105000	81.495000	13300.920000	-2532.870000	-3540.870000	8340.120000	-3490.875000	-10.015253	-9.659682	-8.947903	-7.307375	-2.022712	2.003055	5.304455	-23.402994	-3.753960	4.501700	-1.281840	0.691710	0.708128	0.104248	-1.000000	-1.000000	-1.000000	-1.000000	-1.000000	-1.000000	-1.000000	75.586207	0.000000	-1.000000	-1.000000	1831351.000000	1770065159.508590
-2944.125000	-7909.740000	133.290000	13353.975000	-2482.605000	-3490.155000	8368.920000	-3534.525000	-12.731195	-14.581689	-14.492980	-14.206389	-8.981687	-8.276041	2.775884	-21.004927	-3.753960	4.501700	-1.281840	0.691710	0.708128	0.104248	-1.000000	-1.000000	-1.000000	-1.000000	-1.000000	-1.000000	-1.000000	75.586207	0.000000	-1.000000	-1.000000	1831352.000000	1770065159.508601
-2925.540000	-7887.015000	157.680000	13379.670000	-2458.980000	-3464.640000	8354.205000	-3523.050000	-6.309203	-9.215533	-9.783706	-11.054013	-8.700592	-10.638400	4.488409	-6.741172	-3.753960	4.501700	-1.281840	0.691710	0.708128	0.104248	-1.000000	-1.000000	-1.000000	-1.000000	-1.000000	-1.000000	-1.000000	75.586207	0.000000	-1.000000	-1.000000	1831353.000000	1770065159.511670
-2954.430000	-7926.165000	114.705000	13334.760000	-2504.340000	-3509.640000	8319.780000	-3525.165000	5.054657	2.744378	2.078034	0.367371	-1.014369	-3.667810	7.493044	7.088485	-3.753960	4.501700	-1.281840	0.691710	0.708128	0.104248	-1.000000	-1.000000	-1.000000	-1.000000	-1.000000	-1.000000	-1.000000	75.586207	0.000000	-1.000000	-1.000000	1831354.000000	1770065159.511682
-2962.215000	-7940.880000	98.280000	13317.435000	-2523.195000	-3524.175000	8332.695000	-3513.780000	12.496081	11.200452	10.840980	9.926921	6.148148	3.858719	6.136839	12.791186	-3.753960	4.501700	-1.281840	0.691710	0.708128	0.104248	-1.000000	-1.000000	-1.000000	-1.000000	-1.000000	-1.000000	-1.000000	75.586207	0.000000	-1.000000	-1.000000	1831355.000000	1770065159.514030
-3000.870000	-7978.590000	62.055000	13280.760000	-2558.610000	-3559.995000	8329.995000	-3541.680000	10.325947	9.355126	9.186211	9.306747	5.339219	3.275123	-0.034237	10.414518	-3.753960	4.501700	-1.281840	0.691710	0.708128	0.104248	-1.000000	-1.000000	-1.000000	-1.000000	-1.000000	-1.000000	-1.000000	75.586207	0.000000	-1.000000	-1.000000	1831356.000000	1770065159.514040
-3005.505000	-7976.115000	63.405000	13278.555000	-2562.345000	-3569.805000	8326.620000	-3570.030000	0.348273	-0.602097	-0.877181	-0.457730	-3.289550	-5.489580	-6.896164	4.475615	-3.753960	4.501700	-1.281840	0.691710	0.708128	0.104248	-1.000000	-1.000000	-1.000000	-1.000000	-1.000000	-1.000000	-1.000000	75.586207	0.000000	-1.000000	-1.000000	1831357.000000	1770065159.518072
-2972.250000	-7934.040000	103.050000	13311.270000	-2536.605000	-3550.275000	8335.485000	-3539.295000	-8.347643	-8.508900	-8.983834	-9.154405	-10.987987	-13.219418	-9.008776	0.673380	-3.753960	4.501700	-1.281840	0.691710	0.708128	0.104248	-1.000000	-1.000000	-1.000000	-1.000000	-1.000000	-1.000000	-1.000000	75.586207	0.000000	-1.000000	-1.000000	1831358.000000	1770065159.518081
-2958.705000	-7926.075000	111.330000	13320.810000	-2526.930000	-3543.345000	8335.485000	-3533.310000	-6.657230	-5.035705	-5.567748	-6.623754	-8.215526	-9.897554	-3.932410	1.281181	-3.753960	4.501700	-1.281840	0.691710	0.708128	0.104248	-1.000000	-1.000000	-1.000000	-1.000000	-1.000000	-1.000000	-1.000000	75.586207	0.000000	-1.000000	-1.000000	1831359.000000	1770065159.526260
-2962.665000	-7935.930000	105.795000	13327.965000	-2515.095000	-3527.865000	8340.930000	-3540.465000	4.234616	7.427094	7.164269	5.968972	4.483363	4.106627	3.907495	2.953604	-3.753960	4.501700	-1.281840	0.691710	0.708128	0.104248	-1.000000	-1.000000	-1.000000	-1.000000	-1.000000	-1.000000	-1.000000	75.586207	0.000000	-1.000000	-1.000000	1831360.000000	1770065159.526272
-2947.140000	-7916.445000	128.925000	13357.485000	-2481.705000	-3491.595000	8363.520000	-3522.015000	13.709952	16.765078	17.210819	17.430499	17.015764	18.554471	7.705694	2.165780	-5.341000	5.310480	-2.868880	0.692076	0.707457	0.101745	-1.000000	-1.000000	-1.000000	-1.000000	-1.000000	-1.000000	-1.000000	75.586207	0.000000	-1.000000	-1.000000	1831361.000000	1770065159.527436
-2915.865000	-7887.555000	155.295000	13381.020000	-2456.640000	-3469.680000	8372.385000	-3490.785000	13.841390	14.897038	16.246930	18.898772	20.820619	24.257304	6.113409	-0.128754	-5.341000	5.310480	-2.868880	0.692076	0.707457	0.101745	-1.000000	-1.000000	-1.000000	-1.000000	-1.000000	-1.000000	-1.000000	75.586207	0.000000	-1.000000	-1.000000	1831362.000000	1770065159.527447
-2878.065000	-7843.050000	199.530000	13423.095000	-2416.635000	-3443.490000	8384.130000	-3495.780000	6.848793	5.572048	7.444374	11.739169	16.213733	20.188328	2.888658	-1.631221	-5.341000	5.310480	-2.868880	0.692076	0.707457	0.101745	-1.000000	-1.000000	-1.000000	-1.000000	-1.000000	-1.000000	-1.000000	75.586207	0.000000	-1.000000	-1.000000	1831363.000000	1770065159.529945
-2930.535000	-7901.775000	137.880000	13357.575000	-2486.970000	-3508.515000	8359.470000	-3497.355000	-0.917665	-3.097060	-1.528538	2.124654	7.684195	9.872326	0.376706	-2.318457	-5.341000	5.310480	-2.868880	0.692076	0.707457	0.101745	-1.000000	-1.000000	-1.000000	-1.000000	-1.000000	-1.000000	-1.000000	75.586207	0.000000	-1.000000	-1.000000	1831364.000000	1770065159.529963
-3026.430000	-8002.800000	35.010000	13254.345000	-2590.020000	-3592.890000	8295.975000	-3531.195000	-8.331007	-9.906867	-9.505754	-8.689883	-4.563565	-5.164123	-3.457755	-3.046628	-5.341000	5.310480	-2.868880	0.692076	0.707457	0.101745	-1.000000	-1.000000	-1.000000	-1.000000	-1.000000	-1.000000	-1.000000	75.586207	0.000000	-1.000000	-1.000000	1831365.000000	1770065159.537718
-3007.440000	-7979.130000	60.660000	13283.370000	-2560.455000	-3557.565000	8302.725000	-3548.070000	-16.920893	-17.736340	-18.841039	-21.350305	-20.605591	-22.143680	-9.983817	-3.727649	-5.341000	5.310480	-2.868880	0.692076	0.707457	0.101745	-1.000000	-1.000000	-1.000000	-1.000000	-1.000000	-1.000000	-1.000000	75.586207	0.000000	-1.000000	-1.000000	1831366.000000	1770065159.537727
-2960.550000	-7929.135000	110.925000	13332.645000	-2506.770000	-3512.205000	8340.120000	-3538.125000	-22.371936	-23.004273	-25.023132	-29.256768	-31.844451	-31.551861	-14.507910	-4.393454	-5.341000	5.310480	-2.868880	0.692076	0.707457	0.101745	-1.000000	-1.000000	-1.000000	-1.000000	-1.000000	-1.000000	-1.000000	75.586207	0.000000	-1.000000	-1.000000	1831367.000000	1770065159.542292
-2959.245000	-7927.155000	112.005000	13329.270000	-2509.560000	-3524.220000	8327.655000	-3527.865000	-17.752345	-18.222913	-20.063618	-23.803173	-27.872829	-25.298356	-11.222897	-5.071050	-5.341000	5.310480	-2.868880	0.692076	0.707457	0.101745	-1.000000	-1.000000	-1.000000	-1.000000	-1.000000	-1.000000	-1.000000	75.586207	0.000000	-1.000000	-1.000000	1831368.000000	1770065159.542304
-2964.870000	-7923.195000	116.460000	13331.520000	-2512.755000	-3531.780000	8337.285000	-3554.190000	-3.785147	-3.375059	-4.341671	-6.619133	-10.179567	-7.726555	-1.468384	-4.811041	-5.341000	5.310480	-2.868880	0.692076	0.707457	0.101745	-1.000000	-1.000000	-1.000000	-1.000000	-1.000000	-1.000000	-1.000000	75.586207	0.000000	-1.000000	-1.000000	1831369.000000	1770065159.542314
-2959.920000	-7922.880000	114.750000	13328.955000	-2516.355000	-3528.585000	8338.995000	-3523.545000	10.746072	12.511546	12.383249	11.156927	8.946711	8.594360	8.095111	-3.101021	-5.341000	5.310480	-2.868880	0.692076	0.707457	0.101745	-1.000000	-1.000000	-1.000000	-1.000000	-1.000000	-1.000000	-1.000000	75.586207	0.000000	-1.000000	-1.000000	1831370.000000	1770065159.542320
-2973.510000	-7947.810000	88.875000	13303.035000	-2543.445000	-3544.965000	8325.630000	-3526.515000	17.269613	19.581177	19.911840	19.291311	18.316744	15.002055	12.378937	-0.429789	-3.494540	4.242280	-2.639980	0.688902	0.703611	0.099914	-1.000000	-1.000000	-1.000000	-1.000000	-1.000000	-1.000000	-1.000000	75.586207	0.000000	-1.000000	-1.000000	1831371.000000	1770065159.545890
-2966.130000	-7937.865000	97.290000	13312.755000	-2533.500000	-3530.295000	8331.660000	-3555.540000	13.755567	14.881485	15.410059	15.699782	15.741294	12.040795	10.491616	2.141588	-3.494540	4.242280	-2.639980	0.688902	0.703611	0.099914	-1.000000	-1.000000	-1.000000	-1.000000	-1.000000	-1.000000	-1.000000	75.586207	0.000000	-1.000000	-1.000000	1831372.000000	1770065159.545908
-2953.215000	-7924.275000	114.300000	13332.420000	-2513.070000	-3514.365000	8343.315000	-3531.735000	6.309638	5.343375	6.052878	7.834375	8.878710	7.376729	5.675642	3.880936	-3.494540	4.242280	-2.639980	0.688902	0.703611	0.099914	-1.000000	-1.000000	-1.000000	-1.000000	-1.000000	-1.000000	-1.000000	75.586207	0.000000	-1.000000	-1.000000	1831373.000000	1770065159.549911
-2954.520000	-7915.635000	125.145000	13343.940000	-2500.560000	-3507.615000	8347.545000	-3521.520000	3.689304	1.564190	2.594157	5.889246	7.807406	8.400782	3.015066	6.356979	-3.494540	4.242280	-2.639980	0.688902	0.703611	0.099914	-1.000000	-1.000000	-1.000000	-1.000000	-1.000000	-1.000000	-1.000000	75.586207	0.000000	-1.000000	-1.000000	1831374.000000	1770065159.549919
-2953.710000	-7907.940000	134.550000	13355.010000	-2488.275000	-3496.140000	8355.195000	-3511.485000	6.813866	5.385693	6.780227	10.714176	12.992305	13.508120	3.918805	10.657320	-3.494540	4.242280	-2.639980	0.688902	0.703611	0.099914	-1.000000	-1.000000	-1.000000	-1.000000	-1.000000	-1.000000	-1.000000	75.586207	0.000000	-1.000000	-1.000000	1831375.000000	1770065159.554029
-2890.125000	-7850.880000	190.890000	13410.855000	-2433.240000	-3437.010000	8396.865000	-3490.920000	8.826757	9.183129	10.624331	13.847580	15.697429	14.845100	4.999966	13.555672	-3.494540	4.242280	-2.639980	0.688902	0.703611	0.099914	-1.000000	-1.000000	-1.000000	-1.000000	-1.000000	-1.000000	-1.000000	75.586207	0.000000	-1.000000	-1.000000	1831376.000000	1770065159.554040
-2914.695000	-7893.090000	146.520000	13367.565000	-2474.190000	-3477.420000	8382.420000	-3496.365000	5.458014	6.803799	7.648233	9.076616	9.828852	8.586673	3.269852	11.126261	-3.494540	4.242280	-2.639980	0.688902	0.703611	0.099914	-1.000000	-1.000000	-1.000000	-1.000000	-1.000000	-1.000000	-1.000000	75.586207	0.000000	-1.000000	-1.000000	1831377.000000	1770065159.564931
-2985.435000	-7964.370000	75.960000	13296.690000	-2546.505000	-3558.825000	8322.885000	-3515.265000	-3.281842	-3.172986	-3.512479	-4.232479	-4.649590	-4.648531	-2.511203	2.970943	-3.494540	4.242280	-2.639980	0.688902	0.703611	0.099914	-1.000000	-1.000000	-1.000000	-1.000000	-1.000000	-1.000000	-1.000000	75.586207	0.000000	-1.000000	-1.000000	1831378.000000	1770065159.564943
-2999.070000	-7971.570000	68.805000	13285.890000	-2557.215000	-3569.670000	8320.545000	-3542.625000	-16.012006	-18.375039	-19.903549	-22.365596	-23.424628	-22.065968	-12.083949	-8.849200	-3.494540	4.242280	-2.639980	0.688902	0.703611	0.099914	-1.000000	-1.000000	-1.000000	-1.000000	-1.000000	-1.000000	-1.000000	75.586207	0.000000	-1.000000	-1.000000	1831379.000000	1770065159.564957
-2968.425000	-7920.225000	123.705000	13341.780000	-2502.675000	-3513.915000	8357.670000	-3544.335000	-26.699047	-29.715859	-31.660778	-34.959673	-36.028092	-34.689017	-20.073140	-20.171773	-3.494540	4.242280	-2.639980	0.688902	0.703611	0.099914	-1.000000	-1.000000	-1.000000	-1.000000	-1.000000	-1.000000	-1.000000	75.586207	0.000000	-1.000000	-1.000000	1831380.000000	1770065159.564963
-2961.765000	-7913.205000	131.355000	13354.380000	-2488.140000	-3497.130000	8349.210000	-3511.665000	-26.297270	-26.458700	-27.741427	-30.739055	-31.425183	-31.265475	-18.958709	-24.167703	-3.082520	5.493600	-1.846460	0.688780	0.702330	0.099609	-1.000000	-1.000000	-1.000000	-1.000000	-1.000000	-1.000000	-1.000000	75.586207	0.000000	-1.000000	-1.000000	1831381.000000	1770065159.566015
-2979.945000	-7956.855000	83.385000	13305.690000	-2535.075000	-3541.005000	8308.980000	-3556.350000	-12.203770	-8.305460	-8.418044	-10.087989	-10.281392	-11.146707	-8.361977	-16.930184	-3.082520	5.493600	-1.846460	0.688780	0.702330	0.099609	-1.000000	-1.000000	-1.000000	-1.000000	-1.000000	-1.000000	-1.000000	75.586207	0.000000	-1.000000	-1.000000	1831382.000000	1770065159.566025
-2975.805000	-7958.295000	80.550000	13302.765000	-2538.000000	-3546.855000	8297.190000	-3556.440000	8.109770	12.897041	13.437991	13.459657	13.631954	12.867026	4.186217	-3.112726	-3.082520	5.493600	-1.846460	0.688780	0.702330	0.099609	-1.000000	-1.000000	-1.000000	-1.000000	-1.000000	-1.000000	-1.000000	75.586207	0.000000	-1.000000	-1.000000	1831383.000000	1770065159.571302
-2918.070000	-7891.515000	146.655000	13366.260000	-2477.295000	-3495.015000	8301.420000	-3467.970000	23.741504	24.926324	25.160362	26.354466	26.549278	26.754736	11.190600	9.882515	-3.082520	5.493600	-1.846460	0.688780	0.702330	0.099609	-1.000000	-1.000000	-1.000000	-1.000000	-1.000000	-1.000000	-1.000000	75.586207	0.000000	-1.000000	-1.000000	1831384.000000	1770065159.571314
-2838.780000	-7791.615000	247.320000	13463.010000	-2389.410000	-3417.705000	8350.020000	-3468.015000	29.191344	26.035174	25.540932	26.891495	26.569960	27.384085	11.358960	18.998015	-3.082520	5.493600	-1.846460	0.688780	0.702330	0.099609	-1.000000	-1.000000	-1.000000	-1.000000	-1.000000	-1.000000	-1.000000	75.586207	0.000000	-1.000000	-1.000000	1831385.000000	1770065159.574031
-2926.215000	-7888.410000	150.210000	13364.010000	-2488.005000	-3505.005000	8361.810000	-3498.840000	25.264530	21.507442	20.703892	21.297169	20.023025	20.473728	9.477836	22.343053	-3.082520	5.493600	-1.846460	0.688780	0.702330	0.099609	-1.000000	-1.000000	-1.000000	-1.000000	-1.000000	-1.000000	-1.000000	75.586207	0.000000	-1.000000	-1.000000	1831386.000000	1770065159.574042
-2961.585000	-7934.265000	102.060000	13316.580000	-2533.770000	-3542.580000	8339.220000	-3500.055000	13.512094	12.818022	12.419116	12.000895	10.080729	10.243990	9.976625	17.346805	-3.082520	5.493600	-1.846460	0.688780	0.702330	0.099609	-1.000000	-1.000000	-1.000000	-1.000000	-1.000000	-1.000000	-1.000000	75.586207	0.000000	-1.000000	-1.000000	1831387.000000	1770065159.577989
-2962.845000	-7942.005000	92.610000	13307.175000	-2546.055000	-3559.275000	8325.990000	-3448.170000	-3.725654	-1.600469	-1.276853	-2.095663	-3.549873	-2.625134	10.923604	6.256210	-3.082520	5.493600	-1.846460	0.688780	0.702330	0.099609	-1.000000	-1.000000	-1.000000	-1.000000	-1.000000	-1.000000	-1.000000	75.586207	0.000000	-1.000000	-1.000000	1831388.000000	1770065159.578000
-2985.075000	-7961.175000	77.985000	13299.165000	-2541.915000	-3550.455000	8349.255000	-3526.245000	-20.530606	-18.745123	-17.895273	-18.115375	-17.931328	-15.982322	7.438579	-4.897150	-3.082520	5.493600	-1.846460	0.688780	0.702330	0.099609	-1.000000	-1.000000	-1.000000	-1.000000	-1.000000	-1.000000	-1.000000	75.586207	0.000000	-1.000000	-1.000000	1831389.000000	1770065159.589254
-2981.115000	-7944.840000	98.820000	13324.860000	-2508.570000	-3511.035000	8368.200000	-3588.165000	-29.790096	-30.511553	-29.381657	-28.350280	-25.900020	-23.860553	-0.110108	-14.426026	-3.082520	5.493600	-1.846460	0.688780	0.702330	0.099609	-1.000000	-1.000000	-1.000000	-1.000000	-1.000000	-1.000000	-1.000000	75.586207	0.000000	-1.000000	-1.000000	1831390.000000	1770065159.589264
-2951.865000	-7918.515000	120.555000	13337.685000	-2501.505000	-3509.190000	8353.710000	-3553.155000	-26.395306	-28.379236	-27.040259	-24.985876	-20.728201	-19.708316	-6.185714	-22.031249	-4.608520	4.379620	-1.663340	0.687742	0.705443	0.099121	-1.000000	-1.000000	-1.000000	-1.000000	-1.000000	-1.000000	-1.000000	75.586207	0.000000	-1.000000	-1.000000	1831391.000000	1770065159.589275
-2922.795000	-7891.920000	144.450000	13357.215000	-2491.965000	-3508.920000	8339.490000	-3497.040000	-10.780494	-11.289102	-10.036676	-8.182961	-4.080793	-4.767817	-7.950485	-22.207852	-4.608520	4.379620	-1.663340	0.687742	0.705443	0.099121	-1.000000	-1.000000	-1.000000	-1.000000	-1.000000	-1.000000	-1.000000	75.586207	0.000000	-1.000000	-1.000000	1831392.000000	1770065159.589281
-2984.580000	-7953.840000	87.075000	13307.355000	-2535.165000	-3543.300000	8323.605000	-3516.255000	7.195847	8.900989	9.491455	9.889601	11.466549	9.222339	-8.218326	-12.180716	-4.608520	4.379620	-1.663340	0.687742	0.705443	0.099121	-1.000000	-1.000000	-1.000000	-1.000000	-1.000000	-1.000000	-1.000000	75.586207	0.000000	-1.000000	-1.000000	1831393.000000	1770065159.592835
-3000.420000	-7972.830000	68.445000	13291.470000	-2548.080000	-3553.740000	8321.760000	-3562.425000	14.440595	16.572031	16.255883	15.261378	13.673185	11.204617	-10.373616	1.465376	-4.608520	4.379620	-1.663340	0.687742	0.705443	0.099121	-1.000000	-1.000000	-1.000000	-1.000000	-1.000000	-1.000000	-1.000000	75.586207	0.000000	-1.000000	-1.000000	1831394.000000	1770065159.592846
-2990.160000	-7967.295000	69.390000	13289.895000	-2550.870000	-3557.745000	8314.920000	-3547.530000	9.875217	10.391822	9.422673	8.204474	4.930273	3.689037	-13.091090	10.923608	-4.608520	4.379620	-1.663340	0.687742	0.705443	0.099121	-1.000000	-1.000000	-1.000000	-1.000000	-1.000000	-1.000000	-1.000000	75.586207	0.000000	-1.000000	-1.000000	1831395.000000	1770065159.594301
-2986.560000	-7952.805000	87.750000	13310.865000	-2527.650000	-3538.260000	8335.260000	-3563.370000	4.634136	3.381169	2.178144	1.660127	-1.337724	-1.319691	-11.243834	14.058809	-4.608520	4.379620	-1.663340	0.687742	0.705443	0.099121	-1.000000	-1.000000	-1.000000	-1.000000	-1.000000	-1.000000	-1.000000	75.586207	0.000000	-1.000000	-1.000000	1831396.000000	1770065159.594312
-2963.205000	-7932.330000	109.260000	13332.825000	-2506.680000	-3540.150000	8346.240000	-3537.315000	6.019879	4.609328	3.637575	3.866804	2.240194	2.095963	-2.255110	12.422913	-4.608520	4.379620	-1.663340	0.687742	0.705443	0.099121	-1.000000	-1.000000	-1.000000	-1.000000	-1.000000	-1.000000	-1.000000	75.586207	0.000000	-1.000000	-1.000000	1831397.000000	1770065159.598163
-2973.555000	-7942.995000	97.335000	13318.605000	-2522.655000	-3557.790000	8335.710000	-3543.660000	11.378694	11.109124	10.641557	10.930821	10.489146	8.465292	9.567192	9.741331	-4.608520	4.379620	-1.663340	0.687742	0.705443	0.099121	-1.000000	-1.000000	-1.000000	-1.000000	-1.000000	-1.000000	-1.000000	75.586207	0.000000	-1.000000	-1.000000	1831398.000000	1770065159.598169
-2982.645000	-7946.370000	91.665000	13306.545000	-2540.430000	-3552.390000	8334.585000	-3539.790000	13.945099	14.648910	14.479240	13.871057	13.481587	9.535279	16.792276	9.562815	-4.608520	4.379620	-1.663340	0.687742	0.705443	0.099121	-1.000000	-1.000000	-1.000000	-1.000000	-1.000000	-1.000000	-1.000000	75.586207	0.000000	-1.000000	-1.000000	1831399.000000	1770065159.602138
-2966.715000	-7935.030000	102.600000	13316.220000	-2527.470000	-3533.355000	8341.650000	-3521.115000	8.972210	9.879986	9.674511	7.833073	6.730172	3.769045	16.221202	10.219742	-4.608520	4.379620	-1.663340	0.687742	0.705443	0.099121	-1.000000	-1.000000	-1.000000	-1.000000	-1.000000	-1.000000	-1.000000	75.586207	0.000000	-1.000000	-1.000000	1831400.000000	1770065159.602148
-2964.105000	-7937.280000	99.810000	13316.355000	-2528.145000	-3530.565000	8327.205000	-3539.385000	-2.392574	-1.940305	-2.173567	-4.403695	-5.579418	-3.829769	10.092728	5.977210	-5.341000	4.623780	-1.693860	0.686461	0.706968	0.099365	-1.000000	-1.000000	-1.000000	-1.000000	-1.000000	-1.000000	-1.000000	75.586207	0.000000	-1.000000	-1.000000	1831401.000000	1770065159.609635
-2972.115000	-7939.890000	99.630000	13318.380000	-2530.485000	-3535.695000	8326.845000	-3549.375000	-13.718502	-14.204671	-14.246821	-15.482344	-15.519937	-8.348785	1.856725	-4.892013	-5.341000	4.623780	-1.693860	0.686461	0.706968	0.099365	-1.000000	-1.000000	-1.000000	-1.000000	-1.000000	-1.000000	-1.000000	75.586207	0.000000	-1.000000	-1.000000	1831402.000000	1770065159.609647
-2957.175000	-7921.665000	117.810000	13331.565000	-2520.990000	-3533.715000	8334.720000	-3539.700000	-17.953703	-19.138655	-18.824207	-18.329061	-16.992093	-7.892420	-5.525567	-15.899053	-5.341000	4.623780	-1.693860	0.686461	0.706968	0.099365	-1.000000	-1.000000	-1.000000	-1.000000	-1.000000	-1.000000	-1.000000	75.586207	0.000000	-1.000000	-1.000000	1831403.000000	1770065159.609930
-2946.870000	-7915.140000	124.290000	13339.935000	-2505.780000	-3525.075000	8344.620000	-3502.170000	-12.415123	-13.268432	-12.528492	-10.667668	-8.715485	-2.957472	-9.151081	-18.556786	-5.341000	4.623780	-1.693860	0.686461	0.706968	0.099365	-1.000000	-1.000000	-1.000000	-1.000000	-1.000000	-1.000000	-1.000000	75.586207	0.000000	-1.000000	-1.000000	1831404.000000	1770065159.609941
-2901.690000	-7871.220000	169.470000	13390.470000	-2447.280000	-3464.595000	8374.455000	-3476.115000	-0.591665	-0.491678	0.537703	2.864436	4.845349	4.096232	-7.673766	-10.654731	-5.341000	4.623780	-1.693860	0.686461	0.706968	0.099365	-1.000000	-1.000000	-1.000000	-1.000000	-1.000000	-1.000000	-1.000000	75.586207	0.000000	-1.000000	-1.000000	1831405.000000	1770065159.613946
-2896.740000	-7856.280000	186.660000	13406.040000	-2431.935000	-3439.260000	8399.070000	-3508.695000	10.765210	11.492065	12.430121	14.456236	16.443226	10.542436	-2.415430	2.136786	-5.341000	4.623780	-1.693860	0.686461	0.706968	0.099365	-1.000000	-1.000000	-1.000000	-1.000000	-1.000000	-1.000000	-1.000000	75.586207	0.000000	-1.000000	-1.000000	1831406.000000	1770065159.613952
-2989.575000	-7965.000000	75.870000	13294.935000	-2538.990000	-3538.530000	8339.535000	-3542.580000	14.643094	15.312990	15.776199	17.009713	18.916795	12.358039	2.856299	10.683930	-5.341000	4.623780	-1.693860	0.686461	0.706968	0.099365	-1.000000	-1.000000	-1.000000	-1.000000	-1.000000	-1.000000	-1.000000	75.586207	0.000000	-1.000000	-1.000000	1831407.000000	1770065159.618150
-3018.510000	-7999.065000	39.870000	13258.935000	-2575.305000	-3580.020000	8298.270000	-3567.195000	6.337605	6.076721	5.903202	6.225740	7.649299	3.957457	2.977159	9.092847	-5.341000	4.623780	-1.693860	0.686461	0.706968	0.099365	-1.000000	-1.000000	-1.000000	-1.000000	-1.000000	-1.000000	-1.000000	75.586207	0.000000	-1.000000	-1.000000	1831408.000000	1770065159.618160
-2983.455000	-7959.510000	81.360000	13303.710000	-2531.070000	-3547.305000	8308.890000	-3542.040000	-10.452930	-12.131671	-12.811206	-13.055632	-12.573291	-13.329439	-3.432554	-1.054951	-5.341000	4.623780	-1.693860	0.686461	0.706968	0.099365	-1.000000	-1.000000	-1.000000	-1.000000	-1.000000	-1.000000	-1.000000	75.586207	0.000000	-1.000000	-1.000000	1831409.000000	1770065159.625659
-2968.695000	-7942.770000	99.000000	13319.640000	-2518.245000	-3535.470000	8316.090000	-3540.600000	-22.984387	-25.180085	-26.003236	-26.439040	-27.248499	-27.249856	-10.412192	-11.358640	-5.341000	4.623780	-1.693860	0.686461	0.706968	0.099365	-1.000000	-1.000000	-1.000000	-1.000000	-1.000000	-1.000000	-1.000000	75.586207	0.000000	-1.000000	-1.000000	1831410.000000	1770065159.625674
-2961.540000	-7928.190000	110.700000	13324.095000	-2520.090000	-3532.050000	8324.280000	-3533.715000	-20.661390	-21.644578	-22.310390	-23.059640	-25.242889	-26.060194	-10.753237	-13.071431	-2.243220	4.913720	0.228900	0.686461	0.702330	0.100281	-1.000000	-1.000000	-1.000000	-1.000000	-1.000000	-1.000000	-1.000000	75.586207	0.000000	-1.000000	-1.000000	1831411.000000	1770065159.626000
-2953.440000	-7920.675000	113.940000	13323.285000	-2519.055000	-3529.125000	8328.555000	-3527.370000	-4.699951	-3.370187	-3.898660	-5.398396	-8.570855	-9.616847	-3.407841	-4.960651	-2.243220	4.913720	0.228900	0.686461	0.702330	0.100281	-1.000000	-1.000000	-1.000000	-1.000000	-1.000000	-1.000000	-1.000000	75.586207	0.000000	-1.000000	-1.000000	1831412.000000	1770065159.626010
-2946.645000	-7913.880000	119.565000	13328.775000	-2518.155000	-3525.165000	8332.830000	-3520.935000	14.077012	17.423833	16.811616	14.470724	11.053547	11.584668	6.594230	6.175673	-2.243220	4.913720	0.228900	0.686461	0.702330	0.100281	-1.000000	-1.000000	-1.000000	-1.000000	-1.000000	-1.000000	-1.000000	75.586207	0.000000	-1.000000	-1.000000	1831413.000000	1770065159.633119
-2954.520000	-7922.970000	115.830000	13334.175000	-2509.290000	-3522.735000	8336.340000	-3522.960000	23.910871	27.681947	26.959703	24.456601	21.544222	24.567871	12.623607	12.562961	-2.243220	4.913720	0.228900	0.686461	0.702330	0.100281	-1.000000	-1.000000	-1.000000	-1.000000	-1.000000	-1.000000	-1.000000	75.586207	0.000000	-1.000000	-1.000000	1831414.000000	1770065159.633203
-2970.135000	-7933.095000	111.420000	13336.560000	-2501.550000	-3518.280000	8337.060000	-3531.645000	20.312153	22.608682	22.250506	20.984288	19.328817	23.574099	11.571346	12.067247	-2.243220	4.913720	0.228900	0.686461	0.702330	0.100281	-1.000000	-1.000000	-1.000000	-1.000000	-1.000000	-1.000000	-1.000000	75.586207	0.000000	-1.000000	-1.000000	1831415.000000	1770065159.634060
-2975.265000	-7930.035000	112.860000	13332.510000	-2510.595000	-3521.790000	8346.150000	-3529.305000	8.909655	9.088929	9.802846	11.000996	11.298359	14.103471	6.621834	7.975167	-2.243220	4.913720	0.228900	0.686461	0.702330	0.100281	-1.000000	-1.000000	-1.000000	-1.000000	-1.000000	-1.000000	-1.000000	75.586207	0.000000	-1.000000	-1.000000	1831416.000000	1770065159.634070
-2976.930000	-7933.545000	110.430000	13329.495000	-2514.915000	-3521.880000	8339.850000	-3531.105000	-1.452455	-2.365722	-0.403560	3.008426	5.252544	5.071773	3.183930	3.619876	-2.243220	4.913720	0.228900	0.686461	0.702330	0.100281	-1.000000	-1.000000	-1.000000	-1.000000	-1.000000	-1.000000	-1.000000	75.586207	0.000000	-1.000000	-1.000000	1831417.000000	1770065159.642696
-2950.605000	-7924.500000	119.835000	13342.050000	-2502.315000	-3514.815000	8326.395000	-3527.190000	-7.077116	-8.158014	-5.688237	-1.830904	1.459028	-0.772060	2.056627	-0.579859	-2.243220	4.913720	0.228900	0.686461	0.702330	0.100281	-1.000000	-1.000000	-1.000000	-1.000000	-1.000000	-1.000000	-1.000000	75.586207	0.000000	-1.000000	-1.000000	1831418.000000	1770065159.642709
-2917.935000	-7893.720000	148.230000	13362.210000	-2484.315000	-3490.740000	8307.990000	-3507.570000	-8.201292	-10.090754	-8.353798	-6.020144	-2.806554	-5.005713	-0.279270	-4.487944	-2.243220	4.913720	0.228900	0.686461	0.702330	0.100281	-1.000000	-1.000000	-1.000000	-1.000000	-1.000000	-1.000000	-1.000000	75.586207	0.000000	-1.000000	-1.000000	1831419.000000	1770065159.642723
-2902.770000	-7871.895000	161.190000	13361.850000	-2483.280000	-3454.965000	8270.415000	-3492.945000	-5.358290	-8.980115	-8.994187	-9.311025	-6.902609	-7.249704	-6.149066	-6.299585	-2.243220	4.913720	0.228900	0.686461	0.702330	0.100281	-1.000000	-1.000000	-1.000000	-1.000000	-1.000000	-1.000000	-1.000000	75.586207	0.000000	-1.000000	-1.000000	1831420.000000	1770065159.642728
-2914.920000	-7881.165000	155.880000	13351.455000	-2487.150000	-3443.220000	8250.480000	-3494.070000	-0.823340	-5.337428	-7.272350	-10.269937	-8.865822	-5.941748	-13.994347	-5.286827	-1.983800	5.112100	-0.350980	0.687987	0.702635	0.101257	-1.000000	-1.000000	-1.000000	-1.000000	-1.000000	-1.000000	-1.000000	75.586207	0.000000	-1.000000	-1.000000	1831421.000000	1770065159.647125
-2938.770000	-7908.705000	140.580000	13340.880000	-2497.140000	-3472.155000	8206.335000	-3514.455000	0.931610	-2.188594	-4.964758	-9.547566	-8.995049	-3.037647	-19.876791	-3.605628	-1.983800	5.112100	-0.350980	0.687987	0.702635	0.101257	-1.000000	-1.000000	-1.000000	-1.000000	-1.000000	-1.000000	-1.000000	75.586207	0.000000	-1.000000	-1.000000	1831422.000000	1770065159.647145
-2916.000000	-7906.680000	157.905000	13367.295000	-2454.210000	-3421.620000	8152.605000	-3522.870000	-2.007152	-2.376243	-4.022718	-8.186189	-8.185550	-2.352374	-20.886690	-3.451992	-1.983800	5.112100	-0.350980	0.687987	0.702635	0.101257	-1.000000	-1.000000	-1.000000	-1.000000	-1.000000	-1.000000	-1.000000	75.586207	0.000000	-1.000000	-1.000000	1831423.000000	1770065159.651661
-2914.470000	-7938.720000	103.725000	13327.155000	-2464.695000	-3486.555000	8282.385000	-3503.070000	-5.495806	-4.481642	-3.795426	-5.285098	-5.079255	-4.120382	-14.215116	-3.736734	-1.983800	5.112100	-0.350980	0.687987	0.702635	0.101257	-1.000000	-1.000000	-1.000000	-1.000000	-1.000000	-1.000000	-1.000000	75.586207	0.000000	-1.000000	-1.000000	1831424.000000	1770065159.651673
-2943.405000	-7964.640000	47.385000	13268.430000	-2496.780000	-3507.255000	8379.495000	-3499.155000	-4.837263	-5.317049	-3.751876	-1.135285	0.801498	-6.619037	4.709189	-1.689556	-1.983800	5.112100	-0.350980	0.687987	0.702635	0.101257	-1.000000	-1.000000	-1.000000	-1.000000	-1.000000	-1.000000	-1.000000	75.586207	0.000000	-1.000000	-1.000000	1831425.000000	1770065159.656698
-2937.780000	-7942.995000	82.395000	13288.770000	-2513.025000	-3470.940000	8292.735000	-3503.250000	-1.354756	-3.874532	-4.523728	1.329151	5.455533	-8.432408	31.830796	2.577038	-1.983800	5.112100	-0.350980	0.687987	0.702635	0.101257	-1.000000	-1.000000	-1.000000	-1.000000	-1.000000	-1.000000	-1.000000	75.586207	0.000000	-1.000000	-1.000000	1831426.000000	1770065159.656709
-2910.645000	-7893.495000	139.995000	13317.255000	-2491.335000	-3417.930000	8192.610000	-3491.055000	0.992520	0.097737	-3.618003	1.733286	4.991934	-6.462528	47.583791	5.937013	-1.983800	5.112100	-0.350980	0.687987	0.702635	0.101257	-1.000000	-1.000000	-1.000000	-1.000000	-1.000000	-1.000000	-1.000000	75.586207	0.000000	-1.000000	-1.000000	1831427.000000	1770065159.658004
-2916.495000	-7900.740000	80.910000	13250.745000	-2507.355000	-3497.355000	8173.080000	-3483.855000	0.993676	6.174385	1.543653	2.119152	0.688005	-0.109536	35.506725	6.083523	-1.983800	5.112100	-0.350980	0.687987	0.702635	0.101257	-1.000000	-1.000000	-1.000000	-1.000000	-1.000000	-1.000000	-1.000000	75.586207	0.000000	-1.000000	-1.000000	1831428.000000	1770065159.658011
-2868.615000	-7843.095000	50.310000	13219.290000	-2494.350000	-3469.770000	8174.070000	-3454.695000	0.257525	11.689060	6.899820	1.783947	-3.243846	4.927013	2.418960	3.481184	-1.983800	5.112100	-0.350980	0.687987	0.702635	0.101257	-1.000000	-1.000000	-1.000000	-1.000000	-1.000000	-1.000000	-1.000000	75.586207	0.000000	-1.000000	-1.000000	1831429.000000	1770065159.663804
-2799.045000	-7774.650000	42.030000	13181.310000	-2442.600000	-3367.755000	8037.720000	-3421.935000	2.437119	15.322056	7.042117	-0.710251	-2.941301	6.143200	-30.482409	0.954678	-1.983800	5.112100	-0.350980	0.687987	0.702635	0.101257	-1.000000	-1.000000	-1.000000	-1.000000	-1.000000	-1.000000	-1.000000	75.586207	0.000000	-1.000000	-1.000000	1831430.000000	1770065159.663815
-2788.965000	-7839.990000	-179.055000	13075.785000	-2446.740000	-3313.215000	8071.920000	-3413.520000	9.582034	16.883232	0.122382	-5.092084	2.610647	9.169008	-47.126471	1.327585	-1.953280	4.379620	0.030520	0.685484	0.706480	0.103576	-1.000000	-1.000000	-1.000000	-1.000000	-1.000000	-1.000000	-1.000000	75.586207	0.000000	-1.000000	-1.000000	1831431.000000	1770065159.667581
-2886.840000	-7993.125000	-259.020000	13043.295000	-2552.760000	-3383.775000	8192.745000	-3443.940000	15.633251	10.917918	-14.380296	-10.516779	7.659189	15.326482	-39.744558	3.583061	-1.953280	4.379620	0.030520	0.685484	0.706480	0.103576	-1.000000	-1.000000	-1.000000	-1.000000	-1.000000	-1.000000	-1.000000	75.586207	0.000000	-1.000000	-1.000000	1831432.000000	1770065159.667592
-2921.490000	-8004.555000	-178.515000	13030.920000	-2576.295000	-3370.995000	7884.270000	-3477.375000	10.462240	-7.313935	-27.768648	-12.536283	4.212695	17.246232	-15.341534	2.685499	-1.953280	4.379620	0.030520	0.685484	0.706480	0.103576	-1.000000	-1.000000	-1.000000	-1.000000	-1.000000	-1.000000	-1.000000	75.586207	0.000000	-1.000000	-1.000000	1831433.000000	1770065159.670180
-2855.565000	-7900.335000	20.295000	13144.995000	-2497.950000	-3382.695000	8165.610000	-3444.975000	-5.418107	-27.821216	-19.999576	-3.283490	-5.186632	10.274179	5.567569	-3.812998	-1.953280	4.379620	0.030520	0.685484	0.706480	0.103576	-1.000000	-1.000000	-1.000000	-1.000000	-1.000000	-1.000000	-1.000000	75.586207	0.000000	-1.000000	-1.000000	1831434.000000	1770065159.670190
-2889.495000	-7977.915000	-95.355000	12991.095000	-2518.515000	-3500.235000	8197.785000	-3474.810000	-19.678016	-33.894584	14.526497	16.219881	-9.220888	-5.068739	19.177050	-11.597044	-1.953280	4.379620	0.030520	0.685484	0.706480	0.103576	-1.000000	-1.000000	-1.000000	-1.000000	-1.000000	-1.000000	-1.000000	75.586207	0.000000	-1.000000	-1.000000	1831435.000000	1770065159.680475
-2898.855000	-7966.755000	-256.770000	12747.060000	-2492.100000	-3374.730000	8030.970000	-3500.055000	-23.697282	-23.100700	48.448541	27.178488	-3.480937	-24.079988	34.314152	-15.543672	-1.953280	4.379620	0.030520	0.685484	0.706480	0.103576	-1.000000	-1.000000	-1.000000	-1.000000	-1.000000	-1.000000	-1.000000	75.586207	0.000000	-1.000000	-1.000000	1831436.000000	1770065159.680494
-2899.080000	-7952.355000	-504.900000	12458.520000	-2540.340000	-3394.170000	8318.700000	-3424.320000	-18.458125	-5.453654	46.746847	9.355738	5.794308	-33.667281	46.045301	-13.696636	-1.953280	4.379620	0.030520	0.685484	0.706480	0.103576	-1.000000	-1.000000	-1.000000	-1.000000	-1.000000	-1.000000	-1.000000	75.586207	0.000000	-1.000000	-1.000000	1831437.000000	1770065159.680506
-2906.370000	-7958.340000	-476.415000	12589.920000	-2652.075000	-3527.820000	8128.980000	-3408.480000	-8.785130	9.808561	5.553194	-29.747878	8.550846	-26.685026	46.137277	-5.234264	-1.953280	4.379620	0.030520	0.685484	0.706480	0.103576	-1.000000	-1.000000	-1.000000	-1.000000	-1.000000	-1.000000	-1.000000	75.586207	0.000000	-1.000000	-1.000000	1831438.000000	1770065159.680511
-2832.525000	-7922.745000	-466.065000	12724.155000	-2603.205000	-3453.705000	8034.345000	-3465.540000	1.182936	17.911285	-41.283208	-51.482749	-0.654085	-13.462664	29.756428	6.422280	-1.953280	4.379620	0.030520	0.685484	0.706480	0.103576	-1.000000	-1.000000	-1.000000	-1.000000	-1.000000	-1.000000	-1.000000	75.586207	0.000000	-1.000000	-1.000000	1831439.000000	1770065159.682152
-2869.740000	-8041.185000	-956.340000	12113.505000	-2646.945000	-3512.880000	8359.515000	-3459.195000	10.470613	19.308324	-59.198817	-32.611295	-14.361735	-3.782986	-1.143949	13.528581	-1.953280	4.379620	0.030520	0.685484	0.706480	0.103576	-1.000000	-1.000000	-1.000000	-1.000000	-1.000000	-1.000000	-1.000000	75.586207	0.000000	-1.000000	-1.000000	1831440.000000	1770065159.682161
-2924.505000	-8046.225000	-529.470000	12349.080000	-2669.040000	-3577.140000	8475.705000	-3490.155000	18.544145	17.446401	-42.519867	3.989883	-18.512677	3.200874	-25.636815	12.756234	6.409200	-23.103640	19.914300	0.686339	0.700926	0.108825	-1.000000	-1.000000	-1.000000	-1.000000	-1.000000	-1.000000	-1.000000	75.586207	0.000000	-1.000000	-1.000000	1831441.000000	1770065159.686031
-3002.040000	-8010.180000	-26.055000	13214.295000	-2633.130000	-3646.845000	8463.735000	-3539.790000	20.789512	14.542739	6.891600	43.741135	-7.614491	9.026821	-25.037775	6.571791	6.409200	-23.103640	19.914300	0.686339	0.700926	0.108825	-1.000000	-1.000000	-1.000000	-1.000000	-1.000000	-1.000000	-1.000000	75.586207	0.000000	-1.000000	-1.000000	1831442.000000	1770065159.686041
-3014.730000	-8015.400000	-186.030000	13141.485000	-2649.150000	-3665.160000	8351.775000	-3504.690000	12.012793	10.030719	78.386662	100.526522	10.889936	12.770640	-12.626750	-1.422322	6.409200	-23.103640	19.914300	0.686339	0.700926	0.108825	-1.000000	-1.000000	-1.000000	-1.000000	-1.000000	-1.000000	-1.000000	75.586207	0.000000	-1.000000	-1.000000	1831443.000000	1770065159.690178
-2929.365000	-7896.825000	-53.865000	13032.360000	-2657.745000	-3622.815000	8126.460000	-3543.075000	-3.364628	4.483990	129.617174	151.984349	24.014760	15.749534	-17.380206	-6.683632	6.409200	-23.103640	19.914300	0.686339	0.700926	0.108825	-1.000000	-1.000000	-1.000000	-1.000000	-1.000000	-1.000000	-1.000000	75.586207	0.000000	-1.000000	-1.000000	1831444.000000	1770065159.690191
-2959.290000	-7877.880000	47.610000	13205.205000	-2593.350000	-3581.730000	8095.185000	-3579.210000	-12.310276	2.228827	125.754489	148.431169	24.957024	19.975371	-45.699553	-6.980688	6.409200	-23.103640	19.914300	0.686339	0.700926	0.108825	-1.000000	-1.000000	-1.000000	-1.000000	-1.000000	-1.000000	-1.000000	75.586207	0.000000	-1.000000	-1.000000	1831445.000000	1770065159.696467
-3034.800000	-8068.860000	-504.315000	12699.810000	-2609.055000	-3642.075000	8241.840000	-3570.750000	-10.036642	0.806229	66.951124	74.400467	17.988381	23.628736	-73.274810	-5.609259	6.409200	-23.103640	19.914300	0.686339	0.700926	0.108825	-1.000000	-1.000000	-1.000000	-1.000000	-1.000000	-1.000000	-1.000000	75.586207	0.000000	-1.000000	-1.000000	1831446.000000	1770065159.696479
-2996.640000	-8235.495000	-1078.830000	11947.950000	-2693.070000	-3586.140000	8350.425000	-3560.085000	-4.385866	-12.668091	-41.532388	-62.484549	9.073296	23.095575	-64.691299	-4.881802	6.409200	-23.103640	19.914300	0.686339	0.700926	0.108825	-1.000000	-1.000000	-1.000000	-1.000000	-1.000000	-1.000000	-1.000000	75.586207	0.000000	-1.000000	-1.000000	1831447.000000	1770065159.698283
-3049.650000	-8312.265000	-1112.895000	11969.055000	-2727.270000	-3505.995000	8291.520000	-3551.580000	-2.489614	-40.945041	-173.609570	-228.461081	-2.744587	17.582354	-8.996929	-1.676081	6.409200	-23.103640	19.914300	0.686339	0.700926	0.108825	-1.000000	-1.000000	-1.000000	-1.000000	-1.000000	-1.000000	-1.000000	75.586207	0.000000	-1.000000	-1.000000	1831448.000000	1770065159.698293
-2999.790000	-8213.085000	-1436.355000	12325.635000	-2665.440000	-3386.925000	8228.520000	-3452.760000	-2.729312	-61.206915	-256.547365	-323.723800	-16.281709	11.764437	55.335505	7.662418	6.409200	-23.103640	19.914300	0.686339	0.700926	0.108825	-1.000000	-1.000000	-1.000000	-1.000000	-1.000000	-1.000000	-1.000000	75.586207	0.000000	-1.000000	-1.000000	1831449.000000	1770065159.708931
-2967.345000	-8059.005000	-1211.355000	12377.520000	-2641.815000	-3540.240000	8475.570000	-3406.590000	2.590539	-44.298803	-235.182508	-260.156838	-21.824281	9.379386	81.501984	22.663117	6.409200	-23.103640	19.914300	0.686339	0.700926	0.108825	-1.000000	-1.000000	-1.000000	-1.000000	-1.000000	-1.000000	-1.000000	75.586207	0.000000	-1.000000	-1.000000	1831450.000000	1770065159.708943
-2967.930000	-7949.790000	-16.515000	12983.895000	-2654.145000	-3743.595000	8420.895000	-3486.420000	16.398594	11.688840	-108.233951	-70.161542	-14.771046	1.398028	67.009254	35.102177	54.981780	-28.124180	25.591020	0.705626	0.694090	0.123596	-1.000000	-1.000000	-1.000000	-1.000000	-1.000000	-1.000000	-1.000000	75.586207	0.000000	-1.000000	-1.000000	1831451.000000	1770065159.708956
-2986.020000	-7896.240000	314.010000	13169.070000	-2551.590000	-3683.745000	8341.515000	-3598.605000	28.838770	75.305618	102.144537	143.800763	-1.291530	-22.137540	36.348640	30.063549	54.981780	-28.124180	25.591020	0.705626	0.694090	0.123596	-1.000000	-1.000000	-1.000000	-1.000000	-1.000000	-1.000000	-1.000000	75.586207	0.000000	-1.000000	-1.000000	1831452.000000	1770065159.708961
-2987.865000	-7881.660000	380.385000	13134.330000	-2538.720000	-3636.945000	8271.945000	-3599.280000	26.098104	106.085487	320.504801	294.718374	11.554238	-50.195207	8.085383	2.057710	54.981780	-28.124180	25.591020	0.705626	0.694090	0.123596	-1.000000	-1.000000	-1.000000	-1.000000	-1.000000	-1.000000	-1.000000	75.586207	0.000000	-1.000000	-1.000000	1831453.000000	1770065159.710277
-3008.925000	-7924.230000	96.120000	12970.935000	-2538.630000	-3626.280000	8289.360000	-3576.195000	6.345306	84.016799	417.697664	323.067880	17.858519	-60.177941	-11.618428	-33.087302	54.981780	-28.124180	25.591020	0.705626	0.694090	0.123596	-1.000000	-1.000000	-1.000000	-1.000000	-1.000000	-1.000000	-1.000000	75.586207	0.000000	-1.000000	-1.000000	1831454.000000	1770065159.710287
-3003.795000	-8004.555000	-264.870000	12844.755000	-2591.055000	-3682.800000	8343.270000	-3534.255000	-17.924715	23.334596	319.819808	222.788046	13.347919	-42.392339	-25.556102	-51.840827	54.981780	-28.124180	25.591020	0.705626	0.694090	0.123596	-1.000000	-1.000000	-1.000000	-1.000000	-1.000000	-1.000000	-1.000000	75.586207	0.000000	-1.000000	-1.000000	1831455.000000	1770065159.718611
-2956.860000	-7951.050000	-421.020000	13017.825000	-2593.080000	-3666.015000	8365.455000	-3579.570000	-32.127637	-39.464740	76.003356	60.755311	0.729903	-8.146495	-33.802200	-43.858611	54.981780	-28.124180	25.591020	0.705626	0.694090	0.123596	-1.000000	-1.000000	-1.000000	-1.000000	-1.000000	-1.000000	-1.000000	75.586207	0.000000	-1.000000	-1.000000	1831456.000000	1770065159.718621
-2964.555000	-7978.590000	-389.205000	12861.720000	-2547.315000	-3638.340000	8364.420000	-3546.765000	-29.660646	-72.615228	-183.525567	-79.618094	-11.451185	21.735362	-32.141702	-17.556118	54.981780	-28.124180	25.591020	0.705626	0.694090	0.123596	-1.000000	-1.000000	-1.000000	-1.000000	-1.000000	-1.000000	-1.000000	75.586207	0.000000	-1.000000	-1.000000	1831457.000000	1770065159.718632
-2969.370000	-8042.940000	-556.065000	12485.430000	-2595.240000	-3631.950000	8283.510000	-3495.105000	-14.486960	-71.287364	-337.860070	-171.239348	-16.901866	35.370748	-23.359408	10.371617	54.981780	-28.124180	25.591020	0.705626	0.694090	0.123596	-1.000000	-1.000000	-1.000000	-1.000000	-1.000000	-1.000000	-1.000000	75.586207	0.000000	-1.000000	-1.000000	1831458.000000	1770065159.718637
-2965.095000	-8077.410000	-662.355000	12411.090000	-2604.600000	-3609.540000	8246.160000	-3539.745000	2.538714	-55.362585	-355.853745	-235.790734	-16.954645	37.495694	-17.939735	27.745365	54.981780	-28.124180	25.591020	0.705626	0.694090	0.123596	-1.000000	-1.000000	-1.000000	-1.000000	-1.000000	-1.000000	-1.000000	75.586207	0.000000	-1.000000	-1.000000	1831459.000000	1770065159.723268
-2911.815000	-8008.020000	-614.745000	12807.135000	-2619.945000	-3600.045000	8253.270000	-3518.280000	13.379596	-41.920644	-292.029567	-272.441814	-15.719450	39.264609	-18.341034	31.781505	54.981780	-28.124180	25.591020	0.705626	0.694090	0.123596	-1.000000	-1.000000	-1.000000	-1.000000	-1.000000	-1.000000	-1.000000	75.586207	0.000000	-1.000000	-1.000000	1831460.000000	1770065159.723278
-2887.065000	-7933.545000	-215.280000	12946.905000	-2587.365000	-3622.770000	8233.920000	-3487.455000	17.297090	-28.117373	-192.920992	-234.683806	-14.008007	39.626167	-11.076767	28.037902	41.018880	-63.313740	39.248720	0.684385	0.751951	0.122924	-1.000000	-1.000000	-1.000000	-1.000000	-1.000000	-1.000000	-1.000000	75.586207	0.000000	-1.000000	-1.000000	1831461.000000	1770065159.729728
-2918.880000	-7925.220000	-51.705000	12807.045000	-2570.580000	-3683.025000	8280.405000	-3506.130000	15.708563	-4.316989	-51.110042	-97.251050	-9.666311	25.078828	13.950673	22.129706	41.018880	-63.313740	39.248720	0.684385	0.751951	0.122924	-1.000000	-1.000000	-1.000000	-1.000000	-1.000000	-1.000000	-1.000000	75.586207	0.000000	-1.000000	-1.000000	1831462.000000	1770065159.729736
-2897.820000	-7880.535000	-269.415000	12827.160000	-2529.630000	-3652.200000	8356.230000	-3510.405000	9.381879	29.735197	133.311247	92.799175	0.411877	-7.288480	45.992115	12.149651	41.018880	-63.313740	39.248720	0.684385	0.751951	0.122924	-1.000000	-1.000000	-1.000000	-1.000000	-1.000000	-1.000000	-1.000000	75.586207	0.000000	-1.000000	-1.000000	1831463.000000	1770065159.729993
-2962.890000	-7937.685000	83.700000	13140.495000	-2530.305000	-3668.490000	8291.430000	-3555.000000	-0.594952	63.072133	308.599945	256.268971	16.717131	-40.203739	62.811963	-5.042056	41.018880	-63.313740	39.248720	0.684385	0.751951	0.122924	-1.000000	-1.000000	-1.000000	-1.000000	-1.000000	-1.000000	-1.000000	75.586207	0.000000	-1.000000	-1.000000	1831464.000000	1770065159.729999
-2939.085000	-7892.820000	298.575000	13266.585000	-2553.255000	-3638.565000	8085.105000	-3527.280000	-12.610378	78.679329	406.899788	334.328405	32.187875	-54.854454	47.188685	-24.408487	41.018880	-63.313740	39.248720	0.684385	0.751951	0.122924	-1.000000	-1.000000	-1.000000	-1.000000	-1.000000	-1.000000	-1.000000	75.586207	0.000000	-1.000000	-1.000000	1831465.000000	1770065159.734074
-2849.760000	-7796.880000	292.005000	13123.170000	-2480.625000	-3569.265000	8062.605000	-3477.960000	-20.513634	67.425662	383.280602	299.912080	36.144831	-45.948125	0.109528	-35.354489	41.018880	-63.313740	39.248720	0.684385	0.751951	0.122924	-1.000000	-1.000000	-1.000000	-1.000000	-1.000000	-1.000000	-1.000000	75.586207	0.000000	-1.000000	-1.000000	1831466.000000	1770065159.734082
-2891.070000	-7872.840000	80.280000	13128.840000	-2533.590000	-3632.760000	8269.200000	-3546.945000	-16.518572	35.453529	228.613333	164.315572	25.383021	-19.808258	-49.507575	-32.461626	41.018880	-63.313740	39.248720	0.684385	0.751951	0.122924	-1.000000	-1.000000	-1.000000	-1.000000	-1.000000	-1.000000	-1.000000	75.586207	0.000000	-1.000000	-1.000000	1831467.000000	1770065159.738020
-2912.940000	-7890.210000	20.160000	13479.255000	-2569.365000	-3644.865000	8270.910000	-3541.320000	-3.534737	-6.665099	-19.715349	-19.043014	4.720368	10.067374	-63.307138	-19.186571	41.018880	-63.313740	39.248720	0.684385	0.751951	0.122924	-1.000000	-1.000000	-1.000000	-1.000000	-1.000000	-1.000000	-1.000000	75.586207	0.000000	-1.000000	-1.000000	1831468.000000	1770065159.738029
-2885.940000	-7846.740000	317.655000	13439.520000	-2542.185000	-3660.255000	8254.395000	-3478.005000	6.971493	-48.334443	-272.479812	-180.073970	-18.245575	29.378845	-31.922999	-0.894706	41.018880	-63.313740	39.248720	0.684385	0.751951	0.122924	-1.000000	-1.000000	-1.000000	-1.000000	-1.000000	-1.000000	-1.000000	75.586207	0.000000	-1.000000	-1.000000	1831469.000000	1770065159.743292
-2892.105000	-7839.990000	228.960000	13175.010000	-2518.020000	-3639.600000	8253.945000	-3508.290000	8.976158	-75.410049	-422.626044	-270.604221	-34.147893	31.702260	18.278270	17.726317	41.018880	-63.313740	39.248720	0.684385	0.751951	0.122924	-1.000000	-1.000000	-1.000000	-1.000000	-1.000000	-1.000000	-1.000000	75.586207	0.000000	-1.000000	-1.000000	1831470.000000	1770065159.743298
-2947.365000	-7912.395000	15.795000	12859.200000	-2551.365000	-3642.660000	8394.840000	-3589.200000	4.793954	-76.902600	-412.358793	-277.413232	-36.418706	21.407229	53.595483	28.306407	-28.231000	-33.388880	15.092140	0.711668	0.789915	0.102234	-1.000000	-1.000000	-1.000000	-1.000000	-1.000000	-1.000000	-1.000000	75.586207	0.000000	-1.000000	-1.000000	1831471.000000	1770065159.753560
-2964.825000	-7971.120000	-161.280000	12934.260000	-2590.740000	-3636.000000	8372.205000	-3565.440000	-1.351161	-53.800412	-261.847244	-210.497446	-26.607667	7.656441	56.913294	23.774207	-28.231000	-33.388880	15.092140	0.711668	0.789915	0.102234	-1.000000	-1.000000	-1.000000	-1.000000	-1.000000	-1.000000	-1.000000	75.586207	0.000000	-1.000000	-1.000000	1831472.000000	1770065159.753570
-2946.960000	-7974.585000	-418.590000	13055.985000	-2580.840000	-3651.525000	8350.650000	-3469.815000	-5.405884	-17.013628	-52.106064	-94.001230	-10.972978	-3.597164	32.046129	10.018217	-28.231000	-33.388880	15.092140	0.711668	0.789915	0.102234	-1.000000	-1.000000	-1.000000	-1.000000	-1.000000	-1.000000	-1.000000	75.586207	0.000000	-1.000000	-1.000000	1831473.000000	1770065159.753701
-2941.380000	-7945.065000	-12.600000	13181.310000	-2612.160000	-3697.335000	8313.255000	-3545.145000	-4.364727	19.791008	124.848056	38.956523	4.702136	-12.236745	-3.026547	-0.818954	-28.231000	-33.388880	15.092140	0.711668	0.789915	0.102234	-1.000000	-1.000000	-1.000000	-1.000000	-1.000000	-1.000000	-1.000000	75.586207	0.000000	-1.000000	-1.000000	1831474.000000	1770065159.753707
-2942.370000	-7918.740000	87.345000	13360.680000	-2567.205000	-3668.580000	8332.785000	-3595.770000	0.181003	45.279356	229.784241	157.214175	15.939735	-19.394169	-30.676700	-7.375384	-28.231000	-33.388880	15.092140	0.711668	0.789915	0.102234	-1.000000	-1.000000	-1.000000	-1.000000	-1.000000	-1.000000	-1.000000	75.586207	0.000000	-1.000000	-1.000000	1831475.000000	1770065159.755675
-2926.035000	-7918.830000	-54.000000	13164.705000	-2552.220000	-3624.570000	8344.755000	-3534.345000	4.921267	54.747729	266.580103	226.930812	22.222156	-19.974166	-45.540414	-12.699555	-28.231000	-33.388880	15.092140	0.711668	0.789915	0.102234	-1.000000	-1.000000	-1.000000	-1.000000	-1.000000	-1.000000	-1.000000	75.586207	0.000000	-1.000000	-1.000000	1831476.000000	1770065159.755686
-2896.200000	-7925.760000	-273.330000	12692.655000	-2605.815000	-3622.455000	8322.075000	-3479.490000	9.292378	49.022882	229.558825	201.749752	24.992978	-7.748972	-48.649236	-12.033876	-28.231000	-33.388880	15.092140	0.711668	0.789915	0.102234	-1.000000	-1.000000	-1.000000	-1.000000	-1.000000	-1.000000	-1.000000	75.586207	0.000000	-1.000000	-1.000000	1831477.000000	1770065159.758041
-2950.740000	-7983.045000	-321.570000	12850.560000	-2608.560000	-3623.670000	8216.280000	-3523.680000	11.671844	29.239699	113.603925	73.610406	21.133821	12.043770	-39.991722	-3.048472	-28.231000	-33.388880	15.092140	0.711668	0.789915	0.102234	-1.000000	-1.000000	-1.000000	-1.000000	-1.000000	-1.000000	-1.000000	75.586207	0.000000	-1.000000	-1.000000	1831478.000000	1770065159.758050
-2899.215000	-7910.415000	-3.600000	13100.130000	-2544.795000	-3592.980000	8252.865000	-3542.760000	9.269862	0.986043	-34.906571	-70.745731	9.046626	26.232030	-23.143625	6.920164	-28.231000	-33.388880	15.092140	0.711668	0.789915	0.102234	-1.000000	-1.000000	-1.000000	-1.000000	-1.000000	-1.000000	-1.000000	75.586207	0.000000	-1.000000	-1.000000	1831479.000000	1770065159.768793
-2893.455000	-7888.230000	38.745000	13000.275000	-2528.280000	-3625.335000	8343.360000	-3541.995000	4.641701	-20.104908	-124.741568	-121.043433	-3.472194	26.453898	-4.314359	11.183336	-28.231000	-33.388880	15.092140	0.711668	0.789915	0.102234	-1.000000	-1.000000	-1.000000	-1.000000	-1.000000	-1.000000	-1.000000	75.586207	0.000000	-1.000000	-1.000000	1831480.000000	1770065159.768804
-2949.030000	-7952.715000	-99.450000	12992.760000	-2584.395000	-3660.435000	8309.205000	-3527.730000	1.645704	-21.741309	-106.722362	-64.471252	-8.440711	12.632095	14.249158	8.959901	-12.040140	59.773420	-31.328780	0.749449	0.674254	0.061218	-1.000000	-1.000000	-1.000000	-1.000000	-1.000000	-1.000000	-1.000000	75.586207	0.000000	-1.000000	-1.000000	1831481.000000	1770065159.768815
-2976.750000	-7924.500000	-48.150000	13183.110000	-2636.280000	-3699.090000	8213.535000	-3492.720000	-2.241854	-9.719267	-24.174875	22.507766	-8.248912	-8.896977	30.607315	2.142469	-12.040140	59.773420	-31.328780	0.749449	0.674254	0.061218	-1.000000	-1.000000	-1.000000	-1.000000	-1.000000	-1.000000	-1.000000	75.586207	0.000000	-1.000000	-1.000000	1831482.000000	1770065159.768820
-2987.730000	-7970.265000	8.190000	13107.510000	-2657.205000	-3696.165000	8204.580000	-3474.765000	-10.429268	0.229179	40.695538	69.393027	-10.054476	-27.552895	38.478531	-4.422265	-12.040140	59.773420	-31.328780	0.749449	0.674254	0.061218	-1.000000	-1.000000	-1.000000	-1.000000	-1.000000	-1.000000	-1.000000	75.586207	0.000000	-1.000000	-1.000000	1831483.000000	1770065159.771457
-2947.095000	-7999.605000	-172.845000	13012.515000	-2656.620000	-3622.770000	8319.510000	-3534.570000	-18.878182	-1.622177	40.759450	53.724900	-15.283715	-32.824096	34.071642	-5.868807	-12.040140	59.773420	-31.328780	0.749449	0.674254	0.061218	-1.000000	-1.000000	-1.000000	-1.000000	-1.000000	-1.000000	-1.000000	75.586207	0.000000	-1.000000	-1.000000	1831484.000000	1770065159.771463
-2900.295000	-7943.715000	-197.595000	13060.080000	-2593.935000	-3567.510000	8320.140000	-3564.270000	-18.894203	-11.742359	-11.652683	-3.670761	-17.410624	-19.877238	22.131624	-5.012560	-12.040140	59.773420	-31.328780	0.749449	0.674254	0.061218	-1.000000	-1.000000	-1.000000	-1.000000	-1.000000	-1.000000	-1.000000	75.586207	0.000000	-1.000000	-1.000000	1831485.000000	1770065159.775695
-2848.545000	-7868.430000	-81.945000	12780.090000	-2635.605000	-3603.915000	8235.270000	-3493.350000	-6.639749	-16.919743	-66.331478	-57.497577	-9.447970	4.934186	9.628698	-7.289805	-12.040140	59.773420	-31.328780	0.749449	0.674254	0.061218	-1.000000	-1.000000	-1.000000	-1.000000	-1.000000	-1.000000	-1.000000	75.586207	0.000000	-1.000000	-1.000000	1831486.000000	1770065159.775706
-2823.660000	-7826.940000	-47.475000	12768.210000	-2594.880000	-3599.595000	8131.185000	-3465.495000	12.808973	-7.536839	-80.344985	-79.570333	5.926318	25.838799	-2.509591	-8.881359	-12.040140	59.773420	-31.328780	0.749449	0.674254	0.061218	-1.000000	-1.000000	-1.000000	-1.000000	-1.000000	-1.000000	-1.000000	75.586207	0.000000	-1.000000	-1.000000	1831487.000000	1770065159.778291
-2860.245000	-7850.115000	-78.930000	13139.505000	-2548.935000	-3602.700000	8132.130000	-3505.365000	27.985968	11.206347	-50.851642	-66.203846	18.942182	30.196232	-17.754468	-2.833202	-12.040140	59.773420	-31.328780	0.749449	0.674254	0.061218	-1.000000	-1.000000	-1.000000	-1.000000	-1.000000	-1.000000	-1.000000	75.586207	0.000000	-1.000000	-1.000000	1831488.000000	1770065159.778301
-2916.090000	-7897.230000	-17.505000	13225.050000	-2571.705000	-3645.630000	8300.520000	-3563.370000	27.497788	23.957258	-2.217659	-15.262189	23.326493	17.822491	-32.318513	6.882583	-12.040140	59.773420	-31.328780	0.749449	0.674254	0.061218	-1.000000	-1.000000	-1.000000	-1.000000	-1.000000	-1.000000	-1.000000	75.586207	0.000000	-1.000000	-1.000000	1831489.000000	1770065159.790755
-3011.445000	-8066.205000	-382.230000	12809.385000	-2603.520000	-3676.545000	8433.990000	-3559.095000	9.039289	18.913135	39.565776	49.809439	18.739473	-2.043350	-29.388557	9.357019	-12.040140	59.773420	-31.328780	0.749449	0.674254	0.061218	-1.000000	-1.000000	-1.000000	-1.000000	-1.000000	-1.000000	-1.000000	75.586207	0.000000	-1.000000	-1.000000	1831490.000000	1770065159.790766
-2934.405000	-8051.580000	-688.500000	12361.995000	-2649.915000	-3631.545000	8388.855000	-3564.180000	-16.767123	-4.028622	45.725812	67.230472	7.758475	-17.505485	0.682259	1.354967	54.050920	26.033560	8.942360	0.691038	0.611388	0.062622	-1.000000	-1.000000	-1.000000	-1.000000	-1.000000	-1.000000	-1.000000	75.586207	0.000000	-1.000000	-1.000000	1831491.000000	1770065159.790778
-2920.140000	-8040.690000	-582.615000	12611.295000	-2641.950000	-3641.355000	8345.430000	-3495.780000	-32.522064	-29.971479	5.201294	10.300458	-5.715167	-20.663938	37.708421	-8.199842	54.050920	26.033560	8.942360	0.691038	0.611388	0.062622	-1.000000	-1.000000	-1.000000	-1.000000	-1.000000	-1.000000	-1.000000	75.586207	0.000000	-1.000000	-1.000000	1831492.000000	1770065159.790783
-2953.755000	-8062.425000	-359.325000	12815.685000	-2564.595000	-3601.620000	8293.860000	-3498.840000	-29.218970	-38.840392	-39.756162	-60.851031	-15.915431	-13.377765	47.238779	-7.492711	54.050920	26.033560	8.942360	0.691038	0.611388	0.062622	-1.000000	-1.000000	-1.000000	-1.000000	-1.000000	-1.000000	-1.000000	75.586207	0.000000	-1.000000	-1.000000	1831493.000000	1770065159.808527
-2961.900000	-7964.505000	97.380000	13130.370000	-2570.265000	-3630.510000	8250.120000	-3624.255000	-14.270065	-24.222707	-27.299011	-62.980151	-17.163579	-3.698257	17.916364	2.609328	54.050920	26.033560	8.942360	0.691038	0.611388	0.062622	-1.000000	-1.000000	-1.000000	-1.000000	-1.000000	-1.000000	-1.000000	75.586207	0.000000	-1.000000	-1.000000	1831494.000000	1770065159.808540
-2965.590000	-7949.790000	64.395000	13263.030000	-2599.020000	-3665.835000	8246.835000	-3557.835000	-0.255324	4.183322	49.553986	23.541174	-10.060928	2.386956	-26.616435	8.587981	54.050920	26.033560	8.942360	0.691038	0.611388	0.062622	-1.000000	-1.000000	-1.000000	-1.000000	-1.000000	-1.000000	-1.000000	75.586207	0.000000	-1.000000	-1.000000	1831495.000000	1770065159.808553
-2951.505000	-7977.420000	1.980000	13215.825000	-2595.060000	-3682.170000	8208.990000	-3427.290000	7.750628	29.902510	127.149406	135.122683	-2.350505	3.228503	-52.806843	6.429740	54.050920	26.033560	8.942360	0.691038	0.611388	0.062622	-1.000000	-1.000000	-1.000000	-1.000000	-1.000000	-1.000000	-1.000000	75.586207	0.000000	-1.000000	-1.000000	1831496.000000	1770065159.808558
-2911.680000	-7945.695000	128.520000	13252.275000	-2548.800000	-3626.910000	8262.585000	-3486.555000	12.882234	40.038396	136.882958	176.045924	0.050431	1.756024	-47.891190	6.237776	54.050920	26.033560	8.942360	0.691038	0.611388	0.062622	-1.000000	-1.000000	-1.000000	-1.000000	-1.000000	-1.000000	-1.000000	75.586207	0.000000	-1.000000	-1.000000	1831497.000000	1770065159.808564
-2921.310000	-7958.790000	90.585000	13227.795000	-2546.640000	-3631.815000	8339.805000	-3548.070000	20.198158	34.808993	71.990329	106.073259	-0.017361	4.104723	-22.914116	10.477399	54.050920	26.033560	8.942360	0.691038	0.611388	0.062622	-1.000000	-1.000000	-1.000000	-1.000000	-1.000000	-1.000000	-1.000000	75.586207	0.000000	-1.000000	-1.000000	1831498.000000	1770065159.808569
-2908.215000	-7935.705000	71.370000	13214.430000	-2550.420000	-3611.700000	8268.345000	-3665.520000	28.924086	23.800574	-19.335861	-23.123597	3.339389	12.072488	4.289191	8.178077	54.050920	26.033560	8.942360	0.691038	0.611388	0.062622	-1.000000	-1.000000	-1.000000	-1.000000	-1.000000	-1.000000	-1.000000	75.586207	0.000000	-1.000000	-1.000000	1831499.000000	1770065159.808575
-2842.515000	-7866.495000	92.295000	13198.005000	-2577.870000	-3621.555000	8252.505000	-3481.560000	31.506320	13.744433	-85.087019	-124.102165	9.939724	19.085091	21.490539	-5.342583	54.050920	26.033560	8.942360	0.691038	0.611388	0.062622	-1.000000	-1.000000	-1.000000	-1.000000	-1.000000	-1.000000	-1.000000	75.586207	0.000000	-1.000000	-1.000000	1831500.000000	1770065159.808579
-2842.065000	-7897.095000	31.230000	13156.650000	-2601.270000	-3663.900000	8294.490000	-3483.945000	22.195463	4.476326	-106.959109	-153.903114	12.829163	16.185396	26.455793	-17.689462	33.312580	12.482680	18.983440	0.653685	0.698607	0.054687	-1.000000	-1.000000	-1.000000	-1.000000	-1.000000	-1.000000	-1.000000	75.586207	0.000000	-1.000000	-1.000000	1831501.000000	1770065159.808585
-2842.650000	-7927.065000	2.835000	13171.185000	-2548.080000	-3615.840000	8362.620000	-3535.065000	3.084342	-8.221019	-102.493559	-130.644626	6.297722	1.407575	25.696380	-16.554509	33.312580	12.482680	18.983440	0.653685	0.698607	0.054687	-1.000000	-1.000000	-1.000000	-1.000000	-1.000000	-1.000000	-1.000000	75.586207	0.000000	-1.000000	-1.000000	1831502.000000	1770065159.808590
-2836.935000	-7937.460000	-23.535000	13132.935000	-2582.865000	-3610.215000	8351.010000	-3539.295000	-18.269975	-27.221247	-96.697419	-89.005930	-5.988213	-15.587614	26.224153	-4.707402	33.312580	12.482680	18.983440	0.653685	0.698607	0.054687	-1.000000	-1.000000	-1.000000	-1.000000	-1.000000	-1.000000	-1.000000	75.586207	0.000000	-1.000000	-1.000000	1831503.000000	1770065159.815322
-2844.000000	-7934.940000	-25.290000	13135.860000	-2572.740000	-3640.455000	8338.365000	-3532.455000	-33.592136	-46.718868	-90.402244	-46.587412	-14.879473	-22.350863	26.999464	6.309375	33.312580	12.482680	18.983440	0.653685	0.698607	0.054687	-1.000000	-1.000000	-1.000000	-1.000000	-1.000000	-1.000000	-1.000000	75.586207	0.000000	-1.000000	-1.000000	1831504.000000	1770065159.815334
-2862.180000	-7936.830000	-16.020000	13157.955000	-2535.480000	-3641.175000	8331.255000	-3560.670000	-38.118544	-53.488547	-62.881053	-5.579574	-15.192661	-16.783285	20.635072	7.068263	33.312580	12.482680	18.983440	0.653685	0.698607	0.054687	-1.000000	-1.000000	-1.000000	-1.000000	-1.000000	-1.000000	-1.000000	75.586207	0.000000	-1.000000	-1.000000	1831505.000000	1770065159.815345
-2838.690000	-7931.835000	-14.085000	13153.815000	-2542.320000	-3620.520000	8314.515000	-3538.845000	-31.530376	-39.112810	-5.681310	33.903575	-7.975112	-5.761023	1.570152	-0.840175	33.312580	12.482680	18.983440	0.653685	0.698607	0.054687	-1.000000	-1.000000	-1.000000	-1.000000	-1.000000	-1.000000	-1.000000	75.586207	0.000000	-1.000000	-1.000000	1831506.000000	1770065159.815351
-2817.450000	-7929.270000	-22.005000	13140.585000	-2556.990000	-3630.915000	8310.600000	-3511.305000	-15.384775	-7.617956	64.297805	68.117684	1.922141	4.131123	-27.039682	-5.036882	33.312580	12.482680	18.983440	0.653685	0.698607	0.054687	-1.000000	-1.000000	-1.000000	-1.000000	-1.000000	-1.000000	-1.000000	75.586207	0.000000	-1.000000	-1.000000	1831507.000000	1770065159.818171
-2820.510000	-7922.340000	-16.335000	13144.725000	-2544.705000	-3583.395000	8218.845000	-3534.390000	5.211500	26.658622	120.646805	92.188553	9.790572	9.951264	-51.383604	1.993395	33.312580	12.482680	18.983440	0.653685	0.698607	0.054687	-1.000000	-1.000000	-1.000000	-1.000000	-1.000000	-1.000000	-1.000000	75.586207	0.000000	-1.000000	-1.000000	1831508.000000	1770065159.818181
-2751.840000	-7850.790000	40.185000	13190.445000	-2496.015000	-3478.365000	8098.515000	-3496.590000	20.955513	47.845601	141.322225	99.568919	14.515079	13.228836	-58.530598	11.712288	33.312580	12.482680	18.983440	0.653685	0.698607	0.054687	-1.000000	-1.000000	-1.000000	-1.000000	-1.000000	-1.000000	-1.000000	75.586207	0.000000	-1.000000	-1.000000	1831509.000000	1770065159.823985
-2693.430000	-7793.055000	66.555000	13199.130000	-2503.440000	-3488.265000	8115.300000	-3441.645000	27.038718	50.517682	117.926172	82.683812	16.176457	16.914942	-47.612918	13.100694	33.312580	12.482680	18.983440	0.653685	0.698607	0.054687	-1.000000	-1.000000	-1.000000	-1.000000	-1.000000	-1.000000	-1.000000	75.586207	0.000000	-1.000000	-1.000000	1831510.000000	1770065159.823997
-2832.840000	-7915.680000	-10.170000	13129.740000	-2561.265000	-3637.530000	8311.095000	-3495.645000	23.905823	37.903987	57.783598	40.143047	11.650922	15.808456	-21.076152	7.749397	-38.897740	4.013380	-13.077820	0.681822	0.752134	0.045410	-1.000000	-1.000000	-1.000000	-1.000000	-1.000000	-1.000000	-1.000000	75.586207	0.000000	-1.000000	-1.000000	1831511.000000	1770065159.837596
-2902.680000	-8006.805000	-87.570000	13053.915000	-2595.555000	-3639.150000	8303.535000	-3670.920000	9.586099	11.327164	-20.557056	-17.912077	-1.278148	1.087631	20.127767	-1.298753	-38.897740	4.013380	-13.077820	0.681822	0.752134	0.045410	-1.000000	-1.000000	-1.000000	-1.000000	-1.000000	-1.000000	-1.000000	75.586207	0.000000	-1.000000	-1.000000	1831512.000000	1770065159.837607
-2880.495000	-7992.405000	-149.265000	13041.945000	-2610.855000	-3689.145000	8309.610000	-3548.115000	-13.265053	-23.686478	-89.456339	-71.071592	-17.856060	-22.490277	63.144910	-15.515753	-38.897740	4.013380	-13.077820	0.681822	0.752134	0.045410	-1.000000	-1.000000	-1.000000	-1.000000	-1.000000	-1.000000	-1.000000	75.586207	0.000000	-1.000000	-1.000000	1831513.000000	1770065159.837618
-2877.480000	-7980.705000	-123.975000	13086.495000	-2602.395000	-3702.465000	8330.445000	-3453.345000	-30.505380	-49.756422	-121.682024	-96.811648	-29.213208	-39.195711	84.338979	-25.345998	-38.897740	4.013380	-13.077820	0.681822	0.752134	0.045410	-1.000000	-1.000000	-1.000000	-1.000000	-1.000000	-1.000000	-1.000000	75.586207	0.000000	-1.000000	-1.000000	1831514.000000	1770065159.837623
-2895.075000	-7992.315000	-95.850000	13078.620000	-2585.520000	-3662.280000	8334.090000	-3514.635000	-29.828813	-50.737995	-104.412630	-82.732304	-27.880132	-37.791174	69.989677	-17.200199	-38.897740	4.013380	-13.077820	0.681822	0.752134	0.045410	-1.000000	-1.000000	-1.000000	-1.000000	-1.000000	-1.000000	-1.000000	75.586207	0.000000	-1.000000	-1.000000	1831515.000000	1770065159.837629
-2901.330000	-8004.960000	-145.755000	13058.280000	-2574.180000	-3632.355000	8318.160000	-3511.530000	-13.037696	-27.064169	-46.533902	-35.368071	-11.973813	-17.170109	27.693976	4.034879	-38.897740	4.013380	-13.077820	0.681822	0.752134	0.045410	-1.000000	-1.000000	-1.000000	-1.000000	-1.000000	-1.000000	-1.000000	75.586207	0.000000	-1.000000	-1.000000	1831516.000000	1770065159.837634
-2874.510000	-7967.700000	-103.455000	13077.225000	-2593.620000	-3642.840000	8304.570000	-3501.945000	8.319240	5.893708	22.966589	21.679878	11.129671	12.304206	-19.260315	21.077830	-38.897740	4.013380	-13.077820	0.681822	0.752134	0.045410	-1.000000	-1.000000	-1.000000	-1.000000	-1.000000	-1.000000	-1.000000	75.586207	0.000000	-1.000000	-1.000000	1831517.000000	1770065159.839598
-2809.440000	-7892.505000	-14.220000	13077.990000	-2579.625000	-3605.940000	8227.755000	-3495.060000	23.415671	31.269105	72.308475	60.901343	28.098310	33.671285	-48.947101	22.713393	-38.897740	4.013380	-13.077820	0.681822	0.752134	0.045410	-1.000000	-1.000000	-1.000000	-1.000000	-1.000000	-1.000000	-1.000000	75.586207	0.000000	-1.000000	-1.000000	1831518.000000	1770065159.839610
-2802.195000	-7875.225000	58.590000	13137.345000	-2526.435000	-3573.855000	8233.650000	-3566.970000	28.557229	41.477321	86.741526	67.766477	31.200011	38.447954	-56.582683	9.276783	-38.897740	4.013380	-13.077820	0.681822	0.752134	0.045410	-1.000000	-1.000000	-1.000000	-1.000000	-1.000000	-1.000000	-1.000000	75.586207	0.000000	-1.000000	-1.000000	1831519.000000	1770065159.842680
-2854.080000	-7947.045000	-9.630000	13118.130000	-2556.990000	-3646.845000	8400.780000	-3553.245000	26.377102	37.850946	69.655677	48.235254	23.923479	31.436452	-48.936216	-8.646343	-38.897740	4.013380	-13.077820	0.681822	0.752134	0.045410	-1.000000	-1.000000	-1.000000	-1.000000	-1.000000	-1.000000	-1.000000	75.586207	0.000000	-1.000000	-1.000000	1831520.000000	1770065159.842691
-2854.755000	-7948.305000	-83.880000	13053.870000	-2581.605000	-3620.070000	8364.780000	-3542.130000	19.841459	24.508811	32.496216	18.128609	12.635109	19.409856	-29.566994	-16.686297	1.587040	20.799380	-9.964780	0.712401	0.642576	0.046203	-1.000000	-1.000000	-1.000000	-1.000000	-1.000000	-1.000000	-1.000000	75.586207	0.000000	-1.000000	-1.000000	1831521.000000	1770065159.846030
-2833.695000	-7962.345000	-180.000000	13000.095000	-2589.615000	-3574.395000	8316.315000	-3510.495000	9.525045	5.473212	-11.943900	-11.862259	-0.403485	6.598022	-3.590239	-10.571987	1.587040	20.799380	-9.964780	0.712401	0.642576	0.046203	-1.000000	-1.000000	-1.000000	-1.000000	-1.000000	-1.000000	-1.000000	75.586207	0.000000	-1.000000	-1.000000	1831522.000000	1770065159.846039
-2840.805000	-7943.715000	-141.255000	13031.460000	-2589.165000	-3604.230000	8266.050000	-3518.325000	-3.316474	-14.062189	-50.288494	-35.940837	-13.559492	-3.754690	15.633976	0.353890	1.587040	20.799380	-9.964780	0.712401	0.642576	0.046203	-1.000000	-1.000000	-1.000000	-1.000000	-1.000000	-1.000000	-1.000000	75.586207	0.000000	-1.000000	-1.000000	1831523.000000	1770065159.853033
-2872.800000	-7955.190000	-46.395000	13078.305000	-2578.590000	-3620.880000	8207.955000	-3563.550000	-15.493491	-27.170509	-66.563854	-45.277784	-22.646400	-12.724817	18.277507	6.444724	1.587040	20.799380	-9.964780	0.712401	0.642576	0.046203	-1.000000	-1.000000	-1.000000	-1.000000	-1.000000	-1.000000	-1.000000	75.586207	0.000000	-1.000000	-1.000000	1831524.000000	1770065159.853045
-2916.765000	-7995.060000	15.795000	13106.025000	-2614.140000	-3680.595000	8252.415000	-3564.180000	-24.550172	-29.937869	-49.509768	-32.668260	-23.988757	-23.497128	9.148223	5.511587	1.587040	20.799380	-9.964780	0.712401	0.642576	0.046203	-1.000000	-1.000000	-1.000000	-1.000000	-1.000000	-1.000000	-1.000000	75.586207	0.000000	-1.000000	-1.000000	1831525.000000	1770065159.854060
-2866.365000	-7945.875000	13.545000	13132.350000	-2591.730000	-3691.260000	8334.270000	-3449.565000	-29.282631	-25.035550	-8.539338	-4.335807	-17.747542	-34.722624	4.191014	1.372552	1.587040	20.799380	-9.964780	0.712401	0.642576	0.046203	-1.000000	-1.000000	-1.000000	-1.000000	-1.000000	-1.000000	-1.000000	75.586207	0.000000	-1.000000	-1.000000	1831526.000000	1770065159.854072
-2818.305000	-7917.705000	-14.805000	13147.650000	-2528.595000	-3621.420000	8372.250000	-3482.370000	-27.090203	-16.713887	27.400204	22.167425	-6.425820	-38.928879	14.717380	0.561660	1.587040	20.799380	-9.964780	0.712401	0.642576	0.046203	-1.000000	-1.000000	-1.000000	-1.000000	-1.000000	-1.000000	-1.000000	75.586207	0.000000	-1.000000	-1.000000	1831527.000000	1770065159.858018
-2829.870000	-7912.170000	46.395000	13205.880000	-2541.285000	-3623.985000	8364.600000	-3520.170000	-14.758337	-5.607500	35.960027	32.769681	6.773788	-27.268303	31.922418	4.787719	1.587040	20.799380	-9.964780	0.712401	0.642576	0.046203	-1.000000	-1.000000	-1.000000	-1.000000	-1.000000	-1.000000	-1.000000	75.586207	0.000000	-1.000000	-1.000000	1831528.000000	1770065159.858028
-2865.555000	-7955.325000	11.835000	13189.455000	-2553.210000	-3613.680000	8368.920000	-3554.505000	5.706798	8.613758	21.461065	26.673269	17.291470	0.616435	34.064762	8.475880	1.587040	20.799380	-9.964780	0.712401	0.642576	0.046203	-1.000000	-1.000000	-1.000000	-1.000000	-1.000000	-1.000000	-1.000000	75.586207	0.000000	-1.000000	-1.000000	1831529.000000	1770065159.868348
-2848.365000	-7930.395000	22.455000	13168.980000	-2555.865000	-3614.940000	8344.935000	-3586.455000	24.710354	21.950659	4.006890	12.118299	20.857570	31.685155	12.753950	4.961313	1.587040	20.799380	-9.964780	0.712401	0.642576	0.046203	-1.000000	-1.000000	-1.000000	-1.000000	-1.000000	-1.000000	-1.000000	75.586207	0.000000	-1.000000	-1.000000	1831530.000000	1770065159.868358
-2859.165000	-7934.445000	4.275000	13153.590000	-2576.565000	-3637.980000	8322.795000	-3646.350000	31.889122	27.713820	-3.207763	-3.425736	15.974779	47.934556	-18.105215	-7.904435	32.656400	10.254720	4.593260	0.705015	0.628477	0.057983	-1.000000	-1.000000	-1.000000	-1.000000	-1.000000	-1.000000	-1.000000	75.586207	0.000000	-1.000000	-1.000000	1831531.000000	1770065159.868378
-2865.420000	-7959.825000	-26.145000	13151.745000	-2564.775000	-3626.280000	8350.110000	-3574.845000	24.546924	22.345206	-2.757663	-16.538387	4.646056	40.864963	-38.153020	-22.797270	32.656400	10.254720	4.593260	0.705015	0.628477	0.057983	-1.000000	-1.000000	-1.000000	-1.000000	-1.000000	-1.000000	-1.000000	75.586207	0.000000	-1.000000	-1.000000	1831532.000000	1770065159.868387
-2821.995000	-7931.340000	8.145000	13193.505000	-2520.945000	-3611.790000	8357.130000	-3481.695000	9.529573	8.543548	-4.661131	-24.699572	-7.084405	17.713388	-36.081473	-23.994325	32.656400	10.254720	4.593260	0.705015	0.628477	0.057983	-1.000000	-1.000000	-1.000000	-1.000000	-1.000000	-1.000000	-1.000000	75.586207	0.000000	-1.000000	-1.000000	1831533.000000	1770065159.873392
-2835.810000	-7947.090000	-13.005000	13180.230000	-2540.970000	-3622.365000	8357.670000	-3488.355000	-3.237272	-6.177951	-12.538058	-25.149670	-12.229902	-6.276152	-16.264254	-4.733512	32.656400	10.254720	4.593260	0.705015	0.628477	0.057983	-1.000000	-1.000000	-1.000000	-1.000000	-1.000000	-1.000000	-1.000000	75.586207	0.000000	-1.000000	-1.000000	1831534.000000	1770065159.873403
-2859.705000	-7970.265000	-58.455000	13140.855000	-2548.305000	-3612.195000	8348.220000	-3535.425000	-11.086402	-16.918833	-21.649863	-18.874809	-10.362397	-20.752010	5.390768	19.743381	32.656400	10.254720	4.593260	0.705015	0.628477	0.057983	-1.000000	-1.000000	-1.000000	-1.000000	-1.000000	-1.000000	-1.000000	75.586207	0.000000	-1.000000	-1.000000	1831535.000000	1770065159.874279
-2856.015000	-7990.515000	-193.185000	12978.630000	-2543.085000	-3594.420000	8339.490000	-3531.105000	-17.521655	-23.733842	-27.579174	-13.090759	-7.550474	-24.623941	15.047651	29.283944	32.656400	10.254720	4.593260	0.705015	0.628477	0.057983	-1.000000	-1.000000	-1.000000	-1.000000	-1.000000	-1.000000	-1.000000	75.586207	0.000000	-1.000000	-1.000000	1831536.000000	1770065159.874286
-2848.590000	-8005.320000	-333.630000	12861.630000	-2562.030000	-3591.765000	8343.000000	-3529.170000	-21.078153	-24.908644	-30.566892	-15.788336	-7.042797	-20.394419	10.001546	21.311118	32.656400	10.254720	4.593260	0.705015	0.628477	0.057983	-1.000000	-1.000000	-1.000000	-1.000000	-1.000000	-1.000000	-1.000000	75.586207	0.000000	-1.000000	-1.000000	1831537.000000	1770065159.878169
-2840.940000	-7999.020000	-216.495000	13071.960000	-2573.505000	-3610.305000	8331.345000	-3520.800000	-15.951406	-16.600617	-27.373371	-20.880455	-6.394122	-11.041434	-2.112138	6.903076	32.656400	10.254720	4.593260	0.705015	0.628477	0.057983	-1.000000	-1.000000	-1.000000	-1.000000	-1.000000	-1.000000	-1.000000	75.586207	0.000000	-1.000000	-1.000000	1831538.000000	1770065159.878184
-2838.825000	-7964.865000	-14.085000	13194.630000	-2539.935000	-3605.445000	8323.110000	-3513.105000	-2.544983	0.299149	-5.240760	-6.751008	-2.522574	-1.217569	-10.007439	-4.103358	32.656400	10.254720	4.593260	0.705015	0.628477	0.057983	-1.000000	-1.000000	-1.000000	-1.000000	-1.000000	-1.000000	-1.000000	75.586207	0.000000	-1.000000	-1.000000	1831539.000000	1770065159.882111
-2849.715000	-7938.360000	90.180000	13214.160000	-2553.300000	-3628.890000	8322.435000	-3538.665000	11.355547	19.134538	41.273905	33.959104	4.854638	5.078195	-7.334162	-8.770485	32.656400	10.254720	4.593260	0.705015	0.628477	0.057983	-1.000000	-1.000000	-1.000000	-1.000000	-1.000000	-1.000000	-1.000000	75.586207	0.000000	-1.000000	-1.000000	1831540.000000	1770065159.882122
-2861.865000	-7946.865000	63.360000	13215.645000	-2569.680000	-3651.390000	8313.030000	-3553.605000	17.981010	31.786652	90.447743	76.094400	11.590733	6.277767	3.292824	-10.632792	-4.822160	-5.783540	-0.839300	0.695067	0.702696	0.058105	-1.000000	-1.000000	-1.000000	-1.000000	-1.000000	-1.000000	-1.000000	75.586207	0.000000	-1.000000	-1.000000	1831541.000000	1770065159.886169
-2821.770000	-7904.430000	79.425000	13255.335000	-2509.920000	-3596.625000	8329.545000	-3531.105000	15.091091	32.528793	105.639677	86.602401	12.809083	3.835745	13.948734	-14.485362	-4.822160	-5.783540	-0.839300	0.695067	0.702696	0.058105	-1.000000	-1.000000	-1.000000	-1.000000	-1.000000	-1.000000	-1.000000	75.586207	0.000000	-1.000000	-1.000000	1831542.000000	1770065159.886176
-2806.965000	-7913.655000	59.805000	13234.320000	-2524.275000	-3616.020000	8315.955000	-3423.915000	6.882105	21.229204	69.745468	55.579606	9.266457	2.199806	17.941160	-17.513860	-4.822160	-5.783540	-0.839300	0.695067	0.702696	0.058105	-1.000000	-1.000000	-1.000000	-1.000000	-1.000000	-1.000000	-1.000000	75.586207	0.000000	-1.000000	-1.000000	1831543.000000	1770065159.891973
-2795.805000	-7924.815000	36.540000	13209.210000	-2556.000000	-3655.710000	8315.460000	-3387.510000	-0.502176	2.906450	0.746909	0.431766	3.713393	2.454537	13.374735	-10.415174	-4.822160	-5.783540	-0.839300	0.695067	0.702696	0.058105	-1.000000	-1.000000	-1.000000	-1.000000	-1.000000	-1.000000	-1.000000	75.586207	0.000000	-1.000000	-1.000000	1831544.000000	1770065159.891994
-2780.145000	-7887.060000	72.495000	13252.005000	-2498.715000	-3598.965000	8340.120000	-3514.770000	-3.887570	-14.540266	-62.994645	-48.227544	-2.634958	1.656976	3.375090	6.716744	-4.822160	-5.783540	-0.839300	0.695067	0.702696	0.058105	-1.000000	-1.000000	-1.000000	-1.000000	-1.000000	-1.000000	-1.000000	75.586207	0.000000	-1.000000	-1.000000	1831545.000000	1770065159.895752
-2837.520000	-7942.230000	15.660000	13199.310000	-2535.435000	-3620.205000	8311.635000	-3535.695000	-4.207934	-23.638969	-90.163499	-67.542098	-6.645935	0.349713	-6.522759	18.847088	-4.822160	-5.783540	-0.839300	0.695067	0.702696	0.058105	-1.000000	-1.000000	-1.000000	-1.000000	-1.000000	-1.000000	-1.000000	75.586207	0.000000	-1.000000	-1.000000	1831546.000000	1770065159.895762
-2879.820000	-7991.685000	-38.655000	13145.985000	-2582.820000	-3652.695000	8300.880000	-3549.465000	-5.736438	-24.132308	-79.626090	-60.862123	-7.027959	0.408927	-12.248608	14.492893	-4.822160	-5.783540	-0.839300	0.695067	0.702696	0.058105	-1.000000	-1.000000	-1.000000	-1.000000	-1.000000	-1.000000	-1.000000	75.586207	0.000000	-1.000000	-1.000000	1831547.000000	1770065159.899945
-2849.625000	-7955.145000	-5.670000	13178.475000	-2553.255000	-3618.405000	8325.135000	-3580.290000	-10.389340	-21.307888	-54.625498	-47.250395	-6.844188	0.994043	-11.978201	-1.401185	-4.822160	-5.783540	-0.839300	0.695067	0.702696	0.058105	-1.000000	-1.000000	-1.000000	-1.000000	-1.000000	-1.000000	-1.000000	75.586207	0.000000	-1.000000	-1.000000	1831548.000000	1770065159.899954
-2836.800000	-7928.055000	26.910000	13215.375000	-2517.570000	-3585.960000	8340.930000	-3680.145000	-12.947250	-16.098242	-32.081827	-33.635554	-6.118524	2.623731	-5.582409	-17.136266	-4.822160	-5.783540	-0.839300	0.695067	0.702696	0.058105	-1.000000	-1.000000	-1.000000	-1.000000	-1.000000	-1.000000	-1.000000	75.586207	0.000000	-1.000000	-1.000000	1831549.000000	1770065159.902267
-2758.095000	-7841.835000	109.305000	13302.810000	-2437.290000	-3515.670000	8325.855000	-3544.830000	-7.058019	-4.893967	-9.732469	-13.169068	-0.982506	7.163595	3.705953	-23.833114	-4.822160	-5.783540	-0.839300	0.695067	0.702696	0.058105	-1.000000	-1.000000	-1.000000	-1.000000	-1.000000	-1.000000	-1.000000	75.586207	0.000000	-1.000000	-1.000000	1831550.000000	1770065159.902278
-2527.065000	-7572.870000	362.115000	13568.445000	-2182.680000	-3300.480000	8414.055000	-3343.005000	9.260599	15.324852	21.513832	19.528466	11.809809	15.541941	10.856217	-13.702521	-14.268100	-1.419180	1.617560	0.709532	0.724852	0.066345	-1.000000	-1.000000	-1.000000	-1.000000	-1.000000	-1.000000	-1.000000	75.586207	0.000000	-1.000000	-1.000000	1831551.000000	1770065159.908810
-2284.740000	-7302.060000	637.830000	13806.450000	-1948.860000	-3074.985000	8590.005000	-3170.070000	35.104396	45.715190	65.136948	62.972517	34.319168	29.643210	16.194217	15.629007	-14.268100	-1.419180	1.617560	0.709532	0.724852	0.066345	-1.000000	-1.000000	-1.000000	-1.000000	-1.000000	-1.000000	-1.000000	75.586207	0.000000	-1.000000	-1.000000	1831552.000000	1770065159.908820
-2491.020000	-7565.265000	374.895000	13504.230000	-2237.040000	-3318.030000	8634.195000	-3084.840000	58.524483	73.262937	105.073587	98.968594	55.335111	42.426968	23.483696	52.479664	-14.268100	-1.419180	1.617560	0.709532	0.724852	0.066345	-1.000000	-1.000000	-1.000000	-1.000000	-1.000000	-1.000000	-1.000000	75.586207	0.000000	-1.000000	-1.000000	1831553.000000	1770065159.915018
-2868.615000	-8011.890000	-73.170000	13042.620000	-2685.465000	-3714.975000	8283.510000	-3467.925000	49.265907	61.481602	100.010597	87.226264	40.598171	26.531586	23.618600	70.760605	-14.268100	-1.419180	1.617560	0.709532	0.724852	0.066345	-1.000000	-1.000000	-1.000000	-1.000000	-1.000000	-1.000000	-1.000000	75.586207	0.000000	-1.000000	-1.000000	1831554.000000	1770065159.915028
-2895.975000	-8071.920000	-103.545000	13037.625000	-2681.865000	-3718.485000	8106.120000	-3659.715000	-10.082215	-11.207678	24.470911	6.596346	-28.449298	-34.457266	-3.071323	42.221723	-14.268100	-1.419180	1.617560	0.709532	0.724852	0.066345	-1.000000	-1.000000	-1.000000	-1.000000	-1.000000	-1.000000	-1.000000	75.586207	0.000000	-1.000000	-1.000000	1831555.000000	1770065159.915038
-2891.295000	-8025.390000	-70.785000	13113.675000	-2602.260000	-3687.390000	8068.455000	-3580.740000	-87.702289	-106.268788	-84.303161	-99.402487	-110.727291	-106.297384	-54.038433	-29.778500	-14.268100	-1.419180	1.617560	0.709532	0.724852	0.066345	-1.000000	-1.000000	-1.000000	-1.000000	-1.000000	-1.000000	-1.000000	75.586207	0.000000	-1.000000	-1.000000	1831556.000000	1770065159.915044
-2820.870000	-7901.640000	62.055000	13248.135000	-2503.395000	-3613.905000	8138.925000	-3523.050000	-126.444518	-152.818172	-152.480548	-153.920523	-138.798870	-130.965003	-93.436237	-95.958444	-14.268100	-1.419180	1.617560	0.709532	0.724852	0.066345	-1.000000	-1.000000	-1.000000	-1.000000	-1.000000	-1.000000	-1.000000	75.586207	0.000000	-1.000000	-1.000000	1831557.000000	1770065159.920785
-2765.745000	-7869.690000	86.220000	13311.630000	-2432.250000	-3500.415000	8417.340000	-3461.130000	-96.896173	-114.358030	-135.653535	-118.148086	-86.289712	-83.639955	-81.975006	-105.528045	-14.268100	-1.419180	1.617560	0.709532	0.724852	0.066345	-1.000000	-1.000000	-1.000000	-1.000000	-1.000000	-1.000000	-1.000000	75.586207	0.000000	-1.000000	-1.000000	1831558.000000	1770065159.920794
-2974.095000	-8099.055000	-168.885000	13038.345000	-2689.065000	-3722.355000	8338.455000	-3626.415000	-21.111386	-20.062459	-53.895781	-23.548866	9.423983	6.396755	-13.595189	-58.004103	-14.268100	-1.419180	1.617560	0.709532	0.724852	0.066345	-1.000000	-1.000000	-1.000000	-1.000000	-1.000000	-1.000000	-1.000000	75.586207	0.000000	-1.000000	-1.000000	1831559.000000	1770065159.922856
-2813.490000	-7892.325000	59.535000	13249.395000	-2501.820000	-3582.990000	8303.985000	-3553.560000	47.477604	63.495627	30.955279	59.449870	81.259212	79.330412	69.516250	1.605576	-14.268100	-1.419180	1.617560	0.709532	0.724852	0.066345	-1.000000	-1.000000	-1.000000	-1.000000	-1.000000	-1.000000	-1.000000	75.586207	0.000000	-1.000000	-1.000000	1831560.000000	1770065159.922866
-2388.960000	-7407.540000	554.625000	13739.715000	-2048.040000	-3172.590000	8602.155000	-3282.210000	79.930673	101.880143	83.226515	96.070202	100.793799	103.567805	113.259049	37.438765	-13.459320	3.296160	-6.989080	0.731810	0.699888	0.066223	-1.000000	-1.000000	-1.000000	-1.000000	-1.000000	-1.000000	-1.000000	75.586207	0.000000	-1.000000	-1.000000	1831561.000000	1770065159.927354
-2245.815000	-7253.145000	688.185000	13875.345000	-1917.315000	-3039.255000	8640.360000	-3239.730000	96.707749	119.339934	120.423573	113.757939	100.919760	103.387778	104.952384	54.556184	-13.459320	3.296160	-6.989080	0.731810	0.699888	0.066223	-1.000000	-1.000000	-1.000000	-1.000000	-1.000000	-1.000000	-1.000000	75.586207	0.000000	-1.000000	-1.000000	1831562.000000	1770065159.927364
-2314.305000	-7349.535000	548.865000	13720.455000	-2032.965000	-3164.265000	8494.695000	-3142.755000	118.931305	140.356578	156.501292	136.549745	112.223825	106.982104	68.334249	73.951236	-13.459320	3.296160	-6.989080	0.731810	0.699888	0.066223	-1.000000	-1.000000	-1.000000	-1.000000	-1.000000	-1.000000	-1.000000	75.586207	0.000000	-1.000000	-1.000000	1831563.000000	1770065159.930182
-2432.430000	-7497.360000	435.285000	13558.140000	-2182.905000	-3294.585000	8140.860000	-3198.195000	124.147895	139.635130	158.315404	133.619337	110.654253	97.220408	20.151399	95.828037	-13.459320	3.296160	-6.989080	0.731810	0.699888	0.066223	-1.000000	-1.000000	-1.000000	-1.000000	-1.000000	-1.000000	-1.000000	75.586207	0.000000	-1.000000	-1.000000	1831564.000000	1770065159.930191
-2544.615000	-7685.865000	269.235000	13403.205000	-2345.580000	-3481.920000	7842.195000	-3221.280000	74.375295	74.029440	84.728288	60.922597	52.327643	39.356673	-42.729727	93.347968	-13.459320	3.296160	-6.989080	0.731810	0.699888	0.066223	-1.000000	-1.000000	-1.000000	-1.000000	-1.000000	-1.000000	-1.000000	75.586207	0.000000	-1.000000	-1.000000	1831565.000000	1770065159.934182
-2472.165000	-7547.670000	364.005000	13572.945000	-2161.845000	-3304.575000	7935.255000	-3407.265000	-29.191946	-53.287080	-52.762957	-70.267359	-59.822189	-62.177171	-114.099030	42.125948	-13.459320	3.296160	-6.989080	0.731810	0.699888	0.066223	-1.000000	-1.000000	-1.000000	-1.000000	-1.000000	-1.000000	-1.000000	75.586207	0.000000	-1.000000	-1.000000	1831566.000000	1770065159.934194
-2700.180000	-7713.405000	167.220000	13343.625000	-2406.870000	-3472.965000	8169.615000	-3532.635000	-138.391830	-179.301042	-185.960434	-190.443664	-167.031219	-155.560202	-155.915000	-48.886131	-13.459320	3.296160	-6.989080	0.731810	0.699888	0.066223	-1.000000	-1.000000	-1.000000	-1.000000	-1.000000	-1.000000	-1.000000	75.586207	0.000000	-1.000000	-1.000000	1831567.000000	1770065159.938154
-2583.990000	-7639.380000	302.355000	13465.260000	-2243.790000	-3249.945000	8674.470000	-3255.345000	-197.310204	-233.743145	-242.472605	-231.733979	-207.727686	-185.464425	-119.872068	-133.041939	-13.459320	3.296160	-6.989080	0.731810	0.699888	0.066223	-1.000000	-1.000000	-1.000000	-1.000000	-1.000000	-1.000000	-1.000000	75.586207	0.000000	-1.000000	-1.000000	1831568.000000	1770065159.938160
-2671.650000	-7719.975000	297.225000	13487.445000	-2207.385000	-3234.870000	8486.145000	-3594.375000	-182.291770	-197.320302	-200.321023	-179.394716	-164.797631	-136.890135	-4.010314	-161.946661	-13.459320	3.296160	-6.989080	0.731810	0.699888	0.066223	-1.000000	-1.000000	-1.000000	-1.000000	-1.000000	-1.000000	-1.000000	75.586207	0.000000	-1.000000	-1.000000	1831569.000000	1770065159.949879
-2488.545000	-7475.580000	571.095000	13732.785000	-2052.360000	-3150.315000	8563.320000	-3304.305000	-111.307490	-103.656364	-93.665899	-70.515228	-68.930628	-44.107285	118.737799	-129.429851	-13.459320	3.296160	-6.989080	0.731810	0.699888	0.066223	-1.000000	-1.000000	-1.000000	-1.000000	-1.000000	-1.000000	-1.000000	75.586207	0.000000	-1.000000	-1.000000	1831570.000000	1770065159.949891
-2597.715000	-7621.605000	328.995000	13501.710000	-2316.375000	-3379.815000	8560.395000	-3141.135000	-17.437047	4.706941	26.513384	44.370513	31.766829	41.085200	167.556743	-53.512915	-55.409060	-9.186520	-32.976860	0.726683	0.685362	0.058533	-1.000000	-1.000000	-1.000000	-1.000000	-1.000000	-1.000000	-1.000000	75.586207	0.000000	-1.000000	-1.000000	1831571.000000	1770065159.949901
-2622.600000	-7735.860000	223.560000	13386.330000	-2404.665000	-3450.240000	8374.230000	-3174.390000	72.064272	97.468161	118.367569	125.981226	100.166109	87.013648	129.788692	45.914205	-55.409060	-9.186520	-32.976860	0.726683	0.685362	0.058533	-1.000000	-1.000000	-1.000000	-1.000000	-1.000000	-1.000000	-1.000000	75.586207	0.000000	-1.000000	-1.000000	1831572.000000	1770065159.949906
-3036.330000	-8143.785000	-84.870000	13069.755000	-2686.995000	-3719.925000	8180.010000	-3644.865000	129.293522	146.470888	152.250633	149.298074	118.843829	89.331679	45.917451	124.470090	-55.409060	-9.186520	-32.976860	0.726683	0.685362	0.058533	-1.000000	-1.000000	-1.000000	-1.000000	-1.000000	-1.000000	-1.000000	75.586207	0.000000	-1.000000	-1.000000	1831573.000000	1770065159.952241
-3333.105000	-8413.245000	-470.025000	12770.775000	-2973.780000	-4011.480000	7686.270000	-3976.560000	126.275056	129.878371	116.617240	107.111996	87.016851	56.143090	-43.237653	127.664520	-55.409060	-9.186520	-32.976860	0.726683	0.685362	0.058533	-1.000000	-1.000000	-1.000000	-1.000000	-1.000000	-1.000000	-1.000000	75.586207	0.000000	-1.000000	-1.000000	1831574.000000	1770065159.952247
-2905.200000	-7910.865000	-58.635000	13251.600000	-2543.490000	-3658.365000	7458.300000	-3623.535000	68.839141	63.085425	35.179681	25.902408	26.721515	6.432634	-122.126041	56.853963	-55.409060	-9.186520	-32.976860	0.726683	0.685362	0.058533	-1.000000	-1.000000	-1.000000	-1.000000	-1.000000	-1.000000	-1.000000	75.586207	0.000000	-1.000000	-1.000000	1831575.000000	1770065159.954084
-1907.055000	-6812.865000	1083.420000	14269.410000	-1522.035000	-2737.980000	8139.780000	-2621.520000	25.554673	20.493908	-14.307780	-18.286967	0.627282	-10.493459	-172.709456	-6.423331	-55.409060	-9.186520	-32.976860	0.726683	0.685362	0.058533	-1.000000	-1.000000	-1.000000	-1.000000	-1.000000	-1.000000	-1.000000	75.586207	0.000000	-1.000000	-1.000000	1831576.000000	1770065159.954095
-1907.640000	-6820.065000	1100.745000	14134.770000	-1600.470000	-2738.610000	8717.310000	-2575.485000	60.343003	65.353761	35.260982	32.075395	56.797754	45.115089	-146.754096	15.437661	-55.409060	-9.186520	-32.976860	0.726683	0.685362	0.058533	-1.000000	-1.000000	-1.000000	-1.000000	-1.000000	-1.000000	-1.000000	75.586207	0.000000	-1.000000	-1.000000	1831577.000000	1770065159.960344
-2677.770000	-7714.800000	251.505000	13394.070000	-2361.105000	-3378.690000	8612.055000	-3181.050000	122.649872	136.333924	122.728947	109.712710	129.708284	118.719228	-23.433515	88.157805	-55.409060	-9.186520	-32.976860	0.726683	0.685362	0.058533	-1.000000	-1.000000	-1.000000	-1.000000	-1.000000	-1.000000	-1.000000	75.586207	0.000000	-1.000000	-1.000000	1831578.000000	1770065159.960356
-2929.860000	-7894.125000	38.070000	13279.365000	-2517.795000	-3549.960000	8498.520000	-3748.770000	91.816848	99.548803	107.956902	86.633094	98.145388	104.305039	128.931426	91.322164	-55.409060	-9.186520	-32.976860	0.726683	0.685362	0.058533	-1.000000	-1.000000	-1.000000	-1.000000	-1.000000	-1.000000	-1.000000	75.586207	0.000000	-1.000000	-1.000000	1831579.000000	1770065159.962133
-2948.805000	-7961.040000	4.185000	13316.310000	-2495.655000	-3576.330000	8396.595000	-3402.405000	-57.912120	-67.650889	-39.384625	-50.370941	-47.503724	-14.636530	207.840219	-29.557703	-55.409060	-9.186520	-32.976860	0.726683	0.685362	0.058533	-1.000000	-1.000000	-1.000000	-1.000000	-1.000000	-1.000000	-1.000000	75.586207	0.000000	-1.000000	-1.000000	1831580.000000	1770065159.962143
-3191.265000	-8219.790000	-239.445000	13068.720000	-2733.120000	-3767.130000	8386.470000	-3477.780000	-220.873921	-243.508275	-204.346973	-188.111414	-193.862381	-147.055358	175.293431	-183.113932	-74.484060	-30.230060	-35.052220	0.703184	0.678526	0.089538	-1.000000	-1.000000	-1.000000	-1.000000	-1.000000	-1.000000	-1.000000	75.586207	0.000000	-1.000000	-1.000000	1831581.000000	1770065159.966132
-3319.470000	-8305.470000	-254.475000	12997.890000	-2791.170000	-3777.795000	8553.870000	-3829.140000	-277.631546	-298.936344	-262.459689	-222.981805	-236.156762	-197.967728	78.055062	-238.310469	-74.484060	-30.230060	-35.052220	0.703184	0.678526	0.089538	-1.000000	-1.000000	-1.000000	-1.000000	-1.000000	-1.000000	-1.000000	75.586207	0.000000	-1.000000	-1.000000	1831582.000000	1770065159.966142
-3443.040000	-8470.620000	-445.905000	12827.700000	-2949.300000	-3940.515000	8186.355000	-3847.905000	-194.434995	-203.788228	-180.209867	-142.694547	-158.490691	-142.399968	-12.628662	-159.197003	-74.484060	-30.230060	-35.052220	0.703184	0.678526	0.089538	-1.000000	-1.000000	-1.000000	-1.000000	-1.000000	-1.000000	-1.000000	75.586207	0.000000	-1.000000	-1.000000	1831583.000000	1770065159.970231
-3245.220000	-8263.260000	-265.545000	13001.220000	-2802.105000	-3859.065000	7795.845000	-3793.770000	-35.552009	-34.331738	-25.541529	-16.520732	-27.642180	-34.112014	-76.296007	-15.116360	-74.484060	-30.230060	-35.052220	0.703184	0.678526	0.089538	-1.000000	-1.000000	-1.000000	-1.000000	-1.000000	-1.000000	-1.000000	75.586207	0.000000	-1.000000	-1.000000	1831584.000000	1770065159.970242
-2885.715000	-7876.170000	142.785000	13395.060000	-2428.380000	-3526.020000	8268.435000	-3585.780000	100.193857	102.478042	97.314033	73.367957	70.834646	47.679998	-138.360255	93.265095	-74.484060	-30.230060	-35.052220	0.703184	0.678526	0.089538	-1.000000	-1.000000	-1.000000	-1.000000	-1.000000	-1.000000	-1.000000	75.586207	0.000000	-1.000000	-1.000000	1831585.000000	1770065159.974227
-2788.380000	-7776.090000	231.525000	13497.795000	-2310.255000	-3345.030000	8877.645000	-3318.570000	167.558244	166.256272	146.416151	109.578742	112.584754	79.541406	-184.779486	126.225599	-74.484060	-30.230060	-35.052220	0.703184	0.678526	0.089538	-1.000000	-1.000000	-1.000000	-1.000000	-1.000000	-1.000000	-1.000000	75.586207	0.000000	-1.000000	-1.000000	1831586.000000	1770065159.974236
-3122.145000	-8133.840000	-128.205000	13125.060000	-2678.445000	-3709.890000	8146.710000	-3559.815000	184.620102	184.699637	151.499242	125.263911	129.266021	94.098455	-163.528297	125.121389	-74.484060	-30.230060	-35.052220	0.703184	0.678526	0.089538	-1.000000	-1.000000	-1.000000	-1.000000	-1.000000	-1.000000	-1.000000	75.586207	0.000000	-1.000000	-1.000000	1831587.000000	1770065159.991187
-3098.025000	-8086.680000	-73.845000	13150.935000	-2663.190000	-3742.110000	7844.580000	-3620.205000	169.013471	176.889650	138.702357	129.566070	134.652750	106.486713	-80.478680	126.046463	-74.484060	-30.230060	-35.052220	0.703184	0.678526	0.089538	-1.000000	-1.000000	-1.000000	-1.000000	-1.000000	-1.000000	-1.000000	75.586207	0.000000	-1.000000	-1.000000	1831588.000000	1770065159.991202
-2779.065000	-7727.040000	283.590000	13515.975000	-2286.495000	-3391.560000	8339.130000	-3496.140000	123.193832	140.684619	111.109997	109.922444	118.132184	103.936644	14.817452	111.597472	-74.484060	-30.230060	-35.052220	0.703184	0.678526	0.089538	-1.000000	-1.000000	-1.000000	-1.000000	-1.000000	-1.000000	-1.000000	75.586207	0.000000	-1.000000	-1.000000	1831589.000000	1770065159.991214
-2435.895000	-7440.840000	572.175000	13824.855000	-1990.440000	-3113.460000	8569.305000	-2986.605000	69.539952	93.543813	81.817737	80.198708	90.064676	90.522324	106.697913	71.304514	-74.484060	-30.230060	-35.052220	0.703184	0.678526	0.089538	-1.000000	-1.000000	-1.000000	-1.000000	-1.000000	-1.000000	-1.000000	75.586207	0.000000	-1.000000	-1.000000	1831590.000000	1770065159.991219
-2566.710000	-7567.515000	451.035000	13688.370000	-2117.790000	-3204.675000	8590.905000	-3226.500000	33.671424	54.682247	60.357993	59.705523	66.136286	76.568204	189.469914	33.766809	-19.639620	9.186520	17.549000	0.621764	0.736326	0.115295	-1.000000	-1.000000	-1.000000	-1.000000	-1.000000	-1.000000	-1.000000	75.586207	0.000000	-1.000000	-1.000000	1831591.000000	1770065159.991225
-3006.180000	-8057.025000	-52.470000	13120.875000	-2622.555000	-3628.170000	8148.195000	-3604.320000	-5.022188	0.561882	18.326839	22.686739	22.600782	40.190671	226.983936	1.631909	-19.639620	9.186520	17.549000	0.621764	0.736326	0.115295	-1.000000	-1.000000	-1.000000	-1.000000	-1.000000	-1.000000	-1.000000	75.586207	0.000000	-1.000000	-1.000000	1831592.000000	1770065159.991230
-3052.620000	-8143.605000	-163.350000	12921.705000	-2736.315000	-3681.495000	8371.485000	-3490.695000	-93.969514	-110.995699	-87.071650	-79.534015	-81.679795	-53.166927	179.749860	-63.688902	-19.639620	9.186520	17.549000	0.621764	0.736326	0.115295	-1.000000	-1.000000	-1.000000	-1.000000	-1.000000	-1.000000	-1.000000	75.586207	0.000000	-1.000000	-1.000000	1831593.000000	1770065159.991236
-3431.205000	-8479.035000	-498.645000	12598.380000	-3044.790000	-3948.615000	8241.660000	-3952.665000	-231.022187	-267.050709	-244.589125	-238.492641	-234.331689	-192.125136	42.448152	-168.639715	-19.639620	9.186520	17.549000	0.621764	0.736326	0.115295	-1.000000	-1.000000	-1.000000	-1.000000	-1.000000	-1.000000	-1.000000	75.586207	0.000000	-1.000000	-1.000000	1831594.000000	1770065159.991241
-3335.445000	-8374.815000	-376.470000	12877.920000	-2881.485000	-3852.945000	8208.900000	-3867.255000	-335.127852	-373.997853	-360.457635	-354.464023	-343.741769	-299.004814	-137.941187	-258.555040	-19.639620	9.186520	17.549000	0.621764	0.736326	0.115295	-1.000000	-1.000000	-1.000000	-1.000000	-1.000000	-1.000000	-1.000000	75.586207	0.000000	-1.000000	-1.000000	1831595.000000	1770065159.995354
-3126.420000	-8187.795000	-170.235000	13164.480000	-2632.590000	-3685.635000	8149.680000	-3743.595000	-302.347459	-323.604064	-320.795950	-305.755272	-300.848964	-278.095605	-262.571792	-253.238826	-19.639620	9.186520	17.549000	0.621764	0.736326	0.115295	-1.000000	-1.000000	-1.000000	-1.000000	-1.000000	-1.000000	-1.000000	75.586207	0.000000	-1.000000	-1.000000	1831596.000000	1770065159.995366
-3038.265000	-8052.120000	-23.625000	13277.205000	-2527.695000	-3583.530000	8295.210000	-3612.645000	-107.853203	-101.119115	-104.419951	-74.295235	-88.127019	-106.063326	-245.669174	-117.327823	-19.639620	9.186520	17.549000	0.621764	0.736326	0.115295	-1.000000	-1.000000	-1.000000	-1.000000	-1.000000	-1.000000	-1.000000	75.586207	0.000000	-1.000000	-1.000000	1831597.000000	1770065159.998140
-3068.415000	-8052.435000	-31.545000	13247.955000	-2531.520000	-3550.455000	8373.960000	-3552.615000	148.076324	178.800242	174.912588	210.670458	178.975539	125.731985	-103.523256	86.738001	-19.639620	9.186520	17.549000	0.621764	0.736326	0.115295	-1.000000	-1.000000	-1.000000	-1.000000	-1.000000	-1.000000	-1.000000	75.586207	0.000000	-1.000000	-1.000000	1831598.000000	1770065159.998148
-3009.240000	-7977.915000	27.855000	13298.175000	-2479.590000	-3501.990000	8376.210000	-3583.125000	321.013069	363.059163	359.864579	380.518414	346.070414	284.144460	61.753507	244.230449	-19.639620	9.186520	17.549000	0.621764	0.736326	0.115295	-1.000000	-1.000000	-1.000000	-1.000000	-1.000000	-1.000000	-1.000000	75.586207	0.000000	-1.000000	-1.000000	1831599.000000	1770065160.004207
-2827.935000	-7773.615000	283.815000	13558.680000	-2227.365000	-3279.870000	8488.080000	-3479.715000	342.492465	380.904992	377.181857	367.994481	348.165865	305.010290	164.399632	285.781151	-19.639620	9.186520	17.549000	0.621764	0.736326	0.115295	-1.000000	-1.000000	-1.000000	-1.000000	-1.000000	-1.000000	-1.000000	75.586207	0.000000	-1.000000	-1.000000	1831600.000000	1770065160.004213
-2637.945000	-7559.235000	493.605000	13753.485000	-2034.045000	-3086.145000	8549.820000	-3340.305000	247.531149	270.773133	267.918346	232.332330	234.118554	221.021762	188.275148	223.588394	-27.162800	53.898320	29.909600	0.662230	0.761778	0.115356	-1.000000	-1.000000	-1.000000	-1.000000	-1.000000	-1.000000	-1.000000	75.586207	0.000000	-1.000000	-1.000000	1831601.000000	1770065160.008942
-2462.940000	-7400.475000	642.780000	13898.430000	-1890.945000	-2957.040000	8242.740000	-3183.165000	109.876924	113.013485	113.828717	71.057875	88.083699	99.357052	144.063439	110.252983	-27.162800	53.898320	29.909600	0.662230	0.761778	0.115356	-1.000000	-1.000000	-1.000000	-1.000000	-1.000000	-1.000000	-1.000000	75.586207	0.000000	-1.000000	-1.000000	1831602.000000	1770065160.008952
-2526.975000	-7528.005000	470.160000	13730.220000	-2060.100000	-3121.155000	8248.635000	-3175.740000	-14.747079	-32.197880	-29.233304	-59.303244	-38.610061	-16.196605	38.488667	-2.628469	-27.162800	53.898320	29.909600	0.662230	0.761778	0.115356	-1.000000	-1.000000	-1.000000	-1.000000	-1.000000	-1.000000	-1.000000	75.586207	0.000000	-1.000000	-1.000000	1831603.000000	1770065160.012173
-2878.515000	-7899.885000	106.200000	13352.445000	-2396.160000	-3389.715000	8482.095000	-3307.230000	-106.840298	-142.426716	-143.322972	-155.580365	-136.543829	-112.254090	-82.369096	-83.951784	-27.162800	53.898320	29.909600	0.662230	0.761778	0.115356	-1.000000	-1.000000	-1.000000	-1.000000	-1.000000	-1.000000	-1.000000	75.586207	0.000000	-1.000000	-1.000000	1831604.000000	1770065160.012202
-3164.265000	-8210.070000	-187.740000	12996.855000	-2720.340000	-3693.240000	8207.505000	-3409.740000	-178.877626	-224.526037	-233.149485	-237.546156	-216.812784	-189.839699	-143.463471	-133.360739	-27.162800	53.898320	29.909600	0.662230	0.761778	0.115356	-1.000000	-1.000000	-1.000000	-1.000000	-1.000000	-1.000000	-1.000000	75.586207	0.000000	-1.000000	-1.000000	1831605.000000	1770065160.014317
-3161.385000	-8200.035000	-189.135000	13003.785000	-2722.320000	-3697.380000	8082.900000	-3662.955000	-235.492280	-277.851437	-291.312307	-298.317607	-273.450112	-240.708498	-126.715468	-165.093855	-27.162800	53.898320	29.909600	0.662230	0.761778	0.115356	-1.000000	-1.000000	-1.000000	-1.000000	-1.000000	-1.000000	-1.000000	75.586207	0.000000	-1.000000	-1.000000	1831606.000000	1770065160.014327
-3089.790000	-8126.415000	-119.025000	13103.910000	-2648.655000	-3619.305000	8233.380000	-3625.740000	-245.008558	-270.860589	-282.213821	-290.247933	-268.366029	-236.167494	-74.290294	-180.541997	-27.162800	53.898320	29.909600	0.662230	0.761778	0.115356	-1.000000	-1.000000	-1.000000	-1.000000	-1.000000	-1.000000	-1.000000	75.586207	0.000000	-1.000000	-1.000000	1831607.000000	1770065160.019520
-2997.405000	-8042.490000	-14.580000	13220.820000	-2564.730000	-3541.455000	8361.405000	-3532.635000	-173.740345	-175.580911	-178.914427	-176.712458	-170.981276	-153.162239	-16.975329	-157.882473	-27.162800	53.898320	29.909600	0.662230	0.761778	0.115356	-1.000000	-1.000000	-1.000000	-1.000000	-1.000000	-1.000000	-1.000000	75.586207	0.000000	-1.000000	-1.000000	1831608.000000	1770065160.019555
-2896.515000	-7933.455000	91.530000	13322.160000	-2473.830000	-3458.340000	8404.515000	-3479.040000	-33.346310	-12.537745	-6.052487	14.824425	-3.737040	-10.171561	40.193126	-78.037903	-27.162800	53.898320	29.909600	0.662230	0.761778	0.115356	-1.000000	-1.000000	-1.000000	-1.000000	-1.000000	-1.000000	-1.000000	75.586207	0.000000	-1.000000	-1.000000	1831609.000000	1770065160.022971
-2797.965000	-7812.450000	207.720000	13474.350000	-2300.040000	-3265.380000	8528.355000	-3535.290000	117.405657	152.097368	165.380702	202.871410	164.486839	135.327638	88.371439	35.385967	-27.162800	53.898320	29.909600	0.662230	0.761778	0.115356	-1.000000	-1.000000	-1.000000	-1.000000	-1.000000	-1.000000	-1.000000	75.586207	0.000000	-1.000000	-1.000000	1831610.000000	1770065160.022984
-2877.480000	-7905.240000	154.395000	13388.580000	-2371.140000	-3311.865000	8463.555000	-3494.115000	211.538066	248.976684	264.087266	306.792427	264.491153	224.859376	110.962125	127.463010	-32.931080	47.199180	-4.120200	0.803526	0.725523	0.098816	-1.000000	-1.000000	-1.000000	-1.000000	-1.000000	-1.000000	-1.000000	75.586207	0.000000	-1.000000	-1.000000	1831611.000000	1770065160.026330
-2975.310000	-8006.265000	52.200000	13288.905000	-2473.740000	-3442.050000	8394.930000	-3463.380000	217.217654	248.199232	261.995669	293.056872	265.558130	231.072733	94.433452	163.373542	-32.931080	47.199180	-4.120200	0.803526	0.725523	0.098816	-1.000000	-1.000000	-1.000000	-1.000000	-1.000000	-1.000000	-1.000000	75.586207	0.000000	-1.000000	-1.000000	1831612.000000	1770065160.026347
-2925.675000	-7951.455000	89.640000	13332.060000	-2439.405000	-3408.615000	8387.505000	-3528.855000	153.433214	172.660542	182.828166	188.046643	185.775362	166.236769	39.291725	145.652384	-32.931080	47.199180	-4.120200	0.803526	0.725523	0.098816	-1.000000	-1.000000	-1.000000	-1.000000	-1.000000	-1.000000	-1.000000	75.586207	0.000000	-1.000000	-1.000000	1831613.000000	1770065160.030295
-2908.845000	-7940.115000	91.305000	13324.140000	-2453.805000	-3430.080000	8404.605000	-3466.215000	67.526350	73.295307	75.792342	54.078034	73.396574	69.746770	-28.051953	95.330457	-32.931080	47.199180	-4.120200	0.803526	0.725523	0.098816	-1.000000	-1.000000	-1.000000	-1.000000	-1.000000	-1.000000	-1.000000	75.586207	0.000000	-1.000000	-1.000000	1831614.000000	1770065160.030320
-2991.510000	-8067.465000	-48.645000	13180.230000	-2601.855000	-3610.980000	8247.510000	-3496.455000	-6.360885	-14.219534	-22.545370	-58.808769	-31.062177	-23.690344	-73.747357	36.870819	-32.931080	47.199180	-4.120200	0.803526	0.725523	0.098816	-1.000000	-1.000000	-1.000000	-1.000000	-1.000000	-1.000000	-1.000000	75.586207	0.000000	-1.000000	-1.000000	1831615.000000	1770065160.034222
-2974.635000	-7996.140000	35.955000	13270.410000	-2514.690000	-3523.995000	8297.595000	-3542.850000	-62.376156	-82.244840	-99.337759	-134.188615	-110.793198	-99.216542	-88.535452	-14.097711	-32.931080	47.199180	-4.120200	0.803526	0.725523	0.098816	-1.000000	-1.000000	-1.000000	-1.000000	-1.000000	-1.000000	-1.000000	75.586207	0.000000	-1.000000	-1.000000	1831616.000000	1770065160.034232
-2827.170000	-7823.970000	200.205000	13422.330000	-2380.905000	-3408.840000	8394.570000	-3521.295000	-99.805260	-124.829228	-143.916438	-166.248083	-153.458676	-142.762572	-79.063741	-54.507559	-32.931080	47.199180	-4.120200	0.803526	0.725523	0.098816	-1.000000	-1.000000	-1.000000	-1.000000	-1.000000	-1.000000	-1.000000	75.586207	0.000000	-1.000000	-1.000000	1831617.000000	1770065160.038098
-2788.020000	-7748.145000	292.725000	13529.115000	-2255.850000	-3282.480000	8364.960000	-3475.215000	-110.115499	-129.448442	-143.039176	-148.908527	-146.769119	-138.518276	-49.691524	-81.079555	-32.931080	47.199180	-4.120200	0.803526	0.725523	0.098816	-1.000000	-1.000000	-1.000000	-1.000000	-1.000000	-1.000000	-1.000000	75.586207	0.000000	-1.000000	-1.000000	1831618.000000	1770065160.038108
-2634.120000	-7584.210000	473.805000	13723.785000	-2051.145000	-3089.610000	8546.580000	-3350.655000	-88.970326	-94.929318	-97.945121	-89.166686	-94.421071	-88.272585	-7.118153	-84.106167	-32.931080	47.199180	-4.120200	0.803526	0.725523	0.098816	-1.000000	-1.000000	-1.000000	-1.000000	-1.000000	-1.000000	-1.000000	75.586207	0.000000	-1.000000	-1.000000	1831619.000000	1770065160.042155
-2696.085000	-7686.000000	345.015000	13579.470000	-2206.305000	-3224.655000	8608.860000	-3315.015000	-41.715377	-34.745176	-26.940367	-9.162630	-17.661428	-13.068754	39.879793	-57.807188	-32.931080	47.199180	-4.120200	0.803526	0.725523	0.098816	-1.000000	-1.000000	-1.000000	-1.000000	-1.000000	-1.000000	-1.000000	75.586207	0.000000	-1.000000	-1.000000	1831620.000000	1770065160.042165
-2753.280000	-7743.465000	279.540000	13514.670000	-2263.815000	-3246.210000	8616.960000	-3326.715000	15.755693	28.000097	41.117133	59.813472	51.656638	56.365270	79.333770	-12.496360	-12.299560	20.814640	-29.100820	0.804869	0.633848	0.117248	-1.000000	-1.000000	-1.000000	-1.000000	-1.000000	-1.000000	-1.000000	75.586207	0.000000	-1.000000	-1.000000	1831621.000000	1770065160.050094
-2861.775000	-7915.005000	87.750000	13312.710000	-2445.120000	-3427.920000	8356.770000	-3423.195000	57.178893	64.698806	75.446642	87.582607	82.456909	89.998402	89.971875	28.148968	-12.299560	20.814640	-29.100820	0.804869	0.633848	0.117248	-1.000000	-1.000000	-1.000000	-1.000000	-1.000000	-1.000000	-1.000000	75.586207	0.000000	-1.000000	-1.000000	1831622.000000	1770065160.050105
