Channel1	Channel2	Channel3	Channel4	Channel5	Channel6	Channel7	Channel8	FilteredChannel1	FilteredChannel2	FilteredChannel3	FilteredChannel4	FilteredChannel5	FilteredChannel6	FilteredChannel7	FilteredChannel8	GyroX	GyroY	GyroZ	AccX	AccY	AccZ	PPG1	PPG2	rawPPG1	rawPPG2	rawPPG3	Hr	Hrv	Battery	Trigger	PhysicalTrigger	AutoTrigger	NumMeasurements	Timestamp
-3373.245000	-7799.220000	224.640000	13428.270000	-2596.185000	-3693.465000	8223.570000	-3544.605000	-25.891608	-23.561244	-22.364153	-21.255096	-19.239856	-17.610978	-12.002143	-9.035584	-3.647140	4.837420	-3.860780	0.679014	0.714781	0.094543	-1.000000	-1.000000	-1.000000	-1.000000	-1.000000	-1.000000	-1.000000	75.310345	0.000000	-1.000000	-1.000000	1843981.000000	1770065184.782839
-3399.120000	-7843.365000	178.920000	13381.830000	-2643.030000	-3739.140000	8209.620000	-3578.040000	-14.450156	-13.513357	-11.966888	-10.151525	-8.900694	-10.192520	-2.310729	-1.261372	-3.647140	4.837420	-3.860780	0.679014	0.714781	0.094543	-1.000000	-1.000000	-1.000000	-1.000000	-1.000000	-1.000000	-1.000000	75.310345	0.000000	-1.000000	-1.000000	1843982.000000	1770065184.782845
-3378.690000	-7819.650000	200.565000	13399.965000	-2631.285000	-3738.510000	8222.490000	-3586.860000	5.207477	4.569291	5.852355	7.673103	7.399919	3.273428	8.261193	8.015823	-3.647140	4.837420	-3.860780	0.679014	0.714781	0.094543	-1.000000	-1.000000	-1.000000	-1.000000	-1.000000	-1.000000	-1.000000	75.310345	0.000000	-1.000000	-1.000000	1843983.000000	1770065184.787547
-3358.440000	-7790.130000	234.225000	13432.905000	-2595.600000	-3712.005000	8229.285000	-3549.555000	22.135533	19.953821	20.447193	21.402768	19.494050	14.434752	14.768396	14.175585	-3.647140	4.837420	-3.860780	0.679014	0.714781	0.094543	-1.000000	-1.000000	-1.000000	-1.000000	-1.000000	-1.000000	-1.000000	75.310345	0.000000	-1.000000	-1.000000	1843984.000000	1770065184.787558
-3327.840000	-7751.070000	273.060000	13471.470000	-2555.595000	-3681.900000	8224.695000	-3535.290000	29.820603	27.496852	27.151656	26.628910	23.712730	19.447322	16.034880	15.505847	-3.647140	4.837420	-3.860780	0.679014	0.714781	0.094543	-1.000000	-1.000000	-1.000000	-1.000000	-1.000000	-1.000000	-1.000000	75.310345	0.000000	-1.000000	-1.000000	1843985.000000	1770065184.789452
-3327.615000	-7742.880000	283.005000	13481.055000	-2549.070000	-3666.285000	8236.305000	-3564.585000	27.950466	27.627813	26.823464	24.924453	22.157652	19.397408	13.761923	12.917151	-3.647140	4.837420	-3.860780	0.679014	0.714781	0.094543	-1.000000	-1.000000	-1.000000	-1.000000	-1.000000	-1.000000	-1.000000	75.310345	0.000000	-1.000000	-1.000000	1843986.000000	1770065184.789462
-3382.515000	-7811.910000	211.545000	13409.145000	-2624.445000	-3723.300000	8240.670000	-3561.885000	19.624354	22.461319	21.576638	19.069863	17.290545	16.631007	10.316816	7.731459	-3.647140	4.837420	-3.860780	0.679014	0.714781	0.094543	-1.000000	-1.000000	-1.000000	-1.000000	-1.000000	-1.000000	-1.000000	75.310345	0.000000	-1.000000	-1.000000	1843987.000000	1770065184.801888
-3405.645000	-7841.340000	179.280000	13372.740000	-2666.880000	-3761.820000	8224.020000	-3576.600000	8.291171	13.041659	12.157154	9.851127	8.789608	11.176680	7.019296	1.711452	-3.647140	4.837420	-3.860780	0.679014	0.714781	0.094543	-1.000000	-1.000000	-1.000000	-1.000000	-1.000000	-1.000000	-1.000000	75.310345	0.000000	-1.000000	-1.000000	1843988.000000	1770065184.801901
-3356.325000	-7786.125000	233.910000	13425.030000	-2610.045000	-3716.955000	8236.035000	-3563.010000	-3.984006	-0.387613	-1.320927	-2.954998	-3.990379	1.421275	2.940693	-3.476616	-3.647140	4.837420	-3.860780	0.679014	0.714781	0.094543	-1.000000	-1.000000	-1.000000	-1.000000	-1.000000	-1.000000	-1.000000	75.310345	0.000000	-1.000000	-1.000000	1843989.000000	1770065184.801916
-3320.415000	-7740.720000	281.520000	13477.410000	-2550.150000	-3668.670000	8263.440000	-3514.455000	-14.442694	-14.230525	-15.027049	-15.585612	-16.233668	-9.981409	-3.107156	-6.325116	-3.647140	4.837420	-3.860780	0.679014	0.714781	0.094543	-1.000000	-1.000000	-1.000000	-1.000000	-1.000000	-1.000000	-1.000000	75.310345	0.000000	-1.000000	-1.000000	1843990.000000	1770065184.801921
-3286.125000	-7698.015000	327.195000	13524.885000	-2509.020000	-3634.650000	8300.835000	-3412.575000	-18.545263	-21.110566	-21.281102	-20.223664	-19.179538	-15.281197	-9.075752	-3.758805	-2.853620	6.332900	-3.341940	0.680601	0.714903	0.096130	-1.000000	-1.000000	-1.000000	-1.000000	-1.000000	-1.000000	-1.000000	75.310345	0.000000	-1.000000	-1.000000	1843991.000000	1770065184.801927
-3343.815000	-7774.515000	248.805000	13447.845000	-2582.460000	-3694.995000	8242.920000	-3519.450000	-15.625926	-18.746630	-17.887678	-15.007170	-11.652663	-11.530392	-12.195689	3.999552	-2.853620	6.332900	-3.341940	0.680601	0.714903	0.096130	-1.000000	-1.000000	-1.000000	-1.000000	-1.000000	-1.000000	-1.000000	75.310345	0.000000	-1.000000	-1.000000	1843992.000000	1770065184.801932
-3398.130000	-7850.700000	170.460000	13373.370000	-2648.745000	-3752.730000	8179.830000	-3600.450000	-12.261183	-15.307916	-13.702140	-9.681911	-4.864445	-6.727700	-14.076597	6.268743	-2.853620	6.332900	-3.341940	0.680601	0.714903	0.096130	-1.000000	-1.000000	-1.000000	-1.000000	-1.000000	-1.000000	-1.000000	75.310345	0.000000	-1.000000	-1.000000	1843993.000000	1770065184.805056
-3389.670000	-7827.930000	198.135000	13403.430000	-2616.255000	-3734.370000	8204.985000	-3624.390000	-13.929687	-18.152821	-16.694725	-12.909446	-8.237198	-9.175694	-16.576822	-6.330715	-2.853620	6.332900	-3.341940	0.680601	0.714903	0.096130	-1.000000	-1.000000	-1.000000	-1.000000	-1.000000	-1.000000	-1.000000	75.310345	0.000000	-1.000000	-1.000000	1843994.000000	1770065184.805066
-3371.265000	-7803.360000	221.085000	13422.690000	-2603.835000	-3735.990000	8241.480000	-3600.765000	-15.905473	-21.089047	-20.468023	-18.325512	-15.366697	-15.027264	-15.500789	-25.186859	-2.853620	6.332900	-3.341940	0.680601	0.714903	0.096130	-1.000000	-1.000000	-1.000000	-1.000000	-1.000000	-1.000000	-1.000000	75.310345	0.000000	-1.000000	-1.000000	1843995.000000	1770065184.807746
-3363.255000	-7796.835000	226.080000	13425.210000	-2605.320000	-3727.710000	8245.845000	-3567.150000	-8.222609	-11.325800	-11.622456	-12.063769	-12.037220	-12.983185	-5.688480	-31.630644	-2.853620	6.332900	-3.341940	0.680601	0.714903	0.096130	-1.000000	-1.000000	-1.000000	-1.000000	-1.000000	-1.000000	-1.000000	75.310345	0.000000	-1.000000	-1.000000	1843996.000000	1770065184.807757
-3356.415000	-7786.665000	236.880000	13439.700000	-2585.790000	-3696.705000	8246.115000	-3554.415000	10.237456	12.237675	11.389061	8.432747	5.263345	1.400563	10.427396	-17.004744	-2.853620	6.332900	-3.341940	0.680601	0.714903	0.096130	-1.000000	-1.000000	-1.000000	-1.000000	-1.000000	-1.000000	-1.000000	75.310345	0.000000	-1.000000	-1.000000	1843997.000000	1770065184.821348
-3339.045000	-7761.465000	261.720000	13463.370000	-2561.355000	-3675.015000	8245.530000	-3551.670000	27.609858	34.661580	33.806002	29.669509	24.545565	19.766324	23.324653	9.810833	-2.853620	6.332900	-3.341940	0.680601	0.714903	0.096130	-1.000000	-1.000000	-1.000000	-1.000000	-1.000000	-1.000000	-1.000000	75.310345	0.000000	-1.000000	-1.000000	1843998.000000	1770065184.821360
-3338.865000	-7765.470000	255.060000	13454.145000	-2572.695000	-3682.395000	8231.085000	-3554.505000	31.021930	39.853922	39.309087	35.722916	30.706968	28.784987	24.151021	30.480822	-2.853620	6.332900	-3.341940	0.680601	0.714903	0.096130	-1.000000	-1.000000	-1.000000	-1.000000	-1.000000	-1.000000	-1.000000	75.310345	0.000000	-1.000000	-1.000000	1843999.000000	1770065184.821374
-3373.515000	-7808.400000	210.735000	13408.380000	-2618.685000	-3724.380000	8197.695000	-3592.215000	18.062591	24.299058	23.943930	21.885861	18.712493	21.757972	11.602350	31.852247	-2.853620	6.332900	-3.341940	0.680601	0.714903	0.096130	-1.000000	-1.000000	-1.000000	-1.000000	-1.000000	-1.000000	-1.000000	75.310345	0.000000	-1.000000	-1.000000	1844000.000000	1770065184.821379
-3372.345000	-7800.885000	219.960000	13416.750000	-2610.675000	-3718.665000	8217.900000	-3568.230000	-2.640790	-1.592603	-1.967359	-2.475097	-3.076266	3.656424	-5.918063	16.686536	-2.456860	5.112100	-0.701960	0.678953	0.714720	0.095337	-1.000000	-1.000000	-1.000000	-1.000000	-1.000000	-1.000000	-1.000000	75.310345	0.000000	-1.000000	-1.000000	1844001.000000	1770065184.821385
-3368.565000	-7781.580000	244.440000	13446.270000	-2583.135000	-3693.330000	8240.400000	-3549.600000	-18.002016	-21.066866	-21.303748	-20.714558	-19.328465	-12.774752	-15.385969	0.424738	-2.456860	5.112100	-0.701960	0.678953	0.714720	0.095337	-1.000000	-1.000000	-1.000000	-1.000000	-1.000000	-1.000000	-1.000000	75.310345	0.000000	-1.000000	-1.000000	1844002.000000	1770065184.821391
-3360.105000	-7780.590000	248.085000	13444.245000	-2579.715000	-3683.295000	8236.035000	-3554.055000	-20.337152	-24.305492	-23.974835	-22.770212	-20.675552	-17.765801	-11.345619	-5.211606	-2.456860	5.112100	-0.701960	0.678953	0.714720	0.095337	-1.000000	-1.000000	-1.000000	-1.000000	-1.000000	-1.000000	-1.000000	75.310345	0.000000	-1.000000	-1.000000	1844003.000000	1770065184.825255
-3348.765000	-7784.415000	247.500000	13436.730000	-2587.815000	-3693.600000	8234.910000	-3569.895000	-11.429852	-14.477066	-13.336562	-12.007545	-9.943482	-11.417469	-0.854946	-2.550194	-2.456860	5.112100	-0.701960	0.678953	0.714720	0.095337	-1.000000	-1.000000	-1.000000	-1.000000	-1.000000	-1.000000	-1.000000	75.310345	0.000000	-1.000000	-1.000000	1844004.000000	1770065184.825267
-3351.915000	-7782.165000	245.745000	13441.500000	-2591.010000	-3703.050000	8222.085000	-3578.805000	1.627462	-0.907371	0.801691	1.818104	3.739099	-0.923036	6.138287	-1.103210	-2.456860	5.112100	-0.701960	0.678953	0.714720	0.095337	-1.000000	-1.000000	-1.000000	-1.000000	-1.000000	-1.000000	-1.000000	75.310345	0.000000	-1.000000	-1.000000	1844005.000000	1770065184.831066
-3353.580000	-7771.005000	246.555000	13448.925000	-2588.985000	-3696.345000	8199.270000	-3544.920000	10.671709	8.116318	9.502577	10.310145	11.637899	5.345300	5.500368	-5.170302	-2.456860	5.112100	-0.701960	0.678953	0.714720	0.095337	-1.000000	-1.000000	-1.000000	-1.000000	-1.000000	-1.000000	-1.000000	75.310345	0.000000	-1.000000	-1.000000	1844006.000000	1770065184.831076
-3346.200000	-7778.115000	232.605000	13444.785000	-2583.315000	-3677.085000	8208.045000	-3533.265000	10.519996	8.360728	8.124587	9.444987	9.480047	3.691393	-0.906897	-10.791166	-2.456860	5.112100	-0.701960	0.678953	0.714720	0.095337	-1.000000	-1.000000	-1.000000	-1.000000	-1.000000	-1.000000	-1.000000	75.310345	0.000000	-1.000000	-1.000000	1844007.000000	1770065184.831750
-3338.235000	-7783.020000	218.745000	13421.745000	-2583.810000	-3682.620000	8261.910000	-3522.195000	2.949806	1.503006	-1.102221	1.193596	0.476538	-2.209759	-6.716421	-12.374369	-2.456860	5.112100	-0.701960	0.678953	0.714720	0.095337	-1.000000	-1.000000	-1.000000	-1.000000	-1.000000	-1.000000	-1.000000	75.310345	0.000000	-1.000000	-1.000000	1844008.000000	1770065184.831756
-3349.125000	-7783.920000	207.630000	13408.605000	-2577.555000	-3679.740000	8240.490000	-3565.395000	-5.004326	-5.788872	-10.246973	-7.749470	-7.020208	-5.561437	-5.427301	-8.392896	-2.456860	5.112100	-0.701960	0.678953	0.714720	0.095337	-1.000000	-1.000000	-1.000000	-1.000000	-1.000000	-1.000000	-1.000000	75.310345	0.000000	-1.000000	-1.000000	1844009.000000	1770065184.838212
-3339.900000	-7786.080000	150.840000	13357.530000	-2579.040000	-3675.645000	8203.320000	-3566.340000	-7.515842	-7.346640	-12.820247	-11.714009	-7.211599	-3.078316	1.722103	-1.824840	-2.456860	5.112100	-0.701960	0.678953	0.714720	0.095337	-1.000000	-1.000000	-1.000000	-1.000000	-1.000000	-1.000000	-1.000000	75.310345	0.000000	-1.000000	-1.000000	1844010.000000	1770065184.838222
-3316.365000	-7774.155000	84.420000	13247.685000	-2582.640000	-3631.410000	8098.920000	-3534.345000	-3.920245	-2.913460	-10.355042	-12.108896	-2.016148	3.023445	5.216746	3.641193	-3.143560	4.394880	-0.503580	0.675902	0.715941	0.095276	-1.000000	-1.000000	-1.000000	-1.000000	-1.000000	-1.000000	-1.000000	75.310345	0.000000	-1.000000	-1.000000	1844011.000000	1770065184.841227
-3274.515000	-7735.770000	141.345000	13260.015000	-2540.115000	-3549.870000	7999.920000	-3501.855000	2.921348	3.811940	-7.101053	-13.183930	3.327258	9.656383	-3.123723	7.625255	-3.143560	4.394880	-0.503580	0.675902	0.715941	0.095276	-1.000000	-1.000000	-1.000000	-1.000000	-1.000000	-1.000000	-1.000000	75.310345	0.000000	-1.000000	-1.000000	1844012.000000	1770065184.841235
-3289.905000	-7747.830000	178.920000	13328.100000	-2540.565000	-3591.540000	8017.965000	-3500.595000	9.140606	9.715305	-0.986728	-11.392801	6.975171	15.112246	-19.591607	11.034609	-3.143560	4.394880	-0.503580	0.675902	0.715941	0.095276	-1.000000	-1.000000	-1.000000	-1.000000	-1.000000	-1.000000	-1.000000	75.310345	0.000000	-1.000000	-1.000000	1844013.000000	1770065184.843834
-3325.905000	-7785.720000	89.010000	13295.295000	-2559.555000	-3613.230000	8041.995000	-3484.305000	10.074529	11.258168	9.612896	-0.196254	8.345192	14.927177	-28.609929	12.310855	-3.143560	4.394880	-0.503580	0.675902	0.715941	0.095276	-1.000000	-1.000000	-1.000000	-1.000000	-1.000000	-1.000000	-1.000000	75.310345	0.000000	-1.000000	-1.000000	1844014.000000	1770065184.843849
-3313.845000	-7789.545000	67.185000	13328.505000	-2577.690000	-3658.050000	8181.495000	-3465.810000	3.051603	5.044230	17.099228	16.800939	4.906977	4.007467	-15.994274	8.931775	-3.143560	4.394880	-0.503580	0.675902	0.715941	0.095276	-1.000000	-1.000000	-1.000000	-1.000000	-1.000000	-1.000000	-1.000000	75.310345	0.000000	-1.000000	-1.000000	1844015.000000	1770065184.856207
-3306.375000	-7779.915000	117.990000	13391.010000	-2591.145000	-3688.740000	8302.320000	-3488.355000	-8.206829	-6.381316	15.281092	30.182552	-3.803076	-15.455519	18.122489	0.600324	-3.143560	4.394880	-0.503580	0.675902	0.715941	0.095276	-1.000000	-1.000000	-1.000000	-1.000000	-1.000000	-1.000000	-1.000000	75.310345	0.000000	-1.000000	-1.000000	1844016.000000	1770065184.856218
-3320.280000	-7788.510000	109.485000	13324.095000	-2603.655000	-3671.370000	8144.415000	-3544.695000	-16.072947	-14.830630	8.905660	34.305763	-13.156648	-32.506207	54.141838	-10.336924	-3.143560	4.394880	-0.503580	0.675902	0.715941	0.095276	-1.000000	-1.000000	-1.000000	-1.000000	-1.000000	-1.000000	-1.000000	75.310345	0.000000	-1.000000	-1.000000	1844017.000000	1770065184.856230
-3310.020000	-7743.195000	224.955000	13335.615000	-2577.555000	-3637.440000	7963.920000	-3549.105000	-15.582797	-13.803182	6.582049	26.782728	-16.561092	-34.401464	61.386091	-19.288672	-3.143560	4.394880	-0.503580	0.675902	0.715941	0.095276	-1.000000	-1.000000	-1.000000	-1.000000	-1.000000	-1.000000	-1.000000	75.310345	0.000000	-1.000000	-1.000000	1844018.000000	1770065184.856236
-3272.265000	-7672.590000	328.860000	13439.880000	-2530.395000	-3550.770000	7942.365000	-3494.160000	-6.916906	-2.504897	13.663282	11.711075	-10.158336	-16.595390	26.783141	-20.409730	-3.143560	4.394880	-0.503580	0.675902	0.715941	0.095276	-1.000000	-1.000000	-1.000000	-1.000000	-1.000000	-1.000000	-1.000000	75.310345	0.000000	-1.000000	-1.000000	1844019.000000	1770065184.856241
-3238.155000	-7682.310000	260.820000	13414.950000	-2556.765000	-3538.665000	7955.775000	-3500.190000	5.623558	13.284564	26.068955	-0.219202	3.385368	12.174020	-25.846169	-11.335149	-3.143560	4.394880	-0.503580	0.675902	0.715941	0.095276	-1.000000	-1.000000	-1.000000	-1.000000	-1.000000	-1.000000	-1.000000	75.310345	0.000000	-1.000000	-1.000000	1844020.000000	1770065184.856246
-3298.815000	-7723.890000	206.910000	13369.950000	-2565.045000	-3618.270000	8203.455000	-3482.010000	14.797922	22.266462	26.979574	-6.261231	14.865059	33.657896	-54.426150	2.985399	-1.297100	-3.341940	0.503580	0.676695	0.714415	0.094787	-1.000000	-1.000000	-1.000000	-1.000000	-1.000000	-1.000000	-1.000000	75.310345	0.000000	-1.000000	-1.000000	1844021.000000	1770065184.862562
-3328.200000	-7759.170000	127.755000	13290.480000	-2609.415000	-3726.765000	8107.380000	-3507.255000	14.051064	16.049670	3.234893	-15.409249	15.959709	32.464858	-37.679320	14.143004	-1.297100	-3.341940	0.503580	0.676695	0.714415	0.094787	-1.000000	-1.000000	-1.000000	-1.000000	-1.000000	-1.000000	-1.000000	75.310345	0.000000	-1.000000	-1.000000	1844022.000000	1770065184.862572
-3220.245000	-7667.730000	182.295000	13324.095000	-2506.185000	-3555.135000	8094.240000	-3514.950000	5.433740	-0.751555	-34.677103	-31.380204	8.019821	11.701498	3.419248	16.261112	-1.297100	-3.341940	0.503580	0.676695	0.714415	0.094787	-1.000000	-1.000000	-1.000000	-1.000000	-1.000000	-1.000000	-1.000000	75.310345	0.000000	-1.000000	-1.000000	1844023.000000	1770065184.865445
-3287.070000	-7766.820000	53.235000	13159.890000	-2592.000000	-3666.735000	8187.030000	-3447.315000	-1.922416	-15.277350	-61.744634	-46.301592	-0.282346	-8.676438	29.866718	9.985643	-1.297100	-3.341940	0.503580	0.676695	0.714415	0.094787	-1.000000	-1.000000	-1.000000	-1.000000	-1.000000	-1.000000	-1.000000	75.310345	0.000000	-1.000000	-1.000000	1844024.000000	1770065184.865456
-3310.155000	-7797.150000	-13.725000	13030.380000	-2629.620000	-3705.435000	7949.520000	-3436.875000	-4.809051	-21.601998	-65.090140	-53.439136	-5.012494	-15.965953	22.159303	3.131666	-1.297100	-3.341940	0.503580	0.676695	0.714415	0.094787	-1.000000	-1.000000	-1.000000	-1.000000	-1.000000	-1.000000	-1.000000	75.310345	0.000000	-1.000000	-1.000000	1844025.000000	1770065184.867747
-3233.295000	-7694.100000	56.340000	13052.925000	-2580.930000	-3500.865000	7521.255000	-3461.940000	-5.389469	-20.218164	-47.671791	-48.608430	-7.785888	-11.372573	-15.780103	2.532780	-1.297100	-3.341940	0.503580	0.676695	0.714415	0.094787	-1.000000	-1.000000	-1.000000	-1.000000	-1.000000	-1.000000	-1.000000	75.310345	0.000000	-1.000000	-1.000000	1844026.000000	1770065184.867756
-3161.655000	-7604.640000	160.830000	13223.610000	-2553.390000	-3489.795000	7724.790000	-3369.825000	-1.933026	-9.328704	-15.175098	-23.571580	-7.702556	2.459371	-60.544995	6.971785	-1.297100	-3.341940	0.503580	0.676695	0.714415	0.094787	-1.000000	-1.000000	-1.000000	-1.000000	-1.000000	-1.000000	-1.000000	75.310345	0.000000	-1.000000	-1.000000	1844027.000000	1770065184.872018
-3293.190000	-7785.270000	-82.440000	13144.770000	-2610.270000	-3702.915000	8208.225000	-3512.790000	4.282699	6.673634	21.081045	21.529443	-4.342035	14.639800	-66.730886	8.797834	-1.297100	-3.341940	0.503580	0.676695	0.714415	0.094787	-1.000000	-1.000000	-1.000000	-1.000000	-1.000000	-1.000000	-1.000000	75.310345	0.000000	-1.000000	-1.000000	1844028.000000	1770065184.872024
-3356.730000	-7870.815000	-78.930000	13053.690000	-2659.860000	-3820.365000	8398.485000	-3596.715000	3.063192	12.401756	42.474382	65.086759	-1.966743	6.046309	-3.693708	-1.351429	-1.297100	-3.341940	0.503580	0.676695	0.714415	0.094787	-1.000000	-1.000000	-1.000000	-1.000000	-1.000000	-1.000000	-1.000000	75.310345	0.000000	-1.000000	-1.000000	1844029.000000	1770065184.881287
-3315.015000	-7780.905000	90.360000	13232.070000	-2654.145000	-3768.435000	8215.155000	-3574.935000	-8.599501	2.561554	44.664710	83.180904	-3.082322	-21.491457	91.852737	-22.918607	-1.297100	-3.341940	0.503580	0.676695	0.714415	0.094787	-1.000000	-1.000000	-1.000000	-1.000000	-1.000000	-1.000000	-1.000000	75.310345	0.000000	-1.000000	-1.000000	1844030.000000	1770065184.881296
-3249.315000	-7658.775000	313.470000	13475.520000	-2566.260000	-3675.825000	8023.905000	-3516.795000	-17.541226	-6.383985	45.523732	77.191520	-3.260990	-39.134630	138.805468	-38.894693	19.410720	-22.523760	9.629060	0.677489	0.698912	0.096130	-1.000000	-1.000000	-1.000000	-1.000000	-1.000000	-1.000000	-1.000000	75.310345	0.000000	-1.000000	-1.000000	1844031.000000	1770065184.881307
-3190.365000	-7599.330000	340.380000	13406.265000	-2564.010000	-3541.140000	7582.725000	-3473.280000	-11.599028	1.887538	57.406397	62.071434	2.685755	-24.449979	87.360966	-32.108207	19.410720	-22.523760	9.629060	0.677489	0.698912	0.096130	-1.000000	-1.000000	-1.000000	-1.000000	-1.000000	-1.000000	-1.000000	75.310345	0.000000	-1.000000	-1.000000	1844032.000000	1770065184.881312
-3175.020000	-7595.100000	295.290000	13372.020000	-2549.745000	-3509.595000	7646.355000	-3482.865000	7.376476	24.011518	67.115494	39.684323	13.490317	17.677953	-40.202897	-4.588557	19.410720	-22.523760	9.629060	0.677489	0.698912	0.096130	-1.000000	-1.000000	-1.000000	-1.000000	-1.000000	-1.000000	-1.000000	75.310345	0.000000	-1.000000	-1.000000	1844033.000000	1770065184.885233
-3298.995000	-7710.795000	67.950000	13152.240000	-2636.820000	-3818.385000	8280.900000	-3519.675000	25.729992	40.488063	49.174550	2.810656	21.690618	56.835066	-147.693351	25.297338	19.410720	-22.523760	9.629060	0.677489	0.698912	0.096130	-1.000000	-1.000000	-1.000000	-1.000000	-1.000000	-1.000000	-1.000000	75.310345	0.000000	-1.000000	-1.000000	1844034.000000	1770065184.885241
-3397.680000	-7874.820000	-225.180000	12713.715000	-2684.835000	-3831.300000	8400.600000	-3548.340000	24.775807	28.418488	-12.252785	-54.579026	17.056866	53.938611	-130.668284	39.464995	19.410720	-22.523760	9.629060	0.677489	0.698912	0.096130	-1.000000	-1.000000	-1.000000	-1.000000	-1.000000	-1.000000	-1.000000	75.310345	0.000000	-1.000000	-1.000000	1844035.000000	1770065184.887928
-3408.885000	-7945.470000	-265.140000	12643.470000	-2702.475000	-3790.665000	8151.525000	-3528.765000	-1.471884	-17.224892	-102.021377	-127.380939	-3.313797	4.539576	-0.182358	31.951960	19.410720	-22.523760	9.629060	0.677489	0.698912	0.096130	-1.000000	-1.000000	-1.000000	-1.000000	-1.000000	-1.000000	-1.000000	75.310345	0.000000	-1.000000	-1.000000	1844036.000000	1770065184.887942
-3347.685000	-7812.765000	96.345000	13270.230000	-2599.380000	-3771.945000	8287.650000	-3534.345000	-32.188450	-65.788126	-161.262051	-170.023674	-25.151054	-46.906892	115.717765	12.581859	19.410720	-22.523760	9.629060	0.677489	0.698912	0.096130	-1.000000	-1.000000	-1.000000	-1.000000	-1.000000	-1.000000	-1.000000	75.310345	0.000000	-1.000000	-1.000000	1844037.000000	1770065184.893503
-3360.015000	-7768.215000	174.465000	13582.305000	-2564.820000	-3814.605000	8353.125000	-3563.235000	-38.370938	-73.117563	-130.164061	-116.113734	-27.606548	-56.544155	121.774473	-2.759521	19.410720	-22.523760	9.629060	0.677489	0.698912	0.096130	-1.000000	-1.000000	-1.000000	-1.000000	-1.000000	-1.000000	-1.000000	75.310345	0.000000	-1.000000	-1.000000	1844038.000000	1770065184.893513
-3369.330000	-7740.540000	263.160000	13379.895000	-2569.950000	-3782.070000	8327.700000	-3603.645000	-15.084484	-29.959309	-19.319801	26.987633	-7.177374	-23.823052	39.316495	-9.106407	19.410720	-22.523760	9.629060	0.677489	0.698912	0.096130	-1.000000	-1.000000	-1.000000	-1.000000	-1.000000	-1.000000	-1.000000	75.310345	0.000000	-1.000000	-1.000000	1844039.000000	1770065184.895770
-3371.220000	-7755.075000	99.585000	13191.075000	-2624.445000	-3826.440000	8347.905000	-3641.895000	15.974351	28.618046	92.981720	154.658685	16.434663	17.924606	-49.046909	-13.243249	19.410720	-22.523760	9.629060	0.677489	0.698912	0.096130	-1.000000	-1.000000	-1.000000	-1.000000	-1.000000	-1.000000	-1.000000	75.310345	0.000000	-1.000000	-1.000000	1844040.000000	1770065184.895779
-3363.660000	-7784.055000	65.025000	13203.045000	-2648.880000	-3839.850000	8283.060000	-3533.850000	31.881346	61.465182	134.811724	174.808852	21.959485	35.730844	-81.578284	-18.706374	46.588780	-9.980040	17.655820	0.697142	0.691527	0.100403	-1.000000	-1.000000	-1.000000	-1.000000	-1.000000	-1.000000	-1.000000	75.310345	0.000000	-1.000000	-1.000000	1844041.000000	1770065184.903895
-3340.395000	-7700.265000	264.060000	13406.220000	-2666.790000	-3851.820000	8207.370000	-3459.330000	28.267277	56.491338	99.984683	97.963779	7.923269	24.280698	-59.062691	-17.568283	46.588780	-9.980040	17.655820	0.697142	0.691527	0.100403	-1.000000	-1.000000	-1.000000	-1.000000	-1.000000	-1.000000	-1.000000	75.310345	0.000000	-1.000000	-1.000000	1844042.000000	1770065184.903902
-3368.340000	-7732.710000	228.105000	13289.760000	-2656.530000	-3845.340000	8227.305000	-3449.340000	16.479886	31.182131	39.301542	3.418330	-10.063466	4.934663	-27.954148	-1.986525	46.588780	-9.980040	17.655820	0.697142	0.691527	0.100403	-1.000000	-1.000000	-1.000000	-1.000000	-1.000000	-1.000000	-1.000000	75.310345	0.000000	-1.000000	-1.000000	1844043.000000	1770065184.905799
-3390.885000	-7835.445000	174.555000	13222.080000	-2600.595000	-3803.670000	8237.520000	-3529.845000	7.215365	6.541501	-0.568859	-47.405871	-16.018098	-2.167015	-19.965476	19.599419	46.588780	-9.980040	17.655820	0.697142	0.691527	0.100403	-1.000000	-1.000000	-1.000000	-1.000000	-1.000000	-1.000000	-1.000000	75.310345	0.000000	-1.000000	-1.000000	1844044.000000	1770065184.905806
-3375.585000	-7798.995000	240.795000	13315.680000	-2585.565000	-3778.245000	8177.130000	-3636.720000	1.868789	-10.201583	-14.231928	-51.220568	-6.016015	4.013926	-25.385103	27.236585	46.588780	-9.980040	17.655820	0.697142	0.691527	0.100403	-1.000000	-1.000000	-1.000000	-1.000000	-1.000000	-1.000000	-1.000000	75.310345	0.000000	-1.000000	-1.000000	1844045.000000	1770065184.907753
-3365.190000	-7782.390000	86.805000	13348.170000	-2569.590000	-3736.215000	8163.045000	-3596.670000	-2.472470	-20.080553	-24.426305	-43.670380	9.863122	14.081559	-25.505426	12.460559	46.588780	-9.980040	17.655820	0.697142	0.691527	0.100403	-1.000000	-1.000000	-1.000000	-1.000000	-1.000000	-1.000000	-1.000000	75.310345	0.000000	-1.000000	-1.000000	1844046.000000	1770065184.907759
-3280.680000	-7705.935000	-58.005000	13191.750000	-2555.640000	-3717.945000	8186.715000	-3526.965000	-6.000145	-24.226255	-52.828880	-56.054897	17.841083	19.710495	-14.295237	-10.342910	46.588780	-9.980040	17.655820	0.697142	0.691527	0.100403	-1.000000	-1.000000	-1.000000	-1.000000	-1.000000	-1.000000	-1.000000	75.310345	0.000000	-1.000000	-1.000000	1844047.000000	1770065184.916692
-3296.925000	-7710.750000	187.830000	13214.430000	-2547.630000	-3717.135000	8265.240000	-3524.265000	-6.620341	-22.683253	-90.193344	-80.911910	13.131666	15.150772	11.376298	-20.263867	46.588780	-9.980040	17.655820	0.697142	0.691527	0.100403	-1.000000	-1.000000	-1.000000	-1.000000	-1.000000	-1.000000	-1.000000	75.310345	0.000000	-1.000000	-1.000000	1844048.000000	1770065184.916703
-3325.680000	-7786.485000	117.810000	13136.895000	-2620.665000	-3705.210000	8155.035000	-3533.940000	-6.254849	-17.442712	-96.829207	-81.680377	0.428899	-1.032037	49.294234	-12.589558	46.588780	-9.980040	17.655820	0.697142	0.691527	0.100403	-1.000000	-1.000000	-1.000000	-1.000000	-1.000000	-1.000000	-1.000000	75.310345	0.000000	-1.000000	-1.000000	1844049.000000	1770065184.923711
-3268.890000	-7754.310000	-118.035000	12985.155000	-2627.550000	-3655.845000	8080.920000	-3505.275000	-8.728886	-12.275135	-54.643388	-42.075543	-13.015892	-21.195174	80.607497	-0.075992	46.588780	-9.980040	17.655820	0.697142	0.691527	0.100403	-1.000000	-1.000000	-1.000000	-1.000000	-1.000000	-1.000000	-1.000000	75.310345	0.000000	-1.000000	-1.000000	1844050.000000	1770065184.923718
-3305.655000	-7805.655000	-246.420000	12997.620000	-2609.865000	-3708.090000	8281.755000	-3483.270000	-12.126361	-8.255254	4.438924	14.995823	-20.250779	-32.667824	83.660055	4.757872	50.098580	-18.083100	36.349320	0.684385	0.754881	0.089416	-1.000000	-1.000000	-1.000000	-1.000000	-1.000000	-1.000000	-1.000000	75.310345	0.000000	-1.000000	-1.000000	1844051.000000	1770065184.923970
-3357.855000	-7886.475000	-196.065000	13027.680000	-2594.070000	-3661.695000	8210.160000	-3518.100000	-12.382604	-3.910786	44.191980	64.088166	-16.957906	-29.938368	55.888797	1.303290	50.098580	-18.083100	36.349320	0.684385	0.754881	0.089416	-1.000000	-1.000000	-1.000000	-1.000000	-1.000000	-1.000000	-1.000000	75.310345	0.000000	-1.000000	-1.000000	1844052.000000	1770065184.923976
-3307.815000	-7830.720000	-248.940000	13001.265000	-2585.385000	-3568.770000	7919.460000	-3487.185000	-8.666977	3.288563	61.065403	96.432129	-5.740959	-16.710880	7.246883	-2.637685	50.098580	-18.083100	36.349320	0.684385	0.754881	0.089416	-1.000000	-1.000000	-1.000000	-1.000000	-1.000000	-1.000000	-1.000000	75.310345	0.000000	-1.000000	-1.000000	1844053.000000	1770065184.923984
-3261.870000	-7762.230000	-336.915000	12776.085000	-2573.685000	-3577.815000	7817.130000	-3454.380000	-1.081495	15.191600	62.265722	97.269220	5.620885	0.548165	-51.792704	1.049971	50.098580	-18.083100	36.349320	0.684385	0.754881	0.089416	-1.000000	-1.000000	-1.000000	-1.000000	-1.000000	-1.000000	-1.000000	75.310345	0.000000	-1.000000	-1.000000	1844054.000000	1770065184.923989
-3308.220000	-7791.705000	-423.855000	12635.325000	-2591.685000	-3728.430000	8055.720000	-3535.245000	7.807382	26.902293	48.789056	49.578949	10.664817	11.805070	-97.949541	10.476979	50.098580	-18.083100	36.349320	0.684385	0.754881	0.089416	-1.000000	-1.000000	-1.000000	-1.000000	-1.000000	-1.000000	-1.000000	75.310345	0.000000	-1.000000	-1.000000	1844055.000000	1770065184.950358
-3350.790000	-7853.310000	-299.025000	13046.445000	-2670.885000	-3770.460000	8180.550000	-3546.090000	10.303251	26.732252	26.751713	-22.539075	6.831605	6.388892	-96.409521	12.679150	50.098580	-18.083100	36.349320	0.684385	0.754881	0.089416	-1.000000	-1.000000	-1.000000	-1.000000	-1.000000	-1.000000	-1.000000	75.310345	0.000000	-1.000000	-1.000000	1844056.000000	1770065184.950371
-3354.120000	-7774.380000	326.205000	13518.270000	-2672.595000	-3847.230000	8334.270000	-3548.970000	2.312399	10.699392	15.442782	-52.084447	-3.479198	-13.811573	-35.851680	1.151822	50.098580	-18.083100	36.349320	0.684385	0.754881	0.089416	-1.000000	-1.000000	-1.000000	-1.000000	-1.000000	-1.000000	-1.000000	75.310345	0.000000	-1.000000	-1.000000	1844057.000000	1770065184.950386
-3355.065000	-7700.085000	573.480000	13584.960000	-2624.265000	-3807.585000	8277.795000	-3543.390000	-9.268959	-7.249815	38.481240	-0.875497	-10.646750	-32.538873	53.250785	-15.490669	50.098580	-18.083100	36.349320	0.684385	0.754881	0.089416	-1.000000	-1.000000	-1.000000	-1.000000	-1.000000	-1.000000	-1.000000	75.310345	0.000000	-1.000000	-1.000000	1844058.000000	1770065184.950392
-3303.045000	-7637.265000	562.140000	13651.830000	-2630.970000	-3765.420000	8128.620000	-3528.765000	-13.817270	-10.522983	89.339147	88.856620	-5.266870	-31.820686	115.627271	-25.289114	50.098580	-18.083100	36.349320	0.684385	0.754881	0.089416	-1.000000	-1.000000	-1.000000	-1.000000	-1.000000	-1.000000	-1.000000	75.310345	0.000000	-1.000000	-1.000000	1844059.000000	1770065184.950398
-3314.880000	-7631.730000	608.760000	13679.910000	-2626.515000	-3839.265000	8198.415000	-3546.360000	-5.923276	1.984595	118.601693	136.635604	9.493486	-6.823619	107.192609	-22.682122	50.098580	-18.083100	36.349320	0.684385	0.754881	0.089416	-1.000000	-1.000000	-1.000000	-1.000000	-1.000000	-1.000000	-1.000000	75.310345	0.000000	-1.000000	-1.000000	1844060.000000	1770065184.950403
-3354.885000	-7654.005000	495.180000	13598.325000	-2590.200000	-3857.985000	8216.595000	-3623.175000	10.497159	18.278576	79.993186	97.221519	21.450218	26.406140	36.329584	-9.984471	-10.300500	-24.354960	19.166560	0.673521	0.780271	0.084472	-1.000000	-1.000000	-1.000000	-1.000000	-1.000000	-1.000000	-1.000000	75.310345	0.000000	-1.000000	-1.000000	1844061.000000	1770065184.950409
-3351.240000	-7695.765000	394.065000	13528.170000	-2601.810000	-3822.255000	8174.835000	-3591.135000	22.845985	22.197416	-25.954164	-13.783513	22.194995	44.995353	-40.838767	5.285228	-10.300500	-24.354960	19.166560	0.673521	0.780271	0.084472	-1.000000	-1.000000	-1.000000	-1.000000	-1.000000	-1.000000	-1.000000	75.310345	0.000000	-1.000000	-1.000000	1844062.000000	1770065184.950414
-3322.080000	-7688.070000	377.055000	13523.850000	-2581.740000	-3805.245000	8187.345000	-3519.675000	21.327221	4.257419	-149.889774	-136.479586	11.644594	42.520420	-77.920273	17.978766	-10.300500	-24.354960	19.166560	0.673521	0.780271	0.084472	-1.000000	-1.000000	-1.000000	-1.000000	-1.000000	-1.000000	-1.000000	75.310345	0.000000	-1.000000	-1.000000	1844063.000000	1770065184.950419
-3317.940000	-7709.310000	212.580000	13343.040000	-2567.565000	-3754.305000	8213.175000	-3498.975000	9.124502	-26.837058	-226.651366	-207.640731	-3.172026	30.882323	-73.153051	28.103010	-10.300500	-24.354960	19.166560	0.673521	0.780271	0.084472	-1.000000	-1.000000	-1.000000	-1.000000	-1.000000	-1.000000	-1.000000	75.310345	0.000000	-1.000000	-1.000000	1844064.000000	1770065184.950424
-3287.880000	-7773.660000	-256.230000	12605.220000	-2605.635000	-3682.215000	8214.480000	-3496.410000	-2.908266	-50.938216	-231.970926	-216.705969	-13.082906	23.457781	-50.723608	34.060220	-10.300500	-24.354960	19.166560	0.673521	0.780271	0.084472	-1.000000	-1.000000	-1.000000	-1.000000	-1.000000	-1.000000	-1.000000	75.310345	0.000000	-1.000000	-1.000000	1844065.000000	1770065184.950429
-3262.320000	-7809.030000	-531.315000	12226.320000	-2647.980000	-3552.750000	7992.450000	-3452.130000	-7.144875	-55.701727	-197.872620	-204.617967	-15.296608	23.561997	-31.835224	30.785720	-10.300500	-24.354960	19.166560	0.673521	0.780271	0.084472	-1.000000	-1.000000	-1.000000	-1.000000	-1.000000	-1.000000	-1.000000	75.310345	0.000000	-1.000000	-1.000000	1844066.000000	1770065184.950433
-3280.680000	-7821.765000	-402.660000	13012.335000	-2625.525000	-3604.095000	7942.005000	-3475.890000	-4.666222	-42.531609	-148.471164	-173.500951	-13.819121	23.239988	-22.587999	15.931408	-10.300500	-24.354960	19.166560	0.673521	0.780271	0.084472	-1.000000	-1.000000	-1.000000	-1.000000	-1.000000	-1.000000	-1.000000	75.310345	0.000000	-1.000000	-1.000000	1844067.000000	1770065184.951859
-3346.020000	-7869.240000	-213.390000	13180.860000	-2585.430000	-3758.895000	8124.345000	-3516.390000	-3.411193	-19.094599	-59.043813	-62.797788	-10.778256	7.984293	-11.794727	-7.528804	-10.300500	-24.354960	19.166560	0.673521	0.780271	0.084472	-1.000000	-1.000000	-1.000000	-1.000000	-1.000000	-1.000000	-1.000000	75.310345	0.000000	-1.000000	-1.000000	1844068.000000	1770065184.951868
-3354.210000	-7815.195000	156.915000	13291.380000	-2610.855000	-3772.080000	8191.305000	-3466.710000	-8.380289	8.490721	92.021013	137.337939	-5.225442	-27.258929	15.238560	-30.313738	-10.300500	-24.354960	19.166560	0.673521	0.780271	0.084472	-1.000000	-1.000000	-1.000000	-1.000000	-1.000000	-1.000000	-1.000000	75.310345	0.000000	-1.000000	-1.000000	1844069.000000	1770065184.955840
-3347.190000	-7743.960000	412.740000	13541.535000	-2670.075000	-3857.805000	7977.780000	-3529.215000	-14.930925	37.540163	270.330913	335.969878	-0.056091	-67.308957	52.583939	-39.883309	-10.300500	-24.354960	19.166560	0.673521	0.780271	0.084472	-1.000000	-1.000000	-1.000000	-1.000000	-1.000000	-1.000000	-1.000000	75.310345	0.000000	-1.000000	-1.000000	1844070.000000	1770065184.955849
-3315.600000	-7655.715000	559.440000	13640.265000	-2624.220000	-3870.315000	7929.855000	-3654.405000	-15.319016	63.454643	397.458056	426.499837	0.544159	-89.577614	73.694548	-34.770813	17.625300	20.921460	8.255660	0.716063	0.702513	0.068359	-1.000000	-1.000000	-1.000000	-1.000000	-1.000000	-1.000000	-1.000000	75.310345	0.000000	-1.000000	-1.000000	1844071.000000	1770065184.972642
-3352.455000	-7684.245000	476.415000	13609.845000	-2569.230000	-3822.975000	8240.940000	-3580.920000	-8.004197	75.755867	398.819559	361.673180	-0.458684	-79.350804	63.716753	-25.306837	17.625300	20.921460	8.255660	0.716063	0.702513	0.068359	-1.000000	-1.000000	-1.000000	-1.000000	-1.000000	-1.000000	-1.000000	75.310345	0.000000	-1.000000	-1.000000	1844072.000000	1770065184.972654
-3312.090000	-7683.210000	393.165000	13538.205000	-2584.620000	-3760.245000	8271.045000	-3533.670000	2.403812	64.219990	254.304122	169.880773	3.243173	-35.983718	36.658426	-14.637982	17.625300	20.921460	8.255660	0.716063	0.702513	0.068359	-1.000000	-1.000000	-1.000000	-1.000000	-1.000000	-1.000000	-1.000000	75.310345	0.000000	-1.000000	-1.000000	1844073.000000	1770065184.972666
-3279.645000	-7649.955000	346.275000	13456.170000	-2603.565000	-3720.105000	8247.105000	-3534.210000	11.377847	30.430759	19.920662	-59.886327	11.604451	23.293902	11.332045	1.773465	17.625300	20.921460	8.255660	0.716063	0.702513	0.068359	-1.000000	-1.000000	-1.000000	-1.000000	-1.000000	-1.000000	-1.000000	75.310345	0.000000	-1.000000	-1.000000	1844074.000000	1770065184.972671
-3319.155000	-7732.395000	169.785000	13228.155000	-2635.965000	-3823.020000	8337.780000	-3556.980000	16.110801	-12.134476	-206.238727	-236.469257	17.816604	68.794113	-4.405497	20.567613	17.625300	20.921460	8.255660	0.716063	0.702513	0.068359	-1.000000	-1.000000	-1.000000	-1.000000	-1.000000	-1.000000	-1.000000	75.310345	0.000000	-1.000000	-1.000000	1844075.000000	1770065184.972677
-3360.510000	-7788.285000	65.385000	13214.520000	-2606.625000	-3790.665000	8302.320000	-3583.800000	13.821741	-49.783074	-346.220850	-327.455540	15.300714	79.089179	-9.751039	31.604838	17.625300	20.921460	8.255660	0.716063	0.702513	0.068359	-1.000000	-1.000000	-1.000000	-1.000000	-1.000000	-1.000000	-1.000000	75.310345	0.000000	-1.000000	-1.000000	1844076.000000	1770065184.972682
-3339.855000	-7763.580000	94.095000	13395.870000	-2585.790000	-3762.360000	8264.070000	-3575.700000	5.725286	-71.757314	-371.415100	-336.810571	4.415201	59.803084	-16.241053	29.949171	17.625300	20.921460	8.255660	0.716063	0.702513	0.068359	-1.000000	-1.000000	-1.000000	-1.000000	-1.000000	-1.000000	-1.000000	75.310345	0.000000	-1.000000	-1.000000	1844077.000000	1770065184.972687
-3346.965000	-7774.155000	139.635000	13372.920000	-2584.260000	-3739.230000	8233.020000	-3556.215000	-1.667066	-70.084821	-293.101548	-261.373217	-7.448007	32.624339	-35.453494	19.500214	17.625300	20.921460	8.255660	0.716063	0.702513	0.068359	-1.000000	-1.000000	-1.000000	-1.000000	-1.000000	-1.000000	-1.000000	75.310345	0.000000	-1.000000	-1.000000	1844078.000000	1770065184.972692
-3367.395000	-7768.935000	165.690000	13331.385000	-2609.820000	-3685.140000	7946.460000	-3596.895000	-4.747337	-47.173901	-147.954814	-117.344827	-13.280228	11.829761	-58.805277	8.199999	17.625300	20.921460	8.255660	0.716063	0.702513	0.068359	-1.000000	-1.000000	-1.000000	-1.000000	-1.000000	-1.000000	-1.000000	75.310345	0.000000	-1.000000	-1.000000	1844079.000000	1770065184.975959
-3383.280000	-7785.855000	138.060000	13258.530000	-2700.045000	-3760.380000	7991.145000	-3538.215000	-6.049776	-15.628433	14.691193	41.197608	-14.318326	-1.845314	-71.396597	1.804538	17.625300	20.921460	8.255660	0.716063	0.702513	0.068359	-1.000000	-1.000000	-1.000000	-1.000000	-1.000000	-1.000000	-1.000000	75.310345	0.000000	-1.000000	-1.000000	1844080.000000	1770065184.975971
-3345.570000	-7801.200000	144.720000	13268.790000	-2689.515000	-3872.655000	8275.185000	-3479.805000	-7.158615	12.545651	149.312680	159.756720	-16.730381	-17.378328	-64.479509	0.594291	23.515660	34.869100	-15.458380	0.688475	0.663756	0.059082	-1.000000	-1.000000	-1.000000	-1.000000	-1.000000	-1.000000	-1.000000	75.310345	0.000000	-1.000000	-1.000000	1844081.000000	1770065184.980010
-3307.725000	-7774.515000	42.705000	13107.870000	-2593.665000	-3748.545000	8359.785000	-3499.695000	-5.782506	31.885639	225.804880	213.612980	-17.913568	-39.908886	-29.572243	-0.021041	23.515660	34.869100	-15.458380	0.688475	0.663756	0.059082	-1.000000	-1.000000	-1.000000	-1.000000	-1.000000	-1.000000	-1.000000	75.310345	0.000000	-1.000000	-1.000000	1844082.000000	1770065184.980021
-3285.270000	-7745.580000	72.675000	13024.710000	-2569.905000	-3692.835000	8313.300000	-3550.185000	-0.621604	41.832663	232.570014	204.426979	-7.220559	-56.487950	29.000106	-5.578388	23.515660	34.869100	-15.458380	0.688475	0.663756	0.059082	-1.000000	-1.000000	-1.000000	-1.000000	-1.000000	-1.000000	-1.000000	75.310345	0.000000	-1.000000	-1.000000	1844083.000000	1770065184.986488
-3322.935000	-7749.990000	64.980000	13251.285000	-2602.440000	-3719.925000	8240.580000	-3554.730000	6.161567	43.990218	179.588700	149.413773	15.107335	-49.124362	81.620235	-16.364106	23.515660	34.869100	-15.458380	0.688475	0.663756	0.059082	-1.000000	-1.000000	-1.000000	-1.000000	-1.000000	-1.000000	-1.000000	75.310345	0.000000	-1.000000	-1.000000	1844084.000000	1770065184.986499
-3328.335000	-7766.280000	43.560000	13310.145000	-2603.295000	-3758.490000	8303.715000	-3542.760000	10.704320	39.154337	92.257356	73.937749	32.926323	-18.801822	96.124976	-24.999989	23.515660	34.869100	-15.458380	0.688475	0.663756	0.059082	-1.000000	-1.000000	-1.000000	-1.000000	-1.000000	-1.000000	-1.000000	75.310345	0.000000	-1.000000	-1.000000	1844085.000000	1770065184.988022
-3354.255000	-7772.265000	244.485000	13389.885000	-2629.125000	-3785.490000	8237.520000	-3562.650000	9.753266	25.738571	-1.352156	0.145994	31.592043	14.789819	67.061956	-23.988820	23.515660	34.869100	-15.458380	0.688475	0.663756	0.059082	-1.000000	-1.000000	-1.000000	-1.000000	-1.000000	-1.000000	-1.000000	75.310345	0.000000	-1.000000	-1.000000	1844086.000000	1770065184.988033
-3336.345000	-7735.995000	316.620000	13429.575000	-2639.295000	-3796.830000	8084.790000	-3583.080000	3.141187	4.300591	-74.241569	-57.374274	12.100851	32.427017	15.233294	-13.577937	23.515660	34.869100	-15.458380	0.688475	0.663756	0.059082	-1.000000	-1.000000	-1.000000	-1.000000	-1.000000	-1.000000	-1.000000	75.310345	0.000000	-1.000000	-1.000000	1844087.000000	1770065184.991935
-3306.870000	-7737.030000	222.300000	13378.590000	-2624.940000	-3753.765000	8059.005000	-3523.545000	-4.619628	-18.335529	-109.692645	-88.708628	-11.437982	29.944147	-30.637884	1.595440	23.515660	34.869100	-15.458380	0.688475	0.663756	0.059082	-1.000000	-1.000000	-1.000000	-1.000000	-1.000000	-1.000000	-1.000000	75.310345	0.000000	-1.000000	-1.000000	1844088.000000	1770065184.991947
-3257.370000	-7694.865000	52.335000	13243.275000	-2621.655000	-3715.560000	8131.680000	-3497.040000	-7.211829	-32.498374	-111.813671	-93.018455	-23.755530	18.703091	-53.345355	16.403645	23.515660	34.869100	-15.458380	0.688475	0.663756	0.059082	-1.000000	-1.000000	-1.000000	-1.000000	-1.000000	-1.000000	-1.000000	75.310345	0.000000	-1.000000	-1.000000	1844089.000000	1770065185.002300
-3340.980000	-7787.340000	-103.140000	13112.865000	-2635.605000	-3763.305000	8170.380000	-3572.415000	-4.492200	-33.395875	-95.680600	-79.430767	-20.493871	11.064074	-55.711866	22.937838	23.515660	34.869100	-15.458380	0.688475	0.663756	0.059082	-1.000000	-1.000000	-1.000000	-1.000000	-1.000000	-1.000000	-1.000000	75.310345	0.000000	-1.000000	-1.000000	1844090.000000	1770065185.002314
-3321.045000	-7782.255000	-89.775000	13158.270000	-2614.410000	-3717.045000	8075.070000	-3564.180000	-3.973567	-25.786075	-69.406470	-53.684260	-9.736391	6.051357	-47.549596	15.762277	26.064080	13.337240	6.470240	0.663756	0.685545	0.060974	-1.000000	-1.000000	-1.000000	-1.000000	-1.000000	-1.000000	-1.000000	75.310345	0.000000	-1.000000	-1.000000	1844091.000000	1770065185.002327
-3268.665000	-7729.830000	159.570000	13333.995000	-2592.090000	-3711.780000	8172.135000	-3524.445000	-8.084830	-16.007825	-28.356177	-13.720664	-0.403052	-2.410572	-30.506722	1.602854	26.064080	13.337240	6.470240	0.663756	0.685545	0.060974	-1.000000	-1.000000	-1.000000	-1.000000	-1.000000	-1.000000	-1.000000	75.310345	0.000000	-1.000000	-1.000000	1844092.000000	1770065185.002332
-3318.165000	-7755.750000	290.745000	13379.355000	-2645.685000	-3761.955000	8181.270000	-3582.180000	-9.449557	-4.076226	32.084895	32.013366	4.879264	-12.069093	-1.342695	-7.398153	26.064080	13.337240	6.470240	0.663756	0.685545	0.060974	-1.000000	-1.000000	-1.000000	-1.000000	-1.000000	-1.000000	-1.000000	75.310345	0.000000	-1.000000	-1.000000	1844093.000000	1770065185.004101
-3328.290000	-7746.120000	258.885000	13369.320000	-2658.600000	-3711.465000	7979.580000	-3508.920000	-3.932088	9.644542	93.511850	59.062334	5.549483	-16.107671	30.753844	-7.144055	26.064080	13.337240	6.470240	0.663756	0.685545	0.060974	-1.000000	-1.000000	-1.000000	-1.000000	-1.000000	-1.000000	-1.000000	75.310345	0.000000	-1.000000	-1.000000	1844094.000000	1770065185.004114
-3338.820000	-7788.015000	112.455000	13291.740000	-2675.790000	-3708.180000	7911.270000	-3506.985000	4.158221	19.306784	113.933243	49.412724	2.185715	-10.802468	45.267988	-0.193313	26.064080	13.337240	6.470240	0.663756	0.685545	0.060974	-1.000000	-1.000000	-1.000000	-1.000000	-1.000000	-1.000000	-1.000000	75.310345	0.000000	-1.000000	-1.000000	1844095.000000	1770065185.008236
-3290.040000	-7755.300000	107.595000	13293.180000	-2623.545000	-3774.150000	8154.405000	-3532.455000	9.759000	19.153198	68.547599	10.004536	-0.921681	-0.216902	41.221458	8.507339	26.064080	13.337240	6.470240	0.663756	0.685545	0.060974	-1.000000	-1.000000	-1.000000	-1.000000	-1.000000	-1.000000	-1.000000	75.310345	0.000000	-1.000000	-1.000000	1844096.000000	1770065185.008247
-3325.230000	-7811.415000	29.250000	13195.215000	-2662.875000	-3850.065000	8325.675000	-3589.920000	10.614604	9.476136	-15.085936	-31.305240	0.371338	4.452792	40.222591	10.258151	26.064080	13.337240	6.470240	0.663756	0.685545	0.060974	-1.000000	-1.000000	-1.000000	-1.000000	-1.000000	-1.000000	-1.000000	75.310345	0.000000	-1.000000	-1.000000	1844097.000000	1770065185.011935
-3310.470000	-7792.245000	-5.580000	13187.610000	-2708.415000	-3802.410000	8204.085000	-3458.880000	6.210448	-3.467214	-79.267698	-46.465111	3.972827	-1.948779	45.326813	1.085157	26.064080	13.337240	6.470240	0.663756	0.685545	0.060974	-1.000000	-1.000000	-1.000000	-1.000000	-1.000000	-1.000000	-1.000000	75.310345	0.000000	-1.000000	-1.000000	1844098.000000	1770065185.011947
-3264.390000	-7785.495000	-116.280000	13039.200000	-2703.240000	-3774.870000	8185.770000	-3410.100000	0.036542	-10.716868	-87.265316	-27.612205	4.061584	-10.549462	32.837451	-8.201013	26.064080	13.337240	6.470240	0.663756	0.685545	0.060974	-1.000000	-1.000000	-1.000000	-1.000000	-1.000000	-1.000000	-1.000000	75.310345	0.000000	-1.000000	-1.000000	1844099.000000	1770065185.020195
-3238.650000	-7718.220000	-105.705000	12937.455000	-2542.365000	-3691.170000	8305.560000	-3630.645000	-2.099377	-6.645947	-47.925960	5.898732	1.246964	-9.900257	-4.806899	-8.482678	26.064080	13.337240	6.470240	0.663756	0.685545	0.060974	-1.000000	-1.000000	-1.000000	-1.000000	-1.000000	-1.000000	-1.000000	75.310345	0.000000	-1.000000	-1.000000	1844100.000000	1770065185.020205
-3287.520000	-7780.365000	-107.505000	12912.570000	-2593.845000	-3721.905000	8259.705000	-3444.075000	-0.049050	4.695829	0.705633	22.517471	2.656506	2.159340	-45.301911	-5.805720	2.609460	-6.882260	3.448760	0.655333	0.724913	0.055725	-1.000000	-1.000000	-1.000000	-1.000000	-1.000000	-1.000000	-1.000000	75.310345	0.000000	-1.000000	-1.000000	1844101.000000	1770065185.020215
-3345.570000	-7838.640000	30.285000	13285.620000	-2641.140000	-3798.990000	8296.065000	-3566.610000	0.712862	11.972612	28.963275	14.664218	8.460409	17.045447	-65.606098	-4.673174	2.609460	-6.882260	3.448760	0.655333	0.724913	0.055725	-1.000000	-1.000000	-1.000000	-1.000000	-1.000000	-1.000000	-1.000000	75.310345	0.000000	-1.000000	-1.000000	1844102.000000	1770065185.020221
-3321.090000	-7790.265000	283.455000	13546.080000	-2586.240000	-3774.645000	8257.320000	-3580.065000	-2.602129	8.408405	39.001419	11.655168	11.097564	22.073181	-56.446948	-4.786421	2.609460	-6.882260	3.448760	0.655333	0.724913	0.055725	-1.000000	-1.000000	-1.000000	-1.000000	-1.000000	-1.000000	-1.000000	75.310345	0.000000	-1.000000	-1.000000	1844103.000000	1770065185.028030
-3267.180000	-7700.670000	356.760000	13501.035000	-2571.165000	-3737.430000	8212.005000	-3544.335000	-6.162303	0.116561	49.741700	36.135790	7.760902	14.104424	-24.009545	-6.821210	2.609460	-6.882260	3.448760	0.655333	0.724913	0.055725	-1.000000	-1.000000	-1.000000	-1.000000	-1.000000	-1.000000	-1.000000	75.310345	0.000000	-1.000000	-1.000000	1844104.000000	1770065185.028043
-3318.570000	-7755.570000	331.335000	13462.920000	-2604.420000	-3768.750000	8165.070000	-3550.095000	-5.755232	-3.094816	63.643838	67.319617	0.495291	2.389338	6.968417	-6.252632	2.609460	-6.882260	3.448760	0.655333	0.724913	0.055725	-1.000000	-1.000000	-1.000000	-1.000000	-1.000000	-1.000000	-1.000000	75.310345	0.000000	-1.000000	-1.000000	1844105.000000	1770065185.028265
-3300.570000	-7762.410000	279.900000	13437.225000	-2589.120000	-3748.860000	8173.935000	-3500.640000	-2.810527	-1.061332	62.832926	69.204689	-8.279058	-4.119453	12.151460	1.042040	2.609460	-6.882260	3.448760	0.655333	0.724913	0.055725	-1.000000	-1.000000	-1.000000	-1.000000	-1.000000	-1.000000	-1.000000	75.310345	0.000000	-1.000000	-1.000000	1844106.000000	1770065185.028276
-3233.790000	-7690.140000	318.645000	13484.835000	-2518.020000	-3599.595000	7834.410000	-3582.990000	0.581185	1.386978	36.149348	33.557622	-13.088926	-3.011365	-8.974633	9.331209	2.609460	-6.882260	3.448760	0.655333	0.724913	0.055725	-1.000000	-1.000000	-1.000000	-1.000000	-1.000000	-1.000000	-1.000000	75.310345	0.000000	-1.000000	-1.000000	1844107.000000	1770065185.032128
-3206.700000	-7657.785000	328.770000	13492.530000	-2497.095000	-3614.580000	7861.905000	-3509.190000	4.956322	3.202852	-6.296576	-16.936602	-9.886927	3.029027	-37.915596	11.066514	2.609460	-6.882260	3.448760	0.655333	0.724913	0.055725	-1.000000	-1.000000	-1.000000	-1.000000	-1.000000	-1.000000	-1.000000	75.310345	0.000000	-1.000000	-1.000000	1844108.000000	1770065185.032138
-3244.095000	-7690.140000	252.675000	13407.255000	-2569.680000	-3782.115000	8059.410000	-3528.540000	8.510970	3.390361	-47.908691	-56.404951	-4.832318	3.770828	-48.524702	9.090282	2.609460	-6.882260	3.448760	0.655333	0.724913	0.055725	-1.000000	-1.000000	-1.000000	-1.000000	-1.000000	-1.000000	-1.000000	75.310345	0.000000	-1.000000	-1.000000	1844109.000000	1770065185.035942
-3244.005000	-7709.985000	194.535000	13369.950000	-2584.440000	-3700.935000	8095.410000	-3526.425000	8.180447	-0.268730	-80.726084	-78.989362	-6.335763	-8.553032	-19.800414	8.415067	2.609460	-6.882260	3.448760	0.655333	0.724913	0.055725	-1.000000	-1.000000	-1.000000	-1.000000	-1.000000	-1.000000	-1.000000	75.310345	0.000000	-1.000000	-1.000000	1844110.000000	1770065185.035954
-3306.555000	-7771.545000	128.430000	13309.380000	-2637.810000	-3783.420000	8291.430000	-3549.420000	4.213640	-6.876561	-101.928022	-94.251733	-12.359342	-24.522715	43.409274	7.099824	-7.416360	-10.239460	4.303320	0.670469	0.725828	0.059936	-1.000000	-1.000000	-1.000000	-1.000000	-1.000000	-1.000000	-1.000000	75.310345	0.000000	-1.000000	-1.000000	1844111.000000	1770065185.039914
-3343.365000	-7820.100000	113.355000	13267.260000	-2692.980000	-3784.320000	8184.510000	-3571.110000	-3.046778	-15.265035	-106.715236	-105.038256	-16.627173	-30.405591	108.712336	2.849077	-7.416360	-10.239460	4.303320	0.670469	0.725828	0.059936	-1.000000	-1.000000	-1.000000	-1.000000	-1.000000	-1.000000	-1.000000	75.310345	0.000000	-1.000000	-1.000000	1844112.000000	1770065185.039925
-3292.920000	-7734.015000	235.755000	13366.530000	-2636.460000	-3776.220000	8220.195000	-3499.740000	-12.777213	-23.376678	-84.724219	-93.702776	-15.849247	-23.212446	135.140577	-3.095356	-7.416360	-10.239460	4.303320	0.670469	0.725828	0.059936	-1.000000	-1.000000	-1.000000	-1.000000	-1.000000	-1.000000	-1.000000	75.310345	0.000000	-1.000000	-1.000000	1844113.000000	1770065185.046500
-3298.410000	-7731.270000	252.720000	13415.400000	-2582.505000	-3806.010000	8375.580000	-3538.755000	-18.258343	-22.584712	-26.630400	-38.898159	-5.743980	-6.287780	102.400350	-7.543579	-7.416360	-10.239460	4.303320	0.670469	0.725828	0.059936	-1.000000	-1.000000	-1.000000	-1.000000	-1.000000	-1.000000	-1.000000	75.310345	0.000000	-1.000000	-1.000000	1844114.000000	1770065185.046510
-3337.605000	-7776.180000	199.710000	13369.590000	-2596.455000	-3806.865000	8363.295000	-3582.990000	-14.119252	-7.736524	55.101438	50.018419	14.155450	12.381845	30.304922	-10.110048	-7.416360	-10.239460	4.303320	0.670469	0.725828	0.059936	-1.000000	-1.000000	-1.000000	-1.000000	-1.000000	-1.000000	-1.000000	75.310345	0.000000	-1.000000	-1.000000	1844115.000000	1770065185.047926
-3336.165000	-7775.865000	191.070000	13346.235000	-2604.285000	-3799.800000	8308.935000	-3502.215000	-5.234997	11.358409	122.782456	129.170870	32.243325	21.531333	-40.034493	-11.766263	-7.416360	-10.239460	4.303320	0.670469	0.725828	0.059936	-1.000000	-1.000000	-1.000000	-1.000000	-1.000000	-1.000000	-1.000000	75.310345	0.000000	-1.000000	-1.000000	1844116.000000	1770065185.047933
-3321.090000	-7757.640000	186.120000	13333.860000	-2591.550000	-3758.220000	8295.885000	-3583.530000	1.367694	21.366656	141.834002	156.447653	34.667076	18.570121	-83.372859	-9.870459	-7.416360	-10.239460	4.303320	0.670469	0.725828	0.059936	-1.000000	-1.000000	-1.000000	-1.000000	-1.000000	-1.000000	-1.000000	75.310345	0.000000	-1.000000	-1.000000	1844117.000000	1770065185.051978
-3332.745000	-7770.240000	159.885000	13318.965000	-2605.815000	-3755.520000	8252.730000	-3587.940000	5.857611	20.281799	106.539601	122.638276	21.089561	13.825620	-101.411947	-4.661330	-7.416360	-10.239460	4.303320	0.670469	0.725828	0.059936	-1.000000	-1.000000	-1.000000	-1.000000	-1.000000	-1.000000	-1.000000	75.310345	0.000000	-1.000000	-1.000000	1844118.000000	1770065185.051987
-3328.155000	-7775.910000	167.715000	13343.310000	-2608.740000	-3760.335000	8233.560000	-3561.165000	11.635546	14.877049	38.911767	49.296717	3.111272	15.239713	-102.915393	0.361490	-7.416360	-10.239460	4.303320	0.670469	0.725828	0.059936	-1.000000	-1.000000	-1.000000	-1.000000	-1.000000	-1.000000	-1.000000	75.310345	0.000000	-1.000000	-1.000000	1844119.000000	1770065185.055844
-3330.135000	-7772.940000	173.115000	13350.690000	-2596.770000	-3766.770000	8257.860000	-3568.545000	18.821779	11.065701	-29.012733	-29.458068	-8.362778	18.660923	-87.706401	5.648182	-7.416360	-10.239460	4.303320	0.670469	0.725828	0.059936	-1.000000	-1.000000	-1.000000	-1.000000	-1.000000	-1.000000	-1.000000	75.310345	0.000000	-1.000000	-1.000000	1844120.000000	1770065185.055853
-3329.820000	-7772.265000	156.555000	13338.135000	-2585.790000	-3766.860000	8240.895000	-3559.950000	23.098559	8.949756	-73.036083	-82.909547	-10.098723	16.339834	-50.960606	11.419585	9.430680	-7.767340	-2.304260	0.689268	0.673338	0.061645	-1.000000	-1.000000	-1.000000	-1.000000	-1.000000	-1.000000	-1.000000	75.310345	0.000000	-1.000000	-1.000000	1844121.000000	1770065185.059926
-3356.235000	-7799.265000	109.710000	13282.965000	-2624.670000	-3791.610000	8233.200000	-3546.270000	18.599142	3.901464	-85.737835	-97.237089	-7.223908	5.506588	1.572672	13.797002	9.430680	-7.767340	-2.304260	0.689268	0.673338	0.061645	-1.000000	-1.000000	-1.000000	-1.000000	-1.000000	-1.000000	-1.000000	75.310345	0.000000	-1.000000	-1.000000	1844122.000000	1770065185.059940
-3351.330000	-7835.670000	57.960000	13222.755000	-2673.495000	-3818.880000	8226.585000	-3350.655000	4.429570	-6.686837	-72.338869	-78.938362	-8.481983	-10.480687	48.606575	13.247142	9.430680	-7.767340	-2.304260	0.689268	0.673338	0.061645	-1.000000	-1.000000	-1.000000	-1.000000	-1.000000	-1.000000	-1.000000	75.310345	0.000000	-1.000000	-1.000000	1844123.000000	1770065185.064016
-3292.470000	-7739.145000	177.345000	13363.200000	-2581.785000	-3726.720000	8268.930000	-3531.915000	-11.561089	-17.133665	-39.850588	-41.128505	-15.150050	-24.329464	73.618935	13.767004	9.430680	-7.767340	-2.304260	0.689268	0.673338	0.061645	-1.000000	-1.000000	-1.000000	-1.000000	-1.000000	-1.000000	-1.000000	75.310345	0.000000	-1.000000	-1.000000	1844124.000000	1770065185.064023
-3254.940000	-7692.570000	237.825000	13440.735000	-2545.830000	-3670.605000	8102.745000	-3621.555000	-18.957351	-17.515569	5.229348	7.362811	-17.753351	-27.750277	75.761016	8.614053	9.430680	-7.767340	-2.304260	0.689268	0.673338	0.061645	-1.000000	-1.000000	-1.000000	-1.000000	-1.000000	-1.000000	-1.000000	75.310345	0.000000	-1.000000	-1.000000	1844125.000000	1770065185.070427
-3255.930000	-7711.155000	189.630000	13442.355000	-2545.020000	-3612.285000	7977.060000	-3613.140000	-14.525790	-5.837899	48.660521	54.283685	-8.892919	-16.542040	55.010343	-9.774003	9.430680	-7.767340	-2.304260	0.689268	0.673338	0.061645	-1.000000	-1.000000	-1.000000	-1.000000	-1.000000	-1.000000	-1.000000	75.310345	0.000000	-1.000000	-1.000000	1844126.000000	1770065185.070434
-3256.335000	-7727.220000	154.305000	13398.660000	-2615.130000	-3707.820000	8020.485000	-3447.135000	-3.856988	8.581633	69.371242	78.588521	6.416955	2.726872	15.076244	-28.730018	9.430680	-7.767340	-2.304260	0.689268	0.673338	0.061645	-1.000000	-1.000000	-1.000000	-1.000000	-1.000000	-1.000000	-1.000000	75.310345	0.000000	-1.000000	-1.000000	1844127.000000	1770065185.072053
-3309.570000	-7761.195000	140.445000	13234.320000	-2668.770000	-3811.095000	8139.195000	-3430.575000	4.338825	14.928156	55.753107	62.512010	15.841520	14.073688	-22.455898	-27.826041	9.430680	-7.767340	-2.304260	0.689268	0.673338	0.061645	-1.000000	-1.000000	-1.000000	-1.000000	-1.000000	-1.000000	-1.000000	75.310345	0.000000	-1.000000	-1.000000	1844128.000000	1770065185.072059
-3316.095000	-7734.645000	238.590000	13338.135000	-2590.470000	-3821.580000	8370.855000	-3520.080000	4.185931	9.873017	17.866111	10.848215	13.201287	7.127296	-30.405968	-6.628131	9.430680	-7.767340	-2.304260	0.689268	0.673338	0.061645	-1.000000	-1.000000	-1.000000	-1.000000	-1.000000	-1.000000	-1.000000	75.310345	0.000000	-1.000000	-1.000000	1844129.000000	1770065185.083252
-3242.295000	-7713.495000	272.520000	13426.110000	-2561.040000	-3721.770000	8248.095000	-3566.520000	-2.335096	-1.341229	-19.128988	-42.725923	5.046663	-9.471943	-3.578213	13.795332	9.430680	-7.767340	-2.304260	0.689268	0.673338	0.061645	-1.000000	-1.000000	-1.000000	-1.000000	-1.000000	-1.000000	-1.000000	75.310345	0.000000	-1.000000	-1.000000	1844130.000000	1770065185.083262
-3224.115000	-7706.205000	262.890000	13427.145000	-2550.330000	-3639.645000	8110.755000	-3535.380000	-6.353751	-9.786106	-35.059322	-61.527683	1.274326	-15.233637	28.331757	15.282481	8.667680	-4.272800	-3.998120	0.701597	0.688048	0.060181	-1.000000	-1.000000	-1.000000	-1.000000	-1.000000	-1.000000	-1.000000	75.310345	0.000000	-1.000000	-1.000000	1844131.000000	1770065185.083274
-3327.255000	-7791.075000	171.540000	13334.895000	-2628.720000	-3797.055000	8195.895000	-3589.065000	-4.238605	-11.486581	-29.558275	-40.413097	2.607705	-2.909946	30.513207	-1.051905	8.667680	-4.272800	-3.998120	0.701597	0.688048	0.060181	-1.000000	-1.000000	-1.000000	-1.000000	-1.000000	-1.000000	-1.000000	75.310345	0.000000	-1.000000	-1.000000	1844132.000000	1770065185.083279
-3367.575000	-7824.150000	131.580000	13290.570000	-2668.005000	-3845.430000	8264.655000	-3590.775000	-3.961249	-11.983751	-19.057507	-6.962311	0.112032	9.723215	4.745489	-18.681349	8.667680	-4.272800	-3.998120	0.701597	0.688048	0.060181	-1.000000	-1.000000	-1.000000	-1.000000	-1.000000	-1.000000	-1.000000	75.310345	0.000000	-1.000000	-1.000000	1844133.000000	1770065185.084424
-3313.890000	-7761.600000	197.820000	13372.245000	-2580.030000	-3769.470000	8246.700000	-3541.770000	-10.776512	-15.864263	-16.452827	11.132719	-10.575300	5.421786	-19.470130	-18.977070	8.667680	-4.272800	-3.998120	0.701597	0.688048	0.060181	-1.000000	-1.000000	-1.000000	-1.000000	-1.000000	-1.000000	-1.000000	75.310345	0.000000	-1.000000	-1.000000	1844134.000000	1770065185.084435
-3288.780000	-7741.935000	151.110000	13378.140000	-2535.930000	-3706.065000	8214.885000	-3500.595000	-15.977796	-16.022064	-16.703841	11.856629	-18.494386	-7.555178	-23.515924	1.510497	8.667680	-4.272800	-3.998120	0.701597	0.688048	0.060181	-1.000000	-1.000000	-1.000000	-1.000000	-1.000000	-1.000000	-1.000000	75.310345	0.000000	-1.000000	-1.000000	1844135.000000	1770065185.089514
-3278.250000	-7776.945000	-19.125000	13174.245000	-2576.880000	-3734.100000	8329.770000	-3529.215000	-8.700450	-4.450889	-11.761437	6.667650	-11.009185	-9.220994	-12.751952	25.176991	8.667680	-4.272800	-3.998120	0.701597	0.688048	0.060181	-1.000000	-1.000000	-1.000000	-1.000000	-1.000000	-1.000000	-1.000000	75.310345	0.000000	-1.000000	-1.000000	1844136.000000	1770065185.089526
-3279.870000	-7816.140000	-211.680000	12905.055000	-2606.940000	-3727.440000	8284.230000	-3511.890000	10.154378	13.728414	-8.057768	-2.986455	7.626249	6.718373	-3.870529	32.092587	8.667680	-4.272800	-3.998120	0.701597	0.688048	0.060181	-1.000000	-1.000000	-1.000000	-1.000000	-1.000000	-1.000000	-1.000000	75.310345	0.000000	-1.000000	-1.000000	1844137.000000	1770065185.096258
-3301.830000	-7826.985000	-184.680000	12997.350000	-2617.065000	-3691.485000	8216.685000	-3534.390000	28.373724	25.214901	-14.263780	-20.477154	20.383968	28.004525	-10.207320	20.786943	8.667680	-4.272800	-3.998120	0.701597	0.688048	0.060181	-1.000000	-1.000000	-1.000000	-1.000000	-1.000000	-1.000000	-1.000000	75.310345	0.000000	-1.000000	-1.000000	1844138.000000	1770065185.096269
-3386.295000	-7876.125000	-67.455000	13143.465000	-2667.105000	-3767.985000	8180.820000	-3550.410000	30.892072	21.771015	-20.200194	-32.959430	15.595468	35.207677	-28.311998	2.879003	8.667680	-4.272800	-3.998120	0.701597	0.688048	0.060181	-1.000000	-1.000000	-1.000000	-1.000000	-1.000000	-1.000000	-1.000000	75.310345	0.000000	-1.000000	-1.000000	1844139.000000	1770065185.096443
-3359.790000	-7852.410000	44.595000	13270.050000	-2651.355000	-3872.520000	8185.680000	-3451.905000	13.259162	7.245662	-3.719284	-16.858626	-2.250236	16.872147	-38.274180	-11.560921	8.667680	-4.272800	-3.998120	0.701597	0.688048	0.060181	-1.000000	-1.000000	-1.000000	-1.000000	-1.000000	-1.000000	-1.000000	75.310345	0.000000	-1.000000	-1.000000	1844140.000000	1770065185.096453
-3269.970000	-7716.195000	316.395000	13482.810000	-2558.160000	-3759.570000	8256.690000	-3599.010000	-9.438554	-3.974496	43.065004	33.613650	-16.111809	-16.445306	-25.948686	-17.436704	-9.003400	-7.217980	-10.331020	0.697447	0.717222	0.065674	-1.000000	-1.000000	-1.000000	-1.000000	-1.000000	-1.000000	-1.000000	75.310345	0.000000	-1.000000	-1.000000	1844141.000000	1770065185.103191
-3299.940000	-7719.345000	413.370000	13532.760000	-2582.415000	-3782.970000	8301.645000	-3661.605000	-17.558661	-0.324472	100.813624	93.512559	-12.987406	-38.483270	4.332775	-17.052212	-9.003400	-7.217980	-10.331020	0.697447	0.717222	0.065674	-1.000000	-1.000000	-1.000000	-1.000000	-1.000000	-1.000000	-1.000000	75.310345	0.000000	-1.000000	-1.000000	1844142.000000	1770065185.103201
-3300.300000	-7734.195000	335.205000	13477.545000	-2586.330000	-3772.755000	8288.460000	-3576.420000	-9.901087	11.870715	130.154364	120.116373	1.299551	-36.241567	37.942431	-16.125920	-9.003400	-7.217980	-10.331020	0.697447	0.717222	0.065674	-1.000000	-1.000000	-1.000000	-1.000000	-1.000000	-1.000000	-1.000000	75.310345	0.000000	-1.000000	-1.000000	1844143.000000	1770065185.104033
-3304.980000	-7742.880000	291.195000	13449.060000	-2581.740000	-3761.775000	8259.120000	-3567.690000	0.143198	16.213526	99.828406	85.962536	11.454079	-18.280454	57.630992	-14.005624	-9.003400	-7.217980	-10.331020	0.697447	0.717222	0.065674	-1.000000	-1.000000	-1.000000	-1.000000	-1.000000	-1.000000	-1.000000	75.310345	0.000000	-1.000000	-1.000000	1844144.000000	1770065185.104043
-3297.330000	-7739.910000	275.265000	13433.940000	-2591.820000	-3776.895000	8239.500000	-3506.400000	3.641728	6.884776	18.845522	8.404596	11.840634	3.236038	49.415101	-6.257973	-9.003400	-7.217980	-10.331020	0.697447	0.717222	0.065674	-1.000000	-1.000000	-1.000000	-1.000000	-1.000000	-1.000000	-1.000000	75.310345	0.000000	-1.000000	-1.000000	1844145.000000	1770065185.107917
-3306.510000	-7746.210000	253.080000	13410.360000	-2605.905000	-3781.935000	8252.460000	-3508.065000	1.356214	-8.392942	-69.258321	-65.331427	6.432901	19.986166	15.131693	7.841391	-9.003400	-7.217980	-10.331020	0.697447	0.717222	0.065674	-1.000000	-1.000000	-1.000000	-1.000000	-1.000000	-1.000000	-1.000000	75.310345	0.000000	-1.000000	-1.000000	1844146.000000	1770065185.107929
-3315.825000	-7768.125000	214.020000	13387.905000	-2599.605000	-3746.475000	8242.020000	-3540.735000	-2.275463	-20.064313	-125.336429	-104.149303	-0.395691	25.938775	-23.289974	22.563005	-9.003400	-7.217980	-10.331020	0.697447	0.717222	0.065674	-1.000000	-1.000000	-1.000000	-1.000000	-1.000000	-1.000000	-1.000000	75.310345	0.000000	-1.000000	-1.000000	1844147.000000	1770065185.113717
-3259.215000	-7688.655000	268.965000	13428.270000	-2562.615000	-3708.675000	8235.540000	-3559.005000	-2.809974	-22.409791	-136.387645	-108.299794	-4.774597	22.293419	-41.445282	27.474403	-9.003400	-7.217980	-10.331020	0.697447	0.717222	0.065674	-1.000000	-1.000000	-1.000000	-1.000000	-1.000000	-1.000000	-1.000000	75.310345	0.000000	-1.000000	-1.000000	1844148.000000	1770065185.113727
-3233.430000	-7677.450000	275.985000	13433.850000	-2563.470000	-3754.620000	8236.755000	-3491.910000	1.894009	-14.190926	-108.794069	-88.999840	-4.268891	15.939046	-33.452371	17.831126	-9.003400	-7.217980	-10.331020	0.697447	0.717222	0.065674	-1.000000	-1.000000	-1.000000	-1.000000	-1.000000	-1.000000	-1.000000	75.310345	0.000000	-1.000000	-1.000000	1844149.000000	1770065185.115903
-3274.830000	-7744.815000	232.965000	13408.695000	-2575.530000	-3766.725000	8254.440000	-3513.465000	7.358968	-3.058364	-60.850407	-56.845824	-2.076220	8.053533	-12.633241	3.297898	-9.003400	-7.217980	-10.331020	0.697447	0.717222	0.065674	-1.000000	-1.000000	-1.000000	-1.000000	-1.000000	-1.000000	-1.000000	75.310345	0.000000	-1.000000	-1.000000	1844150.000000	1770065185.115914
-3332.565000	-7787.070000	201.285000	13390.830000	-2574.765000	-3755.340000	8283.870000	-3548.295000	5.359943	-0.706199	-13.750496	-21.211255	-3.125835	-4.627123	5.504948	-4.566118	-2.517900	0.457800	-6.241340	0.701414	0.714964	0.066101	-1.000000	-1.000000	-1.000000	-1.000000	-1.000000	-1.000000	-1.000000	75.310345	0.000000	-1.000000	-1.000000	1844151.000000	1770065185.129692
-3343.545000	-7794.720000	177.705000	13357.845000	-2605.095000	-3741.840000	8176.770000	-3521.835000	-6.014918	-8.187966	23.639195	13.271442	-7.374566	-18.999564	14.090786	-7.666101	-2.517900	0.457800	-6.241340	0.701414	0.714964	0.066101	-1.000000	-1.000000	-1.000000	-1.000000	-1.000000	-1.000000	-1.000000	75.310345	0.000000	-1.000000	-1.000000	1844152.000000	1770065185.129705
-3309.390000	-7790.805000	173.925000	13345.155000	-2614.590000	-3746.790000	8178.975000	-3453.615000	-18.502298	-14.611423	54.149719	45.192719	-10.943277	-26.692426	11.606244	-11.783101	-2.517900	0.457800	-6.241340	0.701414	0.714964	0.066101	-1.000000	-1.000000	-1.000000	-1.000000	-1.000000	-1.000000	-1.000000	75.310345	0.000000	-1.000000	-1.000000	1844153.000000	1770065185.129719
-3282.435000	-7746.930000	218.835000	13389.390000	-2579.220000	-3752.505000	8240.535000	-3530.925000	-20.638698	-9.543480	78.791689	71.725911	-9.430273	-22.706243	2.129979	-16.001155	-2.517900	0.457800	-6.241340	0.701414	0.714964	0.066101	-1.000000	-1.000000	-1.000000	-1.000000	-1.000000	-1.000000	-1.000000	75.310345	0.000000	-1.000000	-1.000000	1844154.000000	1770065185.129725
-3290.895000	-7735.410000	233.055000	13402.755000	-2563.065000	-3697.155000	8201.745000	-3569.355000	-8.639943	7.842516	91.503995	86.185359	-0.689772	-9.209001	-4.612835	-18.426761	-2.517900	0.457800	-6.241340	0.701414	0.714964	0.066101	-1.000000	-1.000000	-1.000000	-1.000000	-1.000000	-1.000000	-1.000000	75.310345	0.000000	-1.000000	-1.000000	1844155.000000	1770065185.129731
-3283.740000	-7736.220000	235.575000	13413.195000	-2548.305000	-3658.590000	8133.615000	-3551.310000	10.023658	27.995959	83.186514	79.033805	11.866971	7.266329	-3.917560	-17.494263	-2.517900	0.457800	-6.241340	0.701414	0.714964	0.066101	-1.000000	-1.000000	-1.000000	-1.000000	-1.000000	-1.000000	-1.000000	75.310345	0.000000	-1.000000	-1.000000	1844156.000000	1770065185.129736
-3270.600000	-7741.215000	220.050000	13387.770000	-2579.805000	-3696.210000	8205.255000	-3570.165000	23.190497	36.969181	49.449786	45.953678	20.004719	19.717681	1.007386	-10.957045	-2.517900	0.457800	-6.241340	0.701414	0.714964	0.066101	-1.000000	-1.000000	-1.000000	-1.000000	-1.000000	-1.000000	-1.000000	75.310345	0.000000	-1.000000	-1.000000	1844157.000000	1770065185.141582
-3262.320000	-7743.690000	213.930000	13383.720000	-2596.905000	-3680.190000	8148.555000	-3546.405000	23.299402	27.175330	-2.248588	-4.384835	16.687929	22.888992	5.902360	0.190482	-2.517900	0.457800	-6.241340	0.701414	0.714964	0.066101	-1.000000	-1.000000	-1.000000	-1.000000	-1.000000	-1.000000	-1.000000	75.310345	0.000000	-1.000000	-1.000000	1844158.000000	1770065185.141594
-3253.275000	-7713.225000	250.920000	13432.995000	-2542.905000	-3685.545000	8193.150000	-3512.655000	12.857990	5.362739	-51.710244	-51.025286	3.666623	15.952051	7.174758	13.519142	-2.517900	0.457800	-6.241340	0.701414	0.714964	0.066101	-1.000000	-1.000000	-1.000000	-1.000000	-1.000000	-1.000000	-1.000000	75.310345	0.000000	-1.000000	-1.000000	1844159.000000	1770065185.141608
-3301.380000	-7758.180000	212.670000	13394.115000	-2579.625000	-3794.130000	8343.585000	-3550.230000	0.517704	-13.663121	-76.088175	-71.990409	-9.216121	1.262394	6.602283	25.427748	-2.517900	0.457800	-6.241340	0.701414	0.714964	0.066101	-1.000000	-1.000000	-1.000000	-1.000000	-1.000000	-1.000000	-1.000000	75.310345	0.000000	-1.000000	-1.000000	1844160.000000	1770065185.141613
-3314.475000	-7767.810000	198.675000	13368.195000	-2607.615000	-3788.640000	8317.440000	-3562.470000	-8.578124	-21.667324	-66.298431	-60.238608	-14.659474	-17.487055	11.751335	27.741559	-2.777320	7.431620	-8.194620	0.704466	0.716124	0.063904	-1.000000	-1.000000	-1.000000	-1.000000	-1.000000	-1.000000	-1.000000	75.241379	0.000000	-1.000000	-1.000000	1844161.000000	1770065185.141620
-3323.655000	-7767.405000	202.095000	13373.190000	-2609.595000	-3790.080000	8292.015000	-3583.755000	-14.645478	-20.282605	-32.513318	-26.909001	-12.856416	-31.452808	20.130695	14.973706	-2.777320	7.431620	-8.194620	0.704466	0.716124	0.063904	-1.000000	-1.000000	-1.000000	-1.000000	-1.000000	-1.000000	-1.000000	75.241379	0.000000	-1.000000	-1.000000	1844162.000000	1770065185.141624
-3322.350000	-7762.905000	209.835000	13389.480000	-2586.420000	-3777.525000	8283.825000	-3600.855000	-17.787138	-14.280805	5.360453	9.125216	-7.140255	-30.474049	17.842114	-5.939483	-2.777320	7.431620	-8.194620	0.704466	0.716124	0.063904	-1.000000	-1.000000	-1.000000	-1.000000	-1.000000	-1.000000	-1.000000	75.241379	0.000000	-1.000000	-1.000000	1844163.000000	1770065185.143981
-3291.840000	-7768.530000	203.535000	13387.860000	-2589.390000	-3771.990000	8269.110000	-3481.470000	-15.520647	-7.242288	29.978538	31.687823	-0.546179	-14.533547	0.429512	-18.983623	-2.777320	7.431620	-8.194620	0.704466	0.716124	0.063904	-1.000000	-1.000000	-1.000000	-1.000000	-1.000000	-1.000000	-1.000000	75.241379	0.000000	-1.000000	-1.000000	1844164.000000	1770065185.143988
-3296.520000	-7772.265000	199.935000	13384.935000	-2587.365000	-3738.465000	8220.600000	-3488.490000	-6.471114	-1.054983	34.079710	33.847938	4.636163	6.967542	-21.464923	-13.600435	-2.777320	7.431620	-8.194620	0.704466	0.716124	0.063904	-1.000000	-1.000000	-1.000000	-1.000000	-1.000000	-1.000000	-1.000000	75.241379	0.000000	-1.000000	-1.000000	1844165.000000	1770065185.156239
-3287.070000	-7752.780000	219.780000	13403.340000	-2563.245000	-3710.295000	8283.870000	-3540.285000	5.277361	3.480096	21.766544	20.032448	7.721928	25.473212	-35.345892	3.232828	-2.777320	7.431620	-8.194620	0.704466	0.716124	0.063904	-1.000000	-1.000000	-1.000000	-1.000000	-1.000000	-1.000000	-1.000000	75.241379	0.000000	-1.000000	-1.000000	1844166.000000	1770065185.156250
-3293.505000	-7759.665000	215.685000	13399.065000	-2572.155000	-3715.830000	8286.435000	-3579.570000	13.211497	6.497768	3.780492	1.315134	9.172773	35.743375	-34.185522	13.630819	-2.777320	7.431620	-8.194620	0.704466	0.716124	0.063904	-1.000000	-1.000000	-1.000000	-1.000000	-1.000000	-1.000000	-1.000000	75.241379	0.000000	-1.000000	-1.000000	1844167.000000	1770065185.156260
-3311.145000	-7779.330000	195.435000	13377.195000	-2602.530000	-3752.145000	8236.620000	-3547.305000	14.484235	8.100585	-10.027153	-12.800917	7.634612	33.710535	-20.426714	8.301015	-2.777320	7.431620	-8.194620	0.704466	0.716124	0.063904	-1.000000	-1.000000	-1.000000	-1.000000	-1.000000	-1.000000	-1.000000	75.241379	0.000000	-1.000000	-1.000000	1844168.000000	1770065185.156265
-3311.055000	-7778.655000	196.155000	13378.860000	-2599.290000	-3746.745000	8258.985000	-3539.430000	10.900022	8.150812	-14.349498	-17.382937	2.145418	20.038324	-5.566967	-5.591896	-2.777320	7.431620	-8.194620	0.704466	0.716124	0.063904	-1.000000	-1.000000	-1.000000	-1.000000	-1.000000	-1.000000	-1.000000	75.241379	0.000000	-1.000000	-1.000000	1844169.000000	1770065185.161390
-3295.170000	-7764.300000	209.070000	13390.785000	-2586.690000	-3735.585000	8268.795000	-3581.415000	6.033933	7.400854	-8.404115	-10.998589	-3.409113	1.727793	3.749128	-15.873661	-2.777320	7.431620	-8.194620	0.704466	0.716124	0.063904	-1.000000	-1.000000	-1.000000	-1.000000	-1.000000	-1.000000	-1.000000	75.241379	0.000000	-1.000000	-1.000000	1844170.000000	1770065185.161402
-3292.470000	-7792.470000	172.935000	13351.185000	-2630.565000	-3776.895000	8259.255000	-3435.885000	2.150457	5.878714	2.692802	1.804124	-5.287989	-14.052480	10.438868	-15.241691	-7.233240	11.185580	-8.881320	0.695555	0.719969	0.057373	-1.000000	-1.000000	-1.000000	-1.000000	-1.000000	-1.000000	-1.000000	75.241379	0.000000	-1.000000	-1.000000	1844171.000000	1770065185.161414
-3269.250000	-7749.990000	217.755000	13396.725000	-2589.885000	-3732.705000	8285.940000	-3544.200000	-0.520339	2.588659	10.521006	11.573241	-4.876293	-23.989713	17.251310	-3.206384	-7.233240	11.185580	-8.881320	0.695555	0.719969	0.057373	-1.000000	-1.000000	-1.000000	-1.000000	-1.000000	-1.000000	-1.000000	75.241379	0.000000	-1.000000	-1.000000	1844172.000000	1770065185.161419
-3270.690000	-7727.670000	251.640000	13440.510000	-2540.565000	-3674.790000	8284.410000	-3571.830000	-2.666641	-0.951207	11.607584	13.491447	-3.164085	-25.706936	23.614416	8.880198	-7.233240	11.185580	-8.881320	0.695555	0.719969	0.057373	-1.000000	-1.000000	-1.000000	-1.000000	-1.000000	-1.000000	-1.000000	75.241379	0.000000	-1.000000	-1.000000	1844173.000000	1770065185.171189
-3277.935000	-7746.390000	238.185000	13441.095000	-2526.255000	-3665.880000	8282.835000	-3574.530000	-5.190112	-2.473033	8.155032	10.099128	1.437698	-17.738670	26.485133	8.174665	-7.233240	11.185580	-8.881320	0.695555	0.719969	0.057373	-1.000000	-1.000000	-1.000000	-1.000000	-1.000000	-1.000000	-1.000000	75.241379	0.000000	-1.000000	-1.000000	1844174.000000	1770065185.171200
-3245.175000	-7714.260000	267.210000	13461.615000	-2516.580000	-3671.460000	8282.385000	-3573.765000	-7.785923	-2.827693	2.228913	4.497261	7.453800	-4.287564	21.004154	-1.615077	-7.233240	11.185580	-8.881320	0.695555	0.719969	0.057373	-1.000000	-1.000000	-1.000000	-1.000000	-1.000000	-1.000000	-1.000000	75.241379	0.000000	-1.000000	-1.000000	1844175.000000	1770065185.171211
-3204.405000	-7674.615000	304.245000	13491.630000	-2494.170000	-3649.455000	8306.775000	-3484.755000	-7.442664	-2.541402	-3.769499	-1.379722	10.560289	7.181423	6.623218	-6.673751	-7.233240	11.185580	-8.881320	0.695555	0.719969	0.057373	-1.000000	-1.000000	-1.000000	-1.000000	-1.000000	-1.000000	-1.000000	75.241379	0.000000	-1.000000	-1.000000	1844176.000000	1770065185.171216
-3109.275000	-7564.005000	415.125000	13599.360000	-2395.350000	-3559.905000	8329.995000	-3396.870000	-0.306672	1.387425	-4.495218	-3.438139	10.242299	14.491567	-9.616096	0.964126	-7.233240	11.185580	-8.881320	0.695555	0.719969	0.057373	-1.000000	-1.000000	-1.000000	-1.000000	-1.000000	-1.000000	-1.000000	75.241379	0.000000	-1.000000	-1.000000	1844177.000000	1770065185.172035
-3008.340000	-7445.025000	534.960000	13717.710000	-2284.965000	-3466.845000	8352.540000	-3361.140000	13.908834	11.779481	4.677813	3.221933	11.171579	20.874838	-19.271131	17.829647	-7.233240	11.185580	-8.881320	0.695555	0.719969	0.057373	-1.000000	-1.000000	-1.000000	-1.000000	-1.000000	-1.000000	-1.000000	75.241379	0.000000	-1.000000	-1.000000	1844178.000000	1770065185.172045
-3045.105000	-7493.715000	458.010000	13667.400000	-2326.140000	-3490.065000	8411.940000	-3358.980000	27.605028	23.857889	18.889282	15.841288	14.601071	25.903084	-18.408306	31.206513	-7.233240	11.185580	-8.881320	0.695555	0.719969	0.057373	-1.000000	-1.000000	-1.000000	-1.000000	-1.000000	-1.000000	-1.000000	75.241379	0.000000	-1.000000	-1.000000	1844179.000000	1770065185.175958
-3288.780000	-7786.980000	132.975000	13357.215000	-2624.760000	-3745.395000	8332.875000	-3504.960000	24.605237	20.996112	18.812950	17.139449	9.139117	19.291402	-9.731318	26.043415	-7.233240	11.185580	-8.881320	0.695555	0.719969	0.057373	-1.000000	-1.000000	-1.000000	-1.000000	-1.000000	-1.000000	-1.000000	75.241379	0.000000	-1.000000	-1.000000	1844180.000000	1770065185.175968
-3393.090000	-7918.290000	36.585000	13209.345000	-2774.880000	-3889.800000	8178.030000	-3646.035000	-7.232856	-12.297712	-13.382684	-11.969432	-20.422689	-11.358894	-3.784908	-3.733066	-13.810300	18.724020	-5.539380	0.705381	0.728392	0.048523	-1.000000	-1.000000	-1.000000	-1.000000	-1.000000	-1.000000	-1.000000	75.241379	0.000000	-1.000000	-1.000000	1844181.000000	1770065185.180030
-3379.950000	-7878.645000	119.700000	13275.900000	-2705.175000	-3825.090000	8190.225000	-3668.805000	-54.942080	-63.841053	-63.915081	-62.368209	-65.974643	-58.050247	-9.444346	-45.221817	-13.810300	18.724020	-5.539380	0.705381	0.728392	0.048523	-1.000000	-1.000000	-1.000000	-1.000000	-1.000000	-1.000000	-1.000000	75.241379	0.000000	-1.000000	-1.000000	1844182.000000	1770065185.180040
-3407.355000	-7859.655000	149.535000	13333.815000	-2656.125000	-3773.745000	8184.825000	-3669.795000	-84.185034	-94.167522	-90.442061	-93.265038	-91.109166	-86.523835	-20.670746	-71.612492	-13.810300	18.724020	-5.539380	0.705381	0.728392	0.048523	-1.000000	-1.000000	-1.000000	-1.000000	-1.000000	-1.000000	-1.000000	75.241379	0.000000	-1.000000	-1.000000	1844183.000000	1770065185.193337
-3345.570000	-7843.545000	145.260000	13340.700000	-2654.460000	-3760.020000	8243.325000	-3512.745000	-70.689109	-74.545934	-65.710317	-72.361518	-67.249993	-68.014636	-22.467542	-61.300026	-13.810300	18.724020	-5.539380	0.705381	0.728392	0.048523	-1.000000	-1.000000	-1.000000	-1.000000	-1.000000	-1.000000	-1.000000	75.241379	0.000000	-1.000000	-1.000000	1844184.000000	1770065185.193349
-3367.980000	-7862.040000	121.860000	13325.760000	-2659.545000	-3765.105000	8243.325000	-3563.055000	-19.863481	-14.132752	-3.824157	-8.543548	-3.916007	-9.281813	-7.729108	-16.290741	-13.810300	18.724020	-5.539380	0.705381	0.728392	0.048523	-1.000000	-1.000000	-1.000000	-1.000000	-1.000000	-1.000000	-1.000000	75.241379	0.000000	-1.000000	-1.000000	1844185.000000	1770065185.193362
-3420.315000	-7882.605000	101.295000	13302.855000	-2685.150000	-3801.735000	8180.145000	-3588.030000	38.503541	50.343199	56.150003	58.373697	60.831424	53.561645	15.200674	35.197490	-13.810300	18.724020	-5.539380	0.705381	0.728392	0.048523	-1.000000	-1.000000	-1.000000	-1.000000	-1.000000	-1.000000	-1.000000	75.241379	0.000000	-1.000000	-1.000000	1844186.000000	1770065185.193368
-3328.065000	-7799.805000	181.710000	13373.865000	-2629.395000	-3763.035000	8182.260000	-3545.415000	73.021413	85.184671	83.305167	92.091780	92.174612	84.997562	29.981232	62.621580	-13.810300	18.724020	-5.539380	0.705381	0.728392	0.048523	-1.000000	-1.000000	-1.000000	-1.000000	-1.000000	-1.000000	-1.000000	75.241379	0.000000	-1.000000	-1.000000	1844187.000000	1770065185.193374
-3062.610000	-7517.340000	467.010000	13656.735000	-2360.025000	-3525.075000	8282.520000	-3569.670000	79.476972	88.218611	80.701506	90.382652	87.764271	80.228175	29.556125	58.444536	-13.810300	18.724020	-5.539380	0.705381	0.728392	0.048523	-1.000000	-1.000000	-1.000000	-1.000000	-1.000000	-1.000000	-1.000000	75.241379	0.000000	-1.000000	-1.000000	1844188.000000	1770065185.193380
-2881.170000	-7301.655000	681.930000	13867.155000	-2160.810000	-3366.045000	8331.525000	-3492.675000	80.323590	85.964238	78.163343	82.298201	76.517803	65.977168	23.550147	37.637718	-13.810300	18.724020	-5.539380	0.705381	0.728392	0.048523	-1.000000	-1.000000	-1.000000	-1.000000	-1.000000	-1.000000	-1.000000	75.241379	0.000000	-1.000000	-1.000000	1844189.000000	1770065185.206930
-2839.185000	-7287.930000	685.305000	13846.860000	-2189.340000	-3429.630000	8176.680000	-3200.895000	86.923756	91.944536	87.275439	83.895446	75.850239	60.473280	21.733483	24.242460	-13.810300	18.724020	-5.539380	0.705381	0.728392	0.048523	-1.000000	-1.000000	-1.000000	-1.000000	-1.000000	-1.000000	-1.000000	75.241379	0.000000	-1.000000	-1.000000	1844190.000000	1770065185.206944
-2719.215000	-7177.995000	780.885000	13922.865000	-2104.065000	-3337.065000	8139.555000	-3005.730000	81.097069	84.251632	80.953113	72.799934	65.422673	48.343816	17.267567	33.239544	-31.389820	13.810300	-11.139800	0.706907	0.731077	0.038940	-1.000000	-1.000000	-1.000000	-1.000000	-1.000000	-1.000000	-1.000000	75.241379	0.000000	-1.000000	-1.000000	1844191.000000	1770065185.206957
-2591.685000	-6966.495000	949.455000	14082.705000	-1917.945000	-3042.900000	8785.800000	-3042.045000	43.884611	40.825468	34.763518	25.332540	22.917909	13.926815	8.157008	51.118614	-31.389820	13.810300	-11.139800	0.706907	0.731077	0.038940	-1.000000	-1.000000	-1.000000	-1.000000	-1.000000	-1.000000	-1.000000	75.241379	0.000000	-1.000000	-1.000000	1844192.000000	1770065185.206962
-3166.695000	-7596.495000	345.825000	13483.485000	-2481.615000	-3535.740000	8682.615000	-3371.895000	-27.142885	-36.543184	-46.160399	-54.443230	-48.018800	-36.337954	11.269117	38.895570	-31.389820	13.810300	-11.139800	0.706907	0.731077	0.038940	-1.000000	-1.000000	-1.000000	-1.000000	-1.000000	-1.000000	-1.000000	75.241379	0.000000	-1.000000	-1.000000	1844193.000000	1770065185.209845
-3669.030000	-8270.280000	-296.865000	12896.505000	-3038.985000	-4099.365000	8102.610000	-3794.895000	-128.151943	-142.322499	-149.971006	-154.045960	-138.108356	-100.880035	17.321388	-31.947797	-31.389820	13.810300	-11.139800	0.706907	0.731077	0.038940	-1.000000	-1.000000	-1.000000	-1.000000	-1.000000	-1.000000	-1.000000	75.241379	0.000000	-1.000000	-1.000000	1844194.000000	1770065185.209857
-3708.765000	-8269.515000	-306.000000	12849.840000	-3117.645000	-4226.625000	7766.640000	-3928.185000	-231.309805	-253.103699	-250.908109	-247.172954	-226.540694	-175.757427	-16.222907	-140.676552	-31.389820	13.810300	-11.139800	0.706907	0.731077	0.038940	-1.000000	-1.000000	-1.000000	-1.000000	-1.000000	-1.000000	-1.000000	75.241379	0.000000	-1.000000	-1.000000	1844195.000000	1770065185.209868
-3464.865000	-7993.755000	6.795000	13148.145000	-2893.545000	-4071.195000	7616.700000	-3766.275000	-270.471872	-298.454621	-283.457752	-272.278347	-257.265100	-218.045174	-96.103854	-217.584875	-31.389820	13.810300	-11.139800	0.706907	0.731077	0.038940	-1.000000	-1.000000	-1.000000	-1.000000	-1.000000	-1.000000	-1.000000	75.241379	0.000000	-1.000000	-1.000000	1844196.000000	1770065185.209874
-3124.530000	-7616.430000	356.265000	13518.630000	-2516.535000	-3656.475000	8327.115000	-3278.385000	-189.633157	-210.320400	-187.125252	-174.256862	-175.551642	-169.474316	-158.601278	-188.830799	-31.389820	13.810300	-11.139800	0.706907	0.731077	0.038940	-1.000000	-1.000000	-1.000000	-1.000000	-1.000000	-1.000000	-1.000000	75.241379	0.000000	-1.000000	-1.000000	1844197.000000	1770065185.212294
-3346.020000	-7855.065000	123.885000	13342.680000	-2632.950000	-3708.495000	8504.280000	-3412.170000	-7.898938	-6.160416	15.316410	24.990377	6.190463	-21.807976	-121.605966	-43.926425	-31.389820	13.810300	-11.139800	0.706907	0.731077	0.038940	-1.000000	-1.000000	-1.000000	-1.000000	-1.000000	-1.000000	-1.000000	75.241379	0.000000	-1.000000	-1.000000	1844198.000000	1770065185.212306
-3524.310000	-8030.655000	-44.730000	13226.085000	-2751.165000	-3841.830000	8347.770000	-3756.870000	176.669649	203.772841	213.664229	221.478175	196.844548	154.984051	20.189120	127.706890	-31.389820	13.810300	-11.139800	0.706907	0.731077	0.038940	-1.000000	-1.000000	-1.000000	-1.000000	-1.000000	-1.000000	-1.000000	75.241379	0.000000	-1.000000	-1.000000	1844199.000000	1770065185.217084
-3531.960000	-8021.070000	-23.805000	13205.970000	-2807.280000	-3887.685000	8265.105000	-3698.460000	261.974390	302.902355	297.925329	307.308381	290.908674	258.190798	167.724525	207.892106	-31.389820	13.810300	-11.139800	0.706907	0.731077	0.038940	-1.000000	-1.000000	-1.000000	-1.000000	-1.000000	-1.000000	-1.000000	75.241379	0.000000	-1.000000	-1.000000	1844200.000000	1770065185.217094
-3529.665000	-7982.145000	31.185000	13234.635000	-2792.880000	-3881.205000	8146.215000	-3688.920000	223.330582	260.176208	245.666465	253.892586	250.101054	234.928767	206.076385	165.957456	-71.355760	-16.007740	-21.318220	0.693846	0.723143	0.036987	-1.000000	-1.000000	-1.000000	-1.000000	-1.000000	-1.000000	-1.000000	75.241379	0.000000	-1.000000	-1.000000	1844201.000000	1770065185.221354
-3420.135000	-7874.055000	125.910000	13340.475000	-2677.320000	-3797.820000	8232.930000	-3644.865000	122.822257	143.653295	128.291706	126.783279	130.105624	125.576555	114.713631	69.728366	-71.355760	-16.007740	-21.318220	0.693846	0.723143	0.036987	-1.000000	-1.000000	-1.000000	-1.000000	-1.000000	-1.000000	-1.000000	75.241379	0.000000	-1.000000	-1.000000	1844202.000000	1770065185.221365
-3259.890000	-7707.015000	293.625000	13493.970000	-2532.150000	-3686.805000	8195.265000	-3535.875000	45.928098	51.275155	39.968111	23.097337	26.467369	22.202992	-16.332397	3.599811	-71.355760	-16.007740	-21.318220	0.693846	0.723143	0.036987	-1.000000	-1.000000	-1.000000	-1.000000	-1.000000	-1.000000	-1.000000	75.241379	0.000000	-1.000000	-1.000000	1844203.000000	1770065185.224020
-3097.395000	-7531.335000	458.685000	13641.120000	-2418.615000	-3627.315000	8099.415000	-3399.390000	24.115025	20.470490	13.110258	-15.474625	-14.241760	-21.320475	-85.932614	-0.708389	-71.355760	-16.007740	-21.318220	0.693846	0.723143	0.036987	-1.000000	-1.000000	-1.000000	-1.000000	-1.000000	-1.000000	-1.000000	75.241379	0.000000	-1.000000	-1.000000	1844204.000000	1770065185.224030
-3130.695000	-7555.590000	397.845000	13607.820000	-2439.045000	-3618.180000	8302.320000	-3440.205000	18.283199	8.470838	2.853738	-25.799849	-23.524597	-27.834130	-74.340945	22.422212	-71.355760	-16.007740	-21.318220	0.693846	0.723143	0.036987	-1.000000	-1.000000	-1.000000	-1.000000	-1.000000	-1.000000	-1.000000	75.241379	0.000000	-1.000000	-1.000000	1844205.000000	1770065185.228210
-3148.155000	-7557.525000	410.445000	13643.910000	-2365.965000	-3473.190000	8560.755000	-3497.265000	-23.331783	-40.340150	-45.711123	-61.678885	-53.877167	-46.906251	-29.414281	14.523164	-71.355760	-16.007740	-21.318220	0.693846	0.723143	0.036987	-1.000000	-1.000000	-1.000000	-1.000000	-1.000000	-1.000000	-1.000000	75.241379	0.000000	-1.000000	-1.000000	1844206.000000	1770065185.228220
-3155.130000	-7565.895000	457.290000	13663.170000	-2345.040000	-3478.770000	8486.595000	-3477.915000	-99.177572	-122.256625	-125.370448	-123.218992	-109.400635	-87.527864	0.899659	-40.809145	-71.355760	-16.007740	-21.318220	0.693846	0.723143	0.036987	-1.000000	-1.000000	-1.000000	-1.000000	-1.000000	-1.000000	-1.000000	75.241379	0.000000	-1.000000	-1.000000	1844207.000000	1770065185.232067
-3176.820000	-7572.195000	469.260000	13664.160000	-2355.570000	-3503.385000	8392.005000	-3434.400000	-158.086246	-181.575341	-177.388066	-162.521681	-147.775274	-117.367322	3.473550	-99.993019	-71.355760	-16.007740	-21.318220	0.693846	0.723143	0.036987	-1.000000	-1.000000	-1.000000	-1.000000	-1.000000	-1.000000	-1.000000	75.241379	0.000000	-1.000000	-1.000000	1844208.000000	1770065185.232078
-3354.975000	-7763.445000	260.865000	13457.970000	-2557.575000	-3669.615000	8242.335000	-3483.585000	-161.962084	-179.694401	-165.897209	-148.357591	-139.224350	-113.400150	-14.500743	-115.099859	-71.355760	-16.007740	-21.318220	0.693846	0.723143	0.036987	-1.000000	-1.000000	-1.000000	-1.000000	-1.000000	-1.000000	-1.000000	75.241379	0.000000	-1.000000	-1.000000	1844209.000000	1770065185.242135
-3360.105000	-7775.370000	247.455000	13464.000000	-2543.175000	-3662.280000	8219.430000	-3537.225000	-114.841296	-124.378090	-105.926295	-91.623995	-91.321605	-80.623855	-40.978227	-81.004519	-71.355760	-16.007740	-21.318220	0.693846	0.723143	0.036987	-1.000000	-1.000000	-1.000000	-1.000000	-1.000000	-1.000000	-1.000000	75.241379	0.000000	-1.000000	-1.000000	1844210.000000	1770065185.242144
-3349.170000	-7784.460000	233.280000	13452.615000	-2554.470000	-3675.870000	8222.670000	-3542.445000	-39.737944	-41.269257	-27.465080	-17.102739	-24.792310	-30.814792	-54.961332	-22.724185	-43.292620	-14.207060	-6.302380	0.670347	0.700438	0.077209	-1.000000	-1.000000	-1.000000	-1.000000	-1.000000	-1.000000	-1.000000	75.241379	0.000000	-1.000000	-1.000000	1844211.000000	1770065185.242159
-3364.200000	-7815.330000	192.735000	13400.865000	-2608.335000	-3713.580000	8050.995000	-3522.420000	35.729586	41.208084	43.596042	50.714581	38.684659	23.374597	-37.721161	31.064037	-43.292620	-14.207060	-6.302380	0.670347	0.700438	0.077209	-1.000000	-1.000000	-1.000000	-1.000000	-1.000000	-1.000000	-1.000000	75.241379	0.000000	-1.000000	-1.000000	1844212.000000	1770065185.242165
-3325.770000	-7758.675000	246.825000	13442.130000	-2585.970000	-3725.820000	7824.510000	-3527.280000	82.298043	92.199928	83.000303	86.808976	75.710878	62.221708	1.182365	58.698628	-43.292620	-14.207060	-6.302380	0.670347	0.700438	0.077209	-1.000000	-1.000000	-1.000000	-1.000000	-1.000000	-1.000000	-1.000000	75.241379	0.000000	-1.000000	-1.000000	1844213.000000	1770065185.245594
-3137.670000	-7557.030000	446.670000	13636.305000	-2403.675000	-3569.940000	7802.955000	-3469.365000	89.059601	100.070087	85.256028	84.317926	77.797510	71.302776	25.146919	53.847762	-43.292620	-14.207060	-6.302380	0.670347	0.700438	0.077209	-1.000000	-1.000000	-1.000000	-1.000000	-1.000000	-1.000000	-1.000000	75.241379	0.000000	-1.000000	-1.000000	1844214.000000	1770065185.245604
-2894.805000	-7286.220000	730.350000	13934.790000	-2101.365000	-3294.405000	8244.180000	-3348.630000	75.926619	86.377819	73.736293	66.536153	63.531729	58.614927	17.029418	31.506432	-43.292620	-14.207060	-6.302380	0.670347	0.700438	0.077209	-1.000000	-1.000000	-1.000000	-1.000000	-1.000000	-1.000000	-1.000000	75.241379	0.000000	-1.000000	-1.000000	1844215.000000	1770065185.247952
-2842.065000	-7211.925000	817.560000	14029.380000	-2011.545000	-3206.250000	8658.495000	-3174.255000	69.283584	79.601863	73.378409	61.716903	58.883390	47.876712	14.403248	17.487806	-43.292620	-14.207060	-6.302380	0.670347	0.700438	0.077209	-1.000000	-1.000000	-1.000000	-1.000000	-1.000000	-1.000000	-1.000000	75.241379	0.000000	-1.000000	-1.000000	1844216.000000	1770065185.247962
-2847.330000	-7232.670000	794.700000	13996.710000	-2051.595000	-3246.210000	8490.240000	-2911.410000	69.600130	79.846535	79.580069	69.089474	65.619082	49.046609	55.764174	26.560385	-43.292620	-14.207060	-6.302380	0.670347	0.700438	0.077209	-1.000000	-1.000000	-1.000000	-1.000000	-1.000000	-1.000000	-1.000000	75.241379	0.000000	-1.000000	-1.000000	1844217.000000	1770065185.252086
-3145.545000	-7600.185000	419.085000	13622.355000	-2395.440000	-3526.200000	8325.000000	-3080.790000	53.801926	60.365255	63.671401	59.538316	58.042933	44.502592	110.654596	48.044420	-43.292620	-14.207060	-6.302380	0.670347	0.700438	0.077209	-1.000000	-1.000000	-1.000000	-1.000000	-1.000000	-1.000000	-1.000000	75.241379	0.000000	-1.000000	-1.000000	1844218.000000	1770065185.252097
-3488.850000	-7957.305000	64.665000	13278.105000	-2709.315000	-3782.520000	8546.850000	-3577.455000	0.449645	-2.411647	2.327441	5.343580	9.371800	9.617824	118.721143	46.134337	-43.292620	-14.207060	-6.302380	0.670347	0.700438	0.077209	-1.000000	-1.000000	-1.000000	-1.000000	-1.000000	-1.000000	-1.000000	75.241379	0.000000	-1.000000	-1.000000	1844219.000000	1770065185.257392
-3265.695000	-7679.880000	343.710000	13553.460000	-2441.655000	-3544.110000	8556.525000	-3607.065000	-81.430491	-94.063072	-89.172072	-82.167047	-71.276665	-51.461993	67.774179	-8.503308	-43.292620	-14.207060	-6.302380	0.670347	0.700438	0.077209	-1.000000	-1.000000	-1.000000	-1.000000	-1.000000	-1.000000	-1.000000	75.241379	0.000000	-1.000000	-1.000000	1844220.000000	1770065185.257403
-3412.755000	-7858.305000	167.625000	13369.005000	-2619.045000	-3718.395000	8051.760000	-3718.530000	-145.357577	-159.831510	-155.158112	-148.064869	-132.972417	-99.286705	-12.693110	-95.356118	-20.631520	3.906560	-0.625660	0.655028	0.693174	0.090027	-1.000000	-1.000000	-1.000000	-1.000000	-1.000000	-1.000000	-1.000000	75.241379	0.000000	-1.000000	-1.000000	1844221.000000	1770065185.260218
-3692.430000	-8202.060000	-189.000000	13014.810000	-2960.190000	-3989.115000	7879.185000	-3860.505000	-154.984899	-163.860790	-159.516914	-154.858458	-140.638682	-106.917790	-97.383774	-157.983269	-20.631520	3.906560	-0.625660	0.655028	0.693174	0.090027	-1.000000	-1.000000	-1.000000	-1.000000	-1.000000	-1.000000	-1.000000	75.241379	0.000000	-1.000000	-1.000000	1844222.000000	1770065185.260228
-3448.755000	-7934.130000	81.990000	13297.365000	-2698.290000	-3761.910000	8241.120000	-3634.065000	-115.213025	-118.918182	-115.702511	-114.424406	-106.172787	-84.665747	-162.579105	-153.523934	-20.631520	3.906560	-0.625660	0.655028	0.693174	0.090027	-1.000000	-1.000000	-1.000000	-1.000000	-1.000000	-1.000000	-1.000000	75.241379	0.000000	-1.000000	-1.000000	1844223.000000	1770065185.264231
-3198.375000	-7629.525000	404.460000	13621.995000	-2386.170000	-3510.495000	8271.720000	-3472.830000	-40.353377	-41.888240	-41.285958	-43.075708	-44.968598	-43.161201	-176.864800	-73.858663	-20.631520	3.906560	-0.625660	0.655028	0.693174	0.090027	-1.000000	-1.000000	-1.000000	-1.000000	-1.000000	-1.000000	-1.000000	75.241379	0.000000	-1.000000	-1.000000	1844224.000000	1770065185.264241
-3269.655000	-7709.535000	321.120000	13534.830000	-2470.995000	-3597.255000	8338.230000	-3450.015000	55.849833	57.433181	54.504968	50.841854	37.861618	17.398033	-128.858225	47.218782	-20.631520	3.906560	-0.625660	0.655028	0.693174	0.090027	-1.000000	-1.000000	-1.000000	-1.000000	-1.000000	-1.000000	-1.000000	75.241379	0.000000	-1.000000	-1.000000	1844225.000000	1770065185.268067
-3522.690000	-8019.540000	-6.345000	13202.865000	-2800.530000	-3902.130000	8326.035000	-3451.095000	138.101755	144.797510	139.005232	135.103765	115.597529	78.267759	-35.306993	145.815040	-20.631520	3.906560	-0.625660	0.655028	0.693174	0.090027	-1.000000	-1.000000	-1.000000	-1.000000	-1.000000	-1.000000	-1.000000	75.241379	0.000000	-1.000000	-1.000000	1844226.000000	1770065185.268077
-3713.040000	-8204.580000	-191.970000	13020.030000	-2970.990000	-4024.035000	8196.750000	-3814.020000	166.435122	177.163450	170.478366	167.645124	149.247679	108.470238	70.450105	174.126221	-20.631520	3.906560	-0.625660	0.655028	0.693174	0.090027	-1.000000	-1.000000	-1.000000	-1.000000	-1.000000	-1.000000	-1.000000	75.241379	0.000000	-1.000000	-1.000000	1844227.000000	1770065185.273609
-3647.970000	-8118.135000	-91.080000	13130.505000	-2858.805000	-3922.965000	8125.155000	-3824.370000	132.931375	144.924027	139.972947	138.601125	127.378072	98.485001	140.476799	131.817198	-20.631520	3.906560	-0.625660	0.655028	0.693174	0.090027	-1.000000	-1.000000	-1.000000	-1.000000	-1.000000	-1.000000	-1.000000	75.241379	0.000000	-1.000000	-1.000000	1844228.000000	1770065185.273625
-3540.870000	-7988.490000	46.305000	13270.995000	-2721.915000	-3790.485000	8210.925000	-3708.405000	62.710198	73.328311	72.668046	72.903383	71.351078	64.065196	145.765066	55.704311	-20.631520	3.906560	-0.625660	0.655028	0.693174	0.090027	-1.000000	-1.000000	-1.000000	-1.000000	-1.000000	-1.000000	-1.000000	75.241379	0.000000	-1.000000	-1.000000	1844229.000000	1770065185.279440
-3491.505000	-7936.470000	110.070000	13317.480000	-2679.885000	-3761.370000	8196.570000	-3683.250000	-6.644416	0.758117	5.616492	7.616780	14.768605	28.773488	109.966625	-10.237004	-20.631520	3.906560	-0.625660	0.655028	0.693174	0.090027	-1.000000	-1.000000	-1.000000	-1.000000	-1.000000	-1.000000	-1.000000	75.241379	0.000000	-1.000000	-1.000000	1844230.000000	1770065185.279451
-3438.225000	-7890.750000	162.225000	13372.245000	-2621.970000	-3714.840000	8160.390000	-3648.105000	-45.912723	-42.164733	-32.792046	-30.045622	-17.927665	7.315711	68.649186	-43.317584	-24.965360	47.199180	-5.905620	0.711302	0.709471	0.089233	-1.000000	-1.000000	-1.000000	-1.000000	-1.000000	-1.000000	-1.000000	75.241379	0.000000	-1.000000	-1.000000	1844231.000000	1770065185.284554
-3388.410000	-7835.445000	203.580000	13411.350000	-2587.185000	-3687.660000	8152.830000	-3562.740000	-55.624064	-56.388980	-46.159391	-44.834355	-32.369274	-8.888269	20.038414	-51.027172	-24.965360	47.199180	-5.905620	0.711302	0.709471	0.089233	-1.000000	-1.000000	-1.000000	-1.000000	-1.000000	-1.000000	-1.000000	75.241379	0.000000	-1.000000	-1.000000	1844232.000000	1770065185.284564
-3294.180000	-7733.295000	305.775000	13512.555000	-2496.780000	-3628.485000	8077.995000	-3430.620000	-57.265297	-65.025795	-59.600219	-61.096405	-51.771377	-37.314129	-48.246593	-51.650397	-24.965360	47.199180	-5.905620	0.711302	0.709471	0.089233	-1.000000	-1.000000	-1.000000	-1.000000	-1.000000	-1.000000	-1.000000	75.241379	0.000000	-1.000000	-1.000000	1844233.000000	1770065185.284658
-3303.450000	-7725.690000	321.030000	13536.675000	-2471.670000	-3576.960000	8163.315000	-3489.615000	-57.330463	-72.104439	-75.274185	-78.641180	-74.267155	-68.981057	-115.070783	-52.675549	-24.965360	47.199180	-5.905620	0.711302	0.709471	0.089233	-1.000000	-1.000000	-1.000000	-1.000000	-1.000000	-1.000000	-1.000000	75.241379	0.000000	-1.000000	-1.000000	1844234.000000	1770065185.284664
-3383.640000	-7832.790000	208.530000	13426.830000	-2573.820000	-3652.020000	8414.820000	-3667.815000	-41.982687	-57.645650	-67.523815	-69.908265	-70.732984	-71.799202	-133.332521	-50.942374	-24.965360	47.199180	-5.905620	0.711302	0.709471	0.089233	-1.000000	-1.000000	-1.000000	-1.000000	-1.000000	-1.000000	-1.000000	75.241379	0.000000	-1.000000	-1.000000	1844235.000000	1770065185.294742
-3453.120000	-7910.010000	133.650000	13347.720000	-2651.220000	-3714.795000	8297.055000	-3632.265000	-6.683753	-15.566709	-26.313287	-25.594804	-30.489487	-35.038793	-78.745996	-36.537959	-24.965360	47.199180	-5.905620	0.711302	0.709471	0.089233	-1.000000	-1.000000	-1.000000	-1.000000	-1.000000	-1.000000	-1.000000	75.241379	0.000000	-1.000000	-1.000000	1844236.000000	1770065185.294755
-3302.145000	-7726.005000	324.450000	13527.720000	-2477.745000	-3539.655000	8398.080000	-3433.680000	29.139290	29.225596	22.620462	25.661315	18.803473	13.385048	16.660871	-0.848277	-24.965360	47.199180	-5.905620	0.711302	0.709471	0.089233	-1.000000	-1.000000	-1.000000	-1.000000	-1.000000	-1.000000	-1.000000	75.241379	0.000000	-1.000000	-1.000000	1844237.000000	1770065185.294910
-3006.765000	-7456.275000	581.310000	13770.000000	-2248.515000	-3342.420000	8540.370000	-3333.195000	45.915099	51.416738	50.422112	52.988914	46.595231	42.567900	96.979949	46.293594	-24.965360	47.199180	-5.905620	0.711302	0.709471	0.089233	-1.000000	-1.000000	-1.000000	-1.000000	-1.000000	-1.000000	-1.000000	75.241379	0.000000	-1.000000	-1.000000	1844238.000000	1770065185.294919
-3035.295000	-7490.250000	545.265000	13741.380000	-2286.045000	-3400.830000	8317.080000	-3399.345000	44.375384	50.119048	52.828948	52.929546	48.674806	46.086711	126.106647	77.574967	-24.965360	47.199180	-5.905620	0.711302	0.709471	0.089233	-1.000000	-1.000000	-1.000000	-1.000000	-1.000000	-1.000000	-1.000000	75.241379	0.000000	-1.000000	-1.000000	1844239.000000	1770065185.299136
-2839.815000	-7284.870000	741.780000	13941.585000	-2103.840000	-3283.110000	8408.970000	-3162.645000	30.325450	33.062763	36.296397	34.427192	32.534840	28.643937	91.265230	71.198864	-24.965360	47.199180	-5.905620	0.711302	0.709471	0.089233	-1.000000	-1.000000	-1.000000	-1.000000	-1.000000	-1.000000	-1.000000	75.241379	0.000000	-1.000000	-1.000000	1844240.000000	1770065185.299147
-2965.095000	-7438.275000	530.055000	13697.730000	-2300.040000	-3408.795000	8581.185000	-3207.555000	2.547058	1.636540	2.552520	0.352666	0.860047	-5.561174	11.465728	28.723753	-16.145080	60.368560	-4.715340	0.755552	0.719236	0.075561	-1.000000	-1.000000	-1.000000	-1.000000	-1.000000	-1.000000	-1.000000	75.241379	0.000000	-1.000000	-1.000000	1844241.000000	1770065185.304434
-3316.815000	-7783.740000	176.085000	13336.470000	-2606.805000	-3636.315000	8100.180000	-3616.560000	-41.789981	-45.853693	-49.376911	-51.454846	-46.347747	-49.577663	-70.207679	-35.927919	-16.145080	60.368560	-4.715340	0.755552	0.719236	0.075561	-1.000000	-1.000000	-1.000000	-1.000000	-1.000000	-1.000000	-1.000000	75.241379	0.000000	-1.000000	-1.000000	1844242.000000	1770065185.304445
-3427.380000	-7928.100000	86.400000	13261.005000	-2695.815000	-3725.730000	8041.095000	-3620.565000	-94.042563	-99.624391	-106.337139	-108.558949	-96.427527	-88.046640	-127.530360	-103.784693	-16.145080	60.368560	-4.715340	0.755552	0.719236	0.075561	-1.000000	-1.000000	-1.000000	-1.000000	-1.000000	-1.000000	-1.000000	75.241379	0.000000	-1.000000	-1.000000	1844243.000000	1770065185.304457
-3493.305000	-8024.940000	25.605000	13188.735000	-2780.010000	-3828.240000	8028.855000	-3592.575000	-122.311816	-126.547703	-129.519124	-131.100205	-115.206894	-96.233110	-149.979418	-135.502742	-16.145080	60.368560	-4.715340	0.755552	0.719236	0.075561	-1.000000	-1.000000	-1.000000	-1.000000	-1.000000	-1.000000	-1.000000	75.241379	0.000000	-1.000000	-1.000000	1844244.000000	1770065185.304462
-3353.805000	-7856.190000	203.310000	13373.865000	-2608.830000	-3692.250000	8306.415000	-3522.330000	-94.421924	-94.972545	-86.724943	-86.237596	-75.756600	-59.067483	-118.389312	-96.864370	-16.145080	60.368560	-4.715340	0.755552	0.719236	0.075561	-1.000000	-1.000000	-1.000000	-1.000000	-1.000000	-1.000000	-1.000000	75.241379	0.000000	-1.000000	-1.000000	1844245.000000	1770065185.308482
-3386.430000	-7879.950000	145.530000	13384.035000	-2624.805000	-3688.515000	8441.955000	-3632.490000	-17.620364	-13.592233	5.281003	9.643631	6.836650	8.267152	-25.285111	-8.215879	-16.145080	60.368560	-4.715340	0.755552	0.719236	0.075561	-1.000000	-1.000000	-1.000000	-1.000000	-1.000000	-1.000000	-1.000000	75.241379	0.000000	-1.000000	-1.000000	1844246.000000	1770065185.308487
-3468.735000	-7977.465000	65.835000	13330.260000	-2708.955000	-3783.960000	8259.165000	-3648.690000	61.303749	69.545606	89.409495	100.174320	83.269077	68.079850	92.357549	71.583362	-16.145080	60.368560	-4.715340	0.755552	0.719236	0.075561	-1.000000	-1.000000	-1.000000	-1.000000	-1.000000	-1.000000	-1.000000	75.241379	0.000000	-1.000000	-1.000000	1844247.000000	1770065185.312116
-3259.485000	-7761.870000	289.125000	13507.380000	-2525.850000	-3646.215000	8250.435000	-3309.705000	100.903908	111.448522	121.784673	138.118449	113.729913	91.703203	169.566993	106.628361	-16.145080	60.368560	-4.715340	0.755552	0.719236	0.075561	-1.000000	-1.000000	-1.000000	-1.000000	-1.000000	-1.000000	-1.000000	75.241379	0.000000	-1.000000	-1.000000	1844248.000000	1770065185.312122
-3139.335000	-7637.715000	391.095000	13614.975000	-2410.875000	-3536.820000	8322.210000	-3323.925000	98.674668	108.272337	105.179517	119.209695	98.141566	80.978067	165.256432	101.159150	-16.145080	60.368560	-4.715340	0.755552	0.719236	0.075561	-1.000000	-1.000000	-1.000000	-1.000000	-1.000000	-1.000000	-1.000000	75.241379	0.000000	-1.000000	-1.000000	1844249.000000	1770065185.315934
-3512.025000	-8007.390000	27.450000	13260.780000	-2746.305000	-3810.870000	8157.465000	-3828.375000	72.900603	78.614136	65.697901	68.489755	59.693296	53.830064	89.102559	65.092823	-16.145080	60.368560	-4.715340	0.755552	0.719236	0.075561	-1.000000	-1.000000	-1.000000	-1.000000	-1.000000	-1.000000	-1.000000	75.241379	0.000000	-1.000000	-1.000000	1844250.000000	1770065185.315946
-3538.530000	-8041.320000	-14.895000	13217.085000	-2792.430000	-3852.810000	8167.680000	-3758.040000	37.120691	37.843669	22.277675	11.924905	17.189001	22.189785	-9.564566	6.588873	-32.396980	1.358140	-20.387360	0.715880	0.704100	0.088501	-1.000000	-1.000000	-1.000000	-1.000000	-1.000000	-1.000000	-1.000000	75.241379	0.000000	-1.000000	-1.000000	1844251.000000	1770065185.323929
-3423.420000	-7917.165000	96.480000	13337.460000	-2667.690000	-3749.760000	8254.890000	-3658.590000	6.427435	3.542913	-9.826659	-28.238226	-13.706728	-3.385540	-75.571616	-44.245875	-32.396980	1.358140	-20.387360	0.715880	0.704100	0.088501	-1.000000	-1.000000	-1.000000	-1.000000	-1.000000	-1.000000	-1.000000	75.241379	0.000000	-1.000000	-1.000000	1844252.000000	1770065185.323942
-3298.140000	-7788.240000	216.720000	13453.875000	-2546.145000	-3647.790000	8291.385000	-3572.460000	-2.966218	-6.277545	-17.368753	-36.135698	-18.920720	-10.083300	-85.705974	-53.647964	-32.396980	1.358140	-20.387360	0.715880	0.704100	0.088501	-1.000000	-1.000000	-1.000000	-1.000000	-1.000000	-1.000000	-1.000000	75.241379	0.000000	-1.000000	-1.000000	1844253.000000	1770065185.324051
-3283.605000	-7799.265000	223.065000	13464.405000	-2536.290000	-3629.745000	8315.460000	-3548.295000	4.572340	2.139972	-7.341086	-20.305377	-5.211462	-1.440225	-58.705754	-23.084024	-32.396980	1.358140	-20.387360	0.715880	0.704100	0.088501	-1.000000	-1.000000	-1.000000	-1.000000	-1.000000	-1.000000	-1.000000	75.241379	0.000000	-1.000000	-1.000000	1844254.000000	1770065185.324062
-3270.330000	-7775.055000	219.465000	13468.410000	-2538.900000	-3633.030000	8315.145000	-3533.805000	6.412163	2.501234	-2.916640	-8.466038	2.240668	2.156168	-28.038952	17.214306	-32.396980	1.358140	-20.387360	0.715880	0.704100	0.088501	-1.000000	-1.000000	-1.000000	-1.000000	-1.000000	-1.000000	-1.000000	75.241379	0.000000	-1.000000	-1.000000	1844255.000000	1770065185.328032
-3349.080000	-7857.270000	144.045000	13355.910000	-2651.940000	-3733.965000	8234.190000	-3598.515000	-11.864453	-19.025043	-17.264545	-17.887862	-12.088429	-11.974024	-8.727353	36.750106	-32.396980	1.358140	-20.387360	0.715880	0.704100	0.088501	-1.000000	-1.000000	-1.000000	-1.000000	-1.000000	-1.000000	-1.000000	75.241379	0.000000	-1.000000	-1.000000	1844256.000000	1770065185.328038
-3311.235000	-7805.115000	238.905000	13424.310000	-2593.485000	-3694.320000	8238.870000	-3599.055000	-47.661034	-56.083199	-46.511742	-45.515786	-44.776924	-40.360355	1.393843	17.517536	-32.396980	1.358140	-20.387360	0.715880	0.704100	0.088501	-1.000000	-1.000000	-1.000000	-1.000000	-1.000000	-1.000000	-1.000000	75.241379	0.000000	-1.000000	-1.000000	1844257.000000	1770065185.332326
-3217.320000	-7709.625000	334.800000	13550.220000	-2470.230000	-3599.775000	8303.130000	-3516.975000	-80.913979	-86.789233	-70.335604	-68.732527	-73.816276	-65.228846	5.492305	-28.088919	-32.396980	1.358140	-20.387360	0.715880	0.704100	0.088501	-1.000000	-1.000000	-1.000000	-1.000000	-1.000000	-1.000000	-1.000000	75.241379	0.000000	-1.000000	-1.000000	1844258.000000	1770065185.332334
-3082.230000	-7548.255000	494.505000	13719.555000	-2300.715000	-3439.845000	8305.965000	-3534.615000	-75.257348	-75.611538	-55.174851	-50.879020	-62.363462	-56.894206	10.980930	-53.327717	-32.396980	1.358140	-20.387360	0.715880	0.704100	0.088501	-1.000000	-1.000000	-1.000000	-1.000000	-1.000000	-1.000000	-1.000000	75.241379	0.000000	-1.000000	-1.000000	1844259.000000	1770065185.336001
-3080.340000	-7569.765000	465.795000	13689.675000	-2321.505000	-3452.445000	8448.660000	-3398.805000	-14.784341	-8.957376	8.894376	18.192674	2.333450	-3.637173	25.813787	-27.493974	-32.396980	1.358140	-20.387360	0.715880	0.704100	0.088501	-1.000000	-1.000000	-1.000000	-1.000000	-1.000000	-1.000000	-1.000000	75.241379	0.000000	-1.000000	-1.000000	1844260.000000	1770065185.336041
-3359.295000	-7912.080000	117.270000	13340.430000	-2656.215000	-3764.295000	8123.400000	-3352.590000	59.010650	67.572474	75.137140	88.319575	73.731978	57.299473	38.624900	27.023711	-6.134520	18.113620	8.209880	0.668028	0.712462	0.094665	-1.000000	-1.000000	-1.000000	-1.000000	-1.000000	-1.000000	-1.000000	75.241379	0.000000	-1.000000	-1.000000	1844261.000000	1770065185.340035
-3364.245000	-7898.085000	131.355000	13347.180000	-2647.035000	-3759.255000	8096.760000	-3507.345000	81.378616	85.895960	79.388369	91.913127	85.061131	69.139738	23.717179	61.657920	-6.134520	18.113620	8.209880	0.668028	0.712462	0.094665	-1.000000	-1.000000	-1.000000	-1.000000	-1.000000	-1.000000	-1.000000	75.241379	0.000000	-1.000000	-1.000000	1844262.000000	1770065185.340042
-3201.885000	-7699.725000	328.905000	13516.290000	-2487.645000	-3616.065000	8227.710000	-3556.620000	37.145269	34.234118	16.501342	22.716872	26.525270	21.847485	-20.299865	45.290269	-6.134520	18.113620	8.209880	0.668028	0.712462	0.094665	-1.000000	-1.000000	-1.000000	-1.000000	-1.000000	-1.000000	-1.000000	75.241379	0.000000	-1.000000	-1.000000	1844263.000000	1770065185.344058
-3265.335000	-7757.865000	267.210000	13442.715000	-2562.705000	-3694.275000	8192.070000	-3456.990000	-27.489096	-33.457194	-54.322062	-58.431319	-46.368180	-38.115905	-57.479939	-9.697917	-6.134520	18.113620	8.209880	0.668028	0.712462	0.094665	-1.000000	-1.000000	-1.000000	-1.000000	-1.000000	-1.000000	-1.000000	75.241379	0.000000	-1.000000	-1.000000	1844264.000000	1770065185.344068
-3282.930000	-7795.980000	227.025000	13436.100000	-2560.680000	-3681.630000	8337.960000	-3492.765000	-63.520759	-65.964543	-81.606872	-94.049558	-79.502474	-64.371332	-53.039752	-60.997629	-6.134520	18.113620	8.209880	0.668028	0.712462	0.094665	-1.000000	-1.000000	-1.000000	-1.000000	-1.000000	-1.000000	-1.000000	75.241379	0.000000	-1.000000	-1.000000	1844265.000000	1770065185.348119
-3451.770000	-7996.050000	35.190000	13282.155000	-2709.945000	-3812.040000	8221.410000	-3714.795000	-61.636962	-59.408350	-65.884496	-77.255815	-65.862220	-50.672248	-9.801097	-80.955582	-6.134520	18.113620	8.209880	0.668028	0.712462	0.094665	-1.000000	-1.000000	-1.000000	-1.000000	-1.000000	-1.000000	-1.000000	75.241379	0.000000	-1.000000	-1.000000	1844266.000000	1770065185.348127
-3344.760000	-7889.265000	139.455000	13374.270000	-2622.825000	-3718.395000	8260.380000	-3529.170000	-37.580678	-35.201101	-33.157959	-34.150733	-29.388198	-18.073287	37.986709	-67.284565	-6.134520	18.113620	8.209880	0.668028	0.712462	0.094665	-1.000000	-1.000000	-1.000000	-1.000000	-1.000000	-1.000000	-1.000000	75.241379	0.000000	-1.000000	-1.000000	1844267.000000	1770065185.352029
-3140.640000	-7661.565000	362.790000	13592.880000	-2414.655000	-3534.840000	8408.295000	-3392.055000	-0.975761	-2.440781	5.198088	14.761471	11.735971	16.699770	61.269874	-21.933078	-6.134520	18.113620	8.209880	0.668028	0.712462	0.094665	-1.000000	-1.000000	-1.000000	-1.000000	-1.000000	-1.000000	-1.000000	75.241379	0.000000	-1.000000	-1.000000	1844268.000000	1770065185.352040
-3146.940000	-7672.770000	328.905000	13566.600000	-2434.635000	-3547.080000	8440.380000	-3408.390000	45.303322	41.727515	51.100242	63.093668	53.469756	49.885177	56.974811	40.816576	-6.134520	18.113620	8.209880	0.668028	0.712462	0.094665	-1.000000	-1.000000	-1.000000	-1.000000	-1.000000	-1.000000	-1.000000	75.241379	0.000000	-1.000000	-1.000000	1844269.000000	1770065185.361555
-3421.530000	-7965.180000	40.230000	13261.995000	-2737.800000	-3840.795000	8173.575000	-3703.365000	83.805206	83.698190	91.036685	96.875415	84.234930	72.375360	34.435348	82.638086	-6.134520	18.113620	8.209880	0.668028	0.712462	0.094665	-1.000000	-1.000000	-1.000000	-1.000000	-1.000000	-1.000000	-1.000000	75.241379	0.000000	-1.000000	-1.000000	1844270.000000	1770065185.361574
-3319.470000	-7844.445000	204.615000	13406.985000	-2604.780000	-3737.655000	8196.660000	-3650.670000	85.172656	91.235783	95.142567	91.052924	80.186737	64.276001	-1.146215	73.914216	-17.884720	0.473060	6.653360	0.670347	0.729002	0.095520	-1.000000	-1.000000	-1.000000	-1.000000	-1.000000	-1.000000	-1.000000	75.241379	0.000000	-1.000000	-1.000000	1844271.000000	1770065185.361626
-3284.505000	-7791.030000	258.570000	13461.660000	-2543.445000	-3662.370000	8271.765000	-3599.595000	41.909800	51.141416	53.852884	41.765541	36.691712	22.731309	-41.367042	27.782582	-17.884720	0.473060	6.653360	0.670347	0.729002	0.095520	-1.000000	-1.000000	-1.000000	-1.000000	-1.000000	-1.000000	-1.000000	75.241379	0.000000	-1.000000	-1.000000	1844272.000000	1770065185.361632
-3332.205000	-7853.940000	182.925000	13370.220000	-2624.985000	-3734.640000	8174.295000	-3660.120000	-18.765118	-11.731727	-7.597316	-21.658466	-19.102342	-26.017246	-67.118438	-19.154132	-17.884720	0.473060	6.653360	0.670347	0.729002	0.095520	-1.000000	-1.000000	-1.000000	-1.000000	-1.000000	-1.000000	-1.000000	75.241379	0.000000	-1.000000	-1.000000	1844273.000000	1770065185.364666
-3246.255000	-7746.165000	275.355000	13473.495000	-2528.505000	-3650.850000	8311.275000	-3491.820000	-60.605136	-59.013152	-54.754027	-64.676602	-55.740984	-53.539176	-64.500406	-40.716471	-17.884720	0.473060	6.653360	0.670347	0.729002	0.095520	-1.000000	-1.000000	-1.000000	-1.000000	-1.000000	-1.000000	-1.000000	75.241379	0.000000	-1.000000	-1.000000	1844274.000000	1770065185.364677
-3262.635000	-7770.420000	236.430000	13448.700000	-2565.315000	-3685.095000	8186.805000	-3543.975000	-63.270972	-66.200220	-66.258904	-69.234124	-58.375638	-49.680997	-35.440262	-27.529082	-17.884720	0.473060	6.653360	0.670347	0.729002	0.095520	-1.000000	-1.000000	-1.000000	-1.000000	-1.000000	-1.000000	-1.000000	75.241379	0.000000	-1.000000	-1.000000	1844275.000000	1770065185.368056
-3267.630000	-7773.345000	239.670000	13450.995000	-2561.580000	-3668.265000	8265.780000	-3538.845000	-34.570459	-39.150014	-46.261967	-42.535225	-35.153670	-25.355890	4.733208	5.963270	-17.884720	0.473060	6.653360	0.670347	0.729002	0.095520	-1.000000	-1.000000	-1.000000	-1.000000	-1.000000	-1.000000	-1.000000	75.241379	0.000000	-1.000000	-1.000000	1844276.000000	1770065185.368063
-3334.905000	-7869.330000	128.430000	13353.165000	-2654.460000	-3751.830000	8236.845000	-3552.165000	-4.628187	-9.784355	-21.691796	-12.978635	-11.781572	-4.542435	33.996272	26.610567	-17.884720	0.473060	6.653360	0.670347	0.729002	0.095520	-1.000000	-1.000000	-1.000000	-1.000000	-1.000000	-1.000000	-1.000000	75.241379	0.000000	-1.000000	-1.000000	1844277.000000	1770065185.371999
-3224.115000	-7769.475000	236.340000	13459.815000	-2542.950000	-3643.065000	8259.885000	-3518.235000	8.516814	2.149521	-8.605109	2.478751	-1.282183	2.709596	41.821968	18.854247	-17.884720	0.473060	6.653360	0.670347	0.729002	0.095520	-1.000000	-1.000000	-1.000000	-1.000000	-1.000000	-1.000000	-1.000000	75.241379	0.000000	-1.000000	-1.000000	1844278.000000	1770065185.372005
-3287.880000	-7841.655000	157.905000	13412.745000	-2571.345000	-3684.600000	8319.465000	-3557.430000	15.047324	7.759550	3.381543	14.211858	9.109733	10.021634	38.930211	-0.236245	-17.884720	0.473060	6.653360	0.670347	0.729002	0.095520	-1.000000	-1.000000	-1.000000	-1.000000	-1.000000	-1.000000	-1.000000	75.241379	0.000000	-1.000000	-1.000000	1844279.000000	1770065185.375915
-3351.825000	-7918.650000	91.980000	13340.970000	-2637.720000	-3738.510000	8270.055000	-3564.180000	21.536028	14.655890	17.438194	26.578015	24.147115	22.434351	35.958400	-10.540886	-17.884720	0.473060	6.653360	0.670347	0.729002	0.095520	-1.000000	-1.000000	-1.000000	-1.000000	-1.000000	-1.000000	-1.000000	75.241379	0.000000	-1.000000	-1.000000	1844280.000000	1770065185.375922
-3344.175000	-7880.760000	163.755000	13335.435000	-2663.280000	-3755.790000	8241.390000	-3592.350000	17.688465	12.626373	20.026967	25.455883	27.403762	24.564166	26.484564	-12.154537	-7.431620	-0.106820	2.792580	0.658690	0.716246	0.094665	-1.000000	-1.000000	-1.000000	-1.000000	-1.000000	-1.000000	-1.000000	75.241379	0.000000	-1.000000	-1.000000	1844281.000000	1770065185.381569
-3333.240000	-7851.330000	189.270000	13378.500000	-2628.360000	-3737.340000	8219.295000	-3615.165000	2.156248	1.483358	11.317170	8.885811	12.606707	10.094977	3.585344	-13.940991	-7.431620	-0.106820	2.792580	0.658690	0.716246	0.094665	-1.000000	-1.000000	-1.000000	-1.000000	-1.000000	-1.000000	-1.000000	75.241379	0.000000	-1.000000	-1.000000	1844282.000000	1770065185.381579
-3298.095000	-7815.150000	217.890000	13424.310000	-2576.565000	-3689.415000	8245.125000	-3585.330000	-12.143413	-5.565867	4.970447	-7.216170	-6.109596	-8.315174	-25.317918	-17.801970	-7.431620	-0.106820	2.792580	0.658690	0.716246	0.094665	-1.000000	-1.000000	-1.000000	-1.000000	-1.000000	-1.000000	-1.000000	75.241379	0.000000	-1.000000	-1.000000	1844283.000000	1770065185.387623
-3271.815000	-7785.000000	244.440000	13447.035000	-2552.715000	-3667.995000	8295.705000	-3531.555000	-14.477665	-1.207063	7.077489	-10.485662	-13.536294	-16.381628	-43.339990	-17.374057	-7.431620	-0.106820	2.792580	0.658690	0.716246	0.094665	-1.000000	-1.000000	-1.000000	-1.000000	-1.000000	-1.000000	-1.000000	75.241379	0.000000	-1.000000	-1.000000	1844284.000000	1770065185.387630
-3266.460000	-7784.415000	245.970000	13451.535000	-2546.865000	-3656.385000	8305.110000	-3541.230000	-5.076909	9.979798	12.805184	-2.250190	-7.300816	-11.133076	-39.605429	-7.668343	-7.431620	-0.106820	2.792580	0.658690	0.716246	0.094665	-1.000000	-1.000000	-1.000000	-1.000000	-1.000000	-1.000000	-1.000000	75.241379	0.000000	-1.000000	-1.000000	1844285.000000	1770065185.388035
-3261.015000	-7786.845000	239.715000	13441.725000	-2557.665000	-3660.750000	8255.835000	-3547.305000	7.599141	18.419900	14.720900	8.237039	4.257056	0.495179	-20.351675	6.493615	-7.431620	-0.106820	2.792580	0.658690	0.716246	0.094665	-1.000000	-1.000000	-1.000000	-1.000000	-1.000000	-1.000000	-1.000000	75.241379	0.000000	-1.000000	-1.000000	1844286.000000	1770065185.388046
-3244.095000	-7760.520000	261.900000	13457.925000	-2544.795000	-3648.735000	8223.120000	-3500.730000	15.990855	19.265563	10.774790	14.009535	12.516214	10.795646	0.326180	17.953711	-7.431620	-0.106820	2.792580	0.658690	0.716246	0.094665	-1.000000	-1.000000	-1.000000	-1.000000	-1.000000	-1.000000	-1.000000	75.241379	0.000000	-1.000000	-1.000000	1844287.000000	1770065185.410329
-3268.530000	-7787.520000	234.405000	13433.265000	-2573.820000	-3697.155000	8274.105000	-3535.335000	17.229854	13.448230	3.139424	12.604972	12.908844	14.589150	13.371883	24.642161	-7.431620	-0.106820	2.792580	0.658690	0.716246	0.094665	-1.000000	-1.000000	-1.000000	-1.000000	-1.000000	-1.000000	-1.000000	75.241379	0.000000	-1.000000	-1.000000	1844288.000000	1770065185.410343
-3206.745000	-7737.615000	283.185000	13480.470000	-2537.550000	-3684.195000	8249.355000	-3448.440000	11.988402	3.470191	-6.119495	4.927099	5.515922	9.452499	17.498666	25.360668	-7.431620	-0.106820	2.792580	0.658690	0.716246	0.094665	-1.000000	-1.000000	-1.000000	-1.000000	-1.000000	-1.000000	-1.000000	75.241379	0.000000	-1.000000	-1.000000	1844289.000000	1770065185.410358
-3195.090000	-7719.210000	308.295000	13509.720000	-2504.160000	-3635.415000	8207.955000	-3476.115000	4.115467	-7.133944	-14.366240	-3.812349	-3.542281	-0.547886	15.690530	19.413725	-7.431620	-0.106820	2.792580	0.658690	0.716246	0.094665	-1.000000	-1.000000	-1.000000	-1.000000	-1.000000	-1.000000	-1.000000	75.241379	0.000000	-1.000000	-1.000000	1844290.000000	1770065185.410363
-3289.635000	-7809.660000	217.665000	13422.825000	-2576.790000	-3680.820000	8241.255000	-3608.595000	-4.646416	-16.736911	-20.234869	-10.553770	-9.524762	-8.611739	10.273169	6.006512	-1.327620	-4.165980	1.556520	0.661925	0.703428	0.095276	-1.000000	-1.000000	-1.000000	-1.000000	-1.000000	-1.000000	-1.000000	75.241379	0.000000	-1.000000	-1.000000	1844291.000000	1770065185.410370
-3094.155000	-7624.440000	392.805000	13586.535000	-2436.390000	-3597.390000	8174.565000	-3407.940000	-14.141007	-24.340490	-22.845234	-16.316740	-13.258494	-12.508604	2.570004	-13.616022	-1.327620	-4.165980	1.556520	0.661925	0.703428	0.095276	-1.000000	-1.000000	-1.000000	-1.000000	-1.000000	-1.000000	-1.000000	75.241379	0.000000	-1.000000	-1.000000	1844292.000000	1770065185.410375
