Channel1	Channel2	Channel3	Channel4	Channel5	Channel6	Channel7	Channel8	FilteredChannel1	FilteredChannel2	FilteredChannel3	FilteredChannel4	FilteredChannel5	FilteredChannel6	FilteredChannel7	FilteredChannel8	GyroX	GyroY	GyroZ	AccX	AccY	AccZ	PPG1	PPG2	rawPPG1	rawPPG2	rawPPG3	Hr	Hrv	Battery	Trigger	PhysicalTrigger	AutoTrigger	NumMeasurements	Timestamp
-4321.980000	-650.790000	11764.395000	15351.795000	-16057.305000	-19537.920000	8933.850000	17769.420000	12.495825	6.913324	8.019530	8.800169	11.529067	11.119300	8.051664	17.390576	-4.486440	3.418240	-0.625660	0.795774	0.394469	0.421569	-1.000000	-1.000000	-1.000000	-1.000000	-1.000000	-1.000000	-1.000000	73.724138	0.000000	-1.000000	-1.000000	1842211.000000	1773867928.199434
-4374.000000	-653.805000	11775.960000	15367.455000	-16037.640000	-19508.805000	8940.420000	17724.555000	11.532382	-0.586974	-5.887676	0.268432	6.362344	5.786659	3.986294	10.761917	-4.486440	3.418240	-0.625660	0.795774	0.394469	0.421569	-1.000000	-1.000000	-1.000000	-1.000000	-1.000000	-1.000000	-1.000000	73.724138	0.000000	-1.000000	-1.000000	1842212.000000	1773867928.199444
-4408.245000	-643.320000	11802.240000	15399.945000	-16000.920000	-19476.675000	8942.175000	17696.610000	2.046265	-9.389375	-18.575480	-6.904169	-0.902905	-3.227536	-1.646269	-6.931442	-4.486440	3.418240	-0.625660	0.795774	0.394469	0.421569	-1.000000	-1.000000	-1.000000	-1.000000	-1.000000	-1.000000	-1.000000	73.724138	0.000000	-1.000000	-1.000000	1842213.000000	1773867928.216814
-4401.495000	-660.465000	11769.930000	15358.635000	-16043.085000	-19511.955000	8933.445000	17759.475000	-10.122470	-12.319028	-19.940977	-5.990621	-2.017384	-6.701671	-5.384780	-24.109109	-4.486440	3.418240	-0.625660	0.795774	0.394469	0.421569	-1.000000	-1.000000	-1.000000	-1.000000	-1.000000	-1.000000	-1.000000	73.724138	0.000000	-1.000000	-1.000000	1842214.000000	1773867928.216828
-4352.805000	-662.130000	11766.150000	15349.455000	-16053.480000	-19525.635000	8941.500000	17795.430000	-14.488062	-7.774054	-10.466639	-0.249701	1.595907	-3.772543	-6.238584	-26.668675	-4.486440	3.418240	-0.625660	0.795774	0.394469	0.421569	-1.000000	-1.000000	-1.000000	-1.000000	-1.000000	-1.000000	-1.000000	73.724138	0.000000	-1.000000	-1.000000	1842215.000000	1773867928.216842
-4309.740000	-654.705000	11779.245000	15347.655000	-16048.080000	-19530.630000	8943.075000	17800.830000	-5.523952	0.585851	2.547749	4.060084	4.079546	0.805886	-5.330731	-12.692799	-4.486440	3.418240	-0.625660	0.795774	0.394469	0.421569	-1.000000	-1.000000	-1.000000	-1.000000	-1.000000	-1.000000	-1.000000	73.724138	0.000000	-1.000000	-1.000000	1842216.000000	1773867928.216847
-4284.045000	-600.480000	11853.630000	15386.355000	-16004.565000	-19482.480000	8965.395000	17757.135000	10.775202	8.626553	13.874292	5.455177	3.849241	3.578116	-3.745302	4.167262	-4.486440	3.418240	-0.625660	0.795774	0.394469	0.421569	-1.000000	-1.000000	-1.000000	-1.000000	-1.000000	-1.000000	-1.000000	73.724138	0.000000	-1.000000	-1.000000	1842217.000000	1773867928.216852
-4274.415000	-556.335000	11893.680000	15426.630000	-15971.220000	-19431.990000	8984.970000	17739.225000	22.611184	14.982874	22.191811	6.480698	3.611201	5.315769	-0.809606	9.900394	-4.486440	3.418240	-0.625660	0.795774	0.394469	0.421569	-1.000000	-1.000000	-1.000000	-1.000000	-1.000000	-1.000000	-1.000000	73.724138	0.000000	-1.000000	-1.000000	1842218.000000	1773867928.216857
-4329.630000	-606.690000	11809.485000	15403.950000	-16015.500000	-19484.145000	8956.395000	17735.940000	21.799613	19.107763	25.703923	9.094385	5.175102	8.397029	3.973440	4.252645	-4.486440	3.418240	-0.625660	0.795774	0.394469	0.421569	-1.000000	-1.000000	-1.000000	-1.000000	-1.000000	-1.000000	-1.000000	73.724138	0.000000	-1.000000	-1.000000	1842219.000000	1773867928.216863
-4407.390000	-704.340000	11727.900000	15308.820000	-16110.540000	-19586.430000	8934.300000	17763.570000	7.237916	16.803111	19.312101	9.916988	4.800431	9.593596	7.648696	-2.110356	-4.486440	3.418240	-0.625660	0.795774	0.394469	0.421569	-1.000000	-1.000000	-1.000000	-1.000000	-1.000000	-1.000000	-1.000000	73.724138	0.000000	-1.000000	-1.000000	1842220.000000	1773867928.216867
-4434.480000	-703.350000	11743.695000	15324.795000	-16097.580000	-19559.880000	8913.375000	17730.450000	-14.486583	3.795457	0.967406	3.051088	-2.868924	2.356001	6.228607	-0.459503	-2.975700	3.601360	-1.724380	0.797239	0.392089	0.420409	-1.000000	-1.000000	-1.000000	-1.000000	-1.000000	-1.000000	-1.000000	73.724138	0.000000	-1.000000	-1.000000	1842221.000000	1773867928.230437
-4402.665000	-677.880000	11756.205000	15345.945000	-16065.900000	-19541.070000	8907.660000	17749.620000	-30.297904	-14.601782	-20.688530	-9.546163	-14.323241	-10.842219	-0.218507	7.896935	-2.975700	3.601360	-1.724380	0.797239	0.392089	0.420409	-1.000000	-1.000000	-1.000000	-1.000000	-1.000000	-1.000000	-1.000000	73.724138	0.000000	-1.000000	-1.000000	1842222.000000	1773867928.230449
-4318.470000	-650.205000	11772.765000	15324.030000	-16067.070000	-19538.280000	8903.610000	17768.295000	-28.189704	-25.190745	-31.563042	-17.938973	-18.468690	-18.483904	-7.223904	14.943648	-2.975700	3.601360	-1.724380	0.797239	0.392089	0.420409	-1.000000	-1.000000	-1.000000	-1.000000	-1.000000	-1.000000	-1.000000	73.724138	0.000000	-1.000000	-1.000000	1842223.000000	1773867928.230462
-4305.240000	-628.830000	11798.820000	15334.065000	-16058.070000	-19511.325000	8927.910000	17774.280000	-7.967559	-19.913546	-24.522185	-15.545903	-9.739095	-12.924774	-9.834001	14.118790	-2.975700	3.601360	-1.724380	0.797239	0.392089	0.420409	-1.000000	-1.000000	-1.000000	-1.000000	-1.000000	-1.000000	-1.000000	73.724138	0.000000	-1.000000	-1.000000	1842224.000000	1773867928.230468
-4351.545000	-629.595000	11813.895000	15380.280000	-16037.595000	-19492.515000	8945.055000	17736.345000	15.614241	-3.397022	-4.974700	-4.068618	6.236704	2.473149	-6.133255	4.482401	-2.975700	3.601360	-1.724380	0.797239	0.392089	0.420409	-1.000000	-1.000000	-1.000000	-1.000000	-1.000000	-1.000000	-1.000000	73.724138	0.000000	-1.000000	-1.000000	1842225.000000	1773867928.230474
-4352.805000	-643.320000	11804.085000	15371.460000	-16037.865000	-19504.845000	8939.205000	17736.120000	24.901605	11.297706	13.201287	9.351020	18.482412	16.244042	1.459856	-8.963463	-2.975700	3.601360	-1.724380	0.797239	0.392089	0.420409	-1.000000	-1.000000	-1.000000	-1.000000	-1.000000	-1.000000	-1.000000	73.724138	0.000000	-1.000000	-1.000000	1842226.000000	1773867928.230478
-4354.155000	-659.205000	11782.305000	15345.855000	-16061.040000	-19524.735000	8928.360000	17757.810000	15.961267	14.140615	18.752605	16.075861	19.305762	18.159186	7.858013	-17.493514	-2.975700	3.601360	-1.724380	0.797239	0.392089	0.420409	-1.000000	-1.000000	-1.000000	-1.000000	-1.000000	-1.000000	-1.000000	73.724138	0.000000	-1.000000	-1.000000	1842227.000000	1773867928.239065
-4323.420000	-648.495000	11785.545000	15345.585000	-16060.320000	-19529.505000	8931.510000	17800.965000	0.767126	7.393727	13.106540	12.901580	10.334594	9.023094	9.885296	-14.626813	-2.975700	3.601360	-1.724380	0.797239	0.392089	0.420409	-1.000000	-1.000000	-1.000000	-1.000000	-1.000000	-1.000000	-1.000000	73.724138	0.000000	-1.000000	-1.000000	1842228.000000	1773867928.239077
-4299.345000	-624.645000	11810.610000	15371.010000	-16037.280000	-19509.840000	8960.445000	17795.880000	-5.476956	2.017467	6.685968	5.669106	0.734576	-0.888529	8.809686	-1.751166	-2.975700	3.601360	-1.724380	0.797239	0.392089	0.420409	-1.000000	-1.000000	-1.000000	-1.000000	-1.000000	-1.000000	-1.000000	73.724138	0.000000	-1.000000	-1.000000	1842229.000000	1773867928.239090
-4313.160000	-611.325000	11830.455000	15393.195000	-16014.690000	-19480.500000	8959.185000	17773.785000	1.302704	4.118061	5.474584	1.455962	-2.727085	-4.069031	7.398589	12.402810	-2.975700	3.601360	-1.724380	0.797239	0.392089	0.420409	-1.000000	-1.000000	-1.000000	-1.000000	-1.000000	-1.000000	-1.000000	73.724138	0.000000	-1.000000	-1.000000	1842230.000000	1773867928.239096
-4305.105000	-592.830000	11847.330000	15411.105000	-15992.145000	-19467.765000	8925.120000	17732.385000	10.860153	9.071445	6.575615	1.057955	-1.294605	-1.712201	5.462192	17.312727	-2.456860	3.982860	-2.701020	0.799986	0.391723	0.416869	-1.000000	-1.000000	-1.000000	-1.000000	-1.000000	-1.000000	-1.000000	73.724138	0.000000	-1.000000	-1.000000	1842231.000000	1773867928.263191
-4368.510000	-621.855000	11819.070000	15380.460000	-16025.355000	-19497.780000	8919.360000	17691.075000	9.262236	8.696093	4.430559	1.242726	0.014452	0.794052	0.308557	7.539364	-2.456860	3.982860	-2.701020	0.799986	0.391723	0.416869	-1.000000	-1.000000	-1.000000	-1.000000	-1.000000	-1.000000	-1.000000	73.724138	0.000000	-1.000000	-1.000000	1842232.000000	1773867928.263204
-4393.440000	-591.525000	11846.385000	15397.110000	-16008.840000	-19483.605000	8954.100000	17754.930000	-7.523378	0.002439	-3.374139	-1.233064	-2.413601	-0.957973	-7.926066	-10.878932	-2.456860	3.982860	-2.701020	0.799986	0.391723	0.416869	-1.000000	-1.000000	-1.000000	-1.000000	-1.000000	-1.000000	-1.000000	73.724138	0.000000	-1.000000	-1.000000	1842233.000000	1773867928.263218
-4379.355000	-590.040000	11838.330000	15380.460000	-16029.315000	-19490.130000	8959.500000	17762.580000	-28.364487	-12.103473	-13.927092	-7.517239	-8.635937	-7.174768	-14.447360	-22.435866	-2.456860	3.982860	-2.701020	0.799986	0.391723	0.416869	-1.000000	-1.000000	-1.000000	-1.000000	-1.000000	-1.000000	-1.000000	73.724138	0.000000	-1.000000	-1.000000	1842234.000000	1773867928.263223
-4351.995000	-656.595000	11764.080000	15318.270000	-16095.195000	-19549.530000	8931.420000	17749.350000	-36.021129	-20.467410	-22.086999	-15.771565	-16.045584	-14.284527	-15.013261	-17.243357	-2.456860	3.982860	-2.701020	0.799986	0.391723	0.416869	-1.000000	-1.000000	-1.000000	-1.000000	-1.000000	-1.000000	-1.000000	73.724138	0.000000	-1.000000	-1.000000	1842235.000000	1773867928.263230
-4355.955000	-713.295000	11727.000000	15312.105000	-16087.275000	-19563.030000	8907.165000	17743.860000	-22.920503	-22.613376	-24.615550	-21.666317	-20.625111	-18.033421	-10.210314	-1.177831	-2.456860	3.982860	-2.701020	0.799986	0.391723	0.416869	-1.000000	-1.000000	-1.000000	-1.000000	-1.000000	-1.000000	-1.000000	73.724138	0.000000	-1.000000	-1.000000	1842236.000000	1773867928.263235
-4347.990000	-675.585000	11765.970000	15342.030000	-16063.470000	-19540.395000	8900.640000	17733.780000	3.211541	-18.643917	-19.155027	-19.421234	-17.020554	-14.459135	-3.617553	12.346617	-2.456860	3.982860	-2.701020	0.799986	0.391723	0.416869	-1.000000	-1.000000	-1.000000	-1.000000	-1.000000	-1.000000	-1.000000	73.724138	0.000000	-1.000000	-1.000000	1842237.000000	1773867928.263240
-4372.335000	-682.740000	11757.240000	15330.960000	-16076.790000	-19563.210000	8903.385000	17702.235000	26.955433	-8.109136	-5.253922	-6.997882	-3.833651	-3.163371	1.805904	15.375010	-2.456860	3.982860	-2.701020	0.799986	0.391723	0.416869	-1.000000	-1.000000	-1.000000	-1.000000	-1.000000	-1.000000	-1.000000	73.724138	0.000000	-1.000000	-1.000000	1842238.000000	1773867928.263245
-4320.855000	-628.425000	11806.155000	15383.295000	-16034.535000	-19524.330000	8942.085000	17741.880000	36.765753	6.894868	12.152625	9.910561	12.298658	9.952010	5.997750	9.952116	-2.456860	3.982860	-2.701020	0.799986	0.391723	0.416869	-1.000000	-1.000000	-1.000000	-1.000000	-1.000000	-1.000000	-1.000000	73.724138	0.000000	-1.000000	-1.000000	1842239.000000	1773867928.263250
-4341.330000	-604.710000	11830.545000	15406.335000	-15996.915000	-19456.695000	8952.840000	17706.780000	30.928535	21.330524	26.082519	23.695576	23.724921	19.498662	11.022779	3.505502	-2.456860	3.982860	-2.701020	0.799986	0.391723	0.416869	-1.000000	-1.000000	-1.000000	-1.000000	-1.000000	-1.000000	-1.000000	73.724138	0.000000	-1.000000	-1.000000	1842240.000000	1773867928.263255
-4381.245000	-632.610000	11799.450000	15356.475000	-16037.370000	-19492.470000	8946.855000	17740.665000	14.644859	29.490527	31.426608	29.360828	27.140767	24.396716	15.967637	0.598606	-1.846460	4.776380	-1.876980	0.799620	0.394225	0.415709	-1.000000	-1.000000	-1.000000	-1.000000	-1.000000	-1.000000	-1.000000	73.724138	0.000000	-1.000000	-1.000000	1842241.000000	1773867928.263262
-4392.765000	-716.040000	11711.655000	15270.570000	-16128.675000	-19586.340000	8914.230000	17840.385000	-4.733846	25.136512	23.682229	22.127918	19.731657	21.084286	15.107576	1.563555	-1.846460	4.776380	-1.876980	0.799620	0.394225	0.415709	-1.000000	-1.000000	-1.000000	-1.000000	-1.000000	-1.000000	-1.000000	73.724138	0.000000	-1.000000	-1.000000	1842242.000000	1773867928.263266
-4323.555000	-679.185000	11742.480000	15301.935000	-16095.195000	-19552.590000	8922.555000	17833.815000	-19.144162	7.405380	3.525463	2.406673	1.841746	6.340106	5.236718	5.693001	-1.846460	4.776380	-1.876980	0.799620	0.394225	0.415709	-1.000000	-1.000000	-1.000000	-1.000000	-1.000000	-1.000000	-1.000000	73.724138	0.000000	-1.000000	-1.000000	1842243.000000	1773867928.267545
-4291.470000	-624.780000	11786.805000	15349.680000	-16042.815000	-19504.305000	8945.640000	17804.880000	-21.867153	-11.326949	-15.890576	-16.726557	-15.193819	-11.041746	-7.613551	9.215010	-1.846460	4.776380	-1.876980	0.799620	0.394225	0.415709	-1.000000	-1.000000	-1.000000	-1.000000	-1.000000	-1.000000	-1.000000	73.724138	0.000000	-1.000000	-1.000000	1842244.000000	1773867928.267555
-4322.070000	-630.045000	11749.905000	15331.005000	-16038.180000	-19500.165000	8929.260000	17774.460000	-12.997048	-15.583644	-19.808050	-20.724099	-18.084867	-16.952899	-13.819409	5.728948	-1.846460	4.776380	-1.876980	0.799620	0.394225	0.415709	-1.000000	-1.000000	-1.000000	-1.000000	-1.000000	-1.000000	-1.000000	73.724138	0.000000	-1.000000	-1.000000	1842245.000000	1773867928.267564
-4349.340000	-652.005000	11705.130000	15292.305000	-16063.875000	-19523.610000	8916.885000	17750.295000	-1.057733	-5.611610	-10.165537	-10.751815	-7.749052	-9.631617	-10.980944	-6.108266	-1.846460	4.776380	-1.876980	0.799620	0.394225	0.415709	-1.000000	-1.000000	-1.000000	-1.000000	-1.000000	-1.000000	-1.000000	73.724138	0.000000	-1.000000	-1.000000	1842246.000000	1773867928.267569
-4357.935000	-664.335000	11721.960000	15318.270000	-16065.450000	-19518.480000	8930.655000	17747.190000	4.754535	4.505774	-0.659549	0.595009	3.434514	0.479090	-4.350035	-19.514454	-1.846460	4.776380	-1.876980	0.799620	0.394225	0.415709	-1.000000	-1.000000	-1.000000	-1.000000	-1.000000	-1.000000	-1.000000	73.724138	0.000000	-1.000000	-1.000000	1842247.000000	1773867928.276939
-4373.190000	-673.380000	11766.285000	15362.280000	-16071.255000	-19533.870000	8933.175000	17740.980000	1.828924	3.722081	1.448631	5.349086	5.664459	3.525106	0.649824	-25.705930	-1.846460	4.776380	-1.876980	0.799620	0.394225	0.415709	-1.000000	-1.000000	-1.000000	-1.000000	-1.000000	-1.000000	-1.000000	73.724138	0.000000	-1.000000	-1.000000	1842248.000000	1773867928.276949
-4387.680000	-665.145000	11811.510000	15377.670000	-16052.715000	-19524.105000	8937.585000	17727.075000	-5.505319	-6.849813	-0.048812	5.072536	-0.969485	-2.421473	2.243023	-20.781230	-1.846460	4.776380	-1.876980	0.799620	0.394225	0.415709	-1.000000	-1.000000	-1.000000	-1.000000	-1.000000	-1.000000	-1.000000	73.724138	0.000000	-1.000000	-1.000000	1842249.000000	1773867928.276958
-4370.040000	-634.500000	11854.710000	15393.105000	-16023.330000	-19505.430000	8936.100000	17717.940000	-9.148291	-16.186966	2.265460	5.219846	-7.552803	-10.220150	1.544818	-8.589734	-1.846460	4.776380	-1.876980	0.799620	0.394225	0.415709	-1.000000	-1.000000	-1.000000	-1.000000	-1.000000	-1.000000	-1.000000	73.724138	0.000000	-1.000000	-1.000000	1842250.000000	1773867928.276964
-4336.380000	-652.995000	11798.955000	15341.220000	-16070.130000	-19532.340000	8920.980000	17749.530000	-3.972368	-13.906326	10.155806	7.893461	-5.577219	-10.158955	0.514885	2.661741	-3.982860	4.394880	-1.938020	0.798948	0.394957	0.417968	-1.000000	-1.000000	-1.000000	-1.000000	-1.000000	-1.000000	-1.000000	73.724138	0.000000	-1.000000	-1.000000	1842251.000000	1773867928.279465
-4333.725000	-648.630000	11780.730000	15340.005000	-16066.305000	-19535.265000	8912.655000	17745.030000	6.354677	-1.210096	15.715127	8.659560	2.775103	-1.460772	-0.094290	9.224654	-3.982860	4.394880	-1.938020	0.798948	0.394957	0.417968	-1.000000	-1.000000	-1.000000	-1.000000	-1.000000	-1.000000	-1.000000	73.724138	0.000000	-1.000000	-1.000000	1842252.000000	1773867928.279471
-4380.975000	-648.810000	11777.490000	15359.445000	-16042.230000	-19518.030000	8931.060000	17743.275000	12.654627	11.407559	10.414777	2.881163	8.523188	7.793182	-0.377236	13.435805	-3.982860	4.394880	-1.938020	0.798948	0.394957	0.417968	-1.000000	-1.000000	-1.000000	-1.000000	-1.000000	-1.000000	-1.000000	73.724138	0.000000	-1.000000	-1.000000	1842253.000000	1773867928.283544
-4368.240000	-630.315000	11807.280000	15365.745000	-16039.710000	-19504.395000	8932.680000	17734.950000	10.141633	16.094401	-3.032792	-6.471004	7.563170	11.578496	0.513914	17.117461	-3.982860	4.394880	-1.938020	0.798948	0.394957	0.417968	-1.000000	-1.000000	-1.000000	-1.000000	-1.000000	-1.000000	-1.000000	73.724138	0.000000	-1.000000	-1.000000	1842254.000000	1773867928.283552
-4353.795000	-623.070000	11844.495000	15382.980000	-16030.980000	-19501.110000	8925.570000	17710.020000	3.198086	13.072322	-13.306919	-11.995085	2.814909	10.261569	2.894520	18.645769	-3.982860	4.394880	-1.938020	0.798948	0.394957	0.417968	-1.000000	-1.000000	-1.000000	-1.000000	-1.000000	-1.000000	-1.000000	73.724138	0.000000	-1.000000	-1.000000	1842255.000000	1773867928.289344
-4390.605000	-654.255000	11810.520000	15367.770000	-16040.790000	-19510.065000	8926.560000	17715.645000	-1.685192	6.001554	-14.142839	-11.058870	-1.708849	6.145839	4.531104	15.207983	-3.982860	4.394880	-1.938020	0.798948	0.394957	0.417968	-1.000000	-1.000000	-1.000000	-1.000000	-1.000000	-1.000000	-1.000000	73.724138	0.000000	-1.000000	-1.000000	1842256.000000	1773867928.289354
-4416.165000	-685.350000	11773.530000	15343.560000	-16063.380000	-19536.300000	8925.345000	17761.455000	-3.664236	-3.163706	-10.990025	-8.182442	-5.117596	-0.036441	3.123301	7.386346	-3.982860	4.394880	-1.938020	0.798948	0.394957	0.417968	-1.000000	-1.000000	-1.000000	-1.000000	-1.000000	-1.000000	-1.000000	73.724138	0.000000	-1.000000	-1.000000	1842257.000000	1773867928.291443
-4389.570000	-670.860000	11780.505000	15346.710000	-16058.520000	-19535.670000	8931.150000	17789.535000	-4.193537	-12.496084	-11.493749	-7.581709	-8.120516	-7.482127	-0.690941	0.156691	-3.982860	4.394880	-1.938020	0.798948	0.394957	0.417968	-1.000000	-1.000000	-1.000000	-1.000000	-1.000000	-1.000000	-1.000000	73.724138	0.000000	-1.000000	-1.000000	1842258.000000	1773867928.291449
-4331.970000	-645.705000	11790.405000	15339.735000	-16060.815000	-19523.700000	8931.600000	17753.760000	-2.188810	-17.015673	-13.983521	-7.088662	-9.314116	-12.496579	-3.991173	-4.181102	-3.982860	4.394880	-1.938020	0.798948	0.394957	0.417968	-1.000000	-1.000000	-1.000000	-1.000000	-1.000000	-1.000000	-1.000000	73.724138	0.000000	-1.000000	-1.000000	1842259.000000	1773867928.295312
-4328.055000	-655.020000	11780.145000	15341.130000	-16064.640000	-19515.915000	8932.410000	17749.035000	2.547164	-12.451904	-10.522699	-2.128966	-5.967680	-10.566908	-4.240983	-8.942254	-3.982860	4.394880	-1.938020	0.798948	0.394957	0.417968	-1.000000	-1.000000	-1.000000	-1.000000	-1.000000	-1.000000	-1.000000	73.724138	0.000000	-1.000000	-1.000000	1842260.000000	1773867928.295323
-4334.130000	-651.915000	11791.665000	15357.780000	-16039.035000	-19523.520000	8929.755000	17760.555000	6.434895	-1.155920	1.814929	7.232541	1.521984	-2.179383	-1.571457	-15.104818	-3.387720	4.867940	-0.747740	0.796385	0.395019	0.419860	-1.000000	-1.000000	-1.000000	-1.000000	-1.000000	-1.000000	-1.000000	73.724138	0.000000	-1.000000	-1.000000	1842261.000000	1773867928.299468
-4351.995000	-649.305000	11795.310000	15345.045000	-16046.010000	-19514.655000	8932.230000	17756.145000	6.220726	9.598944	17.182374	15.538793	8.726456	6.519132	1.465049	-17.926808	-3.387720	4.867940	-0.747740	0.796385	0.395019	0.419860	-1.000000	-1.000000	-1.000000	-1.000000	-1.000000	-1.000000	-1.000000	73.724138	0.000000	-1.000000	-1.000000	1842262.000000	1773867928.299477
-4349.790000	-629.370000	11818.395000	15379.515000	-16035.300000	-19500.255000	8937.495000	17744.400000	2.026878	14.312135	26.665406	17.612664	11.313331	10.174979	2.779542	-13.587992	-3.387720	4.867940	-0.747740	0.796385	0.395019	0.419860	-1.000000	-1.000000	-1.000000	-1.000000	-1.000000	-1.000000	-1.000000	73.724138	0.000000	-1.000000	-1.000000	1842263.000000	1773867928.313978
-4340.655000	-637.560000	11818.935000	15382.530000	-16038.180000	-19512.135000	8937.945000	17758.035000	-3.668857	12.340519	25.012252	13.073456	8.544758	8.258020	2.330195	-3.454555	-3.387720	4.867940	-0.747740	0.796385	0.395019	0.419860	-1.000000	-1.000000	-1.000000	-1.000000	-1.000000	-1.000000	-1.000000	73.724138	0.000000	-1.000000	-1.000000	1842264.000000	1773867928.313990
-4341.195000	-646.650000	11809.710000	15358.365000	-16040.520000	-19509.795000	8938.215000	17759.655000	-7.084857	6.430198	13.519905	4.544758	2.812580	3.210059	0.901962	7.413742	-3.387720	4.867940	-0.747740	0.796385	0.395019	0.419860	-1.000000	-1.000000	-1.000000	-1.000000	-1.000000	-1.000000	-1.000000	73.724138	0.000000	-1.000000	-1.000000	1842265.000000	1773867928.314003
-4346.415000	-651.150000	11759.175000	15331.185000	-16049.385000	-19503.765000	8942.355000	17761.770000	-5.771739	0.001179	-2.244567	-5.319680	-2.733437	-1.650068	-0.822837	13.107804	-3.387720	4.867940	-0.747740	0.796385	0.395019	0.419860	-1.000000	-1.000000	-1.000000	-1.000000	-1.000000	-1.000000	-1.000000	73.724138	0.000000	-1.000000	-1.000000	1842266.000000	1773867928.314008
-4322.025000	-626.355000	11754.990000	15355.080000	-16059.330000	-19514.790000	8941.455000	17771.445000	-1.641042	-4.706372	-16.740693	-13.209867	-6.182030	-3.966713	-2.150071	10.844491	-3.387720	4.867940	-0.747740	0.796385	0.395019	0.419860	-1.000000	-1.000000	-1.000000	-1.000000	-1.000000	-1.000000	-1.000000	73.724138	0.000000	-1.000000	-1.000000	1842267.000000	1773867928.314014
-4303.215000	-601.425000	11824.920000	15383.745000	-16039.845000	-19500.840000	8936.505000	17760.510000	0.925147	-6.438465	-23.947721	-14.506646	-6.698154	-3.813381	-2.555513	3.542102	-3.387720	4.867940	-0.747740	0.796385	0.395019	0.419860	-1.000000	-1.000000	-1.000000	-1.000000	-1.000000	-1.000000	-1.000000	73.724138	0.000000	-1.000000	-1.000000	1842268.000000	1773867928.314019
-4325.490000	-607.185000	11833.335000	15373.575000	-16039.440000	-19520.100000	8911.485000	17725.635000	-0.286356	-4.791727	-18.144352	-7.546313	-3.999679	-2.619412	-2.306030	-3.730592	-3.387720	4.867940	-0.747740	0.796385	0.395019	0.419860	-1.000000	-1.000000	-1.000000	-1.000000	-1.000000	-1.000000	-1.000000	73.724138	0.000000	-1.000000	-1.000000	1842269.000000	1773867928.315825
-4383.765000	-636.030000	11807.280000	15343.830000	-16059.915000	-19520.685000	8919.675000	17708.850000	-4.262387	-1.895618	-2.091025	2.106150	-0.269775	-1.891513	-2.209408	-8.511535	-3.387720	4.867940	-0.747740	0.796385	0.395019	0.419860	-1.000000	-1.000000	-1.000000	-1.000000	-1.000000	-1.000000	-1.000000	73.724138	0.000000	-1.000000	-1.000000	1842270.000000	1773867928.315835
-4390.695000	-658.620000	11792.880000	15336.765000	-16063.920000	-19521.990000	8925.750000	17727.480000	-8.498541	-1.694931	12.134358	6.487910	0.932591	-2.366044	-2.023974	-9.617201	-3.052000	5.890360	-1.190280	0.796202	0.395019	0.419555	-1.000000	-1.000000	-1.000000	-1.000000	-1.000000	-1.000000	-1.000000	73.724138	0.000000	-1.000000	-1.000000	1842271.000000	1773867928.329396
-4365.180000	-652.905000	11796.165000	15346.890000	-16061.220000	-19528.065000	8929.170000	17751.510000	-9.543418	-5.379029	14.696693	3.290953	-0.868127	-3.380975	-0.649328	-5.095186	-3.052000	5.890360	-1.190280	0.796202	0.395019	0.419555	-1.000000	-1.000000	-1.000000	-1.000000	-1.000000	-1.000000	-1.000000	73.724138	0.000000	-1.000000	-1.000000	1842272.000000	1773867928.329408
-4380.975000	-671.265000	11794.770000	15378.390000	-16026.660000	-19497.465000	8934.120000	17747.325000	-4.775668	-9.223557	6.309203	-2.721272	-2.412246	-3.043723	1.930066	4.224377	-3.052000	5.890360	-1.190280	0.796202	0.395019	0.419555	-1.000000	-1.000000	-1.000000	-1.000000	-1.000000	-1.000000	-1.000000	73.724138	0.000000	-1.000000	-1.000000	1842273.000000	1773867928.329420
-4442.895000	-653.715000	11807.145000	15369.120000	-16035.120000	-19503.315000	8933.760000	17717.040000	3.553011	-8.232290	-4.145752	-4.511026	-0.379005	0.314420	4.392407	12.127069	-3.052000	5.890360	-1.190280	0.796202	0.395019	0.419555	-1.000000	-1.000000	-1.000000	-1.000000	-1.000000	-1.000000	-1.000000	73.724138	0.000000	-1.000000	-1.000000	1842274.000000	1773867928.329425
-4385.790000	-637.515000	11816.100000	15357.960000	-16044.795000	-19513.755000	8935.515000	17735.130000	9.892409	-0.973427	-7.731424	0.030556	4.501132	5.301267	5.232518	12.273842	-3.052000	5.890360	-1.190280	0.796202	0.395019	0.419555	-1.000000	-1.000000	-1.000000	-1.000000	-1.000000	-1.000000	-1.000000	73.724138	0.000000	-1.000000	-1.000000	1842275.000000	1773867928.329431
-4347.360000	-638.280000	11807.685000	15363.180000	-16037.415000	-19513.350000	8937.315000	17762.535000	12.117910	8.639532	-3.091979	6.083419	8.145178	8.098854	3.955408	5.452710	-3.052000	5.890360	-1.190280	0.796202	0.395019	0.419555	-1.000000	-1.000000	-1.000000	-1.000000	-1.000000	-1.000000	-1.000000	73.724138	0.000000	-1.000000	-1.000000	1842276.000000	1773867928.329436
-4315.860000	-666.135000	11777.400000	15338.250000	-16067.610000	-19540.755000	8928.630000	17782.560000	12.114102	13.868361	2.636739	7.614034	7.248358	6.312835	1.498708	-1.239860	-3.052000	5.890360	-1.190280	0.796202	0.395019	0.419555	-1.000000	-1.000000	-1.000000	-1.000000	-1.000000	-1.000000	-1.000000	73.724138	0.000000	-1.000000	-1.000000	1842277.000000	1773867928.344579
-4275.045000	-638.235000	11801.520000	15340.860000	-16068.870000	-19535.805000	8924.895000	17790.660000	12.340315	11.528763	2.731338	3.176903	1.337349	0.806674	-0.764223	-2.117250	-3.052000	5.890360	-1.190280	0.796202	0.395019	0.419555	-1.000000	-1.000000	-1.000000	-1.000000	-1.000000	-1.000000	-1.000000	73.724138	0.000000	-1.000000	-1.000000	1842278.000000	1773867928.344597
-4298.445000	-620.145000	11776.185000	15365.115000	-16040.430000	-19502.730000	8946.360000	17784.585000	13.627024	5.632082	-1.336378	-2.804485	-5.893511	-4.450548	-1.989774	1.844468	-3.052000	5.890360	-1.190280	0.796202	0.395019	0.419555	-1.000000	-1.000000	-1.000000	-1.000000	-1.000000	-1.000000	-1.000000	73.724138	0.000000	-1.000000	-1.000000	1842279.000000	1773867928.344616
-4327.155000	-632.070000	11787.435000	15374.160000	-16032.375000	-19495.620000	8948.970000	17776.575000	12.144911	1.791167	-4.279678	-4.637474	-8.529775	-5.206080	-1.917642	4.661176	-3.052000	5.890360	-1.190280	0.796202	0.395019	0.419555	-1.000000	-1.000000	-1.000000	-1.000000	-1.000000	-1.000000	-1.000000	73.724138	0.000000	-1.000000	-1.000000	1842280.000000	1773867928.344622
-4363.155000	-660.150000	11795.085000	15358.815000	-16049.565000	-19516.455000	8925.480000	17741.160000	2.116331	0.203167	-3.615247	-2.096493	-5.184853	-1.614468	-1.399096	1.047350	-2.044840	6.042960	-0.717220	0.796995	0.391540	0.418395	-1.000000	-1.000000	-1.000000	-1.000000	-1.000000	-1.000000	-1.000000	73.724138	0.000000	-1.000000	-1.000000	1842281.000000	1773867928.344628
-4363.875000	-663.840000	11775.150000	15336.180000	-16070.310000	-19538.505000	8920.845000	17736.345000	-14.795492	-2.142743	-0.203729	0.024574	-0.688557	1.439415	-2.111598	-8.522015	-2.044840	6.042960	-0.717220	0.796995	0.391540	0.418395	-1.000000	-1.000000	-1.000000	-1.000000	-1.000000	-1.000000	-1.000000	73.724138	0.000000	-1.000000	-1.000000	1842282.000000	1773867928.344633
-4336.740000	-651.240000	11780.190000	15340.860000	-16066.035000	-19533.825000	8926.830000	17762.175000	-27.760570	-5.828517	3.286749	-1.047581	0.632938	0.325510	-4.057798	-17.064908	-2.044840	6.042960	-0.717220	0.796995	0.391540	0.418395	-1.000000	-1.000000	-1.000000	-1.000000	-1.000000	-1.000000	-1.000000	73.724138	0.000000	-1.000000	-1.000000	1842283.000000	1773867928.344639
-4375.755000	-661.140000	11786.220000	15353.010000	-16050.015000	-19516.500000	8926.290000	17746.830000	-28.710511	-8.978043	4.850428	-2.980039	-0.113205	-2.775986	-5.044051	-17.579947	-2.044840	6.042960	-0.717220	0.796995	0.391540	0.418395	-1.000000	-1.000000	-1.000000	-1.000000	-1.000000	-1.000000	-1.000000	73.724138	0.000000	-1.000000	-1.000000	1842284.000000	1773867928.344643
-4393.035000	-618.795000	11838.330000	15403.635000	-16001.865000	-19475.640000	8928.270000	17707.095000	-20.999059	-9.224434	5.188462	-1.818599	1.096919	-2.724755	-3.333195	-10.730260	-2.044840	6.042960	-0.717220	0.796995	0.391540	0.418395	-1.000000	-1.000000	-1.000000	-1.000000	-1.000000	-1.000000	-1.000000	73.724138	0.000000	-1.000000	-1.000000	1842285.000000	1773867928.347418
-4348.935000	-544.500000	11910.690000	15469.425000	-15950.115000	-19442.295000	8942.805000	17634.915000	-11.225156	-3.676797	7.177427	4.709844	6.818147	3.167580	1.021586	-3.456369	-2.044840	6.042960	-0.717220	0.796995	0.391540	0.418395	-1.000000	-1.000000	-1.000000	-1.000000	-1.000000	-1.000000	-1.000000	73.724138	0.000000	-1.000000	-1.000000	1842286.000000	1773867928.347430
-4263.795000	-516.330000	11917.710000	15468.795000	-15949.305000	-19424.970000	8947.845000	17624.520000	0.753071	7.918034	11.838293	14.541856	14.876020	12.008764	6.342029	-0.744248	-2.044840	6.042960	-0.717220	0.796995	0.391540	0.418395	-1.000000	-1.000000	-1.000000	-1.000000	-1.000000	-1.000000	-1.000000	73.724138	0.000000	-1.000000	-1.000000	1842287.000000	1773867928.351475
-4242.870000	-594.540000	11824.650000	15385.635000	-16007.940000	-19477.260000	8939.295000	17753.085000	17.683868	18.061513	13.667122	18.833444	17.286276	15.709492	9.318819	1.101663	-2.044840	6.042960	-0.717220	0.796995	0.391540	0.418395	-1.000000	-1.000000	-1.000000	-1.000000	-1.000000	-1.000000	-1.000000	73.724138	0.000000	-1.000000	-1.000000	1842288.000000	1773867928.351485
-4343.265000	-682.290000	11745.045000	15305.265000	-16092.855000	-19551.195000	8937.855000	17827.785000	33.809048	15.412218	3.791094	7.798720	6.146061	6.944995	7.340268	11.149327	-2.044840	6.042960	-0.717220	0.796995	0.391540	0.418395	-1.000000	-1.000000	-1.000000	-1.000000	-1.000000	-1.000000	-1.000000	73.724138	0.000000	-1.000000	-1.000000	1842289.000000	1773867928.355447
-4388.760000	-681.570000	11760.210000	15325.605000	-16082.955000	-19541.340000	8939.835000	17806.455000	35.796101	-2.206291	-17.744685	-16.178482	-16.064507	-12.035382	1.737197	29.638536	-2.044840	6.042960	-0.717220	0.796995	0.391540	0.418395	-1.000000	-1.000000	-1.000000	-1.000000	-1.000000	-1.000000	-1.000000	73.724138	0.000000	-1.000000	-1.000000	1842290.000000	1773867928.355456
-4399.020000	-662.715000	11765.115000	15349.455000	-16056.945000	-19523.745000	8926.605000	17745.705000	18.232626	-22.524819	-36.674859	-35.897426	-34.392254	-28.092337	-3.755742	41.792196	-2.350040	4.425400	-2.014320	0.797361	0.390563	0.422484	-1.000000	-1.000000	-1.000000	-1.000000	-1.000000	-1.000000	-1.000000	73.724138	0.000000	-1.000000	-1.000000	1842291.000000	1773867928.361170
-4398.300000	-694.890000	11691.810000	15292.620000	-16104.195000	-19567.125000	8906.580000	17773.605000	-8.977624	-30.827073	-38.718658	-36.087767	-34.934132	-29.316435	-7.171296	32.581578	-2.350040	4.425400	-2.014320	0.797361	0.390563	0.422484	-1.000000	-1.000000	-1.000000	-1.000000	-1.000000	-1.000000	-1.000000	73.724138	0.000000	-1.000000	-1.000000	1842292.000000	1773867928.361180
-4368.240000	-694.395000	11695.995000	15293.295000	-16101.810000	-19562.805000	8931.195000	17793.810000	-29.280221	-23.231889	-24.006798	-18.596858	-18.639675	-16.509695	-8.210404	4.696605	-2.350040	4.425400	-2.014320	0.797361	0.390563	0.422484	-1.000000	-1.000000	-1.000000	-1.000000	-1.000000	-1.000000	-1.000000	73.724138	0.000000	-1.000000	-1.000000	1842293.000000	1773867928.363404
-4353.570000	-672.705000	11769.120000	15327.000000	-16077.060000	-19545.795000	8919.855000	17750.385000	-31.445580	-6.201070	-1.770174	3.733224	2.892629	1.005430	-6.261660	-24.295002	-2.350040	4.425400	-2.014320	0.797361	0.390563	0.422484	-1.000000	-1.000000	-1.000000	-1.000000	-1.000000	-1.000000	-1.000000	73.724138	0.000000	-1.000000	-1.000000	1842294.000000	1773867928.363412
-4366.710000	-650.700000	11819.745000	15329.700000	-16069.545000	-19528.560000	8922.870000	17747.910000	-17.709519	10.748897	20.124179	20.260441	19.360239	15.186897	-1.894286	-38.971659	-2.350040	4.425400	-2.014320	0.797361	0.390563	0.422484	-1.000000	-1.000000	-1.000000	-1.000000	-1.000000	-1.000000	-1.000000	73.724138	0.000000	-1.000000	-1.000000	1842295.000000	1773867928.367473
-4356.585000	-686.655000	11782.620000	15316.740000	-16079.715000	-19539.045000	8924.085000	17781.885000	-0.830072	20.580563	36.012524	26.876243	26.344939	22.156697	2.472972	-35.553893	-2.350040	4.425400	-2.014320	0.797361	0.390563	0.422484	-1.000000	-1.000000	-1.000000	-1.000000	-1.000000	-1.000000	-1.000000	73.724138	0.000000	-1.000000	-1.000000	1842296.000000	1773867928.367482
-4356.630000	-679.815000	11770.785000	15324.480000	-16073.460000	-19534.680000	8927.055000	17780.535000	9.631432	22.444195	41.477352	25.717426	25.245737	22.139696	5.064609	-21.433276	-2.350040	4.425400	-2.014320	0.797361	0.390563	0.422484	-1.000000	-1.000000	-1.000000	-1.000000	-1.000000	-1.000000	-1.000000	73.724138	0.000000	-1.000000	-1.000000	1842297.000000	1773867928.376674
-4365.585000	-668.835000	11767.680000	15332.670000	-16064.820000	-19527.345000	8927.775000	17748.000000	14.487519	20.958319	35.338117	21.836433	20.834474	18.615839	5.779737	-8.244477	-2.350040	4.425400	-2.014320	0.797361	0.390563	0.422484	-1.000000	-1.000000	-1.000000	-1.000000	-1.000000	-1.000000	-1.000000	73.724138	0.000000	-1.000000	-1.000000	1842298.000000	1773867928.376685
-4363.830000	-670.230000	11772.315000	15336.045000	-16063.020000	-19527.705000	8928.135000	17747.865000	17.830858	18.891334	19.686012	16.792994	15.467570	13.782432	5.150839	-1.046344	-2.350040	4.425400	-2.014320	0.797361	0.390563	0.422484	-1.000000	-1.000000	-1.000000	-1.000000	-1.000000	-1.000000	-1.000000	73.724138	0.000000	-1.000000	-1.000000	1842299.000000	1773867928.376696
-4356.045000	-657.225000	11786.265000	15345.945000	-16054.965000	-19521.270000	8928.045000	17751.105000	19.091567	13.673613	-0.474921	8.501206	7.622287	6.716849	3.765264	3.929010	-2.350040	4.425400	-2.014320	0.797361	0.390563	0.422484	-1.000000	-1.000000	-1.000000	-1.000000	-1.000000	-1.000000	-1.000000	73.724138	0.000000	-1.000000	-1.000000	1842300.000000	1773867928.376701
-4356.945000	-652.365000	11790.900000	15349.950000	-16052.445000	-19519.650000	8926.605000	17747.145000	14.697680	3.715605	-17.192825	-2.494253	-2.708038	-2.344659	2.094585	10.066912	-3.021480	4.440660	-3.097780	0.796385	0.392760	0.422545	-1.000000	-1.000000	-1.000000	-1.000000	-1.000000	-1.000000	-1.000000	73.724138	0.000000	-1.000000	-1.000000	1842301.000000	1773867928.380822
-4347.270000	-637.920000	11804.760000	15364.485000	-16038.315000	-19507.860000	8928.900000	17749.845000	3.742361	-8.014822	-24.931206	-12.552812	-12.452525	-10.736417	0.063158	15.590199	-3.021480	4.440660	-3.097780	0.796385	0.392760	0.422545	-1.000000	-1.000000	-1.000000	-1.000000	-1.000000	-1.000000	-1.000000	73.724138	0.000000	-1.000000	-1.000000	1842302.000000	1773867928.380833
-4338.765000	-618.885000	11823.750000	15385.320000	-16018.830000	-19488.375000	8939.250000	17753.535000	-9.961178	-17.703227	-25.531525	-19.250599	-18.886251	-16.152833	-2.201996	18.514673	-3.021480	4.440660	-3.097780	0.796385	0.392760	0.422545	-1.000000	-1.000000	-1.000000	-1.000000	-1.000000	-1.000000	-1.000000	73.724138	0.000000	-1.000000	-1.000000	1842303.000000	1773867928.383553
-4328.055000	-581.670000	11865.870000	15429.195000	-15977.070000	-19450.935000	8958.600000	17747.325000	-20.225529	-22.285985	-22.714287	-20.859848	-19.974082	-17.010609	-3.472323	18.300546	-3.021480	4.440660	-3.097780	0.796385	0.392760	0.422545	-1.000000	-1.000000	-1.000000	-1.000000	-1.000000	-1.000000	-1.000000	73.724138	0.000000	-1.000000	-1.000000	1842304.000000	1773867928.383559
-4315.590000	-560.520000	11892.735000	15458.490000	-15948.540000	-19426.545000	8968.185000	17755.020000	-22.384224	-18.512271	-14.958897	-14.898355	-13.748240	-11.880408	-2.651504	12.884931	-3.021480	4.440660	-3.097780	0.796385	0.392760	0.422545	-1.000000	-1.000000	-1.000000	-1.000000	-1.000000	-1.000000	-1.000000	73.724138	0.000000	-1.000000	-1.000000	1842305.000000	1773867928.391866
-4339.890000	-624.690000	11811.060000	15375.195000	-16019.955000	-19488.375000	8937.045000	17756.235000	-15.695444	-7.166853	-1.358696	-3.310994	-2.426269	-2.521739	-0.757357	1.589231	-3.021480	4.440660	-3.097780	0.796385	0.392760	0.422545	-1.000000	-1.000000	-1.000000	-1.000000	-1.000000	-1.000000	-1.000000	73.724138	0.000000	-1.000000	-1.000000	1842306.000000	1773867928.391878
-4394.070000	-686.925000	11705.985000	15281.325000	-16080.795000	-19536.480000	8914.095000	17710.425000	-4.300010	2.933237	9.360723	3.870694	5.114907	3.896449	-0.697103	-11.018040	-3.021480	4.440660	-3.097780	0.796385	0.392760	0.422545	-1.000000	-1.000000	-1.000000	-1.000000	-1.000000	-1.000000	-1.000000	73.724138	0.000000	-1.000000	-1.000000	1842307.000000	1773867928.392027
-4406.040000	-690.570000	11690.730000	15262.110000	-16089.390000	-19542.555000	8906.445000	17697.105000	4.635588	3.116025	6.990690	-1.592334	1.838353	1.579315	-3.753883	-18.981584	-3.021480	4.440660	-3.097780	0.796385	0.392760	0.422545	-1.000000	-1.000000	-1.000000	-1.000000	-1.000000	-1.000000	-1.000000	73.724138	0.000000	-1.000000	-1.000000	1842308.000000	1773867928.392037
-4350.555000	-665.145000	11724.885000	15308.235000	-16080.165000	-19538.100000	8911.935000	17712.810000	7.659406	-4.223436	-4.849977	-13.643777	-7.957866	-6.045454	-7.195199	-19.328140	-3.021480	4.440660	-3.097780	0.796385	0.392760	0.422545	-1.000000	-1.000000	-1.000000	-1.000000	-1.000000	-1.000000	-1.000000	73.724138	0.000000	-1.000000	-1.000000	1842309.000000	1773867928.395439
-4319.955000	-655.965000	11770.110000	15371.010000	-16055.370000	-19520.955000	8925.255000	17746.470000	8.201021	-8.941043	-11.470318	-16.756546	-13.092403	-10.123067	-6.956193	-11.755759	-3.021480	4.440660	-3.097780	0.796385	0.392760	0.422545	-1.000000	-1.000000	-1.000000	-1.000000	-1.000000	-1.000000	-1.000000	73.724138	0.000000	-1.000000	-1.000000	1842310.000000	1773867928.395448
-4331.880000	-634.545000	11846.250000	15416.595000	-15989.130000	-19477.440000	8939.295000	17774.010000	9.621971	-5.054773	-3.571670	-3.022107	-6.730969	-5.440716	-1.709976	1.822237	-4.013380	3.921820	-1.754900	0.794065	0.393615	0.421142	-1.000000	-1.000000	-1.000000	-1.000000	-1.000000	-1.000000	-1.000000	73.724138	0.000000	-1.000000	-1.000000	1842311.000000	1773867928.399761
-4363.290000	-596.655000	11873.880000	15406.290000	-15976.170000	-19474.245000	8930.745000	17752.140000	9.482370	4.996589	14.483761	19.344680	8.559864	5.738138	5.737049	15.945449	-4.013380	3.921820	-1.754900	0.794065	0.393615	0.421142	-1.000000	-1.000000	-1.000000	-1.000000	-1.000000	-1.000000	-1.000000	73.724138	0.000000	-1.000000	-1.000000	1842312.000000	1773867928.399770
-4367.745000	-614.295000	11831.535000	15344.505000	-16087.725000	-19566.360000	8927.820000	17760.195000	4.007317	14.590032	29.074946	32.971996	21.264202	14.452666	10.258898	22.525249	-4.013380	3.921820	-1.754900	0.794065	0.393615	0.421142	-1.000000	-1.000000	-1.000000	-1.000000	-1.000000	-1.000000	-1.000000	73.724138	0.000000	-1.000000	-1.000000	1842313.000000	1773867928.403479
-4361.715000	-649.170000	11786.985000	15326.865000	-16109.415000	-19550.205000	8936.775000	17781.120000	-5.042247	17.658598	28.104417	26.645131	19.230660	12.522198	9.084116	17.207737	-4.013380	3.921820	-1.754900	0.794065	0.393615	0.421142	-1.000000	-1.000000	-1.000000	-1.000000	-1.000000	-1.000000	-1.000000	73.724138	0.000000	-1.000000	-1.000000	1842314.000000	1773867928.403489
-4328.190000	-647.460000	11803.590000	15369.075000	-16043.895000	-19507.995000	8925.525000	17792.955000	-10.149097	13.163271	12.436734	7.080271	5.092838	3.799189	4.477774	4.365299	-4.013380	3.921820	-1.754900	0.794065	0.393615	0.421142	-1.000000	-1.000000	-1.000000	-1.000000	-1.000000	-1.000000	-1.000000	73.724138	0.000000	-1.000000	-1.000000	1842315.000000	1773867928.407481
-4325.490000	-638.730000	11801.790000	15355.260000	-16066.170000	-19524.465000	8917.515000	17779.140000	-5.207142	6.112219	-4.652824	-7.961446	-5.435156	-0.243942	0.344028	-7.005352	-4.013380	3.921820	-1.754900	0.794065	0.393615	0.421142	-1.000000	-1.000000	-1.000000	-1.000000	-1.000000	-1.000000	-1.000000	73.724138	0.000000	-1.000000	-1.000000	1842316.000000	1773867928.407493
-4393.260000	-676.350000	11771.595000	15336.045000	-16074.720000	-19534.455000	8921.880000	17746.110000	5.653730	0.628557	-12.955432	-9.985186	-4.365111	3.380183	-1.703715	-12.141070	-4.013380	3.921820	-1.754900	0.794065	0.393615	0.421142	-1.000000	-1.000000	-1.000000	-1.000000	-1.000000	-1.000000	-1.000000	73.724138	0.000000	-1.000000	-1.000000	1842317.000000	1773867928.411520
-4412.340000	-682.245000	11770.245000	15336.585000	-16070.040000	-19533.960000	8928.720000	17739.045000	9.800398	-4.640313	-14.422908	-5.985990	2.067042	7.624492	-2.165986	-13.242053	-4.013380	3.921820	-1.754900	0.794065	0.393615	0.421142	-1.000000	-1.000000	-1.000000	-1.000000	-1.000000	-1.000000	-1.000000	73.724138	0.000000	-1.000000	-1.000000	1842318.000000	1773867928.411532
-4365.450000	-668.925000	11773.620000	15334.605000	-16071.390000	-19537.695000	8923.410000	17753.760000	1.418985	-11.015389	-15.550695	-6.011857	4.710930	5.836398	-2.315227	-13.513749	-4.013380	3.921820	-1.754900	0.794065	0.393615	0.421142	-1.000000	-1.000000	-1.000000	-1.000000	-1.000000	-1.000000	-1.000000	73.724138	0.000000	-1.000000	-1.000000	1842319.000000	1773867928.415749
-4307.355000	-633.825000	11801.655000	15363.180000	-16039.215000	-19503.000000	8940.870000	17750.520000	-9.809637	-15.423087	-18.340374	-11.777044	-0.038244	-2.351818	-2.961997	-12.340468	-4.013380	3.921820	-1.754900	0.794065	0.393615	0.421142	-1.000000	-1.000000	-1.000000	-1.000000	-1.000000	-1.000000	-1.000000	73.724138	0.000000	-1.000000	-1.000000	1842320.000000	1773867928.415759
-4313.475000	-607.230000	11834.955000	15399.045000	-16002.630000	-19464.345000	8969.895000	17744.310000	-10.836126	-13.824116	-18.625395	-15.799127	-7.512186	-10.494853	-3.017777	-7.626056	-2.716280	4.532220	-2.685760	0.796690	0.391845	0.420958	-1.000000	-1.000000	-1.000000	-1.000000	-1.000000	-1.000000	-1.000000	73.724138	0.000000	-1.000000	-1.000000	1842321.000000	1773867928.423944
-4340.250000	-624.555000	11817.270000	15380.730000	-16023.690000	-19485.630000	8956.575000	17735.805000	-1.119793	-5.523517	-10.569745	-10.008364	-8.679776	-10.681336	-1.089361	-0.157618	-2.716280	4.532220	-2.685760	0.796690	0.391845	0.420958	-1.000000	-1.000000	-1.000000	-1.000000	-1.000000	-1.000000	-1.000000	73.724138	0.000000	-1.000000	-1.000000	1842322.000000	1773867928.423956
-4349.295000	-648.855000	11787.435000	15346.800000	-16060.320000	-19523.610000	8919.675000	17729.235000	8.824277	5.749272	5.433787	3.931521	-1.546303	-3.400049	1.155529	6.311690	-2.716280	4.532220	-2.685760	0.796690	0.391845	0.420958	-1.000000	-1.000000	-1.000000	-1.000000	-1.000000	-1.000000	-1.000000	73.724138	0.000000	-1.000000	-1.000000	1842323.000000	1773867928.438134
-4363.740000	-657.585000	11784.330000	15346.800000	-16052.580000	-19519.380000	8906.760000	17705.925000	10.334415	13.909605	21.129033	15.877330	5.834605	2.768686	0.692298	8.949704	-2.716280	4.532220	-2.685760	0.796690	0.391845	0.420958	-1.000000	-1.000000	-1.000000	-1.000000	-1.000000	-1.000000	-1.000000	73.724138	0.000000	-1.000000	-1.000000	1842324.000000	1773867928.438147
-4402.845000	-660.240000	11792.790000	15358.365000	-16040.295000	-19509.480000	8917.785000	17667.810000	3.281428	14.799945	28.056782	18.664725	6.875373	2.956925	-2.127488	7.886328	-2.716280	4.532220	-2.685760	0.796690	0.391845	0.420958	-1.000000	-1.000000	-1.000000	-1.000000	-1.000000	-1.000000	-1.000000	73.724138	0.000000	-1.000000	-1.000000	1842325.000000	1773867928.438162
-4393.305000	-629.820000	11815.335000	15378.120000	-16024.005000	-19494.675000	8936.280000	17704.125000	-6.042050	9.563802	24.264586	13.501591	3.259387	0.244728	-3.781112	5.510506	-2.716280	4.532220	-2.685760	0.796690	0.391845	0.420958	-1.000000	-1.000000	-1.000000	-1.000000	-1.000000	-1.000000	-1.000000	73.724138	0.000000	-1.000000	-1.000000	1842326.000000	1773867928.438167
-4323.240000	-624.420000	11807.010000	15369.255000	-16034.265000	-19506.870000	8927.145000	17766.630000	-9.836873	2.960987	13.004333	4.844973	-0.914974	-1.303517	-2.113082	5.559091	-2.716280	4.532220	-2.685760	0.796690	0.391845	0.420958	-1.000000	-1.000000	-1.000000	-1.000000	-1.000000	-1.000000	-1.000000	73.724138	0.000000	-1.000000	-1.000000	1842327.000000	1773867928.438174
-4310.370000	-652.140000	11781.315000	15342.570000	-16057.665000	-19530.765000	8920.710000	17791.200000	-5.019260	-2.666299	-2.234333	-4.891800	-4.937413	-1.982572	1.248400	9.746396	-2.716280	4.532220	-2.685760	0.796690	0.391845	0.420958	-1.000000	-1.000000	-1.000000	-1.000000	-1.000000	-1.000000	-1.000000	73.724138	0.000000	-1.000000	-1.000000	1842328.000000	1773867928.438179
-4318.830000	-618.840000	11847.870000	15389.820000	-16009.290000	-19482.615000	8956.530000	17753.715000	3.416679	-8.468663	-17.514211	-13.903681	-9.350624	-3.818513	3.473248	14.055402	-2.716280	4.532220	-2.685760	0.796690	0.391845	0.420958	-1.000000	-1.000000	-1.000000	-1.000000	-1.000000	-1.000000	-1.000000	73.724138	0.000000	-1.000000	-1.000000	1842329.000000	1773867928.438184
-4337.865000	-579.915000	11900.205000	15434.820000	-15961.635000	-19428.930000	8950.545000	17696.385000	7.873037	-12.931996	-25.092400	-17.302021	-10.641245	-4.591029	3.735556	11.062099	-2.716280	4.532220	-2.685760	0.796690	0.391845	0.420958	-1.000000	-1.000000	-1.000000	-1.000000	-1.000000	-1.000000	-1.000000	73.724138	0.000000	-1.000000	-1.000000	1842330.000000	1773867928.438189
-4375.485000	-590.940000	11846.295000	15410.205000	-15985.170000	-19444.140000	8939.205000	17625.510000	5.470803	-11.136674	-18.973636	-10.669090	-4.056093	0.201010	2.786692	-3.032969	-1.022420	2.517900	-1.770160	0.796141	0.392333	0.422728	-1.000000	-1.000000	-1.000000	-1.000000	-1.000000	-1.000000	-1.000000	73.724138	0.000000	-1.000000	-1.000000	1842331.000000	1773867928.440614
-4399.740000	-644.670000	11788.470000	15363.180000	-16037.595000	-19505.250000	8929.260000	17676.270000	-1.698448	-2.809654	-4.288878	2.218856	7.184659	8.333703	1.709199	-22.094461	-1.022420	2.517900	-1.770160	0.796141	0.392333	0.422728	-1.000000	-1.000000	-1.000000	-1.000000	-1.000000	-1.000000	-1.000000	73.724138	0.000000	-1.000000	-1.000000	1842332.000000	1773867928.440624
-4371.705000	-683.415000	11757.060000	15333.210000	-16071.120000	-19534.680000	8924.400000	17774.145000	-8.436720	4.883067	6.643244	11.049504	12.799010	10.983892	1.171820	-30.449899	-1.022420	2.517900	-1.770160	0.796141	0.392333	0.422728	-1.000000	-1.000000	-1.000000	-1.000000	-1.000000	-1.000000	-1.000000	73.724138	0.000000	-1.000000	-1.000000	1842333.000000	1773867928.451222
-4380.615000	-715.905000	11659.500000	15295.005000	-16095.915000	-19565.910000	8913.645000	17779.995000	-8.588893	5.053489	5.785084	8.873402	6.852979	3.278433	0.341325	-16.755534	-1.022420	2.517900	-1.770160	0.796141	0.392333	0.422728	-1.000000	-1.000000	-1.000000	-1.000000	-1.000000	-1.000000	-1.000000	73.724138	0.000000	-1.000000	-1.000000	1842334.000000	1773867928.451233
-4390.200000	-706.770000	11680.515000	15267.510000	-16095.735000	-19557.630000	8931.330000	17788.950000	-1.696766	-1.862911	-5.286805	-2.619028	-6.301191	-10.003418	-1.812951	10.530480	-1.022420	2.517900	-1.770160	0.796141	0.392333	0.422728	-1.000000	-1.000000	-1.000000	-1.000000	-1.000000	-1.000000	-1.000000	73.724138	0.000000	-1.000000	-1.000000	1842335.000000	1773867928.451244
-4349.115000	-670.905000	11765.205000	15320.610000	-16086.870000	-19548.495000	8937.990000	17825.850000	5.317039	-8.502066	-14.836119	-14.212926	-16.276757	-18.544651	-3.892104	30.107236	-1.022420	2.517900	-1.770160	0.796141	0.392333	0.422728	-1.000000	-1.000000	-1.000000	-1.000000	-1.000000	-1.000000	-1.000000	73.724138	0.000000	-1.000000	-1.000000	1842336.000000	1773867928.451249
-4280.805000	-625.455000	11840.535000	15364.890000	-16052.940000	-19520.730000	8946.720000	17819.100000	7.811035	-6.776579	-9.294853	-14.821587	-15.046616	-15.124848	-3.664386	29.273938	-1.022420	2.517900	-1.770160	0.796141	0.392333	0.422728	-1.000000	-1.000000	-1.000000	-1.000000	-1.000000	-1.000000	-1.000000	73.724138	0.000000	-1.000000	-1.000000	1842337.000000	1773867928.452988
-4319.145000	-642.555000	11816.280000	15331.545000	-16073.325000	-19538.685000	8938.035000	17810.910000	7.734390	3.490178	10.442001	-2.735722	-3.834272	-2.430858	-1.775903	12.219001	-1.022420	2.517900	-1.770160	0.796141	0.392333	0.422728	-1.000000	-1.000000	-1.000000	-1.000000	-1.000000	-1.000000	-1.000000	73.724138	0.000000	-1.000000	-1.000000	1842338.000000	1773867928.452999
-4335.930000	-640.260000	11800.575000	15330.060000	-16079.400000	-19546.065000	8940.780000	17793.675000	6.685602	13.606634	27.968269	11.506035	8.414902	9.586601	-0.426160	-7.769672	-1.022420	2.517900	-1.770160	0.796141	0.392333	0.422728	-1.000000	-1.000000	-1.000000	-1.000000	-1.000000	-1.000000	-1.000000	73.724138	0.000000	-1.000000	-1.000000	1842339.000000	1773867928.455533
-4336.560000	-639.405000	11806.155000	15360.300000	-16037.865000	-19507.455000	8955.810000	17783.370000	4.026000	16.425608	30.630514	18.704034	15.502649	14.990378	0.604171	-19.583769	-1.022420	2.517900	-1.770160	0.796141	0.392333	0.422728	-1.000000	-1.000000	-1.000000	-1.000000	-1.000000	-1.000000	-1.000000	73.724138	0.000000	-1.000000	-1.000000	1842340.000000	1773867928.455543
-4355.415000	-658.710000	11789.325000	15344.280000	-16056.540000	-19520.820000	8936.235000	17759.070000	0.085591	12.760503	20.365221	19.164992	18.487311	16.305813	2.754954	-21.632567	-4.242280	4.043900	-2.502640	0.797239	0.398436	0.422118	-1.000000	-1.000000	-1.000000	-1.000000	-1.000000	-1.000000	-1.000000	73.724138	0.000000	-1.000000	-1.000000	1842341.000000	1773867928.459581
-4372.605000	-668.205000	11771.460000	15318.855000	-16083.900000	-19536.570000	8924.760000	17734.680000	-4.541680	6.637665	5.592971	15.460123	18.345612	16.263113	4.822476	-19.856972	-4.242280	4.043900	-2.502640	0.797239	0.398436	0.422118	-1.000000	-1.000000	-1.000000	-1.000000	-1.000000	-1.000000	-1.000000	73.724138	0.000000	-1.000000	-1.000000	1842342.000000	1773867928.459593
-4387.410000	-672.750000	11783.295000	15344.595000	-16051.140000	-19517.670000	8928.180000	17725.725000	-9.176201	0.355398	-6.802602	8.278319	13.186337	13.242663	4.177062	-18.260089	-4.242280	4.043900	-2.502640	0.797239	0.398436	0.422118	-1.000000	-1.000000	-1.000000	-1.000000	-1.000000	-1.000000	-1.000000	73.724138	0.000000	-1.000000	-1.000000	1842343.000000	1773867928.464661
-4389.390000	-665.730000	11786.715000	15343.335000	-16058.340000	-19525.320000	8924.580000	17760.780000	-12.341446	-5.644919	-14.029412	-0.593898	3.459462	5.816123	0.449110	-14.623660	-4.242280	4.043900	-2.502640	0.797239	0.398436	0.422118	-1.000000	-1.000000	-1.000000	-1.000000	-1.000000	-1.000000	-1.000000	73.724138	0.000000	-1.000000	-1.000000	1842344.000000	1773867928.464671
-4366.305000	-643.545000	11794.815000	15341.355000	-16063.380000	-19526.760000	8916.075000	17764.560000	-13.073086	-11.042569	-18.338537	-9.355490	-7.738658	-4.792783	-4.362817	-5.611784	-4.242280	4.043900	-2.502640	0.797239	0.398436	0.422118	-1.000000	-1.000000	-1.000000	-1.000000	-1.000000	-1.000000	-1.000000	73.724138	0.000000	-1.000000	-1.000000	1842345.000000	1773867928.467435
-4351.230000	-647.595000	11796.930000	15351.975000	-16048.575000	-19511.640000	8924.085000	17759.025000	-10.682379	-14.627282	-22.562366	-17.277700	-17.380653	-15.421483	-7.762475	8.009879	-4.242280	4.043900	-2.502640	0.797239	0.398436	0.422118	-1.000000	-1.000000	-1.000000	-1.000000	-1.000000	-1.000000	-1.000000	73.724138	0.000000	-1.000000	-1.000000	1842346.000000	1773867928.467442
-4320.720000	-652.815000	11784.015000	15346.350000	-16044.885000	-19511.460000	8923.680000	17764.290000	-3.302929	-14.899974	-24.621115	-21.644571	-21.991744	-21.557883	-7.728704	21.771251	-4.242280	4.043900	-2.502640	0.797239	0.398436	0.422118	-1.000000	-1.000000	-1.000000	-1.000000	-1.000000	-1.000000	-1.000000	73.724138	0.000000	-1.000000	-1.000000	1842347.000000	1773867928.471547
-4323.780000	-627.255000	11805.885000	15360.345000	-16035.570000	-19506.015000	8914.050000	17755.020000	9.431056	-10.568043	-19.099999	-18.786150	-18.753652	-19.863963	-3.891177	30.546945	-4.242280	4.043900	-2.502640	0.797239	0.398436	0.422118	-1.000000	-1.000000	-1.000000	-1.000000	-1.000000	-1.000000	-1.000000	73.724138	0.000000	-1.000000	-1.000000	1842348.000000	1773867928.471556
-4339.620000	-611.820000	11831.355000	15374.160000	-16026.255000	-19502.505000	8911.845000	17724.690000	21.988011	-1.142875	-3.546357	-8.477449	-8.696282	-11.057327	1.676498	30.054366	-4.242280	4.043900	-2.502640	0.797239	0.398436	0.422118	-1.000000	-1.000000	-1.000000	-1.000000	-1.000000	-1.000000	-1.000000	73.724138	0.000000	-1.000000	-1.000000	1842349.000000	1773867928.478599
-4345.425000	-612.540000	11842.245000	15379.515000	-16022.430000	-19499.085000	8920.710000	17714.430000	26.029189	11.092962	17.529278	5.549580	3.955535	0.973247	6.504060	18.558327	-4.242280	4.043900	-2.502640	0.797239	0.398436	0.422118	-1.000000	-1.000000	-1.000000	-1.000000	-1.000000	-1.000000	-1.000000	73.724138	0.000000	-1.000000	-1.000000	1842350.000000	1773867928.478610
-4333.635000	-598.095000	11857.320000	15410.205000	-15992.505000	-19471.275000	8946.675000	17741.160000	18.707713	20.693287	34.650200	18.052228	14.768161	11.991744	9.770800	0.615125	-3.158820	4.104940	0.030520	0.795591	0.395873	0.419310	-1.000000	-1.000000	-1.000000	-1.000000	-1.000000	-1.000000	-1.000000	73.724138	0.000000	-1.000000	-1.000000	1842351.000000	1773867928.479667
-4326.930000	-611.145000	11829.330000	15425.685000	-15978.465000	-19455.750000	8964.990000	17756.280000	4.782475	22.083464	38.450519	24.203312	20.020377	18.531537	11.312619	-14.418515	-3.158820	4.104940	0.030520	0.795591	0.395873	0.419310	-1.000000	-1.000000	-1.000000	-1.000000	-1.000000	-1.000000	-1.000000	73.724138	0.000000	-1.000000	-1.000000	1842352.000000	1773867928.479673
-4335.795000	-638.595000	11801.745000	15371.460000	-16028.595000	-19493.955000	8947.485000	17749.080000	-9.162596	12.646554	24.213304	20.250209	16.807085	17.770465	10.070070	-20.795571	-3.158820	4.104940	0.030520	0.795591	0.395873	0.419310	-1.000000	-1.000000	-1.000000	-1.000000	-1.000000	-1.000000	-1.000000	73.724138	0.000000	-1.000000	-1.000000	1842353.000000	1773867928.485115
-4340.295000	-641.340000	11799.630000	15353.370000	-16035.120000	-19496.295000	8952.570000	17735.085000	-19.582034	-5.134498	-3.638271	5.231039	4.716393	8.606211	4.814526	-19.581136	-3.158820	4.104940	0.030520	0.795591	0.395873	0.419310	-1.000000	-1.000000	-1.000000	-1.000000	-1.000000	-1.000000	-1.000000	73.724138	0.000000	-1.000000	-1.000000	1842354.000000	1773867928.485127
-4349.565000	-638.865000	11805.615000	15376.230000	-16012.305000	-19476.675000	8975.835000	17760.645000	-24.812332	-22.644919	-31.049388	-14.749378	-11.152100	-5.358323	-3.161658	-13.556921	-3.158820	4.104940	0.030520	0.795591	0.395873	0.419310	-1.000000	-1.000000	-1.000000	-1.000000	-1.000000	-1.000000	-1.000000	73.724138	0.000000	-1.000000	-1.000000	1842355.000000	1773867928.487660
-4320.450000	-618.885000	11817.855000	15382.395000	-16004.745000	-19482.390000	8965.395000	17786.205000	-22.763494	-29.491258	-42.557818	-27.663502	-21.388474	-16.264043	-9.824217	-3.919677	-3.158820	4.104940	0.030520	0.795591	0.395873	0.419310	-1.000000	-1.000000	-1.000000	-1.000000	-1.000000	-1.000000	-1.000000	73.724138	0.000000	-1.000000	-1.000000	1842356.000000	1773867928.487672
-4364.370000	-653.625000	11789.910000	15344.910000	-16032.465000	-19511.280000	8931.870000	17754.705000	-12.855857	-22.110683	-33.005622	-26.291062	-20.433079	-18.763518	-12.559984	7.147885	-3.158820	4.104940	0.030520	0.795591	0.395873	0.419310	-1.000000	-1.000000	-1.000000	-1.000000	-1.000000	-1.000000	-1.000000	73.724138	0.000000	-1.000000	-1.000000	1842357.000000	1773867928.498954
-4403.700000	-701.190000	11741.220000	15285.735000	-16107.615000	-19563.930000	8911.485000	17716.635000	0.544177	-7.068961	-11.408536	-14.932882	-12.000394	-14.444850	-12.286765	14.181925	-3.158820	4.104940	0.030520	0.795591	0.395873	0.419310	-1.000000	-1.000000	-1.000000	-1.000000	-1.000000	-1.000000	-1.000000	73.724138	0.000000	-1.000000	-1.000000	1842358.000000	1773867928.498964
-4405.455000	-719.055000	11712.735000	15267.420000	-16146.405000	-19607.130000	8912.655000	17735.085000	10.598616	5.687059	7.815399	-2.996476	-4.325945	-8.634978	-10.573793	12.657720	-3.158820	4.104940	0.030520	0.795591	0.395873	0.419310	-1.000000	-1.000000	-1.000000	-1.000000	-1.000000	-1.000000	-1.000000	73.724138	0.000000	-1.000000	-1.000000	1842359.000000	1773867928.498975
-4414.905000	-696.510000	11737.035000	15286.095000	-16130.205000	-19613.385000	8907.525000	17704.035000	14.003611	11.721801	17.030362	4.476043	-1.417554	-4.937601	-7.702899	3.722798	-3.158820	4.104940	0.030520	0.795591	0.395873	0.419310	-1.000000	-1.000000	-1.000000	-1.000000	-1.000000	-1.000000	-1.000000	73.724138	0.000000	-1.000000	-1.000000	1842360.000000	1773867928.498980
-4367.430000	-662.805000	11778.705000	15341.985000	-16051.320000	-19507.320000	8913.060000	17722.755000	12.565324	13.819614	18.987153	9.550611	1.057786	-0.901357	-3.420268	-7.492422	-2.807840	4.532220	-1.022420	0.798704	0.393432	0.417601	-1.000000	-1.000000	-1.000000	-1.000000	-1.000000	-1.000000	-1.000000	73.724138	0.000000	-1.000000	-1.000000	1842361.000000	1773867928.501965
-4322.205000	-654.255000	11792.610000	15355.890000	-16045.380000	-19514.340000	8920.845000	17775.675000	10.858579	16.153219	19.827676	16.911310	10.226066	9.412613	2.606983	-13.958690	-2.807840	4.532220	-1.022420	0.798704	0.393432	0.417601	-1.000000	-1.000000	-1.000000	-1.000000	-1.000000	-1.000000	-1.000000	73.724138	0.000000	-1.000000	-1.000000	1842362.000000	1773867928.501975
-4333.995000	-657.945000	11782.890000	15336.630000	-16069.995000	-19527.570000	8920.485000	17762.310000	11.448689	18.204726	20.364726	25.513576	24.102805	23.901298	9.447451	-10.206416	-2.807840	4.532220	-1.022420	0.798704	0.393432	0.417601	-1.000000	-1.000000	-1.000000	-1.000000	-1.000000	-1.000000	-1.000000	73.724138	0.000000	-1.000000	-1.000000	1842363.000000	1773867928.505074
-4383.270000	-656.730000	11780.370000	15341.985000	-16055.055000	-19519.380000	8923.905000	17735.445000	10.836449	15.860652	16.473126	27.418246	31.096251	31.253396	14.007315	0.455531	-2.807840	4.532220	-1.022420	0.798704	0.393432	0.417601	-1.000000	-1.000000	-1.000000	-1.000000	-1.000000	-1.000000	-1.000000	73.724138	0.000000	-1.000000	-1.000000	1842364.000000	1773867928.505084
-4405.860000	-663.570000	11772.990000	15331.635000	-16061.265000	-19514.880000	8932.365000	17740.755000	3.551350	7.117955	6.181851	17.521417	23.765409	24.668548	14.175464	8.518483	-2.807840	4.532220	-1.022420	0.798704	0.393432	0.417601	-1.000000	-1.000000	-1.000000	-1.000000	-1.000000	-1.000000	-1.000000	73.724138	0.000000	-1.000000	-1.000000	1842365.000000	1773867928.507422
-4384.845000	-677.520000	11756.745000	15316.155000	-16076.655000	-19526.490000	8929.440000	17742.285000	-8.426021	-4.864959	-6.930577	0.073759	6.231260	8.405678	11.202221	9.822670	-2.807840	4.532220	-1.022420	0.798704	0.393432	0.417601	-1.000000	-1.000000	-1.000000	-1.000000	-1.000000	-1.000000	-1.000000	73.724138	0.000000	-1.000000	-1.000000	1842366.000000	1773867928.507430
-4348.485000	-646.290000	11783.610000	15340.770000	-16055.820000	-19520.055000	8930.745000	17732.025000	-15.273503	-13.334317	-15.950870	-14.902651	-10.505063	-7.801119	7.138867	7.313356	-2.807840	4.532220	-1.022420	0.798704	0.393432	0.417601	-1.000000	-1.000000	-1.000000	-1.000000	-1.000000	-1.000000	-1.000000	73.724138	0.000000	-1.000000	-1.000000	1842367.000000	1773867928.511558
-4343.130000	-622.080000	11808.720000	15365.655000	-16031.250000	-19494.090000	8930.070000	17729.460000	-10.733183	-13.206171	-15.628011	-19.582351	-17.247063	-16.012104	2.310434	3.779784	-2.807840	4.532220	-1.022420	0.798704	0.393432	0.417601	-1.000000	-1.000000	-1.000000	-1.000000	-1.000000	-1.000000	-1.000000	73.724138	0.000000	-1.000000	-1.000000	1842368.000000	1773867928.511564
-4357.755000	-628.560000	11813.760000	15379.470000	-16011.405000	-19483.290000	8923.185000	17706.510000	0.319987	-6.398318	-7.583364	-14.471111	-13.818138	-15.202196	-3.631280	-0.527314	-2.807840	4.532220	-1.022420	0.798704	0.393432	0.417601	-1.000000	-1.000000	-1.000000	-1.000000	-1.000000	-1.000000	-1.000000	73.724138	0.000000	-1.000000	-1.000000	1842369.000000	1773867928.517152
-4350.015000	-615.555000	11828.070000	15392.475000	-15999.795000	-19471.185000	8937.855000	17696.385000	7.178448	-0.157258	0.643729	-6.606181	-7.600526	-11.141804	-9.520636	-5.886627	-2.807840	4.532220	-1.022420	0.798704	0.393432	0.417601	-1.000000	-1.000000	-1.000000	-1.000000	-1.000000	-1.000000	-1.000000	73.724138	0.000000	-1.000000	-1.000000	1842370.000000	1773867928.517186
-4382.865000	-640.350000	11799.450000	15351.345000	-16042.635000	-19509.615000	8932.050000	17726.265000	3.597155	0.406059	2.770354	-2.357388	-5.203984	-9.554317	-12.820349	-11.018204	-1.129240	4.471180	-1.220800	0.799009	0.390014	0.418395	-1.000000	-1.000000	-1.000000	-1.000000	-1.000000	-1.000000	-1.000000	73.724138	0.000000	-1.000000	-1.000000	1842371.000000	1773867928.519528
-4408.875000	-650.970000	11777.580000	15332.040000	-16059.105000	-19526.940000	8921.475000	17741.700000	-7.326481	-4.194508	-1.869462	-3.636810	-7.897654	-11.131215	-12.287114	-11.799699	-1.129240	4.471180	-1.220800	0.799009	0.390014	0.418395	-1.000000	-1.000000	-1.000000	-1.000000	-1.000000	-1.000000	-1.000000	73.724138	0.000000	-1.000000	-1.000000	1842372.000000	1773867928.519536
-4396.410000	-626.580000	11797.650000	15356.205000	-16034.445000	-19503.810000	8937.450000	17768.745000	-16.028986	-9.414761	-8.771363	-7.562959	-12.052593	-12.508165	-8.669044	-4.854450	-1.129240	4.471180	-1.220800	0.799009	0.390014	0.418395	-1.000000	-1.000000	-1.000000	-1.000000	-1.000000	-1.000000	-1.000000	73.724138	0.000000	-1.000000	-1.000000	1842373.000000	1773867928.523513
-4386.645000	-660.465000	11789.730000	15372.270000	-16019.370000	-19490.085000	8944.065000	17756.145000	-14.109615	-10.151310	-11.330496	-7.987942	-11.539756	-9.029941	-2.829365	7.188826	-1.129240	4.471180	-1.220800	0.799009	0.390014	0.418395	-1.000000	-1.000000	-1.000000	-1.000000	-1.000000	-1.000000	-1.000000	73.724138	0.000000	-1.000000	-1.000000	1842374.000000	1773867928.523520
-4355.055000	-673.155000	11783.295000	15364.215000	-16030.350000	-19499.940000	8939.790000	17748.225000	-1.346133	-5.282414	-6.362943	-1.223189	-3.096833	0.938200	4.057814	16.688904	-1.129240	4.471180	-1.220800	0.799009	0.390014	0.418395	-1.000000	-1.000000	-1.000000	-1.000000	-1.000000	-1.000000	-1.000000	73.724138	0.000000	-1.000000	-1.000000	1842375.000000	1773867928.528618
-4328.775000	-650.295000	11787.210000	15349.230000	-16048.935000	-19516.590000	8937.990000	17746.785000	14.475129	1.888607	2.914943	8.790123	9.018079	12.808249	9.308730	17.384338	-1.129240	4.471180	-1.220800	0.799009	0.390014	0.418395	-1.000000	-1.000000	-1.000000	-1.000000	-1.000000	-1.000000	-1.000000	73.586207	0.000000	-1.000000	-1.000000	1842376.000000	1773867928.528630
-4342.095000	-644.580000	11788.785000	15348.870000	-16042.905000	-19505.520000	8928.405000	17726.265000	23.983026	7.668835	10.162275	13.820270	16.129619	18.993094	10.213755	9.001928	-1.129240	4.471180	-1.220800	0.799009	0.390014	0.418395	-1.000000	-1.000000	-1.000000	-1.000000	-1.000000	-1.000000	-1.000000	73.586207	0.000000	-1.000000	-1.000000	1842377.000000	1773867928.531720
-4338.180000	-648.900000	11777.670000	15347.160000	-16046.640000	-19519.065000	8917.695000	17758.755000	21.873351	10.091848	11.081228	9.763670	13.339467	15.358695	6.268951	-3.057760	-1.129240	4.471180	-1.220800	0.799009	0.390014	0.418395	-1.000000	-1.000000	-1.000000	-1.000000	-1.000000	-1.000000	-1.000000	73.586207	0.000000	-1.000000	-1.000000	1842378.000000	1773867928.531732
-4326.660000	-662.580000	11753.820000	15346.485000	-16049.295000	-19530.765000	8920.350000	17814.195000	9.500927	8.580499	5.649372	0.170830	3.544948	4.208868	-0.451000	-11.082010	-1.129240	4.471180	-1.220800	0.799009	0.390014	0.418395	-1.000000	-1.000000	-1.000000	-1.000000	-1.000000	-1.000000	-1.000000	73.586207	0.000000	-1.000000	-1.000000	1842379.000000	1773867928.536175
-4306.455000	-631.530000	11802.195000	15367.275000	-16022.340000	-19501.515000	8937.405000	17816.895000	-5.332254	4.786881	-1.422163	-6.928310	-4.954708	-6.678905	-6.000578	-10.773071	-1.129240	4.471180	-1.220800	0.799009	0.390014	0.418395	-1.000000	-1.000000	-1.000000	-1.000000	-1.000000	-1.000000	-1.000000	73.586207	0.000000	-1.000000	-1.000000	1842380.000000	1773867928.536186
-4276.485000	-576.315000	11842.920000	15397.560000	-15974.820000	-19449.045000	8964.900000	17800.245000	-13.286124	2.763481	-2.928994	-5.515848	-4.931751	-8.946512	-6.471569	-5.270910	-2.655240	5.081580	-1.052940	0.797422	0.393187	0.419188	-1.000000	-1.000000	-1.000000	-1.000000	-1.000000	-1.000000	-1.000000	73.586207	0.000000	-1.000000	-1.000000	1842381.000000	1773867928.539651
-4279.815000	-549.090000	11846.880000	15407.415000	-15950.160000	-19426.455000	8930.655000	17738.100000	-11.155264	5.141628	3.363399	2.939953	3.358082	-1.067259	-1.936052	-2.063049	-2.655240	5.081580	-1.052940	0.797422	0.393187	0.419188	-1.000000	-1.000000	-1.000000	-1.000000	-1.000000	-1.000000	-1.000000	73.586207	0.000000	-1.000000	-1.000000	1842382.000000	1773867928.539661
-4326.570000	-587.430000	11835.810000	15359.220000	-16018.920000	-19486.530000	8878.905000	17661.960000	-4.865717	9.406530	11.355466	10.440183	11.695466	9.158576	2.092459	-6.059272	-2.655240	5.081580	-1.052940	0.797422	0.393187	0.419188	-1.000000	-1.000000	-1.000000	-1.000000	-1.000000	-1.000000	-1.000000	73.586207	0.000000	-1.000000	-1.000000	1842383.000000	1773867928.543681
-4379.310000	-652.500000	11807.955000	15342.030000	-16091.775000	-19535.535000	8900.415000	17664.525000	-4.052802	8.555413	12.804662	9.526590	10.142357	11.001550	0.906818	-14.743525	-2.655240	5.081580	-1.052940	0.797422	0.393187	0.419188	-1.000000	-1.000000	-1.000000	-1.000000	-1.000000	-1.000000	-1.000000	73.586207	0.000000	-1.000000	-1.000000	1842384.000000	1773867928.543692
-4344.390000	-631.305000	11843.370000	15394.680000	-16033.140000	-19501.920000	8954.325000	17733.690000	-11.456340	-2.260137	4.906947	0.751049	-2.807875	1.481682	-2.454904	-18.275231	-2.655240	5.081580	-1.052940	0.797422	0.393187	0.419188	-1.000000	-1.000000	-1.000000	-1.000000	-1.000000	-1.000000	-1.000000	73.586207	0.000000	-1.000000	-1.000000	1842385.000000	1773867928.547463
-4293.180000	-552.780000	11919.555000	15471.090000	-15945.030000	-19420.830000	8970.120000	17703.540000	-17.866450	-16.960573	-6.338327	-6.969239	-15.750071	-10.485018	-1.087918	-8.403823	-2.655240	5.081580	-1.052940	0.797422	0.393187	0.419188	-1.000000	-1.000000	-1.000000	-1.000000	-1.000000	-1.000000	-1.000000	73.586207	0.000000	-1.000000	-1.000000	1842386.000000	1773867928.547472
-4332.015000	-574.380000	11889.495000	15446.835000	-15972.975000	-19445.490000	8971.605000	17723.835000	-13.190937	-22.807681	-11.803917	-6.291745	-16.221719	-13.595388	6.013497	10.431627	-2.655240	5.081580	-1.052940	0.797422	0.393187	0.419188	-1.000000	-1.000000	-1.000000	-1.000000	-1.000000	-1.000000	-1.000000	73.586207	0.000000	-1.000000	-1.000000	1842387.000000	1773867928.551620
-4395.240000	-685.890000	11757.375000	15338.430000	-16071.705000	-19592.145000	8939.025000	17815.860000	-0.315148	-16.877763	-11.380265	-1.318999	-6.337863	-8.415633	12.055548	25.969073	-2.655240	5.081580	-1.052940	0.797422	0.393187	0.419188	-1.000000	-1.000000	-1.000000	-1.000000	-1.000000	-1.000000	-1.000000	73.586207	0.000000	-1.000000	-1.000000	1842388.000000	1773867928.551631
-4404.825000	-714.465000	11704.095000	15282.360000	-16128.900000	-19616.670000	8938.440000	17798.175000	9.578770	-9.267317	-14.224939	-3.027208	0.160598	-6.375804	9.763754	31.320916	-2.655240	5.081580	-1.052940	0.797422	0.393187	0.419188	-1.000000	-1.000000	-1.000000	-1.000000	-1.000000	-1.000000	-1.000000	73.586207	0.000000	-1.000000	-1.000000	1842389.000000	1773867928.555502
-4408.290000	-671.490000	11713.230000	15310.935000	-16066.440000	-19493.055000	8954.190000	17768.610000	10.959403	-7.441419	-23.399022	-14.067864	-3.989470	-11.153121	-0.731717	25.741511	-2.655240	5.081580	-1.052940	0.797422	0.393187	0.419188	-1.000000	-1.000000	-1.000000	-1.000000	-1.000000	-1.000000	-1.000000	73.586207	0.000000	-1.000000	-1.000000	1842390.000000	1773867928.555512
-4397.220000	-668.790000	11736.630000	15340.140000	-16044.525000	-19493.325000	8952.075000	17761.320000	7.591466	-6.759110	-28.442658	-23.174925	-10.466789	-11.775518	-11.308851	11.904324	-3.311420	3.952340	-3.189340	0.796934	0.392943	0.419738	-1.000000	-1.000000	-1.000000	-1.000000	-1.000000	-1.000000	-1.000000	73.586207	0.000000	-1.000000	-1.000000	1842391.000000	1773867928.559466
-4451.940000	-689.040000	11781.135000	15367.905000	-16021.260000	-19499.895000	8943.480000	17696.970000	5.686686	0.757583	-17.001309	-16.982684	-5.993233	0.584067	-13.833692	-4.072226	-3.311420	3.952340	-3.189340	0.796934	0.392943	0.419738	-1.000000	-1.000000	-1.000000	-1.000000	-1.000000	-1.000000	-1.000000	73.586207	0.000000	-1.000000	-1.000000	1842392.000000	1773867928.559472
-4432.185000	-665.280000	11821.185000	15347.880000	-16056.720000	-19524.240000	8932.095000	17686.800000	6.950536	15.401830	11.047510	4.649763	11.321045	20.049851	-8.432256	-17.623871	-3.311420	3.952340	-3.189340	0.796934	0.392943	0.419738	-1.000000	-1.000000	-1.000000	-1.000000	-1.000000	-1.000000	-1.000000	73.586207	0.000000	-1.000000	-1.000000	1842393.000000	1773867928.563690
-4366.530000	-666.990000	11801.340000	15334.155000	-16064.145000	-19529.730000	8911.530000	17755.920000	9.417198	28.821842	40.639833	26.326065	27.621441	31.713846	-2.336631	-26.131311	-3.311420	3.952340	-3.189340	0.796934	0.392943	0.419738	-1.000000	-1.000000	-1.000000	-1.000000	-1.000000	-1.000000	-1.000000	73.586207	0.000000	-1.000000	-1.000000	1842394.000000	1773867928.563697
-4333.140000	-665.010000	11793.825000	15317.460000	-16075.845000	-19539.855000	8902.710000	17761.545000	11.553054	30.707681	51.893702	31.300159	26.968664	24.992611	-1.082657	-25.007228	-3.311420	3.952340	-3.189340	0.796934	0.392943	0.419738	-1.000000	-1.000000	-1.000000	-1.000000	-1.000000	-1.000000	-1.000000	73.586207	0.000000	-1.000000	-1.000000	1842395.000000	1773867928.568157
-4308.885000	-673.380000	11793.105000	15297.615000	-16089.570000	-19545.795000	8919.855000	17792.235000	12.970524	18.954964	38.282012	17.826657	9.131503	4.441559	-2.902883	-13.609196	-3.311420	3.952340	-3.189340	0.796934	0.392943	0.419738	-1.000000	-1.000000	-1.000000	-1.000000	-1.000000	-1.000000	-1.000000	73.586207	0.000000	-1.000000	-1.000000	1842396.000000	1773867928.568169
-4319.775000	-671.085000	11760.795000	15305.085000	-16079.805000	-19541.070000	8929.620000	17782.470000	13.023343	2.749692	12.119400	-0.284991	-10.342820	-13.177753	-1.956459	0.189187	-3.311420	3.952340	-3.189340	0.796934	0.392943	0.419738	-1.000000	-1.000000	-1.000000	-1.000000	-1.000000	-1.000000	-1.000000	73.586207	0.000000	-1.000000	-1.000000	1842397.000000	1773867928.571520
-4338.090000	-667.350000	11740.680000	15318.585000	-16070.895000	-19535.805000	8928.855000	17779.545000	8.973221	-8.151665	-10.785110	-8.762807	-17.252674	-16.648016	3.951719	8.427181	-3.311420	3.952340	-3.189340	0.796934	0.392943	0.419738	-1.000000	-1.000000	-1.000000	-1.000000	-1.000000	-1.000000	-1.000000	73.586207	0.000000	-1.000000	-1.000000	1842398.000000	1773867928.571550
-4342.680000	-655.065000	11769.075000	15343.965000	-16052.535000	-19519.245000	8937.630000	17765.910000	-1.844761	-12.576747	-23.692147	-5.597424	-11.562246	-10.781251	10.941890	10.409835	-3.311420	3.952340	-3.189340	0.796934	0.392943	0.419738	-1.000000	-1.000000	-1.000000	-1.000000	-1.000000	-1.000000	-1.000000	73.586207	0.000000	-1.000000	-1.000000	1842399.000000	1773867928.577338
-4344.210000	-643.095000	11805.660000	15353.865000	-16045.740000	-19516.545000	8934.390000	17761.455000	-16.336917	-13.266432	-26.140116	1.528573	-2.295932	-5.164284	14.341231	9.964826	-3.311420	3.952340	-3.189340	0.796934	0.392943	0.419738	-1.000000	-1.000000	-1.000000	-1.000000	-1.000000	-1.000000	-1.000000	73.586207	0.000000	-1.000000	-1.000000	1842400.000000	1773867928.577349
-4350.600000	-652.095000	11800.620000	15354.225000	-16052.580000	-19522.395000	8930.070000	17769.465000	-26.165619	-10.969687	-20.371820	5.065592	3.934324	-1.947521	12.486213	10.250073	-0.335720	4.288060	-3.601360	0.799009	0.387084	0.421325	-1.000000	-1.000000	-1.000000	-1.000000	-1.000000	-1.000000	-1.000000	73.586207	0.000000	-1.000000	-1.000000	1842401.000000	1773867928.579562
-4336.965000	-645.210000	11815.335000	15386.310000	-16020.540000	-19496.520000	8933.265000	17759.160000	-26.003773	-6.806746	-11.432577	2.957096	5.997839	1.103167	6.132609	10.397908	-0.335720	4.288060	-3.601360	0.799009	0.387084	0.421325	-1.000000	-1.000000	-1.000000	-1.000000	-1.000000	-1.000000	-1.000000	73.586207	0.000000	-1.000000	-1.000000	1842402.000000	1773867928.579569
-4329.270000	-626.400000	11828.655000	15399.270000	-15999.615000	-19479.465000	8929.035000	17730.225000	-18.426966	-3.452848	-3.737633	-1.960089	5.338644	4.527497	-2.044370	5.777153	-0.335720	4.288060	-3.601360	0.799009	0.387084	0.421325	-1.000000	-1.000000	-1.000000	-1.000000	-1.000000	-1.000000	-1.000000	73.586207	0.000000	-1.000000	-1.000000	1842403.000000	1773867928.583593
-4367.340000	-672.210000	11768.715000	15333.210000	-16051.320000	-19528.470000	8892.405000	17694.540000	-9.619685	-2.369313	1.118834	-6.643934	2.802604	6.289832	-9.090611	-6.065669	-0.335720	4.288060	-3.601360	0.799009	0.387084	0.421325	-1.000000	-1.000000	-1.000000	-1.000000	-1.000000	-1.000000	-1.000000	73.586207	0.000000	-1.000000	-1.000000	1842404.000000	1773867928.583603
-4368.150000	-677.385000	11755.170000	15310.395000	-16067.790000	-19548.045000	8894.070000	17717.355000	-2.992058	-2.895018	2.885238	-10.491833	-1.809235	4.201352	-13.718116	-20.506473	-0.335720	4.288060	-3.601360	0.799009	0.387084	0.421325	-1.000000	-1.000000	-1.000000	-1.000000	-1.000000	-1.000000	-1.000000	73.586207	0.000000	-1.000000	-1.000000	1842405.000000	1773867928.587675
-4329.540000	-641.655000	11791.080000	15334.965000	-16040.160000	-19498.545000	8949.285000	17769.195000	3.121331	-2.514119	3.809842	-12.442360	-6.922096	-0.444144	-14.243415	-27.072191	-0.335720	4.288060	-3.601360	0.799009	0.387084	0.421325	-1.000000	-1.000000	-1.000000	-1.000000	-1.000000	-1.000000	-1.000000	73.586207	0.000000	-1.000000	-1.000000	1842406.000000	1773867928.587685
-4363.155000	-663.570000	11787.525000	15344.595000	-16055.505000	-19500.390000	8949.780000	17752.635000	11.305836	0.499434	7.102709	-10.283307	-9.599846	-4.045771	-8.348637	-17.659744	-0.335720	4.288060	-3.601360	0.799009	0.387084	0.421325	-1.000000	-1.000000	-1.000000	-1.000000	-1.000000	-1.000000	-1.000000	73.586207	0.000000	-1.000000	-1.000000	1842407.000000	1773867928.592801
-4362.615000	-633.015000	11824.920000	15392.565000	-16014.420000	-19486.935000	8951.220000	17726.175000	19.082948	4.385835	11.359799	-3.778266	-8.762761	-5.222981	2.158420	3.673635	-0.335720	4.288060	-3.601360	0.799009	0.387084	0.421325	-1.000000	-1.000000	-1.000000	-1.000000	-1.000000	-1.000000	-1.000000	73.586207	0.000000	-1.000000	-1.000000	1842408.000000	1773867928.592812
-4311.720000	-578.115000	11865.780000	15420.285000	-15985.890000	-19464.165000	8961.660000	17734.365000	22.238552	7.664400	12.427556	5.193398	-4.129351	-4.014392	11.405138	23.567142	-0.335720	4.288060	-3.601360	0.799009	0.387084	0.421325	-1.000000	-1.000000	-1.000000	-1.000000	-1.000000	-1.000000	-1.000000	73.586207	0.000000	-1.000000	-1.000000	1842409.000000	1773867928.595618
-4347.945000	-565.605000	11866.095000	15402.330000	-15998.040000	-19468.350000	8952.930000	17755.875000	19.863605	11.104641	8.934657	13.086611	3.646057	-0.364265	14.643137	31.615831	-0.335720	4.288060	-3.601360	0.799009	0.387084	0.421325	-1.000000	-1.000000	-1.000000	-1.000000	-1.000000	-1.000000	-1.000000	73.586207	0.000000	-1.000000	-1.000000	1842410.000000	1773867928.595638
-4411.530000	-609.480000	11817.360000	15349.275000	-16041.195000	-19501.020000	8941.095000	17772.975000	10.506986	12.388468	1.234632	13.993720	9.279486	2.896287	10.571806	26.215862	-5.966660	3.372460	-2.472120	0.795408	0.395080	0.422667	-1.000000	-1.000000	-1.000000	-1.000000	-1.000000	-1.000000	-1.000000	73.586207	0.000000	-1.000000	-1.000000	1842411.000000	1773867928.599537
-4379.580000	-647.460000	11788.830000	15370.425000	-16022.205000	-19490.130000	8938.575000	17730.360000	-6.033388	6.229235	-9.779658	5.242149	7.205520	1.914200	1.635632	11.986359	-5.966660	3.372460	-2.472120	0.795408	0.395080	0.422667	-1.000000	-1.000000	-1.000000	-1.000000	-1.000000	-1.000000	-1.000000	73.586207	0.000000	-1.000000	-1.000000	1842412.000000	1773867928.599557
-4337.055000	-654.255000	11779.110000	15350.895000	-16045.020000	-19502.055000	8925.030000	17731.620000	-20.693935	-6.749726	-19.197413	-6.106464	0.166832	-1.594872	-6.957108	-4.982158	-5.966660	3.372460	-2.472120	0.795408	0.395080	0.422667	-1.000000	-1.000000	-1.000000	-1.000000	-1.000000	-1.000000	-1.000000	73.586207	0.000000	-1.000000	-1.000000	1842413.000000	1773867928.603585
-4368.870000	-664.470000	11781.630000	15331.545000	-16061.805000	-19515.690000	8908.830000	17741.070000	-22.583694	-18.298961	-19.974304	-10.644305	-4.777045	-2.906952	-11.575518	-19.313449	-5.966660	3.372460	-2.472120	0.795408	0.395080	0.422667	-1.000000	-1.000000	-1.000000	-1.000000	-1.000000	-1.000000	-1.000000	73.586207	0.000000	-1.000000	-1.000000	1842414.000000	1773867928.603596
-4391.505000	-684.945000	11757.465000	15325.650000	-16068.015000	-19536.345000	8904.960000	17744.670000	-12.801953	-21.740965	-11.136400	-7.680860	-5.546886	-2.277856	-12.727735	-26.482818	-5.966660	3.372460	-2.472120	0.795408	0.395080	0.422667	-1.000000	-1.000000	-1.000000	-1.000000	-1.000000	-1.000000	-1.000000	73.586207	0.000000	-1.000000	-1.000000	1842415.000000	1773867928.609784
-4378.365000	-687.780000	11744.910000	15315.390000	-16080.750000	-19544.850000	8923.005000	17747.280000	-0.391795	-16.772851	0.600548	-3.065148	-4.419535	-3.195401	-11.327443	-23.581739	-5.966660	3.372460	-2.472120	0.795408	0.395080	0.422667	-1.000000	-1.000000	-1.000000	-1.000000	-1.000000	-1.000000	-1.000000	73.586207	0.000000	-1.000000	-1.000000	1842416.000000	1773867928.609796
-4354.605000	-675.540000	11763.900000	15319.395000	-16073.865000	-19539.945000	8932.185000	17778.510000	8.782503	-6.693340	7.795854	-1.433582	-3.478594	-5.594983	-6.120877	-10.728400	-5.966660	3.372460	-2.472120	0.795408	0.395080	0.422667	-1.000000	-1.000000	-1.000000	-1.000000	-1.000000	-1.000000	-1.000000	73.586207	0.000000	-1.000000	-1.000000	1842417.000000	1773867928.611508
-4348.665000	-666.000000	11775.330000	15326.820000	-16068.015000	-19527.390000	8929.125000	17780.760000	12.964184	4.070161	8.422856	-2.603380	-2.777752	-5.897558	2.674588	6.993635	-5.966660	3.372460	-2.472120	0.795408	0.395080	0.422667	-1.000000	-1.000000	-1.000000	-1.000000	-1.000000	-1.000000	-1.000000	73.586207	0.000000	-1.000000	-1.000000	1842418.000000	1773867928.611520
-4375.350000	-659.070000	11790.585000	15346.350000	-16044.390000	-19503.945000	8934.165000	17766.945000	12.022686	12.110857	6.180816	-2.229834	-0.201969	-1.239931	11.392832	19.913745	-5.966660	3.372460	-2.472120	0.795408	0.395080	0.422667	-1.000000	-1.000000	-1.000000	-1.000000	-1.000000	-1.000000	-1.000000	73.586207	0.000000	-1.000000	-1.000000	1842419.000000	1773867928.616045
-4394.655000	-664.335000	11789.145000	15346.485000	-16042.545000	-19500.300000	8933.760000	17756.910000	7.061740	16.743889	6.212257	3.298947	5.768231	7.732726	16.087092	20.495736	-5.966660	3.372460	-2.472120	0.795408	0.395080	0.422667	-1.000000	-1.000000	-1.000000	-1.000000	-1.000000	-1.000000	-1.000000	73.586207	0.000000	-1.000000	-1.000000	1842420.000000	1773867928.616055
-4364.370000	-638.640000	11808.900000	15362.505000	-16034.625000	-19507.410000	8929.710000	17727.795000	-0.034391	18.996681	10.384145	12.263105	12.924257	16.396044	15.162004	10.001147	-4.623780	4.288060	-1.831200	0.794493	0.395995	0.419738	-1.000000	-1.000000	-1.000000	-1.000000	-1.000000	-1.000000	-1.000000	73.586207	0.000000	-1.000000	-1.000000	1842421.000000	1773867928.619574
-4324.230000	-620.415000	11820.645000	15383.565000	-16010.145000	-19487.565000	8941.455000	17733.015000	-5.971456	19.392990	15.929877	19.588368	17.293540	19.558780	9.673011	-4.083895	-4.623780	4.288060	-1.831200	0.794493	0.395995	0.419738	-1.000000	-1.000000	-1.000000	-1.000000	-1.000000	-1.000000	-1.000000	73.586207	0.000000	-1.000000	-1.000000	1842422.000000	1773867928.619585
-4325.715000	-623.475000	11810.475000	15376.950000	-16014.150000	-19484.730000	8948.430000	17740.440000	-6.805393	16.520103	17.363450	20.975728	16.480910	15.558768	2.377693	-14.396794	-4.623780	4.288060	-1.831200	0.794493	0.395995	0.419738	-1.000000	-1.000000	-1.000000	-1.000000	-1.000000	-1.000000	-1.000000	73.586207	0.000000	-1.000000	-1.000000	1842423.000000	1773867928.623593
-4338.945000	-621.990000	11809.710000	15370.335000	-16025.265000	-19497.690000	8933.220000	17693.280000	-2.266153	8.596148	10.805993	14.026486	9.614565	6.020540	-4.443921	-17.123158	-4.623780	4.288060	-1.831200	0.794493	0.395995	0.419738	-1.000000	-1.000000	-1.000000	-1.000000	-1.000000	-1.000000	-1.000000	73.586207	0.000000	-1.000000	-1.000000	1842424.000000	1773867928.623605
-4321.845000	-614.250000	11819.610000	15376.905000	-16017.480000	-19487.565000	8939.160000	17715.015000	2.997236	-3.408341	-2.282557	-0.157910	-2.142682	-5.728986	-9.942976	-12.796222	-4.623780	4.288060	-1.831200	0.794493	0.395995	0.419738	-1.000000	-1.000000	-1.000000	-1.000000	-1.000000	-1.000000	-1.000000	73.586207	0.000000	-1.000000	-1.000000	1842425.000000	1773867928.627541
-4307.580000	-570.690000	11871.900000	15429.690000	-15968.205000	-19444.095000	8949.015000	17718.930000	4.206017	-15.311921	-15.814425	-15.310415	-13.943615	-14.891076	-13.068866	-4.210475	-4.623780	4.288060	-1.831200	0.794493	0.395995	0.419738	-1.000000	-1.000000	-1.000000	-1.000000	-1.000000	-1.000000	-1.000000	73.586207	0.000000	-1.000000	-1.000000	1842426.000000	1773867928.627551
-4337.775000	-534.915000	11917.935000	15478.020000	-15918.390000	-19391.985000	8975.340000	17685.225000	0.562271	-21.580191	-22.432701	-22.701013	-18.937904	-16.681254	-11.791896	4.814072	-4.623780	4.288060	-1.831200	0.794493	0.395995	0.419738	-1.000000	-1.000000	-1.000000	-1.000000	-1.000000	-1.000000	-1.000000	73.586207	0.000000	-1.000000	-1.000000	1842427.000000	1773867928.634913
-4399.110000	-548.055000	11917.890000	15484.725000	-15905.475000	-19371.195000	8988.300000	17649.945000	-5.657516	-19.122837	-18.380524	-18.104661	-13.994677	-10.019225	-5.281514	9.716504	-4.623780	4.288060	-1.831200	0.794493	0.395995	0.419738	-1.000000	-1.000000	-1.000000	-1.000000	-1.000000	-1.000000	-1.000000	73.586207	0.000000	-1.000000	-1.000000	1842428.000000	1773867928.634921
-4448.790000	-708.885000	11745.855000	15314.355000	-16071.615000	-19540.845000	8915.085000	17802.810000	-12.280897	-12.568726	-9.368889	-8.302200	-5.549749	-1.724324	2.884321	10.878589	-4.623780	4.288060	-1.831200	0.794493	0.395995	0.419738	-1.000000	-1.000000	-1.000000	-1.000000	-1.000000	-1.000000	-1.000000	73.586207	0.000000	-1.000000	-1.000000	1842429.000000	1773867928.635504
-4387.950000	-731.295000	11701.935000	15264.270000	-16120.980000	-19610.055000	8902.080000	17851.545000	-16.987425	-11.478905	-7.303420	-6.502864	-5.552894	-3.233444	6.062534	15.407592	-4.623780	4.288060	-1.831200	0.794493	0.395995	0.419738	-1.000000	-1.000000	-1.000000	-1.000000	-1.000000	-1.000000	-1.000000	73.586207	0.000000	-1.000000	-1.000000	1842430.000000	1773867928.635509
-4348.845000	-706.230000	11698.875000	15274.305000	-16111.485000	-19581.525000	8920.350000	17805.780000	-14.901460	-16.684424	-14.859067	-15.474442	-15.910268	-15.900296	2.152487	23.738010	-2.762060	4.562740	-1.602300	0.797605	0.391723	0.418456	-1.000000	-1.000000	-1.000000	-1.000000	-1.000000	-1.000000	-1.000000	73.586207	0.000000	-1.000000	-1.000000	1842431.000000	1773867928.639440
-4323.375000	-647.055000	11761.245000	15330.510000	-16073.145000	-19539.495000	8931.510000	17790.345000	-2.362421	-16.541649	-19.667985	-21.780377	-23.357651	-25.274663	-3.421201	24.367961	-2.762060	4.562740	-1.602300	0.797605	0.391723	0.418456	-1.000000	-1.000000	-1.000000	-1.000000	-1.000000	-1.000000	-1.000000	73.586207	0.000000	-1.000000	-1.000000	1842432.000000	1773867928.639446
-4276.485000	-598.365000	11847.960000	15387.660000	-16021.305000	-19500.975000	8941.860000	17807.355000	16.915653	-1.361441	-8.092915	-11.279719	-14.169538	-16.629012	-4.281000	10.381629	-2.762060	4.562740	-1.602300	0.797605	0.391723	0.418456	-1.000000	-1.000000	-1.000000	-1.000000	-1.000000	-1.000000	-1.000000	73.586207	0.000000	-1.000000	-1.000000	1842433.000000	1773867928.643588
-4284.090000	-603.225000	11834.010000	15364.485000	-16025.895000	-19488.465000	8930.835000	17775.540000	32.419630	23.695790	18.482059	14.241519	10.560236	8.728217	0.355501	-11.914812	-2.762060	4.562740	-1.602300	0.797605	0.391723	0.418456	-1.000000	-1.000000	-1.000000	-1.000000	-1.000000	-1.000000	-1.000000	73.586207	0.000000	-1.000000	-1.000000	1842434.000000	1773867928.643596
-4345.155000	-642.330000	11794.905000	15338.835000	-16058.115000	-19514.970000	8925.255000	17736.075000	32.955777	41.185795	41.453132	36.818761	34.253341	33.874960	5.818746	-32.026685	-2.762060	4.562740	-1.602300	0.797605	0.391723	0.418456	-1.000000	-1.000000	-1.000000	-1.000000	-1.000000	-1.000000	-1.000000	73.586207	0.000000	-1.000000	-1.000000	1842435.000000	1773867928.650537
-4386.690000	-683.865000	11770.065000	15343.380000	-16053.165000	-19514.790000	8914.185000	17728.830000	15.494628	36.508780	41.638077	39.237371	39.441481	40.798572	6.998908	-41.449113	-2.762060	4.562740	-1.602300	0.797605	0.391723	0.418456	-1.000000	-1.000000	-1.000000	-1.000000	-1.000000	-1.000000	-1.000000	73.586207	0.000000	-1.000000	-1.000000	1842436.000000	1773867928.650548
-4378.005000	-708.705000	11734.875000	15322.095000	-16062.480000	-19527.255000	8905.005000	17743.320000	-9.647710	12.264008	18.703679	21.772883	24.480755	26.403943	3.187673	-35.615531	-2.762060	4.562740	-1.602300	0.797605	0.391723	0.418456	-1.000000	-1.000000	-1.000000	-1.000000	-1.000000	-1.000000	-1.000000	73.586207	0.000000	-1.000000	-1.000000	1842437.000000	1773867928.651713
-4318.020000	-670.680000	11757.960000	15319.305000	-16053.120000	-19517.355000	8938.755000	17783.460000	-26.040368	-12.494276	-8.311813	0.493628	4.366864	5.111109	-0.702211	-17.971814	-2.762060	4.562740	-1.602300	0.797605	0.391723	0.418456	-1.000000	-1.000000	-1.000000	-1.000000	-1.000000	-1.000000	-1.000000	73.586207	0.000000	-1.000000	-1.000000	1842438.000000	1773867928.651719
-4339.485000	-673.110000	11771.145000	15313.230000	-16069.140000	-19525.815000	8945.055000	17778.330000	-25.996808	-20.364729	-19.748456	-9.844622	-6.072206	-6.852394	0.606483	2.373496	-2.762060	4.562740	-1.602300	0.797605	0.391723	0.418456	-1.000000	-1.000000	-1.000000	-1.000000	-1.000000	-1.000000	-1.000000	73.586207	0.000000	-1.000000	-1.000000	1842439.000000	1773867928.655672
-4383.495000	-667.575000	11784.555000	15347.610000	-16058.565000	-19530.675000	8937.900000	17754.255000	-16.307980	-11.962272	-12.890667	-8.284881	-6.190094	-7.785823	5.438599	18.261331	-2.762060	4.562740	-1.602300	0.797605	0.391723	0.418456	-1.000000	-1.000000	-1.000000	-1.000000	-1.000000	-1.000000	-1.000000	73.586207	0.000000	-1.000000	-1.000000	1842440.000000	1773867928.655681
-4405.230000	-650.970000	11789.640000	15339.645000	-16069.905000	-19538.190000	8941.320000	17757.585000	-8.314418	-0.739013	-0.548953	-3.710007	-4.866514	-7.066187	7.294773	26.543455	-0.747740	5.569900	-2.105880	0.799314	0.391112	0.418212	-1.000000	-1.000000	-1.000000	-1.000000	-1.000000	-1.000000	-1.000000	73.586207	0.000000	-1.000000	-1.000000	1842441.000000	1773867928.660214
-4343.625000	-642.375000	11794.950000	15344.910000	-16052.490000	-19507.770000	8932.275000	17753.805000	-5.504889	2.961948	3.593525	-4.083582	-8.282289	-10.706564	3.018050	26.465958	-0.747740	5.569900	-2.105880	0.799314	0.391112	0.418212	-1.000000	-1.000000	-1.000000	-1.000000	-1.000000	-1.000000	-1.000000	73.586207	0.000000	-1.000000	-1.000000	1842442.000000	1773867928.660225
-4340.880000	-634.140000	11808.630000	15368.445000	-16021.035000	-19488.240000	8927.550000	17728.560000	-2.258454	-1.031004	-2.919622	-9.386165	-14.188879	-15.685472	-4.871067	19.381786	-0.747740	5.569900	-2.105880	0.799314	0.391112	0.418212	-1.000000	-1.000000	-1.000000	-1.000000	-1.000000	-1.000000	-1.000000	73.586207	0.000000	-1.000000	-1.000000	1842443.000000	1773867928.663530
-4392.900000	-653.490000	11797.740000	15359.670000	-16037.550000	-19508.895000	8918.865000	17716.995000	6.458555	-6.446259	-11.790009	-13.348432	-15.939205	-16.120536	-11.527313	8.852954	-0.747740	5.569900	-2.105880	0.799314	0.391112	0.418212	-1.000000	-1.000000	-1.000000	-1.000000	-1.000000	-1.000000	-1.000000	73.586207	0.000000	-1.000000	-1.000000	1842444.000000	1773867928.663539
-4360.005000	-662.220000	11764.395000	15355.485000	-16036.020000	-19510.470000	8910.180000	17753.760000	18.139475	-7.592170	-14.590457	-11.720049	-11.028672	-10.686619	-13.394436	-0.403278	-0.747740	5.569900	-2.105880	0.799314	0.391112	0.418212	-1.000000	-1.000000	-1.000000	-1.000000	-1.000000	-1.000000	-1.000000	73.586207	0.000000	-1.000000	-1.000000	1842445.000000	1773867928.667656
-4339.125000	-682.515000	11705.760000	15314.805000	-16061.715000	-19537.515000	8914.545000	17773.065000	26.277290	-3.165473	-9.893995	-5.215652	-2.263892	-1.985377	-9.593850	-5.618238	-0.747740	5.569900	-2.105880	0.799314	0.391112	0.418212	-1.000000	-1.000000	-1.000000	-1.000000	-1.000000	-1.000000	-1.000000	73.586207	0.000000	-1.000000	-1.000000	1842446.000000	1773867928.667666
-4351.770000	-679.680000	11692.035000	15285.600000	-16056.315000	-19521.405000	8936.055000	17751.870000	24.815011	3.500214	-2.099765	2.624586	6.506003	7.123716	-1.796246	-8.389113	-0.747740	5.569900	-2.105880	0.799314	0.391112	0.418212	-1.000000	-1.000000	-1.000000	-1.000000	-1.000000	-1.000000	-1.000000	73.586207	0.000000	-1.000000	-1.000000	1842447.000000	1773867928.671688
-4375.035000	-675.405000	11731.410000	15271.245000	-16067.880000	-19517.445000	8928.405000	17738.055000	11.662237	7.385589	4.148047	7.107206	11.911627	13.926073	6.337695	-11.180709	-0.747740	5.569900	-2.105880	0.799314	0.391112	0.418212	-1.000000	-1.000000	-1.000000	-1.000000	-1.000000	-1.000000	-1.000000	73.586207	0.000000	-1.000000	-1.000000	1842448.000000	1773867928.671697
-4357.890000	-648.225000	11804.670000	15321.960000	-16072.110000	-19526.670000	8927.685000	17761.635000	-6.972549	6.410153	8.772688	6.180033	11.606094	15.700330	10.893790	-12.356613	-0.747740	5.569900	-2.105880	0.799314	0.391112	0.418212	-1.000000	-1.000000	-1.000000	-1.000000	-1.000000	-1.000000	-1.000000	73.586207	0.000000	-1.000000	-1.000000	1842449.000000	1773867928.675579
-4335.030000	-620.550000	11859.435000	15392.205000	-16048.440000	-19519.920000	8928.630000	17753.625000	-20.391987	2.455671	14.038979	3.768143	6.055936	11.071300	10.141858	-8.811899	-0.747740	5.569900	-2.105880	0.799314	0.391112	0.418212	-1.000000	-1.000000	-1.000000	-1.000000	-1.000000	-1.000000	-1.000000	73.586207	0.000000	-1.000000	-1.000000	1842450.000000	1773867928.675591
-4315.410000	-599.445000	11881.800000	15436.305000	-15996.330000	-19486.935000	8927.505000	17728.965000	-22.916175	-1.119410	19.025845	5.672140	-0.597597	1.910380	5.510773	-1.649049	-0.763000	3.860780	-1.220800	0.797666	0.392455	0.420775	-1.000000	-1.000000	-1.000000	-1.000000	-1.000000	-1.000000	-1.000000	73.586207	0.000000	-1.000000	-1.000000	1842451.000000	1773867928.680242
-4336.650000	-621.855000	11850.525000	15409.710000	-16011.360000	-19487.475000	8931.330000	17711.055000	-15.990840	-2.354108	18.935517	11.242929	-3.856135	-6.809028	0.209844	4.857458	-0.763000	3.860780	-1.220800	0.797666	0.392455	0.420775	-1.000000	-1.000000	-1.000000	-1.000000	-1.000000	-1.000000	-1.000000	73.586207	0.000000	-1.000000	-1.000000	1842452.000000	1773867928.680254
-4373.865000	-641.160000	11828.970000	15391.935000	-16018.740000	-19477.035000	8931.510000	17695.665000	-4.546130	-1.948675	9.868584	12.979596	-3.367573	-10.407831	-3.029842	7.528553	-0.763000	3.860780	-1.220800	0.797666	0.392455	0.420775	-1.000000	-1.000000	-1.000000	-1.000000	-1.000000	-1.000000	-1.000000	73.586207	0.000000	-1.000000	-1.000000	1842453.000000	1773867928.683602
-4335.075000	-581.490000	11883.780000	15437.655000	-15974.955000	-19479.195000	8952.570000	17731.530000	5.332358	-0.442080	-4.371996	6.875557	-1.023603	-7.533990	-3.028704	5.574530	-0.763000	3.860780	-1.220800	0.797666	0.392455	0.420775	-1.000000	-1.000000	-1.000000	-1.000000	-1.000000	-1.000000	-1.000000	73.586207	0.000000	-1.000000	-1.000000	1842454.000000	1773867928.683608
-4324.140000	-573.795000	11834.820000	15390.180000	-15996.510000	-19475.595000	8966.385000	17787.510000	9.572419	3.442599	-14.039093	-2.284033	2.582658	-0.369929	-0.411097	1.523095	-0.763000	3.860780	-1.220800	0.797666	0.392455	0.420775	-1.000000	-1.000000	-1.000000	-1.000000	-1.000000	-1.000000	-1.000000	73.586207	0.000000	-1.000000	-1.000000	1842455.000000	1773867928.687675
-4363.740000	-635.805000	11755.665000	15295.635000	-16066.620000	-19507.095000	8941.185000	17793.630000	7.985086	7.429221	-16.449954	-10.061374	4.780373	5.989713	1.903989	0.363021	-0.763000	3.860780	-1.220800	0.797666	0.392455	0.420775	-1.000000	-1.000000	-1.000000	-1.000000	-1.000000	-1.000000	-1.000000	73.586207	0.000000	-1.000000	-1.000000	1842456.000000	1773867928.687685
-4392.405000	-684.765000	11761.425000	15294.645000	-16102.530000	-19533.510000	8930.160000	17753.535000	2.440845	4.349058	-18.399458	-17.667059	0.496588	6.017771	0.605431	3.296527	-0.763000	3.860780	-1.220800	0.797666	0.392455	0.420775	-1.000000	-1.000000	-1.000000	-1.000000	-1.000000	-1.000000	-1.000000	73.586207	0.000000	-1.000000	-1.000000	1842457.000000	1773867928.691816
-4396.725000	-705.915000	11769.390000	15337.485000	-16063.110000	-19533.915000	8927.595000	17727.255000	-4.473152	-8.770612	-23.305543	-24.337630	-9.407163	-0.971374	-4.151291	4.851860	-0.763000	3.860780	-1.220800	0.797666	0.392455	0.420775	-1.000000	-1.000000	-1.000000	-1.000000	-1.000000	-1.000000	-1.000000	73.586207	0.000000	-1.000000	-1.000000	1842458.000000	1773867928.691829
-4371.030000	-670.140000	11790.990000	15350.625000	-16048.170000	-19515.150000	8941.005000	17758.305000	-9.612388	-24.329533	-25.924835	-24.785070	-16.720885	-9.548553	-8.442081	0.945011	-0.763000	3.860780	-1.220800	0.797666	0.392455	0.420775	-1.000000	-1.000000	-1.000000	-1.000000	-1.000000	-1.000000	-1.000000	73.586207	0.000000	-1.000000	-1.000000	1842459.000000	1773867928.695672
-4340.385000	-643.230000	11812.230000	15364.305000	-16029.720000	-19497.645000	8945.955000	17789.130000	-9.392481	-29.182270	-18.860379	-15.733750	-15.124646	-13.227250	-8.241088	-4.018308	-0.763000	3.860780	-1.220800	0.797666	0.392455	0.420775	-1.000000	-1.000000	-1.000000	-1.000000	-1.000000	-1.000000	-1.000000	73.586207	0.000000	-1.000000	-1.000000	1842460.000000	1773867928.695682
-4348.035000	-633.060000	11819.025000	15366.240000	-16024.590000	-19488.645000	8937.720000	17759.430000	-1.476321	-15.952090	0.147897	1.007917	-4.990799	-9.109139	-3.116965	-3.772483	-3.387720	3.402980	-0.976640	0.796018	0.397094	0.421874	-1.000000	-1.000000	-1.000000	-1.000000	-1.000000	-1.000000	-1.000000	73.586207	0.000000	-1.000000	-1.000000	1842461.000000	1773867928.699707
-4333.770000	-615.780000	11828.835000	15370.470000	-16030.440000	-19505.115000	8927.910000	17755.920000	11.253309	9.817394	24.628875	19.451121	8.515937	0.596705	3.346872	0.241279	-3.387720	3.402980	-0.976640	0.796018	0.397094	0.421874	-1.000000	-1.000000	-1.000000	-1.000000	-1.000000	-1.000000	-1.000000	73.586207	0.000000	-1.000000	-1.000000	1842462.000000	1773867928.699717
-4329.630000	-625.545000	11815.920000	15365.880000	-16033.680000	-19528.065000	8941.950000	17770.320000	20.293662	32.816349	42.253015	31.505055	18.077166	9.874070	6.922938	1.420585	-3.387720	3.402980	-0.976640	0.796018	0.397094	0.421874	-1.000000	-1.000000	-1.000000	-1.000000	-1.000000	-1.000000	-1.000000	73.586207	0.000000	-1.000000	-1.000000	1842463.000000	1773867928.705181
-4374.270000	-659.880000	11781.045000	15349.905000	-16041.330000	-19499.715000	8936.730000	17741.025000	18.080933	39.032200	43.681761	32.512328	19.320506	13.829707	6.218849	-3.575193	-3.387720	3.402980	-0.976640	0.796018	0.397094	0.421874	-1.000000	-1.000000	-1.000000	-1.000000	-1.000000	-1.000000	-1.000000	73.586207	0.000000	-1.000000	-1.000000	1842464.000000	1773867928.705191
-4380.345000	-643.365000	11796.885000	15369.255000	-16018.110000	-19473.165000	8943.885000	17720.910000	5.236382	26.699983	29.214282	24.743344	14.674551	13.054342	3.250618	-11.657035	-3.387720	3.402980	-0.976640	0.796018	0.397094	0.421874	-1.000000	-1.000000	-1.000000	-1.000000	-1.000000	-1.000000	-1.000000	73.586207	0.000000	-1.000000	-1.000000	1842465.000000	1773867928.707634
-4353.300000	-613.530000	11833.605000	15390.405000	-15992.820000	-19452.645000	8970.300000	17702.145000	-9.229893	6.753626	6.932550	12.845199	9.473323	11.301365	1.477661	-15.958510	-3.387720	3.402980	-0.976640	0.796018	0.397094	0.421874	-1.000000	-1.000000	-1.000000	-1.000000	-1.000000	-1.000000	-1.000000	73.586207	0.000000	-1.000000	-1.000000	1842466.000000	1773867928.707644
-4354.515000	-613.980000	11839.230000	15377.355000	-16010.820000	-19469.925000	8951.040000	17693.235000	-16.214712	-8.717237	-13.888369	-1.557365	4.663310	9.196246	2.219597	-11.864014	-3.387720	3.402980	-0.976640	0.796018	0.397094	0.421874	-1.000000	-1.000000	-1.000000	-1.000000	-1.000000	-1.000000	-1.000000	73.586207	0.000000	-1.000000	-1.000000	1842467.000000	1773867928.711608
-4413.915000	-676.440000	11763.045000	15329.655000	-16055.865000	-19513.440000	8928.405000	17719.065000	-15.307209	-17.141790	-28.380156	-18.229222	-3.772586	2.805761	2.655938	-0.967854	-3.387720	3.402980	-0.976640	0.796018	0.397094	0.421874	-1.000000	-1.000000	-1.000000	-1.000000	-1.000000	-1.000000	-1.000000	73.586207	0.000000	-1.000000	-1.000000	1842468.000000	1773867928.711614
-4416.615000	-709.560000	11711.160000	15306.795000	-16074.315000	-19532.295000	8927.370000	17808.120000	-12.351575	-22.990497	-36.620439	-33.581330	-17.181747	-10.140359	-0.383385	12.488465	-3.387720	3.402980	-0.976640	0.796018	0.397094	0.421874	-1.000000	-1.000000	-1.000000	-1.000000	-1.000000	-1.000000	-1.000000	73.586207	0.000000	-1.000000	-1.000000	1842469.000000	1773867928.715598
-4360.905000	-676.620000	11766.780000	15325.875000	-16066.710000	-19526.490000	8921.070000	17790.840000	-8.846682	-26.889271	-37.317188	-39.894701	-28.994424	-24.153305	-5.564726	25.080041	-3.387720	3.402980	-0.976640	0.796018	0.397094	0.421874	-1.000000	-1.000000	-1.000000	-1.000000	-1.000000	-1.000000	-1.000000	73.586207	0.000000	-1.000000	-1.000000	1842470.000000	1773867928.715604
-4328.010000	-631.620000	11825.235000	15376.320000	-16024.005000	-19500.840000	8927.640000	17783.955000	-1.092810	-22.986703	-25.112111	-30.331523	-29.344347	-28.680009	-8.700705	30.806176	-3.448760	4.272800	-1.480220	0.795957	0.394225	0.420409	-1.000000	-1.000000	-1.000000	-1.000000	-1.000000	-1.000000	-1.000000	73.586207	0.000000	-1.000000	-1.000000	1842471.000000	1773867928.719604
-4280.040000	-586.845000	11857.635000	15406.920000	-15996.330000	-19461.330000	8939.745000	17754.255000	11.383927	-7.198673	1.332074	-5.335026	-14.002442	-17.414554	-7.379035	22.642900	-3.448760	4.272800	-1.480220	0.795957	0.394225	0.420409	-1.000000	-1.000000	-1.000000	-1.000000	-1.000000	-1.000000	-1.000000	73.586207	0.000000	-1.000000	-1.000000	1842472.000000	1773867928.719614
-4286.115000	-607.905000	11820.195000	15365.880000	-16030.170000	-19485.405000	8936.055000	17723.385000	23.778092	15.861238	31.918669	24.627644	10.454443	4.406200	-2.277422	1.603412	-3.448760	4.272800	-1.480220	0.795957	0.394225	0.420409	-1.000000	-1.000000	-1.000000	-1.000000	-1.000000	-1.000000	-1.000000	73.586207	0.000000	-1.000000	-1.000000	1842473.000000	1773867928.723541
-4339.305000	-647.190000	11783.610000	15334.380000	-16051.590000	-19519.020000	8939.160000	17747.235000	28.325244	33.173725	48.485987	42.585777	29.327238	22.273405	3.766699	-20.917966	-3.448760	4.272800	-1.480220	0.795957	0.394225	0.420409	-1.000000	-1.000000	-1.000000	-1.000000	-1.000000	-1.000000	-1.000000	73.586207	0.000000	-1.000000	-1.000000	1842474.000000	1773867928.723550
-4340.970000	-639.900000	11792.025000	15342.975000	-16045.020000	-19517.805000	8945.730000	17811.405000	18.346362	32.555583	38.670536	36.989052	30.934427	24.710783	7.449903	-30.572283	-3.448760	4.272800	-1.480220	0.795957	0.394225	0.420409	-1.000000	-1.000000	-1.000000	-1.000000	-1.000000	-1.000000	-1.000000	73.586207	0.000000	-1.000000	-1.000000	1842475.000000	1773867928.733024
-4331.835000	-592.605000	11842.785000	15390.045000	-16005.465000	-19470.420000	8958.330000	17752.455000	-3.219289	15.241869	9.311930	13.376747	17.092374	13.801499	7.756798	-22.132315	-3.448760	4.272800	-1.480220	0.795957	0.394225	0.420409	-1.000000	-1.000000	-1.000000	-1.000000	-1.000000	-1.000000	-1.000000	73.586207	0.000000	-1.000000	-1.000000	1842476.000000	1773867928.733034
-4358.205000	-604.080000	11840.130000	15393.375000	-15996.645000	-19455.705000	8950.230000	17705.430000	-23.427749	-4.728203	-17.961438	-10.044855	0.502371	1.698178	6.196731	-6.404752	-3.448760	4.272800	-1.480220	0.795957	0.394225	0.420409	-1.000000	-1.000000	-1.000000	-1.000000	-1.000000	-1.000000	-1.000000	73.586207	0.000000	-1.000000	-1.000000	1842477.000000	1773867928.733046
-4400.145000	-650.745000	11788.560000	15343.470000	-16050.915000	-19517.940000	8925.660000	17723.340000	-31.908790	-15.888121	-27.685076	-20.305595	-9.034650	-3.605715	3.574457	1.451980	-3.448760	4.272800	-1.480220	0.795957	0.394225	0.420409	-1.000000	-1.000000	-1.000000	-1.000000	-1.000000	-1.000000	-1.000000	73.586207	0.000000	-1.000000	-1.000000	1842478.000000	1773867928.733051
-4433.580000	-699.570000	11753.235000	15323.130000	-16072.740000	-19542.465000	8931.600000	17749.890000	-29.247759	-19.272846	-23.363868	-19.333096	-12.497908	-5.152737	-0.528733	-0.332693	-3.448760	4.272800	-1.480220	0.795957	0.394225	0.420409	-1.000000	-1.000000	-1.000000	-1.000000	-1.000000	-1.000000	-1.000000	73.586207	0.000000	-1.000000	-1.000000	1842479.000000	1773867928.735676
-4380.255000	-642.015000	11825.775000	15403.365000	-15990.840000	-19468.620000	8949.015000	17772.930000	-20.788319	-20.552052	-16.249606	-14.584696	-13.871970	-7.526715	-5.036394	-1.929426	-3.448760	4.272800	-1.480220	0.795957	0.394225	0.420409	-1.000000	-1.000000	-1.000000	-1.000000	-1.000000	-1.000000	-1.000000	73.586207	0.000000	-1.000000	-1.000000	1842480.000000	1773867928.735683
-4333.410000	-602.415000	11862.720000	15417.360000	-15981.030000	-19461.285000	8952.885000	17768.160000	-7.656948	-18.385951	-8.722453	-7.485067	-11.502402	-8.627061	-7.400716	3.609627	-1.938020	5.432560	-1.678600	0.798033	0.391601	0.418700	-1.000000	-1.000000	-1.000000	-1.000000	-1.000000	-1.000000	-1.000000	73.586207	0.000000	-1.000000	-1.000000	1842481.000000	1773867928.739972
-4363.425000	-645.750000	11799.270000	15328.080000	-16063.290000	-19524.735000	8943.570000	17759.520000	10.433224	-8.238463	2.084967	2.157423	-4.007005	-5.924830	-6.390941	13.863387	-1.938020	5.432560	-1.678600	0.798033	0.391601	0.418700	-1.000000	-1.000000	-1.000000	-1.000000	-1.000000	-1.000000	-1.000000	73.586207	0.000000	-1.000000	-1.000000	1842482.000000	1773867928.739983
-4361.400000	-696.195000	11740.410000	15272.595000	-16114.455000	-19563.570000	8932.545000	17749.980000	27.959301	6.387038	11.821141	8.171494	2.511370	-2.464946	-3.512277	20.287793	-1.938020	5.432560	-1.678600	0.798033	0.391601	0.418700	-1.000000	-1.000000	-1.000000	-1.000000	-1.000000	-1.000000	-1.000000	73.586207	0.000000	-1.000000	-1.000000	1842483.000000	1773867928.743548
-4329.720000	-665.100000	11758.275000	15332.850000	-16057.935000	-19522.980000	8944.560000	17756.865000	36.460022	15.993598	12.489954	5.252394	2.270352	-1.641997	-1.085878	16.224944	-1.938020	5.432560	-1.678600	0.798033	0.391601	0.418700	-1.000000	-1.000000	-1.000000	-1.000000	-1.000000	-1.000000	-1.000000	73.586207	0.000000	-1.000000	-1.000000	1842484.000000	1773867928.743565
-4317.705000	-643.815000	11790.495000	15367.140000	-16022.970000	-19503.495000	8948.520000	17785.080000	32.455568	16.465688	4.686407	-1.592253	-1.086050	-1.865931	0.497127	4.477437	-1.938020	5.432560	-1.678600	0.798033	0.391601	0.418700	-1.000000	-1.000000	-1.000000	-1.000000	-1.000000	-1.000000	-1.000000	73.586207	0.000000	-1.000000	-1.000000	1842485.000000	1773867928.754827
-4322.340000	-652.095000	11775.105000	15335.145000	-16048.305000	-19534.995000	8916.750000	17782.425000	19.142373	11.836421	-2.454878	-3.549303	-0.481799	0.022310	1.911746	-5.814845	-1.938020	5.432560	-1.678600	0.798033	0.391601	0.418700	-1.000000	-1.000000	-1.000000	-1.000000	-1.000000	-1.000000	-1.000000	73.586207	0.000000	-1.000000	-1.000000	1842486.000000	1773867928.754841
-4375.575000	-680.490000	11734.695000	15307.695000	-16077.060000	-19555.515000	8914.995000	17775.360000	1.927536	7.317557	-2.511327	1.101057	4.926815	4.181212	2.864876	-10.107893	-1.938020	5.432560	-1.678600	0.798033	0.391601	0.418700	-1.000000	-1.000000	-1.000000	-1.000000	-1.000000	-1.000000	-1.000000	73.586207	0.000000	-1.000000	-1.000000	1842487.000000	1773867928.754855
-4418.190000	-665.955000	11754.585000	15344.055000	-16032.915000	-19517.580000	8925.300000	17764.425000	-15.809791	4.038049	2.151419	7.214371	10.322894	8.402343	2.836939	-10.975924	-1.938020	5.432560	-1.678600	0.798033	0.391601	0.418700	-1.000000	-1.000000	-1.000000	-1.000000	-1.000000	-1.000000	-1.000000	73.586207	0.000000	-1.000000	-1.000000	1842488.000000	1773867928.754860
-4338.630000	-644.760000	11789.010000	15350.985000	-16037.955000	-19505.430000	8934.705000	17771.355000	-30.696246	0.176359	5.496411	9.189013	10.738021	9.869920	2.042996	-11.357973	-1.938020	5.432560	-1.678600	0.798033	0.391601	0.418700	-1.000000	-1.000000	-1.000000	-1.000000	-1.000000	-1.000000	-1.000000	73.586207	0.000000	-1.000000	-1.000000	1842489.000000	1773867928.755556
-4315.815000	-644.805000	11774.430000	15344.055000	-16063.065000	-19521.630000	8939.925000	17759.475000	-35.586828	-4.891259	4.960295	5.857989	5.005954	7.046222	1.234757	-10.400005	-1.938020	5.432560	-1.678600	0.798033	0.391601	0.418700	-1.000000	-1.000000	-1.000000	-1.000000	-1.000000	-1.000000	-1.000000	73.586207	0.000000	-1.000000	-1.000000	1842490.000000	1773867928.755564
-4331.025000	-628.605000	11775.285000	15362.010000	-16059.105000	-19536.930000	8940.735000	17750.160000	-25.115897	-7.948639	2.997174	1.991673	-2.255118	2.073410	1.210168	-6.352690	-2.533160	5.234180	-2.319520	0.798094	0.394408	0.418578	-1.000000	-1.000000	-1.000000	-1.000000	-1.000000	-1.000000	-1.000000	73.586207	0.000000	-1.000000	-1.000000	1842491.000000	1773867928.759565
-4342.365000	-646.560000	11786.895000	15343.245000	-16065.585000	-19525.860000	8932.185000	17760.105000	-4.410963	-5.617201	3.118999	2.190569	-5.083150	-1.346937	1.733401	-0.168202	-2.533160	5.234180	-2.319520	0.798094	0.394408	0.418578	-1.000000	-1.000000	-1.000000	-1.000000	-1.000000	-1.000000	-1.000000	73.586207	0.000000	-1.000000	-1.000000	1842492.000000	1773867928.759578
-4330.530000	-630.585000	11840.895000	15361.785000	-16037.235000	-19479.015000	8922.735000	17748.990000	14.004762	-0.434408	5.258484	3.386834	-3.638390	-2.251243	1.251482	5.466996	-2.533160	5.234180	-2.319520	0.798094	0.394408	0.418578	-1.000000	-1.000000	-1.000000	-1.000000	-1.000000	-1.000000	-1.000000	73.586207	0.000000	-1.000000	-1.000000	1842493.000000	1773867928.763566
-4320.360000	-635.805000	11831.580000	15362.415000	-16039.125000	-19514.430000	8912.970000	17755.470000	21.621237	2.016390	6.257751	0.039598	-2.255418	-2.275514	-1.098301	8.328824	-2.533160	5.234180	-2.319520	0.798094	0.394408	0.418578	-1.000000	-1.000000	-1.000000	-1.000000	-1.000000	-1.000000	-1.000000	73.586207	0.000000	-1.000000	-1.000000	1842494.000000	1773867928.763579
-4347.855000	-646.245000	11805.660000	15351.345000	-16043.490000	-19508.670000	8931.105000	17742.375000	18.818511	0.431956	3.635543	-6.473814	-2.133893	-2.646871	-3.324172	7.678197	-2.533160	5.234180	-2.319520	0.798094	0.394408	0.418578	-1.000000	-1.000000	-1.000000	-1.000000	-1.000000	-1.000000	-1.000000	73.586207	0.000000	-1.000000	-1.000000	1842495.000000	1773867928.767664
-4378.905000	-650.655000	11797.245000	15347.250000	-16050.420000	-19517.760000	8941.455000	17736.795000	10.644764	-2.240580	-2.424125	-10.565166	-1.600294	-2.965992	-2.486641	4.440975	-2.533160	5.234180	-2.319520	0.798094	0.394408	0.418578	-1.000000	-1.000000	-1.000000	-1.000000	-1.000000	-1.000000	-1.000000	73.586207	0.000000	-1.000000	-1.000000	1842496.000000	1773867928.767676
-4365.945000	-634.320000	11807.145000	15359.445000	-16035.480000	-19530.180000	8938.170000	17713.755000	1.563750	-3.682475	-9.970055	-10.395764	-1.035226	-3.815040	0.908971	0.220008	-2.533160	5.234180	-2.319520	0.798094	0.394408	0.418578	-1.000000	-1.000000	-1.000000	-1.000000	-1.000000	-1.000000	-1.000000	73.586207	0.000000	-1.000000	-1.000000	1842497.000000	1773867928.781824
-4341.240000	-626.040000	11815.200000	15364.710000	-16031.205000	-19489.140000	8941.635000	17692.425000	-6.378568	-3.901529	-16.355354	-7.716719	-1.688650	-6.081322	3.249619	-3.679278	-2.533160	5.234180	-2.319520	0.798094	0.394408	0.418578	-1.000000	-1.000000	-1.000000	-1.000000	-1.000000	-1.000000	-1.000000	73.586207	0.000000	-1.000000	-1.000000	1842498.000000	1773867928.781838
-4356.765000	-617.220000	11820.195000	15363.585000	-16020.180000	-19480.140000	8944.020000	17719.380000	-11.705116	-2.948906	-17.671944	-3.266348	-1.616601	-6.329964	2.430527	-5.459955	-2.533160	5.234180	-2.319520	0.798094	0.394408	0.418578	-1.000000	-1.000000	-1.000000	-1.000000	-1.000000	-1.000000	-1.000000	73.586207	0.000000	-1.000000	-1.000000	1842499.000000	1773867928.781853
-4373.685000	-640.080000	11788.830000	15318.180000	-16067.565000	-19529.010000	8940.375000	17778.690000	-12.390025	-0.460793	-11.489159	2.227508	0.982152	-1.397066	-0.423118	-2.284647	-2.533160	5.234180	-2.319520	0.798094	0.394408	0.418578	-1.000000	-1.000000	-1.000000	-1.000000	-1.000000	-1.000000	-1.000000	73.586207	0.000000	-1.000000	-1.000000	1842500.000000	1773867928.781858
-4362.030000	-618.345000	11811.555000	15343.380000	-16041.330000	-19504.800000	8946.045000	17750.520000	-8.067448	2.548388	-1.207816	5.843015	3.350464	4.610703	-2.915017	5.818356	-4.364360	3.891300	-1.938020	0.797544	0.394835	0.420043	-1.000000	-1.000000	-1.000000	-1.000000	-1.000000	-1.000000	-1.000000	73.586207	0.000000	-1.000000	-1.000000	1842501.000000	1773867928.781864
-4369.680000	-662.715000	11754.450000	15323.445000	-16045.020000	-19491.570000	8953.875000	17736.705000	-1.094635	3.781785	6.030212	5.419178	2.165718	6.062840	-3.188057	12.659481	-4.364360	3.891300	-1.938020	0.797544	0.394835	0.420043	-1.000000	-1.000000	-1.000000	-1.000000	-1.000000	-1.000000	-1.000000	73.586207	0.000000	-1.000000	-1.000000	1842502.000000	1773867928.781869
-4403.160000	-679.005000	11733.030000	15311.700000	-16040.790000	-19503.990000	8935.200000	17729.820000	4.781200	1.519115	6.010218	1.961757	-1.574760	3.473165	-1.130955	11.483410	-4.364360	3.891300	-1.938020	0.797544	0.394835	0.420043	-1.000000	-1.000000	-1.000000	-1.000000	-1.000000	-1.000000	-1.000000	73.586207	0.000000	-1.000000	-1.000000	1842503.000000	1773867928.786593
-4408.245000	-679.770000	11760.075000	15322.905000	-16040.610000	-19509.075000	8925.525000	17727.210000	7.316712	-2.737635	2.185753	-1.135555	-3.950321	0.726733	0.914421	2.473003	-4.364360	3.891300	-1.938020	0.797544	0.394835	0.420043	-1.000000	-1.000000	-1.000000	-1.000000	-1.000000	-1.000000	-1.000000	73.586207	0.000000	-1.000000	-1.000000	1842504.000000	1773867928.786604
-4353.030000	-651.915000	11816.910000	15373.755000	-16037.010000	-19503.405000	8939.835000	17768.745000	8.320350	-4.686585	2.399608	-0.379929	-2.838490	-0.339799	0.557116	-7.496817	-4.364360	3.891300	-1.938020	0.797544	0.394835	0.420043	-1.000000	-1.000000	-1.000000	-1.000000	-1.000000	-1.000000	-1.000000	73.586207	0.000000	-1.000000	-1.000000	1842505.000000	1773867928.787737
-4335.120000	-656.145000	11805.120000	15364.440000	-16053.705000	-19520.145000	8942.400000	17794.350000	10.154997	-2.199649	9.039559	4.294896	-0.218058	-0.663953	-1.434134	-10.570629	-4.364360	3.891300	-1.938020	0.797544	0.394835	0.420043	-1.000000	-1.000000	-1.000000	-1.000000	-1.000000	-1.000000	-1.000000	73.586207	0.000000	-1.000000	-1.000000	1842506.000000	1773867928.787747
-4353.885000	-669.690000	11775.735000	15329.025000	-16079.040000	-19549.440000	8933.175000	17789.760000	10.574703	2.195247	15.487280	8.278837	0.672390	-2.399363	-2.690329	-4.725735	-4.364360	3.891300	-1.938020	0.797544	0.394835	0.420043	-1.000000	-1.000000	-1.000000	-1.000000	-1.000000	-1.000000	-1.000000	73.586207	0.000000	-1.000000	-1.000000	1842507.000000	1773867928.791636
-4369.230000	-653.715000	11789.280000	15343.740000	-16057.845000	-19527.975000	8938.395000	17770.860000	6.006579	5.058346	14.519565	7.172395	-0.349189	-5.413071	-2.261325	3.264100	-4.364360	3.891300	-1.938020	0.797544	0.394835	0.420043	-1.000000	-1.000000	-1.000000	-1.000000	-1.000000	-1.000000	-1.000000	73.586207	0.000000	-1.000000	-1.000000	1842508.000000	1773867928.791642
-4385.925000	-645.975000	11807.280000	15372.270000	-16024.995000	-19495.440000	8954.460000	17759.745000	-2.807895	5.930314	6.647618	2.544857	0.239813	-5.268606	-0.206555	4.198978	-4.364360	3.891300	-1.938020	0.797544	0.394835	0.420043	-1.000000	-1.000000	-1.000000	-1.000000	-1.000000	-1.000000	-1.000000	73.586207	0.000000	-1.000000	-1.000000	1842509.000000	1773867928.795617
-4339.260000	-574.695000	11876.535000	15443.730000	-15954.390000	-19423.800000	8968.455000	17736.075000	-11.164427	6.694459	-1.703958	-0.256248	5.254823	1.473971	3.140553	-3.449781	-4.364360	3.891300	-1.938020	0.797544	0.394835	0.420043	-1.000000	-1.000000	-1.000000	-1.000000	-1.000000	-1.000000	-1.000000	73.586207	0.000000	-1.000000	-1.000000	1842510.000000	1773867928.795623
-4304.790000	-539.415000	11897.055000	15464.655000	-15925.725000	-19394.325000	8964.405000	17705.385000	-13.126246	9.626230	-4.153914	1.812443	13.037291	12.453698	6.442512	-12.974291	-3.906560	4.974760	-2.350040	0.797972	0.393493	0.419677	-1.000000	-1.000000	-1.000000	-1.000000	-1.000000	-1.000000	-1.000000	73.586207	0.000000	-1.000000	-1.000000	1842511.000000	1773867928.799680
-4367.925000	-622.755000	11816.955000	15387.030000	-15999.750000	-19470.105000	8936.595000	17721.855000	-6.695263	13.057962	-0.839685	5.557578	17.329927	20.269123	7.388270	-16.906759	-3.906560	4.974760	-2.350040	0.797972	0.393493	0.419677	-1.000000	-1.000000	-1.000000	-1.000000	-1.000000	-1.000000	-1.000000	73.586207	0.000000	-1.000000	-1.000000	1842512.000000	1773867928.799686
-4374.675000	-706.320000	11727.495000	15287.580000	-16100.640000	-19562.445000	8910.135000	17754.390000	2.008964	8.568855	-1.429440	1.757242	9.743027	15.482294	3.863481	-11.513299	-3.906560	4.974760	-2.350040	0.797972	0.393493	0.419677	-1.000000	-1.000000	-1.000000	-1.000000	-1.000000	-1.000000	-1.000000	73.586207	0.000000	-1.000000	-1.000000	1842513.000000	1773867928.803710
-4384.575000	-708.480000	11741.850000	15282.000000	-16109.820000	-19569.060000	8903.250000	17720.730000	4.366548	-9.012976	-13.687469	-14.738661	-11.392411	-4.442453	-3.911712	0.773813	-3.906560	4.974760	-2.350040	0.797972	0.393493	0.419677	-1.000000	-1.000000	-1.000000	-1.000000	-1.000000	-1.000000	-1.000000	73.586207	0.000000	-1.000000	-1.000000	1842514.000000	1773867928.803722
-4357.305000	-642.465000	11817.990000	15338.970000	-16054.245000	-19520.460000	8928.135000	17724.330000	-1.282134	-29.670695	-28.788986	-33.288094	-33.011252	-27.188830	-11.515867	11.990964	-3.906560	4.974760	-2.350040	0.797972	0.393493	0.419677	-1.000000	-1.000000	-1.000000	-1.000000	-1.000000	-1.000000	-1.000000	73.586207	0.000000	-1.000000	-1.000000	1842515.000000	1773867928.807716
-4329.405000	-622.530000	11796.255000	15339.195000	-16054.245000	-19523.475000	8940.510000	17776.305000	-7.574118	-35.447790	-29.221733	-35.102676	-36.826743	-34.723672	-12.718573	16.794866	-3.906560	4.974760	-2.350040	0.797972	0.393493	0.419677	-1.000000	-1.000000	-1.000000	-1.000000	-1.000000	-1.000000	-1.000000	73.586207	0.000000	-1.000000	-1.000000	1842516.000000	1773867928.807728
-4321.800000	-615.195000	11773.980000	15338.565000	-16058.655000	-19532.115000	8938.980000	17790.435000	-5.995335	-19.762983	-11.103408	-14.603475	-18.660260	-21.541083	-5.743505	16.719622	-3.906560	4.974760	-2.350040	0.797972	0.393493	0.419677	-1.000000	-1.000000	-1.000000	-1.000000	-1.000000	-1.000000	-1.000000	73.586207	0.000000	-1.000000	-1.000000	1842517.000000	1773867928.811781
-4352.355000	-666.000000	11781.090000	15336.405000	-16070.040000	-19539.315000	8945.145000	17783.145000	2.976616	5.596010	12.003703	14.416393	7.647993	0.970659	4.459916	14.432005	-3.906560	4.974760	-2.350040	0.797972	0.393493	0.419677	-1.000000	-1.000000	-1.000000	-1.000000	-1.000000	-1.000000	-1.000000	73.586207	0.000000	-1.000000	-1.000000	1842518.000000	1773867928.811792
-4370.940000	-687.420000	11779.560000	15340.005000	-16055.280000	-19524.060000	8939.745000	17770.590000	9.876144	21.701877	24.969527	32.915594	24.370666	16.909106	11.104698	9.989596	-3.906560	4.974760	-2.350040	0.797972	0.393493	0.419677	-1.000000	-1.000000	-1.000000	-1.000000	-1.000000	-1.000000	-1.000000	73.586207	0.000000	-1.000000	-1.000000	1842519.000000	1773867928.818490
-4359.465000	-683.820000	11765.430000	15318.855000	-16066.305000	-19523.880000	8942.040000	17770.995000	7.878854	19.973656	23.495214	32.415192	24.646240	19.788842	11.312861	3.082683	-3.906560	4.974760	-2.350040	0.797972	0.393493	0.419677	-1.000000	-1.000000	-1.000000	-1.000000	-1.000000	-1.000000	-1.000000	73.586207	0.000000	-1.000000	-1.000000	1842520.000000	1773867928.818503
-4339.485000	-661.095000	11771.820000	15332.085000	-16059.330000	-19519.470000	8942.085000	17779.545000	1.278165	9.329932	14.544399	19.470582	15.485013	15.417777	7.261179	-5.296836	-4.135460	4.913720	-1.587040	0.797361	0.392211	0.419738	-1.000000	-1.000000	-1.000000	-1.000000	-1.000000	-1.000000	-1.000000	73.586207	0.000000	-1.000000	-1.000000	1842521.000000	1773867928.821782
-4340.385000	-639.180000	11792.880000	15349.185000	-16037.865000	-19501.560000	8940.690000	17761.905000	-1.749650	4.366285	7.931156	7.162069	8.677189	12.938479	2.762046	-13.358230	-4.135460	4.913720	-1.587040	0.797361	0.392211	0.419738	-1.000000	-1.000000	-1.000000	-1.000000	-1.000000	-1.000000	-1.000000	73.586207	0.000000	-1.000000	-1.000000	1842522.000000	1773867928.821794
-4365.765000	-642.330000	11799.180000	15349.275000	-16038.045000	-19503.990000	8934.435000	17739.765000	-0.453443	8.497279	6.276885	1.912453	8.547501	14.151578	-0.619337	-18.856713	-4.135460	4.913720	-1.587040	0.797361	0.392211	0.419738	-1.000000	-1.000000	-1.000000	-1.000000	-1.000000	-1.000000	-1.000000	73.586207	0.000000	-1.000000	-1.000000	1842523.000000	1773867928.824188
