Channel1	Channel2	Channel3	Channel4	Channel5	Channel6	Channel7	Channel8	FilteredChannel1	FilteredChannel2	FilteredChannel3	FilteredChannel4	FilteredChannel5	FilteredChannel6	FilteredChannel7	FilteredChannel8	GyroX	GyroY	GyroZ	AccX	AccY	AccZ	PPG1	PPG2	rawPPG1	rawPPG2	rawPPG3	Hr	Hrv	Battery	Trigger	PhysicalTrigger	AutoTrigger	NumMeasurements	Timestamp
12134.835000	19510.830000	26012.745000	21499.335000	-7400.475000	-4140.045000	3094.020000	13335.255000	-0.581287	0.527073	0.995882	0.893362	-1.102624	1.725639	2.356347	-3.312525	-1.266580	3.525060	-2.609460	0.915586	-0.061645	0.366881	-1.000000	-1.000000	-1.000000	-1.000000	-1.000000	-1.000000	-1.000000	81.379310	0.000000	-1.000000	-1.000000	1126974.000000	1770063750.085224
12138.075000	19517.130000	26023.095000	21514.995000	-7384.005000	-4136.985000	3099.015000	13345.965000	1.920026	4.987515	5.644015	6.056984	5.577952	6.095964	3.040539	-3.304793	-1.266580	3.525060	-2.609460	0.915586	-0.061645	0.366881	-1.000000	-1.000000	-1.000000	-1.000000	-1.000000	-1.000000	-1.000000	81.379310	0.000000	-1.000000	-1.000000	1126975.000000	1770063750.087288
12133.080000	19518.975000	26030.205000	21522.510000	-7395.435000	-4143.060000	3097.755000	13327.470000	2.779484	6.730112	7.443998	8.477777	9.957814	7.643620	2.618138	-3.212775	-1.266580	3.525060	-2.609460	0.915586	-0.061645	0.366881	-1.000000	-1.000000	-1.000000	-1.000000	-1.000000	-1.000000	-1.000000	81.379310	0.000000	-1.000000	-1.000000	1126976.000000	1770063750.087298
12143.700000	19518.930000	26024.355000	21506.085000	-7434.990000	-4158.180000	3094.470000	13321.125000	2.179547	5.922506	6.731723	7.896895	9.177859	5.609833	1.461202	-4.339848	-1.266580	3.525060	-2.609460	0.915586	-0.061645	0.366881	-1.000000	-1.000000	-1.000000	-1.000000	-1.000000	-1.000000	-1.000000	81.379310	0.000000	-1.000000	-1.000000	1126977.000000	1770063750.091602
12161.160000	19518.255000	26020.980000	21500.685000	-7450.155000	-4167.585000	3086.145000	13346.910000	1.641523	3.451999	4.012715	4.182377	2.191121	0.587513	-0.361432	-5.233734	-1.266580	3.525060	-2.609460	0.915586	-0.061645	0.366881	-1.000000	-1.000000	-1.000000	-1.000000	-1.000000	-1.000000	-1.000000	81.379310	0.000000	-1.000000	-1.000000	1126978.000000	1770063750.091612
12165.120000	19507.410000	26011.395000	21493.395000	-7452.000000	-4170.015000	3078.495000	13358.160000	2.689097	0.487738	0.237203	-1.273242	-7.089155	-4.937882	-2.600949	-2.577449	-1.266580	3.525060	-2.609460	0.915586	-0.061645	0.366881	-1.000000	-1.000000	-1.000000	-1.000000	-1.000000	-1.000000	-1.000000	81.379310	0.000000	-1.000000	-1.000000	1126979.000000	1770063750.096938
12169.215000	19517.130000	26021.565000	21505.050000	-7435.890000	-4160.700000	3086.685000	13362.435000	4.771106	-1.911316	-2.991709	-5.419251	-11.719018	-7.571195	-4.292650	4.117942	-1.266580	3.525060	-2.609460	0.915586	-0.061645	0.366881	-1.000000	-1.000000	-1.000000	-1.000000	-1.000000	-1.000000	-1.000000	81.379310	0.000000	-1.000000	-1.000000	1126980.000000	1770063750.096950
12163.950000	19525.320000	26031.195000	21516.210000	-7424.865000	-4158.270000	3086.955000	13355.415000	5.307368	-3.083051	-4.349758	-6.086264	-8.282345	-5.666516	-4.049284	10.819534	-0.320460	4.181240	-1.693860	0.916318	-0.059021	0.368407	-1.000000	-1.000000	-1.000000	-1.000000	-1.000000	-1.000000	-1.000000	81.379310	0.000000	-1.000000	-1.000000	1126981.000000	1770063750.099003
12152.385000	19508.580000	26010.810000	21496.725000	-7436.115000	-4160.970000	3085.830000	13340.745000	2.553255	-2.894702	-3.618031	-3.541002	0.375359	-0.690559	-1.466795	12.892217	-0.320460	4.181240	-1.693860	0.916318	-0.059021	0.368407	-1.000000	-1.000000	-1.000000	-1.000000	-1.000000	-1.000000	-1.000000	81.379310	0.000000	-1.000000	-1.000000	1126982.000000	1770063750.099013
12153.960000	19507.680000	26010.270000	21496.095000	-7438.410000	-4156.470000	3093.255000	13343.040000	-2.326142	-1.864251	-1.752085	0.086800	8.263555	4.284980	2.149023	8.768732	-0.320460	4.181240	-1.693860	0.916318	-0.059021	0.368407	-1.000000	-1.000000	-1.000000	-1.000000	-1.000000	-1.000000	-1.000000	81.379310	0.000000	-1.000000	-1.000000	1126983.000000	1770063750.102864
12151.395000	19510.605000	26016.075000	21504.825000	-7428.510000	-4160.655000	3087.945000	13340.880000	-6.436937	-0.664785	0.041702	2.582967	11.045119	6.910338	4.840311	0.462116	-0.320460	4.181240	-1.693860	0.916318	-0.059021	0.368407	-1.000000	-1.000000	-1.000000	-1.000000	-1.000000	-1.000000	-1.000000	81.379310	0.000000	-1.000000	-1.000000	1126984.000000	1770063750.102870
12149.235000	19510.470000	26013.915000	21501.180000	-7428.240000	-4156.695000	3092.175000	13345.290000	-7.819649	0.329427	1.113149	3.096335	8.792650	6.553260	5.313547	-7.679005	-0.320460	4.181240	-1.693860	0.916318	-0.059021	0.368407	-1.000000	-1.000000	-1.000000	-1.000000	-1.000000	-1.000000	-1.000000	81.379310	0.000000	-1.000000	-1.000000	1126985.000000	1770063750.108050
12149.145000	19514.430000	26020.530000	21509.010000	-7418.250000	-4144.410000	3101.130000	13355.460000	-6.560566	0.996292	1.494872	2.320440	4.870967	4.366575	3.791459	-11.434197	-0.320460	4.181240	-1.693860	0.916318	-0.059021	0.368407	-1.000000	-1.000000	-1.000000	-1.000000	-1.000000	-1.000000	-1.000000	81.379310	0.000000	-1.000000	-1.000000	1126986.000000	1770063750.108059
12154.185000	19526.760000	26038.890000	21529.305000	-7397.010000	-4129.830000	3108.555000	13354.605000	-3.849197	1.652395	2.026369	1.929608	2.567301	2.397249	1.830211	-9.679069	-0.320460	4.181240	-1.693860	0.916318	-0.059021	0.368407	-1.000000	-1.000000	-1.000000	-1.000000	-1.000000	-1.000000	-1.000000	81.379310	0.000000	-1.000000	-1.000000	1126987.000000	1770063750.111181
12159.540000	19529.505000	26038.080000	21524.355000	-7404.345000	-4139.280000	3100.050000	13337.370000	-0.609340	2.751431	3.414759	2.861088	2.264223	1.410709	0.504121	-5.037887	-0.320460	4.181240	-1.693860	0.916318	-0.059021	0.368407	-1.000000	-1.000000	-1.000000	-1.000000	-1.000000	-1.000000	-1.000000	81.379310	0.000000	-1.000000	-1.000000	1126988.000000	1770063750.111191
12152.835000	19516.995000	26022.240000	21509.280000	-7414.650000	-4152.420000	3086.910000	13337.820000	2.479346	3.386555	4.212251	3.299680	0.988308	-0.180092	-0.907433	-0.987935	-0.320460	4.181240	-1.693860	0.916318	-0.059021	0.368407	-1.000000	-1.000000	-1.000000	-1.000000	-1.000000	-1.000000	-1.000000	81.379310	0.000000	-1.000000	-1.000000	1126989.000000	1770063750.119348
12143.790000	19516.185000	26024.625000	21513.195000	-7408.440000	-4151.070000	3087.495000	13356.270000	4.458097	1.810859	2.099265	0.739749	-3.742531	-3.811532	-3.311309	1.715412	-0.320460	4.181240	-1.693860	0.916318	-0.059021	0.368407	-1.000000	-1.000000	-1.000000	-1.000000	-1.000000	-1.000000	-1.000000	81.379310	0.000000	-1.000000	-1.000000	1126990.000000	1770063750.119359
12146.805000	19515.510000	26021.385000	21504.060000	-7424.955000	-4159.800000	3084.480000	13353.210000	4.879623	-1.489851	-2.125424	-3.783997	-10.015328	-8.077636	-5.788251	4.546338	-3.509800	4.379620	-1.419180	0.915647	-0.052612	0.369506	-1.000000	-1.000000	-1.000000	-1.000000	-1.000000	-1.000000	-1.000000	81.379310	0.000000	-1.000000	-1.000000	1126991.000000	1770063750.119370
12148.425000	19523.070000	26032.230000	21517.155000	-7412.355000	-4149.450000	3086.370000	13326.435000	4.251367	-3.877691	-5.132511	-6.772081	-13.616952	-9.989615	-6.533984	6.964320	-3.509800	4.379620	-1.419180	0.915647	-0.052612	0.369506	-1.000000	-1.000000	-1.000000	-1.000000	-1.000000	-1.000000	-1.000000	81.379310	0.000000	-1.000000	-1.000000	1126992.000000	1770063750.119375
12154.590000	19513.035000	26020.305000	21508.605000	-7419.825000	-4152.240000	3088.035000	13331.925000	3.211800	-3.904726	-5.223515	-6.424267	-12.130457	-7.728746	-4.657993	6.285258	-3.509800	4.379620	-1.419180	0.915647	-0.052612	0.369506	-1.000000	-1.000000	-1.000000	-1.000000	-1.000000	-1.000000	-1.000000	81.379310	0.000000	-1.000000	-1.000000	1126993.000000	1770063750.126022
12161.160000	19501.470000	26004.960000	21491.505000	-7439.130000	-4165.470000	3085.695000	13356.180000	2.111428	-2.580091	-3.597655	-3.800078	-6.387867	-2.301854	-0.837514	2.510796	-3.509800	4.379620	-1.419180	0.915647	-0.052612	0.369506	-1.000000	-1.000000	-1.000000	-1.000000	-1.000000	-1.000000	-1.000000	81.379310	0.000000	-1.000000	-1.000000	1126994.000000	1770063750.126033
12152.880000	19502.505000	26005.590000	21491.055000	-7435.890000	-4160.565000	3084.570000	13350.285000	0.830665	-1.594599	-2.272561	-1.196575	0.420387	3.006312	2.935169	-1.310773	-3.509800	4.379620	-1.419180	0.915647	-0.052612	0.369506	-1.000000	-1.000000	-1.000000	-1.000000	-1.000000	-1.000000	-1.000000	81.379310	0.000000	-1.000000	-1.000000	1126995.000000	1770063750.127070
12158.505000	19515.915000	26020.755000	21506.355000	-7423.065000	-4154.040000	3089.385000	13355.505000	-1.074390	-1.163456	-1.615175	0.326052	5.547191	5.759383	4.927566	-3.096146	-3.509800	4.379620	-1.419180	0.915647	-0.052612	0.369506	-1.000000	-1.000000	-1.000000	-1.000000	-1.000000	-1.000000	-1.000000	81.379310	0.000000	-1.000000	-1.000000	1126996.000000	1770063750.127076
12151.305000	19509.300000	26015.535000	21503.655000	-7426.215000	-4158.855000	3089.205000	13350.915000	-3.382299	-0.250205	-0.352649	1.671554	8.360313	6.092417	5.059937	-2.702258	-3.509800	4.379620	-1.419180	0.915647	-0.052612	0.369506	-1.000000	-1.000000	-1.000000	-1.000000	-1.000000	-1.000000	-1.000000	81.379310	0.000000	-1.000000	-1.000000	1126997.000000	1770063750.131015
12142.710000	19503.495000	26010.855000	21500.370000	-7428.330000	-4161.150000	3087.495000	13344.435000	-5.047535	1.405346	2.049417	3.562476	9.018945	5.161996	4.233563	-1.168420	-3.509800	4.379620	-1.419180	0.915647	-0.052612	0.369506	-1.000000	-1.000000	-1.000000	-1.000000	-1.000000	-1.000000	-1.000000	81.379310	0.000000	-1.000000	-1.000000	1126998.000000	1770063750.131026
12136.995000	19502.415000	26008.110000	21496.905000	-7430.265000	-4163.850000	3083.580000	13332.915000	-5.079062	2.941862	4.474542	5.207432	7.546041	3.623299	2.909017	-0.353414	-3.509800	4.379620	-1.419180	0.915647	-0.052612	0.369506	-1.000000	-1.000000	-1.000000	-1.000000	-1.000000	-1.000000	-1.000000	81.379310	0.000000	-1.000000	-1.000000	1126999.000000	1770063750.134970
12135.375000	19501.650000	26004.735000	21491.370000	-7435.170000	-4168.080000	3078.585000	13323.285000	-3.320096	3.551940	5.450797	5.367638	4.468849	1.664856	0.925344	-1.207221	-3.509800	4.379620	-1.419180	0.915647	-0.052612	0.369506	-1.000000	-1.000000	-1.000000	-1.000000	-1.000000	-1.000000	-1.000000	81.379310	0.000000	-1.000000	-1.000000	1127000.000000	1770063750.134977
12137.670000	19505.520000	26009.820000	21497.535000	-7429.590000	-4162.905000	3080.970000	13325.670000	-0.591232	2.978288	4.300792	3.477799	0.770880	-0.488244	-1.561381	-2.446905	-3.540320	4.455920	-1.571780	0.917173	-0.055054	0.368957	-1.000000	-1.000000	-1.000000	-1.000000	-1.000000	-1.000000	-1.000000	81.379310	0.000000	-1.000000	-1.000000	1127001.000000	1770063750.138900
12144.375000	19516.770000	26026.290000	21515.490000	-7414.110000	-4150.980000	3091.590000	13348.575000	2.017719	1.873642	2.068438	0.694034	-2.038643	-1.965006	-3.452590	-2.008190	-3.540320	4.455920	-1.571780	0.917173	-0.055054	0.368957	-1.000000	-1.000000	-1.000000	-1.000000	-1.000000	-1.000000	-1.000000	81.379310	0.000000	-1.000000	-1.000000	1127002.000000	1770063750.138910
12158.460000	19526.760000	26035.065000	21525.255000	-7404.255000	-4139.685000	3105.810000	13373.505000	3.932388	1.509986	0.954524	-0.498354	-2.164884	-1.559986	-3.340604	0.744782	-3.540320	4.455920	-1.571780	0.917173	-0.055054	0.368957	-1.000000	-1.000000	-1.000000	-1.000000	-1.000000	-1.000000	-1.000000	81.379310	0.000000	-1.000000	-1.000000	1127003.000000	1770063750.142897
12162.960000	19519.110000	26023.725000	21513.195000	-7415.055000	-4145.490000	3101.625000	13365.630000	5.111542	1.853662	1.225482	0.316330	-0.097127	0.356754	-1.100303	4.460225	-3.540320	4.455920	-1.571780	0.917173	-0.055054	0.368957	-1.000000	-1.000000	-1.000000	-1.000000	-1.000000	-1.000000	-1.000000	81.379310	0.000000	-1.000000	-1.000000	1127004.000000	1770063750.142906
12148.470000	19502.595000	26003.745000	21492.630000	-7430.985000	-4156.065000	3087.000000	13331.970000	5.080483	0.926986	0.307753	0.236435	0.763311	1.426579	1.276259	6.180282	-3.540320	4.455920	-1.571780	0.917173	-0.055054	0.368957	-1.000000	-1.000000	-1.000000	-1.000000	-1.000000	-1.000000	-1.000000	81.379310	0.000000	-1.000000	-1.000000	1127005.000000	1770063750.154943
12131.685000	19502.460000	26008.290000	21497.445000	-7427.700000	-4160.295000	3080.880000	13305.420000	2.825355	-2.375495	-3.283036	-2.771645	-1.728450	0.019044	1.450114	3.162701	-3.540320	4.455920	-1.571780	0.917173	-0.055054	0.368957	-1.000000	-1.000000	-1.000000	-1.000000	-1.000000	-1.000000	-1.000000	81.379310	0.000000	-1.000000	-1.000000	1127006.000000	1770063750.154952
12136.860000	19513.260000	26019.270000	21506.760000	-7421.580000	-4159.125000	3079.485000	13288.005000	-1.212131	-5.902689	-7.002784	-6.474106	-5.532925	-2.817708	-0.651452	-3.932769	-3.540320	4.455920	-1.571780	0.917173	-0.055054	0.368957	-1.000000	-1.000000	-1.000000	-1.000000	-1.000000	-1.000000	-1.000000	81.379310	0.000000	-1.000000	-1.000000	1127007.000000	1770063750.154962
12146.355000	19522.530000	26025.525000	21511.395000	-7418.115000	-4156.740000	3080.700000	13302.180000	-4.387987	-6.311831	-7.067419	-6.947014	-6.867568	-4.617696	-2.896973	-10.272936	-3.540320	4.455920	-1.571780	0.917173	-0.055054	0.368957	-1.000000	-1.000000	-1.000000	-1.000000	-1.000000	-1.000000	-1.000000	81.379310	0.000000	-1.000000	-1.000000	1127008.000000	1770063750.154974
12144.015000	19512.810000	26019.090000	21505.680000	-7422.975000	-4158.225000	3079.755000	13328.190000	-4.498749	-2.990729	-2.970920	-3.254804	-4.312408	-3.913731	-3.249123	-10.080111	-3.540320	4.455920	-1.571780	0.917173	-0.055054	0.368957	-1.000000	-1.000000	-1.000000	-1.000000	-1.000000	-1.000000	-1.000000	81.379310	0.000000	-1.000000	-1.000000	1127009.000000	1770063750.155046
12157.155000	19520.550000	26029.935000	21514.815000	-7416.135000	-4150.170000	3089.610000	13360.590000	-1.987502	1.401218	2.232358	1.833907	0.203481	-1.278233	-1.391773	-1.647733	-3.540320	4.455920	-1.571780	0.917173	-0.055054	0.368957	-1.000000	-1.000000	-1.000000	-1.000000	-1.000000	-1.000000	-1.000000	81.379310	0.000000	-1.000000	-1.000000	1127010.000000	1770063750.155054
12147.705000	19518.570000	26026.560000	21513.060000	-7414.290000	-4147.380000	3095.820000	13343.085000	0.861022	3.938916	5.240191	4.992217	3.814404	1.598264	1.428679	9.683497	-0.747740	5.249440	-0.778260	0.918150	-0.059692	0.367736	-1.000000	-1.000000	-1.000000	-1.000000	-1.000000	-1.000000	-1.000000	81.379310	0.000000	-1.000000	-1.000000	1127011.000000	1770063750.162273
12137.985000	19521.585000	26030.610000	21520.935000	-7404.165000	-4139.325000	3098.295000	13310.910000	1.624015	3.634344	4.836439	4.953278	5.079665	3.307740	3.489961	14.711786	-0.747740	5.249440	-0.778260	0.918150	-0.059692	0.367736	-1.000000	-1.000000	-1.000000	-1.000000	-1.000000	-1.000000	-1.000000	81.379310	0.000000	-1.000000	-1.000000	1127012.000000	1770063750.162283
12152.205000	19521.045000	26027.730000	21515.355000	-7411.860000	-4147.605000	3091.455000	13336.020000	-0.170698	1.516553	2.166193	2.818615	4.330047	3.416530	3.759386	9.458795	-0.747740	5.249440	-0.778260	0.918150	-0.059692	0.367736	-1.000000	-1.000000	-1.000000	-1.000000	-1.000000	-1.000000	-1.000000	81.379310	0.000000	-1.000000	-1.000000	1127013.000000	1770063750.162936
12169.485000	19507.770000	26008.155000	21493.800000	-7430.580000	-4163.355000	3084.210000	13376.520000	-1.757515	-0.540228	-0.659681	0.361818	2.408783	2.178385	2.429472	0.352082	-0.747740	5.249440	-0.778260	0.918150	-0.059692	0.367736	-1.000000	-1.000000	-1.000000	-1.000000	-1.000000	-1.000000	-1.000000	81.379310	0.000000	-1.000000	-1.000000	1127014.000000	1770063750.162942
12161.520000	19497.555000	25998.210000	21485.025000	-7434.405000	-4163.040000	3085.695000	13370.760000	-0.212677	-1.717355	-2.760574	-1.926919	-0.388896	0.071131	0.472853	-3.365426	-0.747740	5.249440	-0.778260	0.918150	-0.059692	0.367736	-1.000000	-1.000000	-1.000000	-1.000000	-1.000000	-1.000000	-1.000000	81.379310	0.000000	-1.000000	-1.000000	1127015.000000	1770063750.166914
12147.660000	19493.415000	25994.835000	21479.580000	-7438.815000	-4164.390000	3088.620000	13347.585000	3.179634	-2.547446	-4.364644	-4.175435	-3.519139	-1.987535	-1.059375	-0.648420	-0.747740	5.249440	-0.778260	0.918150	-0.059692	0.367736	-1.000000	-1.000000	-1.000000	-1.000000	-1.000000	-1.000000	-1.000000	81.379310	0.000000	-1.000000	-1.000000	1127016.000000	1770063750.166920
12132.405000	19482.120000	25983.495000	21468.780000	-7445.070000	-4167.540000	3088.485000	13339.260000	4.190092	-3.377911	-5.176614	-5.619937	-5.552376	-2.935801	-1.575939	1.837414	-0.747740	5.249440	-0.778260	0.918150	-0.059692	0.367736	-1.000000	-1.000000	-1.000000	-1.000000	-1.000000	-1.000000	-1.000000	81.379310	0.000000	-1.000000	-1.000000	1127017.000000	1770063750.170978
12140.730000	19490.895000	25994.520000	21482.100000	-7432.065000	-4169.745000	3079.575000	13346.505000	0.973766	-3.474526	-4.294564	-4.986442	-5.098328	-2.496979	-1.402562	-1.190460	-0.747740	5.249440	-0.778260	0.918150	-0.059692	0.367736	-1.000000	-1.000000	-1.000000	-1.000000	-1.000000	-1.000000	-1.000000	81.379310	0.000000	-1.000000	-1.000000	1127018.000000	1770063750.170984
12153.195000	19509.030000	26015.220000	21504.600000	-7410.915000	-4157.640000	3083.355000	13350.420000	-3.814215	-1.589585	-1.031445	-1.478402	-1.666441	-1.135729	-1.498437	-8.452029	-0.747740	5.249440	-0.778260	0.918150	-0.059692	0.367736	-1.000000	-1.000000	-1.000000	-1.000000	-1.000000	-1.000000	-1.000000	81.379310	0.000000	-1.000000	-1.000000	1127019.000000	1770063750.176381
12149.235000	19507.095000	26012.070000	21499.605000	-7412.850000	-4154.130000	3085.155000	13341.240000	-6.077896	2.369198	4.013106	4.060154	3.549411	0.616529	-2.190733	-14.202752	-0.747740	5.249440	-0.778260	0.918150	-0.059692	0.367736	-1.000000	-1.000000	-1.000000	-1.000000	-1.000000	-1.000000	-1.000000	81.379310	0.000000	-1.000000	-1.000000	1127020.000000	1770063750.176390
12150.135000	19516.095000	26020.710000	21507.795000	-7402.905000	-4148.730000	3089.610000	13337.415000	-4.281269	6.445372	8.447975	8.736082	7.683219	2.255047	-2.554868	-13.467443	0.610400	5.691980	-0.991900	0.919126	-0.059448	0.369140	-1.000000	-1.000000	-1.000000	-1.000000	-1.000000	-1.000000	-1.000000	81.379310	0.000000	-1.000000	-1.000000	1127021.000000	1770063750.178942
12143.925000	19512.585000	26017.335000	21504.150000	-7412.085000	-4151.970000	3091.005000	13340.385000	-0.382085	8.299952	9.920957	10.002130	8.490905	3.409214	-1.344308	-6.272738	0.610400	5.691980	-0.991900	0.919126	-0.059448	0.369140	-1.000000	-1.000000	-1.000000	-1.000000	-1.000000	-1.000000	-1.000000	81.379310	0.000000	-1.000000	-1.000000	1127022.000000	1770063750.178953
12146.355000	19515.735000	26023.905000	21510.135000	-7428.870000	-4158.135000	3091.410000	13344.210000	2.605942	7.172537	8.096372	7.825154	5.749017	3.865377	1.540170	2.894232	0.610400	5.691980	-0.991900	0.919126	-0.059448	0.369140	-1.000000	-1.000000	-1.000000	-1.000000	-1.000000	-1.000000	-1.000000	81.379310	0.000000	-1.000000	-1.000000	1127023.000000	1770063750.182931
12148.020000	19514.205000	26020.710000	21504.465000	-7440.705000	-4167.945000	3090.150000	13346.190000	3.579397	3.813281	4.117933	3.646099	0.372343	3.042481	4.476266	9.826866	0.610400	5.691980	-0.991900	0.919126	-0.059448	0.369140	-1.000000	-1.000000	-1.000000	-1.000000	-1.000000	-1.000000	-1.000000	81.379310	0.000000	-1.000000	-1.000000	1127024.000000	1770063750.182937
12146.490000	19515.195000	26020.845000	21505.995000	-7430.895000	-4158.315000	3095.010000	13349.835000	3.492458	-0.454967	-0.702925	-1.143756	-5.518376	0.665805	5.429748	13.252427	0.610400	5.691980	-0.991900	0.919126	-0.059448	0.369140	-1.000000	-1.000000	-1.000000	-1.000000	-1.000000	-1.000000	-1.000000	81.379310	0.000000	-1.000000	-1.000000	1127025.000000	1770063750.186877
12140.010000	19508.625000	26015.355000	21501.270000	-7426.125000	-4153.590000	3087.630000	13344.705000	3.170639	-4.288371	-5.149766	-5.322155	-8.716276	-1.988292	3.764972	13.037614	0.610400	5.691980	-0.991900	0.919126	-0.059448	0.369140	-1.000000	-1.000000	-1.000000	-1.000000	-1.000000	-1.000000	-1.000000	81.379310	0.000000	-1.000000	-1.000000	1127026.000000	1770063750.186888
12161.610000	19534.455000	26043.480000	21529.935000	-7399.755000	-4142.520000	3089.385000	13348.350000	2.389123	-6.571463	-7.997640	-7.791369	-7.358241	-3.148824	0.430482	8.744320	0.610400	5.691980	-0.991900	0.919126	-0.059448	0.369140	-1.000000	-1.000000	-1.000000	-1.000000	-1.000000	-1.000000	-1.000000	81.379310	0.000000	-1.000000	-1.000000	1127027.000000	1770063750.190944
12169.305000	19545.345000	26053.650000	21542.940000	-7372.260000	-4125.375000	3104.235000	13349.700000	1.098200	-6.493957	-8.165512	-7.673879	-2.233406	-2.334779	-2.799454	1.372841	0.610400	5.691980	-0.991900	0.919126	-0.059448	0.369140	-1.000000	-1.000000	-1.000000	-1.000000	-1.000000	-1.000000	-1.000000	81.379310	0.000000	-1.000000	-1.000000	1127028.000000	1770063750.190955
12151.845000	19526.130000	26034.210000	21528.495000	-7370.370000	-4131.045000	3095.235000	13337.730000	-0.309859	-4.388316	-5.805605	-5.119032	4.067749	-0.517732	-4.361952	-5.694329	0.610400	5.691980	-0.991900	0.919126	-0.059448	0.369140	-1.000000	-1.000000	-1.000000	-1.000000	-1.000000	-1.000000	-1.000000	81.379310	0.000000	-1.000000	-1.000000	1127029.000000	1770063750.196432
12138.390000	19493.685000	25999.785000	21494.070000	-7402.905000	-4159.665000	3075.480000	13345.380000	-2.121987	-2.562390	-3.290138	-2.375867	7.717522	0.330005	-4.312656	-9.246972	0.610400	5.691980	-0.991900	0.919126	-0.059448	0.369140	-1.000000	-1.000000	-1.000000	-1.000000	-1.000000	-1.000000	-1.000000	81.379310	0.000000	-1.000000	-1.000000	1127030.000000	1770063750.196442
12147.795000	19491.660000	25995.780000	21484.530000	-7438.950000	-4170.240000	3078.630000	13345.110000	-4.389910	-2.954130	-2.878804	-1.909834	5.461251	-1.263274	-3.777133	-8.608231	-2.060100	5.066320	-1.846460	0.917173	-0.058655	0.371459	-1.000000	-1.000000	-1.000000	-1.000000	-1.000000	-1.000000	-1.000000	81.379310	0.000000	-1.000000	-1.000000	1127031.000000	1770063750.201844
12145.680000	19495.035000	25997.670000	21484.125000	-7452.990000	-4173.435000	3081.420000	13339.755000	-5.595773	-4.161471	-3.587052	-3.180791	-1.976544	-4.153252	-2.850333	-5.278789	-2.060100	5.066320	-1.846460	0.917173	-0.058655	0.371459	-1.000000	-1.000000	-1.000000	-1.000000	-1.000000	-1.000000	-1.000000	81.379310	0.000000	-1.000000	-1.000000	1127032.000000	1770063750.201853
12142.980000	19499.760000	26003.970000	21492.045000	-7438.680000	-4169.520000	3082.770000	13341.420000	-4.343341	-3.120970	-2.477274	-3.170371	-9.335658	-5.364859	-0.879075	-1.282993	-2.060100	5.066320	-1.846460	0.917173	-0.058655	0.371459	-1.000000	-1.000000	-1.000000	-1.000000	-1.000000	-1.000000	-1.000000	81.379310	0.000000	-1.000000	-1.000000	1127033.000000	1770063750.203072
12135.870000	19491.615000	25996.230000	21483.090000	-7455.240000	-4176.045000	3077.055000	13334.355000	-1.116264	1.074454	1.649450	0.028142	-11.251406	-3.363928	1.784135	1.901330	-2.060100	5.066320	-1.846460	0.917173	-0.058655	0.371459	-1.000000	-1.000000	-1.000000	-1.000000	-1.000000	-1.000000	-1.000000	81.379310	0.000000	-1.000000	-1.000000	1127034.000000	1770063750.203078
12139.200000	19495.890000	25999.200000	21483.450000	-7459.785000	-4172.940000	3078.540000	13336.200000	2.270223	6.190529	6.761015	4.886881	-7.227605	0.551784	3.924192	3.376762	-2.060100	5.066320	-1.846460	0.917173	-0.058655	0.371459	-1.000000	-1.000000	-1.000000	-1.000000	-1.000000	-1.000000	-1.000000	81.379310	0.000000	-1.000000	-1.000000	1127035.000000	1770063750.211291
12136.905000	19495.530000	25999.335000	21486.510000	-7455.690000	-4171.185000	3078.990000	13333.860000	3.834160	8.764115	9.244201	7.768148	-1.112770	3.873965	4.571767	2.940079	-2.060100	5.066320	-1.846460	0.917173	-0.058655	0.371459	-1.000000	-1.000000	-1.000000	-1.000000	-1.000000	-1.000000	-1.000000	81.379310	0.000000	-1.000000	-1.000000	1127036.000000	1770063750.211302
12145.230000	19508.445000	26014.635000	21504.060000	-7439.265000	-4163.220000	3083.085000	13342.455000	3.001236	7.256213	7.516075	6.890156	3.597835	5.014055	3.434484	1.577127	-2.060100	5.066320	-1.846460	0.917173	-0.058655	0.371459	-1.000000	-1.000000	-1.000000	-1.000000	-1.000000	-1.000000	-1.000000	81.379310	0.000000	-1.000000	-1.000000	1127037.000000	1770063750.211544
12147.210000	19509.345000	26014.995000	21504.645000	-7436.520000	-4162.140000	3084.255000	13350.510000	1.556672	3.787675	3.940265	4.328540	6.505889	4.412385	1.371948	1.050420	-2.060100	5.066320	-1.846460	0.917173	-0.058655	0.371459	-1.000000	-1.000000	-1.000000	-1.000000	-1.000000	-1.000000	-1.000000	81.379310	0.000000	-1.000000	-1.000000	1127038.000000	1770063750.211554
12147.030000	19513.170000	26018.505000	21506.445000	-7432.425000	-4161.330000	3085.560000	13353.030000	1.472240	1.707502	1.990077	3.182265	9.116859	3.873102	0.053147	1.939832	-2.060100	5.066320	-1.846460	0.917173	-0.058655	0.371459	-1.000000	-1.000000	-1.000000	-1.000000	-1.000000	-1.000000	-1.000000	81.379310	0.000000	-1.000000	-1.000000	1127039.000000	1770063750.214958
12149.730000	19519.560000	26025.435000	21511.980000	-7424.730000	-4154.265000	3092.040000	13351.455000	2.389229	1.854679	2.340077	3.910774	12.198659	4.382047	0.168013	2.862423	-2.060100	5.066320	-1.846460	0.917173	-0.058655	0.371459	-1.000000	-1.000000	-1.000000	-1.000000	-1.000000	-1.000000	-1.000000	81.379310	0.000000	-1.000000	-1.000000	1127040.000000	1770063750.214968
12142.125000	19521.270000	26027.055000	21513.510000	-7420.950000	-4153.725000	3091.365000	13333.410000	2.548271	2.269201	2.789811	4.309546	14.105526	4.964977	0.776556	2.144036	-2.044840	4.608520	-2.426340	0.917234	-0.059143	0.372924	-1.000000	-1.000000	-1.000000	-1.000000	-1.000000	-1.000000	-1.000000	81.379310	0.000000	-1.000000	-1.000000	1127041.000000	1770063750.219022
12152.160000	19526.670000	26031.735000	21520.080000	-7411.095000	-4148.235000	3089.655000	13324.095000	1.223645	0.946683	1.188430	2.302084	11.837902	3.877096	0.579261	-0.729839	-2.044840	4.608520	-2.426340	0.917234	-0.059143	0.372924	-1.000000	-1.000000	-1.000000	-1.000000	-1.000000	-1.000000	-1.000000	81.379310	0.000000	-1.000000	-1.000000	1127042.000000	1770063750.219029
12161.700000	19522.305000	26026.470000	21515.355000	-7411.230000	-4146.345000	3087.990000	13316.850000	-0.491230	-2.104240	-2.436824	-1.917964	4.507856	0.577745	-0.752445	-4.613707	-2.044840	4.608520	-2.426340	0.917234	-0.059143	0.372924	-1.000000	-1.000000	-1.000000	-1.000000	-1.000000	-1.000000	-1.000000	81.379310	0.000000	-1.000000	-1.000000	1127043.000000	1770063750.222932
12150.270000	19517.940000	26021.655000	21507.660000	-7427.700000	-4157.190000	3082.410000	13312.035000	-1.549778	-5.651327	-6.627432	-6.712010	-5.651558	-3.968458	-2.554874	-7.289644	-2.044840	4.608520	-2.426340	0.917234	-0.059143	0.372924	-1.000000	-1.000000	-1.000000	-1.000000	-1.000000	-1.000000	-1.000000	81.379310	0.000000	-1.000000	-1.000000	1127044.000000	1770063750.222943
12145.455000	19512.450000	26016.030000	21503.070000	-7432.245000	-4160.520000	3079.215000	13332.780000	-2.530100	-8.598561	-9.959384	-10.649623	-15.481034	-8.407303	-4.098736	-6.816227	-2.044840	4.608520	-2.426340	0.917234	-0.059143	0.372924	-1.000000	-1.000000	-1.000000	-1.000000	-1.000000	-1.000000	-1.000000	81.379310	0.000000	-1.000000	-1.000000	1127045.000000	1770063750.229003
12136.725000	19490.580000	25993.980000	21482.595000	-7443.090000	-4168.395000	3074.445000	13346.325000	-4.080746	-10.078211	-11.358250	-12.627042	-21.869108	-11.249333	-4.853105	-2.459709	-2.044840	4.608520	-2.426340	0.917234	-0.059143	0.372924	-1.000000	-1.000000	-1.000000	-1.000000	-1.000000	-1.000000	-1.000000	81.379310	0.000000	-1.000000	-1.000000	1127046.000000	1770063750.229012
12139.110000	19497.060000	26002.080000	21491.370000	-7436.880000	-4169.385000	3075.480000	13351.860000	-5.332975	-9.175451	-9.886283	-11.398836	-21.788908	-10.832957	-4.180015	4.158543	-2.044840	4.608520	-2.426340	0.917234	-0.059143	0.372924	-1.000000	-1.000000	-1.000000	-1.000000	-1.000000	-1.000000	-1.000000	81.379310	0.000000	-1.000000	-1.000000	1127047.000000	1770063750.230998
12135.510000	19502.055000	26006.130000	21493.800000	-7436.880000	-4168.080000	3075.345000	13340.160000	-4.857696	-5.061865	-4.866055	-5.979355	-13.858732	-6.413677	-1.818473	9.156319	-2.044840	4.608520	-2.426340	0.917234	-0.059143	0.372924	-1.000000	-1.000000	-1.000000	-1.000000	-1.000000	-1.000000	-1.000000	81.379310	0.000000	-1.000000	-1.000000	1127048.000000	1770063750.231004
12136.005000	19510.065000	26014.905000	21501.000000	-7429.770000	-4156.155000	3081.015000	13336.740000	-2.283512	1.711964	2.773359	2.576080	-0.478401	0.766539	1.448233	9.360637	-2.044840	4.608520	-2.426340	0.917234	-0.059143	0.372924	-1.000000	-1.000000	-1.000000	-1.000000	-1.000000	-1.000000	-1.000000	81.379310	0.000000	-1.000000	-1.000000	1127049.000000	1770063750.234997
12132.090000	19518.885000	26025.570000	21511.305000	-7419.420000	-4148.640000	3086.325000	13321.395000	1.400705	8.618795	10.115857	10.804980	12.643085	7.952342	4.346325	4.955755	-2.044840	4.608520	-2.426340	0.917234	-0.059143	0.372924	-1.000000	-1.000000	-1.000000	-1.000000	-1.000000	-1.000000	-1.000000	81.379310	0.000000	-1.000000	-1.000000	1127050.000000	1770063750.235008
12134.970000	19520.415000	26025.120000	21511.800000	-7414.785000	-4142.610000	3086.685000	13309.560000	4.503218	12.738117	14.110121	15.157378	19.983388	12.271957	5.968513	-1.329887	-2.853620	4.913720	-2.777320	0.918577	-0.059631	0.371459	-1.000000	-1.000000	-1.000000	-1.000000	-1.000000	-1.000000	-1.000000	81.379310	0.000000	-1.000000	-1.000000	1127051.000000	1770063750.238978
12147.210000	19514.970000	26017.965000	21504.060000	-7420.365000	-4154.040000	3079.395000	13333.815000	5.779327	12.334242	13.077089	13.912704	19.235906	11.902938	5.749551	-6.109488	-2.853620	4.913720	-2.777320	0.918577	-0.059631	0.371459	-1.000000	-1.000000	-1.000000	-1.000000	-1.000000	-1.000000	-1.000000	81.379310	0.000000	-1.000000	-1.000000	1127052.000000	1770063750.238987
12157.020000	19501.560000	26005.905000	21493.800000	-7427.205000	-4160.700000	3086.460000	13370.985000	5.517318	7.361386	7.199163	7.595557	11.766251	6.888519	3.626191	-6.308874	-2.853620	4.913720	-2.777320	0.918577	-0.059631	0.371459	-1.000000	-1.000000	-1.000000	-1.000000	-1.000000	-1.000000	-1.000000	81.379310	0.000000	-1.000000	-1.000000	1127053.000000	1770063750.245067
12141.765000	19483.785000	25988.445000	21476.430000	-7442.595000	-4168.125000	3086.775000	13362.300000	4.540564	-0.412202	-1.322952	-1.281848	1.166886	-0.608588	0.572945	-1.767546	-2.853620	4.913720	-2.777320	0.918577	-0.059631	0.371459	-1.000000	-1.000000	-1.000000	-1.000000	-1.000000	-1.000000	-1.000000	81.379310	0.000000	-1.000000	-1.000000	1127054.000000	1770063750.245077
12147.570000	19495.080000	25996.680000	21482.910000	-7442.055000	-4168.935000	3083.895000	13351.995000	2.754335	-7.465828	-8.657143	-8.869682	-8.365533	-7.120218	-1.998814	3.071358	-2.853620	4.913720	-2.777320	0.918577	-0.059631	0.371459	-1.000000	-1.000000	-1.000000	-1.000000	-1.000000	-1.000000	-1.000000	81.379310	0.000000	-1.000000	-1.000000	1127055.000000	1770063750.247004
12145.365000	19509.795000	26014.230000	21501.585000	-7431.390000	-4166.865000	3083.985000	13343.805000	0.064972	-9.984241	-11.006031	-11.435260	-13.089228	-9.665305	-3.376105	3.452177	-2.853620	4.913720	-2.777320	0.918577	-0.059631	0.371459	-1.000000	-1.000000	-1.000000	-1.000000	-1.000000	-1.000000	-1.000000	81.379310	0.000000	-1.000000	-1.000000	1127056.000000	1770063750.247014
12143.115000	19509.030000	26015.895000	21502.035000	-7431.120000	-4164.525000	3086.505000	13342.545000	-2.774615	-6.948905	-7.433289	-7.908869	-11.346306	-7.573609	-3.623063	-0.549066	-2.853620	4.913720	-2.777320	0.918577	-0.059631	0.371459	-1.000000	-1.000000	-1.000000	-1.000000	-1.000000	-1.000000	-1.000000	81.379310	0.000000	-1.000000	-1.000000	1127057.000000	1770063750.253507
12143.610000	19507.590000	26012.970000	21498.705000	-7432.740000	-4165.920000	3084.165000	13341.960000	-4.736008	-1.295966	-1.022716	-1.253784	-5.108000	-2.863225	-3.138156	-4.829298	-2.853620	4.913720	-2.777320	0.918577	-0.059631	0.371459	-1.000000	-1.000000	-1.000000	-1.000000	-1.000000	-1.000000	-1.000000	81.379310	0.000000	-1.000000	-1.000000	1127058.000000	1770063750.253519
12140.505000	19505.835000	26009.910000	21497.085000	-7431.345000	-4163.265000	3084.705000	13343.040000	-5.115357	2.858727	3.680911	3.837144	1.306801	1.437056	-2.363603	-5.528040	-2.853620	4.913720	-2.777320	0.918577	-0.059631	0.371459	-1.000000	-1.000000	-1.000000	-1.000000	-1.000000	-1.000000	-1.000000	81.379310	0.000000	-1.000000	-1.000000	1127059.000000	1770063750.255112
12146.130000	19514.835000	26020.620000	21507.750000	-7417.980000	-4152.015000	3089.520000	13342.275000	-4.018984	3.737819	4.585936	5.023215	4.881028	3.698537	-1.338849	-2.078602	-2.853620	4.913720	-2.777320	0.918577	-0.059631	0.371459	-1.000000	-1.000000	-1.000000	-1.000000	-1.000000	-1.000000	-1.000000	81.379310	0.000000	-1.000000	-1.000000	1127060.000000	1770063750.255119
12152.070000	19517.760000	26023.140000	21509.460000	-7416.045000	-4151.115000	3088.710000	13345.065000	-2.174521	2.602208	3.123981	3.586969	5.694543	4.434504	0.199767	2.414555	-3.021480	5.585160	-3.448760	0.920286	-0.059692	0.373107	-1.000000	-1.000000	-1.000000	-1.000000	-1.000000	-1.000000	-1.000000	81.379310	0.000000	-1.000000	-1.000000	1127061.000000	1770063750.267789
12145.905000	19509.480000	26012.790000	21498.615000	-7428.780000	-4159.845000	3084.300000	13342.410000	-0.243591	1.545432	1.647305	1.836659	5.003644	4.502792	1.826293	3.933506	-3.021480	5.585160	-3.448760	0.920286	-0.059692	0.373107	-1.000000	-1.000000	-1.000000	-1.000000	-1.000000	-1.000000	-1.000000	81.379310	0.000000	-1.000000	-1.000000	1127062.000000	1770063750.267805
12143.250000	19509.390000	26011.530000	21496.635000	-7429.725000	-4158.315000	3087.720000	13341.825000	1.384831	1.352468	1.006503	0.718123	3.333164	3.744015	2.573585	1.582415	-3.021480	5.585160	-3.448760	0.920286	-0.059692	0.373107	-1.000000	-1.000000	-1.000000	-1.000000	-1.000000	-1.000000	-1.000000	81.379310	0.000000	-1.000000	-1.000000	1127063.000000	1770063750.267818
12135.780000	19506.195000	26008.785000	21496.680000	-7423.470000	-4156.110000	3087.405000	13336.875000	2.322785	1.205724	0.509195	-0.146022	1.011113	1.970357	2.241562	-1.805201	-3.021480	5.585160	-3.448760	0.920286	-0.059692	0.373107	-1.000000	-1.000000	-1.000000	-1.000000	-1.000000	-1.000000	-1.000000	81.379310	0.000000	-1.000000	-1.000000	1127064.000000	1770063750.267824
12133.035000	19503.765000	26007.345000	21493.710000	-7432.155000	-4166.415000	3080.025000	13335.255000	2.176685	-0.205326	-0.960925	-1.542325	-1.416607	-0.458284	1.244983	-3.054375	-3.021480	5.585160	-3.448760	0.920286	-0.059692	0.373107	-1.000000	-1.000000	-1.000000	-1.000000	-1.000000	-1.000000	-1.000000	81.379310	0.000000	-1.000000	-1.000000	1127065.000000	1770063750.268961
12142.305000	19506.285000	26010.585000	21495.510000	-7439.220000	-4169.430000	3078.360000	13336.515000	1.300820	-2.822927	-3.319079	-3.429874	-3.617289	-3.151517	-0.209281	-1.320416	-3.021480	5.585160	-3.448760	0.920286	-0.059692	0.373107	-1.000000	-1.000000	-1.000000	-1.000000	-1.000000	-1.000000	-1.000000	81.379310	0.000000	-1.000000	-1.000000	1127066.000000	1770063750.268973
12151.935000	19515.330000	26020.620000	21507.120000	-7427.970000	-4159.890000	3081.825000	13339.170000	0.910679	-4.727795	-4.750430	-4.360275	-5.029030	-5.262201	-1.670027	2.111574	-3.021480	5.585160	-3.448760	0.920286	-0.059692	0.373107	-1.000000	-1.000000	-1.000000	-1.000000	-1.000000	-1.000000	-1.000000	81.379310	0.000000	-1.000000	-1.000000	1127067.000000	1770063750.271693
12156.795000	19529.730000	26039.070000	21527.640000	-7410.870000	-4149.765000	3085.650000	13339.485000	1.671880	-3.958379	-3.386927	-2.739120	-4.490351	-5.371661	-2.202193	5.184103	-3.021480	5.585160	-3.448760	0.920286	-0.059692	0.373107	-1.000000	-1.000000	-1.000000	-1.000000	-1.000000	-1.000000	-1.000000	81.379310	0.000000	-1.000000	-1.000000	1127068.000000	1770063750.271705
12152.700000	19525.635000	26032.545000	21518.595000	-7417.800000	-4153.815000	3088.935000	13346.505000	2.559117	-0.601817	0.500172	1.108932	-1.692463	-3.049490	-1.297935	6.142854	-3.021480	5.585160	-3.448760	0.920286	-0.059692	0.373107	-1.000000	-1.000000	-1.000000	-1.000000	-1.000000	-1.000000	-1.000000	81.379310	0.000000	-1.000000	-1.000000	1127069.000000	1770063750.275408
12134.385000	19501.515000	26005.545000	21489.210000	-7442.640000	-4171.725000	3080.070000	13343.130000	1.667272	2.809040	3.979670	4.244226	1.458949	0.179448	0.423570	4.178515	-3.021480	5.585160	-3.448760	0.920286	-0.059692	0.373107	-1.000000	-1.000000	-1.000000	-1.000000	-1.000000	-1.000000	-1.000000	81.379310	0.000000	-1.000000	-1.000000	1127070.000000	1770063750.275418
12136.860000	19497.915000	26002.485000	21488.040000	-7439.535000	-4167.855000	3081.060000	13344.030000	-1.423552	3.606010	4.162781	3.873558	2.710057	2.317055	1.671622	-0.023054	-1.587040	5.295220	-3.647140	0.920347	-0.061096	0.375121	-1.000000	-1.000000	-1.000000	-1.000000	-1.000000	-1.000000	-1.000000	81.379310	0.000000	-1.000000	-1.000000	1127071.000000	1770063750.279034
12138.660000	19501.065000	26006.265000	21492.405000	-7429.725000	-4160.385000	3087.180000	13351.770000	-4.539550	1.737229	1.377372	0.671468	2.172608	2.931231	1.787428	-4.142232	-1.587040	5.295220	-3.647140	0.920347	-0.061096	0.375121	-1.000000	-1.000000	-1.000000	-1.000000	-1.000000	-1.000000	-1.000000	81.379310	0.000000	-1.000000	-1.000000	1127072.000000	1770063750.279044
12132.810000	19501.425000	26005.680000	21492.720000	-7419.015000	-4151.520000	3089.160000	13338.045000	-5.138969	-0.717351	-1.715944	-2.400862	1.590326	2.992419	1.263330	-5.819397	-1.587040	5.295220	-3.647140	0.920347	-0.061096	0.375121	-1.000000	-1.000000	-1.000000	-1.000000	-1.000000	-1.000000	-1.000000	81.379310	0.000000	-1.000000	-1.000000	1127073.000000	1770063750.282976
12136.230000	19503.630000	26007.255000	21494.295000	-7415.460000	-4148.865000	3088.710000	13333.635000	-2.897129	-1.909766	-3.077312	-3.324434	2.057328	3.297200	0.824383	-4.811010	-1.587040	5.295220	-3.647140	0.920347	-0.061096	0.375121	-1.000000	-1.000000	-1.000000	-1.000000	-1.000000	-1.000000	-1.000000	81.379310	0.000000	-1.000000	-1.000000	1127074.000000	1770063750.282986
12146.805000	19509.795000	26015.310000	21502.215000	-7415.595000	-4155.930000	3084.705000	13345.695000	0.590528	-1.341164	-2.304395	-1.948491	3.117174	3.421511	0.513839	-2.408632	-1.587040	5.295220	-3.647140	0.920347	-0.061096	0.375121	-1.000000	-1.000000	-1.000000	-1.000000	-1.000000	-1.000000	-1.000000	81.379310	0.000000	-1.000000	-1.000000	1127075.000000	1770063750.291690
12145.455000	19509.030000	26015.445000	21503.475000	-7429.320000	-4162.635000	3083.670000	13336.335000	3.400717	0.173334	-0.306918	0.448554	2.882233	1.940424	-0.168144	0.270917	-1.587040	5.295220	-3.647140	0.920347	-0.061096	0.375121	-1.000000	-1.000000	-1.000000	-1.000000	-1.000000	-1.000000	-1.000000	81.379310	0.000000	-1.000000	-1.000000	1127076.000000	1770063750.291706
12139.065000	19503.225000	26010.045000	21501.675000	-7420.815000	-4161.240000	3080.745000	13326.930000	4.109157	1.098329	1.217466	1.957305	-0.128081	-1.683543	-1.441796	2.040050	-1.587040	5.295220	-3.647140	0.920347	-0.061096	0.375121	-1.000000	-1.000000	-1.000000	-1.000000	-1.000000	-1.000000	-1.000000	81.379310	0.000000	-1.000000	-1.000000	1127077.000000	1770063750.292976
12132.495000	19501.605000	26010.855000	21501.675000	-7411.275000	-4160.880000	3078.135000	13338.180000	2.451312	0.728402	1.385009	1.873504	-4.178686	-5.478676	-2.763033	1.922843	-1.587040	5.295220	-3.647140	0.920347	-0.061096	0.375121	-1.000000	-1.000000	-1.000000	-1.000000	-1.000000	-1.000000	-1.000000	81.379310	0.000000	-1.000000	-1.000000	1127078.000000	1770063750.292987
12139.290000	19511.010000	26019.900000	21504.735000	-7418.205000	-4159.305000	3086.415000	13354.695000	-0.074692	0.331113	1.417852	1.582841	-5.474545	-6.383574	-3.015416	0.836535	-1.587040	5.295220	-3.647140	0.920347	-0.061096	0.375121	-1.000000	-1.000000	-1.000000	-1.000000	-1.000000	-1.000000	-1.000000	81.379310	0.000000	-1.000000	-1.000000	1127079.000000	1770063750.297123
12143.880000	19516.905000	26021.745000	21502.125000	-7453.440000	-4167.540000	3088.800000	13345.830000	-1.326000	1.464842	2.698550	2.262511	-3.385838	-3.621195	-1.461153	0.581521	-1.587040	5.295220	-3.647140	0.920347	-0.061096	0.375121	-1.000000	-1.000000	-1.000000	-1.000000	-1.000000	-1.000000	-1.000000	81.379310	0.000000	-1.000000	-1.000000	1127080.000000	1770063750.297134
12152.385000	19517.670000	26020.980000	21503.610000	-7452.720000	-4168.215000	3083.805000	13336.110000	-0.517872	3.463217	4.223624	2.889180	-1.394839	0.355468	1.068516	1.100887	-1.022420	5.493600	-3.265640	0.919920	-0.061157	0.375121	-1.000000	-1.000000	-1.000000	-1.000000	-1.000000	-1.000000	-1.000000	81.379310	0.000000	-1.000000	-1.000000	1127081.000000	1770063750.298986
12146.670000	19513.800000	26017.470000	21502.080000	-7440.525000	-4165.200000	3079.620000	13333.635000	1.376155	4.059646	3.795407	1.907401	-1.547295	2.752188	2.692727	1.162220	-1.022420	5.493600	-3.265640	0.919920	-0.061157	0.375121	-1.000000	-1.000000	-1.000000	-1.000000	-1.000000	-1.000000	-1.000000	81.379310	0.000000	-1.000000	-1.000000	1127082.000000	1770063750.298997
12140.775000	19513.395000	26017.650000	21502.035000	-7437.735000	-4166.775000	3075.255000	13332.555000	2.347725	1.936062	0.720273	-0.702125	-1.900084	2.971537	2.383967	0.478249	-1.022420	5.493600	-3.265640	0.919920	-0.061157	0.375121	-1.000000	-1.000000	-1.000000	-1.000000	-1.000000	-1.000000	-1.000000	81.379310	0.000000	-1.000000	-1.000000	1127083.000000	1770063750.303067
12131.235000	19506.195000	26013.555000	21501.360000	-7434.990000	-4167.540000	3076.245000	13328.235000	0.698721	-2.220150	-3.698432	-3.728166	-0.219410	2.058447	0.730500	-0.581971	-1.022420	5.493600	-3.265640	0.919920	-0.061157	0.375121	-1.000000	-1.000000	-1.000000	-1.000000	-1.000000	-1.000000	-1.000000	81.379310	0.000000	-1.000000	-1.000000	1127084.000000	1770063750.303081
12125.745000	19496.655000	26004.375000	21493.620000	-7432.920000	-4164.705000	3082.005000	13320.000000	-3.140366	-6.468760	-7.394269	-5.873690	3.156700	1.129686	-0.805602	-1.601550	-1.022420	5.493600	-3.265640	0.919920	-0.061157	0.375121	-1.000000	-1.000000	-1.000000	-1.000000	-1.000000	-1.000000	-1.000000	81.379310	0.000000	-1.000000	-1.000000	1127085.000000	1770063750.307068
12128.535000	19493.820000	25998.570000	21490.110000	-7420.410000	-4154.805000	3089.610000	13319.640000	-6.414972	-8.656323	-8.650360	-6.249260	6.177900	0.803622	-0.968040	-2.086999	-1.022420	5.493600	-3.265640	0.919920	-0.061157	0.375121	-1.000000	-1.000000	-1.000000	-1.000000	-1.000000	-1.000000	-1.000000	81.379310	0.000000	-1.000000	-1.000000	1127086.000000	1770063750.307080
12143.700000	19503.855000	26008.740000	21499.875000	-7406.280000	-4144.770000	3095.730000	13339.575000	-6.072709	-7.163446	-6.502224	-4.221679	7.329191	1.369144	0.457739	-1.700278	-1.022420	5.493600	-3.265640	0.919920	-0.061157	0.375121	-1.000000	-1.000000	-1.000000	-1.000000	-1.000000	-1.000000	-1.000000	81.379310	0.000000	-1.000000	-1.000000	1127087.000000	1770063750.314613
12158.505000	19518.975000	26024.445000	21511.035000	-7411.365000	-4141.710000	3097.755000	13338.270000	-1.322704	-1.900426	-1.123383	0.263000	6.671816	2.564223	2.336440	-0.382233	-1.022420	5.493600	-3.265640	0.919920	-0.061157	0.375121	-1.000000	-1.000000	-1.000000	-1.000000	-1.000000	-1.000000	-1.000000	81.379310	0.000000	-1.000000	-1.000000	1127088.000000	1770063750.314626
12169.485000	19547.820000	26054.865000	21535.290000	-7415.010000	-4135.050000	3111.345000	13329.045000	5.378094	5.257760	5.908136	5.951436	4.745293	3.361454	3.159285	1.343428	-1.022420	5.493600	-3.265640	0.919920	-0.061157	0.375121	-1.000000	-1.000000	-1.000000	-1.000000	-1.000000	-1.000000	-1.000000	81.379310	0.000000	-1.000000	-1.000000	1127089.000000	1770063750.314926
12161.475000	19550.430000	26059.455000	21546.270000	-7393.995000	-4125.420000	3117.015000	13332.150000	9.908564	11.327961	11.981654	10.567356	1.741103	2.796789	2.602832	2.614262	-1.022420	5.493600	-3.265640	0.919920	-0.061157	0.375121	-1.000000	-1.000000	-1.000000	-1.000000	-1.000000	-1.000000	-1.000000	81.379310	0.000000	-1.000000	-1.000000	1127090.000000	1770063750.314934
12136.455000	19519.605000	26025.840000	21514.230000	-7414.695000	-4144.815000	3097.485000	13335.930000	9.047885	12.862173	13.603805	11.291407	-2.213314	0.511006	1.072518	3.096213	-1.983800	4.578000	-2.899400	0.918455	-0.059021	0.376525	-1.000000	-1.000000	-1.000000	-1.000000	-1.000000	-1.000000	-1.000000	81.379310	0.000000	-1.000000	-1.000000	1127091.000000	1770063750.319085
12143.430000	19502.280000	26007.660000	21492.810000	-7449.030000	-4174.875000	3075.480000	13374.855000	2.735388	7.410430	7.912887	5.784869	-7.208490	-3.633994	-1.700040	3.303535	-1.983800	4.578000	-2.899400	0.918455	-0.059021	0.376525	-1.000000	-1.000000	-1.000000	-1.000000	-1.000000	-1.000000	-1.000000	81.379310	0.000000	-1.000000	-1.000000	1127092.000000	1770063750.319092
12151.170000	19497.195000	26002.305000	21488.940000	-7455.690000	-4191.435000	3060.810000	13366.575000	-5.006260	-3.205072	-3.490912	-4.674405	-12.603555	-8.954205	-5.816381	3.942183	-1.983800	4.578000	-2.899400	0.918455	-0.059021	0.376525	-1.000000	-1.000000	-1.000000	-1.000000	-1.000000	-1.000000	-1.000000	81.379310	0.000000	-1.000000	-1.000000	1127093.000000	1770063750.324370
12146.895000	19489.770000	25993.485000	21481.740000	-7455.915000	-4189.365000	3062.880000	13354.110000	-9.098505	-12.824502	-14.092751	-14.258877	-15.580776	-12.878436	-9.579259	4.143284	-1.983800	4.578000	-2.899400	0.918455	-0.059021	0.376525	-1.000000	-1.000000	-1.000000	-1.000000	-1.000000	-1.000000	-1.000000	81.379310	0.000000	-1.000000	-1.000000	1127094.000000	1770063750.324383
12153.285000	19488.600000	25986.510000	21472.380000	-7459.830000	-4184.865000	3071.070000	13360.410000	-7.841449	-15.855487	-17.709901	-17.175083	-13.231966	-12.167452	-10.069767	1.801359	-1.983800	4.578000	-2.899400	0.918455	-0.059021	0.376525	-1.000000	-1.000000	-1.000000	-1.000000	-1.000000	-1.000000	-1.000000	81.379310	0.000000	-1.000000	-1.000000	1127095.000000	1770063750.338664
12156.705000	19509.165000	26008.785000	21494.070000	-7439.130000	-4165.830000	3083.445000	13356.270000	-3.353973	-11.100673	-12.850778	-11.997964	-5.357346	-5.614328	-5.599886	-3.425047	-1.983800	4.578000	-2.899400	0.918455	-0.059021	0.376525	-1.000000	-1.000000	-1.000000	-1.000000	-1.000000	-1.000000	-1.000000	81.379310	0.000000	-1.000000	-1.000000	1127096.000000	1770063750.338679
12159.765000	19523.880000	26027.730000	21513.870000	-7425.270000	-4162.590000	3082.770000	13349.880000	0.985254	-1.514787	-2.425798	-1.411751	5.977519	4.659114	2.328334	-9.066795	-1.983800	4.578000	-2.899400	0.918455	-0.059021	0.376525	-1.000000	-1.000000	-1.000000	-1.000000	-1.000000	-1.000000	-1.000000	81.379310	0.000000	-1.000000	-1.000000	1127097.000000	1770063750.338694
12150.630000	19513.395000	26017.335000	21503.745000	-7433.145000	-4167.765000	3083.220000	13341.195000	2.857907	7.606134	8.102906	9.357601	16.689260	13.794077	9.531930	-11.721231	-1.983800	4.578000	-2.899400	0.918455	-0.059021	0.376525	-1.000000	-1.000000	-1.000000	-1.000000	-1.000000	-1.000000	-1.000000	81.379310	0.000000	-1.000000	-1.000000	1127098.000000	1770063750.338700
12141.900000	19512.225000	26014.860000	21501.405000	-7431.570000	-4164.570000	3091.185000	13338.135000	2.198746	11.684006	13.525884	14.849887	21.190856	17.004913	12.415640	-9.693366	-1.983800	4.578000	-2.899400	0.918455	-0.059021	0.376525	-1.000000	-1.000000	-1.000000	-1.000000	-1.000000	-1.000000	-1.000000	81.379310	0.000000	-1.000000	-1.000000	1127099.000000	1770063750.338706
12131.055000	19503.990000	26006.130000	21493.710000	-7437.285000	-4170.330000	3080.745000	13327.785000	0.663470	10.187912	12.562206	13.385717	16.938729	13.407790	10.696656	-4.428129	-1.983800	4.578000	-2.899400	0.918455	-0.059021	0.376525	-1.000000	-1.000000	-1.000000	-1.000000	-1.000000	-1.000000	-1.000000	81.379310	0.000000	-1.000000	-1.000000	1127100.000000	1770063750.338711
12136.680000	19500.570000	26002.215000	21489.795000	-7442.370000	-4176.855000	3070.395000	13338.045000	-0.257775	5.873344	7.731160	7.640808	7.138290	6.231879	6.295611	0.874082	-3.982860	5.325740	-3.738700	0.919065	-0.056579	0.376281	-1.000000	-1.000000	-1.000000	-1.000000	-1.000000	-1.000000	-1.000000	81.379310	0.000000	-1.000000	-1.000000	1127101.000000	1770063750.340458
12137.805000	19501.110000	26003.745000	21491.145000	-7442.055000	-4176.495000	3070.575000	13341.105000	-0.121053	1.480002	2.134308	1.202662	-2.888650	-0.706540	1.075980	4.628500	-3.982860	5.325740	-3.738700	0.919065	-0.056579	0.376281	-1.000000	-1.000000	-1.000000	-1.000000	-1.000000	-1.000000	-1.000000	81.379310	0.000000	-1.000000	-1.000000	1127102.000000	1770063750.340472
12140.820000	19508.805000	26013.195000	21499.605000	-7436.475000	-4171.680000	3074.580000	13335.795000	0.909397	-1.433452	-1.931651	-3.345051	-9.589465	-5.445301	-3.587846	7.309148	-3.982860	5.325740	-3.738700	0.919065	-0.056579	0.376281	-1.000000	-1.000000	-1.000000	-1.000000	-1.000000	-1.000000	-1.000000	81.379310	0.000000	-1.000000	-1.000000	1127103.000000	1770063750.343009
12142.485000	19514.475000	26020.260000	21506.220000	-7430.805000	-4170.060000	3072.735000	13327.155000	2.130525	-2.474812	-3.388600	-4.805687	-11.763687	-7.782862	-6.771498	8.510088	-3.982860	5.325740	-3.738700	0.919065	-0.056579	0.376281	-1.000000	-1.000000	-1.000000	-1.000000	-1.000000	-1.000000	-1.000000	81.379310	0.000000	-1.000000	-1.000000	1127104.000000	1770063750.343022
12150.360000	19518.525000	26023.095000	21510.135000	-7423.920000	-4162.905000	3082.185000	13340.655000	2.558429	-2.691330	-3.280748	-4.158682	-10.084211	-8.272022	-8.015675	7.211353	-3.982860	5.325740	-3.738700	0.919065	-0.056579	0.376281	-1.000000	-1.000000	-1.000000	-1.000000	-1.000000	-1.000000	-1.000000	81.379310	0.000000	-1.000000	-1.000000	1127105.000000	1770063750.349013
12140.010000	19499.760000	26001.135000	21489.165000	-7435.665000	-4166.730000	3084.345000	13343.580000	1.713958	-3.761326	-4.018543	-3.943332	-6.454655	-7.309758	-7.000307	4.410947	-3.982860	5.325740	-3.738700	0.919065	-0.056579	0.376281	-1.000000	-1.000000	-1.000000	-1.000000	-1.000000	-1.000000	-1.000000	81.379310	0.000000	-1.000000	-1.000000	1127106.000000	1770063750.349024
12135.420000	19496.520000	25996.545000	21484.935000	-7435.395000	-4164.345000	3085.335000	13344.255000	-0.042431	-5.959158	-6.485623	-5.483049	-2.904056	-5.058525	-3.963221	2.078583	-3.982860	5.325740	-3.738700	0.919065	-0.056579	0.376281	-1.000000	-1.000000	-1.000000	-1.000000	-1.000000	-1.000000	-1.000000	81.379310	0.000000	-1.000000	-1.000000	1127107.000000	1770063750.351404
12141.675000	19507.995000	26009.685000	21497.220000	-7424.505000	-4158.270000	3088.755000	13343.175000	-1.429050	-7.044228	-8.189350	-6.826554	-0.171209	-1.769441	-0.049519	0.674761	-3.982860	5.325740	-3.738700	0.919065	-0.056579	0.376281	-1.000000	-1.000000	-1.000000	-1.000000	-1.000000	-1.000000	-1.000000	81.379310	0.000000	-1.000000	-1.000000	1127108.000000	1770063750.351418
12139.110000	19506.420000	26008.830000	21497.040000	-7423.740000	-4159.620000	3085.605000	13329.720000	-1.193431	-4.368476	-5.709753	-4.745351	2.505458	2.159817	3.563293	-0.891167	-3.982860	5.325740	-3.738700	0.919065	-0.056579	0.376281	-1.000000	-1.000000	-1.000000	-1.000000	-1.000000	-1.000000	-1.000000	81.379310	0.000000	-1.000000	-1.000000	1127109.000000	1770063750.357586
12121.965000	19500.255000	26006.040000	21497.580000	-7420.590000	-4153.680000	3086.775000	13334.985000	-0.053158	1.560948	0.862602	1.031295	5.437420	5.847016	6.045683	-3.568837	-3.982860	5.325740	-3.738700	0.919065	-0.056579	0.376281	-1.000000	-1.000000	-1.000000	-1.000000	-1.000000	-1.000000	-1.000000	81.379310	0.000000	-1.000000	-1.000000	1127110.000000	1770063750.357599
12127.455000	19498.680000	26002.395000	21493.395000	-7426.575000	-4157.505000	3086.325000	13348.935000	0.046507	7.050231	7.524669	7.076729	7.188903	7.717441	6.503419	-6.190277	-6.271860	4.990020	-2.685760	0.920347	-0.055420	0.374633	-1.000000	-1.000000	-1.000000	-1.000000	-1.000000	-1.000000	-1.000000	81.379310	0.000000	-1.000000	-1.000000	1127111.000000	1770063750.361806
12141.630000	19504.890000	26007.030000	21497.445000	-7424.550000	-4167.180000	3074.985000	13334.850000	-1.026586	8.768199	10.173387	9.568911	5.994484	6.213687	4.210325	-6.445782	-6.271860	4.990020	-2.685760	0.920347	-0.055420	0.374633	-1.000000	-1.000000	-1.000000	-1.000000	-1.000000	-1.000000	-1.000000	81.379310	0.000000	-1.000000	-1.000000	1127112.000000	1770063750.361817
12150.180000	19525.140000	26029.530000	21521.970000	-7393.230000	-4140.945000	3088.620000	13325.985000	-1.551530	6.379683	7.893587	7.506326	2.214630	1.593456	-0.282631	-4.219953	-6.271860	4.990020	-2.685760	0.920347	-0.055420	0.374633	-1.000000	-1.000000	-1.000000	-1.000000	-1.000000	-1.000000	-1.000000	81.379310	0.000000	-1.000000	-1.000000	1127113.000000	1770063750.363112
12151.530000	19514.160000	26019.180000	21514.455000	-7395.525000	-4142.340000	3093.930000	13342.950000	-0.608721	1.976619	2.895514	2.914782	-1.507768	-3.305554	-4.607651	-1.318219	-6.271860	4.990020	-2.685760	0.920347	-0.055420	0.374633	-1.000000	-1.000000	-1.000000	-1.000000	-1.000000	-1.000000	-1.000000	81.379310	0.000000	-1.000000	-1.000000	1127114.000000	1770063750.363129
12146.085000	19508.625000	26012.070000	21500.730000	-7434.765000	-4170.015000	3082.455000	13334.535000	1.084200	-2.128537	-1.962060	-1.642672	-3.628618	-6.003829	-6.461291	1.173168	-6.271860	4.990020	-2.685760	0.920347	-0.055420	0.374633	-1.000000	-1.000000	-1.000000	-1.000000	-1.000000	-1.000000	-1.000000	81.379310	0.000000	-1.000000	-1.000000	1127115.000000	1770063750.370486
12149.235000	19514.385000	26016.570000	21502.935000	-7448.040000	-4174.245000	3082.995000	13329.585000	2.360773	-4.493221	-4.871188	-4.789393	-5.423672	-6.727233	-5.615389	2.817239	-6.271860	4.990020	-2.685760	0.920347	-0.055420	0.374633	-1.000000	-1.000000	-1.000000	-1.000000	-1.000000	-1.000000	-1.000000	81.379310	0.000000	-1.000000	-1.000000	1127116.000000	1770063750.370492
12141.495000	19507.230000	26009.865000	21496.860000	-7448.490000	-4178.340000	3079.665000	13334.625000	2.412362	-4.707675	-5.384622	-6.079321	-7.640092	-6.262733	-3.099208	3.271519	-6.271860	4.990020	-2.685760	0.920347	-0.055420	0.374633	-1.000000	-1.000000	-1.000000	-1.000000	-1.000000	-1.000000	-1.000000	81.379310	0.000000	-1.000000	-1.000000	1127117.000000	1770063750.371023
12142.530000	19501.470000	26004.330000	21491.280000	-7458.885000	-4185.090000	3078.405000	13347.810000	1.079435	-3.452139	-4.244135	-5.614850	-8.406252	-4.330721	0.124016	3.075072	-6.271860	4.990020	-2.685760	0.920347	-0.055420	0.374633	-1.000000	-1.000000	-1.000000	-1.000000	-1.000000	-1.000000	-1.000000	81.379310	0.000000	-1.000000	-1.000000	1127118.000000	1770063750.371029
12142.575000	19500.300000	25999.830000	21486.960000	-7455.150000	-4180.095000	3078.990000	13341.195000	-0.775834	-1.710877	-2.505814	-3.881034	-5.814675	-0.877795	3.070301	2.847059	-6.271860	4.990020	-2.685760	0.920347	-0.055420	0.374633	-1.000000	-1.000000	-1.000000	-1.000000	-1.000000	-1.000000	-1.000000	81.379310	0.000000	-1.000000	-1.000000	1127119.000000	1770063750.375059
12137.355000	19504.035000	26005.230000	21492.990000	-7442.775000	-4169.520000	3084.660000	13332.420000	-2.147863	-0.042816	-0.746148	-1.389682	0.033820	3.409819	4.835732	1.933782	-6.271860	4.990020	-2.685760	0.920347	-0.055420	0.374633	-1.000000	-1.000000	-1.000000	-1.000000	-1.000000	-1.000000	-1.000000	81.379310	0.000000	-1.000000	-1.000000	1127120.000000	1770063750.375088
12135.195000	19505.340000	26008.515000	21497.625000	-7437.330000	-4166.370000	3086.955000	13335.885000	-3.133839	1.063968	0.702849	1.233563	6.990618	7.349636	5.110004	-0.094566	-1.831200	5.218920	-2.319520	0.919736	-0.059936	0.375182	-1.000000	-1.000000	-1.000000	-1.000000	-1.000000	-1.000000	-1.000000	81.379310	0.000000	-1.000000	-1.000000	1127121.000000	1770063750.379078
12145.545000	19513.620000	26016.345000	21506.130000	-7428.240000	-4160.970000	3089.655000	13341.960000	-3.905903	1.143816	1.413270	3.024392	11.494185	9.002892	3.852543	-2.008709	-1.831200	5.218920	-2.319520	0.919736	-0.059936	0.375182	-1.000000	-1.000000	-1.000000	-1.000000	-1.000000	-1.000000	-1.000000	81.379310	0.000000	-1.000000	-1.000000	1127122.000000	1770063750.379094
12151.620000	19516.095000	26016.705000	21504.150000	-7429.995000	-4162.635000	3087.585000	13342.680000	-3.412465	0.779626	1.624090	3.645413	11.396438	7.203792	1.225596	-2.622692	-1.831200	5.218920	-2.319520	0.919736	-0.059936	0.375182	-1.000000	-1.000000	-1.000000	-1.000000	-1.000000	-1.000000	-1.000000	81.379310	0.000000	-1.000000	-1.000000	1127123.000000	1770063750.382922
12151.260000	19512.945000	26014.230000	21501.630000	-7428.105000	-4163.355000	3086.595000	13339.620000	-0.721633	1.126468	2.141994	3.741305	8.076166	3.322709	-1.718062	-2.023195	-1.831200	5.218920	-2.319520	0.919736	-0.059936	0.375182	-1.000000	-1.000000	-1.000000	-1.000000	-1.000000	-1.000000	-1.000000	81.379310	0.000000	-1.000000	-1.000000	1127124.000000	1770063750.382932
12145.815000	19503.000000	26004.735000	21495.105000	-7428.780000	-4165.965000	3083.355000	13339.620000	3.061701	1.877566	2.675760	3.436547	4.077896	-0.359496	-3.553562	-0.828200	-1.831200	5.218920	-2.319520	0.919736	-0.059936	0.375182	-1.000000	-1.000000	-1.000000	-1.000000	-1.000000	-1.000000	-1.000000	81.379310	0.000000	-1.000000	-1.000000	1127125.000000	1770063750.387073
12142.305000	19503.270000	26005.095000	21496.005000	-7428.690000	-4166.595000	3080.385000	13325.265000	5.514154	1.771813	2.170516	2.207972	0.380883	-2.778346	-3.668562	0.026812	-1.831200	5.218920	-2.319520	0.919736	-0.059936	0.375182	-1.000000	-1.000000	-1.000000	-1.000000	-1.000000	-1.000000	-1.000000	81.379310	0.000000	-1.000000	-1.000000	1127126.000000	1770063750.387094
12140.505000	19507.275000	26009.370000	21498.075000	-7433.100000	-4166.955000	3079.845000	13304.745000	5.201376	0.796805	0.776236	0.336527	-3.063171	-3.901555	-2.416000	-0.712487	-1.831200	5.218920	-2.319520	0.919736	-0.059936	0.375182	-1.000000	-1.000000	-1.000000	-1.000000	-1.000000	-1.000000	-1.000000	81.379310	0.000000	-1.000000	-1.000000	1127127.000000	1770063750.391172
12130.695000	19498.950000	26001.225000	21489.975000	-7441.830000	-4170.555000	3075.975000	13307.625000	2.468913	-0.167268	-0.476955	-1.319118	-6.237119	-4.179985	-0.726325	-3.023300	-1.831200	5.218920	-2.319520	0.919736	-0.059936	0.375182	-1.000000	-1.000000	-1.000000	-1.000000	-1.000000	-1.000000	-1.000000	81.379310	0.000000	-1.000000	-1.000000	1127128.000000	1770063750.391181
12138.435000	19507.590000	26010.045000	21497.445000	-7433.145000	-4167.720000	3075.795000	13333.905000	-1.190303	-0.876528	-1.263670	-2.473467	-8.766701	-4.189063	0.427857	-4.150161	-1.831200	5.218920	-2.319520	0.919736	-0.059936	0.375182	-1.000000	-1.000000	-1.000000	-1.000000	-1.000000	-1.000000	-1.000000	81.379310	0.000000	-1.000000	-1.000000	1127129.000000	1770063750.395026
12139.830000	19508.805000	26013.240000	21500.010000	-7430.355000	-4167.630000	3081.105000	13362.120000	-3.868316	-1.483054	-1.823118	-3.228336	-9.711793	-4.070795	0.701482	-0.897462	-1.831200	5.218920	-2.319520	0.919736	-0.059936	0.375182	-1.000000	-1.000000	-1.000000	-1.000000	-1.000000	-1.000000	-1.000000	81.379310	0.000000	-1.000000	-1.000000	1127130.000000	1770063750.395036
12130.560000	19504.710000	26010.360000	21499.560000	-7426.800000	-4160.655000	3088.800000	13340.835000	-4.574387	-1.950303	-2.183280	-3.445463	-8.121693	-3.407257	0.585827	5.712462	-1.297100	5.096840	-0.686700	0.921934	-0.058166	0.374694	-1.000000	-1.000000	-1.000000	-1.000000	-1.000000	-1.000000	-1.000000	81.379310	0.000000	-1.000000	-1.000000	1127131.000000	1770063750.400566
12140.010000	19507.545000	26008.695000	21495.150000	-7428.330000	-4159.665000	3087.630000	13324.905000	-3.657474	-2.020028	-2.094328	-2.741994	-3.814827	-1.492377	0.850140	10.094827	-1.297100	5.096840	-0.686700	0.921934	-0.058166	0.374694	-1.000000	-1.000000	-1.000000	-1.000000	-1.000000	-1.000000	-1.000000	81.379310	0.000000	-1.000000	-1.000000	1127132.000000	1770063750.400579
12135.510000	19499.310000	26000.910000	21489.120000	-7429.725000	-4166.325000	3077.685000	13328.010000	-1.601188	-1.352191	-1.371553	-1.074188	2.066864	1.603361	1.486868	8.082732	-1.297100	5.096840	-0.686700	0.921934	-0.058166	0.374694	-1.000000	-1.000000	-1.000000	-1.000000	-1.000000	-1.000000	-1.000000	81.379310	0.000000	-1.000000	-1.000000	1127133.000000	1770063750.404048
12139.110000	19489.230000	25990.200000	21481.515000	-7433.415000	-4164.480000	3078.180000	13343.895000	1.151949	-0.132341	-0.316961	0.830196	7.052954	4.416785	1.668308	1.506433	-1.297100	5.096840	-0.686700	0.921934	-0.058166	0.374694	-1.000000	-1.000000	-1.000000	-1.000000	-1.000000	-1.000000	-1.000000	81.379310	0.000000	-1.000000	-1.000000	1127134.000000	1770063750.404061
12153.285000	19503.630000	26004.780000	21493.980000	-7426.215000	-4157.190000	3092.220000	13360.230000	3.893738	1.097017	0.676545	2.211146	9.017700	5.572041	1.238452	-4.057817	-1.297100	5.096840	-0.686700	0.921934	-0.058166	0.374694	-1.000000	-1.000000	-1.000000	-1.000000	-1.000000	-1.000000	-1.000000	81.379310	0.000000	-1.000000	-1.000000	1127135.000000	1770063750.409987
12155.085000	19510.020000	26012.025000	21500.055000	-7423.965000	-4161.105000	3095.505000	13356.720000	5.925541	2.306344	1.838445	3.141097	7.828350	4.851494	1.022387	-4.787186	-1.297100	5.096840	-0.686700	0.921934	-0.058166	0.374694	-1.000000	-1.000000	-1.000000	-1.000000	-1.000000	-1.000000	-1.000000	81.379310	0.000000	-1.000000	-1.000000	1127136.000000	1770063750.410004
12157.695000	19520.595000	26022.015000	21509.370000	-7419.195000	-4160.205000	3092.445000	13341.645000	6.389292	3.606242	3.402790	3.954425	4.761105	2.616039	1.240128	-2.061903	-1.297100	5.096840	-0.686700	0.921934	-0.058166	0.374694	-1.000000	-1.000000	-1.000000	-1.000000	-1.000000	-1.000000	-1.000000	81.379310	0.000000	-1.000000	-1.000000	1127137.000000	1770063750.411069
12145.545000	19512.810000	26014.230000	21500.595000	-7443.945000	-4173.930000	3079.935000	13332.555000	4.282984	4.169566	4.379669	4.025359	0.645162	-0.640272	0.831127	-0.713072	-1.297100	5.096840	-0.686700	0.921934	-0.058166	0.374694	-1.000000	-1.000000	-1.000000	-1.000000	-1.000000	-1.000000	-1.000000	81.379310	0.000000	-1.000000	-1.000000	1127138.000000	1770063750.411074
12136.635000	19501.695000	26002.845000	21489.795000	-7451.865000	-4180.455000	3077.595000	13343.895000	-0.564932	2.553355	3.008021	2.000703	-4.437048	-4.263799	-1.265577	-3.270620	-1.297100	5.096840	-0.686700	0.921934	-0.058166	0.374694	-1.000000	-1.000000	-1.000000	-1.000000	-1.000000	-1.000000	-1.000000	81.379310	0.000000	-1.000000	-1.000000	1127139.000000	1770063750.414987
12137.580000	19500.390000	26002.710000	21490.155000	-7445.295000	-4176.090000	3083.310000	13345.920000	-6.329400	-1.338292	-0.906812	-2.059353	-9.007169	-6.965725	-4.329722	-6.706951	-1.297100	5.096840	-0.686700	0.921934	-0.058166	0.374694	-1.000000	-1.000000	-1.000000	-1.000000	-1.000000	-1.000000	-1.000000	81.379310	0.000000	-1.000000	-1.000000	1127140.000000	1770063750.414998
12138.885000	19504.710000	26007.210000	21496.095000	-7439.490000	-4170.240000	3086.145000	13330.710000	-9.834719	-5.280265	-4.911709	-5.631985	-9.869309	-6.835885	-5.882345	-6.480027	-2.350040	5.142620	-1.739640	0.923215	-0.054199	0.372863	-1.000000	-1.000000	-1.000000	-1.000000	-1.000000	-1.000000	-1.000000	81.379310	0.000000	-1.000000	-1.000000	1127141.000000	1770063750.419008
12146.985000	19511.100000	26013.735000	21502.710000	-7432.965000	-4162.455000	3087.450000	13321.395000	-8.854297	-6.324939	-5.888219	-5.836672	-5.426156	-2.966361	-4.061930	-2.404956	-2.350040	5.142620	-1.739640	0.923215	-0.054199	0.372863	-1.000000	-1.000000	-1.000000	-1.000000	-1.000000	-1.000000	-1.000000	81.379310	0.000000	-1.000000	-1.000000	1127142.000000	1770063750.419014
12141.405000	19505.745000	26008.110000	21497.265000	-7435.305000	-4165.290000	3081.870000	13323.915000	-3.836175	-3.497711	-3.005512	-2.360442	2.162521	2.991457	0.244843	1.997422	-2.350040	5.142620	-1.739640	0.923215	-0.054199	0.372863	-1.000000	-1.000000	-1.000000	-1.000000	-1.000000	-1.000000	-1.000000	81.379310	0.000000	-1.000000	-1.000000	1127143.000000	1770063750.425866
12129.705000	19494.270000	25999.020000	21489.030000	-7441.560000	-4174.290000	3072.960000	13330.890000	1.997952	0.779290	1.133464	1.893920	8.407294	7.425007	3.869398	4.280653	-2.350040	5.142620	-1.739640	0.923215	-0.054199	0.372863	-1.000000	-1.000000	-1.000000	-1.000000	-1.000000	-1.000000	-1.000000	81.379310	0.000000	-1.000000	-1.000000	1127144.000000	1770063750.425876
12138.030000	19504.665000	26010.180000	21500.910000	-7431.570000	-4167.900000	3076.380000	13334.670000	5.265753	3.032621	3.106088	3.671521	9.882935	7.661828	4.357161	4.890633	-2.350040	5.142620	-1.739640	0.923215	-0.054199	0.372863	-1.000000	-1.000000	-1.000000	-1.000000	-1.000000	-1.000000	-1.000000	81.379310	0.000000	-1.000000	-1.000000	1127145.000000	1770063750.427071
12143.925000	19509.345000	26012.745000	21502.890000	-7426.530000	-4162.905000	3081.375000	13338.360000	5.484341	2.464518	2.239648	2.564607	6.794709	4.351911	2.407603	5.211655	-2.350040	5.142620	-1.739640	0.923215	-0.054199	0.372863	-1.000000	-1.000000	-1.000000	-1.000000	-1.000000	-1.000000	-1.000000	81.379310	0.000000	-1.000000	-1.000000	1127146.000000	1770063750.427078
12143.835000	19507.320000	26011.530000	21501.810000	-7424.325000	-4162.500000	3082.635000	13344.795000	4.428584	0.879891	0.359382	0.468088	2.163527	0.364547	0.583703	5.405027	-2.350040	5.142620	-1.739640	0.923215	-0.054199	0.372863	-1.000000	-1.000000	-1.000000	-1.000000	-1.000000	-1.000000	-1.000000	81.379310	0.000000	-1.000000	-1.000000	1127147.000000	1770063750.431040
12146.715000	19511.325000	26014.635000	21504.960000	-7416.495000	-4160.970000	3082.185000	13346.145000	3.528435	0.159033	-0.611221	-0.742795	-1.164959	-2.095970	0.216549	4.524383	-2.350040	5.142620	-1.739640	0.923215	-0.054199	0.372863	-1.000000	-1.000000	-1.000000	-1.000000	-1.000000	-1.000000	-1.000000	81.379310	0.000000	-1.000000	-1.000000	1127148.000000	1770063750.431046
12144.195000	19507.095000	26009.145000	21499.875000	-7414.875000	-4163.040000	3078.360000	13342.095000	2.769089	0.705316	-0.150918	-0.540081	-2.450329	-2.816302	0.539230	2.155112	-2.350040	5.142620	-1.739640	0.923215	-0.054199	0.372863	-1.000000	-1.000000	-1.000000	-1.000000	-1.000000	-1.000000	-1.000000	81.379310	0.000000	-1.000000	-1.000000	1127149.000000	1770063750.435045
12129.615000	19500.210000	26005.905000	21497.895000	-7414.110000	-4157.820000	3080.115000	13328.595000	1.152641	1.346662	0.678759	0.116303	-2.702956	-2.717160	0.360347	-0.982554	-2.350040	5.142620	-1.739640	0.923215	-0.054199	0.372863	-1.000000	-1.000000	-1.000000	-1.000000	-1.000000	-1.000000	-1.000000	81.379310	0.000000	-1.000000	-1.000000	1127150.000000	1770063750.435052
12125.385000	19490.220000	25993.080000	21478.860000	-7449.615000	-4176.090000	3076.965000	13328.010000	-1.932427	0.707935	0.523935	-0.126032	-3.503175	-2.686124	-0.461568	-3.898649	-5.264700	4.639040	-1.587040	0.922544	-0.052429	0.371764	-1.000000	-1.000000	-1.000000	-1.000000	-1.000000	-1.000000	-1.000000	81.379310	0.000000	-1.000000	-1.000000	1127151.000000	1770063750.439137
12137.805000	19498.230000	25999.110000	21484.575000	-7441.515000	-4171.680000	3076.605000	13335.165000	-5.156409	-1.058684	-0.727645	-1.518606	-5.557318	-3.040425	-1.277645	-5.755380	-5.264700	4.639040	-1.587040	0.922544	-0.052429	0.371764	-1.000000	-1.000000	-1.000000	-1.000000	-1.000000	-1.000000	-1.000000	81.379310	0.000000	-1.000000	-1.000000	1127152.000000	1770063750.439143
12148.110000	19514.835000	26017.920000	21506.715000	-7409.655000	-4152.060000	3082.590000	13340.295000	-5.774044	-2.109539	-1.604398	-2.474095	-6.819706	-2.794045	-1.412297	-5.767860	-5.264700	4.639040	-1.587040	0.922544	-0.052429	0.371764	-1.000000	-1.000000	-1.000000	-1.000000	-1.000000	-1.000000	-1.000000	81.379310	0.000000	-1.000000	-1.000000	1127153.000000	1770063750.443092
12143.835000	19512.720000	26015.085000	21499.065000	-7424.415000	-4161.015000	3080.655000	13335.390000	-2.861246	-1.138229	-0.794090	-1.362490	-4.506037	-0.767838	-0.688885	-3.810183	-5.264700	4.639040	-1.587040	0.922544	-0.052429	0.371764	-1.000000	-1.000000	-1.000000	-1.000000	-1.000000	-1.000000	-1.000000	81.379310	0.000000	-1.000000	-1.000000	1127154.000000	1770063750.443100
12143.655000	19513.260000	26016.525000	21502.665000	-7412.310000	-4155.255000	3082.095000	13334.130000	1.251964	0.814938	0.980891	1.068612	0.662053	2.142144	0.292324	-0.992932	-5.264700	4.639040	-1.587040	0.922544	-0.052429	0.371764	-1.000000	-1.000000	-1.000000	-1.000000	-1.000000	-1.000000	-1.000000	81.379310	0.000000	-1.000000	-1.000000	1127155.000000	1770063750.447029
12145.005000	19507.815000	26011.125000	21504.105000	-7395.480000	-4143.465000	3087.405000	13337.550000	3.739058	1.878494	2.052217	2.934854	5.745408	4.162026	0.842829	1.146473	-5.264700	4.639040	-1.587040	0.922544	-0.052429	0.371764	-1.000000	-1.000000	-1.000000	-1.000000	-1.000000	-1.000000	-1.000000	81.379310	0.000000	-1.000000	-1.000000	1127156.000000	1770063750.447039
12150.000000	19506.690000	26006.670000	21495.060000	-7415.955000	-4153.680000	3087.315000	13344.615000	3.775154	1.331011	1.613188	3.238336	8.373805	4.532212	0.886322	2.144416	-5.264700	4.639040	-1.587040	0.922544	-0.052429	0.371764	-1.000000	-1.000000	-1.000000	-1.000000	-1.000000	-1.000000	-1.000000	81.379310	0.000000	-1.000000	-1.000000	1127157.000000	1770063750.450953
12151.485000	19508.040000	26007.660000	21489.075000	-7470.405000	-4179.195000	3084.210000	13347.945000	2.285345	-0.209721	0.034798	1.794133	6.173546	2.662245	0.582408	2.833611	-5.264700	4.639040	-1.587040	0.922544	-0.052429	0.371764	-1.000000	-1.000000	-1.000000	-1.000000	-1.000000	-1.000000	-1.000000	81.379310	0.000000	-1.000000	-1.000000	1127158.000000	1770063750.450961
12144.825000	19505.655000	26008.425000	21493.800000	-7462.305000	-4176.990000	3081.645000	13341.060000	0.623096	-1.405306	-1.410727	-0.568823	-1.197934	-1.494446	-0.050554	3.811762	-5.264700	4.639040	-1.587040	0.922544	-0.052429	0.371764	-1.000000	-1.000000	-1.000000	-1.000000	-1.000000	-1.000000	-1.000000	81.379310	0.000000	-1.000000	-1.000000	1127159.000000	1770063750.455332
12139.695000	19509.345000	26015.400000	21503.790000	-7433.595000	-4166.370000	3082.995000	13330.980000	-0.684678	-1.306601	-1.439633	-1.889851	-8.296048	-5.433134	-0.824674	4.070807	-5.264700	4.639040	-1.587040	0.922544	-0.052429	0.371764	-1.000000	-1.000000	-1.000000	-1.000000	-1.000000	-1.000000	-1.000000	81.379310	0.000000	-1.000000	-1.000000	1127160.000000	1770063750.455341
12141.405000	19513.980000	26020.125000	21510.450000	-7421.715000	-4160.880000	3084.165000	13330.170000	-1.974971	-0.197314	-0.026878	-1.013135	-8.351610	-5.825119	-1.254445	2.064643	-2.731540	3.815000	-1.724380	0.922117	-0.057495	0.373351	-1.000000	-1.000000	-1.000000	-1.000000	-1.000000	-1.000000	-1.000000	81.379310	0.000000	-1.000000	-1.000000	1127161.000000	1770063750.468645
12142.035000	19513.350000	26017.560000	21504.240000	-7439.400000	-4168.125000	3077.280000	13333.905000	-3.263782	0.673032	1.279258	0.671102	-1.745958	-2.578112	-1.179663	-1.798226	-2.731540	3.815000	-1.724380	0.922117	-0.057495	0.373351	-1.000000	-1.000000	-1.000000	-1.000000	-1.000000	-1.000000	-1.000000	81.379310	0.000000	-1.000000	-1.000000	1127162.000000	1770063750.468656
12139.110000	19507.860000	26010.630000	21495.960000	-7447.905000	-4172.265000	3078.990000	13333.995000	-3.813281	0.299227	0.878494	0.844373	5.042505	1.380489	-0.947582	-4.974828	-2.731540	3.815000	-1.724380	0.922117	-0.057495	0.373351	-1.000000	-1.000000	-1.000000	-1.000000	-1.000000	-1.000000	-1.000000	81.379310	0.000000	-1.000000	-1.000000	1127163.000000	1770063750.468668
12136.005000	19501.875000	26004.780000	21489.795000	-7447.995000	-4174.740000	3081.420000	13331.970000	-2.989775	-1.086254	-1.143809	-1.051095	6.988977	3.436893	-0.689583	-5.417957	-2.731540	3.815000	-1.724380	0.922117	-0.057495	0.373351	-1.000000	-1.000000	-1.000000	-1.000000	-1.000000	-1.000000	-1.000000	81.379310	0.000000	-1.000000	-1.000000	1127164.000000	1770063750.468673
12139.650000	19504.800000	26007.930000	21493.665000	-7441.605000	-4174.155000	3080.655000	13333.320000	-0.995405	-2.249090	-3.103836	-3.449436	4.008960	2.952057	-0.242882	-3.337906	-2.731540	3.815000	-1.724380	0.922117	-0.057495	0.373351	-1.000000	-1.000000	-1.000000	-1.000000	-1.000000	-1.000000	-1.000000	81.379310	0.000000	-1.000000	-1.000000	1127165.000000	1770063750.468679
12144.870000	19509.480000	26012.295000	21498.075000	-7434.225000	-4167.810000	3085.155000	13336.380000	1.394941	-1.966844	-3.158050	-4.013239	0.013070	1.362903	0.440077	-0.287373	-2.731540	3.815000	-1.724380	0.922117	-0.057495	0.373351	-1.000000	-1.000000	-1.000000	-1.000000	-1.000000	-1.000000	-1.000000	81.379310	0.000000	-1.000000	-1.000000	1127166.000000	1770063750.468683
12145.590000	19508.985000	26011.620000	21497.670000	-7430.490000	-4164.030000	3086.055000	13336.110000	3.463108	-0.036734	-0.892797	-1.648931	-0.526497	0.979360	1.337393	2.410759	-2.731540	3.815000	-1.724380	0.922117	-0.057495	0.373351	-1.000000	-1.000000	-1.000000	-1.000000	-1.000000	-1.000000	-1.000000	81.379310	0.000000	-1.000000	-1.000000	1127167.000000	1770063750.476757
12137.625000	19501.785000	26004.600000	21491.595000	-7431.750000	-4163.580000	3084.435000	13332.285000	4.605933	2.369607	2.153149	2.157747	2.667618	2.355976	2.187091	4.080448	-2.731540	3.815000	-1.724380	0.922117	-0.057495	0.373351	-1.000000	-1.000000	-1.000000	-1.000000	-1.000000	-1.000000	-1.000000	81.379310	0.000000	-1.000000	-1.000000	1127168.000000	1770063750.476767
12133.665000	19500.435000	26004.150000	21492.540000	-7429.770000	-4161.465000	3084.300000	13329.405000	4.141353	3.465564	3.719524	4.532803	5.133166	3.544697	2.365577	4.335629	-2.731540	3.815000	-1.724380	0.922117	-0.057495	0.373351	-1.000000	-1.000000	-1.000000	-1.000000	-1.000000	-1.000000	-1.000000	81.379310	0.000000	-1.000000	-1.000000	1127169.000000	1770063750.476778
12135.105000	19507.230000	26010.450000	21495.510000	-7436.340000	-4165.335000	3083.130000	13328.370000	1.872326	2.400475	2.807822	3.871380	2.926863	2.472564	1.489986	3.001798	-2.731540	3.815000	-1.724380	0.922117	-0.057495	0.373351	-1.000000	-1.000000	-1.000000	-1.000000	-1.000000	-1.000000	-1.000000	81.379310	0.000000	-1.000000	-1.000000	1127170.000000	1770063750.476783
12142.755000	19515.780000	26023.545000	21511.080000	-7428.465000	-4160.970000	3084.255000	13332.960000	-1.093690	0.239536	0.687412	1.372896	-2.845988	-0.689034	-0.040532	0.567185	-0.183120	3.525060	-1.266580	0.921384	-0.061523	0.373900	-1.000000	-1.000000	-1.000000	-1.000000	-1.000000	-1.000000	-1.000000	81.379310	0.000000	-1.000000	-1.000000	1127171.000000	1770063750.478987
12150.990000	19518.795000	26025.030000	21513.285000	-7420.455000	-4154.715000	3084.480000	13336.335000	-2.783899	-1.007247	-0.372696	-0.225463	-7.431177	-3.682041	-1.397917	-1.689511	-0.183120	3.525060	-1.266580	0.921384	-0.061523	0.373900	-1.000000	-1.000000	-1.000000	-1.000000	-1.000000	-1.000000	-1.000000	81.379310	0.000000	-1.000000	-1.000000	1127172.000000	1770063750.478998
12142.845000	19504.755000	26008.065000	21497.805000	-7428.465000	-4162.320000	3081.510000	13337.640000	-2.258722	-0.640203	0.174916	0.028513	-7.763424	-4.638259	-2.124100	-2.607682	-0.183120	3.525060	-1.266580	0.921384	-0.061523	0.373900	-1.000000	-1.000000	-1.000000	-1.000000	-1.000000	-1.000000	-1.000000	81.379310	0.000000	-1.000000	-1.000000	1127173.000000	1770063750.483014
12136.185000	19497.240000	26000.775000	21489.930000	-7433.055000	-4168.575000	3079.080000	13336.605000	-0.824976	-0.067124	0.524560	0.319388	-4.913189	-3.809579	-2.288617	-2.144607	-0.183120	3.525060	-1.266580	0.921384	-0.061523	0.373900	-1.000000	-1.000000	-1.000000	-1.000000	-1.000000	-1.000000	-1.000000	81.379310	0.000000	-1.000000	-1.000000	1127174.000000	1770063750.483031
12139.380000	19502.865000	26006.265000	21493.170000	-7429.860000	-4170.645000	3078.630000	13340.520000	-0.364978	-0.687986	-0.721282	-0.926994	-1.315942	-2.460889	-2.044022	-1.099896	-0.183120	3.525060	-1.266580	0.921384	-0.061523	0.373900	-1.000000	-1.000000	-1.000000	-1.000000	-1.000000	-1.000000	-1.000000	81.379310	0.000000	-1.000000	-1.000000	1127175.000000	1770063750.487148
12128.490000	19486.935000	25987.545000	21471.255000	-7454.385000	-4175.460000	3077.820000	13333.500000	-1.083204	-2.070661	-2.780340	-3.123189	1.423540	-1.304167	-1.378459	-0.167802	-0.183120	3.525060	-1.266580	0.921384	-0.061523	0.373900	-1.000000	-1.000000	-1.000000	-1.000000	-1.000000	-1.000000	-1.000000	81.379310	0.000000	-1.000000	-1.000000	1127176.000000	1770063750.487158
12129.030000	19487.070000	25985.745000	21470.850000	-7451.415000	-4163.355000	3086.370000	13335.120000	-1.826561	-2.966163	-4.164381	-4.865364	2.149517	-0.285636	-0.160236	0.382637	-0.183120	3.525060	-1.266580	0.921384	-0.061523	0.373900	-1.000000	-1.000000	-1.000000	-1.000000	-1.000000	-1.000000	-1.000000	81.379310	0.000000	-1.000000	-1.000000	1127177.000000	1770063750.493117
12133.890000	19504.395000	26008.380000	21498.030000	-7425.090000	-4166.460000	3078.135000	13334.670000	-1.502329	-2.420517	-3.728678	-4.691653	1.274417	0.947734	1.443062	0.589825	-0.183120	3.525060	-1.266580	0.921384	-0.061523	0.373900	-1.000000	-1.000000	-1.000000	-1.000000	-1.000000	-1.000000	-1.000000	81.379310	0.000000	-1.000000	-1.000000	1127178.000000	1770063750.493127
12130.380000	19512.360000	26021.385000	21513.600000	-7412.805000	-4157.595000	3080.160000	13320.450000	-0.008690	-0.080399	-0.812036	-1.389417	1.326427	2.412076	2.624175	0.362056	-0.183120	3.525060	-1.266580	0.921384	-0.061523	0.373900	-1.000000	-1.000000	-1.000000	-1.000000	-1.000000	-1.000000	-1.000000	81.379310	0.000000	-1.000000	-1.000000	1127179.000000	1770063750.495227
12136.185000	19516.725000	26024.310000	21516.480000	-7411.725000	-4150.305000	3092.220000	13326.660000	1.623880	3.096042	3.571476	4.063270	3.555755	3.705340	2.814342	-0.568175	-0.183120	3.525060	-1.266580	0.921384	-0.061523	0.373900	-1.000000	-1.000000	-1.000000	-1.000000	-1.000000	-1.000000	-1.000000	81.379310	0.000000	-1.000000	-1.000000	1127180.000000	1770063750.495235
12150.360000	19531.260000	26039.520000	21529.305000	-7405.740000	-4141.620000	3105.000000	13329.180000	2.568842	5.481473	7.090109	8.548853	5.929899	4.348335	2.509943	-1.671902	-1.587040	3.601360	-2.121140	0.922361	-0.061462	0.371947	-1.000000	-1.000000	-1.000000	-1.000000	-1.000000	-1.000000	-1.000000	81.379310	0.000000	-1.000000	-1.000000	1127181.000000	1770063750.500710
12159.180000	19536.525000	26043.930000	21532.635000	-7401.870000	-4135.995000	3102.660000	13323.690000	3.189502	6.374161	8.350304	9.814073	5.977353	4.103515	2.320519	-1.880949	-1.587040	3.601360	-2.121140	0.922361	-0.061462	0.371947	-1.000000	-1.000000	-1.000000	-1.000000	-1.000000	-1.000000	-1.000000	81.379310	0.000000	-1.000000	-1.000000	1127182.000000	1770063750.500721
12156.795000	19512.135000	26013.960000	21499.965000	-7436.340000	-4164.390000	3076.380000	13342.545000	3.765100	5.317361	6.674710	7.126526	2.933938	2.668339	1.527672	-0.757871	-1.587040	3.601360	-2.121140	0.922361	-0.061462	0.371947	-1.000000	-1.000000	-1.000000	-1.000000	-1.000000	-1.000000	-1.000000	81.379310	0.000000	-1.000000	-1.000000	1127183.000000	1770063750.503191
12152.835000	19492.605000	25993.125000	21481.515000	-7444.530000	-4171.320000	3076.785000	13351.140000	3.395482	1.236366	1.176834	0.378559	-2.661274	-0.595555	-1.103234	1.602871	-1.587040	3.601360	-2.121140	0.922361	-0.061462	0.371947	-1.000000	-1.000000	-1.000000	-1.000000	-1.000000	-1.000000	-1.000000	81.379310	0.000000	-1.000000	-1.000000	1127184.000000	1770063750.503203
12150.495000	19505.250000	26010.360000	21500.235000	-7429.815000	-4172.130000	3077.010000	13351.275000	1.333139	-4.977712	-6.490672	-7.842204	-8.115378	-5.092697	-4.819087	4.443650	-1.587040	3.601360	-2.121140	0.922361	-0.061462	0.371947	-1.000000	-1.000000	-1.000000	-1.000000	-1.000000	-1.000000	-1.000000	81.379310	0.000000	-1.000000	-1.000000	1127185.000000	1770063750.507084
12138.435000	19496.610000	26003.520000	21495.600000	-7430.805000	-4178.115000	3068.640000	13356.405000	-1.930749	-9.604080	-11.593066	-12.499714	-9.715971	-8.489777	-7.157865	6.061304	-1.587040	3.601360	-2.121140	0.922361	-0.061462	0.371947	-1.000000	-1.000000	-1.000000	-1.000000	-1.000000	-1.000000	-1.000000	81.379310	0.000000	-1.000000	-1.000000	1127186.000000	1770063750.507095
12127.995000	19486.080000	25995.870000	21488.850000	-7435.665000	-4179.870000	3065.265000	13350.105000	-5.408417	-10.295215	-11.546951	-11.525222	-6.992992	-8.784194	-6.547634	5.052410	-1.587040	3.601360	-2.121140	0.922361	-0.061462	0.371947	-1.000000	-1.000000	-1.000000	-1.000000	-1.000000	-1.000000	-1.000000	81.379310	0.000000	-1.000000	-1.000000	1127187.000000	1770063750.513474
12134.700000	19498.320000	26005.770000	21496.770000	-7427.745000	-4168.665000	3073.455000	13339.575000	-7.799410	-7.711512	-7.782151	-7.113554	-2.585050	-5.571674	-3.183324	1.436550	-1.587040	3.601360	-2.121140	0.922361	-0.061462	0.371947	-1.000000	-1.000000	-1.000000	-1.000000	-1.000000	-1.000000	-1.000000	81.379310	0.000000	-1.000000	-1.000000	1127188.000000	1770063750.513484
12146.490000	19502.100000	26002.845000	21490.830000	-7429.905000	-4165.830000	3078.630000	13332.600000	-7.454770	-3.013850	-2.429800	-1.829176	1.381354	-0.037395	1.437669	-3.605955	-1.587040	3.601360	-2.121140	0.922361	-0.061462	0.371947	-1.000000	-1.000000	-1.000000	-1.000000	-1.000000	-1.000000	-1.000000	81.379310	0.000000	-1.000000	-1.000000	1127189.000000	1770063750.517035
12137.850000	19491.705000	25990.695000	21474.090000	-7457.355000	-4178.745000	3074.805000	13325.175000	-4.014058	2.415188	2.724957	2.623871	3.696108	5.223582	5.152696	-8.157431	-1.587040	3.601360	-2.121140	0.922361	-0.061462	0.371947	-1.000000	-1.000000	-1.000000	-1.000000	-1.000000	-1.000000	-1.000000	81.379310	0.000000	-1.000000	-1.000000	1127190.000000	1770063750.517042
12128.940000	19490.445000	25990.785000	21476.385000	-7455.780000	-4179.375000	3073.860000	13320.855000	0.540676	6.496743	6.083796	5.183591	3.673305	7.692889	6.518363	-10.148278	-3.998120	4.776380	-3.082520	0.928525	-0.059692	0.367614	-1.000000	-1.000000	-1.000000	-1.000000	-1.000000	-1.000000	-1.000000	81.379310	0.000000	-1.000000	-1.000000	1127191.000000	1770063750.520164
12131.775000	19494.585000	25995.375000	21480.435000	-7453.665000	-4181.580000	3068.730000	13325.535000	3.819800	8.344517	7.712141	6.611016	2.754961	7.189598	5.812896	-8.618142	-3.998120	4.776380	-3.082520	0.928525	-0.059692	0.367614	-1.000000	-1.000000	-1.000000	-1.000000	-1.000000	-1.000000	-1.000000	81.379310	0.000000	-1.000000	-1.000000	1127192.000000	1770063750.520174
12136.995000	19503.315000	26006.130000	21489.885000	-7451.280000	-4178.205000	3073.050000	13330.845000	5.309656	8.762694	8.852066	8.362242	3.244844	5.372654	4.051283	-4.092223	-3.998120	4.776380	-3.082520	0.928525	-0.059692	0.367614	-1.000000	-1.000000	-1.000000	-1.000000	-1.000000	-1.000000	-1.000000	81.379310	0.000000	-1.000000	-1.000000	1127193.000000	1770063750.524905
12123.495000	19495.800000	25998.390000	21482.460000	-7453.665000	-4181.985000	3073.050000	13320.270000	5.648973	7.982344	9.193089	9.610049	4.779588	3.269658	1.840686	1.811804	-3.998120	4.776380	-3.082520	0.928525	-0.059692	0.367614	-1.000000	-1.000000	-1.000000	-1.000000	-1.000000	-1.000000	-1.000000	81.379310	0.000000	-1.000000	-1.000000	1127194.000000	1770063750.524912
12129.390000	19505.970000	26010.765000	21497.850000	-7432.650000	-4167.270000	3076.650000	13315.095000	5.063524	5.227373	7.017215	8.015054	5.174539	1.089496	-0.271484	6.608887	-3.998120	4.776380	-3.082520	0.928525	-0.059692	0.367614	-1.000000	-1.000000	-1.000000	-1.000000	-1.000000	-1.000000	-1.000000	81.379310	0.000000	-1.000000	-1.000000	1127195.000000	1770063750.527118
12140.415000	19506.285000	26010.720000	21498.885000	-7430.805000	-4163.445000	3079.935000	13325.175000	3.846854	0.769760	2.129275	3.230110	3.703196	-0.709672	-1.659112	8.615277	-3.998120	4.776380	-3.082520	0.928525	-0.059692	0.367614	-1.000000	-1.000000	-1.000000	-1.000000	-1.000000	-1.000000	-1.000000	81.379310	0.000000	-1.000000	-1.000000	1127196.000000	1770063750.527126
12146.580000	19506.195000	26008.605000	21496.230000	-7434.945000	-4171.365000	3075.570000	13336.605000	2.482185	-3.981236	-3.736286	-2.806618	0.950978	-2.126463	-2.433528	8.429920	-3.998120	4.776380	-3.082520	0.928525	-0.059692	0.367614	-1.000000	-1.000000	-1.000000	-1.000000	-1.000000	-1.000000	-1.000000	81.379310	0.000000	-1.000000	-1.000000	1127197.000000	1770063750.531126
12131.235000	19503.630000	26008.110000	21496.455000	-7432.605000	-4171.635000	3076.065000	13331.250000	0.543309	-7.702097	-8.441372	-7.722137	-2.299114	-3.770619	-3.299976	7.265724	-3.998120	4.776380	-3.082520	0.928525	-0.059692	0.367614	-1.000000	-1.000000	-1.000000	-1.000000	-1.000000	-1.000000	-1.000000	81.379310	0.000000	-1.000000	-1.000000	1127198.000000	1770063750.531137
12122.640000	19493.550000	25997.445000	21483.360000	-7450.965000	-4178.610000	3073.365000	13319.055000	-2.584466	-9.258048	-10.224230	-9.674801	-4.781914	-5.277214	-4.173919	4.981720	-3.998120	4.776380	-3.082520	0.928525	-0.059692	0.367614	-1.000000	-1.000000	-1.000000	-1.000000	-1.000000	-1.000000	-1.000000	81.379310	0.000000	-1.000000	-1.000000	1127199.000000	1770063750.535040
12139.920000	19497.870000	26000.280000	21485.880000	-7447.275000	-4178.025000	3073.905000	13333.005000	-5.676506	-7.957488	-8.502117	-8.237250	-5.518441	-5.347263	-3.972814	1.099691	-3.998120	4.776380	-3.082520	0.928525	-0.059692	0.367614	-1.000000	-1.000000	-1.000000	-1.000000	-1.000000	-1.000000	-1.000000	81.379310	0.000000	-1.000000	-1.000000	1127200.000000	1770063750.535048
12148.110000	19496.700000	25997.310000	21483.225000	-7435.035000	-4174.335000	3074.985000	13348.575000	-6.186531	-4.137791	-4.239136	-4.503267	-4.325574	-3.305632	-2.028978	-3.231092	-5.737760	3.769220	-2.624720	0.930601	-0.062195	0.368651	-1.000000	-1.000000	-1.000000	-1.000000	-1.000000	-1.000000	-1.000000	81.379310	0.000000	-1.000000	-1.000000	1127201.000000	1770063750.546260
12148.470000	19498.095000	26000.550000	21492.945000	-7400.880000	-4153.095000	3080.160000	13336.470000	-3.228863	0.651321	0.565120	-0.198105	-1.146732	0.401288	0.945717	-5.999515	-5.737760	3.769220	-2.624720	0.930601	-0.062195	0.368651	-1.000000	-1.000000	-1.000000	-1.000000	-1.000000	-1.000000	-1.000000	81.379310	0.000000	-1.000000	-1.000000	1127202.000000	1770063750.546273
12146.670000	19513.800000	26021.115000	21517.380000	-7363.080000	-4127.895000	3090.330000	13326.705000	1.340091	4.596403	4.239956	3.471210	3.731519	4.786801	3.596560	-6.611812	-5.737760	3.769220	-2.624720	0.930601	-0.062195	0.368651	-1.000000	-1.000000	-1.000000	-1.000000	-1.000000	-1.000000	-1.000000	81.379310	0.000000	-1.000000	-1.000000	1127203.000000	1770063750.546284
12138.660000	19518.525000	26024.760000	21514.590000	-7391.520000	-4139.595000	3092.715000	13331.835000	4.508288	6.785826	6.309011	5.943698	7.974561	8.057784	4.988812	-5.733269	-5.737760	3.769220	-2.624720	0.930601	-0.062195	0.368651	-1.000000	-1.000000	-1.000000	-1.000000	-1.000000	-1.000000	-1.000000	81.379310	0.000000	-1.000000	-1.000000	1127204.000000	1770063750.546289
12141.045000	19514.295000	26020.980000	21507.705000	-7432.875000	-4160.610000	3090.420000	13348.620000	4.100965	6.748041	6.459413	6.200997	6.952248	7.339488	4.538846	-3.722430	-5.737760	3.769220	-2.624720	0.930601	-0.062195	0.368651	-1.000000	-1.000000	-1.000000	-1.000000	-1.000000	-1.000000	-1.000000	81.379310	0.000000	-1.000000	-1.000000	1127205.000000	1770063750.547301
12146.580000	19512.450000	26019.495000	21506.085000	-7451.595000	-4170.195000	3085.470000	13337.955000	0.571175	4.200309	4.306372	3.543382	-1.509581	1.408240	2.063447	-0.897304	-5.737760	3.769220	-2.624720	0.930601	-0.062195	0.368651	-1.000000	-1.000000	-1.000000	-1.000000	-1.000000	-1.000000	-1.000000	81.379310	0.000000	-1.000000	-1.000000	1127206.000000	1770063750.547311
12145.455000	19520.055000	26026.695000	21513.645000	-7445.160000	-4162.230000	3089.655000	13311.225000	-3.010231	0.229230	0.755039	-0.539688	-12.542529	-6.542252	-1.499122	1.382768	-5.737760	3.769220	-2.624720	0.930601	-0.062195	0.368651	-1.000000	-1.000000	-1.000000	-1.000000	-1.000000	-1.000000	-1.000000	81.379310	0.000000	-1.000000	-1.000000	1127207.000000	1770063750.551488
12148.695000	19522.755000	26026.020000	21509.820000	-7446.870000	-4170.240000	3082.950000	13288.995000	-3.836472	-2.786073	-2.108276	-3.271665	-17.572843	-11.128588	-4.301509	1.363936	-5.737760	3.769220	-2.624720	0.930601	-0.062195	0.368651	-1.000000	-1.000000	-1.000000	-1.000000	-1.000000	-1.000000	-1.000000	81.379310	0.000000	-1.000000	-1.000000	1127208.000000	1770063750.551500
12143.655000	19512.990000	26014.005000	21498.345000	-7452.630000	-4178.430000	3076.605000	13295.835000	-2.083705	-3.532273	-3.170959	-3.516443	-12.545786	-9.755067	-5.099585	-1.186832	-5.737760	3.769220	-2.624720	0.930601	-0.062195	0.368651	-1.000000	-1.000000	-1.000000	-1.000000	-1.000000	-1.000000	-1.000000	81.379310	0.000000	-1.000000	-1.000000	1127209.000000	1770063750.555046
12140.280000	19498.365000	26000.235000	21487.500000	-7454.790000	-4184.460000	3069.045000	13334.400000	-0.110966	-3.090678	-3.356334	-2.668971	-1.344164	-4.372719	-4.179857	-3.533063	-5.737760	3.769220	-2.624720	0.930601	-0.062195	0.368651	-1.000000	-1.000000	-1.000000	-1.000000	-1.000000	-1.000000	-1.000000	81.379310	0.000000	-1.000000	-1.000000	1127210.000000	1770063750.555053
12145.635000	19499.220000	26002.170000	21491.370000	-7442.010000	-4179.240000	3068.370000	13357.530000	0.652763	-3.131984	-3.938584	-2.523142	8.539717	1.077083	-2.623515	-1.382720	-4.379620	3.906560	-2.014320	0.932493	-0.064453	0.369384	-1.000000	-1.000000	-1.000000	-1.000000	-1.000000	-1.000000	-1.000000	81.379310	0.000000	-1.000000	-1.000000	1127211.000000	1770063750.559038
12143.160000	19494.495000	25998.570000	21492.045000	-7424.730000	-4167.045000	3075.030000	13365.495000	0.798206	-3.877292	-4.854207	-3.285876	12.473290	4.137401	-1.051404	6.110437	-4.379620	3.906560	-2.014320	0.932493	-0.064453	0.369384	-1.000000	-1.000000	-1.000000	-1.000000	-1.000000	-1.000000	-1.000000	81.379310	0.000000	-1.000000	-1.000000	1127212.000000	1770063750.559048
12135.645000	19487.295000	25990.740000	21487.365000	-7415.055000	-4164.300000	3075.930000	13361.175000	1.048729	-4.343703	-5.061718	-3.666579	11.628569	5.285271	0.660983	13.698412	-4.379620	3.906560	-2.014320	0.932493	-0.064453	0.369384	-1.000000	-1.000000	-1.000000	-1.000000	-1.000000	-1.000000	-1.000000	81.379310	0.000000	-1.000000	-1.000000	1127213.000000	1770063750.563150
12133.800000	19495.710000	25997.400000	21485.880000	-7438.320000	-4174.020000	3071.745000	13344.390000	0.999449	-3.310630	-3.456198	-2.263063	9.746666	6.120907	2.552500	14.323269	-4.379620	3.906560	-2.014320	0.932493	-0.064453	0.369384	-1.000000	-1.000000	-1.000000	-1.000000	-1.000000	-1.000000	-1.000000	81.379310	0.000000	-1.000000	-1.000000	1127214.000000	1770063750.563160
12143.430000	19513.620000	26017.470000	21504.645000	-7440.435000	-4171.185000	3071.295000	13331.160000	0.375542	0.102625	0.595707	1.257969	7.828028	6.736847	4.025204	5.956882	-4.379620	3.906560	-2.014320	0.932493	-0.064453	0.369384	-1.000000	-1.000000	-1.000000	-1.000000	-1.000000	-1.000000	-1.000000	81.379310	0.000000	-1.000000	-1.000000	1127215.000000	1770063750.576591
12146.175000	19519.335000	26024.940000	21509.235000	-7434.990000	-4168.305000	3075.750000	13328.055000	0.049658	5.348863	6.365629	5.905553	4.482884	6.005717	4.435256	-6.165555	-4.379620	3.906560	-2.014320	0.932493	-0.064453	0.369384	-1.000000	-1.000000	-1.000000	-1.000000	-1.000000	-1.000000	-1.000000	81.379310	0.000000	-1.000000	-1.000000	1127216.000000	1770063750.576601
12143.520000	19507.185000	26011.845000	21496.995000	-7448.400000	-4176.585000	3075.795000	13335.480000	0.608377	9.728445	11.109332	9.437453	-0.586803	3.480923	3.835684	-14.244965	-4.379620	3.906560	-2.014320	0.932493	-0.064453	0.369384	-1.000000	-1.000000	-1.000000	-1.000000	-1.000000	-1.000000	-1.000000	81.379310	0.000000	-1.000000	-1.000000	1127217.000000	1770063750.576612
12123.675000	19477.035000	25978.365000	21466.080000	-7466.040000	-4183.335000	3075.885000	13330.260000	1.066569	9.853219	11.273127	9.100624	-6.317223	-0.213318	2.727287	-14.716120	-4.379620	3.906560	-2.014320	0.932493	-0.064453	0.369384	-1.000000	-1.000000	-1.000000	-1.000000	-1.000000	-1.000000	-1.000000	81.379310	0.000000	-1.000000	-1.000000	1127218.000000	1770063750.576616
12129.705000	19487.295000	25987.815000	21475.710000	-7453.980000	-4182.930000	3078.000000	13332.060000	0.248468	4.828679	5.662852	3.980876	-11.149425	-4.010188	1.415898	-10.042789	-4.379620	3.906560	-2.014320	0.932493	-0.064453	0.369384	-1.000000	-1.000000	-1.000000	-1.000000	-1.000000	-1.000000	-1.000000	81.379310	0.000000	-1.000000	-1.000000	1127219.000000	1770063750.576622
12144.285000	19507.230000	26007.840000	21494.610000	-7442.460000	-4181.940000	3077.865000	13339.305000	-1.148687	-2.043423	-2.404212	-3.082055	-13.100353	-6.858182	-0.120891	-4.374163	-4.379620	3.906560	-2.014320	0.932493	-0.064453	0.369384	-1.000000	-1.000000	-1.000000	-1.000000	-1.000000	-1.000000	-1.000000	81.379310	0.000000	-1.000000	-1.000000	1127220.000000	1770063750.576627
12144.195000	19502.235000	26003.250000	21493.530000	-7424.100000	-4163.355000	3085.470000	13342.635000	-1.222491	-6.121435	-7.718202	-7.538373	-10.610069	-7.709838	-1.878725	0.450964	-2.624720	3.402980	-0.579880	0.933958	-0.063660	0.370971	-1.000000	-1.000000	-1.000000	-1.000000	-1.000000	-1.000000	-1.000000	81.379310	0.000000	-1.000000	-1.000000	1127221.000000	1770063750.580846
12154.365000	19513.305000	26016.120000	21505.455000	-7413.570000	-4161.780000	3081.555000	13344.075000	0.637670	-5.677238	-7.771668	-7.051811	-3.516452	-5.503879	-3.374545	4.400775	-2.624720	3.402980	-0.579880	0.933958	-0.063660	0.370971	-1.000000	-1.000000	-1.000000	-1.000000	-1.000000	-1.000000	-1.000000	81.379310	0.000000	-1.000000	-1.000000	1127222.000000	1770063750.580861
12154.140000	19511.865000	26015.445000	21505.725000	-7411.815000	-4155.480000	3087.990000	13348.980000	3.044941	-2.482897	-3.948741	-2.779414	6.218818	-0.427329	-3.824056	7.619183	-2.624720	3.402980	-0.579880	0.933958	-0.063660	0.370971	-1.000000	-1.000000	-1.000000	-1.000000	-1.000000	-1.000000	-1.000000	81.379310	0.000000	-1.000000	-1.000000	1127223.000000	1770063750.587703
12142.260000	19509.705000	26012.880000	21498.525000	-7431.615000	-4168.305000	3085.785000	13345.560000	3.743819	0.241516	0.131465	1.690137	13.937448	4.904759	-2.912037	9.900502	-2.624720	3.402980	-0.579880	0.933958	-0.063660	0.370971	-1.000000	-1.000000	-1.000000	-1.000000	-1.000000	-1.000000	-1.000000	81.379310	0.000000	-1.000000	-1.000000	1127224.000000	1770063750.587710
12161.610000	19538.460000	26041.185000	21522.420000	-7431.705000	-4159.035000	3100.860000	13357.890000	1.675173	0.852304	1.945710	3.432889	14.683085	7.207324	-1.041999	10.440891	-2.624720	3.402980	-0.579880	0.933958	-0.063660	0.370971	-1.000000	-1.000000	-1.000000	-1.000000	-1.000000	-1.000000	-1.000000	81.379310	0.000000	-1.000000	-1.000000	1127225.000000	1770063750.587932
12157.830000	19535.355000	26043.705000	21532.860000	-7407.900000	-4144.725000	3099.600000	13332.420000	-1.475884	0.909190	2.546410	3.280431	8.398755	5.939353	1.140914	7.916017	-2.624720	3.402980	-0.579880	0.933958	-0.063660	0.370971	-1.000000	-1.000000	-1.000000	-1.000000	-1.000000	-1.000000	-1.000000	81.379310	0.000000	-1.000000	-1.000000	1127226.000000	1770063750.587937
12130.245000	19507.860000	26015.220000	21504.420000	-7437.870000	-4172.490000	3077.460000	13307.760000	-3.489460	1.883310	3.541585	3.297611	-0.149788	2.881530	2.493655	1.251534	-2.624720	3.402980	-0.579880	0.933958	-0.063660	0.370971	-1.000000	-1.000000	-1.000000	-1.000000	-1.000000	-1.000000	-1.000000	81.379310	0.000000	-1.000000	-1.000000	1127227.000000	1770063750.591552
12109.905000	19479.690000	25980.030000	21465.900000	-7468.920000	-4192.425000	3065.265000	13309.335000	-4.688744	1.673290	2.895109	1.963019	-7.806639	-1.301031	1.437454	-8.210776	-2.624720	3.402980	-0.579880	0.933958	-0.063660	0.370971	-1.000000	-1.000000	-1.000000	-1.000000	-1.000000	-1.000000	-1.000000	81.379310	0.000000	-1.000000	-1.000000	1127228.000000	1770063750.591563
12131.595000	19494.630000	25994.610000	21481.920000	-7445.790000	-4175.235000	3075.570000	13330.440000	-5.986715	-2.056978	-1.950087	-3.229520	-13.961608	-6.301952	-1.872012	-15.445182	-2.624720	3.402980	-0.579880	0.933958	-0.063660	0.370971	-1.000000	-1.000000	-1.000000	-1.000000	-1.000000	-1.000000	-1.000000	81.379310	0.000000	-1.000000	-1.000000	1127229.000000	1770063750.595108
12155.310000	19510.290000	26010.720000	21497.670000	-7431.480000	-4168.980000	3077.955000	13340.475000	-5.548532	-6.734444	-8.131839	-9.471559	-16.088569	-9.574391	-4.701216	-15.106826	-2.624720	3.402980	-0.579880	0.933958	-0.063660	0.370971	-1.000000	-1.000000	-1.000000	-1.000000	-1.000000	-1.000000	-1.000000	81.379310	0.000000	-1.000000	-1.000000	1127230.000000	1770063750.595114
12156.345000	19512.135000	26015.490000	21502.530000	-7424.100000	-4168.035000	3080.880000	13349.025000	-1.284409	-7.477308	-9.839266	-10.867291	-11.176571	-8.347446	-4.408296	-6.543580	-4.730600	2.075360	-0.915600	0.931394	-0.059204	0.372436	-1.000000	-1.000000	-1.000000	-1.000000	-1.000000	-1.000000	-1.000000	81.379310	0.000000	-1.000000	-1.000000	1127231.000000	1770063750.599305
12149.820000	19511.460000	26015.085000	21504.780000	-7407.585000	-4158.720000	3088.395000	13350.600000	5.018258	-3.231055	-5.333225	-5.600976	-0.170432	-2.728640	-0.868179	5.511493	-4.730600	2.075360	-0.915600	0.931394	-0.059204	0.372436	-1.000000	-1.000000	-1.000000	-1.000000	-1.000000	-1.000000	-1.000000	81.379310	0.000000	-1.000000	-1.000000	1127232.000000	1770063750.599314
12146.265000	19513.170000	26018.235000	21509.685000	-7411.995000	-4156.380000	3091.590000	13340.430000	9.102983	2.765154	1.998723	2.874383	12.021551	4.557989	3.788103	14.359729	-4.730600	2.075360	-0.915600	0.931394	-0.059204	0.372436	-1.000000	-1.000000	-1.000000	-1.000000	-1.000000	-1.000000	-1.000000	81.379310	0.000000	-1.000000	-1.000000	1127233.000000	1770063750.603396
12145.365000	19503.945000	26007.570000	21494.970000	-7459.830000	-4183.065000	3076.920000	13335.705000	8.244406	6.446176	7.282648	9.226064	18.552004	9.490855	6.558671	15.363860	-4.730600	2.075360	-0.915600	0.931394	-0.059204	0.372436	-1.000000	-1.000000	-1.000000	-1.000000	-1.000000	-1.000000	-1.000000	81.379310	0.000000	-1.000000	-1.000000	1127234.000000	1770063750.603407
12143.385000	19503.675000	26007.480000	21496.905000	-7448.130000	-4179.870000	3073.860000	13334.805000	3.390723	6.222822	8.000704	10.067481	14.689237	8.883777	5.553714	8.990465	-4.730600	2.075360	-0.915600	0.931394	-0.059204	0.372436	-1.000000	-1.000000	-1.000000	-1.000000	-1.000000	-1.000000	-1.000000	81.379310	0.000000	-1.000000	-1.000000	1127235.000000	1770063750.608492
12137.085000	19504.035000	26008.605000	21500.505000	-7423.830000	-4167.270000	3072.960000	13324.275000	-1.674842	4.089230	5.784636	6.722213	3.797415	4.059415	1.955334	0.038137	-4.730600	2.075360	-0.915600	0.931394	-0.059204	0.372436	-1.000000	-1.000000	-1.000000	-1.000000	-1.000000	-1.000000	-1.000000	81.379310	0.000000	-1.000000	-1.000000	1127236.000000	1770063750.608499
12133.080000	19505.025000	26010.945000	21501.810000	-7416.540000	-4164.030000	3075.030000	13320.585000	-4.027672	2.683633	3.738204	3.114156	-5.094606	-0.235539	-1.239809	-7.073017	-4.730600	2.075360	-0.915600	0.931394	-0.059204	0.372436	-1.000000	-1.000000	-1.000000	-1.000000	-1.000000	-1.000000	-1.000000	81.379310	0.000000	-1.000000	-1.000000	1127237.000000	1770063750.611111
12138.345000	19518.885000	26020.395000	21505.545000	-7425.180000	-4170.465000	3077.010000	13319.505000	-4.036941	2.194790	2.614009	0.883716	-7.559711	-1.861346	-2.499019	-10.821683	-4.730600	2.075360	-0.915600	0.931394	-0.059204	0.372436	-1.000000	-1.000000	-1.000000	-1.000000	-1.000000	-1.000000	-1.000000	81.379310	0.000000	-1.000000	-1.000000	1127238.000000	1770063750.611122
12148.245000	19523.835000	26024.220000	21508.695000	-7432.965000	-4173.435000	3078.405000	13335.300000	-3.510758	1.274654	1.065869	-1.115996	-6.422310	-2.457858	-2.297987	-10.935240	-4.730600	2.075360	-0.915600	0.931394	-0.059204	0.372436	-1.000000	-1.000000	-1.000000	-1.000000	-1.000000	-1.000000	-1.000000	81.379310	0.000000	-1.000000	-1.000000	1127239.000000	1770063750.615327
12154.140000	19512.405000	26016.615000	21505.995000	-7436.790000	-4174.920000	3076.200000	13350.195000	-2.853581	-0.857901	-1.769282	-3.696580	-5.480949	-3.460294	-1.605060	-7.071061	-4.730600	2.075360	-0.915600	0.931394	-0.059204	0.372436	-1.000000	-1.000000	-1.000000	-1.000000	-1.000000	-1.000000	-1.000000	81.379310	0.000000	-1.000000	-1.000000	1127240.000000	1770063750.615338
12148.380000	19509.525000	26016.165000	21505.230000	-7444.530000	-4169.295000	3083.895000	13335.930000	-1.302534	-3.867342	-5.176140	-6.048641	-5.498663	-4.359614	-1.058787	-0.224995	-9.873220	1.083460	-0.259420	0.929075	-0.052063	0.374084	-1.000000	-1.000000	-1.000000	-1.000000	-1.000000	-1.000000	-1.000000	81.379310	0.000000	-1.000000	-1.000000	1127241.000000	1770063750.619209
12136.230000	19508.895000	26012.385000	21498.660000	-7447.005000	-4165.065000	3088.485000	13327.605000	0.793699	-6.471654	-7.522981	-6.913437	-4.859099	-3.790300	-0.610576	6.205133	-9.873220	1.083460	-0.259420	0.929075	-0.052063	0.374084	-1.000000	-1.000000	-1.000000	-1.000000	-1.000000	-1.000000	-1.000000	81.379310	0.000000	-1.000000	-1.000000	1127242.000000	1770063750.619220
12171.195000	19543.095000	26047.170000	21534.660000	-7406.100000	-4130.595000	3122.820000	13395.105000	2.388305	-6.513930	-6.890786	-5.155787	-1.120899	-0.552065	0.729934	9.745890	-9.873220	1.083460	-0.259420	0.929075	-0.052063	0.374084	-1.000000	-1.000000	-1.000000	-1.000000	-1.000000	-1.000000	-1.000000	81.379310	0.000000	-1.000000	-1.000000	1127243.000000	1770063750.623112
12200.400000	19557.720000	26059.905000	21545.145000	-7396.245000	-4134.105000	3112.830000	13411.440000	4.258120	-2.112080	-1.896846	0.016636	6.211014	4.948963	3.636977	11.630223	-9.873220	1.083460	-0.259420	0.929075	-0.052063	0.374084	-1.000000	-1.000000	-1.000000	-1.000000	-1.000000	-1.000000	-1.000000	81.379310	0.000000	-1.000000	-1.000000	1127244.000000	1770063750.623121
12181.950000	19536.075000	26035.245000	21519.855000	-7420.635000	-4156.470000	3080.205000	13360.455000	7.101874	5.077115	5.498646	6.608581	12.771552	9.059553	5.887533	11.978698	-9.873220	1.083460	-0.259420	0.929075	-0.052063	0.374084	-1.000000	-1.000000	-1.000000	-1.000000	-1.000000	-1.000000	-1.000000	81.379310	0.000000	-1.000000	-1.000000	1127245.000000	1770063750.627172
12142.440000	19501.470000	26004.870000	21495.780000	-7436.115000	-4172.355000	3069.360000	13317.660000	7.687282	9.041287	9.339136	9.319920	12.212818	7.219959	3.636913	6.557480	-9.873220	1.083460	-0.259420	0.929075	-0.052063	0.374084	-1.000000	-1.000000	-1.000000	-1.000000	-1.000000	-1.000000	-1.000000	81.379310	0.000000	-1.000000	-1.000000	1127246.000000	1770063750.627184
12113.685000	19480.995000	25987.545000	21479.040000	-7450.875000	-4185.495000	3071.745000	13309.425000	1.626922	4.766527	5.063055	4.583437	3.217510	-0.823539	-3.223935	-6.364077	-9.873220	1.083460	-0.259420	0.929075	-0.052063	0.374084	-1.000000	-1.000000	-1.000000	-1.000000	-1.000000	-1.000000	-1.000000	81.379310	0.000000	-1.000000	-1.000000	1127247.000000	1770063750.631255
12121.965000	19488.240000	25992.135000	21482.370000	-7441.155000	-4177.395000	3079.260000	13326.795000	-9.832614	-5.651668	-4.978188	-4.985231	-8.480539	-9.924626	-9.832694	-20.399226	-9.873220	1.083460	-0.259420	0.929075	-0.052063	0.374084	-1.000000	-1.000000	-1.000000	-1.000000	-1.000000	-1.000000	-1.000000	81.379310	0.000000	-1.000000	-1.000000	1127248.000000	1770063750.631265
12124.935000	19490.175000	25994.520000	21489.660000	-7422.480000	-4166.235000	3080.610000	13326.660000	-18.902654	-13.924301	-12.986428	-12.345357	-14.846093	-13.739574	-11.190885	-25.926416	-9.873220	1.083460	-0.259420	0.929075	-0.052063	0.374084	-1.000000	-1.000000	-1.000000	-1.000000	-1.000000	-1.000000	-1.000000	81.379310	0.000000	-1.000000	-1.000000	1127249.000000	1770063750.635156
12124.575000	19490.625000	25996.545000	21492.720000	-7416.000000	-4163.400000	3080.790000	13330.440000	-18.205925	-13.328076	-12.754448	-11.963447	-11.620525	-9.692265	-6.562896	-18.413221	-9.873220	1.083460	-0.259420	0.929075	-0.052063	0.374084	-1.000000	-1.000000	-1.000000	-1.000000	-1.000000	-1.000000	-1.000000	81.379310	0.000000	-1.000000	-1.000000	1127250.000000	1770063750.635162
12138.030000	19508.715000	26014.995000	21506.985000	-7422.885000	-4167.090000	3082.905000	13334.715000	-7.323652	-4.256272	-4.424553	-4.023669	-1.451190	-0.748041	0.695564	-1.848598	-10.193680	0.732480	-0.457800	0.926023	-0.050537	0.372497	-1.000000	-1.000000	-1.000000	-1.000000	-1.000000	-1.000000	-1.000000	81.379310	0.000000	-1.000000	-1.000000	1127251.000000	1770063750.639143
12141.855000	19514.970000	26019.045000	21508.245000	-7434.630000	-4167.540000	3085.695000	13324.815000	7.232602	7.381905	6.651070	6.220109	7.819915	7.132558	6.300799	13.731283	-10.193680	0.732480	-0.457800	0.926023	-0.050537	0.372497	-1.000000	-1.000000	-1.000000	-1.000000	-1.000000	-1.000000	-1.000000	81.379310	0.000000	-1.000000	-1.000000	1127252.000000	1770063750.639153
12139.605000	19511.370000	26013.465000	21501.810000	-7437.150000	-4163.670000	3086.370000	13321.125000	17.170074	15.010088	14.106701	12.623689	9.719517	9.983881	8.325956	19.868825	-10.193680	0.732480	-0.457800	0.926023	-0.050537	0.372497	-1.000000	-1.000000	-1.000000	-1.000000	-1.000000	-1.000000	-1.000000	81.379310	0.000000	-1.000000	-1.000000	1127253.000000	1770063750.645016
12148.200000	19518.390000	26022.555000	21512.835000	-7420.140000	-4163.445000	3075.930000	13326.210000	18.679533	15.768280	15.031600	12.851218	5.089058	8.470050	7.776770	16.769293	-10.193680	0.732480	-0.457800	0.926023	-0.050537	0.372497	-1.000000	-1.000000	-1.000000	-1.000000	-1.000000	-1.000000	-1.000000	81.379310	0.000000	-1.000000	-1.000000	1127254.000000	1770063750.645026
12148.065000	19522.980000	26028.900000	21520.665000	-7400.430000	-4149.090000	3082.950000	13309.155000	14.144932	11.519504	11.184033	9.177417	0.255415	5.685014	6.065847	10.530753	-10.193680	0.732480	-0.457800	0.926023	-0.050537	0.372497	-1.000000	-1.000000	-1.000000	-1.000000	-1.000000	-1.000000	-1.000000	81.379310	0.000000	-1.000000	-1.000000	1127255.000000	1770063750.647087
12151.935000	19525.050000	26029.530000	21519.540000	-7411.455000	-4154.400000	3091.005000	13321.170000	7.721024	5.538636	5.641659	4.671820	-0.394362	3.654123	3.623424	5.017989	-10.193680	0.732480	-0.457800	0.926023	-0.050537	0.372497	-1.000000	-1.000000	-1.000000	-1.000000	-1.000000	-1.000000	-1.000000	81.379310	0.000000	-1.000000	-1.000000	1127256.000000	1770063750.647093
12148.515000	19514.160000	26019.855000	21510.900000	-7433.415000	-4166.370000	3092.445000	13351.635000	1.263007	-0.626590	-0.260437	0.135957	1.253578	1.710673	0.649839	0.595637	-10.193680	0.732480	-0.457800	0.926023	-0.050537	0.372497	-1.000000	-1.000000	-1.000000	-1.000000	-1.000000	-1.000000	-1.000000	81.379310	0.000000	-1.000000	-1.000000	1127257.000000	1770063750.651306
12147.615000	19506.825000	26010.855000	21503.565000	-7424.595000	-4163.940000	3094.785000	13366.305000	-4.967399	-6.693052	-6.325274	-4.920200	0.662859	-1.845882	-2.413205	-2.284539	-10.193680	0.732480	-0.457800	0.926023	-0.050537	0.372497	-1.000000	-1.000000	-1.000000	-1.000000	-1.000000	-1.000000	-1.000000	81.379310	0.000000	-1.000000	-1.000000	1127258.000000	1770063750.651317
12140.910000	19497.105000	25996.545000	21487.680000	-7430.355000	-4175.145000	3083.130000	13350.645000	-10.145480	-11.849236	-11.773571	-10.059149	-2.941688	-6.586547	-5.014311	-3.379085	-10.193680	0.732480	-0.457800	0.926023	-0.050537	0.372497	-1.000000	-1.000000	-1.000000	-1.000000	-1.000000	-1.000000	-1.000000	81.379310	0.000000	-1.000000	-1.000000	1127259.000000	1770063750.658688
12150.405000	19509.390000	26011.125000	21500.685000	-7423.155000	-4169.250000	3084.705000	13348.395000	-12.947450	-14.525079	-14.937310	-13.494099	-6.320654	-9.965792	-6.776574	-4.504579	-10.193680	0.732480	-0.457800	0.926023	-0.050537	0.372497	-1.000000	-1.000000	-1.000000	-1.000000	-1.000000	-1.000000	-1.000000	81.379310	0.000000	-1.000000	-1.000000	1127260.000000	1770063750.658695
12158.910000	19519.380000	26019.315000	21503.745000	-7445.745000	-4178.880000	3084.210000	13355.190000	-12.353091	-13.055509	-13.734724	-12.899019	-6.759825	-9.844481	-7.175915	-6.944716	-11.628120	0.869820	-0.824040	0.923521	-0.051758	0.370666	-1.000000	-1.000000	-1.000000	-1.000000	-1.000000	-1.000000	-1.000000	81.379310	0.000000	-1.000000	-1.000000	1127261.000000	1770063750.659193
12154.005000	19519.740000	26021.475000	21507.165000	-7436.655000	-4174.425000	3088.260000	13360.275000	-8.119738	-6.830294	-7.181711	-7.119520	-4.305681	-5.997499	-5.247899	-8.705324	-11.628120	0.869820	-0.824040	0.923521	-0.051758	0.370666	-1.000000	-1.000000	-1.000000	-1.000000	-1.000000	-1.000000	-1.000000	81.379310	0.000000	-1.000000	-1.000000	1127262.000000	1770063750.659199
12137.895000	19510.335000	26015.940000	21507.030000	-7421.580000	-4162.680000	3097.755000	13359.780000	-1.777046	2.041182	2.488526	1.896273	-0.388830	0.164839	-0.672602	-7.017655	-11.628120	0.869820	-0.824040	0.923521	-0.051758	0.370666	-1.000000	-1.000000	-1.000000	-1.000000	-1.000000	-1.000000	-1.000000	81.379310	0.000000	-1.000000	-1.000000	1127263.000000	1770063750.664560
12135.195000	19511.460000	26014.455000	21505.455000	-7423.110000	-4170.645000	3086.730000	13329.180000	3.774121	9.324677	10.514438	9.778812	3.588693	6.250018	4.682721	-2.350009	-11.628120	0.869820	-0.824040	0.923521	-0.051758	0.370666	-1.000000	-1.000000	-1.000000	-1.000000	-1.000000	-1.000000	-1.000000	81.379310	0.000000	-1.000000	-1.000000	1127264.000000	1770063750.664566
12154.860000	19511.055000	26011.935000	21501.270000	-7433.145000	-4178.295000	3077.280000	13330.080000	6.761215	11.904023	13.215082	12.883558	6.292548	9.515719	7.265543	1.408442	-11.628120	0.869820	-0.824040	0.923521	-0.051758	0.370666	-1.000000	-1.000000	-1.000000	-1.000000	-1.000000	-1.000000	-1.000000	81.379310	0.000000	-1.000000	-1.000000	1127265.000000	1770063750.671404
12170.610000	19534.230000	26027.235000	21500.775000	-7460.370000	-4201.695000	3070.170000	13344.255000	7.780073	10.095650	10.630348	10.565220	6.368637	8.239652	5.050980	1.377942	-11.628120	0.869820	-0.824040	0.923521	-0.051758	0.370666	-1.000000	-1.000000	-1.000000	-1.000000	-1.000000	-1.000000	-1.000000	81.379310	0.000000	-1.000000	-1.000000	1127266.000000	1770063750.671409
12160.260000	19517.085000	26010.810000	21490.470000	-7454.160000	-4194.270000	3080.070000	13358.295000	7.861443	6.405833	5.562550	4.918197	3.228999	3.109336	-0.081215	-0.670290	-11.628120	0.869820	-0.824040	0.923521	-0.051758	0.370666	-1.000000	-1.000000	-1.000000	-1.000000	-1.000000	-1.000000	-1.000000	81.379310	0.000000	-1.000000	-1.000000	1127267.000000	1770063750.671760
12138.705000	19497.150000	26002.080000	21499.245000	-7419.420000	-4167.405000	3088.170000	13342.545000	6.175751	2.008973	0.253206	-1.027489	-0.989445	-2.258841	-3.864653	-1.028096	-11.628120	0.869820	-0.824040	0.923521	-0.051758	0.370666	-1.000000	-1.000000	-1.000000	-1.000000	-1.000000	-1.000000	-1.000000	81.379310	0.000000	-1.000000	-1.000000	1127268.000000	1770063750.671765
12140.055000	19504.530000	26011.260000	21513.960000	-7384.680000	-4149.945000	3089.160000	13335.120000	1.326685	-3.458373	-4.579359	-4.837168	-1.948502	-3.616006	-3.612335	1.004839	-11.628120	0.869820	-0.824040	0.923521	-0.051758	0.370666	-1.000000	-1.000000	-1.000000	-1.000000	-1.000000	-1.000000	-1.000000	81.379310	0.000000	-1.000000	-1.000000	1127269.000000	1770063750.677876
12145.590000	19499.580000	26009.100000	21516.435000	-7375.770000	-4135.995000	3099.195000	13343.265000	-5.233532	-8.719971	-7.890526	-5.388256	2.263708	-0.070159	-0.151430	3.373936	-11.628120	0.869820	-0.824040	0.923521	-0.051758	0.370666	-1.000000	-1.000000	-1.000000	-1.000000	-1.000000	-1.000000	-1.000000	81.379310	0.000000	-1.000000	-1.000000	1127270.000000	1770063750.677885
12186.540000	19539.045000	26045.955000	21547.890000	-7381.890000	-4121.595000	3124.395000	13387.770000	-8.771733	-10.320694	-7.751183	-2.923899	7.847062	5.201699	4.094973	5.225949	-14.054460	0.442540	-1.281840	0.921690	-0.051941	0.368041	-1.000000	-1.000000	-1.000000	-1.000000	-1.000000	-1.000000	-1.000000	81.379310	0.000000	-1.000000	-1.000000	1127271.000000	1770063750.681337
12220.830000	19586.340000	26087.085000	21569.580000	-7396.065000	-4123.485000	3137.940000	13420.935000	-5.003320	-5.170774	-2.615122	1.492865	8.234337	7.731272	7.188464	7.998692	-14.054460	0.442540	-1.281840	0.921690	-0.051941	0.368041	-1.000000	-1.000000	-1.000000	-1.000000	-1.000000	-1.000000	-1.000000	81.379310	0.000000	-1.000000	-1.000000	1127272.000000	1770063750.681347
12244.365000	19604.790000	26102.745000	21585.060000	-7392.465000	-4110.795000	3162.735000	13455.090000	5.028604	5.818199	6.332040	6.067693	1.135556	5.300479	8.105137	12.312132	-14.054460	0.442540	-1.281840	0.921690	-0.051941	0.368041	-1.000000	-1.000000	-1.000000	-1.000000	-1.000000	-1.000000	-1.000000	81.379310	0.000000	-1.000000	-1.000000	1127273.000000	1770063750.683286
12199.320000	19549.575000	26046.585000	21537.855000	-7423.020000	-4146.165000	3125.745000	13413.105000	13.504142	15.320995	13.123825	7.629838	-8.968075	-0.792282	6.177216	14.410443	-14.054460	0.442540	-1.281840	0.921690	-0.051941	0.368041	-1.000000	-1.000000	-1.000000	-1.000000	-1.000000	-1.000000	-1.000000	81.379310	0.000000	-1.000000	-1.000000	1127274.000000	1770063750.683295
12164.400000	19525.275000	26027.505000	21509.910000	-7449.120000	-4182.390000	3089.430000	13375.035000	11.439477	14.094788	10.497601	2.911915	-16.012479	-8.157376	0.164580	7.734841	-14.054460	0.442540	-1.281840	0.921690	-0.051941	0.368041	-1.000000	-1.000000	-1.000000	-1.000000	-1.000000	-1.000000	-1.000000	81.379310	0.000000	-1.000000	-1.000000	1127275.000000	1770063750.687356
12151.035000	19521.360000	26019.270000	21495.780000	-7464.420000	-4195.440000	3082.230000	13343.940000	-1.978668	1.094265	-1.690287	-7.243417	-17.439878	-14.898838	-9.652924	-9.020548	-14.054460	0.442540	-1.281840	0.921690	-0.051941	0.368041	-1.000000	-1.000000	-1.000000	-1.000000	-1.000000	-1.000000	-1.000000	81.379310	0.000000	-1.000000	-1.000000	1127276.000000	1770063750.687366
12102.030000	19479.735000	25987.410000	21477.285000	-7469.370000	-4197.465000	3065.445000	13285.845000	-18.036509	-14.814828	-15.458152	-17.132975	-14.203384	-18.625785	-18.835830	-27.933781	-14.054460	0.442540	-1.281840	0.921690	-0.051941	0.368041	-1.000000	-1.000000	-1.000000	-1.000000	-1.000000	-1.000000	-1.000000	81.379310	0.000000	-1.000000	-1.000000	1127277.000000	1770063750.693290
12100.095000	19477.035000	25990.920000	21492.585000	-7440.615000	-4180.995000	3067.605000	13281.660000	-26.948692	-24.117456	-22.649042	-20.656097	-7.788013	-16.509003	-21.497629	-38.003362	-14.054460	0.442540	-1.281840	0.921690	-0.051941	0.368041	-1.000000	-1.000000	-1.000000	-1.000000	-1.000000	-1.000000	-1.000000	81.379310	0.000000	-1.000000	-1.000000	1127278.000000	1770063750.693301
12138.255000	19516.680000	26026.065000	21526.560000	-7396.065000	-4147.290000	3105.135000	13347.360000	-23.583288	-22.100825	-19.325818	-14.555141	1.923148	-7.125696	-14.677822	-31.949677	-14.054460	0.442540	-1.281840	0.921690	-0.051941	0.368041	-1.000000	-1.000000	-1.000000	-1.000000	-1.000000	-1.000000	-1.000000	81.379310	0.000000	-1.000000	-1.000000	1127279.000000	1770063750.695570
12175.560000	19552.005000	26054.235000	21549.105000	-7370.280000	-4127.850000	3119.130000	13391.685000	-8.299121	-9.045883	-6.337193	-0.281585	14.550767	7.397781	-0.277321	-9.723091	-14.054460	0.442540	-1.281840	0.921690	-0.051941	0.368041	-1.000000	-1.000000	-1.000000	-1.000000	-1.000000	-1.000000	-1.000000	81.379310	0.000000	-1.000000	-1.000000	1127280.000000	1770063750.695580
12162.240000	19525.410000	26022.510000	21511.710000	-7417.620000	-4163.715000	3090.960000	13363.740000	11.886680	8.301149	9.447236	14.781772	25.166250	20.508311	14.609049	18.757108	-22.706880	0.778260	-4.059160	0.920591	-0.044311	0.366332	-1.000000	-1.000000	-1.000000	-1.000000	-1.000000	-1.000000	-1.000000	81.379310	0.000000	-1.000000	-1.000000	1127281.000000	1770063750.699217
12129.795000	19491.615000	25994.025000	21483.990000	-7468.245000	-4191.615000	3075.930000	13315.230000	25.754737	19.548745	18.590484	21.414830	25.567458	24.325282	21.457827	37.250999	-22.706880	0.778260	-4.059160	0.920591	-0.044311	0.366332	-1.000000	-1.000000	-1.000000	-1.000000	-1.000000	-1.000000	-1.000000	81.379310	0.000000	-1.000000	-1.000000	1127282.000000	1770063750.699228
12111.120000	19479.690000	25990.965000	21487.140000	-7463.565000	-4187.115000	3079.620000	13298.490000	26.260954	19.456827	17.413410	16.968100	13.088427	16.890344	17.879476	35.715176	-22.706880	0.778260	-4.059160	0.920591	-0.044311	0.366332	-1.000000	-1.000000	-1.000000	-1.000000	-1.000000	-1.000000	-1.000000	81.379310	0.000000	-1.000000	-1.000000	1127283.000000	1770063750.704026
12128.310000	19491.300000	25996.185000	21486.735000	-7462.125000	-4196.790000	3076.605000	13332.330000	16.238731	11.781497	10.385164	7.459105	-4.398042	4.551400	9.212883	19.193344	-22.706880	0.778260	-4.059160	0.920591	-0.044311	0.366332	-1.000000	-1.000000	-1.000000	-1.000000	-1.000000	-1.000000	-1.000000	81.379310	0.000000	-1.000000	-1.000000	1127284.000000	1770063750.704037
12165.885000	19528.245000	26029.710000	21517.875000	-7431.390000	-4174.020000	3103.605000	13389.345000	5.026694	4.367628	4.334187	0.511738	-15.749645	-4.904542	1.995029	2.711002	-22.706880	0.778260	-4.059160	0.920591	-0.044311	0.366332	-1.000000	-1.000000	-1.000000	-1.000000	-1.000000	-1.000000	-1.000000	81.379310	0.000000	-1.000000	-1.000000	1127285.000000	1770063750.708856
12199.500000	19557.720000	26059.095000	21551.490000	-7391.655000	-4133.970000	3134.655000	13429.260000	0.551134	2.814759	3.237313	-0.482245	-15.621539	-7.801396	-0.529705	-1.845450	-22.706880	0.778260	-4.059160	0.920591	-0.044311	0.366332	-1.000000	-1.000000	-1.000000	-1.000000	-1.000000	-1.000000	-1.000000	81.379310	0.000000	-1.000000	-1.000000	1127286.000000	1770063750.708868
12181.095000	19542.780000	26042.805000	21536.370000	-7402.365000	-4141.080000	3116.430000	13379.625000	2.613341	5.994125	5.535458	2.213550	-7.122950	-5.199947	0.510720	3.535418	-22.706880	0.778260	-4.059160	0.920591	-0.044311	0.366332	-1.000000	-1.000000	-1.000000	-1.000000	-1.000000	-1.000000	-1.000000	81.379310	0.000000	-1.000000	-1.000000	1127287.000000	1770063750.711333
12106.080000	19490.715000	25997.130000	21493.620000	-7439.220000	-4176.315000	3071.835000	13264.830000	2.071460	5.691547	4.184797	1.745700	0.505670	-2.608386	-0.586656	3.476951	-22.706880	0.778260	-4.059160	0.920591	-0.044311	0.366332	-1.000000	-1.000000	-1.000000	-1.000000	-1.000000	-1.000000	-1.000000	81.379310	0.000000	-1.000000	-1.000000	1127288.000000	1770063750.711344
