Channel1	Channel2	Channel3	Channel4	Channel5	Channel6	Channel7	Channel8	FilteredChannel1	FilteredChannel2	FilteredChannel3	FilteredChannel4	FilteredChannel5	FilteredChannel6	FilteredChannel7	FilteredChannel8	GyroX	GyroY	GyroZ	AccX	AccY	AccZ	PPG1	PPG2	rawPPG1	rawPPG2	rawPPG3	Hr	Hrv	Battery	Trigger	PhysicalTrigger	AutoTrigger	NumMeasurements	Timestamp
-4828.005000	-17515.530000	-3813.840000	9432.270000	-7453.305000	-3785.895000	7068.735000	-1173.150000	0.120974	-8.492295	-6.321840	-6.251354	-5.458199	-6.275107	10.192215	5.792811	-1.281840	3.601360	-2.639980	0.732542	0.658201	0.089355	-1.000000	-1.000000	-1.000000	-1.000000	-1.000000	-1.000000	-1.000000	78.413793	0.000000	-1.000000	-1.000000	1486589.000000	1770064469.634789
-4808.970000	-17481.465000	-3785.625000	9459.135000	-7425.765000	-3758.265000	7082.460000	-1159.065000	-11.834569	-20.213734	-17.167203	-15.715781	-14.547159	-13.497042	6.605072	-0.199214	-1.281840	3.601360	-2.639980	0.732542	0.658201	0.089355	-1.000000	-1.000000	-1.000000	-1.000000	-1.000000	-1.000000	-1.000000	78.413793	0.000000	-1.000000	-1.000000	1486590.000000	1770064469.634801
-4764.240000	-17442.360000	-3747.735000	9502.560000	-7379.235000	-3715.605000	7110.675000	-1134.495000	-20.848602	-24.885887	-23.088198	-21.281103	-20.683966	-17.571695	1.501571	-7.222288	-1.663340	4.944240	-2.853620	0.732603	0.660277	0.090210	-1.000000	-1.000000	-1.000000	-1.000000	-1.000000	-1.000000	-1.000000	78.413793	0.000000	-1.000000	-1.000000	1486591.000000	1770064469.639891
-4845.825000	-17510.445000	-3808.305000	9432.495000	-7452.090000	-3788.865000	7062.615000	-1170.990000	-22.924385	-21.763164	-22.013705	-20.399433	-20.444505	-16.421532	-4.548274	-12.360172	-1.663340	4.944240	-2.853620	0.732603	0.660277	0.090210	-1.000000	-1.000000	-1.000000	-1.000000	-1.000000	-1.000000	-1.000000	78.413793	0.000000	-1.000000	-1.000000	1486592.000000	1770064469.639898
-4882.230000	-17531.730000	-3838.275000	9399.060000	-7487.055000	-3825.090000	7034.535000	-1177.830000	-21.639937	-16.694206	-18.077236	-16.810796	-16.763368	-13.366965	-12.017379	-15.546252	-1.663340	4.944240	-2.853620	0.732603	0.660277	0.090210	-1.000000	-1.000000	-1.000000	-1.000000	-1.000000	-1.000000	-1.000000	78.413793	0.000000	-1.000000	-1.000000	1486593.000000	1770064469.642713
-4841.370000	-17514.405000	-3836.880000	9407.385000	-7474.410000	-3812.715000	7032.735000	-1191.015000	-20.495501	-13.577726	-14.976505	-14.034241	-13.250215	-11.497527	-19.921824	-17.568661	-1.663340	4.944240	-2.853620	0.732603	0.660277	0.090210	-1.000000	-1.000000	-1.000000	-1.000000	-1.000000	-1.000000	-1.000000	78.413793	0.000000	-1.000000	-1.000000	1486594.000000	1770064469.642725
-4803.795000	-17495.730000	-3818.025000	9434.610000	-7442.595000	-3775.140000	7054.695000	-1171.845000	-14.677753	-8.675658	-9.901282	-8.868179	-7.328353	-7.496531	-22.852325	-16.041229	-1.663340	4.944240	-2.853620	0.732603	0.660277	0.090210	-1.000000	-1.000000	-1.000000	-1.000000	-1.000000	-1.000000	-1.000000	78.413793	0.000000	-1.000000	-1.000000	1486595.000000	1770064469.646687
-4834.980000	-17523.090000	-3817.845000	9433.755000	-7440.435000	-3771.990000	7061.220000	-1160.100000	-0.135893	1.583929	0.651800	2.168181	3.982944	2.593290	-15.836234	-7.739383	-1.663340	4.944240	-2.853620	0.732603	0.660277	0.090210	-1.000000	-1.000000	-1.000000	-1.000000	-1.000000	-1.000000	-1.000000	78.413793	0.000000	-1.000000	-1.000000	1486596.000000	1770064469.646695
-4806.180000	-17505.765000	-3807.180000	9422.685000	-7452.090000	-3787.830000	7053.975000	-1165.725000	17.459465	13.949138	14.184799	15.457102	16.964021	15.669933	-0.843588	5.585675	-1.663340	4.944240	-2.853620	0.732603	0.660277	0.090210	-1.000000	-1.000000	-1.000000	-1.000000	-1.000000	-1.000000	-1.000000	78.413793	0.000000	-1.000000	-1.000000	1486597.000000	1770064469.653408
-4825.620000	-17490.285000	-3813.525000	9429.930000	-7449.570000	-3788.730000	7057.395000	-1185.660000	28.389375	22.051254	23.657979	23.113234	23.921938	23.375074	14.157367	16.878031	-1.663340	4.944240	-2.853620	0.732603	0.660277	0.090210	-1.000000	-1.000000	-1.000000	-1.000000	-1.000000	-1.000000	-1.000000	78.413793	0.000000	-1.000000	-1.000000	1486598.000000	1770064469.653419
-4842.000000	-17514.540000	-3805.740000	9439.200000	-7444.170000	-3781.215000	7065.720000	-1189.305000	26.472058	21.315845	23.164701	20.475092	20.231850	19.959369	21.630751	19.419743	-1.663340	4.944240	-2.853620	0.732603	0.660277	0.090210	-1.000000	-1.000000	-1.000000	-1.000000	-1.000000	-1.000000	-1.000000	78.413793	0.000000	-1.000000	-1.000000	1486599.000000	1770064469.655038
-4827.600000	-17501.040000	-3805.335000	9439.155000	-7442.325000	-3773.565000	7074.045000	-1172.295000	12.720902	11.312747	12.758107	9.538586	7.922268	7.395768	19.330394	12.570803	-1.663340	4.944240	-2.853620	0.732603	0.660277	0.090210	-1.000000	-1.000000	-1.000000	-1.000000	-1.000000	-1.000000	-1.000000	78.413793	0.000000	-1.000000	-1.000000	1486600.000000	1770064469.655047
-4825.440000	-17509.095000	-3814.965000	9428.895000	-7454.430000	-3783.825000	7062.570000	-1155.105000	-3.508970	-1.971225	-0.899733	-2.613816	-5.263199	-5.759212	10.796593	2.607514	-1.983800	5.661460	-1.205540	0.730528	0.661986	0.091797	-1.000000	-1.000000	-1.000000	-1.000000	-1.000000	-1.000000	-1.000000	78.413793	0.000000	-1.000000	-1.000000	1486601.000000	1770064469.658868
-4822.515000	-17497.755000	-3806.145000	9435.780000	-7450.875000	-3787.245000	7019.595000	-1161.270000	-11.881113	-10.029244	-9.616301	-8.831790	-11.462095	-11.421909	1.147725	-3.471024	-1.983800	5.661460	-1.205540	0.730528	0.661986	0.091797	-1.000000	-1.000000	-1.000000	-1.000000	-1.000000	-1.000000	-1.000000	78.413793	0.000000	-1.000000	-1.000000	1486602.000000	1770064469.658879
-4801.365000	-17463.420000	-3768.345000	9474.885000	-7409.520000	-3750.795000	7040.205000	-1165.950000	-10.578505	-9.434377	-9.610666	-7.011233	-8.734716	-8.495398	-6.863779	-4.164204	-1.983800	5.661460	-1.205540	0.730528	0.661986	0.091797	-1.000000	-1.000000	-1.000000	-1.000000	-1.000000	-1.000000	-1.000000	78.413793	0.000000	-1.000000	-1.000000	1486603.000000	1770064469.662692
-4805.955000	-17473.950000	-3780.315000	9460.530000	-7419.780000	-3762.315000	7085.745000	-1183.320000	-4.974073	-2.963624	-3.260319	-0.791588	-1.332846	-1.910579	-11.051441	-2.748337	-1.983800	5.661460	-1.205540	0.730528	0.661986	0.091797	-1.000000	-1.000000	-1.000000	-1.000000	-1.000000	-1.000000	-1.000000	78.413793	0.000000	-1.000000	-1.000000	1486604.000000	1770064469.662701
-4809.645000	-17484.570000	-3797.820000	9437.445000	-7443.585000	-3785.220000	7072.245000	-1152.990000	-0.341354	3.769625	2.880698	3.496227	4.053349	2.278009	-9.306631	-2.421458	-1.983800	5.661460	-1.205540	0.730528	0.661986	0.091797	-1.000000	-1.000000	-1.000000	-1.000000	-1.000000	-1.000000	-1.000000	78.413793	0.000000	-1.000000	-1.000000	1486605.000000	1770064469.666746
-4809.105000	-17477.865000	-3785.895000	9453.960000	-7427.880000	-3767.805000	7075.620000	-1114.560000	1.105306	5.784527	3.386798	2.051756	3.505358	1.500168	-3.240177	-2.248115	-1.983800	5.661460	-1.205540	0.730528	0.661986	0.091797	-1.000000	-1.000000	-1.000000	-1.000000	-1.000000	-1.000000	-1.000000	78.413793	0.000000	-1.000000	-1.000000	1486606.000000	1770064469.666756
-4827.420000	-17502.840000	-3808.845000	9438.255000	-7441.920000	-3781.260000	7070.040000	-1130.760000	-0.403912	1.506865	-1.738291	-3.588828	-1.488372	-2.190316	2.377795	0.397078	-1.983800	5.661460	-1.205540	0.730528	0.661986	0.091797	-1.000000	-1.000000	-1.000000	-1.000000	-1.000000	-1.000000	-1.000000	78.413793	0.000000	-1.000000	-1.000000	1486607.000000	1770064469.675327
-4795.830000	-17469.045000	-3778.650000	9468.720000	-7414.920000	-3754.260000	7088.445000	-1169.235000	-2.763310	-6.016785	-8.337459	-9.173715	-6.843875	-5.513463	4.061408	3.388358	-1.983800	5.661460	-1.205540	0.730528	0.661986	0.091797	-1.000000	-1.000000	-1.000000	-1.000000	-1.000000	-1.000000	-1.000000	78.413793	0.000000	-1.000000	-1.000000	1486608.000000	1770064469.675340
-4767.165000	-17430.705000	-3740.265000	9500.085000	-7389.720000	-3735.630000	7094.835000	-1123.605000	-2.719491	-10.152367	-10.610341	-9.983824	-8.220135	-5.629303	2.248744	2.255808	-1.983800	5.661460	-1.205540	0.730528	0.661986	0.091797	-1.000000	-1.000000	-1.000000	-1.000000	-1.000000	-1.000000	-1.000000	78.413793	0.000000	-1.000000	-1.000000	1486609.000000	1770064469.675352
-4782.330000	-17440.740000	-3745.395000	9499.545000	-7387.155000	-3725.865000	7090.785000	-1155.420000	1.201329	-6.260391	-4.816729	-3.366366	-2.992174	-0.726996	0.231626	-2.602364	-1.983800	5.661460	-1.205540	0.730528	0.661986	0.091797	-1.000000	-1.000000	-1.000000	-1.000000	-1.000000	-1.000000	-1.000000	78.413793	0.000000	-1.000000	-1.000000	1486610.000000	1770064469.675357
-4789.845000	-17456.895000	-3759.615000	9491.535000	-7383.825000	-3705.615000	7114.815000	-1159.020000	5.634698	2.178548	5.324452	6.748720	5.808533	7.098286	0.732509	-7.361772	-1.403920	5.371520	-2.990960	0.731443	0.663084	0.091797	-1.000000	-1.000000	-1.000000	-1.000000	-1.000000	-1.000000	-1.000000	78.413793	0.000000	-1.000000	-1.000000	1486611.000000	1770064469.678852
-4828.770000	-17509.545000	-3817.530000	9429.210000	-7445.475000	-3759.345000	7112.070000	-1129.185000	4.967151	6.267964	10.353018	11.241582	10.063269	11.373429	2.938318	-8.574626	-1.403920	5.371520	-2.990960	0.731443	0.663084	0.091797	-1.000000	-1.000000	-1.000000	-1.000000	-1.000000	-1.000000	-1.000000	78.413793	0.000000	-1.000000	-1.000000	1486612.000000	1770064469.678862
-4859.460000	-17536.365000	-3843.315000	9403.920000	-7472.070000	-3796.470000	7067.205000	-1201.950000	-2.422876	1.365402	4.688090	4.729489	4.178843	6.432445	2.369585	-5.349496	-1.403920	5.371520	-2.990960	0.731443	0.663084	0.091797	-1.000000	-1.000000	-1.000000	-1.000000	-1.000000	-1.000000	-1.000000	78.413793	0.000000	-1.000000	-1.000000	1486613.000000	1770064469.682783
-4832.955000	-17505.045000	-3812.040000	9436.770000	-7441.830000	-3783.735000	7043.805000	-1236.060000	-11.510393	-7.667684	-6.776903	-7.526874	-7.599456	-5.593230	-4.025454	-2.190051	-1.403920	5.371520	-2.990960	0.731443	0.663084	0.091797	-1.000000	-1.000000	-1.000000	-1.000000	-1.000000	-1.000000	-1.000000	78.413793	0.000000	-1.000000	-1.000000	1486614.000000	1770064469.682790
-4745.430000	-17411.580000	-3719.745000	9523.890000	-7364.205000	-3713.355000	7125.435000	-1136.520000	-13.235667	-10.362450	-12.176783	-13.328636	-13.683409	-14.666375	-11.713860	-2.284103	-1.403920	5.371520	-2.990960	0.731443	0.663084	0.091797	-1.000000	-1.000000	-1.000000	-1.000000	-1.000000	-1.000000	-1.000000	78.413793	0.000000	-1.000000	-1.000000	1486615.000000	1770064469.692839
-4751.010000	-17418.555000	-3730.095000	9512.685000	-7374.195000	-3716.460000	7144.920000	-1039.050000	-2.458911	-0.680693	-4.192848	-5.710090	-6.980320	-12.327311	-11.683965	0.991203	-1.403920	5.371520	-2.990960	0.731443	0.663084	0.091797	-1.000000	-1.000000	-1.000000	-1.000000	-1.000000	-1.000000	-1.000000	78.413793	0.000000	-1.000000	-1.000000	1486616.000000	1770064469.692851
-4790.115000	-17455.680000	-3762.810000	9486.450000	-7389.225000	-3722.670000	7112.835000	-1091.430000	13.443060	14.216139	10.461988	8.561114	6.722983	-0.914962	-2.193021	13.082928	-1.403920	5.371520	-2.990960	0.731443	0.663084	0.091797	-1.000000	-1.000000	-1.000000	-1.000000	-1.000000	-1.000000	-1.000000	78.413793	0.000000	-1.000000	-1.000000	1486617.000000	1770064469.692864
-4801.005000	-17456.040000	-3760.380000	9490.545000	-7384.680000	-3723.120000	7086.060000	-1127.430000	20.162278	20.047560	17.604685	16.176820	15.303719	9.614417	8.132080	24.351782	-1.403920	5.371520	-2.990960	0.731443	0.663084	0.091797	-1.000000	-1.000000	-1.000000	-1.000000	-1.000000	-1.000000	-1.000000	78.413793	0.000000	-1.000000	-1.000000	1486618.000000	1770064469.692870
-4840.335000	-17497.890000	-3806.100000	9442.530000	-7430.265000	-3771.765000	7080.345000	-1197.495000	11.922863	11.205963	11.070912	11.204244	12.518799	11.624561	10.961239	20.533893	-1.403920	5.371520	-2.990960	0.731443	0.663084	0.091797	-1.000000	-1.000000	-1.000000	-1.000000	-1.000000	-1.000000	-1.000000	78.413793	0.000000	-1.000000	-1.000000	1486619.000000	1770064469.706616
-4841.370000	-17499.870000	-3807.675000	9441.765000	-7432.380000	-3773.385000	7106.220000	-1188.270000	-4.581391	-5.382246	-3.516597	-1.890272	0.964954	4.211869	6.125916	0.633667	-1.403920	5.371520	-2.990960	0.731443	0.663084	0.091797	-1.000000	-1.000000	-1.000000	-1.000000	-1.000000	-1.000000	-1.000000	78.413793	0.000000	-1.000000	-1.000000	1486620.000000	1770064469.706625
-4849.065000	-17519.040000	-3829.095000	9416.025000	-7462.980000	-3793.500000	7076.925000	-1157.310000	-17.448180	-17.912918	-15.330957	-13.356008	-11.053297	-6.369508	-1.062553	-21.715465	-1.892240	7.019600	-4.486440	0.735167	0.661497	0.092529	-1.000000	-1.000000	-1.000000	-1.000000	-1.000000	-1.000000	-1.000000	78.413793	0.000000	-1.000000	-1.000000	1486621.000000	1770064469.706636
-4825.890000	-17506.215000	-3820.410000	9420.840000	-7458.705000	-3786.795000	7069.860000	-1174.095000	-18.020614	-18.461096	-16.557450	-15.397442	-15.394202	-11.080138	-5.391285	-30.166042	-1.892240	7.019600	-4.486440	0.735167	0.661497	0.092529	-1.000000	-1.000000	-1.000000	-1.000000	-1.000000	-1.000000	-1.000000	78.413793	0.000000	-1.000000	-1.000000	1486622.000000	1770064469.706640
-4811.355000	-17495.280000	-3808.845000	9434.295000	-7449.165000	-3786.030000	7075.620000	-1154.115000	-7.195210	-8.743479	-8.354479	-8.493151	-10.822761	-6.971775	-4.890498	-19.899257	-1.892240	7.019600	-4.486440	0.735167	0.661497	0.092529	-1.000000	-1.000000	-1.000000	-1.000000	-1.000000	-1.000000	-1.000000	78.413793	0.000000	-1.000000	-1.000000	1486623.000000	1770064469.706646
-4810.545000	-17490.330000	-3801.555000	9447.930000	-7434.090000	-3768.885000	7081.380000	-1157.040000	5.771782	2.440108	1.476600	0.503585	-2.560356	0.864590	-1.916595	-1.491100	-1.892240	7.019600	-4.486440	0.735167	0.661497	0.092529	-1.000000	-1.000000	-1.000000	-1.000000	-1.000000	-1.000000	-1.000000	78.413793	0.000000	-1.000000	-1.000000	1486624.000000	1770064469.706651
-4809.555000	-17483.400000	-3795.480000	9452.295000	-7427.475000	-3756.420000	7084.260000	-1163.385000	12.365185	8.430450	7.093648	6.353063	4.492784	6.633672	-0.068352	10.469532	-1.892240	7.019600	-4.486440	0.735167	0.661497	0.092529	-1.000000	-1.000000	-1.000000	-1.000000	-1.000000	-1.000000	-1.000000	78.413793	0.000000	-1.000000	-1.000000	1486625.000000	1770064469.706770
-4851.945000	-17493.390000	-3798.450000	9450.180000	-7426.845000	-3758.220000	7080.795000	-1158.795000	10.962943	9.236950	8.574469	8.745017	9.011001	8.800014	0.660990	11.404199	-1.892240	7.019600	-4.486440	0.735167	0.661497	0.092529	-1.000000	-1.000000	-1.000000	-1.000000	-1.000000	-1.000000	-1.000000	78.413793	0.000000	-1.000000	-1.000000	1486626.000000	1770064469.706776
-4844.385000	-17503.605000	-3810.780000	9438.930000	-7436.880000	-3767.220000	7069.095000	-1162.665000	4.853472	7.602795	8.097553	8.965682	10.921843	8.148641	2.490306	7.884260	-1.892240	7.019600	-4.486440	0.735167	0.661497	0.092529	-1.000000	-1.000000	-1.000000	-1.000000	-1.000000	-1.000000	-1.000000	78.413793	0.000000	-1.000000	-1.000000	1486627.000000	1770064469.710928
-4785.345000	-17477.505000	-3790.530000	9458.955000	-7418.430000	-3753.090000	7074.585000	-1153.305000	-0.194703	5.816579	7.106010	8.002845	10.392967	5.963649	5.126243	7.371007	-1.892240	7.019600	-4.486440	0.735167	0.661497	0.092529	-1.000000	-1.000000	-1.000000	-1.000000	-1.000000	-1.000000	-1.000000	78.413793	0.000000	-1.000000	-1.000000	1486628.000000	1770064469.710938
-4774.680000	-17461.890000	-3773.970000	9471.510000	-7411.815000	-3753.405000	7074.270000	-1106.505000	0.948096	5.799145	6.911684	7.251710	8.710463	3.873294	5.966896	10.656257	-1.892240	7.019600	-4.486440	0.735167	0.661497	0.092529	-1.000000	-1.000000	-1.000000	-1.000000	-1.000000	-1.000000	-1.000000	78.413793	0.000000	-1.000000	-1.000000	1486629.000000	1770064469.714936
-4801.410000	-17467.695000	-3779.010000	9459.855000	-7427.565000	-3774.330000	7075.620000	-1128.240000	6.560884	7.402418	7.590665	7.093936	6.827862	2.393821	4.261396	13.157095	-1.892240	7.019600	-4.486440	0.735167	0.661497	0.092529	-1.000000	-1.000000	-1.000000	-1.000000	-1.000000	-1.000000	-1.000000	78.413793	0.000000	-1.000000	-1.000000	1486630.000000	1770064469.714947
-4792.635000	-17472.330000	-3781.665000	9462.780000	-7424.055000	-3774.375000	7087.095000	-1187.100000	8.677566	6.982115	6.358046	5.204390	3.467277	0.089457	2.057706	9.430458	-1.129240	5.432560	-4.364360	0.738768	0.660887	0.094665	-1.000000	-1.000000	-1.000000	-1.000000	-1.000000	-1.000000	-1.000000	78.413793	0.000000	-1.000000	-1.000000	1486631.000000	1770064469.719734
-4796.505000	-17481.420000	-3785.175000	9467.370000	-7413.975000	-3758.400000	7076.970000	-1176.840000	2.130804	0.630487	-0.053620	-1.117985	-3.028808	-4.220778	0.336738	-2.836740	-1.129240	5.432560	-4.364360	0.738768	0.660887	0.094665	-1.000000	-1.000000	-1.000000	-1.000000	-1.000000	-1.000000	-1.000000	78.413793	0.000000	-1.000000	-1.000000	1486632.000000	1770064469.719741
-4817.115000	-17477.370000	-3779.910000	9473.625000	-7401.780000	-3736.800000	7090.650000	-1168.965000	-10.236684	-10.496220	-10.540021	-10.620547	-11.078036	-8.896474	-2.125695	-18.761036	-1.129240	5.432560	-4.364360	0.738768	0.660887	0.094665	-1.000000	-1.000000	-1.000000	-1.000000	-1.000000	-1.000000	-1.000000	78.413793	0.000000	-1.000000	-1.000000	1486633.000000	1770064469.722811
-4823.010000	-17475.300000	-3783.465000	9475.785000	-7399.980000	-3729.915000	7097.220000	-1136.115000	-20.541594	-19.676657	-19.087607	-17.876884	-16.189159	-10.628572	-5.014961	-27.615821	-1.129240	5.432560	-4.364360	0.738768	0.660887	0.094665	-1.000000	-1.000000	-1.000000	-1.000000	-1.000000	-1.000000	-1.000000	78.413793	0.000000	-1.000000	-1.000000	1486634.000000	1770064469.722820
-4809.240000	-17471.520000	-3775.680000	9479.970000	-7400.970000	-3732.975000	7080.795000	-1123.245000	-21.301950	-20.258168	-19.856197	-17.893223	-15.065400	-7.844786	-6.004517	-21.676354	-1.129240	5.432560	-4.364360	0.738768	0.660887	0.094665	-1.000000	-1.000000	-1.000000	-1.000000	-1.000000	-1.000000	-1.000000	78.413793	0.000000	-1.000000	-1.000000	1486635.000000	1770064469.728592
-4820.535000	-17506.350000	-3815.145000	9435.645000	-7446.645000	-3782.835000	7037.505000	-1142.145000	-11.144248	-11.638378	-12.201475	-10.676314	-8.753702	-2.645962	-4.885935	-3.575215	-1.129240	5.432560	-4.364360	0.738768	0.660887	0.094665	-1.000000	-1.000000	-1.000000	-1.000000	-1.000000	-1.000000	-1.000000	78.413793	0.000000	-1.000000	-1.000000	1486636.000000	1770064469.728602
-4831.875000	-17522.010000	-3830.715000	9424.485000	-7456.950000	-3794.490000	7055.955000	-1187.235000	2.755142	-0.053627	-1.477602	-1.519450	-1.929244	0.621001	-3.933537	14.407463	-1.129240	5.432560	-4.364360	0.738768	0.660887	0.094665	-1.000000	-1.000000	-1.000000	-1.000000	-1.000000	-1.000000	-1.000000	78.413793	0.000000	-1.000000	-1.000000	1486637.000000	1770064469.730717
-4843.440000	-17533.170000	-3835.845000	9417.420000	-7462.215000	-3797.055000	7073.730000	-1208.520000	11.454385	7.428504	6.012575	4.395736	2.049993	0.346861	-3.216197	19.471570	-1.129240	5.432560	-4.364360	0.738768	0.660887	0.094665	-1.000000	-1.000000	-1.000000	-1.000000	-1.000000	-1.000000	-1.000000	78.413793	0.000000	-1.000000	-1.000000	1486638.000000	1770064469.730728
-4834.170000	-17509.725000	-3813.435000	9433.305000	-7447.500000	-3785.445000	7072.020000	-1207.170000	12.561450	9.325046	8.883134	6.772735	4.281035	-0.248072	-0.396512	10.393199	-1.129240	5.432560	-4.364360	0.738768	0.660887	0.094665	-1.000000	-1.000000	-1.000000	-1.000000	-1.000000	-1.000000	-1.000000	78.413793	0.000000	-1.000000	-1.000000	1486639.000000	1770064469.737768
-4808.970000	-17473.185000	-3785.715000	9466.740000	-7414.830000	-3749.715000	7095.240000	-1167.120000	9.490756	9.183467	9.888708	8.259485	7.194189	2.330011	4.530305	-1.389586	-1.129240	5.432560	-4.364360	0.738768	0.660887	0.094665	-1.000000	-1.000000	-1.000000	-1.000000	-1.000000	-1.000000	-1.000000	78.413793	0.000000	-1.000000	-1.000000	1486640.000000	1770064469.737778
-4813.965000	-17482.005000	-3792.915000	9456.210000	-7423.740000	-3753.945000	7085.565000	-1168.515000	6.189711	10.006664	10.882054	9.935526	10.507794	7.315082	8.621841	-5.153817	-1.312360	3.631880	-4.059160	0.737791	0.661009	0.097046	-1.000000	-1.000000	-1.000000	-1.000000	-1.000000	-1.000000	-1.000000	78.413793	0.000000	-1.000000	-1.000000	1486641.000000	1770064469.738798
-4814.235000	-17494.065000	-3798.945000	9450.180000	-7431.165000	-3764.430000	7077.195000	-1167.120000	4.370025	10.445081	10.501997	9.944867	11.160648	10.093621	8.718906	-1.005553	-1.312360	3.631880	-4.059160	0.737791	0.661009	0.097046	-1.000000	-1.000000	-1.000000	-1.000000	-1.000000	-1.000000	-1.000000	78.413793	0.000000	-1.000000	-1.000000	1486642.000000	1770064469.738807
-4781.610000	-17464.770000	-3770.595000	9472.770000	-7416.270000	-3756.375000	7073.820000	-1152.135000	4.023070	7.732418	7.168958	6.671839	7.242171	7.226284	4.010993	4.260277	-1.312360	3.631880	-4.059160	0.737791	0.661009	0.097046	-1.000000	-1.000000	-1.000000	-1.000000	-1.000000	-1.000000	-1.000000	78.413793	0.000000	-1.000000	-1.000000	1486643.000000	1770064469.742788
-4786.920000	-17455.320000	-3767.625000	9470.565000	-7419.330000	-3764.385000	7045.605000	-1150.605000	4.354643	2.792332	2.416375	1.887666	1.134899	0.757662	-2.636854	5.946586	-1.312360	3.631880	-4.059160	0.737791	0.661009	0.097046	-1.000000	-1.000000	-1.000000	-1.000000	-1.000000	-1.000000	-1.000000	78.413793	0.000000	-1.000000	-1.000000	1486644.000000	1770064469.742798
-4810.230000	-17454.690000	-3763.395000	9479.520000	-7407.405000	-3756.015000	7052.715000	-1162.125000	3.090668	-1.060148	-0.845135	-1.096870	-2.745596	-3.944800	-7.031659	4.185960	-1.312360	3.631880	-4.059160	0.737791	0.661009	0.097046	-1.000000	-1.000000	-1.000000	-1.000000	-1.000000	-1.000000	-1.000000	78.413793	0.000000	-1.000000	-1.000000	1486645.000000	1770064469.746816
-4815.810000	-17473.140000	-3781.215000	9466.425000	-7415.010000	-3757.320000	7094.520000	-1174.005000	-1.811706	-2.836533	-2.042972	-1.331967	-2.553788	-3.760416	-6.719150	1.040306	-1.312360	3.631880	-4.059160	0.737791	0.661009	0.097046	-1.000000	-1.000000	-1.000000	-1.000000	-1.000000	-1.000000	-1.000000	78.413793	0.000000	-1.000000	-1.000000	1486646.000000	1770064469.746828
-4837.680000	-17506.665000	-3816.270000	9431.685000	-7443.180000	-3774.645000	7117.560000	-1159.020000	-8.844581	-4.776795	-3.715870	-1.421038	-0.839419	-0.507621	-1.684030	-1.710613	-1.312360	3.631880	-4.059160	0.737791	0.661009	0.097046	-1.000000	-1.000000	-1.000000	-1.000000	-1.000000	-1.000000	-1.000000	78.413793	0.000000	-1.000000	-1.000000	1486647.000000	1770064469.751498
-4843.845000	-17532.675000	-3836.655000	9412.425000	-7461.090000	-3802.140000	7030.755000	-1191.645000	-14.486502	-9.586397	-8.708061	-4.978228	-2.124280	0.818381	4.065424	-3.311337	-1.312360	3.631880	-4.059160	0.737791	0.661009	0.097046	-1.000000	-1.000000	-1.000000	-1.000000	-1.000000	-1.000000	-1.000000	78.413793	0.000000	-1.000000	-1.000000	1486648.000000	1770064469.751508
-4802.940000	-17478.315000	-3785.940000	9462.870000	-7417.485000	-3768.390000	7022.925000	-1156.815000	-15.718934	-15.873942	-15.304500	-11.431893	-7.366181	-2.737712	3.638527	-4.700758	-1.312360	3.631880	-4.059160	0.737791	0.661009	0.097046	-1.000000	-1.000000	-1.000000	-1.000000	-1.000000	-1.000000	-1.000000	78.413793	0.000000	-1.000000	-1.000000	1486649.000000	1770064469.757881
-4793.805000	-17457.705000	-3784.725000	9463.860000	-7419.690000	-3761.820000	7067.025000	-1125.090000	-10.084262	-16.700068	-16.666864	-14.467272	-11.509135	-7.922043	-3.450660	-5.653129	-1.312360	3.631880	-4.059160	0.737791	0.661009	0.097046	-1.000000	-1.000000	-1.000000	-1.000000	-1.000000	-1.000000	-1.000000	78.413793	0.000000	-1.000000	-1.000000	1486650.000000	1770064469.757889
-4863.465000	-17550.180000	-3859.830000	9392.940000	-7484.355000	-3816.990000	7059.420000	-1175.265000	0.481219	-8.641955	-9.821223	-10.307496	-10.376406	-9.707084	-8.854949	-4.688034	-3.235120	4.257540	-1.327620	0.736570	0.663756	0.097656	-1.000000	-1.000000	-1.000000	-1.000000	-1.000000	-1.000000	-1.000000	78.551724	0.000000	-1.000000	-1.000000	1486651.000000	1770064469.758795
-4859.640000	-17541.405000	-3835.260000	9403.920000	-7477.290000	-3803.895000	7080.750000	-1167.120000	8.212592	1.556691	-0.428008	-3.201958	-6.115254	-7.526948	-6.050397	-3.260962	-3.235120	4.257540	-1.327620	0.736570	0.663756	0.097656	-1.000000	-1.000000	-1.000000	-1.000000	-1.000000	-1.000000	-1.000000	78.551724	0.000000	-1.000000	-1.000000	1486652.000000	1770064469.758801
-4852.665000	-17513.505000	-3815.820000	9425.475000	-7452.630000	-3779.280000	7067.070000	-1197.585000	8.654370	7.275478	6.496997	2.639292	-1.190239	-2.353980	3.576073	-3.264800	-3.235120	4.257540	-1.327620	0.736570	0.663756	0.097656	-1.000000	-1.000000	-1.000000	-1.000000	-1.000000	-1.000000	-1.000000	78.551724	0.000000	-1.000000	-1.000000	1486653.000000	1770064469.762939
-4856.400000	-17510.625000	-3823.650000	9430.380000	-7442.280000	-3771.990000	7071.030000	-1200.780000	5.541433	9.981215	11.479717	7.963452	5.217944	5.632521	12.943091	-3.438148	-3.235120	4.257540	-1.327620	0.736570	0.663756	0.097656	-1.000000	-1.000000	-1.000000	-1.000000	-1.000000	-1.000000	-1.000000	78.551724	0.000000	-1.000000	-1.000000	1486654.000000	1770064469.762953
-4823.595000	-17484.345000	-3800.520000	9444.105000	-7434.945000	-3774.330000	7054.560000	-1196.550000	4.425786	13.139454	15.396668	13.502975	12.698896	13.731774	14.121147	-1.589401	-3.235120	4.257540	-1.327620	0.736570	0.663756	0.097656	-1.000000	-1.000000	-1.000000	-1.000000	-1.000000	-1.000000	-1.000000	78.551724	0.000000	-1.000000	-1.000000	1486655.000000	1770064469.774492
-4794.390000	-17470.980000	-3791.790000	9446.805000	-7435.665000	-3780.765000	7058.205000	-1132.515000	7.513650	17.041936	17.630709	17.638958	18.113053	17.398586	5.461187	3.671158	-3.235120	4.257540	-1.327620	0.736570	0.663756	0.097656	-1.000000	-1.000000	-1.000000	-1.000000	-1.000000	-1.000000	-1.000000	78.551724	0.000000	-1.000000	-1.000000	1486656.000000	1770064469.774503
-4812.750000	-17486.730000	-3806.010000	9430.785000	-7456.770000	-3795.705000	7071.615000	-1161.945000	11.953772	18.248031	16.176957	17.097130	17.444532	13.817697	-5.495801	11.364786	-3.235120	4.257540	-1.327620	0.736570	0.663756	0.097656	-1.000000	-1.000000	-1.000000	-1.000000	-1.000000	-1.000000	-1.000000	78.551724	0.000000	-1.000000	-1.000000	1486657.000000	1770064469.774514
-4849.245000	-17535.465000	-3850.290000	9391.860000	-7490.790000	-3819.870000	7057.305000	-1199.520000	10.692846	10.959655	7.530462	8.245806	7.807226	3.006676	-10.180208	15.209968	-3.235120	4.257540	-1.327620	0.736570	0.663756	0.097656	-1.000000	-1.000000	-1.000000	-1.000000	-1.000000	-1.000000	-1.000000	78.551724	0.000000	-1.000000	-1.000000	1486658.000000	1770064469.774520
-4851.135000	-17525.250000	-3837.015000	9411.255000	-7465.005000	-3799.935000	7055.370000	-1208.745000	0.355487	-5.540030	-7.605488	-7.187537	-7.675265	-10.636310	-8.244948	8.770440	-3.235120	4.257540	-1.327620	0.736570	0.663756	0.097656	-1.000000	-1.000000	-1.000000	-1.000000	-1.000000	-1.000000	-1.000000	78.551724	0.000000	-1.000000	-1.000000	1486659.000000	1770064469.782673
-4849.605000	-17520.165000	-3840.840000	9413.730000	-7457.580000	-3797.415000	7056.045000	-1189.665000	-12.592761	-21.310636	-20.418511	-19.434985	-18.634655	-18.522133	-4.458778	-4.526226	-3.235120	4.257540	-1.327620	0.736570	0.663756	0.097656	-1.000000	-1.000000	-1.000000	-1.000000	-1.000000	-1.000000	-1.000000	78.551724	0.000000	-1.000000	-1.000000	1486660.000000	1770064469.782685
-4838.580000	-17514.855000	-3839.130000	9415.890000	-7453.845000	-3795.300000	7051.410000	-1177.920000	-18.533978	-25.150744	-22.588977	-20.121314	-17.401751	-15.423416	-1.473207	-13.834985	-3.052000	4.867940	-0.732480	0.735350	0.662291	0.096802	-1.000000	-1.000000	-1.000000	-1.000000	-1.000000	-1.000000	-1.000000	78.551724	0.000000	-1.000000	-1.000000	1486661.000000	1770064469.783043
-4826.655000	-17513.685000	-3817.395000	9425.520000	-7451.415000	-3794.760000	7037.595000	-1172.115000	-14.178577	-16.447181	-14.382770	-10.798451	-7.067128	-5.043475	0.491769	-12.229865	-3.052000	4.867940	-0.732480	0.735350	0.662291	0.096802	-1.000000	-1.000000	-1.000000	-1.000000	-1.000000	-1.000000	-1.000000	78.551724	0.000000	-1.000000	-1.000000	1486662.000000	1770064469.783049
-4805.280000	-17484.615000	-3793.635000	9446.850000	-7432.020000	-3773.970000	7061.535000	-1185.120000	-3.108905	-2.448043	-1.082553	1.349183	3.907742	5.181985	1.617860	-2.047500	-3.052000	4.867940	-0.732480	0.735350	0.662291	0.096802	-1.000000	-1.000000	-1.000000	-1.000000	-1.000000	-1.000000	-1.000000	78.551724	0.000000	-1.000000	-1.000000	1486663.000000	1770064469.783057
-4826.565000	-17499.870000	-3809.700000	9437.850000	-7436.700000	-3776.040000	7070.940000	-1177.380000	7.619458	9.495499	11.182026	10.337978	9.989583	10.960376	2.662542	8.057930	-3.052000	4.867940	-0.732480	0.735350	0.662291	0.096802	-1.000000	-1.000000	-1.000000	-1.000000	-1.000000	-1.000000	-1.000000	78.551724	0.000000	-1.000000	-1.000000	1486664.000000	1770064469.783062
-4805.370000	-17483.265000	-3790.890000	9462.195000	-7411.230000	-3758.220000	7073.145000	-1140.615000	11.548155	14.716373	16.819207	13.289594	10.395644	11.850874	4.469850	11.031732	-3.052000	4.867940	-0.732480	0.735350	0.662291	0.096802	-1.000000	-1.000000	-1.000000	-1.000000	-1.000000	-1.000000	-1.000000	78.551724	0.000000	-1.000000	-1.000000	1486665.000000	1770064469.786805
-4772.385000	-17445.780000	-3754.530000	9495.180000	-7384.365000	-3736.755000	7090.155000	-1102.815000	8.476965	13.266199	14.776194	11.166882	7.683190	9.453509	6.457556	7.794078	-3.052000	4.867940	-0.732480	0.735350	0.662291	0.096802	-1.000000	-1.000000	-1.000000	-1.000000	-1.000000	-1.000000	-1.000000	78.551724	0.000000	-1.000000	-1.000000	1486666.000000	1770064469.786815
-4759.155000	-17434.710000	-3742.470000	9509.175000	-7368.480000	-3715.020000	7118.910000	-1105.290000	4.203620	9.516171	9.333592	7.558893	5.153633	5.996205	7.381768	4.077378	-3.052000	4.867940	-0.732480	0.735350	0.662291	0.096802	-1.000000	-1.000000	-1.000000	-1.000000	-1.000000	-1.000000	-1.000000	78.551724	0.000000	-1.000000	-1.000000	1486667.000000	1770064469.790826
-4820.040000	-17510.040000	-3819.690000	9432.405000	-7438.185000	-3774.960000	7076.025000	-1205.820000	2.126204	5.636040	3.377641	3.423441	2.564814	1.834527	6.050725	0.955393	-3.052000	4.867940	-0.732480	0.735350	0.662291	0.096802	-1.000000	-1.000000	-1.000000	-1.000000	-1.000000	-1.000000	-1.000000	78.551724	0.000000	-1.000000	-1.000000	1486668.000000	1770064469.790832
-4864.770000	-17529.120000	-3841.200000	9409.995000	-7462.260000	-3800.340000	7051.185000	-1216.080000	-1.061795	-1.244691	-4.995551	-4.262612	-3.862689	-5.156546	0.739481	-6.099216	-3.052000	4.867940	-0.732480	0.735350	0.662291	0.096802	-1.000000	-1.000000	-1.000000	-1.000000	-1.000000	-1.000000	-1.000000	78.551724	0.000000	-1.000000	-1.000000	1486669.000000	1770064469.795031
-4896.090000	-17540.820000	-3857.940000	9388.620000	-7489.260000	-3830.445000	7000.695000	-1158.660000	-8.949583	-12.000077	-16.071564	-15.624480	-14.571218	-15.014324	-8.567761	-16.112140	-3.052000	4.867940	-0.732480	0.735350	0.662291	0.096802	-1.000000	-1.000000	-1.000000	-1.000000	-1.000000	-1.000000	-1.000000	78.551724	0.000000	-1.000000	-1.000000	1486670.000000	1770064469.795040
-4866.120000	-17557.200000	-3870.405000	9381.690000	-7491.555000	-3824.640000	7006.275000	-1190.790000	-18.114987	-21.398449	-24.732442	-24.713769	-23.650506	-22.852894	-17.858568	-20.048274	-2.334780	4.516960	1.281840	0.733885	0.662962	0.094543	-1.000000	-1.000000	-1.000000	-1.000000	-1.000000	-1.000000	-1.000000	78.551724	0.000000	-1.000000	-1.000000	1486671.000000	1770064469.798717
-4829.445000	-17515.350000	-3824.640000	9425.025000	-7448.670000	-3780.000000	7068.825000	-1236.105000	-19.970386	-22.789127	-24.529982	-24.377986	-23.535259	-22.005804	-20.470038	-13.761785	-2.334780	4.516960	1.281840	0.733885	0.662962	0.094543	-1.000000	-1.000000	-1.000000	-1.000000	-1.000000	-1.000000	-1.000000	78.551724	0.000000	-1.000000	-1.000000	1486672.000000	1770064469.798724
-4848.615000	-17524.665000	-3840.705000	9406.035000	-7470.990000	-3807.405000	7045.110000	-1191.195000	-9.959509	-13.285094	-12.717091	-12.056880	-11.385824	-9.985089	-12.143300	-2.651205	-2.334780	4.516960	1.281840	0.733885	0.662962	0.094543	-1.000000	-1.000000	-1.000000	-1.000000	-1.000000	-1.000000	-1.000000	78.551724	0.000000	-1.000000	-1.000000	1486673.000000	1770064469.802909
-4865.445000	-17533.080000	-3850.965000	9395.640000	-7483.005000	-3820.770000	7035.570000	-1194.885000	6.104679	2.904647	5.587067	6.323040	6.707426	7.103966	3.117615	6.999950	-2.334780	4.516960	1.281840	0.733885	0.662962	0.094543	-1.000000	-1.000000	-1.000000	-1.000000	-1.000000	-1.000000	-1.000000	78.551724	0.000000	-1.000000	-1.000000	1486674.000000	1770064469.802917
-4858.830000	-17534.565000	-3848.580000	9396.360000	-7480.305000	-3816.945000	7032.060000	-1220.760000	17.417308	16.333503	19.862185	20.002161	20.020967	18.969273	15.422402	11.873488	-2.334780	4.516960	1.281840	0.733885	0.662962	0.094543	-1.000000	-1.000000	-1.000000	-1.000000	-1.000000	-1.000000	-1.000000	78.551724	0.000000	-1.000000	-1.000000	1486675.000000	1770064469.807288
-4841.685000	-17535.960000	-3841.425000	9401.670000	-7472.295000	-3812.265000	6996.555000	-1236.465000	19.247616	20.862730	24.027084	23.354163	23.183573	20.784149	17.799667	11.350362	-2.334780	4.516960	1.281840	0.733885	0.662962	0.094543	-1.000000	-1.000000	-1.000000	-1.000000	-1.000000	-1.000000	-1.000000	78.551724	0.000000	-1.000000	-1.000000	1486676.000000	1770064469.807298
-4811.085000	-17497.665000	-3803.355000	9439.965000	-7431.390000	-3774.330000	7026.705000	-1218.420000	15.974550	18.734855	21.131691	19.919034	19.719548	16.365490	11.442309	9.158311	-2.334780	4.516960	1.281840	0.733885	0.662962	0.094543	-1.000000	-1.000000	-1.000000	-1.000000	-1.000000	-1.000000	-1.000000	78.551724	0.000000	-1.000000	-1.000000	1486677.000000	1770064469.816923
-4783.140000	-17449.470000	-3754.575000	9477.135000	-7404.795000	-3749.895000	7080.075000	-1195.020000	14.060022	16.051943	17.738523	16.504712	16.217198	12.654881	4.769769	9.461924	-2.334780	4.516960	1.281840	0.733885	0.662962	0.094543	-1.000000	-1.000000	-1.000000	-1.000000	-1.000000	-1.000000	-1.000000	78.551724	0.000000	-1.000000	-1.000000	1486678.000000	1770064469.816933
-4753.665000	-17420.760000	-3731.310000	9492.480000	-7399.035000	-3752.010000	7106.805000	-1114.695000	14.477600	15.282749	16.086327	15.153105	14.456168	11.772908	5.533819	11.819345	-2.334780	4.516960	1.281840	0.733885	0.662962	0.094543	-1.000000	-1.000000	-1.000000	-1.000000	-1.000000	-1.000000	-1.000000	78.551724	0.000000	-1.000000	-1.000000	1486679.000000	1770064469.816944
-4791.555000	-17474.040000	-3791.790000	9434.790000	-7453.710000	-3816.000000	7034.445000	-1083.555000	11.617425	12.405012	11.630529	11.001917	9.572000	8.409827	10.547768	14.384567	-2.334780	4.516960	1.281840	0.733885	0.662962	0.094543	-1.000000	-1.000000	-1.000000	-1.000000	-1.000000	-1.000000	-1.000000	78.551724	0.000000	-1.000000	-1.000000	1486680.000000	1770064469.816949
-4886.460000	-17579.070000	-3919.320000	9342.495000	-7533.900000	-3875.490000	6993.495000	-1174.005000	-1.546971	-0.033489	-3.243836	-2.912854	-4.577952	-4.158107	7.545002	14.060418	-5.585160	3.631880	-0.076300	0.734007	0.668394	0.092529	-1.000000	-1.000000	-1.000000	-1.000000	-1.000000	-1.000000	-1.000000	78.551724	0.000000	-1.000000	-1.000000	1486681.000000	1770064469.819884
-4851.360000	-17533.215000	-3846.780000	9412.515000	-7460.055000	-3798.495000	7067.745000	-1222.020000	-23.548022	-22.384318	-27.754987	-24.812919	-25.145514	-22.619405	-7.105783	3.616195	-5.585160	3.631880	-0.076300	0.734007	0.668394	0.092529	-1.000000	-1.000000	-1.000000	-1.000000	-1.000000	-1.000000	-1.000000	78.551724	0.000000	-1.000000	-1.000000	1486682.000000	1770064469.819891
-4825.395000	-17499.870000	-3796.920000	9462.285000	-7408.665000	-3743.415000	7079.715000	-1261.890000	-40.385690	-40.825147	-45.558130	-39.526598	-37.216321	-31.976409	-20.991785	-18.788320	-5.585160	3.631880	-0.076300	0.734007	0.668394	0.092529	-1.000000	-1.000000	-1.000000	-1.000000	-1.000000	-1.000000	-1.000000	78.551724	0.000000	-1.000000	-1.000000	1486683.000000	1770064469.822856
-4875.840000	-17542.710000	-3848.850000	9404.685000	-7468.515000	-3795.480000	7051.905000	-1264.140000	-39.051703	-40.453241	-40.934717	-34.252679	-29.834916	-22.781996	-22.289069	-40.974675	-5.585160	3.631880	-0.076300	0.734007	0.668394	0.092529	-1.000000	-1.000000	-1.000000	-1.000000	-1.000000	-1.000000	-1.000000	78.551724	0.000000	-1.000000	-1.000000	1486684.000000	1770064469.822866
-4904.865000	-17583.840000	-3897.000000	9350.235000	-7523.640000	-3849.615000	7018.515000	-1208.430000	-21.598665	-22.016370	-17.792371	-14.360049	-10.225142	-3.755228	-12.596568	-45.463981	-5.585160	3.631880	-0.076300	0.734007	0.668394	0.092529	-1.000000	-1.000000	-1.000000	-1.000000	-1.000000	-1.000000	-1.000000	78.551724	0.000000	-1.000000	-1.000000	1486685.000000	1770064469.827536
-4906.170000	-17580.870000	-3890.070000	9359.505000	-7506.360000	-3840.345000	7001.280000	-1229.490000	0.107301	1.269146	6.981913	4.744382	6.206976	9.512338	-1.442471	-25.753844	-5.585160	3.631880	-0.076300	0.734007	0.668394	0.092529	-1.000000	-1.000000	-1.000000	-1.000000	-1.000000	-1.000000	-1.000000	78.551724	0.000000	-1.000000	-1.000000	1486686.000000	1770064469.827546
-4879.935000	-17556.705000	-3865.140000	9386.010000	-7480.395000	-3821.715000	7031.655000	-1191.240000	16.751278	17.584521	21.272222	14.396067	12.878372	11.412100	4.040467	6.359216	-5.585160	3.631880	-0.076300	0.734007	0.668394	0.092529	-1.000000	-1.000000	-1.000000	-1.000000	-1.000000	-1.000000	-1.000000	78.551724	0.000000	-1.000000	-1.000000	1486687.000000	1770064469.830812
-4842.405000	-17521.695000	-3831.435000	9417.150000	-7453.305000	-3796.875000	7050.780000	-1185.300000	25.679415	24.184570	24.556976	16.806696	13.967663	8.001528	4.701375	31.283504	-5.585160	3.631880	-0.076300	0.734007	0.668394	0.092529	-1.000000	-1.000000	-1.000000	-1.000000	-1.000000	-1.000000	-1.000000	78.551724	0.000000	-1.000000	-1.000000	1486688.000000	1770064469.830818
-4833.855000	-17512.920000	-3824.865000	9422.685000	-7447.365000	-3785.805000	7048.035000	-1178.325000	28.818741	25.597684	23.640282	18.393171	15.808646	7.660611	6.148531	38.177650	-5.585160	3.631880	-0.076300	0.734007	0.668394	0.092529	-1.000000	-1.000000	-1.000000	-1.000000	-1.000000	-1.000000	-1.000000	78.551724	0.000000	-1.000000	-1.000000	1486689.000000	1770064469.834899
-4889.070000	-17566.290000	-3876.885000	9368.910000	-7498.575000	-3831.030000	7001.100000	-1209.690000	27.808350	25.363139	23.120515	20.962236	18.933801	11.777272	9.798840	29.610431	-5.585160	3.631880	-0.076300	0.734007	0.668394	0.092529	-1.000000	-1.000000	-1.000000	-1.000000	-1.000000	-1.000000	-1.000000	78.551724	0.000000	-1.000000	-1.000000	1486690.000000	1770064469.834908
-4875.345000	-17549.955000	-3864.915000	9375.435000	-7499.340000	-3827.880000	6975.945000	-1200.690000	20.372720	20.360516	18.990938	18.441070	16.537001	12.796072	9.803843	14.557020	-3.189340	4.043900	0.442540	0.733397	0.665037	0.093200	-1.000000	-1.000000	-1.000000	-1.000000	-1.000000	-1.000000	-1.000000	78.551724	0.000000	-1.000000	-1.000000	1486691.000000	1770064469.842668
-4815.450000	-17479.845000	-3796.065000	9443.385000	-7432.965000	-3770.100000	7001.010000	-1211.355000	6.122820	8.164633	6.925332	6.814902	4.744340	5.053667	2.273311	0.899399	-3.189340	4.043900	0.442540	0.733397	0.665037	0.093200	-1.000000	-1.000000	-1.000000	-1.000000	-1.000000	-1.000000	-1.000000	78.551724	0.000000	-1.000000	-1.000000	1486692.000000	1770064469.842680
-4722.030000	-17364.465000	-3672.180000	9573.885000	-7294.545000	-3642.165000	7168.095000	-1200.915000	-6.389116	-3.264220	-5.287461	-4.626894	-6.464224	-3.648382	-4.432355	-7.839141	-3.189340	4.043900	0.442540	0.733397	0.665037	0.093200	-1.000000	-1.000000	-1.000000	-1.000000	-1.000000	-1.000000	-1.000000	78.551724	0.000000	-1.000000	-1.000000	1486693.000000	1770064469.842742
-4818.015000	-17484.660000	-3792.645000	9451.890000	-7418.115000	-3765.645000	7153.155000	-1159.245000	-9.238680	-5.577031	-7.552993	-4.974927	-5.560505	-2.827038	1.749205	-11.788588	-3.189340	4.043900	0.442540	0.733397	0.665037	0.093200	-1.000000	-1.000000	-1.000000	-1.000000	-1.000000	-1.000000	-1.000000	78.551724	0.000000	-1.000000	-1.000000	1486694.000000	1770064469.842748
-4931.865000	-17629.965000	-3944.250000	9297.855000	-7570.620000	-3912.930000	6974.595000	-1209.105000	-9.117132	-6.808671	-7.184432	-2.367541	-1.018139	0.381708	14.725776	-12.614625	-3.189340	4.043900	0.442540	0.733397	0.665037	0.093200	-1.000000	-1.000000	-1.000000	-1.000000	-1.000000	-1.000000	-1.000000	78.551724	0.000000	-1.000000	-1.000000	1486695.000000	1770064469.846776
-4913.415000	-17604.270000	-3920.715000	9318.510000	-7553.520000	-3902.715000	6965.910000	-1216.890000	-17.702844	-19.949300	-18.457269	-12.764637	-9.801440	-8.832249	13.331047	-13.553956	-3.189340	4.043900	0.442540	0.733397	0.665037	0.093200	-1.000000	-1.000000	-1.000000	-1.000000	-1.000000	-1.000000	-1.000000	78.551724	0.000000	-1.000000	-1.000000	1486696.000000	1770064469.846787
-4902.930000	-17584.920000	-3898.170000	9345.960000	-7523.865000	-3868.920000	6995.880000	-1234.080000	-31.868845	-38.939420	-36.546541	-32.138474	-28.591624	-26.683515	-7.871386	-16.411086	-3.189340	4.043900	0.442540	0.733397	0.665037	0.093200	-1.000000	-1.000000	-1.000000	-1.000000	-1.000000	-1.000000	-1.000000	78.551724	0.000000	-1.000000	-1.000000	1486697.000000	1770064469.855953
-4881.690000	-17560.845000	-3870.090000	9379.260000	-7490.295000	-3836.970000	7015.995000	-1224.990000	-35.982362	-43.559066	-41.089165	-39.467179	-36.555206	-33.659688	-29.738213	-17.269690	-3.189340	4.043900	0.442540	0.733397	0.665037	0.093200	-1.000000	-1.000000	-1.000000	-1.000000	-1.000000	-1.000000	-1.000000	78.551724	0.000000	-1.000000	-1.000000	1486698.000000	1770064469.855966
-4869.360000	-17557.110000	-3860.505000	9387.450000	-7483.905000	-3825.585000	7012.710000	-1198.890000	-20.072014	-23.266736	-20.958372	-22.263393	-20.959922	-18.412085	-32.482504	-10.055745	-3.189340	4.043900	0.442540	0.733397	0.665037	0.093200	-1.000000	-1.000000	-1.000000	-1.000000	-1.000000	-1.000000	-1.000000	78.551724	0.000000	-1.000000	-1.000000	1486699.000000	1770064469.855979
-4883.940000	-17562.150000	-3857.985000	9384.255000	-7484.130000	-3820.905000	7008.975000	-1186.830000	8.908307	11.485656	13.467939	10.223921	9.713976	10.607012	-14.658858	5.820024	-3.189340	4.043900	0.442540	0.733397	0.665037	0.093200	-1.000000	-1.000000	-1.000000	-1.000000	-1.000000	-1.000000	-1.000000	78.551724	0.000000	-1.000000	-1.000000	1486700.000000	1770064469.855984
-4860.720000	-17524.215000	-3838.860000	9398.745000	-7471.980000	-3812.265000	7028.865000	-1216.980000	32.514920	38.787306	39.860501	35.950340	34.302139	33.504248	9.421351	22.552819	-2.853620	5.890360	0.854560	0.731993	0.661619	0.078308	-1.000000	-1.000000	-1.000000	-1.000000	-1.000000	-1.000000	-1.000000	78.551724	0.000000	-1.000000	-1.000000	1486701.000000	1770064469.863222
-4825.305000	-17500.770000	-3828.060000	9416.205000	-7454.700000	-3800.160000	7046.010000	-1215.855000	38.076470	44.756782	43.619716	40.042570	38.087035	36.527525	23.239768	28.954387	-2.853620	5.890360	0.854560	0.731993	0.661619	0.078308	-1.000000	-1.000000	-1.000000	-1.000000	-1.000000	-1.000000	-1.000000	78.551724	0.000000	-1.000000	-1.000000	1486702.000000	1770064469.863234
-4835.565000	-17509.590000	-3826.755000	9415.170000	-7456.185000	-3799.845000	7040.880000	-1195.335000	28.985046	33.556029	29.299684	26.927710	25.101390	23.603154	21.809111	20.479137	-2.853620	5.890360	0.854560	0.731993	0.661619	0.078308	-1.000000	-1.000000	-1.000000	-1.000000	-1.000000	-1.000000	-1.000000	78.551724	0.000000	-1.000000	-1.000000	1486703.000000	1770064469.863472
-4859.505000	-17533.530000	-3851.235000	9394.650000	-7474.545000	-3806.685000	7026.930000	-1180.260000	16.162420	18.127561	12.213351	11.777203	10.394055	9.443216	13.871751	4.026183	-2.853620	5.890360	0.854560	0.731993	0.661619	0.078308	-1.000000	-1.000000	-1.000000	-1.000000	-1.000000	-1.000000	-1.000000	78.551724	0.000000	-1.000000	-1.000000	1486704.000000	1770064469.863481
-4840.515000	-17519.040000	-3837.915000	9399.555000	-7475.445000	-3792.600000	7007.850000	-1178.325000	4.570208	4.780817	0.478551	2.014521	1.456066	1.756678	7.918599	-9.382722	-2.853620	5.890360	0.854560	0.731993	0.661619	0.078308	-1.000000	-1.000000	-1.000000	-1.000000	-1.000000	-1.000000	-1.000000	78.551724	0.000000	-1.000000	-1.000000	1486705.000000	1770064469.866891
-4788.270000	-17503.920000	-3827.970000	9400.005000	-7474.140000	-3745.125000	6923.430000	-1191.960000	-5.795081	-7.478353	-7.901200	-5.644198	-5.320424	-2.598966	1.782923	-14.299800	-2.853620	5.890360	0.854560	0.731993	0.661619	0.078308	-1.000000	-1.000000	-1.000000	-1.000000	-1.000000	-1.000000	-1.000000	78.551724	0.000000	-1.000000	-1.000000	1486706.000000	1770064469.866902
-4781.565000	-17500.545000	-3820.365000	9403.740000	-7469.640000	-3698.730000	6817.185000	-1171.440000	-12.969057	-18.078669	-14.917578	-14.034054	-13.233317	-6.852259	-10.660898	-11.966886	-2.853620	5.890360	0.854560	0.731993	0.661619	0.078308	-1.000000	-1.000000	-1.000000	-1.000000	-1.000000	-1.000000	-1.000000	78.551724	0.000000	-1.000000	-1.000000	1486707.000000	1770064469.871753
-4794.345000	-17451.135000	-3756.915000	9467.460000	-7427.520000	-3723.705000	6902.730000	-1164.150000	-15.418528	-23.238954	-18.476511	-20.020365	-19.428083	-10.650187	-26.412452	-6.291270	-2.853620	5.890360	0.854560	0.731993	0.661619	0.078308	-1.000000	-1.000000	-1.000000	-1.000000	-1.000000	-1.000000	-1.000000	78.551724	0.000000	-1.000000	-1.000000	1486708.000000	1770064469.871763
-4794.840000	-17444.880000	-3755.790000	9472.635000	-7430.085000	-3811.365000	7035.345000	-1173.870000	-15.194847	-20.573283	-16.133201	-18.807208	-19.396723	-15.511963	-30.196460	-0.905396	-2.853620	5.890360	0.854560	0.731993	0.661619	0.078308	-1.000000	-1.000000	-1.000000	-1.000000	-1.000000	-1.000000	-1.000000	78.551724	0.000000	-1.000000	-1.000000	1486709.000000	1770064469.878774
-4739.715000	-17403.345000	-3728.430000	9494.685000	-7387.695000	-3704.490000	6975.765000	-1177.155000	-14.266108	-12.558330	-9.588427	-10.900781	-12.944612	-22.441478	-12.593364	2.083942	-2.853620	5.890360	0.854560	0.731993	0.661619	0.078308	-1.000000	-1.000000	-1.000000	-1.000000	-1.000000	-1.000000	-1.000000	78.551724	0.000000	-1.000000	-1.000000	1486710.000000	1770064469.878785
-4729.230000	-17388.720000	-3715.425000	9480.645000	-7407.405000	-3658.815000	6866.460000	-1158.165000	-11.256379	-3.467551	-2.602310	-1.587463	-3.490736	-23.828008	12.718408	2.309956	-0.915600	6.226080	-0.701960	0.734800	0.659239	0.096679	-1.000000	-1.000000	-1.000000	-1.000000	-1.000000	-1.000000	-1.000000	78.551724	0.000000	-1.000000	-1.000000	1486711.000000	1770064469.878900
-4791.690000	-17456.040000	-3771.765000	9423.945000	-7491.915000	-3768.165000	6913.800000	-1178.775000	-4.628607	4.340799	3.062247	4.785483	4.741368	-12.350883	25.368765	0.430027	-0.915600	6.226080	-0.701960	0.734800	0.659239	0.096679	-1.000000	-1.000000	-1.000000	-1.000000	-1.000000	-1.000000	-1.000000	78.551724	0.000000	-1.000000	-1.000000	1486712.000000	1770064469.878906
-4802.400000	-17501.220000	-3836.340000	9391.860000	-7493.670000	-3864.015000	7072.020000	-1177.875000	2.594248	7.618681	4.903491	5.792602	7.504684	3.684004	24.469887	-2.614889	-0.915600	6.226080	-0.701960	0.734800	0.659239	0.096679	-1.000000	-1.000000	-1.000000	-1.000000	-1.000000	-1.000000	-1.000000	78.551724	0.000000	-1.000000	-1.000000	1486713.000000	1770064469.884550
-4810.095000	-17531.415000	-3855.240000	9391.860000	-7469.145000	-3846.465000	7003.845000	-1170.990000	5.303291	2.879986	-0.270559	1.210613	4.479461	9.607069	22.054447	-4.945885	-0.915600	6.226080	-0.701960	0.734800	0.659239	0.096679	-1.000000	-1.000000	-1.000000	-1.000000	-1.000000	-1.000000	-1.000000	78.551724	0.000000	-1.000000	-1.000000	1486714.000000	1770064469.884561
-4838.085000	-17561.160000	-3855.420000	9388.260000	-7492.680000	-3843.675000	6899.130000	-1214.865000	1.797327	-7.734031	-9.791718	-5.050525	0.228691	3.378035	19.987381	-4.663283	-0.915600	6.226080	-0.701960	0.734800	0.659239	0.096679	-1.000000	-1.000000	-1.000000	-1.000000	-1.000000	-1.000000	-1.000000	78.551724	0.000000	-1.000000	-1.000000	1486715.000000	1770064469.886828
-4845.285000	-17548.920000	-3842.730000	9381.105000	-7505.100000	-3834.630000	6858.180000	-1229.850000	-4.784334	-16.472073	-15.541990	-7.993326	-2.054436	-5.110036	10.029855	-2.967000	-0.915600	6.226080	-0.701960	0.734800	0.659239	0.096679	-1.000000	-1.000000	-1.000000	-1.000000	-1.000000	-1.000000	-1.000000	78.551724	0.000000	-1.000000	-1.000000	1486716.000000	1770064469.886838
-4835.655000	-17479.125000	-3783.420000	9416.025000	-7476.615000	-3786.570000	6965.820000	-1185.075000	-8.169381	-15.425317	-11.608650	-6.005290	-2.493516	-4.902189	-9.726874	-1.512097	-0.915600	6.226080	-0.701960	0.734800	0.659239	0.096679	-1.000000	-1.000000	-1.000000	-1.000000	-1.000000	-1.000000	-1.000000	78.551724	0.000000	-1.000000	-1.000000	1486717.000000	1770064469.900456
-4809.105000	-17520.570000	-3875.580000	9352.845000	-7504.740000	-3826.125000	7070.670000	-1160.190000	-3.949275	-3.054174	0.181296	-1.135956	-1.668496	7.323900	-28.631001	1.996606	-0.915600	6.226080	-0.701960	0.734800	0.659239	0.096679	-1.000000	-1.000000	-1.000000	-1.000000	-1.000000	-1.000000	-1.000000	78.551724	0.000000	-1.000000	-1.000000	1486718.000000	1770064469.900468
-4795.245000	-17516.475000	-3860.865000	9390.870000	-7459.695000	-3821.445000	7096.230000	-1119.195000	5.748696	12.531563	11.028635	3.252716	-0.001889	21.596196	-31.661072	9.475104	-0.915600	6.226080	-0.701960	0.734800	0.659239	0.096679	-1.000000	-1.000000	-1.000000	-1.000000	-1.000000	-1.000000	-1.000000	78.551724	0.000000	-1.000000	-1.000000	1486719.000000	1770064469.900626
-4728.465000	-17361.990000	-3677.715000	9570.105000	-7288.740000	-3639.240000	7192.485000	-1138.905000	16.026729	23.890950	17.465334	9.416018	5.993175	27.356369	-12.729448	16.996660	-0.915600	6.226080	-0.701960	0.734800	0.659239	0.096679	-1.000000	-1.000000	-1.000000	-1.000000	-1.000000	-1.000000	-1.000000	78.551724	0.000000	-1.000000	-1.000000	1486720.000000	1770064469.900637
-4842.540000	-17523.405000	-3846.195000	9398.835000	-7457.580000	-3800.925000	7095.645000	-1157.985000	23.233417	30.925545	24.296746	21.524564	19.397432	26.752473	15.419537	17.628927	-1.846460	3.616620	5.798800	0.737059	0.660460	0.093567	-1.000000	-1.000000	-1.000000	-1.000000	-1.000000	-1.000000	-1.000000	78.551724	0.000000	-1.000000	-1.000000	1486721.000000	1770064469.900648
-4913.370000	-17599.140000	-3924.765000	9310.230000	-7556.490000	-3912.300000	7018.965000	-1227.330000	20.966078	29.022970	27.306426	29.290062	27.688529	20.078906	26.366885	7.578877	-1.846460	3.616620	5.798800	0.737059	0.660460	0.093567	-1.000000	-1.000000	-1.000000	-1.000000	-1.000000	-1.000000	-1.000000	78.551724	0.000000	-1.000000	-1.000000	1486722.000000	1770064469.900654
-4873.050000	-17541.450000	-3860.325000	9378.135000	-7484.580000	-3843.855000	7061.580000	-1228.320000	5.444707	12.571976	16.851979	18.524347	15.187785	1.565824	8.973465	-9.923713	-1.846460	3.616620	5.798800	0.737059	0.660460	0.093567	-1.000000	-1.000000	-1.000000	-1.000000	-1.000000	-1.000000	-1.000000	78.551724	0.000000	-1.000000	-1.000000	1486723.000000	1770064469.902978
-4870.980000	-17543.295000	-3863.385000	9381.375000	-7470.270000	-3821.715000	7072.785000	-1234.890000	-13.996735	-9.798982	-2.830453	-5.059322	-10.692942	-22.642199	-16.242748	-24.601684	-1.846460	3.616620	5.798800	0.737059	0.660460	0.093567	-1.000000	-1.000000	-1.000000	-1.000000	-1.000000	-1.000000	-1.000000	78.551724	0.000000	-1.000000	-1.000000	1486724.000000	1770064469.902988
-4819.095000	-17483.040000	-3806.505000	9430.785000	-7429.140000	-3783.465000	7075.035000	-1190.655000	-22.796404	-23.905717	-19.040175	-23.741424	-28.766032	-36.745165	-24.959653	-26.226558	-1.846460	3.616620	5.798800	0.737059	0.660460	0.093567	-1.000000	-1.000000	-1.000000	-1.000000	-1.000000	-1.000000	-1.000000	78.551724	0.000000	-1.000000	-1.000000	1486725.000000	1770064469.907037
-4775.175000	-17444.835000	-3770.190000	9461.565000	-7403.985000	-3761.955000	7077.735000	-1092.060000	-15.365511	-24.148946	-23.729189	-26.806207	-27.934297	-32.083660	-17.475566	-12.394870	-1.846460	3.616620	5.798800	0.737059	0.660460	0.093567	-1.000000	-1.000000	-1.000000	-1.000000	-1.000000	-1.000000	-1.000000	78.551724	0.000000	-1.000000	-1.000000	1486726.000000	1770064469.907047
-4828.590000	-17524.080000	-3849.345000	9385.020000	-7476.120000	-3826.215000	7039.710000	-1149.975000	0.751647	-14.423488	-16.493125	-15.897963	-13.257248	-13.566662	-9.150917	9.306310	-1.846460	3.616620	5.798800	0.737059	0.660460	0.093567	-1.000000	-1.000000	-1.000000	-1.000000	-1.000000	-1.000000	-1.000000	78.551724	0.000000	-1.000000	-1.000000	1486727.000000	1770064469.910983
-4855.770000	-17544.195000	-3867.885000	9369.585000	-7490.340000	-3833.685000	7039.035000	-1234.755000	10.690448	-5.224820	-6.249420	-3.350086	0.213898	3.811160	-7.829869	23.102499	-1.846460	3.616620	5.798800	0.737059	0.660460	0.093567	-1.000000	-1.000000	-1.000000	-1.000000	-1.000000	-1.000000	-1.000000	78.551724	0.000000	-1.000000	-1.000000	1486728.000000	1770064469.910993
-4845.420000	-17525.340000	-3849.255000	9388.665000	-7467.660000	-3810.825000	7050.060000	-1228.995000	6.964328	-4.113738	-3.266115	-0.294129	2.254251	8.705482	-8.847289	17.807969	-1.846460	3.616620	5.798800	0.737059	0.660460	0.093567	-1.000000	-1.000000	-1.000000	-1.000000	-1.000000	-1.000000	-1.000000	78.551724	0.000000	-1.000000	-1.000000	1486729.000000	1770064469.920025
-4829.805000	-17510.670000	-3837.240000	9401.310000	-7453.440000	-3795.345000	7057.620000	-1205.415000	-1.966061	-4.881394	-4.082951	-2.034322	-0.204239	6.915133	-3.783084	0.512155	-1.846460	3.616620	5.798800	0.737059	0.660460	0.093567	-1.000000	-1.000000	-1.000000	-1.000000	-1.000000	-1.000000	-1.000000	78.551724	0.000000	-1.000000	-1.000000	1486730.000000	1770064469.920037
-4813.065000	-17489.430000	-3819.960000	9417.105000	-7445.655000	-3790.845000	7056.855000	-1197.765000	-3.269176	3.500818	2.527728	3.688022	5.556602	11.285302	10.776026	-11.379464	4.867940	13.566140	2.273740	0.746519	0.647764	0.095154	-1.000000	-1.000000	-1.000000	-1.000000	-1.000000	-1.000000	-1.000000	78.551724	0.000000	-1.000000	-1.000000	1486731.000000	1770064469.920050
-4785.885000	-17458.965000	-3786.525000	9443.700000	-7422.390000	-3769.155000	7051.005000	-1197.405000	4.513516	19.188044	16.136143	16.565762	18.165886	20.798715	28.790176	-8.891517	4.867940	13.566140	2.273740	0.746519	0.647764	0.095154	-1.000000	-1.000000	-1.000000	-1.000000	-1.000000	-1.000000	-1.000000	78.551724	0.000000	-1.000000	-1.000000	1486732.000000	1770064469.920056
-4766.220000	-17434.890000	-3761.280000	9468.450000	-7394.130000	-3737.970000	7056.945000	-1180.440000	12.692001	29.486472	25.256932	24.950055	25.430682	23.519241	38.679376	2.865701	4.867940	13.566140	2.273740	0.746519	0.647764	0.095154	-1.000000	-1.000000	-1.000000	-1.000000	-1.000000	-1.000000	-1.000000	78.551724	0.000000	-1.000000	-1.000000	1486733.000000	1770064469.922998
-4803.570000	-17464.410000	-3789.315000	9441.045000	-7420.455000	-3756.105000	7080.120000	-1129.905000	12.285131	24.089447	20.598347	19.996201	19.396757	13.281329	32.836565	12.669267	4.867940	13.566140	2.273740	0.746519	0.647764	0.095154	-1.000000	-1.000000	-1.000000	-1.000000	-1.000000	-1.000000	-1.000000	78.551724	0.000000	-1.000000	-1.000000	1486734.000000	1770064469.923008
-4853.880000	-17519.400000	-3847.545000	9387.855000	-7471.980000	-3797.415000	7055.280000	-1161.270000	-0.317735	2.440688	1.858441	1.937617	1.245985	-5.990333	12.738452	12.366022	4.867940	13.566140	2.273740	0.746519	0.647764	0.095154	-1.000000	-1.000000	-1.000000	-1.000000	-1.000000	-1.000000	-1.000000	78.551724	0.000000	-1.000000	-1.000000	1486735.000000	1770064469.926972
-4835.970000	-17508.600000	-3842.820000	9390.825000	-7465.230000	-3794.265000	7040.205000	-1196.595000	-18.941463	-23.859850	-20.715566	-19.598706	-19.765392	-24.374191	-12.373212	1.926927	4.867940	13.566140	2.273740	0.746519	0.647764	0.095154	-1.000000	-1.000000	-1.000000	-1.000000	-1.000000	-1.000000	-1.000000	78.551724	0.000000	-1.000000	-1.000000	1486736.000000	1770064469.926981
-4811.940000	-17503.605000	-3820.950000	9408.375000	-7450.560000	-3776.985000	7053.975000	-1195.965000	-29.589941	-38.369277	-33.009755	-31.721426	-31.549114	-32.121973	-30.841577	-10.527919	4.867940	13.566140	2.273740	0.746519	0.647764	0.095154	-1.000000	-1.000000	-1.000000	-1.000000	-1.000000	-1.000000	-1.000000	78.551724	0.000000	-1.000000	-1.000000	1486737.000000	1770064469.931149
-4829.625000	-17511.300000	-3818.340000	9418.365000	-7434.540000	-3755.745000	7052.310000	-1206.855000	-23.146387	-33.064829	-27.873931	-27.577932	-27.458902	-25.219889	-35.063133	-16.133997	4.867940	13.566140	2.273740	0.746519	0.647764	0.095154	-1.000000	-1.000000	-1.000000	-1.000000	-1.000000	-1.000000	-1.000000	78.551724	0.000000	-1.000000	-1.000000	1486738.000000	1770064469.931161
-4827.465000	-17504.505000	-3823.740000	9415.080000	-7437.690000	-3760.695000	7054.380000	-1198.440000	-3.846577	-12.337198	-8.792803	-9.715692	-9.805479	-6.615332	-24.637917	-12.872760	4.867940	13.566140	2.273740	0.746519	0.647764	0.095154	-1.000000	-1.000000	-1.000000	-1.000000	-1.000000	-1.000000	-1.000000	78.551724	0.000000	-1.000000	-1.000000	1486739.000000	1770064469.935111
-4820.895000	-17506.395000	-3834.720000	9405.495000	-7447.230000	-3772.665000	7053.345000	-1200.600000	15.746944	11.539506	12.410741	11.117955	11.021275	13.765871	-5.636973	-4.373731	4.867940	13.566140	2.273740	0.746519	0.647764	0.095154	-1.000000	-1.000000	-1.000000	-1.000000	-1.000000	-1.000000	-1.000000	78.551724	0.000000	-1.000000	-1.000000	1486740.000000	1770064469.935118
-4802.310000	-17487.855000	-3820.140000	9418.185000	-7439.805000	-3771.495000	7050.690000	-1188.630000	25.008940	25.913261	23.104591	22.473322	22.568058	23.695399	12.589499	4.640526	3.891300	18.281480	-5.234180	0.735289	0.660887	0.089599	-1.000000	-1.000000	-1.000000	-1.000000	-1.000000	-1.000000	-1.000000	78.551724	0.000000	-1.000000	-1.000000	1486741.000000	1770064469.939064
-4808.205000	-17485.065000	-3808.035000	9425.430000	-7438.050000	-3771.090000	7052.850000	-1184.445000	21.291120	25.467069	19.351791	19.737549	19.697425	18.392767	21.852447	9.868169	3.891300	18.281480	-5.234180	0.735289	0.660887	0.089599	-1.000000	-1.000000	-1.000000	-1.000000	-1.000000	-1.000000	-1.000000	78.551724	0.000000	-1.000000	-1.000000	1486742.000000	1770064469.939075
-4816.620000	-17488.755000	-3813.435000	9423.000000	-7435.980000	-3767.310000	7054.515000	-1179.495000	9.433311	14.304608	7.545070	8.441610	7.702425	4.211943	18.962751	8.365643	3.891300	18.281480	-5.234180	0.735289	0.660887	0.089599	-1.000000	-1.000000	-1.000000	-1.000000	-1.000000	-1.000000	-1.000000	78.551724	0.000000	-1.000000	-1.000000	1486743.000000	1770064469.958241
-4828.545000	-17507.025000	-3835.170000	9409.770000	-7445.880000	-3774.420000	7045.830000	-1186.920000	-2.603870	1.639979	-2.289186	-1.696296	-3.160613	-7.340593	7.758669	1.896699	3.891300	18.281480	-5.234180	0.735289	0.660887	0.089599	-1.000000	-1.000000	-1.000000	-1.000000	-1.000000	-1.000000	-1.000000	78.551724	0.000000	-1.000000	-1.000000	1486744.000000	1770064469.958301
-4824.585000	-17522.595000	-3846.555000	9402.210000	-7445.565000	-3771.405000	7033.455000	-1173.600000	-9.376100	-6.066280	-5.425446	-5.408539	-6.825241	-9.627194	-3.962302	-2.813728	3.891300	18.281480	-5.234180	0.735289	0.660887	0.089599	-1.000000	-1.000000	-1.000000	-1.000000	-1.000000	-1.000000	-1.000000	78.551724	0.000000	-1.000000	-1.000000	1486745.000000	1770064469.958359
-4812.345000	-17509.365000	-3819.195000	9415.260000	-7435.035000	-3765.330000	7039.800000	-1181.880000	-10.222516	-8.495769	-4.271513	-4.628342	-4.939610	-4.926819	-10.749853	-1.266195	3.891300	18.281480	-5.234180	0.735289	0.660887	0.089599	-1.000000	-1.000000	-1.000000	-1.000000	-1.000000	-1.000000	-1.000000	78.551724	0.000000	-1.000000	-1.000000	1486746.000000	1770064469.958390
-4804.065000	-17480.430000	-3796.605000	9433.035000	-7425.765000	-3757.365000	7039.035000	-1164.555000	-6.481073	-6.681486	-1.403937	-2.450021	-1.459447	1.236640	-11.126597	4.092288	3.891300	18.281480	-5.234180	0.735289	0.660887	0.089599	-1.000000	-1.000000	-1.000000	-1.000000	-1.000000	-1.000000	-1.000000	78.551724	0.000000	-1.000000	-1.000000	1486747.000000	1770064469.958427
-4813.695000	-17516.835000	-3828.195000	9415.080000	-7440.030000	-3776.085000	6970.725000	-1102.995000	-0.501058	-1.878612	2.217262	0.014322	1.297305	5.232995	-7.010012	8.737657	3.891300	18.281480	-5.234180	0.735289	0.660887	0.089599	-1.000000	-1.000000	-1.000000	-1.000000	-1.000000	-1.000000	-1.000000	78.551724	0.000000	-1.000000	-1.000000	1486748.000000	1770064469.958458
-4810.680000	-17491.905000	-3796.830000	9432.540000	-7425.540000	-3762.630000	7005.330000	-1191.780000	3.578224	1.907403	4.048487	1.365152	1.958374	5.442682	-2.459015	9.560098	3.891300	18.281480	-5.234180	0.735289	0.660887	0.089599	-1.000000	-1.000000	-1.000000	-1.000000	-1.000000	-1.000000	-1.000000	78.551724	0.000000	-1.000000	-1.000000	1486749.000000	1770064469.958493
-4789.620000	-17437.770000	-3752.190000	9473.625000	-7392.915000	-3722.670000	7125.705000	-1221.705000	3.095110	2.266135	2.784118	0.945338	0.724320	2.829468	2.541429	2.823165	3.891300	18.281480	-5.234180	0.735289	0.660887	0.089599	-1.000000	-1.000000	-1.000000	-1.000000	-1.000000	-1.000000	-1.000000	78.551724	0.000000	-1.000000	-1.000000	1486750.000000	1770064469.958522
-4798.350000	-17462.790000	-3789.090000	9447.705000	-7417.530000	-3738.645000	7128.270000	-1139.400000	-0.213472	1.070225	-0.080673	-0.140462	-0.803451	0.203868	11.219781	-10.534643	-3.586100	9.064440	-8.164100	0.734373	0.655882	0.090637	-1.000000	-1.000000	-1.000000	-1.000000	-1.000000	-1.000000	-1.000000	78.551724	0.000000	-1.000000	-1.000000	1486751.000000	1770064469.958961
-4764.105000	-17420.085000	-3743.460000	9486.945000	-7378.560000	-3706.065000	7131.195000	-1180.350000	-2.148356	0.738608	-2.551269	-0.561553	-1.249310	-0.626125	20.304414	-20.746431	-3.586100	9.064440	-8.164100	0.734373	0.655882	0.090637	-1.000000	-1.000000	-1.000000	-1.000000	-1.000000	-1.000000	-1.000000	78.551724	0.000000	-1.000000	-1.000000	1486752.000000	1770064469.958972
-4724.595000	-17394.390000	-3719.790000	9507.555000	-7359.570000	-3688.470000	7138.530000	-1193.535000	0.515790	2.879596	-1.901797	1.190726	0.656030	0.811306	21.734331	-19.930977	-3.586100	9.064440	-8.164100	0.734373	0.655882	0.090637	-1.000000	-1.000000	-1.000000	-1.000000	-1.000000	-1.000000	-1.000000	78.551724	0.000000	-1.000000	-1.000000	1486753.000000	1770064469.963045
-4753.035000	-17435.430000	-3762.675000	9468.225000	-7397.235000	-3721.005000	7110.360000	-1164.015000	6.285078	6.312824	1.771082	4.235268	3.793237	2.815378	12.075869	-9.355064	-3.586100	9.064440	-8.164100	0.734373	0.655882	0.090637	-1.000000	-1.000000	-1.000000	-1.000000	-1.000000	-1.000000	-1.000000	78.551724	0.000000	-1.000000	-1.000000	1486754.000000	1770064469.963063
-4799.340000	-17484.210000	-3805.605000	9421.920000	-7447.680000	-3770.010000	7063.875000	-1164.420000	8.298914	5.178632	2.247129	3.276172	2.993199	0.909542	-5.956659	5.168275	-3.586100	9.064440	-8.164100	0.734373	0.655882	0.090637	-1.000000	-1.000000	-1.000000	-1.000000	-1.000000	-1.000000	-1.000000	78.551724	0.000000	-1.000000	-1.000000	1486755.000000	1770064469.970038
-4842.180000	-17543.340000	-3860.640000	9370.935000	-7497.540000	-3802.545000	7035.705000	-1195.425000	1.103849	-4.982951	-5.499572	-5.417189	-5.196856	-7.153084	-25.206036	16.032032	-3.586100	9.064440	-8.164100	0.734373	0.655882	0.090637	-1.000000	-1.000000	-1.000000	-1.000000	-1.000000	-1.000000	-1.000000	78.551724	0.000000	-1.000000	-1.000000	1486756.000000	1770064469.970049
-4823.820000	-17505.810000	-3822.390000	9404.145000	-7470.720000	-3774.015000	7041.060000	-1173.870000	-12.128846	-19.405838	-17.061704	-17.293681	-16.339584	-16.461039	-35.600948	17.010132	-3.586100	9.064440	-8.164100	0.734373	0.655882	0.090637	-1.000000	-1.000000	-1.000000	-1.000000	-1.000000	-1.000000	-1.000000	78.551724	0.000000	-1.000000	-1.000000	1486757.000000	1770064469.970846
-4787.280000	-17447.715000	-3764.835000	9447.795000	-7447.230000	-3763.170000	7037.460000	-1170.540000	-21.099126	-26.111245	-21.476163	-21.950925	-20.765482	-18.632603	-31.338662	10.415419	-3.586100	9.064440	-8.164100	0.734373	0.655882	0.090637	-1.000000	-1.000000	-1.000000	-1.000000	-1.000000	-1.000000	-1.000000	78.551724	0.000000	-1.000000	-1.000000	1486758.000000	1770064469.970852
-4718.025000	-17403.165000	-3737.115000	9486.405000	-7391.205000	-3716.550000	7050.825000	-1200.825000	-16.923946	-17.174906	-12.066080	-12.933462	-12.357913	-10.077738	-16.900452	3.256242	-3.586100	9.064440	-8.164100	0.734373	0.655882	0.090637	-1.000000	-1.000000	-1.000000	-1.000000	-1.000000	-1.000000	-1.000000	78.551724	0.000000	-1.000000	-1.000000	1486759.000000	1770064469.977070
-4664.970000	-17354.295000	-3704.310000	9520.245000	-7341.975000	-3666.645000	7051.905000	-1155.915000	0.906364	4.426416	7.619278	6.589097	6.879547	6.207074	-0.733647	-2.321599	-3.586100	9.064440	-8.164100	0.734373	0.655882	0.090637	-1.000000	-1.000000	-1.000000	-1.000000	-1.000000	-1.000000	-1.000000	78.551724	0.000000	-1.000000	-1.000000	1486760.000000	1770064469.977080
-4786.605000	-17430.570000	-3746.295000	9478.215000	-7394.040000	-3707.865000	7027.155000	-1108.845000	21.120541	26.129653	26.123565	25.496676	26.781145	22.352182	12.405932	-5.044096	6.256600	-3.006220	4.944240	0.714293	0.658079	0.093078	-1.000000	-1.000000	-1.000000	-1.000000	-1.000000	-1.000000	-1.000000	78.551724	0.000000	-1.000000	-1.000000	1486761.000000	1770064469.978958
-4797.495000	-17456.490000	-3766.680000	9453.105000	-7432.695000	-3755.970000	6967.620000	-1143.180000	26.335055	32.597754	30.897942	30.974503	33.162860	27.457592	19.617097	-2.305002	6.256600	-3.006220	4.944240	0.714293	0.658079	0.093078	-1.000000	-1.000000	-1.000000	-1.000000	-1.000000	-1.000000	-1.000000	78.551724	0.000000	-1.000000	-1.000000	1486762.000000	1770064469.978991
-4822.695000	-17531.190000	-3859.740000	9388.485000	-7455.240000	-3770.145000	7013.655000	-1137.330000	11.386567	18.620854	17.760440	18.649267	20.299501	16.656297	19.858955	2.497158	6.256600	-3.006220	4.944240	0.714293	0.658079	0.093078	-1.000000	-1.000000	-1.000000	-1.000000	-1.000000	-1.000000	-1.000000	78.551724	0.000000	-1.000000	-1.000000	1486763.000000	1770064469.987233
-4875.120000	-17581.050000	-3911.805000	9336.555000	-7505.235000	-3829.140000	7022.160000	-1246.320000	-10.806149	-6.124565	-5.978686	-3.785546	-2.788165	-2.746801	17.487872	1.884929	6.256600	-3.006220	4.944240	0.714293	0.658079	0.093078	-1.000000	-1.000000	-1.000000	-1.000000	-1.000000	-1.000000	-1.000000	78.551724	0.000000	-1.000000	-1.000000	1486764.000000	1770064469.987243
-4848.390000	-17511.435000	-3833.190000	9406.080000	-7449.795000	-3778.920000	7030.440000	-1132.785000	-24.157034	-25.101868	-25.667027	-22.292836	-21.025722	-18.222802	17.311641	-5.635384	6.256600	-3.006220	4.944240	0.714293	0.658079	0.093078	-1.000000	-1.000000	-1.000000	-1.000000	-1.000000	-1.000000	-1.000000	78.551724	0.000000	-1.000000	-1.000000	1486765.000000	1770064469.987255
-4870.170000	-17564.670000	-3886.020000	9356.130000	-7489.890000	-3790.620000	6944.085000	-1172.115000	-21.936102	-27.152199	-29.179984	-26.321724	-25.117278	-21.536388	16.388215	-12.253401	6.256600	-3.006220	4.944240	0.714293	0.658079	0.093078	-1.000000	-1.000000	-1.000000	-1.000000	-1.000000	-1.000000	-1.000000	78.551724	0.000000	-1.000000	-1.000000	1486766.000000	1770064469.987260
-4835.520000	-17544.195000	-3856.995000	9369.090000	-7496.010000	-3761.595000	6872.895000	-1202.985000	-8.715824	-15.720884	-18.050707	-17.634715	-17.726796	-13.387279	6.078129	-11.142361	6.256600	-3.006220	4.944240	0.714293	0.658079	0.093078	-1.000000	-1.000000	-1.000000	-1.000000	-1.000000	-1.000000	-1.000000	78.551724	0.000000	-1.000000	-1.000000	1486767.000000	1770064469.990926
-4781.520000	-17501.940000	-3822.480000	9377.460000	-7503.030000	-3761.055000	6891.255000	-1132.200000	6.177361	-1.542000	-2.077887	-5.421277	-8.254633	-1.253800	-15.076998	-3.879479	6.256600	-3.006220	4.944240	0.714293	0.658079	0.093078	-1.000000	-1.000000	-1.000000	-1.000000	-1.000000	-1.000000	-1.000000	78.551724	0.000000	-1.000000	-1.000000	1486768.000000	1770064469.990935
-4670.280000	-17379.270000	-3718.215000	9483.795000	-7386.300000	-3697.785000	7011.630000	-1101.195000	18.346613	11.508101	13.587448	5.988738	-0.704374	8.135105	-32.750301	5.457220	6.256600	-3.006220	4.944240	0.714293	0.658079	0.093078	-1.000000	-1.000000	-1.000000	-1.000000	-1.000000	-1.000000	-1.000000	78.551724	0.000000	-1.000000	-1.000000	1486769.000000	1770064469.995625
-4675.725000	-17358.390000	-3692.340000	9543.870000	-7308.315000	-3638.565000	7024.635000	-1146.690000	28.924258	25.619188	28.119490	18.676020	9.923936	14.480170	-28.803023	12.712583	6.256600	-3.006220	4.944240	0.714293	0.658079	0.093078	-1.000000	-1.000000	-1.000000	-1.000000	-1.000000	-1.000000	-1.000000	78.551724	0.000000	-1.000000	-1.000000	1486770.000000	1770064469.995636
-4720.095000	-17418.285000	-3761.415000	9455.355000	-7411.815000	-3728.520000	6968.295000	-1150.695000	34.761961	37.553168	37.179465	31.177619	25.092563	19.297133	-3.355144	13.060694	-7.019600	-11.429740	5.218920	0.724730	0.676268	0.089721	-1.000000	-1.000000	-1.000000	-1.000000	-1.000000	-1.000000	-1.000000	78.551724	0.000000	-1.000000	-1.000000	1486771.000000	1770064469.998876
-4781.925000	-17471.565000	-3806.190000	9401.355000	-7478.055000	-3829.140000	7005.240000	-1143.810000	27.044180	36.944750	33.098689	33.718668	32.988187	17.475848	23.637953	6.672474	-7.019600	-11.429740	5.218920	0.724730	0.676268	0.089721	-1.000000	-1.000000	-1.000000	-1.000000	-1.000000	-1.000000	-1.000000	78.551724	0.000000	-1.000000	-1.000000	1486772.000000	1770064469.998886
-4753.620000	-17432.685000	-3751.245000	9465.345000	-7419.915000	-3781.530000	7127.505000	-1136.970000	4.357823	19.007586	14.696036	20.260433	23.091482	4.399072	35.398029	-0.261247	-7.019600	-11.429740	5.218920	0.724730	0.676268	0.089721	-1.000000	-1.000000	-1.000000	-1.000000	-1.000000	-1.000000	-1.000000	78.551724	0.000000	-1.000000	-1.000000	1486773.000000	1770064470.002925
-4681.890000	-17330.715000	-3658.320000	9561.150000	-7300.395000	-3660.840000	7198.695000	-1112.445000	-21.154702	-7.293244	-8.362465	-1.212008	2.571177	-11.653764	32.850365	-3.660780	-7.019600	-11.429740	5.218920	0.724730	0.676268	0.089721	-1.000000	-1.000000	-1.000000	-1.000000	-1.000000	-1.000000	-1.000000	78.551724	0.000000	-1.000000	-1.000000	1486774.000000	1770064470.002931
-4712.040000	-17384.310000	-3725.010000	9507.870000	-7340.580000	-3675.015000	7107.480000	-1218.330000	-35.053243	-27.552581	-24.636649	-17.754183	-12.972623	-17.316226	23.207702	-5.255197	-7.019600	-11.429740	5.218920	0.724730	0.676268	0.089721	-1.000000	-1.000000	-1.000000	-1.000000	-1.000000	-1.000000	-1.000000	78.551724	0.000000	-1.000000	-1.000000	1486775.000000	1770064470.006932
-4855.095000	-17546.445000	-3878.370000	9357.255000	-7492.860000	-3826.710000	6978.870000	-1233.045000	-36.273813	-37.983706	-33.560229	-27.142648	-19.869064	-13.062649	5.699327	-8.539361	-7.019600	-11.429740	5.218920	0.724730	0.676268	0.089721	-1.000000	-1.000000	-1.000000	-1.000000	-1.000000	-1.000000	-1.000000	78.551724	0.000000	-1.000000	-1.000000	1486776.000000	1770064470.006943
-4867.200000	-17543.880000	-3870.225000	9365.760000	-7483.545000	-3818.070000	7088.805000	-1169.415000	-35.560208	-45.737887	-42.177836	-36.117462	-26.760875	-11.798412	-21.404546	-13.520140	-7.019600	-11.429740	5.218920	0.724730	0.676268	0.089721	-1.000000	-1.000000	-1.000000	-1.000000	-1.000000	-1.000000	-1.000000	78.551724	0.000000	-1.000000	-1.000000	1486777.000000	1770064470.010878
-4874.580000	-17558.505000	-3880.935000	9358.470000	-7483.005000	-3799.755000	7094.430000	-1175.310000	-36.617921	-51.498475	-49.064707	-44.532386	-36.473624	-18.002067	-47.404591	-14.888995	-7.019600	-11.429740	5.218920	0.724730	0.676268	0.089721	-1.000000	-1.000000	-1.000000	-1.000000	-1.000000	-1.000000	-1.000000	78.551724	0.000000	-1.000000	-1.000000	1486778.000000	1770064470.010890
-4910.040000	-17604.945000	-3931.560000	9303.525000	-7542.630000	-3873.420000	7022.070000	-1213.020000	-30.282675	-45.284912	-43.559853	-43.186512	-40.531860	-22.728708	-56.812841	-8.231620	-7.019600	-11.429740	5.218920	0.724730	0.676268	0.089721	-1.000000	-1.000000	-1.000000	-1.000000	-1.000000	-1.000000	-1.000000	78.551724	0.000000	-1.000000	-1.000000	1486779.000000	1770064470.022052
-4892.805000	-17569.620000	-3898.215000	9332.595000	-7515.855000	-3847.095000	7037.415000	-1233.270000	-8.195623	-19.026705	-18.351142	-24.011110	-28.611193	-15.890193	-44.425279	3.511282	-7.019600	-11.429740	5.218920	0.724730	0.676268	0.089721	-1.000000	-1.000000	-1.000000	-1.000000	-1.000000	-1.000000	-1.000000	78.551724	0.000000	-1.000000	-1.000000	1486780.000000	1770064470.022062
-4857.705000	-17531.865000	-3864.375000	9360.180000	-7491.105000	-3816.090000	7053.255000	-1230.930000	26.924607	24.036403	22.816664	12.275148	2.146909	6.079089	-17.073090	13.532993	-9.171260	-12.711580	-3.235120	0.725523	0.669066	0.101257	-1.000000	-1.000000	-1.000000	-1.000000	-1.000000	-1.000000	-1.000000	78.551724	0.000000	-1.000000	-1.000000	1486781.000000	1770064470.022073
-4832.505000	-17512.965000	-3844.755000	9378.405000	-7473.915000	-3808.395000	7058.520000	-1194.795000	60.543502	66.117195	62.387674	50.633910	39.208785	34.066730	11.272446	17.679048	-9.171260	-12.711580	-3.235120	0.725523	0.669066	0.101257	-1.000000	-1.000000	-1.000000	-1.000000	-1.000000	-1.000000	-1.000000	78.551724	0.000000	-1.000000	-1.000000	1486782.000000	1770064470.022079
-4834.395000	-17507.070000	-3835.620000	9392.310000	-7457.040000	-3800.070000	7055.910000	-1198.575000	73.633913	83.497890	77.987968	69.058403	60.325037	48.507487	28.541202	16.302086	-9.171260	-12.711580	-3.235120	0.725523	0.669066	0.101257	-1.000000	-1.000000	-1.000000	-1.000000	-1.000000	-1.000000	-1.000000	78.551724	0.000000	-1.000000	-1.000000	1486783.000000	1770064470.024377
-4838.265000	-17505.945000	-3833.190000	9395.505000	-7456.590000	-3798.000000	7043.895000	-1206.900000	58.040200	67.301299	62.516932	59.134480	54.941777	39.124627	34.214284	13.005059	-9.171260	-12.711580	-3.235120	0.725523	0.669066	0.101257	-1.000000	-1.000000	-1.000000	-1.000000	-1.000000	-1.000000	-1.000000	78.551724	0.000000	-1.000000	-1.000000	1486784.000000	1770064470.024390
-4843.215000	-17511.795000	-3834.990000	9394.110000	-7454.340000	-3791.430000	7046.280000	-1205.595000	23.783698	30.683930	29.204903	31.959928	32.349196	15.714065	34.598650	9.481591	-9.171260	-12.711580	-3.235120	0.725523	0.669066	0.101257	-1.000000	-1.000000	-1.000000	-1.000000	-1.000000	-1.000000	-1.000000	78.551724	0.000000	-1.000000	-1.000000	1486785.000000	1770064470.026895
-4827.645000	-17498.520000	-3823.110000	9401.445000	-7443.720000	-3782.970000	7058.430000	-1191.780000	-11.681373	-7.125238	-4.703124	2.559544	6.625020	-6.195747	29.823335	2.852109	-9.171260	-12.711580	-3.235120	0.725523	0.669066	0.101257	-1.000000	-1.000000	-1.000000	-1.000000	-1.000000	-1.000000	-1.000000	78.551724	0.000000	-1.000000	-1.000000	1486786.000000	1770064470.026904
-4804.065000	-17484.255000	-3820.005000	9394.920000	-7452.315000	-3799.665000	7054.470000	-1186.155000	-35.431258	-33.897976	-29.409430	-21.083600	-15.055144	-19.821745	16.464542	-7.174591	-9.171260	-12.711580	-3.235120	0.725523	0.669066	0.101257	-1.000000	-1.000000	-1.000000	-1.000000	-1.000000	-1.000000	-1.000000	78.551724	0.000000	-1.000000	-1.000000	1486787.000000	1770064470.031001
-4785.210000	-17458.110000	-3796.785000	9410.535000	-7450.515000	-3807.495000	7049.655000	-1177.470000	-41.366228	-43.485604	-39.899230	-34.306087	-28.629514	-24.453244	-1.014600	-14.511606	-9.171260	-12.711580	-3.235120	0.725523	0.669066	0.101257	-1.000000	-1.000000	-1.000000	-1.000000	-1.000000	-1.000000	-1.000000	78.551724	0.000000	-1.000000	-1.000000	1486788.000000	1770064470.031008
-4780.665000	-17456.895000	-3786.210000	9424.935000	-7439.130000	-3799.260000	7039.935000	-1184.715000	-31.264073	-36.174334	-35.276718	-34.158914	-30.864677	-20.632051	-14.264898	-14.044406	-9.171260	-12.711580	-3.235120	0.725523	0.669066	0.101257	-1.000000	-1.000000	-1.000000	-1.000000	-1.000000	-1.000000	-1.000000	78.551724	0.000000	-1.000000	-1.000000	1486789.000000	1770064470.036221
-4793.490000	-17480.790000	-3801.015000	9424.755000	-7424.055000	-3776.580000	7039.575000	-1195.785000	-15.100963	-21.188865	-22.324147	-24.173463	-23.654396	-11.789460	-20.920601	-7.944611	-9.171260	-12.711580	-3.235120	0.725523	0.669066	0.101257	-1.000000	-1.000000	-1.000000	-1.000000	-1.000000	-1.000000	-1.000000	78.551724	0.000000	-1.000000	-1.000000	1486790.000000	1770064470.036231
-4822.830000	-17508.240000	-3824.460000	9404.730000	-7438.095000	-3777.120000	7043.715000	-1216.260000	-4.788752	-10.811988	-11.888780	-13.390490	-14.021067	-3.828500	-22.568783	-3.103680	-0.610400	3.937080	-2.472120	0.734617	0.648985	0.098633	-1.000000	-1.000000	-1.000000	-1.000000	-1.000000	-1.000000	-1.000000	78.551724	0.000000	-1.000000	-1.000000	1486791.000000	1770064470.039082
-4838.355000	-17502.030000	-3819.375000	9404.505000	-7441.605000	-3774.015000	7058.385000	-1201.995000	-4.819852	-9.307427	-8.788727	-7.868513	-7.779582	-0.561971	-18.584190	-2.640303	-0.610400	3.937080	-2.472120	0.734617	0.648985	0.098633	-1.000000	-1.000000	-1.000000	-1.000000	-1.000000	-1.000000	-1.000000	78.551724	0.000000	-1.000000	-1.000000	1486792.000000	1770064470.039089
-4833.090000	-17509.050000	-3824.730000	9396.720000	-7456.005000	-3785.625000	7066.935000	-1174.455000	-9.066394	-9.916238	-8.006024	-5.506777	-4.487771	-0.653530	-7.214193	-2.532497	-0.610400	3.937080	-2.472120	0.734617	0.648985	0.098633	-1.000000	-1.000000	-1.000000	-1.000000	-1.000000	-1.000000	-1.000000	78.551724	0.000000	-1.000000	-1.000000	1486793.000000	1770064470.044099
-4822.830000	-17529.570000	-3836.970000	9376.425000	-7494.255000	-3826.845000	7046.055000	-1175.895000	-8.259963	-5.032583	-3.167347	-1.592644	-1.197498	-1.163273	7.556283	0.795476	-0.610400	3.937080	-2.472120	0.734617	0.648985	0.098633	-1.000000	-1.000000	-1.000000	-1.000000	-1.000000	-1.000000	-1.000000	78.551724	0.000000	-1.000000	-1.000000	1486794.000000	1770064470.044118
-4828.140000	-17461.395000	-3782.115000	9415.395000	-7463.070000	-3814.605000	7035.075000	-1190.520000	0.122017	5.582124	6.051877	4.653546	2.335912	-1.648664	16.023187	4.920548	-0.610400	3.937080	-2.472120	0.734617	0.648985	0.098633	-1.000000	-1.000000	-1.000000	-1.000000	-1.000000	-1.000000	-1.000000	78.551724	0.000000	-1.000000	-1.000000	1486795.000000	1770064470.046951
-4833.900000	-17473.185000	-3814.515000	9386.280000	-7467.660000	-3808.305000	7029.990000	-1169.460000	10.907807	17.825395	16.090829	11.479361	6.282267	-0.972955	13.453166	6.279506	-0.610400	3.937080	-2.472120	0.734617	0.648985	0.098633	-1.000000	-1.000000	-1.000000	-1.000000	-1.000000	-1.000000	-1.000000	78.551724	0.000000	-1.000000	-1.000000	1486796.000000	1770064470.046962
-4828.950000	-17505.180000	-3834.000000	9382.905000	-7468.470000	-3805.965000	7005.375000	-1117.845000	17.642694	25.535734	21.530846	16.023715	11.316027	3.364931	4.281186	5.757321	-0.610400	3.937080	-2.472120	0.734617	0.648985	0.098633	-1.000000	-1.000000	-1.000000	-1.000000	-1.000000	-1.000000	-1.000000	78.551724	0.000000	-1.000000	-1.000000	1486797.000000	1770064470.050966
-4820.670000	-17510.220000	-3837.465000	9384.930000	-7464.780000	-3792.555000	6997.545000	-1146.915000	17.663548	22.650064	17.675139	14.987204	14.993580	9.905625	-5.051886	6.073576	-0.610400	3.937080	-2.472120	0.734617	0.648985	0.098633	-1.000000	-1.000000	-1.000000	-1.000000	-1.000000	-1.000000	-1.000000	78.551724	0.000000	-1.000000	-1.000000	1486798.000000	1770064470.050974
-4822.830000	-17488.890000	-3821.580000	9399.330000	-7438.635000	-3770.235000	7018.110000	-1134.315000	12.417871	10.241845	6.358640	8.399275	13.937843	13.605630	-10.357733	6.316282	-0.610400	3.937080	-2.472120	0.734617	0.648985	0.098633	-1.000000	-1.000000	-1.000000	-1.000000	-1.000000	-1.000000	-1.000000	78.551724	0.000000	-1.000000	-1.000000	1486799.000000	1770064470.055812
-4784.535000	-17398.755000	-3720.105000	9510.165000	-7332.075000	-3689.010000	7065.810000	-1235.430000	5.797575	-2.185980	-3.500592	1.817000	9.706581	12.447264	-8.740623	2.695234	-0.610400	3.937080	-2.472120	0.734617	0.648985	0.098633	-1.000000	-1.000000	-1.000000	-1.000000	-1.000000	-1.000000	-1.000000	78.551724	0.000000	-1.000000	-1.000000	1486800.000000	1770064470.055834
-4761.180000	-17368.515000	-3676.635000	9568.305000	-7273.035000	-3632.220000	7159.860000	-1298.925000	2.145492	-5.061729	-3.047152	2.713801	8.530814	10.090330	1.311200	-7.577428	16.373980	7.584220	-1.907500	0.753843	0.636534	0.091675	-1.000000	-1.000000	-1.000000	-1.000000	-1.000000	-1.000000	-1.000000	78.551724	0.000000	-1.000000	-1.000000	1486801.000000	1770064470.058870
-4792.365000	-17467.695000	-3788.055000	9450.045000	-7393.635000	-3739.050000	7122.330000	-1153.080000	1.944939	0.415630	5.540395	9.803992	10.905101	8.525887	16.155839	-20.164562	16.373980	7.584220	-1.907500	0.753843	0.636534	0.091675	-1.000000	-1.000000	-1.000000	-1.000000	-1.000000	-1.000000	-1.000000	78.551724	0.000000	-1.000000	-1.000000	1486802.000000	1770064470.058889
-4825.620000	-17555.220000	-3891.195000	9338.445000	-7506.720000	-3843.855000	7045.380000	-1170.810000	0.120288	1.427072	7.384209	9.159724	5.939989	1.546064	24.146330	-22.549141	16.373980	7.584220	-1.907500	0.753843	0.636534	0.091675	-1.000000	-1.000000	-1.000000	-1.000000	-1.000000	-1.000000	-1.000000	78.551724	0.000000	-1.000000	-1.000000	1486803.000000	1770064470.062878
-4864.590000	-17582.625000	-3913.425000	9317.160000	-7529.985000	-3864.690000	7039.170000	-1229.130000	-7.527629	-11.487714	-7.855308	-8.983927	-14.227525	-15.740229	15.181399	-9.760810	16.373980	7.584220	-1.907500	0.753843	0.636534	0.091675	-1.000000	-1.000000	-1.000000	-1.000000	-1.000000	-1.000000	-1.000000	78.551724	0.000000	-1.000000	-1.000000	1486804.000000	1770064470.062889
-4849.380000	-17564.355000	-3895.470000	9334.980000	-7511.760000	-3847.860000	7049.385000	-1229.715000	-17.922104	-30.545857	-30.251239	-33.871140	-39.075702	-34.646312	-6.077643	7.152457	16.373980	7.584220	-1.907500	0.753843	0.636534	0.091675	-1.000000	-1.000000	-1.000000	-1.000000	-1.000000	-1.000000	-1.000000	78.551724	0.000000	-1.000000	-1.000000	1486805.000000	1770064470.075336
-4836.780000	-17537.040000	-3865.995000	9363.420000	-7486.110000	-3834.495000	7046.460000	-1213.965000	-22.923427	-37.101676	-38.821598	-44.006489	-48.202072	-39.597796	-24.276393	15.926234	16.373980	7.584220	-1.907500	0.753843	0.636534	0.091675	-1.000000	-1.000000	-1.000000	-1.000000	-1.000000	-1.000000	-1.000000	78.551724	0.000000	-1.000000	-1.000000	1486806.000000	1770064470.075348
-4832.370000	-17518.590000	-3847.005000	9382.005000	-7468.245000	-3827.340000	7024.365000	-1232.550000	-17.173208	-21.041938	-23.277067	-29.055547	-31.918135	-24.529713	-28.748727	14.882019	16.373980	7.584220	-1.907500	0.753843	0.636534	0.091675	-1.000000	-1.000000	-1.000000	-1.000000	-1.000000	-1.000000	-1.000000	78.551724	0.000000	-1.000000	-1.000000	1486807.000000	1770064470.075361
-4813.155000	-17500.635000	-3830.940000	9397.530000	-7456.230000	-3813.345000	7020.990000	-1220.400000	-2.807343	9.249887	7.261420	2.076156	0.508284	1.937721	-20.625228	9.440695	16.373980	7.584220	-1.907500	0.753843	0.636534	0.091675	-1.000000	-1.000000	-1.000000	-1.000000	-1.000000	-1.000000	-1.000000	78.551724	0.000000	-1.000000	-1.000000	1486808.000000	1770064470.075366
-4797.585000	-17484.435000	-3814.380000	9415.935000	-7437.420000	-3789.990000	7046.910000	-1208.205000	12.751061	34.692533	33.039835	29.734385	29.342866	24.621641	-7.817888	6.554012	16.373980	7.584220	-1.907500	0.753843	0.636534	0.091675	-1.000000	-1.000000	-1.000000	-1.000000	-1.000000	-1.000000	-1.000000	78.551724	0.000000	-1.000000	-1.000000	1486809.000000	1770064470.075372
-4790.880000	-17482.905000	-3812.625000	9418.275000	-7436.295000	-3792.555000	7045.650000	-1192.815000	22.143694	41.799506	40.151975	39.505607	40.527284	33.598282	2.797671	8.872946	16.373980	7.584220	-1.907500	0.753843	0.636534	0.091675	-1.000000	-1.000000	-1.000000	-1.000000	-1.000000	-1.000000	-1.000000	78.551724	0.000000	-1.000000	-1.000000	1486810.000000	1770064470.075377
-4804.155000	-17493.615000	-3822.210000	9407.970000	-7446.510000	-3804.615000	7010.910000	-1209.420000	22.272019	32.139970	30.647512	32.829864	35.646373	30.531864	9.128446	9.825015	-8.286180	-2.289000	-1.220800	0.714659	0.687559	0.091858	-1.000000	-1.000000	-1.000000	-1.000000	-1.000000	-1.000000	-1.000000	78.551724	0.000000	-1.000000	-1.000000	1486811.000000	1770064470.080483
-4780.665000	-17461.035000	-3789.540000	9435.690000	-7425.270000	-3786.255000	7009.470000	-1074.330000	15.361485	16.604261	16.393906	21.127942	25.529678	23.687394	12.990348	4.212269	-8.286180	-2.289000	-1.220800	0.714659	0.687559	0.091858	-1.000000	-1.000000	-1.000000	-1.000000	-1.000000	-1.000000	-1.000000	78.551724	0.000000	-1.000000	-1.000000	1486812.000000	1770064470.080491
-4747.320000	-17429.760000	-3755.475000	9470.655000	-7387.830000	-3749.040000	7055.640000	-991.215000	6.885072	3.976858	6.129535	12.346204	17.087869	17.908676	16.509782	-0.181145	-8.286180	-2.289000	-1.220800	0.714659	0.687559	0.091858	-1.000000	-1.000000	-1.000000	-1.000000	-1.000000	-1.000000	-1.000000	78.551724	0.000000	-1.000000	-1.000000	1486813.000000	1770064470.082981
-4723.650000	-17395.830000	-3720.375000	9507.600000	-7343.280000	-3703.320000	7167.960000	-1110.690000	0.922426	-3.686844	0.449876	6.210115	9.695598	11.985889	20.692495	2.266174	-8.286180	-2.289000	-1.220800	0.714659	0.687559	0.091858	-1.000000	-1.000000	-1.000000	-1.000000	-1.000000	-1.000000	-1.000000	78.551724	0.000000	-1.000000	-1.000000	1486814.000000	1770064470.082992
-4811.580000	-17494.290000	-3818.970000	9405.945000	-7437.825000	-3780.315000	7088.940000	-1307.610000	-4.083120	-10.246885	-6.085469	-2.756630	-1.176066	2.013853	23.921278	-0.612944	-8.286180	-2.289000	-1.220800	0.714659	0.687559	0.091858	-1.000000	-1.000000	-1.000000	-1.000000	-1.000000	-1.000000	-1.000000	78.551724	0.000000	-1.000000	-1.000000	1486815.000000	1770064470.086920
-4874.220000	-17554.590000	-3876.480000	9342.765000	-7501.545000	-3836.745000	7025.625000	-1311.795000	-13.287573	-21.673401	-19.656496	-19.830480	-19.743975	-15.320177	18.929494	-20.566701	-8.286180	-2.289000	-1.220800	0.714659	0.687559	0.091858	-1.000000	-1.000000	-1.000000	-1.000000	-1.000000	-1.000000	-1.000000	78.551724	0.000000	-1.000000	-1.000000	1486816.000000	1770064470.086931
-4826.655000	-17523.990000	-3857.715000	9370.530000	-7474.140000	-3815.910000	7043.715000	-1211.175000	-26.165695	-37.040656	-38.211431	-41.528430	-42.410755	-36.880377	0.371040	-44.574942	-8.286180	-2.289000	-1.220800	0.714659	0.687559	0.091858	-1.000000	-1.000000	-1.000000	-1.000000	-1.000000	-1.000000	-1.000000	78.551724	0.000000	-1.000000	-1.000000	1486817.000000	1770064470.091050
-4852.035000	-17530.965000	-3861.810000	9356.265000	-7492.770000	-3838.050000	7022.610000	-1220.445000	-33.257192	-45.141700	-49.238052	-54.074820	-55.764451	-51.103329	-24.913000	-46.794355	-8.286180	-2.289000	-1.220800	0.714659	0.687559	0.091858	-1.000000	-1.000000	-1.000000	-1.000000	-1.000000	-1.000000	-1.000000	78.551724	0.000000	-1.000000	-1.000000	1486818.000000	1770064470.091061
-4862.295000	-17526.150000	-3846.870000	9359.730000	-7488.990000	-3842.010000	7002.945000	-1263.105000	-26.606466	-35.085199	-40.496556	-45.117693	-47.581677	-46.725396	-42.708569	-21.157757	-8.286180	-2.289000	-1.220800	0.714659	0.687559	0.091858	-1.000000	-1.000000	-1.000000	-1.000000	-1.000000	-1.000000	-1.000000	78.551724	0.000000	-1.000000	-1.000000	1486819.000000	1770064470.095101
-4817.475000	-17508.510000	-3812.805000	9395.280000	-7451.955000	-3821.130000	6953.535000	-1220.355000	-7.217038	-7.189059	-10.946437	-14.254262	-17.084479	-21.747241	-42.749654	13.903569	-8.286180	-2.289000	-1.220800	0.714659	0.687559	0.091858	-1.000000	-1.000000	-1.000000	-1.000000	-1.000000	-1.000000	-1.000000	78.551724	0.000000	-1.000000	-1.000000	1486820.000000	1770064470.095111
-4765.230000	-17442.990000	-3766.905000	9424.755000	-7431.210000	-3807.405000	6939.360000	-1203.030000	17.868191	26.903623	27.303667	25.934290	23.534835	14.123405	-25.553537	37.421138	-25.575760	-0.503580	-7.202720	0.736021	0.698179	0.089416	-1.000000	-1.000000	-1.000000	-1.000000	-1.000000	-1.000000	-1.000000	78.551724	0.000000	-1.000000	-1.000000	1486821.000000	1770064470.099142
-4772.205000	-17424.675000	-3790.485000	9427.365000	-7419.825000	-3794.445000	6999.345000	-1189.620000	38.086725	51.542964	54.983689	55.827858	54.392489	43.454205	-1.142282	40.723844	-25.575760	-0.503580	-7.202720	0.736021	0.698179	0.089416	-1.000000	-1.000000	-1.000000	-1.000000	-1.000000	-1.000000	-1.000000	78.551724	0.000000	-1.000000	-1.000000	1486822.000000	1770064470.099151
-4796.505000	-17436.915000	-3799.890000	9443.250000	-7399.440000	-3743.370000	7085.295000	-1185.345000	42.820227	55.552005	57.406501	60.958516	60.571795	52.873154	20.645063	30.497832	-25.575760	-0.503580	-7.202720	0.736021	0.698179	0.089416	-1.000000	-1.000000	-1.000000	-1.000000	-1.000000	-1.000000	-1.000000	78.551724	0.000000	-1.000000	-1.000000	1486823.000000	1770064470.106895
-4834.215000	-17472.510000	-3792.105000	9425.610000	-7425.630000	-3752.730000	7053.390000	-1237.320000	29.715453	38.434014	36.024295	42.533484	42.954022	42.844435	36.190117	20.430351	-25.575760	-0.503580	-7.202720	0.736021	0.698179	0.089416	-1.000000	-1.000000	-1.000000	-1.000000	-1.000000	-1.000000	-1.000000	78.551724	0.000000	-1.000000	-1.000000	1486824.000000	1770064470.106908
-4832.190000	-17496.810000	-3861.990000	9412.695000	-7419.555000	-3748.545000	6943.050000	-1252.755000	6.799695	9.431817	5.279537	13.358061	14.202613	22.739721	41.634080	14.007925	-25.575760	-0.503580	-7.202720	0.736021	0.698179	0.089416	-1.000000	-1.000000	-1.000000	-1.000000	-1.000000	-1.000000	-1.000000	78.551724	0.000000	-1.000000	-1.000000	1486825.000000	1770064470.107082
-4892.940000	-17563.770000	-3957.570000	9316.620000	-7485.615000	-3791.115000	6995.925000	-1275.795000	-15.937998	-20.698545	-23.312628	-15.762136	-13.944096	-0.091581	30.838026	3.144640	-25.575760	-0.503580	-7.202720	0.736021	0.698179	0.089416	-1.000000	-1.000000	-1.000000	-1.000000	-1.000000	-1.000000	-1.000000	78.551724	0.000000	-1.000000	-1.000000	1486826.000000	1770064470.107093
-4870.890000	-17528.670000	-3836.970000	9322.560000	-7492.230000	-3826.215000	7032.375000	-1176.525000	-31.474037	-42.801413	-42.738416	-38.991439	-34.914037	-21.596630	7.752372	-13.843810	-25.575760	-0.503580	-7.202720	0.736021	0.698179	0.089416	-1.000000	-1.000000	-1.000000	-1.000000	-1.000000	-1.000000	-1.000000	78.551724	0.000000	-1.000000	-1.000000	1486827.000000	1770064470.110917
-4795.920000	-17448.615000	-3738.645000	9423.450000	-7420.725000	-3775.590000	7026.840000	-1105.065000	-33.248912	-46.758766	-42.156513	-47.830576	-42.425892	-35.714697	-12.482033	-24.939410	-25.575760	-0.503580	-7.202720	0.736021	0.698179	0.089416	-1.000000	-1.000000	-1.000000	-1.000000	-1.000000	-1.000000	-1.000000	78.551724	0.000000	-1.000000	-1.000000	1486828.000000	1770064470.110938
-4883.715000	-17561.340000	-3839.625000	9435.870000	-7415.640000	-3771.945000	7055.955000	-1210.185000	-20.349126	-30.026378	-19.172595	-34.882534	-32.230283	-35.686478	-18.805837	-22.488479	-25.575760	-0.503580	-7.202720	0.736021	0.698179	0.089416	-1.000000	-1.000000	-1.000000	-1.000000	-1.000000	-1.000000	-1.000000	78.551724	0.000000	-1.000000	-1.000000	1486829.000000	1770064470.114976
-4850.775000	-17497.665000	-3818.295000	9396.855000	-7471.665000	-3822.210000	7063.785000	-1242.855000	-3.310665	-5.666237	8.607463	-7.226223	-10.925761	-22.782035	-12.623576	-16.019002	-25.575760	-0.503580	-7.202720	0.736021	0.698179	0.089416	-1.000000	-1.000000	-1.000000	-1.000000	-1.000000	-1.000000	-1.000000	78.551724	0.000000	-1.000000	-1.000000	1486830.000000	1770064470.114985
-4807.395000	-17489.565000	-3849.435000	9365.625000	-7499.295000	-3847.140000	7050.015000	-1221.390000	8.118899	12.007889	22.206572	16.281460	6.482706	-7.623641	-5.111281	-15.049208	-9.644320	30.855720	-4.013380	0.765745	0.662718	0.084411	-1.000000	-1.000000	-1.000000	-1.000000	-1.000000	-1.000000	-1.000000	78.551724	0.000000	-1.000000	-1.000000	1486831.000000	1770064470.120216
-4790.655000	-17409.735000	-3766.725000	9460.620000	-7395.030000	-3748.455000	7029.720000	-1211.400000	15.217761	21.598596	20.042009	24.372361	12.751689	2.233098	-6.681511	-13.725540	-9.644320	30.855720	-4.013380	0.765745	0.662718	0.084411	-1.000000	-1.000000	-1.000000	-1.000000	-1.000000	-1.000000	-1.000000	78.551724	0.000000	-1.000000	-1.000000	1486832.000000	1770064470.120229
-4725.855000	-17325.135000	-3685.005000	9539.235000	-7319.970000	-3679.470000	7052.670000	-1236.240000	22.376923	29.392685	13.968624	22.997901	15.519720	10.705510	-14.502329	-3.129895	-9.644320	30.855720	-4.013380	0.765745	0.662718	0.084411	-1.000000	-1.000000	-1.000000	-1.000000	-1.000000	-1.000000	-1.000000	78.551724	0.000000	-1.000000	-1.000000	1486833.000000	1770064470.122977
-4714.560000	-17320.095000	-3673.530000	9564.705000	-7286.985000	-3642.570000	6947.910000	-1151.460000	28.576265	37.374391	14.802636	22.739690	23.062445	23.077720	-17.346774	14.674309	-9.644320	30.855720	-4.013380	0.765745	0.662718	0.084411	-1.000000	-1.000000	-1.000000	-1.000000	-1.000000	-1.000000	-1.000000	78.551724	0.000000	-1.000000	-1.000000	1486834.000000	1770064470.122983
-4653.540000	-17255.880000	-3573.720000	9666.945000	-7189.065000	-3561.255000	6631.020000	-1078.290000	28.966828	39.306830	21.948127	25.844897	32.905759	36.053055	-16.833181	30.994219	-9.644320	30.855720	-4.013380	0.765745	0.662718	0.084411	-1.000000	-1.000000	-1.000000	-1.000000	-1.000000	-1.000000	-1.000000	78.551724	0.000000	-1.000000	-1.000000	1486835.000000	1770064470.140096
-4713.615000	-17410.725000	-3723.840000	9492.930000	-7377.210000	-3753.945000	7116.030000	-1007.010000	19.120277	25.776106	22.445972	24.466393	34.114602	39.095097	-18.640056	37.811925	-9.644320	30.855720	-4.013380	0.765745	0.662718	0.084411	-1.000000	-1.000000	-1.000000	-1.000000	-1.000000	-1.000000	-1.000000	78.551724	0.000000	-1.000000	-1.000000	1486836.000000	1770064470.140109
-4903.920000	-17623.305000	-3949.830000	9269.010000	-7596.225000	-3949.515000	7248.960000	-1137.690000	-5.073618	-10.130369	-0.819739	2.556798	11.053582	17.863821	-5.329907	28.545826	-9.644320	30.855720	-4.013380	0.765745	0.662718	0.084411	-1.000000	-1.000000	-1.000000	-1.000000	-1.000000	-1.000000	-1.000000	78.551724	0.000000	-1.000000	-1.000000	1486837.000000	1770064470.140119
-4858.965000	-17540.955000	-3874.320000	9358.560000	-7497.270000	-3838.140000	7163.730000	-1130.220000	-40.118515	-59.205590	-45.790945	-42.753579	-36.675047	-27.160435	34.062662	2.933491	-9.644320	30.855720	-4.013380	0.765745	0.662718	0.084411	-1.000000	-1.000000	-1.000000	-1.000000	-1.000000	-1.000000	-1.000000	78.551724	0.000000	-1.000000	-1.000000	1486838.000000	1770064470.140125
-4862.070000	-17542.215000	-3880.350000	9350.145000	-7503.030000	-3830.805000	7122.105000	-1206.315000	-66.797120	-91.066814	-80.690605	-81.806173	-77.550302	-65.906258	69.535586	-27.628961	-9.644320	30.855720	-4.013380	0.765745	0.662718	0.084411	-1.000000	-1.000000	-1.000000	-1.000000	-1.000000	-1.000000	-1.000000	78.551724	0.000000	-1.000000	-1.000000	1486839.000000	1770064470.140130
-4896.045000	-17567.955000	-3900.150000	9333.630000	-7517.115000	-3853.170000	6982.065000	-1242.900000	-65.867353	-81.600288	-75.515640	-80.998888	-78.250736	-67.966782	64.007117	-48.147813	-9.644320	30.855720	-4.013380	0.765745	0.662718	0.084411	-1.000000	-1.000000	-1.000000	-1.000000	-1.000000	-1.000000	-1.000000	78.551724	0.000000	-1.000000	-1.000000	1486840.000000	1770064470.140135
-4877.460000	-17529.930000	-3856.545000	9382.185000	-7472.295000	-3817.395000	7061.445000	-1282.905000	-36.678793	-35.940733	-32.235908	-39.114285	-38.893813	-34.965498	15.809719	-50.264657	-6.653360	42.911120	-6.592320	0.767942	0.646849	0.082763	-1.000000	-1.000000	-1.000000	-1.000000	-1.000000	-1.000000	-1.000000	78.551724	0.000000	-1.000000	-1.000000	1486841.000000	1770064470.140141
-4808.520000	-17464.185000	-3794.265000	9446.580000	-7408.080000	-3756.330000	7176.375000	-1202.580000	6.626668	21.890440	24.265276	18.982065	15.378832	9.828548	-39.710275	-32.897065	-6.653360	42.911120	-6.592320	0.767942	0.646849	0.082763	-1.000000	-1.000000	-1.000000	-1.000000	-1.000000	-1.000000	-1.000000	78.551724	0.000000	-1.000000	-1.000000	1486842.000000	1770064470.140146
-4798.305000	-17471.430000	-3810.645000	9425.700000	-7438.005000	-3788.550000	7094.295000	-1152.090000	46.356498	67.565024	67.867744	65.317935	57.712258	44.017284	-61.660801	-1.960308	-6.653360	42.911120	-6.592320	0.767942	0.646849	0.082763	-1.000000	-1.000000	-1.000000	-1.000000	-1.000000	-1.000000	-1.000000	78.551724	0.000000	-1.000000	-1.000000	1486843.000000	1770064470.143005
-4859.280000	-17537.715000	-3877.245000	9359.955000	-7499.565000	-3836.340000	7049.835000	-1152.315000	66.494597	84.239839	80.345431	80.572768	70.687074	54.629627	-41.904377	28.423245	-6.653360	42.911120	-6.592320	0.767942	0.646849	0.082763	-1.000000	-1.000000	-1.000000	-1.000000	-1.000000	-1.000000	-1.000000	78.551724	0.000000	-1.000000	-1.000000	1486844.000000	1770064470.143023
-4902.390000	-17587.530000	-3931.335000	9303.885000	-7551.945000	-3876.615000	7016.895000	-1240.695000	59.164981	68.785180	59.090300	62.569727	54.212038	43.390040	-12.031173	41.803792	-6.653360	42.911120	-6.592320	0.767942	0.646849	0.082763	-1.000000	-1.000000	-1.000000	-1.000000	-1.000000	-1.000000	-1.000000	78.551724	0.000000	-1.000000	-1.000000	1486845.000000	1770064470.147151
-4885.965000	-17551.845000	-3891.870000	9345.195000	-7515.450000	-3846.465000	7017.525000	-1288.665000	32.691958	35.625909	22.310974	28.322858	25.390512	24.347154	-5.238952	32.753554	-6.653360	42.911120	-6.592320	0.767942	0.646849	0.082763	-1.000000	-1.000000	-1.000000	-1.000000	-1.000000	-1.000000	-1.000000	78.551724	0.000000	-1.000000	-1.000000	1486846.000000	1770064470.147157
-4883.805000	-17543.880000	-3883.590000	9351.045000	-7513.425000	-3837.870000	7061.130000	-1268.595000	4.059046	3.300585	-7.373863	-2.053039	1.225861	8.147470	-17.365747	12.063638	-6.653360	42.911120	-6.592320	0.767942	0.646849	0.082763	-1.000000	-1.000000	-1.000000	-1.000000	-1.000000	-1.000000	-1.000000	78.551724	0.000000	-1.000000	-1.000000	1486847.000000	1770064470.150935
-4876.695000	-17529.165000	-3870.045000	9365.850000	-7497.675000	-3823.020000	7068.195000	-1244.970000	-16.315563	-19.873040	-21.613803	-20.043942	-13.376063	-4.496245	-19.752604	-3.316448	-6.653360	42.911120	-6.592320	0.767942	0.646849	0.082763	-1.000000	-1.000000	-1.000000	-1.000000	-1.000000	-1.000000	-1.000000	78.551724	0.000000	-1.000000	-1.000000	1486848.000000	1770064470.150944
-4864.365000	-17530.785000	-3876.930000	9362.070000	-7500.465000	-3835.035000	7023.870000	-1243.350000	-25.561683	-32.580648	-23.997322	-26.600566	-20.469985	-15.014389	1.546876	-3.856589	-6.653360	42.911120	-6.592320	0.767942	0.646849	0.082763	-1.000000	-1.000000	-1.000000	-1.000000	-1.000000	-1.000000	-1.000000	78.551724	0.000000	-1.000000	-1.000000	1486849.000000	1770064470.155023
-4851.135000	-17524.485000	-3863.970000	9390.195000	-7466.040000	-3804.840000	7036.380000	-1193.040000	-24.856666	-36.127194	-21.911461	-26.640949	-23.421803	-23.302390	32.115905	6.796281	-6.653360	42.911120	-6.592320	0.767942	0.646849	0.082763	-1.000000	-1.000000	-1.000000	-1.000000	-1.000000	-1.000000	-1.000000	78.551724	0.000000	-1.000000	-1.000000	1486850.000000	1770064470.155030
-4855.500000	-17515.170000	-3849.480000	9405.495000	-7454.205000	-3792.285000	7061.985000	-1157.625000	-19.557756	-33.746536	-20.731167	-24.588018	-24.304790	-27.994562	48.806574	16.300223	-3.158820	19.746440	-15.626240	0.757200	0.639525	0.092834	-1.000000	-1.000000	-1.000000	-1.000000	-1.000000	-1.000000	-1.000000	78.551724	0.000000	-1.000000	-1.000000	1486851.000000	1770064470.159324
-4838.310000	-17490.465000	-3828.240000	9421.155000	-7437.240000	-3772.575000	7067.655000	-1186.965000	-14.337126	-26.253554	-19.201407	-20.106224	-21.418308	-25.661280	45.244519	13.038753	-3.158820	19.746440	-15.626240	0.757200	0.639525	0.092834	-1.000000	-1.000000	-1.000000	-1.000000	-1.000000	-1.000000	-1.000000	78.551724	0.000000	-1.000000	-1.000000	1486852.000000	1770064470.159330
-4827.240000	-17475.165000	-3814.605000	9434.655000	-7423.200000	-3774.645000	7065.675000	-1143.495000	-7.931619	-11.026371	-11.654075	-9.333419	-10.736189	-12.945602	29.108147	-4.009692	-3.158820	19.746440	-15.626240	0.757200	0.639525	0.092834	-1.000000	-1.000000	-1.000000	-1.000000	-1.000000	-1.000000	-1.000000	78.551724	0.000000	-1.000000	-1.000000	1486853.000000	1770064470.162974
-4814.865000	-17484.705000	-3826.260000	9422.775000	-7443.045000	-3806.190000	6969.510000	-1120.590000	3.150058	11.470542	4.338419	8.440686	7.773330	7.615403	4.758071	-21.341949	-3.158820	19.746440	-15.626240	0.757200	0.639525	0.092834	-1.000000	-1.000000	-1.000000	-1.000000	-1.000000	-1.000000	-1.000000	78.551724	0.000000	-1.000000	-1.000000	1486854.000000	1770064470.162984
-4692.420000	-17350.740000	-3689.775000	9558.765000	-7316.640000	-3681.540000	7015.410000	-1147.995000	17.921997	33.034625	23.072901	26.409174	26.140593	26.162559	-23.819458	-24.204284	-3.158820	19.746440	-15.626240	0.757200	0.639525	0.092834	-1.000000	-1.000000	-1.000000	-1.000000	-1.000000	-1.000000	-1.000000	78.551724	0.000000	-1.000000	-1.000000	1486855.000000	1770064470.166955
-4703.490000	-17340.120000	-3672.315000	9580.275000	-7292.880000	-3644.730000	7195.860000	-1141.425000	29.885161	43.169811	35.066188	35.673454	34.883652	34.036363	-42.035446	-13.300649	-3.158820	19.746440	-15.626240	0.757200	0.639525	0.092834	-1.000000	-1.000000	-1.000000	-1.000000	-1.000000	-1.000000	-1.000000	78.551724	0.000000	-1.000000	-1.000000	1486856.000000	1770064470.166965
-4904.415000	-17583.345000	-3921.615000	9329.985000	-7539.615000	-3892.320000	7098.975000	-1161.945000	27.804744	32.895598	30.078113	27.907970	26.321369	25.755499	-35.197353	-0.506686	-3.158820	19.746440	-15.626240	0.757200	0.639525	0.092834	-1.000000	-1.000000	-1.000000	-1.000000	-1.000000	-1.000000	-1.000000	78.551724	0.000000	-1.000000	-1.000000	1486857.000000	1770064470.171042
-4956.255000	-17646.120000	-3984.030000	9273.870000	-7585.830000	-3931.380000	7034.400000	-1284.255000	2.603672	-2.476211	0.203036	-3.390893	-4.924895	-3.010247	-9.989058	3.521524	-3.158820	19.746440	-15.626240	0.757200	0.639525	0.092834	-1.000000	-1.000000	-1.000000	-1.000000	-1.000000	-1.000000	-1.000000	78.551724	0.000000	-1.000000	-1.000000	1486858.000000	1770064470.171052
-4898.160000	-17581.275000	-3919.005000	9341.100000	-7522.650000	-3874.455000	7047.585000	-1275.975000	-36.078962	-48.918733	-43.557343	-47.027654	-47.299706	-41.877245	10.542253	-5.637569	-3.158820	19.746440	-15.626240	0.757200	0.639525	0.092834	-1.000000	-1.000000	-1.000000	-1.000000	-1.000000	-1.000000	-1.000000	78.551724	0.000000	-1.000000	-1.000000	1486859.000000	1770064470.176518
-4859.370000	-17531.100000	-3865.815000	9394.470000	-7473.690000	-3834.180000	7063.830000	-1226.520000	-60.373076	-74.427474	-69.932853	-72.136845	-70.819889	-63.575935	14.140573	-20.836081	-3.158820	19.746440	-15.626240	0.757200	0.639525	0.092834	-1.000000	-1.000000	-1.000000	-1.000000	-1.000000	-1.000000	-1.000000	78.551724	0.000000	-1.000000	-1.000000	1486860.000000	1770064470.176525
-4879.620000	-17555.850000	-3890.385000	9370.350000	-7500.195000	-3857.445000	7038.135000	-1238.535000	-50.665998	-58.549297	-57.058458	-57.184163	-55.168715	-49.660284	6.547554	-26.443456	4.349100	-12.299560	9.812180	0.700743	0.662535	0.102905	-1.000000	-1.000000	-1.000000	-1.000000	-1.000000	-1.000000	-1.000000	78.551724	0.000000	-1.000000	-1.000000	1486861.000000	1770064470.179049
-4866.345000	-17541.180000	-3874.365000	9387.045000	-7486.785000	-3845.340000	7030.845000	-1229.400000	-12.961734	-10.732942	-12.192676	-9.967153	-8.524554	-7.273714	-2.668318	-14.371674	4.349100	-12.299560	9.812180	0.700743	0.662535	0.102905	-1.000000	-1.000000	-1.000000	-1.000000	-1.000000	-1.000000	-1.000000	78.551724	0.000000	-1.000000	-1.000000	1486862.000000	1770064470.179060
-4842.045000	-17511.075000	-3842.460000	9418.680000	-7456.770000	-3817.305000	7032.645000	-1207.530000	29.822394	41.011308	38.293362	41.982686	42.249089	39.475319	-6.999249	9.727464	4.349100	-12.299560	9.812180	0.700743	0.662535	0.102905	-1.000000	-1.000000	-1.000000	-1.000000	-1.000000	-1.000000	-1.000000	78.551724	0.000000	-1.000000	-1.000000	1486863.000000	1770064470.183086
-4837.005000	-17506.665000	-3838.320000	9422.145000	-7456.680000	-3821.985000	7043.310000	-1200.150000	54.445439	69.098647	67.061726	70.427943	69.920360	64.986472	-5.122297	33.850234	4.349100	-12.299560	9.812180	0.700743	0.662535	0.102905	-1.000000	-1.000000	-1.000000	-1.000000	-1.000000	-1.000000	-1.000000	78.551724	0.000000	-1.000000	-1.000000	1486864.000000	1770064470.183097
-4856.355000	-17527.995000	-3859.650000	9399.285000	-7481.745000	-3845.970000	7042.860000	-1211.850000	51.623184	62.622947	62.243015	63.697085	63.091510	57.632353	-2.364870	46.187777	4.349100	-12.299560	9.812180	0.700743	0.662535	0.102905	-1.000000	-1.000000	-1.000000	-1.000000	-1.000000	-1.000000	-1.000000	78.551724	0.000000	-1.000000	-1.000000	1486865.000000	1770064470.188990
-4865.220000	-17530.740000	-3857.355000	9401.805000	-7476.345000	-3838.860000	7044.390000	-1219.995000	31.452274	34.635338	35.786957	34.728209	34.157623	29.295871	-0.896270	40.954984	4.349100	-12.299560	9.812180	0.700743	0.662535	0.102905	-1.000000	-1.000000	-1.000000	-1.000000	-1.000000	-1.000000	-1.000000	78.551724	0.000000	-1.000000	-1.000000	1486866.000000	1770064470.189005
-4856.625000	-17522.280000	-3848.715000	9407.430000	-7472.295000	-3837.060000	7039.305000	-1213.560000	9.955598	6.514679	8.504931	5.391536	4.573568	1.427262	3.535521	22.483117	4.349100	-12.299560	9.812180	0.700743	0.662535	0.102905	-1.000000	-1.000000	-1.000000	-1.000000	-1.000000	-1.000000	-1.000000	78.551724	0.000000	-1.000000	-1.000000	1486867.000000	1770064470.191013
-4841.640000	-17504.145000	-3830.220000	9423.135000	-7458.120000	-3837.420000	6974.640000	-1197.495000	-6.502881	-12.680535	-10.823021	-14.875488	-15.990679	-16.719718	9.862302	-0.132480	4.349100	-12.299560	9.812180	0.700743	0.662535	0.102905	-1.000000	-1.000000	-1.000000	-1.000000	-1.000000	-1.000000	-1.000000	78.551724	0.000000	-1.000000	-1.000000	1486868.000000	1770064470.191019
-4771.890000	-17427.240000	-3755.565000	9493.785000	-7393.365000	-3779.685000	6972.120000	-1154.700000	-17.905871	-23.821764	-23.151383	-26.700729	-27.657037	-26.393262	10.779256	-19.618345	4.349100	-12.299560	9.812180	0.700743	0.662535	0.102905	-1.000000	-1.000000	-1.000000	-1.000000	-1.000000	-1.000000	-1.000000	78.551724	0.000000	-1.000000	-1.000000	1486869.000000	1770064470.196720
-4772.205000	-17419.680000	-3746.115000	9502.020000	-7382.295000	-3756.330000	7127.235000	-1170.900000	-22.071901	-26.165841	-27.244572	-28.909988	-29.099268	-26.888944	6.312630	-30.623012	4.349100	-12.299560	9.812180	0.700743	0.662535	0.102905	-1.000000	-1.000000	-1.000000	-1.000000	-1.000000	-1.000000	-1.000000	78.551724	0.000000	-1.000000	-1.000000	1486870.000000	1770064470.196731
-4846.590000	-17470.845000	-3797.325000	9448.965000	-7430.445000	-3790.845000	7081.425000	-1235.070000	-19.323672	-20.532980	-22.913151	-22.073869	-21.043573	-18.157790	5.190427	-31.854222	-14.847980	-14.588560	-1.739640	0.721617	0.674193	0.108032	-1.000000	-1.000000	-1.000000	-1.000000	-1.000000	-1.000000	-1.000000	78.551724	0.000000	-1.000000	-1.000000	1486871.000000	1770064470.200495
-4731.570000	-17360.730000	-3690.585000	9551.295000	-7331.625000	-3689.055000	7143.885000	-1071.540000	-15.215549	-13.302726	-15.837898	-13.018595	-10.626981	-6.455244	9.635100	-24.993286	-14.847980	-14.588560	-1.739640	0.721617	0.674193	0.108032	-1.000000	-1.000000	-1.000000	-1.000000	-1.000000	-1.000000	-1.000000	78.551724	0.000000	-1.000000	-1.000000	1486872.000000	1770064470.200506
-4738.860000	-17412.660000	-3743.370000	9500.490000	-7380.585000	-3753.180000	7138.845000	-1003.050000	-11.118501	-8.406586	-10.086855	-6.564249	-3.375846	1.716823	11.619483	-8.613764	-14.847980	-14.588560	-1.739640	0.721617	0.674193	0.108032	-1.000000	-1.000000	-1.000000	-1.000000	-1.000000	-1.000000	-1.000000	78.551724	0.000000	-1.000000	-1.000000	1486873.000000	1770064470.204392
-4897.035000	-17604.090000	-3934.125000	9313.425000	-7558.740000	-3939.750000	6971.625000	-1260.495000	-5.502416	-6.788279	-7.166712	-4.106450	-1.286814	2.251994	2.978278	11.999622	-14.847980	-14.588560	-1.739640	0.721617	0.674193	0.108032	-1.000000	-1.000000	-1.000000	-1.000000	-1.000000	-1.000000	-1.000000	78.551724	0.000000	-1.000000	-1.000000	1486874.000000	1770064470.204401
-4911.750000	-17590.815000	-3916.485000	9330.210000	-7546.320000	-3937.455000	6995.205000	-1274.400000	-2.289566	-10.357935	-9.476857	-7.418870	-6.074527	-7.012063	-16.621894	18.982960	-14.847980	-14.588560	-1.739640	0.721617	0.674193	0.108032	-1.000000	-1.000000	-1.000000	-1.000000	-1.000000	-1.000000	-1.000000	78.551724	0.000000	-1.000000	-1.000000	1486875.000000	1770064470.207192
-4880.970000	-17548.650000	-3876.390000	9366.435000	-7511.580000	-3892.815000	6983.595000	-1182.420000	-3.927258	-15.130710	-13.380303	-12.471783	-13.278217	-19.133335	-35.525804	6.198298	-14.847980	-14.588560	-1.739640	0.721617	0.674193	0.108032	-1.000000	-1.000000	-1.000000	-1.000000	-1.000000	-1.000000	-1.000000	78.551724	0.000000	-1.000000	-1.000000	1486876.000000	1770064470.207203
-4881.015000	-17559.720000	-3885.345000	9360.405000	-7508.475000	-3870.045000	6959.745000	-1126.215000	-5.682755	-12.519404	-10.536783	-10.722883	-13.440127	-20.693590	-38.316899	-9.747810	-14.847980	-14.588560	-1.739640	0.721617	0.674193	0.108032	-1.000000	-1.000000	-1.000000	-1.000000	-1.000000	-1.000000	-1.000000	78.551724	0.000000	-1.000000	-1.000000	1486877.000000	1770064470.211282
-4888.575000	-17557.695000	-3878.865000	9373.545000	-7491.015000	-3846.240000	7053.210000	-1248.255000	-3.416725	-1.271588	0.363919	-0.368594	-3.477671	-6.725559	-21.015397	-14.117771	-14.847980	-14.588560	-1.739640	0.721617	0.674193	0.108032	-1.000000	-1.000000	-1.000000	-1.000000	-1.000000	-1.000000	-1.000000	78.551724	0.000000	-1.000000	-1.000000	1486878.000000	1770064470.211292
-4881.915000	-17544.105000	-3864.870000	9391.320000	-7473.195000	-3831.840000	7087.275000	-1294.245000	3.016224	13.091493	14.159532	13.813138	12.065415	15.331750	6.870535	-9.493690	-14.847980	-14.588560	-1.739640	0.721617	0.674193	0.108032	-1.000000	-1.000000	-1.000000	-1.000000	-1.000000	-1.000000	-1.000000	78.551724	0.000000	-1.000000	-1.000000	1486879.000000	1770064470.215367
-4883.760000	-17546.355000	-3869.820000	9384.345000	-7481.250000	-3832.470000	7039.080000	-1263.240000	11.897994	24.908965	25.378385	25.913499	25.986917	33.073534	30.496550	-3.550158	-14.847980	-14.588560	-1.739640	0.721617	0.674193	0.108032	-1.000000	-1.000000	-1.000000	-1.000000	-1.000000	-1.000000	-1.000000	78.551724	0.000000	-1.000000	-1.000000	1486880.000000	1770064470.215377
-4880.970000	-17542.440000	-3868.290000	9383.445000	-7485.120000	-3833.415000	7029.315000	-1249.605000	18.025147	28.391109	28.170621	29.081760	30.033289	35.933924	36.976586	0.547654	0.457800	-1.785420	-0.946120	0.758726	0.636778	0.096802	-1.000000	-1.000000	-1.000000	-1.000000	-1.000000	-1.000000	-1.000000	78.551724	0.000000	-1.000000	-1.000000	1486881.000000	1770064470.222523
-4837.635000	-17500.905000	-3826.035000	9424.080000	-7449.840000	-3809.115000	7020.585000	-1208.970000	17.981514	23.227129	22.294352	22.389731	22.771245	24.257345	24.351798	3.971493	0.457800	-1.785420	-0.946120	0.758726	0.636778	0.096802	-1.000000	-1.000000	-1.000000	-1.000000	-1.000000	-1.000000	-1.000000	78.551724	0.000000	-1.000000	-1.000000	1486882.000000	1770064470.222533
-4797.180000	-17443.440000	-3765.780000	9484.110000	-7395.165000	-3769.470000	6994.080000	-1204.290000	17.620788	19.235769	17.839984	16.150148	14.785696	11.513720	5.191386	13.325133	0.457800	-1.785420	-0.946120	0.758726	0.636778	0.096802	-1.000000	-1.000000	-1.000000	-1.000000	-1.000000	-1.000000	-1.000000	78.551724	0.000000	-1.000000	-1.000000	1486883.000000	1770064470.223106
-4829.310000	-17473.185000	-3795.795000	9458.100000	-7414.155000	-3783.645000	7040.835000	-1235.790000	20.901233	21.078753	19.670968	16.373452	13.256496	6.839456	-6.502020	29.234308	0.457800	-1.785420	-0.946120	0.758726	0.636778	0.096802	-1.000000	-1.000000	-1.000000	-1.000000	-1.000000	-1.000000	-1.000000	78.551724	0.000000	-1.000000	-1.000000	1486884.000000	1770064470.223119
-4865.445000	-17526.735000	-3851.505000	9403.920000	-7462.890000	-3834.225000	7086.645000	-1256.940000	18.826122	17.287082	16.254642	12.845230	9.699525	2.750847	-6.321280	36.048233	0.457800	-1.785420	-0.946120	0.758726	0.636778	0.096802	-1.000000	-1.000000	-1.000000	-1.000000	-1.000000	-1.000000	-1.000000	78.551724	0.000000	-1.000000	-1.000000	1486885.000000	1770064470.227292
-4849.965000	-17514.495000	-3835.755000	9415.305000	-7459.020000	-3832.065000	7068.060000	-1207.440000	2.578567	-2.656132	-3.156000	-4.983245	-6.005287	-11.140877	1.391567	21.128220	0.457800	-1.785420	-0.946120	0.758726	0.636778	0.096802	-1.000000	-1.000000	-1.000000	-1.000000	-1.000000	-1.000000	-1.000000	78.551724	0.000000	-1.000000	-1.000000	1486886.000000	1770064470.227350
-4887.045000	-17537.040000	-3858.570000	9390.420000	-7491.060000	-3856.815000	7043.085000	-1222.740000	-22.134710	-31.496200	-31.494423	-31.316091	-29.772410	-31.953553	4.999335	-5.312824	0.457800	-1.785420	-0.946120	0.758726	0.636778	0.096802	-1.000000	-1.000000	-1.000000	-1.000000	-1.000000	-1.000000	-1.000000	78.551724	0.000000	-1.000000	-1.000000	1486887.000000	1770064470.232312
-4875.390000	-17533.800000	-3864.780000	9388.080000	-7502.220000	-3864.015000	7058.385000	-1194.165000	-40.807632	-51.761303	-51.494787	-50.181611	-47.623596	-46.609802	-3.905130	-23.096243	0.457800	-1.785420	-0.946120	0.758726	0.636778	0.096802	-1.000000	-1.000000	-1.000000	-1.000000	-1.000000	-1.000000	-1.000000	78.551724	0.000000	-1.000000	-1.000000	1486888.000000	1770064470.232323
-4810.320000	-17488.125000	-3810.375000	9442.395000	-7446.555000	-3811.455000	7083.225000	-1167.930000	-42.261009	-51.272178	-51.023566	-49.473565	-47.740924	-44.029124	-18.227606	-24.585284	0.457800	-1.785420	-0.946120	0.758726	0.636778	0.096802	-1.000000	-1.000000	-1.000000	-1.000000	-1.000000	-1.000000	-1.000000	78.551724	0.000000	-1.000000	-1.000000	1486889.000000	1770064470.235154
-4850.415000	-17516.970000	-3819.915000	9432.000000	-7441.605000	-3799.440000	7008.480000	-1206.540000	-25.539085	-30.064046	-29.396626	-27.882879	-27.249105	-22.117132	-25.029581	-17.268266	0.457800	-1.785420	-0.946120	0.758726	0.636778	0.096802	-1.000000	-1.000000	-1.000000	-1.000000	-1.000000	-1.000000	-1.000000	78.551724	0.000000	-1.000000	-1.000000	1486890.000000	1770064470.235165
-4900.995000	-17548.290000	-3823.605000	9411.705000	-7458.705000	-3823.380000	6960.690000	-1185.390000	-1.274828	0.454143	2.982132	4.188650	5.227576	10.524912	-20.575225	-10.351077	8.118320	0.976640	0.885080	0.736204	0.640318	0.093384	-1.000000	-1.000000	-1.000000	-1.000000	-1.000000	-1.000000	-1.000000	78.551724	0.000000	-1.000000	-1.000000	1486891.000000	1770064470.243834
-4856.715000	-17502.435000	-3827.475000	9416.295000	-7470.765000	-3843.720000	7018.695000	-1158.120000	16.981117	25.319975	30.030116	30.257570	32.886298	37.458354	-8.386675	-4.800351	8.118320	0.976640	0.885080	0.736204	0.640318	0.093384	-1.000000	-1.000000	-1.000000	-1.000000	-1.000000	-1.000000	-1.000000	78.551724	0.000000	-1.000000	-1.000000	1486892.000000	1770064470.243851
-4824.900000	-17505.495000	-3861.090000	9417.555000	-7459.245000	-3823.920000	7030.980000	-1211.580000	24.799149	36.524749	39.873953	39.365627	42.568482	45.414671	6.866015	1.196206	8.118320	0.976640	0.885080	0.736204	0.640318	0.093384	-1.000000	-1.000000	-1.000000	-1.000000	-1.000000	-1.000000	-1.000000	78.551724	0.000000	-1.000000	-1.000000	1486893.000000	1770064470.244055
-4802.220000	-17506.980000	-3837.690000	9448.155000	-7419.420000	-3777.840000	7082.010000	-1196.235000	25.942258	34.807138	31.979461	32.824522	34.617478	35.006699	20.047462	4.697828	8.118320	0.976640	0.885080	0.736204	0.640318	0.093384	-1.000000	-1.000000	-1.000000	-1.000000	-1.000000	-1.000000	-1.000000	78.551724	0.000000	-1.000000	-1.000000	1486894.000000	1770064470.244075
-4816.170000	-17533.530000	-3884.130000	9428.535000	-7435.755000	-3791.295000	7080.075000	-1186.020000	22.873938	23.638301	14.374303	18.644556	18.437159	16.609016	26.606529	3.394317	8.118320	0.976640	0.885080	0.736204	0.640318	0.093384	-1.000000	-1.000000	-1.000000	-1.000000	-1.000000	-1.000000	-1.000000	78.551724	0.000000	-1.000000	-1.000000	1486895.000000	1770064470.246935
-4847.805000	-17529.570000	-3853.665000	9410.085000	-7463.475000	-3819.780000	7065.630000	-1210.680000	14.580561	7.073850	-3.548220	3.165746	1.848254	-1.355653	23.694222	0.424800	8.118320	0.976640	0.885080	0.736204	0.640318	0.093384	-1.000000	-1.000000	-1.000000	-1.000000	-1.000000	-1.000000	-1.000000	78.551724	0.000000	-1.000000	-1.000000	1486896.000000	1770064470.246941
-4903.425000	-17569.710000	-3862.035000	9360.315000	-7511.490000	-3863.385000	7018.830000	-1225.980000	-0.033915	-9.716428	-14.665726	-10.958553	-12.472189	-16.232580	10.901783	-1.613094	8.118320	0.976640	0.885080	0.736204	0.640318	0.093384	-1.000000	-1.000000	-1.000000	-1.000000	-1.000000	-1.000000	-1.000000	78.551724	0.000000	-1.000000	-1.000000	1486897.000000	1770064470.251433
-4907.700000	-17601.165000	-3927.015000	9349.470000	-7513.155000	-3866.085000	6996.645000	-1229.535000	-18.956448	-22.769932	-17.811712	-22.718337	-24.109344	-27.623311	-7.874823	-3.633001	8.118320	0.976640	0.885080	0.736204	0.640318	0.093384	-1.000000	-1.000000	-1.000000	-1.000000	-1.000000	-1.000000	-1.000000	78.551724	0.000000	-1.000000	-1.000000	1486898.000000	1770064470.251444
-4864.725000	-17541.720000	-3856.095000	9405.045000	-7472.340000	-3834.225000	7052.805000	-1198.890000	-32.716237	-27.688519	-15.828075	-27.955729	-29.491194	-32.041916	-22.159942	-4.485763	8.118320	0.976640	0.885080	0.736204	0.640318	0.093384	-1.000000	-1.000000	-1.000000	-1.000000	-1.000000	-1.000000	-1.000000	78.551724	0.000000	-1.000000	-1.000000	1486899.000000	1770064470.258444
-4851.090000	-17523.990000	-3840.840000	9421.830000	-7456.005000	-3823.020000	7055.280000	-1187.865000	-29.302554	-19.241275	-8.465215	-20.208356	-22.558411	-23.774887	-20.675432	-0.660712	8.118320	0.976640	0.885080	0.736204	0.640318	0.093384	-1.000000	-1.000000	-1.000000	-1.000000	-1.000000	-1.000000	-1.000000	78.551724	0.000000	-1.000000	-1.000000	1486900.000000	1770064470.258456
