Channel1	Channel2	Channel3	Channel4	Channel5	Channel6	Channel7	Channel8	FilteredChannel1	FilteredChannel2	FilteredChannel3	FilteredChannel4	FilteredChannel5	FilteredChannel6	FilteredChannel7	FilteredChannel8	GyroX	GyroY	GyroZ	AccX	AccY	AccZ	PPG1	PPG2	rawPPG1	rawPPG2	rawPPG3	Hr	Hrv	Battery	Trigger	PhysicalTrigger	AutoTrigger	NumMeasurements	Timestamp
21871.035000	2335.050000	26433.720000	30296.565000	14363.685000	-52471.125000	-45609.030000	-18228.420000	51.864563	40.324904	57.903670	48.954860	43.777349	41.568879	24.163905	50.267365	-2.807840	2.609460	-2.289000	0.830625	-0.209899	0.492125	-1.000000	-1.000000	-1.000000	-1.000000	-1.000000	-1.000000	-1.000000	84.344828	0.000000	-1.000000	-1.000000	326959.000000	1774904588.432676
21915.630000	2384.370000	26467.155000	30329.910000	14397.615000	-52436.160000	-45573.795000	-18183.330000	32.653779	30.095174	41.162543	36.872010	34.640689	32.044596	16.334659	27.770461	-2.807840	2.609460	-2.289000	0.830625	-0.209899	0.492125	-1.000000	-1.000000	-1.000000	-1.000000	-1.000000	-1.000000	-1.000000	84.344828	0.000000	-1.000000	-1.000000	326960.000000	1774904588.432689
21890.250000	2359.485000	26439.030000	30302.775000	14371.560000	-52457.310000	-45604.395000	-18234.630000	12.141479	18.006359	18.466531	19.688009	20.846038	19.042109	9.480652	4.258081	-0.885080	1.526000	-3.341940	0.832945	-0.209655	0.492613	-1.000000	-1.000000	-1.000000	-1.000000	-1.000000	-1.000000	-1.000000	84.344828	0.000000	-1.000000	-1.000000	326961.000000	1774904588.432703
21849.030000	2324.070000	26409.465000	30275.235000	14343.300000	-52487.280000	-45639.540000	-18286.920000	-8.375907	4.286508	-4.302303	0.266799	3.874583	3.770093	0.621231	-17.526791	-0.885080	1.526000	-3.341940	0.832945	-0.209655	0.492613	-1.000000	-1.000000	-1.000000	-1.000000	-1.000000	-1.000000	-1.000000	84.344828	0.000000	-1.000000	-1.000000	326962.000000	1774904588.432708
21814.020000	2297.160000	26384.085000	30250.530000	14322.510000	-52506.315000	-45649.980000	-18336.105000	-30.635597	-14.281453	-26.684618	-21.489754	-16.739445	-15.251285	-13.415634	-37.810543	-0.885080	1.526000	-3.341940	0.832945	-0.209655	0.492613	-1.000000	-1.000000	-1.000000	-1.000000	-1.000000	-1.000000	-1.000000	84.344828	0.000000	-1.000000	-1.000000	326963.000000	1774904588.438484
21786.570000	2270.880000	26342.550000	30220.065000	14305.410000	-52520.940000	-45663.705000	-18346.635000	-49.435429	-33.986092	-46.172263	-41.221663	-35.996615	-33.930891	-28.240749	-52.257164	-0.885080	1.526000	-3.341940	0.832945	-0.209655	0.492613	-1.000000	-1.000000	-1.000000	-1.000000	-1.000000	-1.000000	-1.000000	84.344828	0.000000	-1.000000	-1.000000	326964.000000	1774904588.438503
21725.955000	2202.120000	26261.190000	30149.235000	14226.660000	-52602.390000	-45733.590000	-18356.220000	-55.620530	-45.813561	-57.054550	-51.429012	-46.083040	-44.496904	-35.864681	-54.341925	-0.885080	1.526000	-3.341940	0.832945	-0.209655	0.492613	-1.000000	-1.000000	-1.000000	-1.000000	-1.000000	-1.000000	-1.000000	84.344828	0.000000	-1.000000	-1.000000	326965.000000	1774904588.438515
21759.930000	2216.025000	26297.325000	30167.505000	14233.950000	-52594.515000	-45732.690000	-18329.445000	-44.834691	-44.017120	-54.432891	-48.048745	-43.808947	-43.158263	-32.509865	-39.838009	-0.885080	1.526000	-3.341940	0.832945	-0.209655	0.492613	-1.000000	-1.000000	-1.000000	-1.000000	-1.000000	-1.000000	-1.000000	84.344828	0.000000	-1.000000	-1.000000	326966.000000	1774904588.438520
21773.205000	2222.505000	26314.785000	30179.160000	14245.335000	-52583.220000	-45716.220000	-18318.780000	-19.349311	-28.333648	-35.663302	-31.353445	-30.304777	-30.370348	-18.965920	-10.068830	-0.885080	1.526000	-3.341940	0.832945	-0.209655	0.492613	-1.000000	-1.000000	-1.000000	-1.000000	-1.000000	-1.000000	-1.000000	84.344828	0.000000	-1.000000	-1.000000	326967.000000	1774904588.453182
21762.855000	2227.455000	26316.360000	30186.810000	14254.245000	-52575.345000	-45700.965000	-18314.460000	12.087216	-3.843589	-3.882904	-5.355338	-8.655096	-8.891679	0.937520	24.440262	-0.885080	1.526000	-3.341940	0.832945	-0.209655	0.492613	-1.000000	-1.000000	-1.000000	-1.000000	-1.000000	-1.000000	-1.000000	84.344828	0.000000	-1.000000	-1.000000	326968.000000	1774904588.453198
21777.705000	2236.230000	26311.275000	30181.635000	14251.365000	-52576.740000	-45693.180000	-18296.775000	36.699841	20.109688	29.704636	21.797044	15.217363	15.146198	20.472173	48.332601	-0.885080	1.526000	-3.341940	0.832945	-0.209655	0.492613	-1.000000	-1.000000	-1.000000	-1.000000	-1.000000	-1.000000	-1.000000	84.344828	0.000000	-1.000000	-1.000000	326969.000000	1774904588.453211
21781.170000	2253.285000	26316.900000	30184.020000	14254.380000	-52573.905000	-45692.865000	-18325.395000	46.312688	36.057024	52.702631	41.458869	34.298164	34.273190	33.309113	52.975580	-0.885080	1.526000	-3.341940	0.832945	-0.209655	0.492613	-1.000000	-1.000000	-1.000000	-1.000000	-1.000000	-1.000000	-1.000000	84.344828	0.000000	-1.000000	-1.000000	326970.000000	1774904588.453216
21798.765000	2286.495000	26350.155000	30220.605000	14291.235000	-52536.015000	-45679.725000	-18314.595000	41.686364	42.013708	58.862210	48.863060	43.943751	43.641782	36.518842	40.761128	-1.968540	1.419180	-3.601360	0.834898	-0.208251	0.490782	-1.000000	-1.000000	-1.000000	-1.000000	-1.000000	-1.000000	-1.000000	84.344828	0.000000	-1.000000	-1.000000	326971.000000	1774904588.453222
21809.160000	2302.920000	26377.155000	30253.005000	14325.885000	-52499.880000	-45665.415000	-18291.915000	28.781944	39.165470	49.234350	44.374803	43.268400	42.544944	30.382071	20.568054	-1.968540	1.419180	-3.601360	0.834898	-0.208251	0.490782	-1.000000	-1.000000	-1.000000	-1.000000	-1.000000	-1.000000	-1.000000	84.344828	0.000000	-1.000000	-1.000000	326972.000000	1774904588.453227
21825.225000	2300.850000	26377.065000	30251.430000	14322.510000	-52504.470000	-45657.945000	-18271.215000	14.045993	29.272980	29.833894	31.714142	34.045562	33.055810	17.913429	1.169286	-1.968540	1.419180	-3.601360	0.834898	-0.208251	0.490782	-1.000000	-1.000000	-1.000000	-1.000000	-1.000000	-1.000000	-1.000000	84.344828	0.000000	-1.000000	-1.000000	326973.000000	1774904588.453233
21787.695000	2250.315000	26323.380000	30191.895000	14259.645000	-52568.820000	-45696.420000	-18305.640000	0.929978	13.524517	6.767473	13.778767	17.835114	16.935597	3.481536	-13.504968	-1.968540	1.419180	-3.601360	0.834898	-0.208251	0.490782	-1.000000	-1.000000	-1.000000	-1.000000	-1.000000	-1.000000	-1.000000	84.344828	0.000000	-1.000000	-1.000000	326974.000000	1774904588.453237
21788.325000	2240.640000	26311.410000	30181.860000	14250.285000	-52578.945000	-45723.105000	-18333.405000	-11.340758	-7.046427	-17.160768	-8.673466	-4.579192	-5.022691	-10.485558	-24.061133	-1.968540	1.419180	-3.601360	0.834898	-0.208251	0.490782	-1.000000	-1.000000	-1.000000	-1.000000	-1.000000	-1.000000	-1.000000	84.344828	0.000000	-1.000000	-1.000000	326975.000000	1774904588.455453
21811.725000	2264.985000	26330.985000	30206.565000	14278.230000	-52551.000000	-45711.000000	-18309.690000	-23.103829	-28.072343	-38.357087	-31.643292	-28.498321	-28.298140	-23.094049	-30.823466	-1.968540	1.419180	-3.601360	0.834898	-0.208251	0.490782	-1.000000	-1.000000	-1.000000	-1.000000	-1.000000	-1.000000	-1.000000	84.344828	0.000000	-1.000000	-1.000000	326976.000000	1774904588.455463
21807.585000	2270.835000	26329.455000	30207.420000	14281.560000	-52546.770000	-45682.830000	-18299.160000	-30.283302	-41.008452	-48.899859	-45.553086	-43.804480	-43.011090	-30.823099	-30.921567	-1.968540	1.419180	-3.601360	0.834898	-0.208251	0.490782	-1.000000	-1.000000	-1.000000	-1.000000	-1.000000	-1.000000	-1.000000	84.344828	0.000000	-1.000000	-1.000000	326977.000000	1774904588.459165
21792.420000	2256.885000	26313.120000	30195.630000	14271.435000	-52554.240000	-45669.870000	-18299.385000	-28.974853	-39.676850	-42.823823	-42.919499	-42.703619	-41.575914	-28.480388	-21.792636	-1.968540	1.419180	-3.601360	0.834898	-0.208251	0.490782	-1.000000	-1.000000	-1.000000	-1.000000	-1.000000	-1.000000	-1.000000	84.344828	0.000000	-1.000000	-1.000000	326978.000000	1774904588.459173
21782.475000	2246.670000	26305.200000	30188.970000	14262.660000	-52565.130000	-45671.490000	-18307.170000	-20.068298	-25.888438	-23.098031	-25.588424	-26.758279	-25.693313	-15.361125	-5.369481	-1.968540	1.419180	-3.601360	0.834898	-0.208251	0.490782	-1.000000	-1.000000	-1.000000	-1.000000	-1.000000	-1.000000	-1.000000	84.344828	0.000000	-1.000000	-1.000000	326979.000000	1774904588.463577
21790.935000	2257.380000	26334.585000	30209.175000	14279.445000	-52548.615000	-45680.940000	-18309.150000	-7.396831	-7.133778	0.565828	-2.922526	-5.100590	-4.548240	2.041912	11.908990	-1.968540	1.419180	-3.601360	0.834898	-0.208251	0.490782	-1.000000	-1.000000	-1.000000	-1.000000	-1.000000	-1.000000	-1.000000	84.344828	0.000000	-1.000000	-1.000000	326980.000000	1774904588.463588
21812.220000	2282.670000	26370.180000	30236.625000	14304.240000	-52523.730000	-45683.820000	-18286.155000	5.485511	9.814691	19.532380	15.772740	13.001707	12.723320	14.641086	22.484893	-2.533160	2.334780	-2.731540	0.836241	-0.205566	0.490905	-1.000000	-1.000000	-1.000000	-1.000000	-1.000000	-1.000000	-1.000000	84.344828	0.000000	-1.000000	-1.000000	326981.000000	1774904588.467181
21837.510000	2306.880000	26395.155000	30260.655000	14322.555000	-52507.080000	-45674.865000	-18263.430000	16.479655	22.399891	30.744604	26.841033	23.952944	22.946765	18.187076	23.068104	-2.533160	2.334780	-2.731540	0.836241	-0.205566	0.490905	-1.000000	-1.000000	-1.000000	-1.000000	-1.000000	-1.000000	-1.000000	84.344828	0.000000	-1.000000	-1.000000	326982.000000	1774904588.467191
21853.755000	2327.310000	26407.350000	30272.220000	14328.945000	-52503.030000	-45652.545000	-18254.160000	24.106521	30.319521	34.372979	30.951959	28.644980	27.432467	15.652178	16.776757	-2.533160	2.334780	-2.731540	0.836241	-0.205566	0.490905	-1.000000	-1.000000	-1.000000	-1.000000	-1.000000	-1.000000	-1.000000	84.344828	0.000000	-1.000000	-1.000000	326983.000000	1774904588.471092
21832.695000	2315.700000	26396.280000	30268.980000	14333.220000	-52495.560000	-45603.675000	-18267.660000	25.419076	31.426704	29.521472	27.972007	27.023371	26.218774	12.454484	8.467909	-2.533160	2.334780	-2.731540	0.836241	-0.205566	0.490905	-1.000000	-1.000000	-1.000000	-1.000000	-1.000000	-1.000000	-1.000000	84.344828	0.000000	-1.000000	-1.000000	326984.000000	1774904588.471103
21862.305000	2353.095000	26439.750000	30318.570000	14392.035000	-52430.175000	-45523.260000	-18205.020000	17.530432	22.540731	15.566242	16.985796	18.002211	18.126456	11.251768	0.561464	-2.533160	2.334780	-2.731540	0.836241	-0.205566	0.490905	-1.000000	-1.000000	-1.000000	-1.000000	-1.000000	-1.000000	-1.000000	84.344828	0.000000	-1.000000	-1.000000	326985.000000	1774904588.475154
21874.995000	2395.890000	26479.395000	30355.785000	14425.560000	-52400.340000	-45559.035000	-18220.905000	3.136943	5.989111	-2.385360	1.699613	4.698846	5.924253	10.084767	-5.609137	-2.533160	2.334780	-2.731540	0.836241	-0.205566	0.490905	-1.000000	-1.000000	-1.000000	-1.000000	-1.000000	-1.000000	-1.000000	84.344828	0.000000	-1.000000	-1.000000	326986.000000	1774904588.475164
21804.480000	2320.380000	26399.070000	30275.955000	14341.455000	-52486.605000	-45673.155000	-18314.145000	-11.000076	-10.866380	-16.560231	-11.636993	-7.775381	-6.068369	2.567243	-10.357651	-2.533160	2.334780	-2.731540	0.836241	-0.205566	0.490905	-1.000000	-1.000000	-1.000000	-1.000000	-1.000000	-1.000000	-1.000000	84.344828	0.000000	-1.000000	-1.000000	326987.000000	1774904588.479148
21726.855000	2192.805000	26258.985000	30139.830000	14211.270000	-52609.860000	-45752.670000	-18376.605000	-21.728494	-25.066536	-26.664608	-23.058264	-20.078355	-18.930738	-15.904747	-16.514123	-2.533160	2.334780	-2.731540	0.836241	-0.205566	0.490905	-1.000000	-1.000000	-1.000000	-1.000000	-1.000000	-1.000000	-1.000000	84.344828	0.000000	-1.000000	-1.000000	326988.000000	1774904588.479158
21775.410000	2212.965000	26256.870000	30133.170000	14206.050000	-52615.620000	-45751.995000	-18350.910000	-28.207611	-37.225179	-37.033969	-35.741816	-34.604891	-34.484053	-38.526986	-23.480424	-2.533160	2.334780	-2.731540	0.836241	-0.205566	0.490905	-1.000000	-1.000000	-1.000000	-1.000000	-1.000000	-1.000000	-1.000000	84.344828	0.000000	-1.000000	-1.000000	326989.000000	1774904588.483163
21847.410000	2287.980000	26309.385000	30201.660000	14273.910000	-52549.695000	-45695.655000	-18303.345000	-25.484503	-40.936458	-42.988229	-43.423251	-43.842229	-44.504712	-48.237945	-24.117889	-2.533160	2.334780	-2.731540	0.836241	-0.205566	0.490905	-1.000000	-1.000000	-1.000000	-1.000000	-1.000000	-1.000000	-1.000000	84.344828	0.000000	-1.000000	-1.000000	326990.000000	1774904588.483170
21841.470000	2306.565000	26337.105000	30235.095000	14302.575000	-52520.940000	-45664.110000	-18274.950000	-9.730992	-26.666035	-32.657971	-33.230911	-34.347105	-35.347762	-32.500171	-12.204205	-1.693860	3.616620	-2.319520	0.837461	-0.202941	0.491027	-1.000000	-1.000000	-1.000000	-1.000000	-1.000000	-1.000000	-1.000000	84.344828	0.000000	-1.000000	-1.000000	326991.000000	1774904588.487181
21802.005000	2275.335000	26345.610000	30211.290000	14271.165000	-52552.035000	-45685.080000	-18311.220000	11.914706	2.652160	-3.650024	-3.582736	-4.849056	-5.773465	2.830742	8.880698	-1.693860	3.616620	-2.319520	0.837461	-0.202941	0.491027	-1.000000	-1.000000	-1.000000	-1.000000	-1.000000	-1.000000	-1.000000	84.344828	0.000000	-1.000000	-1.000000	326992.000000	1774904588.487191
21763.395000	2236.545000	26341.830000	30190.815000	14254.875000	-52568.145000	-45699.435000	-18352.665000	25.330589	29.999119	30.759044	29.599197	27.979253	27.357303	35.751633	26.355675	-1.693860	3.616620	-2.319520	0.837461	-0.202941	0.491027	-1.000000	-1.000000	-1.000000	-1.000000	-1.000000	-1.000000	-1.000000	84.344828	0.000000	-1.000000	-1.000000	326993.000000	1774904588.491138
21800.295000	2276.910000	26369.730000	30229.515000	14294.880000	-52531.245000	-45671.715000	-18300.375000	22.955855	39.580438	52.098209	47.083312	44.742906	44.277499	46.648070	28.977205	-1.693860	3.616620	-2.319520	0.837461	-0.202941	0.491027	-1.000000	-1.000000	-1.000000	-1.000000	-1.000000	-1.000000	-1.000000	84.344828	0.000000	-1.000000	-1.000000	326994.000000	1774904588.491149
21809.385000	2295.855000	26346.780000	30243.015000	14315.355000	-52510.590000	-45663.840000	-18284.265000	10.406781	30.350877	50.621308	42.901906	40.359655	39.773376	35.065146	18.932955	-1.693860	3.616620	-2.319520	0.837461	-0.202941	0.491027	-1.000000	-1.000000	-1.000000	-1.000000	-1.000000	-1.000000	-1.000000	84.344828	0.000000	-1.000000	-1.000000	326995.000000	1774904588.495262
21758.445000	2254.590000	26309.475000	30213.540000	14287.680000	-52536.330000	-45688.815000	-18333.135000	-0.516065	14.094084	30.965956	26.060703	24.765812	24.130755	16.207538	7.901774	-1.693860	3.616620	-2.319520	0.837461	-0.202941	0.491027	-1.000000	-1.000000	-1.000000	-1.000000	-1.000000	-1.000000	-1.000000	84.344828	0.000000	-1.000000	-1.000000	326996.000000	1774904588.495274
21721.995000	2228.085000	26308.755000	30176.370000	14241.555000	-52582.410000	-45713.520000	-18378.900000	-4.162603	2.235200	6.639406	8.865442	9.762137	9.449550	3.033034	1.803346	-1.693860	3.616620	-2.319520	0.837461	-0.202941	0.491027	-1.000000	-1.000000	-1.000000	-1.000000	-1.000000	-1.000000	-1.000000	84.344828	0.000000	-1.000000	-1.000000	326997.000000	1774904588.499455
21748.410000	2245.005000	26345.880000	30201.030000	14263.155000	-52561.845000	-45696.465000	-18385.110000	-4.164050	-3.411454	-11.063278	-3.664891	-1.368922	-1.126125	-3.324491	-3.319629	-1.693860	3.616620	-2.319520	0.837461	-0.202941	0.491027	-1.000000	-1.000000	-1.000000	-1.000000	-1.000000	-1.000000	-1.000000	84.344828	0.000000	-1.000000	-1.000000	326998.000000	1774904588.499466
21774.735000	2246.715000	26320.410000	30202.020000	14282.460000	-52539.570000	-45688.950000	-18344.385000	-5.307232	-7.690941	-19.862422	-13.242093	-10.996829	-10.181963	-7.990282	-11.175593	-1.693860	3.616620	-2.319520	0.837461	-0.202941	0.491027	-1.000000	-1.000000	-1.000000	-1.000000	-1.000000	-1.000000	-1.000000	84.344828	0.000000	-1.000000	-1.000000	326999.000000	1774904588.505899
21807.585000	2242.260000	26300.205000	30189.690000	14266.710000	-52555.455000	-45696.420000	-18283.680000	-6.345996	-13.208453	-23.765552	-21.352230	-19.407138	-18.090256	-13.854215	-17.228874	-1.693860	3.616620	-2.319520	0.837461	-0.202941	0.491027	-1.000000	-1.000000	-1.000000	-1.000000	-1.000000	-1.000000	-1.000000	84.344828	0.000000	-1.000000	-1.000000	327000.000000	1774904588.505910
21806.910000	2245.905000	26326.755000	30198.240000	14260.590000	-52562.745000	-45697.995000	-18271.845000	-2.720101	-16.620867	-25.013566	-25.435898	-23.503677	-21.981093	-19.030866	-13.467718	-2.731540	4.883200	-1.907500	0.836057	-0.200683	0.489196	-1.000000	-1.000000	-1.000000	-1.000000	-1.000000	-1.000000	-1.000000	84.344828	0.000000	-1.000000	-1.000000	327001.000000	1774904588.514894
21846.060000	2301.210000	26385.975000	30237.210000	14298.885000	-52525.260000	-45677.115000	-18260.820000	5.900610	-12.995205	-20.727794	-21.473328	-20.479198	-19.360873	-19.815942	0.123644	-2.731540	4.883200	-1.907500	0.836057	-0.200683	0.489196	-1.000000	-1.000000	-1.000000	-1.000000	-1.000000	-1.000000	-1.000000	84.344828	0.000000	-1.000000	-1.000000	327002.000000	1774904588.514904
21883.635000	2347.335000	26411.400000	30275.865000	14337.810000	-52488.270000	-45645.570000	-18244.305000	14.100309	-2.091857	-8.469183	-9.385894	-10.778543	-10.614936	-14.218311	13.395450	-2.731540	4.883200	-1.907500	0.836057	-0.200683	0.489196	-1.000000	-1.000000	-1.000000	-1.000000	-1.000000	-1.000000	-1.000000	84.344828	0.000000	-1.000000	-1.000000	327003.000000	1774904588.514914
21859.650000	2308.725000	26361.000000	30242.610000	14303.205000	-52520.580000	-45652.815000	-18238.095000	16.157634	10.297401	7.952510	5.591709	1.728158	0.896652	-2.853478	17.229707	-2.731540	4.883200	-1.907500	0.836057	-0.200683	0.489196	-1.000000	-1.000000	-1.000000	-1.000000	-1.000000	-1.000000	-1.000000	84.344828	0.000000	-1.000000	-1.000000	327004.000000	1774904588.514919
21799.440000	2250.000000	26332.335000	30200.715000	14252.895000	-52570.080000	-45684.540000	-18271.800000	10.180679	16.618856	20.301037	16.527057	11.705914	10.354021	10.521173	11.791320	-2.731540	4.883200	-1.907500	0.836057	-0.200683	0.489196	-1.000000	-1.000000	-1.000000	-1.000000	-1.000000	-1.000000	-1.000000	84.344828	0.000000	-1.000000	-1.000000	327005.000000	1774904588.517904
21777.480000	2244.060000	26339.535000	30204.360000	14257.575000	-52566.255000	-45685.350000	-18318.510000	-2.452949	12.739286	22.030755	18.905040	15.220399	13.975943	19.421792	1.633106	-2.731540	4.883200	-1.907500	0.836057	-0.200683	0.489196	-1.000000	-1.000000	-1.000000	-1.000000	-1.000000	-1.000000	-1.000000	84.344828	0.000000	-1.000000	-1.000000	327006.000000	1774904588.517914
21782.070000	2254.185000	26340.660000	30213.855000	14276.970000	-52547.310000	-45675.315000	-18321.570000	-17.951642	0.564243	12.509769	12.428016	11.633319	10.933916	18.730589	-10.392892	-2.731540	4.883200	-1.907500	0.836057	-0.200683	0.489196	-1.000000	-1.000000	-1.000000	-1.000000	-1.000000	-1.000000	-1.000000	84.344828	0.000000	-1.000000	-1.000000	327007.000000	1774904588.520036
21781.575000	2257.470000	26338.860000	30214.710000	14278.185000	-52544.655000	-45684.495000	-18328.635000	-29.850719	-12.759276	-2.352624	0.907298	3.569868	3.526778	8.810796	-21.750230	-2.731540	4.883200	-1.907500	0.836057	-0.200683	0.489196	-1.000000	-1.000000	-1.000000	-1.000000	-1.000000	-1.000000	-1.000000	84.344828	0.000000	-1.000000	-1.000000	327008.000000	1774904588.520046
21782.565000	2257.380000	26336.745000	30214.260000	14278.860000	-52544.070000	-45696.510000	-18320.805000	-31.376964	-19.160124	-13.847790	-9.292524	-4.150547	-3.683042	-4.729000	-28.016822	-2.731540	4.883200	-1.907500	0.836057	-0.200683	0.489196	-1.000000	-1.000000	-1.000000	-1.000000	-1.000000	-1.000000	-1.000000	84.344828	0.000000	-1.000000	-1.000000	327009.000000	1774904588.523085
21784.140000	2257.245000	26332.920000	30210.030000	14275.890000	-52546.410000	-45688.140000	-18320.040000	-20.204284	-15.423308	-17.282841	-13.396690	-7.569122	-6.836880	-14.897736	-24.551508	-2.731540	4.883200	-1.907500	0.836057	-0.200683	0.489196	-1.000000	-1.000000	-1.000000	-1.000000	-1.000000	-1.000000	-1.000000	84.344828	0.000000	-1.000000	-1.000000	327010.000000	1774904588.523094
21796.155000	2268.360000	26342.100000	30216.105000	14278.635000	-52547.130000	-45687.510000	-18309.645000	-1.318901	-5.767138	-14.500330	-11.849351	-7.191500	-6.465099	-17.697551	-10.855917	-4.181240	6.439720	-1.007160	0.834898	-0.198242	0.489196	-1.000000	-1.000000	-1.000000	-1.000000	-1.000000	-1.000000	-1.000000	84.344828	0.000000	-1.000000	-1.000000	327011.000000	1774904588.528864
21793.815000	2268.090000	26343.945000	30221.370000	14285.430000	-52537.770000	-45680.085000	-18301.590000	16.040408	2.792374	-8.705959	-7.845689	-5.952410	-5.476209	-13.392839	7.583702	-4.181240	6.439720	-1.007160	0.834898	-0.198242	0.489196	-1.000000	-1.000000	-1.000000	-1.000000	-1.000000	-1.000000	-1.000000	84.344828	0.000000	-1.000000	-1.000000	327012.000000	1774904588.528875
21783.645000	2265.210000	26344.935000	30226.005000	14291.820000	-52528.455000	-45671.580000	-18306.315000	25.887766	8.136816	0.152577	-1.929046	-3.398770	-3.256884	-3.947571	23.384438	-4.181240	6.439720	-1.007160	0.834898	-0.198242	0.489196	-1.000000	-1.000000	-1.000000	-1.000000	-1.000000	-1.000000	-1.000000	84.344828	0.000000	-1.000000	-1.000000	327013.000000	1774904588.531156
21804.975000	2285.145000	26364.060000	30244.365000	14308.245000	-52510.770000	-45659.610000	-18290.700000	28.575411	13.130337	12.061630	7.269217	3.442205	3.380286	8.326117	32.052765	-4.181240	6.439720	-1.007160	0.834898	-0.198242	0.489196	-1.000000	-1.000000	-1.000000	-1.000000	-1.000000	-1.000000	-1.000000	84.344828	0.000000	-1.000000	-1.000000	327014.000000	1774904588.531168
21871.755000	2339.370000	26413.875000	30293.145000	14354.505000	-52467.795000	-45639.450000	-18246.690000	26.902252	18.779252	22.692762	17.679562	13.345394	13.250353	19.041183	32.959089	-4.181240	6.439720	-1.007160	0.834898	-0.198242	0.489196	-1.000000	-1.000000	-1.000000	-1.000000	-1.000000	-1.000000	-1.000000	84.344828	0.000000	-1.000000	-1.000000	327015.000000	1774904588.535081
21879.405000	2348.730000	26421.120000	30300.030000	14362.020000	-52462.935000	-45647.460000	-18250.740000	21.779933	21.544332	26.269253	23.413638	19.805815	19.621050	22.358656	26.635008	-4.181240	6.439720	-1.007160	0.834898	-0.198242	0.489196	-1.000000	-1.000000	-1.000000	-1.000000	-1.000000	-1.000000	-1.000000	84.344828	0.000000	-1.000000	-1.000000	327016.000000	1774904588.535092
21828.555000	2300.355000	26363.880000	30243.420000	14308.470000	-52516.755000	-45694.215000	-18281.655000	11.103003	16.371636	19.360676	18.942269	16.414144	15.878350	15.002102	12.394758	-4.181240	6.439720	-1.007160	0.834898	-0.198242	0.489196	-1.000000	-1.000000	-1.000000	-1.000000	-1.000000	-1.000000	-1.000000	84.344828	0.000000	-1.000000	-1.000000	327017.000000	1774904588.540691
21794.490000	2257.920000	26312.535000	30197.970000	14263.380000	-52560.360000	-45718.605000	-18290.655000	-6.759625	1.060974	1.721557	2.862952	1.698193	0.758943	-0.921870	-8.487051	-4.181240	6.439720	-1.007160	0.834898	-0.198242	0.489196	-1.000000	-1.000000	-1.000000	-1.000000	-1.000000	-1.000000	-1.000000	84.344828	0.000000	-1.000000	-1.000000	327018.000000	1774904588.540701
21857.490000	2333.925000	26394.930000	30277.620000	14337.720000	-52488.765000	-45653.220000	-18224.685000	-26.573133	-18.879753	-20.194037	-18.020506	-17.549771	-18.510970	-17.353101	-28.051892	-4.181240	6.439720	-1.007160	0.834898	-0.198242	0.489196	-1.000000	-1.000000	-1.000000	-1.000000	-1.000000	-1.000000	-1.000000	84.344828	0.000000	-1.000000	-1.000000	327019.000000	1774904588.546993
21820.005000	2329.380000	26406.585000	30280.500000	14338.530000	-52487.910000	-45637.695000	-18246.825000	-37.722247	-31.580285	-33.165364	-30.493678	-28.755234	-29.216077	-23.888728	-35.850476	-4.181240	6.439720	-1.007160	0.834898	-0.198242	0.489196	-1.000000	-1.000000	-1.000000	-1.000000	-1.000000	-1.000000	-1.000000	84.344828	0.000000	-1.000000	-1.000000	327020.000000	1774904588.547004
21736.035000	2243.250000	26328.420000	30203.055000	14266.485000	-52551.720000	-45660.330000	-18347.085000	-35.284331	-30.291334	-29.343636	-27.592228	-25.472627	-25.100099	-16.824997	-30.255547	-3.128300	7.248500	-0.732480	0.837705	-0.200134	0.491027	-1.000000	-1.000000	-1.000000	-1.000000	-1.000000	-1.000000	-1.000000	84.344828	0.000000	-1.000000	-1.000000	327021.000000	1774904588.547055
21748.095000	2228.445000	26306.505000	30186.585000	14254.245000	-52560.990000	-45674.325000	-18359.955000	-23.056154	-19.189451	-14.572219	-14.979217	-13.056392	-11.786446	-2.860868	-19.168822	-3.128300	7.248500	-0.732480	0.837705	-0.200134	0.491027	-1.000000	-1.000000	-1.000000	-1.000000	-1.000000	-1.000000	-1.000000	84.344828	0.000000	-1.000000	-1.000000	327022.000000	1774904588.547066
21842.685000	2312.640000	26395.245000	30266.820000	14330.565000	-52489.755000	-45636.705000	-18291.375000	-5.346729	-4.826750	1.070661	-0.969332	0.744904	2.564730	8.657436	-7.791109	-3.128300	7.248500	-0.732480	0.837705	-0.200134	0.491027	-1.000000	-1.000000	-1.000000	-1.000000	-1.000000	-1.000000	-1.000000	84.344828	0.000000	-1.000000	-1.000000	327023.000000	1774904588.560297
21872.970000	2340.090000	26417.700000	30287.385000	14349.870000	-52472.880000	-45631.170000	-18288.990000	14.890620	9.966239	13.355020	11.259410	12.657585	14.197502	13.392018	4.858939	-3.128300	7.248500	-0.732480	0.837705	-0.200134	0.491027	-1.000000	-1.000000	-1.000000	-1.000000	-1.000000	-1.000000	-1.000000	84.344828	0.000000	-1.000000	-1.000000	327024.000000	1774904588.560379
21799.260000	2273.445000	26344.530000	30218.715000	14282.055000	-52537.995000	-45677.655000	-18352.080000	30.642207	21.543757	20.411017	19.347232	19.873906	20.336843	11.502551	16.987123	-3.128300	7.248500	-0.732480	0.837705	-0.200134	0.491027	-1.000000	-1.000000	-1.000000	-1.000000	-1.000000	-1.000000	-1.000000	84.344828	0.000000	-1.000000	-1.000000	327025.000000	1774904588.560478
21732.255000	2194.695000	26262.495000	30144.600000	14207.310000	-52610.715000	-45716.580000	-18356.670000	32.712457	23.634241	18.625188	19.058729	18.275442	17.565234	4.812796	22.553499	-3.128300	7.248500	-0.732480	0.837705	-0.200134	0.491027	-1.000000	-1.000000	-1.000000	-1.000000	-1.000000	-1.000000	-1.000000	84.344828	0.000000	-1.000000	-1.000000	327026.000000	1774904588.560534
21719.700000	2176.110000	26250.525000	30142.395000	14205.645000	-52612.380000	-45704.430000	-18366.840000	18.715411	13.529012	7.132850	9.298650	7.461257	6.166883	-3.640616	18.817040	-3.128300	7.248500	-0.732480	0.837705	-0.200134	0.491027	-1.000000	-1.000000	-1.000000	-1.000000	-1.000000	-1.000000	-1.000000	84.344828	0.000000	-1.000000	-1.000000	327027.000000	1774904588.560597
21769.515000	2226.105000	26302.995000	30185.730000	14249.160000	-52568.145000	-45662.220000	-18326.295000	-2.900829	-3.253814	-8.158477	-4.531104	-6.488771	-7.607969	-9.888683	8.919226	-3.128300	7.248500	-0.732480	0.837705	-0.200134	0.491027	-1.000000	-1.000000	-1.000000	-1.000000	-1.000000	-1.000000	-1.000000	84.344828	0.000000	-1.000000	-1.000000	327028.000000	1774904588.560649
21801.105000	2274.795000	26351.460000	30230.010000	14291.370000	-52528.680000	-45664.965000	-18303.975000	-17.160156	-14.412361	-16.253187	-12.535932	-13.625780	-14.172216	-10.457385	0.280149	-3.128300	7.248500	-0.732480	0.837705	-0.200134	0.491027	-1.000000	-1.000000	-1.000000	-1.000000	-1.000000	-1.000000	-1.000000	84.344828	0.000000	-1.000000	-1.000000	327029.000000	1774904588.576020
21818.160000	2303.010000	26376.705000	30252.870000	14311.170000	-52510.230000	-45689.130000	-18294.255000	-13.257463	-9.049677	-8.296063	-6.611318	-6.653534	-6.957005	-4.855392	0.402783	-3.128300	7.248500	-0.732480	0.837705	-0.200134	0.491027	-1.000000	-1.000000	-1.000000	-1.000000	-1.000000	-1.000000	-1.000000	84.344828	0.000000	-1.000000	-1.000000	327030.000000	1774904588.576032
21806.010000	2290.455000	26359.470000	30237.930000	14298.210000	-52519.590000	-45703.665000	-18300.510000	3.937934	9.828566	11.525139	9.912428	10.274014	9.592816	2.870489	8.129345	-0.732480	7.263760	-0.213640	0.838255	-0.204711	0.492797	-1.000000	-1.000000	-1.000000	-1.000000	-1.000000	-1.000000	-1.000000	84.344828	0.000000	-1.000000	-1.000000	327031.000000	1774904588.576048
21754.350000	2247.120000	26310.510000	30191.535000	14253.255000	-52563.825000	-45709.920000	-18329.355000	15.668613	23.820150	24.979231	20.940452	21.203869	20.257032	6.793137	12.123488	-0.732480	7.263760	-0.213640	0.838255	-0.204711	0.492797	-1.000000	-1.000000	-1.000000	-1.000000	-1.000000	-1.000000	-1.000000	84.344828	0.000000	-1.000000	-1.000000	327032.000000	1774904588.576054
21735.855000	2231.505000	26285.670000	30168.315000	14228.685000	-52588.305000	-45718.065000	-18333.765000	8.345048	17.468180	17.556535	13.494079	13.764419	13.436514	4.744069	3.847565	-0.732480	7.263760	-0.213640	0.838255	-0.204711	0.492797	-1.000000	-1.000000	-1.000000	-1.000000	-1.000000	-1.000000	-1.000000	84.344828	0.000000	-1.000000	-1.000000	327033.000000	1774904588.576060
21776.220000	2263.995000	26311.860000	30196.170000	14257.395000	-52561.395000	-45713.070000	-18304.695000	-10.212354	-3.460826	-3.985786	-6.071538	-5.572526	-4.726045	1.008256	-11.030805	-0.732480	7.263760	-0.213640	0.838255	-0.204711	0.492797	-1.000000	-1.000000	-1.000000	-1.000000	-1.000000	-1.000000	-1.000000	84.344828	0.000000	-1.000000	-1.000000	327034.000000	1774904588.576065
21795.435000	2253.690000	26334.495000	30214.215000	14276.880000	-52542.540000	-45693.765000	-18285.975000	-19.641549	-19.018272	-18.803066	-18.707791	-18.000472	-16.428981	1.548873	-19.480631	-0.732480	7.263760	-0.213640	0.838255	-0.204711	0.492797	-1.000000	-1.000000	-1.000000	-1.000000	-1.000000	-1.000000	-1.000000	84.344828	0.000000	-1.000000	-1.000000	327035.000000	1774904588.576071
21770.730000	2226.915000	26319.150000	30197.610000	14259.285000	-52560.495000	-45686.340000	-18301.050000	-11.527211	-18.956757	-16.089832	-15.140848	-14.384979	-13.058295	6.261911	-16.436527	-0.732480	7.263760	-0.213640	0.838255	-0.204711	0.492797	-1.000000	-1.000000	-1.000000	-1.000000	-1.000000	-1.000000	-1.000000	84.344828	0.000000	-1.000000	-1.000000	327036.000000	1774904588.576076
21766.770000	2230.560000	26302.455000	30186.630000	14249.070000	-52567.920000	-45685.395000	-18316.350000	3.247876	-10.588230	-4.695076	-4.046705	-3.423240	-2.938542	8.851363	-8.193222	-0.732480	7.263760	-0.213640	0.838255	-0.204711	0.492797	-1.000000	-1.000000	-1.000000	-1.000000	-1.000000	-1.000000	-1.000000	84.344828	0.000000	-1.000000	-1.000000	327037.000000	1774904588.591558
21792.240000	2264.760000	26320.635000	30201.480000	14261.760000	-52554.735000	-45679.365000	-18304.605000	11.324270	-3.825670	1.933892	2.438631	2.756144	2.522060	5.336473	-2.158880	-0.732480	7.263760	-0.213640	0.838255	-0.204711	0.492797	-1.000000	-1.000000	-1.000000	-1.000000	-1.000000	-1.000000	-1.000000	84.344828	0.000000	-1.000000	-1.000000	327038.000000	1774904588.591570
21806.865000	2293.695000	26352.405000	30223.890000	14282.415000	-52534.935000	-45682.425000	-18306.270000	10.307478	0.188199	1.293023	2.170346	2.014981	1.517050	-1.334298	0.727047	-0.732480	7.263760	-0.213640	0.838255	-0.204711	0.492797	-1.000000	-1.000000	-1.000000	-1.000000	-1.000000	-1.000000	-1.000000	84.344828	0.000000	-1.000000	-1.000000	327039.000000	1774904588.591583
21798.045000	2277.630000	26357.400000	30230.145000	14287.725000	-52531.245000	-45686.520000	-18308.295000	4.667446	4.028099	-0.696229	0.261962	-0.471165	-0.974410	-6.373864	2.553804	-0.732480	7.263760	-0.213640	0.838255	-0.204711	0.492797	-1.000000	-1.000000	-1.000000	-1.000000	-1.000000	-1.000000	-1.000000	84.344828	0.000000	-1.000000	-1.000000	327040.000000	1774904588.591589
21823.020000	2302.245000	26377.650000	30249.135000	14306.670000	-52512.390000	-45664.470000	-18273.420000	-0.914525	7.698794	0.747971	1.111427	-0.087983	-0.595375	-7.833965	4.664163	-1.571780	6.027700	-0.457800	0.835447	-0.206787	0.493041	-1.000000	-1.000000	-1.000000	-1.000000	-1.000000	-1.000000	-1.000000	84.344828	0.000000	-1.000000	-1.000000	327041.000000	1774904588.591595
21869.685000	2352.195000	26415.495000	30295.755000	14361.255000	-52455.330000	-45613.890000	-18212.490000	-2.362707	10.695878	6.332903	5.982859	4.825508	4.360521	-4.941400	8.631882	-1.571780	6.027700	-0.457800	0.835447	-0.206787	0.493041	-1.000000	-1.000000	-1.000000	-1.000000	-1.000000	-1.000000	-1.000000	84.344828	0.000000	-1.000000	-1.000000	327042.000000	1774904588.591600
21856.995000	2340.720000	26369.955000	30290.670000	14363.325000	-52453.125000	-45615.375000	-18228.285000	1.213865	12.973096	12.538953	12.613301	12.370923	12.187490	2.034146	13.865695	-1.571780	6.027700	-0.457800	0.835447	-0.206787	0.493041	-1.000000	-1.000000	-1.000000	-1.000000	-1.000000	-1.000000	-1.000000	84.344828	0.000000	-1.000000	-1.000000	327043.000000	1774904588.591605
21804.480000	2286.990000	26300.430000	30234.510000	14306.715000	-52510.005000	-45674.280000	-18286.155000	4.361313	11.651717	11.663510	14.407873	15.701019	16.006963	7.688487	14.270404	-1.571780	6.027700	-0.457800	0.835447	-0.206787	0.493041	-1.000000	-1.000000	-1.000000	-1.000000	-1.000000	-1.000000	-1.000000	84.344828	0.000000	-1.000000	-1.000000	327044.000000	1774904588.591610
21742.605000	2228.175000	26271.900000	30173.355000	14239.080000	-52578.765000	-45720.000000	-18349.470000	-0.040938	2.349102	-1.161349	4.834778	7.183717	7.859795	3.877287	3.711233	-1.571780	6.027700	-0.457800	0.835447	-0.206787	0.493041	-1.000000	-1.000000	-1.000000	-1.000000	-1.000000	-1.000000	-1.000000	84.344828	0.000000	-1.000000	-1.000000	327045.000000	1774904588.606220
21753.405000	2233.170000	26321.670000	30193.380000	14252.085000	-52564.680000	-45696.690000	-18353.970000	-11.972218	-14.110248	-19.134390	-13.866927	-12.072419	-11.460812	-9.464855	-14.885457	-1.571780	6.027700	-0.457800	0.835447	-0.206787	0.493041	-1.000000	-1.000000	-1.000000	-1.000000	-1.000000	-1.000000	-1.000000	84.344828	0.000000	-1.000000	-1.000000	327046.000000	1774904588.606233
21808.350000	2270.970000	26370.135000	30228.120000	14281.335000	-52535.925000	-45680.445000	-18299.385000	-22.091783	-28.664924	-27.712295	-29.261924	-29.653860	-29.519401	-21.079551	-28.943847	-1.571780	6.027700	-0.457800	0.835447	-0.206787	0.493041	-1.000000	-1.000000	-1.000000	-1.000000	-1.000000	-1.000000	-1.000000	84.344828	0.000000	-1.000000	-1.000000	327047.000000	1774904588.606248
21831.345000	2287.305000	26393.760000	30253.095000	14299.605000	-52519.140000	-45673.605000	-18279.990000	-19.921364	-30.403142	-18.904531	-29.324302	-32.309822	-32.740035	-19.777333	-26.411153	-1.571780	6.027700	-0.457800	0.835447	-0.206787	0.493041	-1.000000	-1.000000	-1.000000	-1.000000	-1.000000	-1.000000	-1.000000	84.344828	0.000000	-1.000000	-1.000000	327048.000000	1774904588.606253
21820.860000	2291.490000	26387.235000	30255.255000	14306.445000	-52512.390000	-45661.455000	-18281.115000	-4.518637	-16.256541	1.488168	-13.156534	-17.538350	-18.281078	-5.339624	-7.436850	-1.571780	6.027700	-0.457800	0.835447	-0.206787	0.493041	-1.000000	-1.000000	-1.000000	-1.000000	-1.000000	-1.000000	-1.000000	84.344828	0.000000	-1.000000	-1.000000	327049.000000	1774904588.606259
21804.120000	2284.560000	26372.025000	30250.485000	14305.545000	-52511.310000	-45663.345000	-18293.040000	13.877234	5.847712	19.735522	8.994918	5.455431	4.824972	12.589333	14.876944	-1.571780	6.027700	-0.457800	0.835447	-0.206787	0.493041	-1.000000	-1.000000	-1.000000	-1.000000	-1.000000	-1.000000	-1.000000	84.344828	0.000000	-1.000000	-1.000000	327050.000000	1774904588.606265
21791.610000	2274.390000	26347.905000	30239.280000	14300.685000	-52514.865000	-45671.760000	-18292.005000	22.755191	22.768747	24.786091	23.866097	23.140120	22.989414	22.664917	25.743867	-3.509800	4.593260	-0.595140	0.834898	-0.204650	0.494811	-1.000000	-1.000000	-1.000000	-1.000000	-1.000000	-1.000000	-1.000000	84.344828	0.000000	-1.000000	-1.000000	327051.000000	1774904588.622777
21791.835000	2277.360000	26325.495000	30222.900000	14293.755000	-52523.190000	-45680.220000	-18294.030000	18.194110	26.744640	15.867011	24.600200	27.233521	27.651401	20.066580	20.943586	-3.509800	4.593260	-0.595140	0.834898	-0.204650	0.494811	-1.000000	-1.000000	-1.000000	-1.000000	-1.000000	-1.000000	-1.000000	84.344828	0.000000	-1.000000	-1.000000	327052.000000	1774904588.622793
21768.210000	2251.710000	26310.060000	30197.745000	14260.860000	-52554.420000	-45678.600000	-18339.165000	7.008597	20.348783	1.691740	14.603360	19.568124	20.330000	9.495121	8.000373	-3.509800	4.593260	-0.595140	0.834898	-0.204650	0.494811	-1.000000	-1.000000	-1.000000	-1.000000	-1.000000	-1.000000	-1.000000	84.344828	0.000000	-1.000000	-1.000000	327053.000000	1774904588.622806
21752.820000	2240.010000	26326.935000	30199.545000	14255.280000	-52558.650000	-45684.405000	-18359.505000	-1.762128	10.420726	-8.179462	2.617154	7.766205	8.541171	-0.512266	-3.380398	-3.509800	4.593260	-0.595140	0.834898	-0.204650	0.494811	-1.000000	-1.000000	-1.000000	-1.000000	-1.000000	-1.000000	-1.000000	84.344828	0.000000	-1.000000	-1.000000	327054.000000	1774904588.622811
21789.945000	2262.960000	26351.640000	30216.780000	14268.060000	-52546.095000	-45679.770000	-18292.365000	-4.855050	1.059577	-10.522609	-5.149398	-2.124600	-1.597919	-5.726981	-8.108269	-3.509800	4.593260	-0.595140	0.834898	-0.204650	0.494811	-1.000000	-1.000000	-1.000000	-1.000000	-1.000000	-1.000000	-1.000000	84.344828	0.000000	-1.000000	-1.000000	327055.000000	1774904588.622817
21896.460000	2366.055000	26450.910000	30326.220000	14376.105000	-52439.850000	-45604.755000	-18171.630000	-3.153937	-5.351851	-6.965966	-6.683386	-6.899717	-6.802847	-6.225284	-4.450334	-3.509800	4.593260	-0.595140	0.834898	-0.204650	0.494811	-1.000000	-1.000000	-1.000000	-1.000000	-1.000000	-1.000000	-1.000000	84.344828	0.000000	-1.000000	-1.000000	327056.000000	1774904588.622822
21919.995000	2390.895000	26468.910000	30348.945000	14404.770000	-52409.340000	-45597.015000	-18178.965000	2.552421	-5.786479	0.684588	-1.715170	-4.431332	-4.794823	-2.420095	5.948704	-3.509800	4.593260	-0.595140	0.834898	-0.204650	0.494811	-1.000000	-1.000000	-1.000000	-1.000000	-1.000000	-1.000000	-1.000000	84.344828	0.000000	-1.000000	-1.000000	327057.000000	1774904588.622828
21817.260000	2293.830000	26364.195000	30246.480000	14305.185000	-52507.620000	-45672.120000	-18295.020000	8.160218	-2.056842	7.938425	5.045393	1.754907	1.157923	2.100964	13.755833	-3.509800	4.593260	-0.595140	0.834898	-0.204650	0.494811	-1.000000	-1.000000	-1.000000	-1.000000	-1.000000	-1.000000	-1.000000	84.344828	0.000000	-1.000000	-1.000000	327058.000000	1774904588.622833
21701.925000	2188.845000	26255.025000	30144.105000	14205.060000	-52608.555000	-45748.080000	-18397.980000	4.181662	-3.690010	5.711486	2.935671	0.710103	0.183584	-0.407525	6.114753	-3.509800	4.593260	-0.595140	0.834898	-0.204650	0.494811	-1.000000	-1.000000	-1.000000	-1.000000	-1.000000	-1.000000	-1.000000	84.344828	0.000000	-1.000000	-1.000000	327059.000000	1774904588.625412
21720.240000	2207.070000	26275.005000	30162.330000	14221.575000	-52593.525000	-45731.295000	-18370.395000	-12.635706	-15.516275	-8.417269	-11.773686	-12.637851	-13.014319	-11.771926	-17.342892	-3.509800	4.593260	-0.595140	0.834898	-0.204650	0.494811	-1.000000	-1.000000	-1.000000	-1.000000	-1.000000	-1.000000	-1.000000	84.344828	0.000000	-1.000000	-1.000000	327060.000000	1774904588.625423
21771.630000	2250.630000	26326.620000	30211.605000	14266.620000	-52550.370000	-45698.175000	-18329.715000	-29.215892	-26.885024	-21.467918	-26.185970	-26.565832	-26.921941	-21.636022	-37.957861	-4.501700	3.204600	-1.434440	0.834532	-0.203247	0.496459	-1.000000	-1.000000	-1.000000	-1.000000	-1.000000	-1.000000	-1.000000	84.344828	0.000000	-1.000000	-1.000000	327061.000000	1774904588.627307
21783.465000	2266.425000	26353.935000	30230.325000	14282.955000	-52532.730000	-45684.765000	-18333.090000	-27.758038	-22.446613	-17.934738	-23.344648	-24.059804	-24.496177	-17.878472	-35.186156	-4.501700	3.204600	-1.434440	0.834532	-0.203247	0.496459	-1.000000	-1.000000	-1.000000	-1.000000	-1.000000	-1.000000	-1.000000	84.344828	0.000000	-1.000000	-1.000000	327062.000000	1774904588.627316
21759.705000	2247.165000	26331.255000	30212.370000	14265.945000	-52550.505000	-45692.595000	-18336.645000	-6.220650	-0.935286	1.386762	-2.135972	-2.892553	-3.337739	-0.444168	-8.279293	-4.501700	3.204600	-1.434440	0.834532	-0.203247	0.496459	-1.000000	-1.000000	-1.000000	-1.000000	-1.000000	-1.000000	-1.000000	84.344828	0.000000	-1.000000	-1.000000	327063.000000	1774904588.634550
21759.165000	2243.070000	26328.780000	30210.570000	14265.135000	-52551.495000	-45697.995000	-18337.815000	18.584955	22.140835	19.837045	20.936911	21.238621	20.995693	18.463449	22.612220	-4.501700	3.204600	-1.434440	0.834532	-0.203247	0.496459	-1.000000	-1.000000	-1.000000	-1.000000	-1.000000	-1.000000	-1.000000	84.344828	0.000000	-1.000000	-1.000000	327064.000000	1774904588.634564
21797.235000	2279.115000	26362.845000	30240.585000	14291.325000	-52527.555000	-45678.645000	-18331.965000	28.190483	29.884320	22.516168	28.401403	30.365983	30.517704	25.822415	35.397892	-4.501700	3.204600	-1.434440	0.834532	-0.203247	0.496459	-1.000000	-1.000000	-1.000000	-1.000000	-1.000000	-1.000000	-1.000000	84.344828	0.000000	-1.000000	-1.000000	327065.000000	1774904588.637010
21845.385000	2327.535000	26404.380000	30283.290000	14333.535000	-52485.705000	-45625.320000	-18269.730000	20.548446	20.643704	10.966000	18.455372	21.276549	21.795503	19.596748	26.555433	-4.501700	3.204600	-1.434440	0.834532	-0.203247	0.496459	-1.000000	-1.000000	-1.000000	-1.000000	-1.000000	-1.000000	-1.000000	84.344828	0.000000	-1.000000	-1.000000	327066.000000	1774904588.637021
21820.230000	2313.270000	26384.895000	30267.180000	14320.575000	-52495.380000	-45634.905000	-18283.410000	9.120215	7.701719	-0.147246	4.757835	6.744635	7.404807	9.353191	11.890572	-4.501700	3.204600	-1.434440	0.834532	-0.203247	0.496459	-1.000000	-1.000000	-1.000000	-1.000000	-1.000000	-1.000000	-1.000000	84.344828	0.000000	-1.000000	-1.000000	327067.000000	1774904588.639141
21791.430000	2272.905000	26338.950000	30220.245000	14274.495000	-52540.380000	-45679.365000	-18293.940000	4.964701	2.223423	-0.780021	-0.830528	-0.824120	-0.154795	3.333712	5.625300	-4.501700	3.204600	-1.434440	0.834532	-0.203247	0.496459	-1.000000	-1.000000	-1.000000	-1.000000	-1.000000	-1.000000	-1.000000	84.344828	0.000000	-1.000000	-1.000000	327068.000000	1774904588.639152
21739.140000	2226.105000	26293.185000	30172.095000	14230.485000	-52581.960000	-45711.540000	-18297.135000	4.837125	1.339720	3.719316	-0.908420	-2.656191	-1.889434	-0.698673	5.875879	-4.501700	3.204600	-1.434440	0.834532	-0.203247	0.496459	-1.000000	-1.000000	-1.000000	-1.000000	-1.000000	-1.000000	-1.000000	84.344828	0.000000	-1.000000	-1.000000	327069.000000	1774904588.643518
21770.505000	2259.405000	26328.870000	30205.035000	14262.390000	-52550.685000	-45701.595000	-18282.870000	-0.456324	-3.517273	2.317418	-4.258657	-6.397922	-5.460853	-8.193602	3.342481	-4.501700	3.204600	-1.434440	0.834532	-0.203247	0.496459	-1.000000	-1.000000	-1.000000	-1.000000	-1.000000	-1.000000	-1.000000	84.344828	0.000000	-1.000000	-1.000000	327070.000000	1774904588.643532
21790.665000	2275.695000	26340.930000	30213.765000	14266.620000	-52549.155000	-45701.595000	-18295.605000	-10.915043	-12.224179	-6.433392	-11.374558	-12.439843	-11.610471	-17.540903	-4.968207	-4.562740	1.052940	-2.517900	0.830930	-0.205444	0.496581	-1.000000	-1.000000	-1.000000	-1.000000	-1.000000	-1.000000	-1.000000	84.344828	0.000000	-1.000000	-1.000000	327071.000000	1774904588.647350
21773.565000	2245.995000	26316.495000	30208.635000	14264.595000	-52547.130000	-45681.840000	-18331.380000	-18.220590	-17.623579	-15.004740	-15.516078	-15.009009	-14.807979	-21.619456	-15.632947	-4.562740	1.052940	-2.517900	0.830930	-0.205444	0.496581	-1.000000	-1.000000	-1.000000	-1.000000	-1.000000	-1.000000	-1.000000	84.344828	0.000000	-1.000000	-1.000000	327072.000000	1774904588.647361
21757.005000	2215.980000	26292.105000	30196.935000	14254.650000	-52556.535000	-45686.520000	-18326.790000	-18.480382	-17.221879	-18.306615	-13.533744	-11.962946	-12.551465	-16.411184	-24.799411	-4.562740	1.052940	-2.517900	0.830930	-0.205444	0.496581	-1.000000	-1.000000	-1.000000	-1.000000	-1.000000	-1.000000	-1.000000	84.344828	0.000000	-1.000000	-1.000000	327073.000000	1774904588.652995
21757.455000	2233.620000	26306.505000	30201.255000	14256.855000	-52555.140000	-45692.415000	-18330.795000	-15.016079	-14.328522	-16.932310	-8.546606	-6.807320	-7.797084	-5.479349	-28.783362	-4.562740	1.052940	-2.517900	0.830930	-0.205444	0.496581	-1.000000	-1.000000	-1.000000	-1.000000	-1.000000	-1.000000	-1.000000	84.344828	0.000000	-1.000000	-1.000000	327074.000000	1774904588.653005
21748.815000	2244.240000	26318.160000	30209.895000	14265.495000	-52546.770000	-45688.995000	-18326.250000	-10.490030	-9.985746	-11.271956	-3.420803	-2.438429	-3.379517	4.299590	-23.980296	-4.562740	1.052940	-2.517900	0.830930	-0.205444	0.496581	-1.000000	-1.000000	-1.000000	-1.000000	-1.000000	-1.000000	-1.000000	84.344828	0.000000	-1.000000	-1.000000	327075.000000	1774904588.657029
21756.555000	2248.920000	26326.170000	30214.800000	14267.790000	-52547.040000	-45689.940000	-18313.020000	-2.943842	-1.114792	0.513571	3.235686	2.750814	1.949344	10.118717	-9.213851	-4.562740	1.052940	-2.517900	0.830930	-0.205444	0.496581	-1.000000	-1.000000	-1.000000	-1.000000	-1.000000	-1.000000	-1.000000	84.344828	0.000000	-1.000000	-1.000000	327076.000000	1774904588.657040
21777.345000	2266.335000	26343.495000	30230.460000	14281.695000	-52533.720000	-45677.205000	-18301.545000	9.724611	13.306105	17.539401	13.162802	11.057321	10.208055	13.873136	11.789130	-4.562740	1.052940	-2.517900	0.830930	-0.205444	0.496581	-1.000000	-1.000000	-1.000000	-1.000000	-1.000000	-1.000000	-1.000000	84.344828	0.000000	-1.000000	-1.000000	327077.000000	1774904588.659792
21810.195000	2288.025000	26360.145000	30246.345000	14296.185000	-52520.805000	-45671.580000	-18286.920000	24.329362	28.037154	32.766142	23.320946	20.204948	19.216802	16.715730	30.054178	-4.562740	1.052940	-2.517900	0.830930	-0.205444	0.496581	-1.000000	-1.000000	-1.000000	-1.000000	-1.000000	-1.000000	-1.000000	84.344828	0.000000	-1.000000	-1.000000	327078.000000	1774904588.659808
21843.810000	2296.350000	26370.585000	30260.925000	14315.445000	-52502.490000	-45661.815000	-18259.470000	33.141443	34.120528	36.371545	26.714512	23.943505	23.044610	16.462530	36.935799	-4.562740	1.052940	-2.517900	0.830930	-0.205444	0.496581	-1.000000	-1.000000	-1.000000	-1.000000	-1.000000	-1.000000	-1.000000	84.344828	0.000000	-1.000000	-1.000000	327079.000000	1774904588.667200
21846.465000	2302.020000	26382.375000	30273.300000	14328.270000	-52486.695000	-45639.765000	-18252.765000	29.791796	26.022251	23.974401	18.876079	18.051319	17.708011	10.974418	30.571118	-4.562740	1.052940	-2.517900	0.830930	-0.205444	0.496581	-1.000000	-1.000000	-1.000000	-1.000000	-1.000000	-1.000000	-1.000000	84.344828	0.000000	-1.000000	-1.000000	327080.000000	1774904588.667211
21817.710000	2290.995000	26371.935000	30259.395000	14309.460000	-52506.900000	-45646.020000	-18284.715000	13.930574	6.970140	1.394634	2.426781	4.201986	4.784799	1.332412	14.827423	-4.608520	-0.106820	-2.655240	0.830564	-0.205383	0.495726	-1.000000	-1.000000	-1.000000	-1.000000	-1.000000	-1.000000	-1.000000	84.344828	0.000000	-1.000000	-1.000000	327081.000000	1774904588.667223
21743.100000	2235.285000	26308.125000	30194.955000	14245.605000	-52566.480000	-45680.715000	-18342.990000	-9.706019	-14.616052	-21.215661	-16.351124	-12.992504	-11.523798	-9.693448	-5.749133	-4.608520	-0.106820	-2.655240	0.830564	-0.205383	0.495726	-1.000000	-1.000000	-1.000000	-1.000000	-1.000000	-1.000000	-1.000000	84.344828	0.000000	-1.000000	-1.000000	327082.000000	1774904588.667228
21759.795000	2241.810000	26304.300000	30195.045000	14246.685000	-52566.930000	-45716.265000	-18335.565000	-33.004021	-31.583745	-36.848853	-31.657748	-28.535340	-26.583328	-19.652356	-25.951156	-4.608520	-0.106820	-2.655240	0.830564	-0.205383	0.495726	-1.000000	-1.000000	-1.000000	-1.000000	-1.000000	-1.000000	-1.000000	84.344828	0.000000	-1.000000	-1.000000	327083.000000	1774904588.671300
21786.660000	2273.040000	26323.785000	30221.505000	14276.835000	-52543.305000	-45719.280000	-18336.015000	-44.285748	-37.699106	-40.506447	-36.860193	-35.205844	-33.457931	-25.404263	-37.471223	-4.608520	-0.106820	-2.655240	0.830564	-0.205383	0.495726	-1.000000	-1.000000	-1.000000	-1.000000	-1.000000	-1.000000	-1.000000	84.344828	0.000000	-1.000000	-1.000000	327084.000000	1774904588.671310
21788.820000	2278.980000	26320.095000	30225.105000	14289.705000	-52525.440000	-45686.970000	-18342.495000	-35.150884	-28.386345	-28.952697	-26.701037	-26.512487	-25.738591	-22.478137	-33.720902	-4.608520	-0.106820	-2.655240	0.830564	-0.205383	0.495726	-1.000000	-1.000000	-1.000000	-1.000000	-1.000000	-1.000000	-1.000000	84.344828	0.000000	-1.000000	-1.000000	327085.000000	1774904588.684335
21806.235000	2291.580000	26344.935000	30246.345000	14310.180000	-52502.715000	-45665.145000	-18302.040000	-10.019065	-6.988394	-5.944579	-4.231736	-4.590124	-4.969371	-8.864425	-16.295655	-4.608520	-0.106820	-2.655240	0.830564	-0.205383	0.495726	-1.000000	-1.000000	-1.000000	-1.000000	-1.000000	-1.000000	-1.000000	84.344828	0.000000	-1.000000	-1.000000	327086.000000	1774904588.684346
21836.610000	2299.770000	26364.195000	30257.055000	14313.510000	-52501.680000	-45655.830000	-18238.815000	16.740311	15.191008	17.999311	19.296347	19.066320	18.122539	10.421140	7.166919	-4.608520	-0.106820	-2.655240	0.830564	-0.205383	0.495726	-1.000000	-1.000000	-1.000000	-1.000000	-1.000000	-1.000000	-1.000000	84.344828	0.000000	-1.000000	-1.000000	327087.000000	1774904588.684358
21829.590000	2295.495000	26365.770000	30251.700000	14305.230000	-52509.870000	-45653.895000	-18223.695000	31.761305	27.058178	32.191866	32.094714	31.603016	30.754260	25.246858	27.681746	-4.608520	-0.106820	-2.655240	0.830564	-0.205383	0.495726	-1.000000	-1.000000	-1.000000	-1.000000	-1.000000	-1.000000	-1.000000	84.344828	0.000000	-1.000000	-1.000000	327088.000000	1774904588.684363
21837.645000	2322.135000	26406.360000	30276.720000	14322.015000	-52492.905000	-45648.270000	-18241.650000	30.211082	25.165731	32.143212	29.408643	27.767635	27.222316	27.687680	36.846802	-4.608520	-0.106820	-2.655240	0.830564	-0.205383	0.495726	-1.000000	-1.000000	-1.000000	-1.000000	-1.000000	-1.000000	-1.000000	84.344828	0.000000	-1.000000	-1.000000	327089.000000	1774904588.684369
21827.340000	2316.285000	26402.850000	30274.920000	14322.150000	-52491.870000	-45661.680000	-18301.230000	17.245781	14.703671	21.734538	16.119944	13.133066	12.756510	17.554157	30.041373	-4.608520	-0.106820	-2.655240	0.830564	-0.205383	0.495726	-1.000000	-1.000000	-1.000000	-1.000000	-1.000000	-1.000000	-1.000000	84.344828	0.000000	-1.000000	-1.000000	327090.000000	1774904588.684374
21791.610000	2267.280000	26350.695000	30236.805000	14290.425000	-52521.210000	-45672.255000	-18343.125000	2.252982	2.880531	7.818393	1.232744	-1.995437	-2.339429	1.792667	9.762019	-4.440660	-0.473060	-2.212700	0.831968	-0.204772	0.495909	-1.000000	-1.000000	-1.000000	-1.000000	-1.000000	-1.000000	-1.000000	84.344828	0.000000	-1.000000	-1.000000	327091.000000	1774904588.687223
21733.920000	2213.055000	26292.870000	30182.085000	14237.055000	-52574.985000	-45695.655000	-18355.005000	-9.774447	-7.979468	-6.636877	-10.606770	-12.269269	-12.490641	-11.135824	-14.875832	-4.440660	-0.473060	-2.212700	0.831968	-0.204772	0.495909	-1.000000	-1.000000	-1.000000	-1.000000	-1.000000	-1.000000	-1.000000	84.344828	0.000000	-1.000000	-1.000000	327092.000000	1774904588.687234
21736.395000	2224.305000	26291.385000	30187.260000	14243.445000	-52569.405000	-45687.420000	-18333.810000	-18.656872	-17.924377	-20.542703	-19.305523	-18.378008	-18.237870	-16.656116	-31.878886	-4.440660	-0.473060	-2.212700	0.831968	-0.204772	0.495909	-1.000000	-1.000000	-1.000000	-1.000000	-1.000000	-1.000000	-1.000000	84.344828	0.000000	-1.000000	-1.000000	327093.000000	1774904588.696630
21778.335000	2265.075000	26300.970000	30211.740000	14272.245000	-52540.155000	-45672.345000	-18296.370000	-22.158059	-22.777417	-29.083498	-22.891216	-19.953928	-19.447344	-14.966091	-32.336719	-4.440660	-0.473060	-2.212700	0.831968	-0.204772	0.495909	-1.000000	-1.000000	-1.000000	-1.000000	-1.000000	-1.000000	-1.000000	84.344828	0.000000	-1.000000	-1.000000	327094.000000	1774904588.696643
21796.605000	2290.455000	26326.530000	30231.495000	14290.245000	-52522.965000	-45675.585000	-18287.595000	-16.338733	-16.837116	-26.479758	-17.778743	-14.331579	-13.843540	-8.979129	-17.102063	-4.440660	-0.473060	-2.212700	0.831968	-0.204772	0.495909	-1.000000	-1.000000	-1.000000	-1.000000	-1.000000	-1.000000	-1.000000	84.344828	0.000000	-1.000000	-1.000000	327095.000000	1774904588.696658
21789.360000	2293.695000	26358.030000	30237.660000	14287.770000	-52524.630000	-45681.075000	-18324.855000	-3.074778	-1.323294	-12.489458	-4.897132	-2.330843	-2.233257	-2.378558	2.275620	-4.440660	-0.473060	-2.212700	0.831968	-0.204772	0.495909	-1.000000	-1.000000	-1.000000	-1.000000	-1.000000	-1.000000	-1.000000	84.344828	0.000000	-1.000000	-1.000000	327096.000000	1774904588.696664
21754.710000	2247.660000	26347.140000	30221.460000	14262.525000	-52551.540000	-45703.305000	-18362.475000	9.492896	14.335286	6.425218	9.187406	9.926406	9.611818	1.798843	12.761662	-4.440660	-0.473060	-2.212700	0.831968	-0.204772	0.495909	-1.000000	-1.000000	-1.000000	-1.000000	-1.000000	-1.000000	-1.000000	84.344828	0.000000	-1.000000	-1.000000	327097.000000	1774904588.699099
21738.960000	2221.425000	26301.960000	30205.260000	14254.785000	-52559.370000	-45708.525000	-18350.730000	14.356829	19.658181	19.957531	16.775048	15.541608	15.001243	2.470683	11.567441	-4.440660	-0.473060	-2.212700	0.831968	-0.204772	0.495909	-1.000000	-1.000000	-1.000000	-1.000000	-1.000000	-1.000000	-1.000000	84.344828	0.000000	-1.000000	-1.000000	327098.000000	1774904588.699105
21748.545000	2240.325000	26299.530000	30207.330000	14267.835000	-52541.235000	-45693.180000	-18323.550000	11.592314	12.807113	21.198065	15.135176	13.088748	12.568037	1.750426	7.496737	-4.440660	-0.473060	-2.212700	0.831968	-0.204772	0.495909	-1.000000	-1.000000	-1.000000	-1.000000	-1.000000	-1.000000	-1.000000	84.344828	0.000000	-1.000000	-1.000000	327099.000000	1774904588.703108
21811.905000	2299.095000	26366.940000	30254.310000	14310.810000	-52499.835000	-45659.880000	-18253.080000	8.073811	3.391129	14.393218	9.437027	8.266305	8.055508	3.788347	10.342586	-4.440660	-0.473060	-2.212700	0.831968	-0.204772	0.495909	-1.000000	-1.000000	-1.000000	-1.000000	-1.000000	-1.000000	-1.000000	84.344828	0.000000	-1.000000	-1.000000	327100.000000	1774904588.703115
21859.470000	2331.630000	26417.205000	30288.150000	14336.370000	-52478.685000	-45645.345000	-18241.380000	10.646952	2.279501	10.547751	7.423805	7.603067	7.817241	10.194042	20.177131	-5.585160	-0.763000	-2.060100	0.833006	-0.205322	0.495116	-1.000000	-1.000000	-1.000000	-1.000000	-1.000000	-1.000000	-1.000000	84.344828	0.000000	-1.000000	-1.000000	327101.000000	1774904588.713941
21813.930000	2289.330000	26375.040000	30247.785000	14294.745000	-52522.695000	-45677.700000	-18317.430000	16.970551	8.476079	12.891614	9.586527	9.946485	10.300929	16.212828	25.769183	-5.585160	-0.763000	-2.060100	0.833006	-0.205322	0.495116	-1.000000	-1.000000	-1.000000	-1.000000	-1.000000	-1.000000	-1.000000	84.344828	0.000000	-1.000000	-1.000000	327102.000000	1774904588.713952
21738.735000	2200.275000	26278.245000	30164.085000	14218.020000	-52593.300000	-45713.790000	-18324.810000	14.872718	9.129122	11.447790	6.965971	6.232078	6.343988	13.677298	14.712361	-5.585160	-0.763000	-2.060100	0.833006	-0.205322	0.495116	-1.000000	-1.000000	-1.000000	-1.000000	-1.000000	-1.000000	-1.000000	84.344828	0.000000	-1.000000	-1.000000	327103.000000	1774904588.713964
21724.695000	2202.390000	26280.765000	30170.070000	14225.310000	-52584.165000	-45708.705000	-18328.545000	-3.613344	-4.846010	-3.768386	-7.216875	-8.789276	-8.825175	0.402554	-11.579461	-5.585160	-0.763000	-2.060100	0.833006	-0.205322	0.495116	-1.000000	-1.000000	-1.000000	-1.000000	-1.000000	-1.000000	-1.000000	84.344828	0.000000	-1.000000	-1.000000	327104.000000	1774904588.713970
21760.155000	2240.550000	26315.100000	30203.145000	14256.180000	-52553.880000	-45697.995000	-18322.200000	-28.926563	-25.042237	-26.948527	-25.551111	-26.359668	-26.074100	-15.401066	-36.359377	-5.585160	-0.763000	-2.060100	0.833006	-0.205322	0.495116	-1.000000	-1.000000	-1.000000	-1.000000	-1.000000	-1.000000	-1.000000	84.344828	0.000000	-1.000000	-1.000000	327105.000000	1774904588.715761
21792.285000	2258.460000	26321.580000	30212.505000	14269.050000	-52539.165000	-45703.080000	-18315.045000	-40.854614	-32.859566	-40.283320	-32.501027	-31.197990	-30.390294	-22.673879	-42.533378	-5.585160	-0.763000	-2.060100	0.833006	-0.205322	0.495116	-1.000000	-1.000000	-1.000000	-1.000000	-1.000000	-1.000000	-1.000000	84.344828	0.000000	-1.000000	-1.000000	327106.000000	1774904588.715772
21818.565000	2280.510000	26340.705000	30227.805000	14284.170000	-52524.810000	-45707.445000	-18313.740000	-28.272236	-19.265182	-31.808989	-20.785538	-17.637978	-16.630606	-17.502890	-26.615088	-5.585160	-0.763000	-2.060100	0.833006	-0.205322	0.495116	-1.000000	-1.000000	-1.000000	-1.000000	-1.000000	-1.000000	-1.000000	84.344828	0.000000	-1.000000	-1.000000	327107.000000	1774904588.719624
21823.020000	2300.355000	26368.245000	30249.765000	14300.595000	-52513.155000	-45701.370000	-18322.695000	0.894985	7.248582	-5.280087	2.966265	5.945089	6.432803	-4.760700	-0.040709	-5.585160	-0.763000	-2.060100	0.833006	-0.205322	0.495116	-1.000000	-1.000000	-1.000000	-1.000000	-1.000000	-1.000000	-1.000000	84.344828	0.000000	-1.000000	-1.000000	327108.000000	1774904588.719632
21818.160000	2297.880000	26376.750000	30256.380000	14306.760000	-52509.420000	-45675.765000	-18310.905000	26.930020	29.138846	23.404214	24.716270	25.280214	24.570911	7.669736	20.597550	-5.585160	-0.763000	-2.060100	0.833006	-0.205322	0.495116	-1.000000	-1.000000	-1.000000	-1.000000	-1.000000	-1.000000	-1.000000	84.344828	0.000000	-1.000000	-1.000000	327109.000000	1774904588.726550
21787.380000	2259.945000	26327.475000	30220.380000	14275.080000	-52538.670000	-45673.515000	-18293.895000	33.759851	32.897658	37.054033	32.184744	29.913291	28.127166	14.695378	26.527332	-5.585160	-0.763000	-2.060100	0.833006	-0.205322	0.495116	-1.000000	-1.000000	-1.000000	-1.000000	-1.000000	-1.000000	-1.000000	84.344828	0.000000	-1.000000	-1.000000	327110.000000	1774904588.726563
21786.435000	2243.565000	26307.135000	30215.250000	14275.350000	-52533.360000	-45651.465000	-18265.320000	20.491446	18.012218	29.424419	22.738322	19.347343	17.578875	15.736317	21.520569	-5.081580	0.030520	-1.373400	0.835081	-0.208740	0.493712	-1.000000	-1.000000	-1.000000	-1.000000	-1.000000	-1.000000	-1.000000	84.344828	0.000000	-1.000000	-1.000000	327111.000000	1774904588.728498
21826.215000	2294.325000	26362.890000	30254.805000	14306.580000	-52506.765000	-45641.790000	-18228.780000	0.567167	-2.895666	10.005483	5.503301	3.069559	2.436676	13.100119	14.093665	-5.081580	0.030520	-1.373400	0.835081	-0.208740	0.493712	-1.000000	-1.000000	-1.000000	-1.000000	-1.000000	-1.000000	-1.000000	84.344828	0.000000	-1.000000	-1.000000	327112.000000	1774904588.728509
21792.555000	2281.950000	26347.590000	30243.105000	14295.690000	-52519.230000	-45656.415000	-18264.915000	-11.824727	-15.479495	-6.342916	-7.712689	-8.387795	-7.793624	8.306754	7.949888	-5.081580	0.030520	-1.373400	0.835081	-0.208740	0.493712	-1.000000	-1.000000	-1.000000	-1.000000	-1.000000	-1.000000	-1.000000	84.344828	0.000000	-1.000000	-1.000000	327113.000000	1774904588.732797
21712.275000	2232.225000	26289.990000	30203.955000	14268.735000	-52541.055000	-45680.130000	-18341.640000	-15.022933	-16.887611	-14.475004	-13.741593	-12.837759	-11.743876	0.665658	0.284840	-5.081580	0.030520	-1.373400	0.835081	-0.208740	0.493712	-1.000000	-1.000000	-1.000000	-1.000000	-1.000000	-1.000000	-1.000000	84.344828	0.000000	-1.000000	-1.000000	327114.000000	1774904588.732808
21713.985000	2216.115000	26278.065000	30189.060000	14251.050000	-52557.840000	-45695.025000	-18353.340000	-16.114174	-14.072041	-18.242084	-16.397243	-14.239720	-13.226807	-9.306309	-11.841587	-5.081580	0.030520	-1.373400	0.835081	-0.208740	0.493712	-1.000000	-1.000000	-1.000000	-1.000000	-1.000000	-1.000000	-1.000000	84.344828	0.000000	-1.000000	-1.000000	327115.000000	1774904588.735071
21806.190000	2283.570000	26367.885000	30258.675000	14304.285000	-52508.250000	-45660.240000	-18293.040000	-16.168709	-11.217719	-18.351584	-16.633517	-14.193457	-13.443833	-17.220103	-23.440540	-5.081580	0.030520	-1.373400	0.835081	-0.208740	0.493712	-1.000000	-1.000000	-1.000000	-1.000000	-1.000000	-1.000000	-1.000000	84.344828	0.000000	-1.000000	-1.000000	327116.000000	1774904588.735081
21861.945000	2331.405000	26415.495000	30295.305000	14337.045000	-52477.830000	-45634.995000	-18277.020000	-8.362430	-5.523279	-10.589830	-10.867227	-9.964168	-9.580862	-17.653570	-24.542925	-5.081580	0.030520	-1.373400	0.835081	-0.208740	0.493712	-1.000000	-1.000000	-1.000000	-1.000000	-1.000000	-1.000000	-1.000000	84.344828	0.000000	-1.000000	-1.000000	327117.000000	1774904588.746255
21822.255000	2294.955000	26375.715000	30265.425000	14305.995000	-52509.240000	-45655.335000	-18307.620000	8.360032	4.628797	4.111194	0.987167	-0.762068	-0.792958	-10.123095	-12.989287	-5.081580	0.030520	-1.373400	0.835081	-0.208740	0.493712	-1.000000	-1.000000	-1.000000	-1.000000	-1.000000	-1.000000	-1.000000	84.344828	0.000000	-1.000000	-1.000000	327118.000000	1774904588.746265
21757.320000	2232.810000	26308.980000	30200.580000	14244.660000	-52569.990000	-45699.165000	-18321.255000	23.009370	13.680171	16.324132	11.698580	8.088983	7.721635	-0.770916	2.364409	-5.081580	0.030520	-1.373400	0.835081	-0.208740	0.493712	-1.000000	-1.000000	-1.000000	-1.000000	-1.000000	-1.000000	-1.000000	84.344828	0.000000	-1.000000	-1.000000	327119.000000	1774904588.746277
21764.520000	2242.710000	26321.040000	30213.945000	14257.755000	-52554.870000	-45695.925000	-18323.820000	23.836017	14.701040	17.556016	13.806434	10.405767	9.824130	3.772043	11.494876	-5.081580	0.030520	-1.373400	0.835081	-0.208740	0.493712	-1.000000	-1.000000	-1.000000	-1.000000	-1.000000	-1.000000	-1.000000	84.344828	0.000000	-1.000000	-1.000000	327120.000000	1774904588.746285
21797.865000	2274.840000	26355.510000	30252.285000	14298.300000	-52512.030000	-45674.505000	-18314.280000	11.073273	7.642774	8.547671	7.675196	6.509348	5.974561	3.245618	11.467557	-3.876040	1.358140	-1.236060	0.836851	-0.207763	0.492613	-1.000000	-1.000000	-1.000000	-1.000000	-1.000000	-1.000000	-1.000000	84.344828	0.000000	-1.000000	-1.000000	327121.000000	1774904588.747556
21833.730000	2308.770000	26383.365000	30276.720000	14320.620000	-52492.635000	-45653.355000	-18289.620000	-3.573216	-0.559893	-2.227114	0.589781	2.500711	2.374921	2.913313	7.546976	-3.876040	1.358140	-1.236060	0.836851	-0.207763	0.492613	-1.000000	-1.000000	-1.000000	-1.000000	-1.000000	-1.000000	-1.000000	84.344828	0.000000	-1.000000	-1.000000	327122.000000	1774904588.747564
21821.715000	2298.195000	26359.830000	30248.910000	14293.665000	-52517.295000	-45658.440000	-18274.725000	-8.639539	-2.821498	-6.424803	-1.294637	2.680940	2.977339	6.641074	7.625754	-3.876040	1.358140	-1.236060	0.836851	-0.207763	0.492613	-1.000000	-1.000000	-1.000000	-1.000000	-1.000000	-1.000000	-1.000000	84.344828	0.000000	-1.000000	-1.000000	327123.000000	1774904588.751454
21765.645000	2240.505000	26303.445000	30200.535000	14249.970000	-52555.860000	-45696.240000	-18304.380000	-5.033884	-0.077378	-4.455121	0.228858	4.229598	4.643132	11.753024	12.296079	-3.876040	1.358140	-1.236060	0.836851	-0.207763	0.492613	-1.000000	-1.000000	-1.000000	-1.000000	-1.000000	-1.000000	-1.000000	84.344828	0.000000	-1.000000	-1.000000	327124.000000	1774904588.751464
21759.660000	2242.980000	26308.575000	30209.085000	14259.375000	-52549.380000	-45696.960000	-18327.690000	-4.268923	-0.782017	-4.790103	-1.880420	0.925366	1.367757	11.386359	12.797313	-3.876040	1.358140	-1.236060	0.836851	-0.207763	0.492613	-1.000000	-1.000000	-1.000000	-1.000000	-1.000000	-1.000000	-1.000000	84.344828	0.000000	-1.000000	-1.000000	327125.000000	1774904588.755143
21790.305000	2290.860000	26344.800000	30242.925000	14295.870000	-52514.280000	-45671.715000	-18324.495000	-11.872097	-8.211426	-10.925470	-9.004733	-7.308114	-6.755342	3.177044	2.774164	-3.876040	1.358140	-1.236060	0.836851	-0.207763	0.492613	-1.000000	-1.000000	-1.000000	-1.000000	-1.000000	-1.000000	-1.000000	84.344828	0.000000	-1.000000	-1.000000	327126.000000	1774904588.755153
21878.685000	2387.700000	26430.480000	30331.485000	14382.090000	-52430.580000	-45596.745000	-18246.915000	-17.680036	-12.524398	-13.406325	-11.860233	-11.022963	-10.552183	-5.647243	-11.183302	-3.876040	1.358140	-1.236060	0.836851	-0.207763	0.492613	-1.000000	-1.000000	-1.000000	-1.000000	-1.000000	-1.000000	-1.000000	84.344828	0.000000	-1.000000	-1.000000	327127.000000	1774904588.759162
21917.835000	2411.235000	26463.285000	30363.165000	14409.855000	-52402.095000	-45567.135000	-18194.310000	-7.996481	-2.297967	-1.066175	-0.765572	-1.231272	-1.312448	-5.232015	-15.742301	-3.876040	1.358140	-1.236060	0.836851	-0.207763	0.492613	-1.000000	-1.000000	-1.000000	-1.000000	-1.000000	-1.000000	-1.000000	84.344828	0.000000	-1.000000	-1.000000	327128.000000	1774904588.759168
21837.510000	2293.515000	26377.335000	30267.765000	14313.510000	-52494.795000	-45651.870000	-18262.215000	13.857851	16.384967	20.338250	18.151431	15.729810	14.848417	3.361489	-7.539671	-3.876040	1.358140	-1.236060	0.836851	-0.207763	0.492613	-1.000000	-1.000000	-1.000000	-1.000000	-1.000000	-1.000000	-1.000000	84.344828	0.000000	-1.000000	-1.000000	327129.000000	1774904588.765435
21709.305000	2177.865000	26261.370000	30149.010000	14199.660000	-52607.655000	-45745.245000	-18371.655000	26.194775	21.387226	28.694555	23.834317	19.746525	18.457868	6.430081	1.283650	-3.876040	1.358140	-1.236060	0.836851	-0.207763	0.492613	-1.000000	-1.000000	-1.000000	-1.000000	-1.000000	-1.000000	-1.000000	84.344828	0.000000	-1.000000	-1.000000	327130.000000	1774904588.765448
21684.105000	2176.605000	26232.120000	30132.180000	14183.865000	-52623.270000	-45748.395000	-18390.825000	13.160950	1.172339	10.496497	4.437665	0.197575	-0.732151	-5.237222	-1.887169	-7.248500	2.426340	-1.831200	0.840391	-0.201904	0.489684	-1.000000	-1.000000	-1.000000	-1.000000	-1.000000	-1.000000	-1.000000	84.344828	0.000000	-1.000000	-1.000000	327131.000000	1774904588.768975
21740.040000	2219.940000	26267.130000	30183.075000	14228.730000	-52578.045000	-45715.950000	-18346.545000	-14.831928	-28.069409	-20.894060	-25.219953	-27.988246	-28.127223	-22.493714	-13.622966	-7.248500	2.426340	-1.831200	0.840391	-0.201904	0.489684	-1.000000	-1.000000	-1.000000	-1.000000	-1.000000	-1.000000	-1.000000	84.344828	0.000000	-1.000000	-1.000000	327132.000000	1774904588.768987
21776.175000	2260.890000	26332.560000	30229.335000	14265.675000	-52543.080000	-45692.415000	-18331.515000	-31.609980	-39.049756	-38.030274	-38.098152	-38.924873	-38.493622	-27.451879	-18.834116	-7.248500	2.426340	-1.831200	0.840391	-0.201904	0.489684	-1.000000	-1.000000	-1.000000	-1.000000	-1.000000	-1.000000	-1.000000	84.344828	0.000000	-1.000000	-1.000000	327133.000000	1774904588.771358
21768.885000	2275.110000	26354.295000	30236.940000	14273.100000	-52539.705000	-45691.155000	-18357.615000	-23.271346	-21.619831	-26.772968	-23.075649	-22.650125	-22.188384	-13.442229	-9.289235	-7.248500	2.426340	-1.831200	0.840391	-0.201904	0.489684	-1.000000	-1.000000	-1.000000	-1.000000	-1.000000	-1.000000	-1.000000	84.344828	0.000000	-1.000000	-1.000000	327134.000000	1774904588.771369
21771.045000	2265.795000	26338.545000	30219.885000	14264.595000	-52548.030000	-45691.065000	-18321.255000	0.711967	9.784394	2.332762	6.456842	7.433960	7.575877	9.247579	8.652486	-7.248500	2.426340	-1.831200	0.840391	-0.201904	0.489684	-1.000000	-1.000000	-1.000000	-1.000000	-1.000000	-1.000000	-1.000000	84.344828	0.000000	-1.000000	-1.000000	327135.000000	1774904588.775147
21778.425000	2278.260000	26343.585000	30234.645000	14278.770000	-52534.845000	-45675.090000	-18289.575000	21.114588	32.332309	26.731684	28.319967	29.923165	29.792597	24.835959	22.852036	-7.248500	2.426340	-1.831200	0.840391	-0.201904	0.489684	-1.000000	-1.000000	-1.000000	-1.000000	-1.000000	-1.000000	-1.000000	84.344828	0.000000	-1.000000	-1.000000	327136.000000	1774904588.775157
21811.005000	2293.335000	26362.260000	30259.665000	14302.710000	-52510.680000	-45657.270000	-18272.025000	26.946446	34.917786	32.473302	31.486436	34.026434	33.866977	26.057523	26.016250	-7.248500	2.426340	-1.831200	0.840391	-0.201904	0.489684	-1.000000	-1.000000	-1.000000	-1.000000	-1.000000	-1.000000	-1.000000	84.344828	0.000000	-1.000000	-1.000000	327137.000000	1774904588.779110
21842.910000	2303.100000	26370.090000	30269.430000	14316.390000	-52491.690000	-45644.355000	-18256.275000	21.991848	24.081926	23.078330	21.944650	25.113926	25.123770	18.238443	20.146832	-7.248500	2.426340	-1.831200	0.840391	-0.201904	0.489684	-1.000000	-1.000000	-1.000000	-1.000000	-1.000000	-1.000000	-1.000000	84.344828	0.000000	-1.000000	-1.000000	327138.000000	1774904588.779119
21837.735000	2303.055000	26371.620000	30270.735000	14315.760000	-52491.330000	-45660.555000	-18276.030000	16.560888	12.646265	11.024000	11.984369	14.784610	15.142973	10.681085	12.600265	-7.248500	2.426340	-1.831200	0.840391	-0.201904	0.489684	-1.000000	-1.000000	-1.000000	-1.000000	-1.000000	-1.000000	-1.000000	84.344828	0.000000	-1.000000	-1.000000	327139.000000	1774904588.783537
21817.080000	2281.635000	26344.710000	30243.150000	14288.715000	-52518.555000	-45686.880000	-18307.170000	13.406640	5.119359	3.277692	6.109933	7.410127	8.188313	5.426040	5.972454	-7.248500	2.426340	-1.831200	0.840391	-0.201904	0.489684	-1.000000	-1.000000	-1.000000	-1.000000	-1.000000	-1.000000	-1.000000	84.344828	0.000000	-1.000000	-1.000000	327140.000000	1774904588.783546
21766.860000	2253.375000	26318.070000	30216.870000	14263.560000	-52543.575000	-45700.200000	-18332.910000	5.309237	-3.511643	-3.462088	-1.077622	-1.671519	-0.737992	-2.192244	-3.908709	-6.638100	3.830260	-0.991900	0.840086	-0.203063	0.488585	-1.000000	-1.000000	-1.000000	-1.000000	-1.000000	-1.000000	-1.000000	84.344828	0.000000	-1.000000	-1.000000	327141.000000	1774904588.790901
21775.995000	2260.530000	26324.775000	30222.630000	14266.845000	-52542.495000	-45691.020000	-18305.505000	-12.477506	-16.944924	-14.399655	-14.225632	-15.970185	-15.325052	-13.728346	-17.755962	-6.638100	3.830260	-0.991900	0.840086	-0.203063	0.488585	-1.000000	-1.000000	-1.000000	-1.000000	-1.000000	-1.000000	-1.000000	84.344828	0.000000	-1.000000	-1.000000	327142.000000	1774904588.790911
21808.665000	2293.020000	26358.570000	30257.325000	14300.730000	-52506.900000	-45661.095000	-18285.840000	-32.023132	-29.925353	-26.575970	-28.080060	-29.910514	-29.770880	-23.389179	-27.611791	-6.638100	3.830260	-0.991900	0.840086	-0.203063	0.488585	-1.000000	-1.000000	-1.000000	-1.000000	-1.000000	-1.000000	-1.000000	84.344828	0.000000	-1.000000	-1.000000	327143.000000	1774904588.793434
21806.190000	2288.835000	26350.560000	30244.995000	14285.385000	-52519.770000	-45663.390000	-18284.085000	-39.586131	-33.051201	-30.631528	-32.236153	-33.808943	-34.009439	-24.207529	-26.370984	-6.638100	3.830260	-0.991900	0.840086	-0.203063	0.488585	-1.000000	-1.000000	-1.000000	-1.000000	-1.000000	-1.000000	-1.000000	84.344828	0.000000	-1.000000	-1.000000	327144.000000	1774904588.793444
21805.335000	2288.205000	26344.260000	30244.590000	14286.195000	-52516.080000	-45663.480000	-18272.250000	-30.169362	-23.155337	-22.080472	-23.168877	-24.718038	-24.897456	-15.714390	-16.139751	-6.638100	3.830260	-0.991900	0.840086	-0.203063	0.488585	-1.000000	-1.000000	-1.000000	-1.000000	-1.000000	-1.000000	-1.000000	84.344828	0.000000	-1.000000	-1.000000	327145.000000	1774904588.795265
21822.390000	2319.120000	26357.310000	30280.950000	14328.810000	-52474.365000	-45646.740000	-18263.835000	-10.104045	-4.936544	-5.347164	-5.982868	-7.399206	-7.392074	-2.944094	-3.217712	-6.638100	3.830260	-0.991900	0.840086	-0.203063	0.488585	-1.000000	-1.000000	-1.000000	-1.000000	-1.000000	-1.000000	-1.000000	84.344828	0.000000	-1.000000	-1.000000	327146.000000	1774904588.795274
21829.905000	2338.605000	26373.915000	30301.245000	14357.385000	-52446.645000	-45629.640000	-18288.720000	11.174523	14.954479	12.502022	12.875652	12.340190	12.219858	9.605265	8.308144	-6.638100	3.830260	-0.991900	0.840086	-0.203063	0.488585	-1.000000	-1.000000	-1.000000	-1.000000	-1.000000	-1.000000	-1.000000	84.344828	0.000000	-1.000000	-1.000000	327147.000000	1774904588.799327
21784.275000	2288.835000	26329.230000	30236.715000	14289.750000	-52515.270000	-45690.930000	-18339.750000	25.962300	29.282888	25.313862	26.936668	27.953920	27.187819	18.394834	15.537700	-6.638100	3.830260	-0.991900	0.840086	-0.203063	0.488585	-1.000000	-1.000000	-1.000000	-1.000000	-1.000000	-1.000000	-1.000000	84.344828	0.000000	-1.000000	-1.000000	327148.000000	1774904588.799340
21732.840000	2223.540000	26266.590000	30171.420000	14220.405000	-52584.750000	-45729.585000	-18358.695000	28.518174	30.072657	27.146114	28.353123	30.598835	29.078142	18.796747	15.840298	-6.638100	3.830260	-0.991900	0.840086	-0.203063	0.488585	-1.000000	-1.000000	-1.000000	-1.000000	-1.000000	-1.000000	-1.000000	84.344828	0.000000	-1.000000	-1.000000	327149.000000	1774904588.808827
21759.795000	2255.715000	26304.480000	30206.610000	14255.505000	-52549.515000	-45701.370000	-18341.145000	18.588365	15.605050	16.321572	14.969119	17.165425	15.434569	9.689775	10.017729	-6.638100	3.830260	-0.991900	0.840086	-0.203063	0.488585	-1.000000	-1.000000	-1.000000	-1.000000	-1.000000	-1.000000	-1.000000	84.344828	0.000000	-1.000000	-1.000000	327150.000000	1774904588.808838
21780.405000	2279.655000	26344.935000	30230.685000	14276.475000	-52527.465000	-45681.705000	-18317.205000	3.758681	-4.716140	0.072765	-4.064487	-3.124372	-4.162473	-2.595739	2.921586	-2.121140	4.257540	-1.587040	0.836485	-0.208312	0.486876	-1.000000	-1.000000	-1.000000	-1.000000	-1.000000	-1.000000	-1.000000	84.344828	0.000000	-1.000000	-1.000000	327151.000000	1774904588.808850
21797.955000	2279.655000	26387.145000	30262.770000	14301.945000	-52506.495000	-45652.275000	-18276.345000	-6.945227	-18.417743	-10.620216	-16.003273	-16.797716	-16.560531	-9.871399	-0.734251	-2.121140	4.257540	-1.587040	0.836485	-0.208312	0.486876	-1.000000	-1.000000	-1.000000	-1.000000	-1.000000	-1.000000	-1.000000	84.344828	0.000000	-1.000000	-1.000000	327152.000000	1774904588.808855
21802.005000	2279.700000	26376.705000	30263.940000	14306.580000	-52499.745000	-45640.755000	-18242.640000	-9.807330	-20.082756	-10.609602	-15.119725	-17.349307	-16.109038	-8.845664	0.394272	-2.121140	4.257540	-1.587040	0.836485	-0.208312	0.486876	-1.000000	-1.000000	-1.000000	-1.000000	-1.000000	-1.000000	-1.000000	84.344828	0.000000	-1.000000	-1.000000	327153.000000	1774904588.812286
21777.030000	2250.045000	26328.105000	30234.285000	14279.535000	-52524.540000	-45646.110000	-18277.605000	-6.952831	-12.565777	-4.237254	-5.624895	-8.218041	-6.769499	-2.182894	3.498139	-2.121140	4.257540	-1.587040	0.836485	-0.208312	0.486876	-1.000000	-1.000000	-1.000000	-1.000000	-1.000000	-1.000000	-1.000000	84.344828	0.000000	-1.000000	-1.000000	327154.000000	1774904588.812294
21775.365000	2244.240000	26317.845000	30216.870000	14258.745000	-52547.040000	-45666.675000	-18311.040000	-3.379702	-2.909820	-0.222707	2.737656	0.989673	2.035485	3.934612	3.304517	-2.121140	4.257540	-1.587040	0.836485	-0.208312	0.486876	-1.000000	-1.000000	-1.000000	-1.000000	-1.000000	-1.000000	-1.000000	84.344828	0.000000	-1.000000	-1.000000	327155.000000	1774904588.815071
21802.275000	2263.455000	26332.605000	30229.650000	14270.985000	-52534.665000	-45664.200000	-18289.755000	-1.470914	3.882778	-1.919644	4.230845	3.714849	4.150484	5.017932	-1.562465	-2.121140	4.257540	-1.587040	0.836485	-0.208312	0.486876	-1.000000	-1.000000	-1.000000	-1.000000	-1.000000	-1.000000	-1.000000	84.344828	0.000000	-1.000000	-1.000000	327156.000000	1774904588.815080
21870.945000	2342.970000	26415.495000	30313.305000	14356.260000	-52450.560000	-45606.060000	-18219.915000	2.151431	9.675927	-3.135026	3.591854	4.037930	3.956897	3.486217	-4.747018	-2.121140	4.257540	-1.587040	0.836485	-0.208312	0.486876	-1.000000	-1.000000	-1.000000	-1.000000	-1.000000	-1.000000	-1.000000	84.344828	0.000000	-1.000000	-1.000000	327157.000000	1774904588.822455
21889.125000	2376.585000	26459.235000	30359.700000	14404.095000	-52402.140000	-45582.930000	-18217.665000	10.992369	18.844151	4.157510	9.389132	10.669797	10.333481	5.328150	-0.111226	-2.121140	4.257540	-1.587040	0.836485	-0.208312	0.486876	-1.000000	-1.000000	-1.000000	-1.000000	-1.000000	-1.000000	-1.000000	84.344828	0.000000	-1.000000	-1.000000	327158.000000	1774904588.822465
21823.695000	2336.085000	26425.710000	30324.960000	14366.340000	-52442.460000	-45619.290000	-18279.810000	19.275255	27.189391	16.542967	19.443710	21.545372	21.211927	9.518475	7.458294	-2.121140	4.257540	-1.587040	0.836485	-0.208312	0.486876	-1.000000	-1.000000	-1.000000	-1.000000	-1.000000	-1.000000	-1.000000	84.344828	0.000000	-1.000000	-1.000000	327159.000000	1774904588.823094
21701.250000	2215.305000	26296.020000	30195.180000	14238.225000	-52568.640000	-45700.290000	-18362.070000	13.596986	21.524648	18.048380	18.836121	21.382334	21.202815	6.637302	5.313504	-2.121140	4.257540	-1.587040	0.836485	-0.208312	0.486876	-1.000000	-1.000000	-1.000000	-1.000000	-1.000000	-1.000000	-1.000000	84.344828	0.000000	-1.000000	-1.000000	327160.000000	1774904588.823100
21678.435000	2166.435000	26233.110000	30135.690000	14184.450000	-52616.520000	-45732.195000	-18374.445000	-11.001253	-4.492691	-2.404338	-2.979468	-0.585818	-0.440623	-8.945659	-11.710934	-1.266580	5.493600	-1.007160	0.836241	-0.208618	0.484374	-1.000000	-1.000000	-1.000000	-1.000000	-1.000000	-1.000000	-1.000000	84.344828	0.000000	-1.000000	-1.000000	327161.000000	1774904588.828624
21744.315000	2218.185000	26276.355000	30175.290000	14220.360000	-52582.635000	-45718.695000	-18373.005000	-39.246418	-37.313891	-33.739034	-35.450259	-33.752280	-33.122874	-29.156440	-32.782815	-1.266580	5.493600	-1.007160	0.836241	-0.208618	0.484374	-1.000000	-1.000000	-1.000000	-1.000000	-1.000000	-1.000000	-1.000000	84.344828	0.000000	-1.000000	-1.000000	327162.000000	1774904588.828635
21796.695000	2263.995000	26319.735000	30219.570000	14263.245000	-52541.775000	-45684.765000	-18351.630000	-46.567112	-51.910652	-49.040232	-52.670888	-52.322816	-51.489166	-37.375198	-39.356048	-1.266580	5.493600	-1.007160	0.836241	-0.208618	0.484374	-1.000000	-1.000000	-1.000000	-1.000000	-1.000000	-1.000000	-1.000000	84.344828	0.000000	-1.000000	-1.000000	327163.000000	1774904588.831240
21797.190000	2265.975000	26320.860000	30220.470000	14262.345000	-52540.605000	-45680.940000	-18314.685000	-23.572574	-35.431571	-32.379901	-38.300188	-39.838945	-39.455002	-23.778407	-21.325927	-1.266580	5.493600	-1.007160	0.836241	-0.208618	0.484374	-1.000000	-1.000000	-1.000000	-1.000000	-1.000000	-1.000000	-1.000000	84.344828	0.000000	-1.000000	-1.000000	327164.000000	1774904588.831261
21785.895000	2256.930000	26311.230000	30210.435000	14249.970000	-52554.015000	-45699.435000	-18295.245000	14.283347	0.522868	5.333839	-1.236150	-4.427304	-4.835908	4.899918	13.620244	-1.266580	5.493600	-1.007160	0.836241	-0.208618	0.484374	-1.000000	-1.000000	-1.000000	-1.000000	-1.000000	-1.000000	-1.000000	84.344828	0.000000	-1.000000	-1.000000	327165.000000	1774904588.839619
21772.035000	2247.615000	26311.590000	30212.055000	14254.200000	-52549.605000	-45696.375000	-18324.540000	41.455194	31.530178	38.150544	33.790265	30.073394	29.100392	30.705840	44.337300	-1.266580	5.493600	-1.007160	0.836241	-0.208618	0.484374	-1.000000	-1.000000	-1.000000	-1.000000	-1.000000	-1.000000	-1.000000	84.620690	0.000000	-1.000000	-1.000000	327166.000000	1774904588.839639
21785.985000	2263.725000	26329.950000	30229.425000	14272.470000	-52531.515000	-45671.220000	-18314.415000	43.657284	40.823091	47.533174	47.299580	44.577380	43.548913	39.635828	52.431524	-1.266580	5.493600	-1.007160	0.836241	-0.208618	0.484374	-1.000000	-1.000000	-1.000000	-1.000000	-1.000000	-1.000000	-1.000000	84.620690	0.000000	-1.000000	-1.000000	327167.000000	1774904588.839663
21802.635000	2286.495000	26349.750000	30251.070000	14297.535000	-52507.620000	-45643.770000	-18302.670000	26.684088	30.173837	34.482720	38.286332	37.764719	37.134560	31.879681	37.061409	-1.266580	5.493600	-1.007160	0.836241	-0.208618	0.484374	-1.000000	-1.000000	-1.000000	-1.000000	-1.000000	-1.000000	-1.000000	84.620690	0.000000	-1.000000	-1.000000	327168.000000	1774904588.839674
21807.720000	2296.845000	26359.155000	30259.485000	14305.500000	-52499.835000	-45640.305000	-18311.310000	7.302415	14.238490	14.337286	20.470117	22.374439	22.268888	17.604988	11.839753	-1.266580	5.493600	-1.007160	0.836241	-0.208618	0.484374	-1.000000	-1.000000	-1.000000	-1.000000	-1.000000	-1.000000	-1.000000	84.620690	0.000000	-1.000000	-1.000000	327169.000000	1774904588.848569
21794.580000	2296.035000	26359.920000	30260.070000	14305.905000	-52499.925000	-45673.155000	-18326.250000	-4.071533	4.373798	0.576469	6.517917	9.814141	9.954146	4.585825	-10.418544	-1.266580	5.493600	-1.007160	0.836241	-0.208618	0.484374	-1.000000	-1.000000	-1.000000	-1.000000	-1.000000	-1.000000	-1.000000	84.620690	0.000000	-1.000000	-1.000000	327170.000000	1774904588.848585
21800.520000	2309.985000	26374.095000	30273.930000	14317.650000	-52489.440000	-45680.175000	-18297.675000	-9.964653	-0.446870	-5.540780	-2.194182	0.755691	0.763345	-7.030950	-24.195611	-2.502640	4.852680	-1.907500	0.836546	-0.202392	0.485045	-1.000000	-1.000000	-1.000000	-1.000000	-1.000000	-1.000000	-1.000000	84.620690	0.000000	-1.000000	-1.000000	327171.000000	1774904588.848831
21843.765000	2337.030000	26401.185000	30301.110000	14344.740000	-52461.675000	-45653.265000	-18239.400000	-15.649497	-6.210849	-9.571589	-9.977883	-8.716787	-8.910408	-18.113667	-27.212501	-2.502640	4.852680	-1.907500	0.836546	-0.202392	0.485045	-1.000000	-1.000000	-1.000000	-1.000000	-1.000000	-1.000000	-1.000000	84.620690	0.000000	-1.000000	-1.000000	327172.000000	1774904588.848843
21875.535000	2347.380000	26409.690000	30308.445000	14351.580000	-52452.765000	-45630.270000	-18227.430000	-19.331103	-13.569692	-13.937545	-17.365620	-18.025193	-18.128824	-24.570228	-19.790574	-2.502640	4.852680	-1.907500	0.836546	-0.202392	0.485045	-1.000000	-1.000000	-1.000000	-1.000000	-1.000000	-1.000000	-1.000000	84.620690	0.000000	-1.000000	-1.000000	327173.000000	1774904588.851095
21838.635000	2299.410000	26355.735000	30257.955000	14304.645000	-52498.530000	-45652.095000	-18268.830000	-16.882580	-19.165373	-17.674510	-21.995871	-23.761110	-23.395387	-21.995383	-8.113011	-2.502640	4.852680	-1.907500	0.836546	-0.202392	0.485045	-1.000000	-1.000000	-1.000000	-1.000000	-1.000000	-1.000000	-1.000000	84.620690	0.000000	-1.000000	-1.000000	327174.000000	1774904588.851101
21743.460000	2202.480000	26232.615000	30152.880000	14216.400000	-52583.400000	-45705.465000	-18339.480000	-11.089945	-22.679005	-22.185927	-24.935880	-26.387864	-25.371185	-13.286900	-1.423860	-2.502640	4.852680	-1.907500	0.836546	-0.202392	0.485045	-1.000000	-1.000000	-1.000000	-1.000000	-1.000000	-1.000000	-1.000000	84.620690	0.000000	-1.000000	-1.000000	327175.000000	1774904588.855062
21746.385000	2216.160000	26223.030000	30150.855000	14219.955000	-52581.105000	-45712.890000	-18345.555000	-8.505976	-25.489737	-29.100593	-28.412740	-28.132479	-26.638716	-6.151026	-3.765067	-2.502640	4.852680	-1.907500	0.836546	-0.202392	0.485045	-1.000000	-1.000000	-1.000000	-1.000000	-1.000000	-1.000000	-1.000000	84.620690	0.000000	-1.000000	-1.000000	327176.000000	1774904588.855069
21770.775000	2258.730000	26288.460000	30199.635000	14252.220000	-52551.495000	-45704.970000	-18329.625000	-8.415240	-23.206593	-31.403766	-27.335676	-25.172665	-23.775985	-3.402737	-9.608618	-2.502640	4.852680	-1.907500	0.836546	-0.202392	0.485045	-1.000000	-1.000000	-1.000000	-1.000000	-1.000000	-1.000000	-1.000000	84.620690	0.000000	-1.000000	-1.000000	327177.000000	1774904588.859921
21777.840000	2262.780000	26332.470000	30231.405000	14271.660000	-52531.875000	-45691.830000	-18311.130000	-3.748890	-9.188164	-17.290840	-12.732954	-10.753962	-10.229902	-0.713104	-9.310742	-2.502640	4.852680	-1.907500	0.836546	-0.202392	0.485045	-1.000000	-1.000000	-1.000000	-1.000000	-1.000000	-1.000000	-1.000000	84.620690	0.000000	-1.000000	-1.000000	327178.000000	1774904588.859934
21807.315000	2284.605000	26356.860000	30259.125000	14294.070000	-52512.255000	-45666.990000	-18284.220000	7.800299	13.864396	13.339771	14.498613	13.485954	12.668873	6.509444	1.045959	-2.502640	4.852680	-1.907500	0.836546	-0.202392	0.485045	-1.000000	-1.000000	-1.000000	-1.000000	-1.000000	-1.000000	-1.000000	84.620690	0.000000	-1.000000	-1.000000	327179.000000	1774904588.866558
21802.095000	2282.760000	26381.070000	30271.905000	14301.090000	-52509.870000	-45659.385000	-18297.585000	20.156654	33.644204	44.505777	40.624573	35.796456	33.806801	16.941622	15.499842	-2.502640	4.852680	-1.907500	0.836546	-0.202392	0.485045	-1.000000	-1.000000	-1.000000	-1.000000	-1.000000	-1.000000	-1.000000	84.620690	0.000000	-1.000000	-1.000000	327180.000000	1774904588.866570
21789.810000	2280.510000	26379.045000	30263.670000	14292.180000	-52518.015000	-45669.510000	-18319.905000	24.266001	38.668739	57.543063	50.192185	43.567864	41.068719	23.458587	22.638009	-5.646200	4.440660	-2.227960	0.832151	-0.199340	0.484923	-1.000000	-1.000000	-1.000000	-1.000000	-1.000000	-1.000000	-1.000000	84.620690	0.000000	-1.000000	-1.000000	327181.000000	1774904588.878999
21851.955000	2342.070000	26424.720000	30320.010000	14355.045000	-52451.640000	-45617.895000	-18254.970000	16.941540	27.771029	45.955844	38.684047	33.768031	31.682492	20.496381	17.075481	-5.646200	4.440660	-2.227960	0.832151	-0.199340	0.484923	-1.000000	-1.000000	-1.000000	-1.000000	-1.000000	-1.000000	-1.000000	84.620690	0.000000	-1.000000	-1.000000	327182.000000	1774904588.879011
21900.555000	2377.305000	26446.995000	30349.710000	14391.135000	-52415.145000	-45583.515000	-18197.190000	6.165220	11.563587	19.733276	16.306129	15.943294	15.167389	11.121311	6.990198	-5.646200	4.440660	-2.227960	0.832151	-0.199340	0.484923	-1.000000	-1.000000	-1.000000	-1.000000	-1.000000	-1.000000	-1.000000	84.620690	0.000000	-1.000000	-1.000000	327183.000000	1774904588.879023
21812.805000	2296.755000	26364.330000	30267.180000	14313.285000	-52493.085000	-45646.605000	-18281.520000	1.382817	0.646940	-5.518513	-3.320272	1.259906	2.141767	1.912597	2.941175	-5.646200	4.440660	-2.227960	0.832151	-0.199340	0.484923	-1.000000	-1.000000	-1.000000	-1.000000	-1.000000	-1.000000	-1.000000	84.620690	0.000000	-1.000000	-1.000000	327184.000000	1774904588.879029
21698.055000	2185.470000	26264.700000	30165.885000	14211.405000	-52594.605000	-45731.115000	-18389.115000	-0.982308	-7.527908	-24.428309	-17.963825	-10.613122	-8.499578	-7.115894	1.706645	-5.646200	4.440660	-2.227960	0.832151	-0.199340	0.484923	-1.000000	-1.000000	-1.000000	-1.000000	-1.000000	-1.000000	-1.000000	84.620690	0.000000	-1.000000	-1.000000	327185.000000	1774904588.879035
21720.105000	2199.330000	26282.340000	30179.295000	14216.895000	-52588.305000	-45728.370000	-18407.205000	-10.439032	-20.930354	-40.154953	-32.503933	-25.427064	-22.924765	-18.995438	-7.072047	-5.646200	4.440660	-2.227960	0.832151	-0.199340	0.484923	-1.000000	-1.000000	-1.000000	-1.000000	-1.000000	-1.000000	-1.000000	84.620690	0.000000	-1.000000	-1.000000	327186.000000	1774904588.879040
21754.530000	2237.220000	26315.775000	30218.985000	14253.885000	-52551.045000	-45689.175000	-18367.155000	-23.977914	-35.234721	-49.709945	-43.488843	-38.951138	-36.880854	-29.068711	-22.026629	-5.646200	4.440660	-2.227960	0.832151	-0.199340	0.484923	-1.000000	-1.000000	-1.000000	-1.000000	-1.000000	-1.000000	-1.000000	84.620690	0.000000	-1.000000	-1.000000	327187.000000	1774904588.880016
21750.930000	2238.975000	26309.610000	30216.510000	14258.070000	-52542.180000	-45678.240000	-18327.870000	-29.039426	-37.226003	-44.376794	-40.833027	-39.611689	-38.417868	-27.940320	-29.724642	-5.646200	4.440660	-2.227960	0.832151	-0.199340	0.484923	-1.000000	-1.000000	-1.000000	-1.000000	-1.000000	-1.000000	-1.000000	84.620690	0.000000	-1.000000	-1.000000	327188.000000	1774904588.880027
21766.005000	2247.390000	26317.170000	30218.805000	14260.005000	-52540.605000	-45683.055000	-18315.135000	-19.721895	-21.950267	-22.795038	-21.992657	-23.370436	-22.951947	-13.570521	-20.589896	-5.646200	4.440660	-2.227960	0.832151	-0.199340	0.484923	-1.000000	-1.000000	-1.000000	-1.000000	-1.000000	-1.000000	-1.000000	84.620690	0.000000	-1.000000	-1.000000	327189.000000	1774904588.883063
21803.040000	2277.180000	26344.755000	30243.870000	14282.460000	-52519.410000	-45669.375000	-18275.580000	-0.648007	3.049066	6.361164	4.876004	2.205493	2.073270	6.205470	1.652273	-5.646200	4.440660	-2.227960	0.832151	-0.199340	0.484923	-1.000000	-1.000000	-1.000000	-1.000000	-1.000000	-1.000000	-1.000000	84.620690	0.000000	-1.000000	-1.000000	327190.000000	1774904588.883070
21819.915000	2305.305000	26356.590000	30263.355000	14300.595000	-52503.480000	-45657.990000	-18263.430000	18.414256	25.422672	31.422928	28.077937	24.839556	24.004797	20.904348	23.778462	-4.028640	5.157880	-0.549360	0.830198	-0.202636	0.483947	-1.000000	-1.000000	-1.000000	-1.000000	-1.000000	-1.000000	-1.000000	84.620690	0.000000	-1.000000	-1.000000	327191.000000	1774904588.887156
21853.305000	2358.270000	26379.945000	30310.875000	14353.605000	-52451.730000	-45636.165000	-18255.240000	29.222356	36.986097	44.487988	40.111775	36.356451	34.528521	25.051154	33.586129	-4.028640	5.157880	-0.549360	0.830198	-0.202636	0.483947	-1.000000	-1.000000	-1.000000	-1.000000	-1.000000	-1.000000	-1.000000	84.620690	0.000000	-1.000000	-1.000000	327192.000000	1774904588.887167
21836.925000	2355.570000	26385.795000	30312.855000	14358.195000	-52447.905000	-45646.290000	-18290.880000	30.673253	37.996128	45.184067	41.476694	37.476408	34.837576	21.221143	28.796875	-4.028640	5.157880	-0.549360	0.830198	-0.202636	0.483947	-1.000000	-1.000000	-1.000000	-1.000000	-1.000000	-1.000000	-1.000000	84.620690	0.000000	-1.000000	-1.000000	327193.000000	1774904588.891126
21811.095000	2311.785000	26377.470000	30277.575000	14325.435000	-52479.270000	-45667.215000	-18287.820000	25.601015	31.279344	36.913598	35.060034	31.958201	29.351120	14.938805	15.974228	-4.028640	5.157880	-0.549360	0.830198	-0.202636	0.483947	-1.000000	-1.000000	-1.000000	-1.000000	-1.000000	-1.000000	-1.000000	84.620690	0.000000	-1.000000	-1.000000	327194.000000	1774904588.891135
21796.830000	2270.655000	26377.470000	30245.760000	14280.210000	-52527.870000	-45704.115000	-18264.780000	13.789282	15.359811	20.442896	19.253677	18.476052	16.921023	7.075765	2.264391	-4.028640	5.157880	-0.549360	0.830198	-0.202636	0.483947	-1.000000	-1.000000	-1.000000	-1.000000	-1.000000	-1.000000	-1.000000	84.620690	0.000000	-1.000000	-1.000000	327195.000000	1774904588.901431
21823.335000	2288.520000	26380.845000	30259.260000	14290.830000	-52516.755000	-45682.245000	-18282.420000	-5.037663	-10.032760	-3.577727	-6.583849	-4.797169	-4.807964	-4.538741	-9.806584	-4.028640	5.157880	-0.549360	0.830198	-0.202636	0.483947	-1.000000	-1.000000	-1.000000	-1.000000	-1.000000	-1.000000	-1.000000	84.620690	0.000000	-1.000000	-1.000000	327196.000000	1774904588.901443
21817.710000	2287.080000	26366.130000	30277.620000	14317.020000	-52485.795000	-45643.365000	-18293.085000	-24.537705	-35.645249	-28.657634	-33.329895	-30.234612	-28.886946	-16.860617	-20.724220	-4.028640	5.157880	-0.549360	0.830198	-0.202636	0.483947	-1.000000	-1.000000	-1.000000	-1.000000	-1.000000	-1.000000	-1.000000	84.620690	0.000000	-1.000000	-1.000000	327197.000000	1774904588.901456
21766.770000	2256.345000	26324.010000	30230.325000	14270.985000	-52526.970000	-45656.730000	-18317.340000	-36.160154	-48.510228	-45.390883	-47.605017	-44.606760	-42.329402	-22.261766	-29.292571	-4.028640	5.157880	-0.549360	0.830198	-0.202636	0.483947	-1.000000	-1.000000	-1.000000	-1.000000	-1.000000	-1.000000	-1.000000	84.620690	0.000000	-1.000000	-1.000000	327198.000000	1774904588.901461
21723.570000	2205.855000	26243.685000	30152.115000	14193.180000	-52603.920000	-45690.435000	-18343.620000	-37.720957	-44.477261	-49.436883	-45.432668	-43.195087	-40.420492	-18.542018	-32.451624	-4.028640	5.157880	-0.549360	0.830198	-0.202636	0.483947	-1.000000	-1.000000	-1.000000	-1.000000	-1.000000	-1.000000	-1.000000	84.620690	0.000000	-1.000000	-1.000000	327199.000000	1774904588.903247
21753.135000	2237.625000	26258.580000	30176.235000	14218.245000	-52581.465000	-45677.970000	-18323.730000	-31.180118	-28.761691	-41.902553	-32.650579	-31.429186	-28.799999	-10.813686	-27.793762	-4.028640	5.157880	-0.549360	0.830198	-0.202636	0.483947	-1.000000	-1.000000	-1.000000	-1.000000	-1.000000	-1.000000	-1.000000	84.620690	0.000000	-1.000000	-1.000000	327200.000000	1774904588.903257
21805.290000	2289.150000	26325.720000	30235.770000	14278.680000	-52524.405000	-45657.540000	-18290.430000	-15.728514	-6.618401	-22.791296	-13.346101	-13.400073	-11.843516	-2.947848	-13.172050	-0.503580	5.585160	-1.770160	0.834715	-0.205993	0.485778	-1.000000	-1.000000	-1.000000	-1.000000	-1.000000	-1.000000	-1.000000	84.620690	0.000000	-1.000000	-1.000000	327201.000000	1774904588.907961
21816.720000	2290.230000	26364.735000	30263.040000	14300.640000	-52504.290000	-45646.785000	-18284.760000	9.503791	19.068417	7.946082	12.324004	10.838620	10.536531	5.796479	10.940707	-0.503580	5.585160	-1.770160	0.834715	-0.205993	0.485778	-1.000000	-1.000000	-1.000000	-1.000000	-1.000000	-1.000000	-1.000000	84.620690	0.000000	-1.000000	-1.000000	327202.000000	1774904588.907968
21843.585000	2318.940000	26407.395000	30296.475000	14330.745000	-52474.005000	-45621.000000	-18245.700000	37.497839	42.523475	42.071604	39.732464	37.173751	34.974752	15.844280	36.364457	-0.503580	5.585160	-1.770160	0.834715	-0.205993	0.485778	-1.000000	-1.000000	-1.000000	-1.000000	-1.000000	-1.000000	-1.000000	84.620690	0.000000	-1.000000	-1.000000	327203.000000	1774904588.917109
21829.005000	2320.065000	26397.315000	30295.080000	14335.110000	-52466.040000	-45626.850000	-18221.400000	54.063485	54.417817	63.439779	57.308635	54.910362	51.794474	23.569932	50.161584	-0.503580	5.585160	-1.770160	0.834715	-0.205993	0.485778	-1.000000	-1.000000	-1.000000	-1.000000	-1.000000	-1.000000	-1.000000	84.620690	0.000000	-1.000000	-1.000000	327204.000000	1774904588.917120
21789.135000	2295.855000	26369.730000	30271.905000	14311.800000	-52490.115000	-45667.305000	-18280.080000	47.544089	47.062608	58.996459	53.592504	52.943438	50.413481	22.251264	43.632544	-0.503580	5.585160	-1.770160	0.834715	-0.205993	0.485778	-1.000000	-1.000000	-1.000000	-1.000000	-1.000000	-1.000000	-1.000000	84.620690	0.000000	-1.000000	-1.000000	327205.000000	1774904588.917132
21727.035000	2225.295000	26301.105000	30202.920000	14241.465000	-52560.630000	-45726.705000	-18377.955000	18.216136	20.090705	28.647902	26.208609	27.762212	26.761395	7.438723	16.816620	-0.503580	5.585160	-1.770160	0.834715	-0.205993	0.485778	-1.000000	-1.000000	-1.000000	-1.000000	-1.000000	-1.000000	-1.000000	84.620690	0.000000	-1.000000	-1.000000	327206.000000	1774904588.917137
21693.195000	2183.805000	26256.510000	30159.360000	14197.455000	-52604.280000	-45746.505000	-18385.515000	-19.928936	-16.675252	-13.664821	-13.797282	-11.268702	-10.901626	-15.966754	-20.219255	-0.503580	5.585160	-1.770160	0.834715	-0.205993	0.485778	-1.000000	-1.000000	-1.000000	-1.000000	-1.000000	-1.000000	-1.000000	84.620690	0.000000	-1.000000	-1.000000	327207.000000	1774904588.923474
21730.545000	2219.445000	26288.820000	30192.435000	14229.270000	-52573.005000	-45715.905000	-18349.470000	-46.877140	-46.053774	-46.765553	-46.172610	-44.428985	-43.442927	-33.807965	-48.726898	-0.503580	5.585160	-1.770160	0.834715	-0.205993	0.485778	-1.000000	-1.000000	-1.000000	-1.000000	-1.000000	-1.000000	-1.000000	84.620690	0.000000	-1.000000	-1.000000	327208.000000	1774904588.923484
21769.830000	2252.385000	26321.715000	30223.035000	14258.655000	-52545.330000	-45697.995000	-18331.740000	-48.994254	-53.262148	-54.409997	-54.352942	-54.454647	-53.434382	-33.490747	-52.387909	-0.503580	5.585160	-1.770160	0.834715	-0.205993	0.485778	-1.000000	-1.000000	-1.000000	-1.000000	-1.000000	-1.000000	-1.000000	84.620690	0.000000	-1.000000	-1.000000	327209.000000	1774904588.923495
21796.740000	2263.905000	26327.385000	30228.705000	14268.735000	-52533.720000	-45684.765000	-18317.070000	-27.318916	-36.275079	-36.511530	-37.392440	-39.200194	-38.290405	-14.699490	-30.114438	-0.503580	5.585160	-1.770160	0.834715	-0.205993	0.485778	-1.000000	-1.000000	-1.000000	-1.000000	-1.000000	-1.000000	-1.000000	84.620690	0.000000	-1.000000	-1.000000	327210.000000	1774904588.923500
21799.890000	2262.825000	26325.585000	30227.850000	14270.310000	-52529.985000	-45677.745000	-18309.330000	4.505470	-6.134875	-7.765127	-8.479894	-10.653330	-9.702006	11.238432	4.158102	-1.953280	4.852680	-2.060100	0.836302	-0.202880	0.484679	-1.000000	-1.000000	-1.000000	-1.000000	-1.000000	-1.000000	-1.000000	84.620690	0.000000	-1.000000	-1.000000	327211.000000	1774904588.927108
21798.765000	2279.385000	26345.565000	30249.450000	14289.930000	-52511.490000	-45666.180000	-18309.015000	29.353829	21.550617	15.249992	16.665516	15.846809	16.923560	30.328108	31.457544	-1.953280	4.852680	-2.060100	0.836302	-0.202880	0.484679	-1.000000	-1.000000	-1.000000	-1.000000	-1.000000	-1.000000	-1.000000	84.620690	0.000000	-1.000000	-1.000000	327212.000000	1774904588.927118
21799.935000	2288.970000	26354.475000	30259.575000	14298.930000	-52504.200000	-45662.130000	-18302.130000	36.425807	35.462977	24.972141	29.120094	30.318055	31.202590	34.444473	39.323644	-1.953280	4.852680	-2.060100	0.836302	-0.202880	0.484679	-1.000000	-1.000000	-1.000000	-1.000000	-1.000000	-1.000000	-1.000000	84.620690	0.000000	-1.000000	-1.000000	327213.000000	1774904588.931090
21807.855000	2283.345000	26334.855000	30240.720000	14283.585000	-52517.655000	-45675.675000	-18286.425000	26.887722	33.372937	23.545302	28.410308	30.720799	30.859944	24.536731	29.663559	-1.953280	4.852680	-2.060100	0.836302	-0.202880	0.484679	-1.000000	-1.000000	-1.000000	-1.000000	-1.000000	-1.000000	-1.000000	84.620690	0.000000	-1.000000	-1.000000	327214.000000	1774904588.931103
21819.465000	2288.160000	26326.935000	30237.795000	14282.505000	-52516.980000	-45679.095000	-18283.815000	10.960896	21.219603	17.005502	19.587536	21.553374	20.747444	7.986962	14.566924	-1.953280	4.852680	-2.060100	0.836302	-0.202880	0.484679	-1.000000	-1.000000	-1.000000	-1.000000	-1.000000	-1.000000	-1.000000	84.620690	0.000000	-1.000000	-1.000000	327215.000000	1774904588.936475
21801.870000	2286.180000	26332.965000	30248.370000	14289.570000	-52510.095000	-45669.285000	-18294.165000	-1.872219	7.159530	10.324600	9.268516	9.955809	8.602456	-6.945770	2.771069	-1.953280	4.852680	-2.060100	0.836302	-0.202880	0.484679	-1.000000	-1.000000	-1.000000	-1.000000	-1.000000	-1.000000	-1.000000	84.620690	0.000000	-1.000000	-1.000000	327216.000000	1774904588.936484
21788.640000	2279.430000	26354.475000	30252.060000	14287.725000	-52513.245000	-45664.155000	-18299.295000	-10.318887	-5.115525	4.718470	0.706442	-0.173104	-1.410943	-15.927274	-6.326799	-1.953280	4.852680	-2.060100	0.836302	-0.202880	0.484679	-1.000000	-1.000000	-1.000000	-1.000000	-1.000000	-1.000000	-1.000000	84.620690	0.000000	-1.000000	-1.000000	327217.000000	1774904588.942671
21805.560000	2290.545000	26361.855000	30254.760000	14297.535000	-52501.320000	-45661.455000	-18290.790000	-17.647740	-15.997511	-1.615171	-7.255795	-9.434695	-10.025050	-19.034837	-15.444067	-1.953280	4.852680	-2.060100	0.836302	-0.202880	0.484679	-1.000000	-1.000000	-1.000000	-1.000000	-1.000000	-1.000000	-1.000000	84.620690	0.000000	-1.000000	-1.000000	327218.000000	1774904588.942679
21850.470000	2336.175000	26380.530000	30300.345000	14343.435000	-52454.745000	-45626.490000	-18252.765000	-22.747501	-23.286246	-9.085556	-14.417963	-16.953431	-16.699940	-17.270418	-22.153527	-1.953280	4.852680	-2.060100	0.836302	-0.202880	0.484679	-1.000000	-1.000000	-1.000000	-1.000000	-1.000000	-1.000000	-1.000000	84.620690	0.000000	-1.000000	-1.000000	327219.000000	1774904588.943132
21871.260000	2346.435000	26414.460000	30335.220000	14372.460000	-52429.185000	-45590.940000	-18235.395000	-20.234278	-21.975011	-14.577765	-16.570006	-18.296563	-17.478344	-10.679948	-21.477323	-1.953280	4.852680	-2.060100	0.836302	-0.202880	0.484679	-1.000000	-1.000000	-1.000000	-1.000000	-1.000000	-1.000000	-1.000000	84.620690	0.000000	-1.000000	-1.000000	327220.000000	1774904588.943138
21848.445000	2336.175000	26424.990000	30328.155000	14360.850000	-52442.145000	-45604.800000	-18240.525000	-9.056952	-12.051287	-14.715001	-11.623574	-12.038671	-11.320605	-0.942880	-12.891213	-4.349100	4.837420	-0.915600	0.835325	-0.202575	0.486327	-1.000000	-1.000000	-1.000000	-1.000000	-1.000000	-1.000000	-1.000000	84.620690	0.000000	-1.000000	-1.000000	327221.000000	1774904588.951239
21843.405000	2330.055000	26411.805000	30315.195000	14345.910000	-52459.020000	-45668.700000	-18261.360000	4.438433	-0.114930	-9.625001	-3.619923	-3.111468	-3.081201	6.401110	-1.648425	-4.349100	4.837420	-0.915600	0.835325	-0.202575	0.486327	-1.000000	-1.000000	-1.000000	-1.000000	-1.000000	-1.000000	-1.000000	84.620690	0.000000	-1.000000	-1.000000	327222.000000	1774904588.951250
21821.760000	2320.155000	26402.715000	30310.740000	14345.595000	-52456.905000	-45699.705000	-18354.240000	12.747663	7.718260	-2.295199	2.343029	3.089083	2.342155	6.039005	5.263044	-4.349100	4.837420	-0.915600	0.835325	-0.202575	0.486327	-1.000000	-1.000000	-1.000000	-1.000000	-1.000000	-1.000000	-1.000000	84.620690	0.000000	-1.000000	-1.000000	327223.000000	1774904588.954320
21795.390000	2289.690000	26376.570000	30282.480000	14319.945000	-52477.560000	-45673.065000	-18368.190000	12.813817	9.655395	3.956653	4.579178	5.301858	4.286244	-0.464550	3.819824	-4.349100	4.837420	-0.915600	0.835325	-0.202575	0.486327	-1.000000	-1.000000	-1.000000	-1.000000	-1.000000	-1.000000	-1.000000	84.620690	0.000000	-1.000000	-1.000000	327224.000000	1774904588.954328
21739.230000	2219.535000	26286.570000	30187.215000	14222.205000	-52575.300000	-45694.800000	-18363.150000	5.842817	5.637512	5.100495	1.944350	2.924744	2.488301	-6.170082	-2.825643	-4.349100	4.837420	-0.915600	0.835325	-0.202575	0.486327	-1.000000	-1.000000	-1.000000	-1.000000	-1.000000	-1.000000	-1.000000	84.620690	0.000000	-1.000000	-1.000000	327225.000000	1774904588.959725
21723.930000	2196.720000	26255.160000	30158.685000	14195.385000	-52599.465000	-45685.080000	-18314.145000	-4.651514	-3.567642	-2.349995	-6.907484	-5.415677	-4.687743	-6.628831	-5.997255	-4.349100	4.837420	-0.915600	0.835325	-0.202575	0.486327	-1.000000	-1.000000	-1.000000	-1.000000	-1.000000	-1.000000	-1.000000	84.620690	0.000000	-1.000000	-1.000000	327226.000000	1774904588.959736
21727.575000	2203.515000	26266.905000	30171.645000	14209.110000	-52588.395000	-45691.830000	-18301.005000	-13.557355	-13.415215	-14.666898	-17.631132	-15.942240	-14.254443	-2.444309	-0.083335	-4.349100	4.837420	-0.915600	0.835325	-0.202575	0.486327	-1.000000	-1.000000	-1.000000	-1.000000	-1.000000	-1.000000	-1.000000	84.620690	0.000000	-1.000000	-1.000000	327227.000000	1774904588.959952
21737.250000	2217.960000	26286.930000	30190.950000	14227.335000	-52572.465000	-45696.420000	-18323.820000	-15.846585	-16.657368	-20.860369	-20.813457	-19.661299	-17.986853	2.854576	10.972821	-4.349100	4.837420	-0.915600	0.835325	-0.202575	0.486327	-1.000000	-1.000000	-1.000000	-1.000000	-1.000000	-1.000000	-1.000000	84.620690	0.000000	-1.000000	-1.000000	327228.000000	1774904588.959957
21742.380000	2224.980000	26293.590000	30203.910000	14241.735000	-52555.365000	-45689.355000	-18330.165000	-9.449532	-9.376212	-13.640446	-11.348100	-11.158334	-10.500899	5.649558	17.475533	-4.349100	4.837420	-0.915600	0.835325	-0.202575	0.486327	-1.000000	-1.000000	-1.000000	-1.000000	-1.000000	-1.000000	-1.000000	84.620690	0.000000	-1.000000	-1.000000	327229.000000	1774904588.963493
21757.365000	2254.050000	26300.430000	30223.080000	14270.220000	-52525.710000	-45673.920000	-18319.950000	3.810006	6.091055	4.000385	7.427067	7.061213	6.522762	6.175217	14.642677	-4.349100	4.837420	-0.915600	0.835325	-0.202575	0.486327	-1.000000	-1.000000	-1.000000	-1.000000	-1.000000	-1.000000	-1.000000	84.620690	0.000000	-1.000000	-1.000000	327230.000000	1774904588.963505
21797.010000	2289.420000	26318.430000	30243.645000	14293.395000	-52502.805000	-45661.095000	-18313.290000	19.253776	23.362967	23.270838	27.368103	27.326449	26.204508	8.358452	6.988372	0.228900	5.371520	-1.571780	0.835691	-0.206298	0.487731	-1.000000	-1.000000	-1.000000	-1.000000	-1.000000	-1.000000	-1.000000	84.620690	0.000000	-1.000000	-1.000000	327231.000000	1774904588.970204
21818.520000	2296.890000	26355.060000	30265.065000	14305.995000	-52489.845000	-45649.305000	-18281.835000	31.127165	35.152611	36.398252	40.108463	40.583980	39.507238	13.594555	2.662749	0.228900	5.371520	-1.571780	0.835691	-0.206298	0.487731	-1.000000	-1.000000	-1.000000	-1.000000	-1.000000	-1.000000	-1.000000	84.620690	0.000000	-1.000000	-1.000000	327232.000000	1774904588.970217
21872.475000	2351.520000	26439.705000	30328.515000	14361.030000	-52436.790000	-45602.505000	-18215.865000	35.141443	36.645764	40.532655	41.436421	41.317447	40.432090	17.748409	5.538016	0.228900	5.371520	-1.571780	0.835691	-0.206298	0.487731	-1.000000	-1.000000	-1.000000	-1.000000	-1.000000	-1.000000	-1.000000	84.620690	0.000000	-1.000000	-1.000000	327233.000000	1774904588.972404
21857.355000	2339.280000	26413.380000	30304.485000	14330.880000	-52468.830000	-45617.040000	-18234.405000	29.798625	27.926044	36.529281	32.660274	30.575603	29.708636	15.791901	11.129742	0.228900	5.371520	-1.571780	0.835691	-0.206298	0.487731	-1.000000	-1.000000	-1.000000	-1.000000	-1.000000	-1.000000	-1.000000	84.620690	0.000000	-1.000000	-1.000000	327234.000000	1774904588.972424
21801.510000	2283.255000	26337.105000	30248.235000	14272.920000	-52529.130000	-45676.170000	-18294.300000	14.229273	10.689908	22.590878	15.221859	11.039665	10.086140	5.281528	8.959485	0.228900	5.371520	-1.571780	0.835691	-0.206298	0.487731	-1.000000	-1.000000	-1.000000	-1.000000	-1.000000	-1.000000	-1.000000	84.620690	0.000000	-1.000000	-1.000000	327235.000000	1774904588.975068
21711.195000	2177.550000	26232.795000	30156.120000	14191.560000	-52603.245000	-45738.000000	-18356.130000	-12.004360	-14.852666	-5.425888	-11.774457	-16.453538	-17.209474	-13.123158	-7.588865	0.228900	5.371520	-1.571780	0.835691	-0.206298	0.487731	-1.000000	-1.000000	-1.000000	-1.000000	-1.000000	-1.000000	-1.000000	84.620690	0.000000	-1.000000	-1.000000	327236.000000	1774904588.975076
21721.320000	2192.130000	26258.670000	30170.835000	14207.490000	-52587.990000	-45725.490000	-18344.250000	-42.592786	-43.958155	-42.495489	-43.711933	-46.234741	-46.093175	-32.881002	-31.469157	0.228900	5.371520	-1.571780	0.835691	-0.206298	0.487731	-1.000000	-1.000000	-1.000000	-1.000000	-1.000000	-1.000000	-1.000000	84.620690	0.000000	-1.000000	-1.000000	327237.000000	1774904588.979440
21760.110000	2247.930000	26318.160000	30222.000000	14253.795000	-52545.465000	-45699.840000	-18323.280000	-61.498653	-61.797357	-68.944160	-64.940357	-63.507057	-62.090856	-41.995111	-45.367608	0.228900	5.371520	-1.571780	0.835691	-0.206298	0.487731	-1.000000	-1.000000	-1.000000	-1.000000	-1.000000	-1.000000	-1.000000	84.620690	0.000000	-1.000000	-1.000000	327238.000000	1774904588.979450
21787.605000	2278.530000	26348.760000	30256.560000	14287.950000	-52513.020000	-45672.480000	-18306.990000	-54.220857	-53.658262	-64.834023	-59.290963	-54.672225	-52.630689	-31.640918	-36.936773	0.228900	5.371520	-1.571780	0.835691	-0.206298	0.487731	-1.000000	-1.000000	-1.000000	-1.000000	-1.000000	-1.000000	-1.000000	84.620690	0.000000	-1.000000	-1.000000	327239.000000	1774904588.983123
21790.395000	2277.405000	26343.270000	30250.080000	14285.070000	-52512.435000	-45672.705000	-18303.120000	-22.560755	-21.039953	-29.971294	-26.778316	-21.616259	-20.099692	-4.939641	-9.155701	0.228900	5.371520	-1.571780	0.835691	-0.206298	0.487731	-1.000000	-1.000000	-1.000000	-1.000000	-1.000000	-1.000000	-1.000000	84.620690	0.000000	-1.000000	-1.000000	327240.000000	1774904588.983131
21771.270000	2265.030000	26326.845000	30231.855000	14268.420000	-52527.510000	-45697.815000	-18311.220000	15.682173	18.074582	14.425262	14.247131	17.800939	18.187420	23.262730	22.250861	-2.823100	4.379620	-1.922760	0.837644	-0.206359	0.487792	-1.000000	-1.000000	-1.000000	-1.000000	-1.000000	-1.000000	-1.000000	84.620690	0.000000	-1.000000	-1.000000	327241.000000	1774904588.987025
21756.015000	2261.745000	26315.235000	30233.385000	14272.110000	-52524.000000	-45677.610000	-18308.745000	40.505357	43.537503	43.325057	41.892405	43.484999	42.992759	37.035693	39.739849	-2.823100	4.379620	-1.922760	0.837644	-0.206359	0.487792	-1.000000	-1.000000	-1.000000	-1.000000	-1.000000	-1.000000	-1.000000	84.620690	0.000000	-1.000000	-1.000000	327242.000000	1774904588.987035
21769.920000	2271.465000	26302.545000	30242.340000	14284.665000	-52512.210000	-45662.445000	-18294.435000	43.562056	46.758020	46.502406	46.972697	47.465185	46.749374	32.374570	36.673275	-2.823100	4.379620	-1.922760	0.837644	-0.206359	0.487792	-1.000000	-1.000000	-1.000000	-1.000000	-1.000000	-1.000000	-1.000000	84.620690	0.000000	-1.000000	-1.000000	327243.000000	1774904588.991569
21785.175000	2284.020000	26316.945000	30249.135000	14291.910000	-52506.270000	-45670.095000	-18294.930000	31.637947	33.915138	32.277672	35.748465	35.870131	35.380289	18.128292	20.868210	-2.823100	4.379620	-1.922760	0.837644	-0.206359	0.487792	-1.000000	-1.000000	-1.000000	-1.000000	-1.000000	-1.000000	-1.000000	84.620690	0.000000	-1.000000	-1.000000	327244.000000	1774904588.991578
21808.665000	2303.055000	26360.505000	30263.085000	14296.680000	-52502.355000	-45677.970000	-18315.810000	17.432258	17.527694	16.159811	19.835767	19.257716	18.932994	4.674542	4.556011	-2.823100	4.379620	-1.922760	0.837644	-0.206359	0.487792	-1.000000	-1.000000	-1.000000	-1.000000	-1.000000	-1.000000	-1.000000	84.620690	0.000000	-1.000000	-1.000000	327245.000000	1774904588.995215
21796.200000	2274.075000	26359.830000	30252.015000	14281.155000	-52514.280000	-45673.515000	-18333.225000	7.211234	4.243251	6.243307	5.491683	3.168976	2.748396	-4.428090	-6.635009	-2.823100	4.379620	-1.922760	0.837644	-0.206359	0.487792	-1.000000	-1.000000	-1.000000	-1.000000	-1.000000	-1.000000	-1.000000	84.620690	0.000000	-1.000000	-1.000000	327246.000000	1774904588.995224
21786.480000	2257.965000	26333.550000	30233.655000	14265.945000	-52528.140000	-45683.955000	-18309.015000	-1.920326	-8.488694	-1.291113	-8.270142	-12.597773	-12.985047	-10.902449	-13.401038	-2.823100	4.379620	-1.922760	0.837644	-0.206359	0.487792	-1.000000	-1.000000	-1.000000	-1.000000	-1.000000	-1.000000	-1.000000	84.620690	0.000000	-1.000000	-1.000000	327247.000000	1774904588.999222
21763.485000	2252.880000	26321.760000	30228.975000	14262.210000	-52531.965000	-45689.850000	-18307.845000	-13.867289	-23.017131	-12.395058	-22.397241	-27.330554	-27.246782	-16.273168	-16.214575	-2.823100	4.379620	-1.922760	0.837644	-0.206359	0.487792	-1.000000	-1.000000	-1.000000	-1.000000	-1.000000	-1.000000	-1.000000	84.620690	0.000000	-1.000000	-1.000000	327248.000000	1774904588.999233
21752.865000	2263.320000	26327.925000	30240.180000	14273.595000	-52520.130000	-45677.295000	-18311.715000	-26.265115	-33.829589	-24.760573	-31.919982	-35.294564	-34.669703	-18.917654	-14.376217	-2.823100	4.379620	-1.922760	0.837644	-0.206359	0.487792	-1.000000	-1.000000	-1.000000	-1.000000	-1.000000	-1.000000	-1.000000	84.620690	0.000000	-1.000000	-1.000000	327249.000000	1774904589.003094
21847.095000	2353.455000	26406.630000	30319.830000	14354.685000	-52444.395000	-45636.795000	-18235.845000	-30.735614	-31.648111	-29.170765	-29.087917	-29.444184	-28.828370	-15.448876	-8.109961	-2.823100	4.379620	-1.922760	0.837644	-0.206359	0.487792	-1.000000	-1.000000	-1.000000	-1.000000	-1.000000	-1.000000	-1.000000	84.620690	0.000000	-1.000000	-1.000000	327250.000000	1774904589.003105
21974.310000	2465.955000	26515.755000	30422.565000	14459.940000	-52343.235000	-45583.650000	-18151.470000	-18.466835	-11.727132	-17.484264	-10.315304	-7.596317	-7.739782	-4.657139	2.450396	-3.097780	4.684820	-1.449700	0.837766	-0.206726	0.490111	-1.000000	-1.000000	-1.000000	-1.000000	-1.000000	-1.000000	-1.000000	84.620690	0.000000	-1.000000	-1.000000	327251.000000	1774904589.007830
21969.405000	2437.965000	26493.300000	30396.420000	14432.085000	-52369.380000	-45604.440000	-18221.130000	9.175526	18.993901	8.306762	17.717178	22.235834	21.062712	9.565025	14.438543	-3.097780	4.684820	-1.449700	0.837766	-0.206726	0.490111	-1.000000	-1.000000	-1.000000	-1.000000	-1.000000	-1.000000	-1.000000	84.620690	0.000000	-1.000000	-1.000000	327252.000000	1774904589.007841
21823.920000	2279.295000	26341.740000	30245.535000	14276.835000	-52518.465000	-45680.940000	-18282.330000	33.593578	40.004806	30.451500	36.405244	40.681822	39.140116	18.607460	18.769831	-3.097780	4.684820	-1.449700	0.837766	-0.206726	0.490111	-1.000000	-1.000000	-1.000000	-1.000000	-1.000000	-1.000000	-1.000000	84.620690	0.000000	-1.000000	-1.000000	327253.000000	1774904589.015757
21679.830000	2165.445000	26242.110000	30156.030000	14189.220000	-52603.740000	-45718.830000	-18350.190000	30.904338	30.839542	26.599496	27.398721	29.755551	29.088080	14.666741	8.283871	-3.097780	4.684820	-1.449700	0.837766	-0.206726	0.490111	-1.000000	-1.000000	-1.000000	-1.000000	-1.000000	-1.000000	-1.000000	84.620690	0.000000	-1.000000	-1.000000	327254.000000	1774904589.015767
21728.295000	2237.535000	26308.755000	30223.125000	14256.855000	-52539.525000	-45688.905000	-18367.200000	-2.143872	-5.651001	-4.690078	-6.219594	-6.093197	-5.166670	-0.653371	-12.730404	-3.097780	4.684820	-1.449700	0.837766	-0.206726	0.490111	-1.000000	-1.000000	-1.000000	-1.000000	-1.000000	-1.000000	-1.000000	84.620690	0.000000	-1.000000	-1.000000	327255.000000	1774904589.015777
21742.425000	2245.590000	26282.160000	30215.340000	14255.505000	-52539.390000	-45688.140000	-18392.130000	-39.767610	-40.874393	-37.859317	-38.263763	-39.482240	-37.466863	-15.617851	-31.467812	-3.097780	4.684820	-1.449700	0.837766	-0.206726	0.490111	-1.000000	-1.000000	-1.000000	-1.000000	-1.000000	-1.000000	-1.000000	84.620690	0.000000	-1.000000	-1.000000	327256.000000	1774904589.015782
21730.275000	2206.260000	26215.155000	30157.155000	14204.835000	-52584.615000	-45705.510000	-18380.970000	-51.986217	-48.804409	-47.618110	-45.786068	-47.100243	-45.145257	-19.599500	-35.986950	-3.097780	4.684820	-1.449700	0.837766	-0.206726	0.490111	-1.000000	-1.000000	-1.000000	-1.000000	-1.000000	-1.000000	-1.000000	84.620690	0.000000	-1.000000	-1.000000	327257.000000	1774904589.019176
21751.425000	2219.625000	26254.935000	30177.990000	14218.560000	-52571.070000	-45701.145000	-18322.290000	-31.613742	-28.426743	-30.937215	-28.315334	-28.883026	-27.760835	-12.126070	-21.944324	-3.097780	4.684820	-1.449700	0.837766	-0.206726	0.490111	-1.000000	-1.000000	-1.000000	-1.000000	-1.000000	-1.000000	-1.000000	84.620690	0.000000	-1.000000	-1.000000	327258.000000	1774904589.019185
21753.945000	2212.470000	26305.740000	30198.510000	14233.050000	-52557.705000	-45692.190000	-18309.555000	4.555619	2.377567	-0.571869	-0.501726	-0.585271	-0.380496	-0.340807	4.106927	-3.097780	4.684820	-1.449700	0.837766	-0.206726	0.490111	-1.000000	-1.000000	-1.000000	-1.000000	-1.000000	-1.000000	-1.000000	84.620690	0.000000	-1.000000	-1.000000	327259.000000	1774904589.023055
21756.420000	2226.960000	26312.040000	30210.930000	14249.970000	-52541.820000	-45683.550000	-18340.335000	32.358463	24.488005	27.882390	22.329281	21.666507	21.239364	8.447587	27.273797	-3.097780	4.684820	-1.449700	0.837766	-0.206726	0.490111	-1.000000	-1.000000	-1.000000	-1.000000	-1.000000	-1.000000	-1.000000	84.620690	0.000000	-1.000000	-1.000000	327260.000000	1774904589.023065
21776.805000	2266.785000	26313.075000	30235.545000	14273.460000	-52518.870000	-45671.355000	-18336.465000	39.924198	32.112187	44.023675	33.792723	32.070038	31.228309	12.484297	36.346630	-0.366240	4.913720	-1.526000	0.839414	-0.208373	0.490355	-1.000000	-1.000000	-1.000000	-1.000000	-1.000000	-1.000000	-1.000000	84.620690	0.000000	-1.000000	-1.000000	327261.000000	1774904589.028948
21849.570000	2332.260000	26396.370000	30301.110000	14329.530000	-52465.365000	-45635.670000	-18235.305000	35.411798	34.560013	48.159853	38.716350	36.544471	35.213114	15.547822	33.827790	-0.366240	4.913720	-1.526000	0.839414	-0.208373	0.490355	-1.000000	-1.000000	-1.000000	-1.000000	-1.000000	-1.000000	-1.000000	84.620690	0.000000	-1.000000	-1.000000	327262.000000	1774904589.028962
21869.055000	2345.310000	26423.595000	30323.745000	14350.455000	-52445.340000	-45627.030000	-18218.115000	32.599784	39.916458	45.820243	42.345404	40.577900	38.646166	19.791697	29.353853	-0.366240	4.913720	-1.526000	0.839414	-0.208373	0.490355	-1.000000	-1.000000	-1.000000	-1.000000	-1.000000	-1.000000	-1.000000	84.620690	0.000000	-1.000000	-1.000000	327263.000000	1774904589.031218
21804.345000	2281.095000	26352.855000	30264.300000	14293.125000	-52501.905000	-45682.110000	-18298.125000	30.321509	40.021798	34.952216	38.354584	37.467105	35.306601	19.908728	24.038310	-0.366240	4.913720	-1.526000	0.839414	-0.208373	0.490355	-1.000000	-1.000000	-1.000000	-1.000000	-1.000000	-1.000000	-1.000000	84.620690	0.000000	-1.000000	-1.000000	327264.000000	1774904589.031224
21740.625000	2224.395000	26290.170000	30198.960000	14228.550000	-52565.085000	-45701.685000	-18337.815000	15.190748	20.480407	8.892743	16.358708	16.463719	14.934863	8.921184	9.473640	-0.366240	4.913720	-1.526000	0.839414	-0.208373	0.490355	-1.000000	-1.000000	-1.000000	-1.000000	-1.000000	-1.000000	-1.000000	84.620690	0.000000	-1.000000	-1.000000	327265.000000	1774904589.041176
21783.555000	2272.185000	26338.635000	30242.520000	14273.820000	-52521.210000	-45652.500000	-18300.555000	-15.413460	-16.416387	-26.935530	-19.522504	-18.571002	-18.802990	-10.176728	-16.209459	-0.366240	4.913720	-1.526000	0.839414	-0.208373	0.490355	-1.000000	-1.000000	-1.000000	-1.000000	-1.000000	-1.000000	-1.000000	84.620690	0.000000	-1.000000	-1.000000	327266.000000	1774904589.041186
21802.230000	2290.770000	26360.910000	30268.350000	14302.395000	-52491.960000	-45632.205000	-18280.215000	-45.614823	-49.868823	-54.721788	-50.052826	-48.353709	-47.278948	-24.981983	-41.619622	-0.366240	4.913720	-1.526000	0.839414	-0.208373	0.490355	-1.000000	-1.000000	-1.000000	-1.000000	-1.000000	-1.000000	-1.000000	84.620690	0.000000	-1.000000	-1.000000	327267.000000	1774904589.041197
21776.670000	2259.810000	26331.615000	30243.555000	14277.960000	-52515.045000	-45663.795000	-18306.540000	-58.189405	-61.717063	-61.987624	-59.694110	-57.203212	-55.219449	-27.318902	-53.147947	-0.366240	4.913720	-1.526000	0.839414	-0.208373	0.490355	-1.000000	-1.000000	-1.000000	-1.000000	-1.000000	-1.000000	-1.000000	84.620690	0.000000	-1.000000	-1.000000	327268.000000	1774904589.041202
