Channel1	Channel2	Channel3	Channel4	Channel5	Channel6	Channel7	Channel8	FilteredChannel1	FilteredChannel2	FilteredChannel3	FilteredChannel4	FilteredChannel5	FilteredChannel6	FilteredChannel7	FilteredChannel8	GyroX	GyroY	GyroZ	AccX	AccY	AccZ	PPG1	PPG2	rawPPG1	rawPPG2	rawPPG3	Hr	Hrv	Battery	Trigger	PhysicalTrigger	AutoTrigger	NumMeasurements	Timestamp
1939.230000	-11158.605000	7169.400000	1875.330000	-22453.740000	-18777.375000	-3628.620000	574.605000	-14.561165	-10.909933	7.824634	11.691620	13.290761	11.541630	7.976392	-17.959282	3.601360	6.561800	-3.326680	0.700255	0.031921	0.677427	-1.000000	-1.000000	-1.000000	-1.000000	-1.000000	-1.000000	-1.000000	87.586207	0.000000	-1.000000	-1.000000	333192.000000	1772894378.090763
1910.385000	-11204.640000	7103.835000	1812.645000	-22512.420000	-18819.360000	-3647.160000	547.245000	-6.424152	-6.132504	10.827155	16.301213	17.420272	13.997404	1.866390	-24.232937	3.601360	6.561800	-3.326680	0.700255	0.031921	0.677427	-1.000000	-1.000000	-1.000000	-1.000000	-1.000000	-1.000000	-1.000000	87.586207	0.000000	-1.000000	-1.000000	333193.000000	1772894378.094696
1931.535000	-11226.285000	7060.455000	1770.075000	-22558.410000	-18857.970000	-3658.095000	559.665000	3.706107	-1.941585	5.096152	9.841944	9.997679	7.494142	-6.216092	-22.158413	3.601360	6.561800	-3.326680	0.700255	0.031921	0.677427	-1.000000	-1.000000	-1.000000	-1.000000	-1.000000	-1.000000	-1.000000	87.586207	0.000000	-1.000000	-1.000000	333194.000000	1772894378.094704
1938.150000	-11214.540000	7073.055000	1778.130000	-22550.355000	-18856.755000	-3659.805000	603.045000	11.032570	-0.604377	-6.924414	-4.439139	-5.207028	-4.465116	-11.787605	-15.121120	3.601360	6.561800	-3.326680	0.700255	0.031921	0.677427	-1.000000	-1.000000	-1.000000	-1.000000	-1.000000	-1.000000	-1.000000	87.586207	0.000000	-1.000000	-1.000000	333195.000000	1772894378.103108
1910.520000	-11199.645000	7089.435000	1789.560000	-22538.385000	-18846.540000	-3658.725000	587.655000	13.468812	0.041441	-16.069716	-16.456531	-17.675585	-14.047424	-12.452459	-4.249864	3.601360	6.561800	-3.326680	0.700255	0.031921	0.677427	-1.000000	-1.000000	-1.000000	-1.000000	-1.000000	-1.000000	-1.000000	87.586207	0.000000	-1.000000	-1.000000	333196.000000	1772894378.103118
1894.770000	-11193.345000	7103.520000	1809.630000	-22521.375000	-18832.410000	-3650.130000	557.370000	10.698814	3.029988	-14.993741	-18.049079	-19.115969	-15.140415	-8.304295	7.146426	3.601360	6.561800	-3.326680	0.700255	0.031921	0.677427	-1.000000	-1.000000	-1.000000	-1.000000	-1.000000	-1.000000	-1.000000	87.586207	0.000000	-1.000000	-1.000000	333197.000000	1772894378.103129
1888.470000	-11200.185000	7114.635000	1835.280000	-22493.070000	-18804.195000	-3634.650000	540.360000	4.819653	7.885655	-4.289596	-8.529655	-9.091419	-7.090166	-0.616723	13.340929	3.601360	6.561800	-3.326680	0.700255	0.031921	0.677427	-1.000000	-1.000000	-1.000000	-1.000000	-1.000000	-1.000000	-1.000000	87.586207	0.000000	-1.000000	-1.000000	333198.000000	1772894378.103132
1911.060000	-11192.625000	7131.510000	1846.170000	-22486.410000	-18801.180000	-3640.365000	557.505000	-0.507892	10.582310	8.835110	5.905512	5.943920	5.438593	8.239724	13.039796	3.601360	6.561800	-3.326680	0.700255	0.031921	0.677427	-1.000000	-1.000000	-1.000000	-1.000000	-1.000000	-1.000000	-1.000000	87.586207	0.000000	-1.000000	-1.000000	333199.000000	1772894378.106644
1909.350000	-11196.180000	7123.410000	1834.335000	-22498.470000	-18813.645000	-3643.920000	562.725000	-3.060722	7.901833	16.214504	16.197150	16.708495	14.661532	14.275077	10.374136	3.601360	6.561800	-3.326680	0.700255	0.031921	0.677427	-1.000000	-1.000000	-1.000000	-1.000000	-1.000000	-1.000000	-1.000000	87.586207	0.000000	-1.000000	-1.000000	333200.000000	1772894378.106652
1893.870000	-11218.050000	7105.950000	1824.165000	-22502.745000	-18815.580000	-3645.630000	536.445000	-3.177630	0.748490	14.122631	16.471460	17.114013	14.750961	14.250549	8.829190	-0.152600	5.173140	-4.074420	0.697630	0.041077	0.675352	-1.000000	-1.000000	-1.000000	-1.000000	-1.000000	-1.000000	-1.000000	87.586207	0.000000	-1.000000	-1.000000	333201.000000	1772894378.111204
1895.445000	-11226.735000	7096.545000	1822.455000	-22503.015000	-18811.575000	-3643.020000	541.035000	-2.210582	-6.432159	5.805561	8.826758	9.323395	7.278810	8.801736	7.532721	-0.152600	5.173140	-4.074420	0.697630	0.041077	0.675352	-1.000000	-1.000000	-1.000000	-1.000000	-1.000000	-1.000000	-1.000000	87.586207	0.000000	-1.000000	-1.000000	333202.000000	1772894378.111213
1923.435000	-11209.050000	7096.860000	1813.725000	-22514.400000	-18821.970000	-3638.790000	577.170000	-0.914401	-8.823922	-1.730697	0.492784	0.816142	-0.771691	1.601839	4.218578	-0.152600	5.173140	-4.074420	0.697630	0.041077	0.675352	-1.000000	-1.000000	-1.000000	-1.000000	-1.000000	-1.000000	-1.000000	87.586207	0.000000	-1.000000	-1.000000	333203.000000	1772894378.119933
1897.020000	-11206.395000	7089.795000	1795.860000	-22536.315000	-18845.370000	-3643.515000	581.130000	0.331090	-5.292770	-4.924677	-4.547993	-4.390325	-5.288069	-4.219809	-0.871725	-0.152600	5.173140	-4.074420	0.697630	0.041077	0.675352	-1.000000	-1.000000	-1.000000	-1.000000	-1.000000	-1.000000	-1.000000	87.586207	0.000000	-1.000000	-1.000000	333204.000000	1772894378.119942
1914.120000	-11200.950000	7098.030000	1801.890000	-22528.890000	-18836.505000	-3632.085000	586.575000	1.271200	0.744352	-5.483378	-7.559659	-7.691385	-7.455700	-7.617779	-5.371598	-0.152600	5.173140	-4.074420	0.697630	0.041077	0.675352	-1.000000	-1.000000	-1.000000	-1.000000	-1.000000	-1.000000	-1.000000	87.586207	0.000000	-1.000000	-1.000000	333205.000000	1772894378.119953
1906.515000	-11205.225000	7098.615000	1805.535000	-22522.545000	-18830.070000	-3635.010000	573.885000	2.369178	4.910910	-5.729389	-9.906764	-10.302778	-8.716825	-8.575153	-7.006950	-0.152600	5.173140	-4.074420	0.697630	0.041077	0.675352	-1.000000	-1.000000	-1.000000	-1.000000	-1.000000	-1.000000	-1.000000	87.586207	0.000000	-1.000000	-1.000000	333206.000000	1772894378.119956
1903.590000	-11195.325000	7111.305000	1820.295000	-22508.640000	-18821.295000	-3645.405000	552.420000	3.374297	5.204765	-5.961015	-10.733979	-11.039082	-8.489532	-7.629502	-5.722944	-0.152600	5.173140	-4.074420	0.697630	0.041077	0.675352	-1.000000	-1.000000	-1.000000	-1.000000	-1.000000	-1.000000	-1.000000	87.586207	0.000000	-1.000000	-1.000000	333207.000000	1772894378.123089
1917.630000	-11175.750000	7130.520000	1839.195000	-22490.820000	-18807.480000	-3653.010000	546.255000	2.492332	2.548809	-5.251386	-8.447724	-8.307350	-5.807161	-5.732893	-4.043497	-0.152600	5.173140	-4.074420	0.697630	0.041077	0.675352	-1.000000	-1.000000	-1.000000	-1.000000	-1.000000	-1.000000	-1.000000	87.586207	0.000000	-1.000000	-1.000000	333208.000000	1772894378.123096
1920.780000	-11165.805000	7142.130000	1851.480000	-22479.525000	-18796.590000	-3654.045000	544.455000	-0.587007	-0.328094	-2.398569	-2.265400	-1.745860	-0.478516	-3.354876	-3.658841	-0.152600	5.173140	-4.074420	0.697630	0.041077	0.675352	-1.000000	-1.000000	-1.000000	-1.000000	-1.000000	-1.000000	-1.000000	87.586207	0.000000	-1.000000	-1.000000	333209.000000	1772894378.126592
1889.370000	-11194.830000	7119.270000	1829.880000	-22497.930000	-18806.310000	-3652.020000	531.315000	-3.866462	-1.291382	2.657646	6.156635	6.521811	5.954582	-0.367996	-3.342825	-0.152600	5.173140	-4.074420	0.697630	0.041077	0.675352	-1.000000	-1.000000	-1.000000	-1.000000	-1.000000	-1.000000	-1.000000	87.586207	0.000000	-1.000000	-1.000000	333210.000000	1772894378.126612
1889.685000	-11208.195000	7104.510000	1815.210000	-22511.205000	-18817.065000	-3646.845000	537.660000	-6.204154	-1.018850	7.491084	12.531959	12.290456	10.326312	3.100451	-2.001532	-8.576120	3.937080	-2.105880	0.686217	0.049011	0.683714	-1.000000	-1.000000	-1.000000	-1.000000	-1.000000	-1.000000	-1.000000	87.586207	0.000000	-1.000000	-1.000000	333211.000000	1772894378.130870
1913.625000	-11221.830000	7090.560000	1799.955000	-22528.305000	-18836.640000	-3645.540000	570.600000	-7.279630	-2.015085	8.525392	12.919315	12.254428	10.051892	6.104914	-0.333433	-8.576120	3.937080	-2.105880	0.686217	0.049011	0.683714	-1.000000	-1.000000	-1.000000	-1.000000	-1.000000	-1.000000	-1.000000	87.586207	0.000000	-1.000000	-1.000000	333212.000000	1772894378.130874
1940.355000	-11226.645000	7090.425000	1803.420000	-22523.265000	-18833.265000	-3629.745000	598.635000	-5.095094	-5.176088	4.373870	7.082002	6.605893	5.211761	7.461221	1.756716	-8.576120	3.937080	-2.105880	0.686217	0.049011	0.683714	-1.000000	-1.000000	-1.000000	-1.000000	-1.000000	-1.000000	-1.000000	87.586207	0.000000	-1.000000	-1.000000	333213.000000	1772894378.140462
1928.160000	-11222.280000	7094.880000	1815.705000	-22509.045000	-18818.280000	-3616.470000	591.660000	1.364975	-8.197815	-2.548561	-1.325662	-1.164788	-1.371391	6.817602	5.127890	-8.576120	3.937080	-2.105880	0.686217	0.049011	0.683714	-1.000000	-1.000000	-1.000000	-1.000000	-1.000000	-1.000000	-1.000000	87.586207	0.000000	-1.000000	-1.000000	333214.000000	1772894378.140469
1862.820000	-11211.840000	7102.845000	1823.760000	-22500.630000	-18813.150000	-3625.020000	548.100000	7.643921	-7.664880	-7.935800	-7.727289	-6.977731	-6.233074	4.562493	8.109604	-8.576120	3.937080	-2.105880	0.686217	0.049011	0.683714	-1.000000	-1.000000	-1.000000	-1.000000	-1.000000	-1.000000	-1.000000	87.586207	0.000000	-1.000000	-1.000000	333215.000000	1772894378.140478
1901.520000	-11189.340000	7115.220000	1824.255000	-22502.745000	-18820.125000	-3642.165000	557.820000	7.711639	-2.435840	-8.931273	-9.853237	-8.989319	-7.826783	1.034586	7.436024	-8.576120	3.937080	-2.105880	0.686217	0.049011	0.683714	-1.000000	-1.000000	-1.000000	-1.000000	-1.000000	-1.000000	-1.000000	87.586207	0.000000	-1.000000	-1.000000	333216.000000	1772894378.140482
1912.635000	-11188.935000	7119.720000	1823.490000	-22504.005000	-18821.565000	-3650.040000	563.175000	2.074353	5.000893	-5.720297	-8.369774	-7.947624	-6.914962	-3.278685	2.941260	-8.576120	3.937080	-2.105880	0.686217	0.049011	0.683714	-1.000000	-1.000000	-1.000000	-1.000000	-1.000000	-1.000000	-1.000000	87.586207	0.000000	-1.000000	-1.000000	333217.000000	1772894378.144531
1904.220000	-11205.135000	7100.775000	1807.605000	-22522.365000	-18836.820000	-3665.880000	553.950000	-3.274231	10.392913	-0.610177	-5.055504	-5.438590	-4.910810	-7.211632	-2.123267	-8.576120	3.937080	-2.105880	0.686217	0.049011	0.683714	-1.000000	-1.000000	-1.000000	-1.000000	-1.000000	-1.000000	-1.000000	87.586207	0.000000	-1.000000	-1.000000	333218.000000	1772894378.144539
1862.730000	-11232.270000	7068.510000	1775.610000	-22560.255000	-18863.460000	-3673.755000	542.070000	-4.701193	10.945135	3.703427	-1.339831	-2.684914	-2.733233	-9.403906	-5.221958	-8.576120	3.937080	-2.105880	0.686217	0.049011	0.683714	-1.000000	-1.000000	-1.000000	-1.000000	-1.000000	-1.000000	-1.000000	87.586207	0.000000	-1.000000	-1.000000	333219.000000	1772894378.146721
1872.270000	-11201.220000	7097.130000	1804.185000	-22529.430000	-18838.080000	-3659.985000	536.085000	-3.649875	7.222519	5.902115	2.274789	0.156172	-0.194609	-8.740566	-6.710186	-8.576120	3.937080	-2.105880	0.686217	0.049011	0.683714	-1.000000	-1.000000	-1.000000	-1.000000	-1.000000	-1.000000	-1.000000	87.586207	0.000000	-1.000000	-1.000000	333220.000000	1772894378.146725
1885.275000	-11164.005000	7138.485000	1847.340000	-22483.890000	-18802.305000	-3654.945000	495.810000	-2.497080	2.974171	7.309676	6.775624	4.758667	4.330625	-4.677046	-8.646951	-9.888480	5.157880	1.678600	0.687010	0.050720	0.688719	-1.000000	-1.000000	-1.000000	-1.000000	-1.000000	-1.000000	-1.000000	87.586207	0.000000	-1.000000	-1.000000	333221.000000	1772894378.152220
1893.240000	-11176.380000	7143.930000	1849.770000	-22479.660000	-18802.080000	-3664.395000	488.340000	-1.294690	1.409021	9.434759	12.238523	11.571824	10.835022	1.270164	-11.760526	-9.888480	5.157880	1.678600	0.687010	0.050720	0.688719	-1.000000	-1.000000	-1.000000	-1.000000	-1.000000	-1.000000	-1.000000	87.586207	0.000000	-1.000000	-1.000000	333222.000000	1772894378.152228
1906.740000	-11231.280000	7088.940000	1792.440000	-22536.045000	-18847.080000	-3672.720000	579.330000	1.451766	0.476905	9.582763	14.097363	15.399299	14.250155	5.665742	-11.462674	-9.888480	5.157880	1.678600	0.687010	0.050720	0.688719	-1.000000	-1.000000	-1.000000	-1.000000	-1.000000	-1.000000	-1.000000	87.586207	0.000000	-1.000000	-1.000000	333223.000000	1772894378.154781
1878.930000	-11250.855000	7062.660000	1768.455000	-22559.220000	-18860.445000	-3659.400000	571.770000	6.159023	-4.663985	2.802332	6.626045	9.400697	8.814713	6.814466	-1.054848	-9.888480	5.157880	1.678600	0.687010	0.050720	0.688719	-1.000000	-1.000000	-1.000000	-1.000000	-1.000000	-1.000000	-1.000000	87.586207	0.000000	-1.000000	-1.000000	333224.000000	1772894378.154788
1876.770000	-11223.540000	7091.325000	1797.615000	-22531.455000	-18836.190000	-3639.105000	546.120000	9.266573	-13.581100	-10.047544	-8.119392	-5.048820	-3.598613	6.652776	16.257172	-9.888480	5.157880	1.678600	0.687010	0.050720	0.688719	-1.000000	-1.000000	-1.000000	-1.000000	-1.000000	-1.000000	-1.000000	87.586207	0.000000	-1.000000	-1.000000	333225.000000	1772894378.162893
1888.695000	-11214.675000	7099.605000	1806.030000	-22523.040000	-18831.870000	-3635.820000	556.785000	6.642186	-18.859397	-20.102628	-19.586829	-17.410974	-13.902147	7.460927	27.447358	-9.888480	5.157880	1.678600	0.687010	0.050720	0.688719	-1.000000	-1.000000	-1.000000	-1.000000	-1.000000	-1.000000	-1.000000	87.586207	0.000000	-1.000000	-1.000000	333226.000000	1772894378.162900
1895.760000	-11215.305000	7098.210000	1805.805000	-22522.140000	-18834.525000	-3644.505000	563.535000	0.335277	-13.778570	-18.754267	-18.772456	-18.167576	-14.800713	8.423841	24.640152	-9.888480	5.157880	1.678600	0.687010	0.050720	0.688719	-1.000000	-1.000000	-1.000000	-1.000000	-1.000000	-1.000000	-1.000000	87.586207	0.000000	-1.000000	-1.000000	333227.000000	1772894378.162909
1893.465000	-11204.910000	7108.515000	1815.390000	-22516.245000	-18833.085000	-3659.085000	561.960000	-3.848778	0.545730	-5.760666	-6.022997	-6.908399	-6.559277	6.543827	11.001015	-9.888480	5.157880	1.678600	0.687010	0.050720	0.688719	-1.000000	-1.000000	-1.000000	-1.000000	-1.000000	-1.000000	-1.000000	87.586207	0.000000	-1.000000	-1.000000	333228.000000	1772894378.162912
1911.195000	-11197.395000	7111.485000	1816.560000	-22516.830000	-18836.460000	-3668.895000	562.770000	-3.710655	15.602513	10.530361	9.869760	8.020643	4.275568	0.041433	-5.452252	-9.888480	5.157880	1.678600	0.687010	0.050720	0.688719	-1.000000	-1.000000	-1.000000	-1.000000	-1.000000	-1.000000	-1.000000	87.586207	0.000000	-1.000000	-1.000000	333229.000000	1772894378.171981
1911.195000	-11234.655000	7075.485000	1785.780000	-22542.075000	-18852.615000	-3659.940000	575.055000	-1.671996	21.568214	18.983838	17.844314	15.640682	9.811977	-8.984853	-17.029721	-9.888480	5.157880	1.678600	0.687010	0.050720	0.688719	-1.000000	-1.000000	-1.000000	-1.000000	-1.000000	-1.000000	-1.000000	87.586207	0.000000	-1.000000	-1.000000	333230.000000	1772894378.171991
1913.130000	-11224.440000	7080.795000	1807.065000	-22518.315000	-18831.375000	-3651.840000	532.620000	-0.780846	15.149697	14.423526	13.312405	11.475948	7.285600	-15.133635	-20.360528	-3.357200	6.897520	1.052940	0.699644	0.042236	0.681151	-1.000000	-1.000000	-1.000000	-1.000000	-1.000000	-1.000000	-1.000000	87.586207	0.000000	-1.000000	-1.000000	333231.000000	1772894378.172002
1876.770000	-11217.960000	7082.685000	1813.500000	-22506.030000	-18816.570000	-3645.945000	500.355000	-2.016441	2.916243	2.599179	2.590989	1.861558	1.647500	-14.050150	-18.917465	-3.357200	6.897520	1.052940	0.699644	0.042236	0.681151	-1.000000	-1.000000	-1.000000	-1.000000	-1.000000	-1.000000	-1.000000	87.586207	0.000000	-1.000000	-1.000000	333232.000000	1772894378.172006
1858.725000	-11205.990000	7106.040000	1832.895000	-22487.355000	-18791.505000	-3619.710000	519.435000	-4.670153	-5.773211	-6.131433	-4.513687	-3.776896	-0.521612	-6.099543	-16.492717	-3.357200	6.897520	1.052940	0.699644	0.042236	0.681151	-1.000000	-1.000000	-1.000000	-1.000000	-1.000000	-1.000000	-1.000000	87.586207	0.000000	-1.000000	-1.000000	333233.000000	1772894378.174587
1876.995000	-11211.390000	7106.625000	1819.710000	-22502.205000	-18806.040000	-3638.745000	517.905000	-7.067161	-7.964788	-7.209370	-5.111052	-3.286760	1.394903	3.968509	-10.996725	-3.357200	6.897520	1.052940	0.699644	0.042236	0.681151	-1.000000	-1.000000	-1.000000	-1.000000	-1.000000	-1.000000	-1.000000	87.586207	0.000000	-1.000000	-1.000000	333234.000000	1772894378.174621
1897.830000	-11191.995000	7107.480000	1799.730000	-22528.395000	-18838.395000	-3674.655000	536.535000	-6.514997	-6.249831	-3.348538	-3.301598	-1.513020	2.547975	9.832560	-0.141315	-3.357200	6.897520	1.052940	0.699644	0.042236	0.681151	-1.000000	-1.000000	-1.000000	-1.000000	-1.000000	-1.000000	-1.000000	87.586207	0.000000	-1.000000	-1.000000	333235.000000	1772894378.179973
1920.735000	-11209.005000	7096.635000	1788.075000	-22547.655000	-18862.965000	-3691.035000	565.290000	-1.072667	-3.263306	0.910987	-3.142127	-2.725257	-0.906700	7.978839	13.223996	-3.357200	6.897520	1.052940	0.699644	0.042236	0.681151	-1.000000	-1.000000	-1.000000	-1.000000	-1.000000	-1.000000	-1.000000	87.586207	0.000000	-1.000000	-1.000000	333236.000000	1772894378.179980
1925.685000	-11223.720000	7086.645000	1783.710000	-22551.705000	-18867.105000	-3684.600000	611.730000	7.489886	-1.239999	2.383660	-4.970281	-6.544386	-7.672552	0.968655	24.094415	-3.357200	6.897520	1.052940	0.699644	0.042236	0.681151	-1.000000	-1.000000	-1.000000	-1.000000	-1.000000	-1.000000	-1.000000	87.586207	0.000000	-1.000000	-1.000000	333237.000000	1772894378.182764
1928.385000	-11207.835000	7093.980000	1792.305000	-22540.230000	-18853.470000	-3662.010000	625.905000	13.729466	-1.720956	0.256704	-6.556215	-9.386129	-12.624334	-4.719732	28.598114	-3.357200	6.897520	1.052940	0.699644	0.042236	0.681151	-1.000000	-1.000000	-1.000000	-1.000000	-1.000000	-1.000000	-1.000000	87.586207	0.000000	-1.000000	-1.000000	333238.000000	1772894378.182772
1899.270000	-11198.565000	7113.375000	1818.720000	-22508.415000	-18816.570000	-3642.255000	553.860000	12.591857	-2.716340	-2.691520	-4.923691	-7.339366	-10.741969	-4.396487	23.521245	-3.357200	6.897520	1.052940	0.699644	0.042236	0.681151	-1.000000	-1.000000	-1.000000	-1.000000	-1.000000	-1.000000	-1.000000	87.586207	0.000000	-1.000000	-1.000000	333239.000000	1772894378.189428
1906.200000	-11214.855000	7097.445000	1801.035000	-22527.270000	-18837.225000	-3664.215000	536.130000	4.074284	-1.259373	-2.783429	0.779939	0.173759	-1.664285	0.950770	7.609189	-3.357200	6.897520	1.052940	0.699644	0.042236	0.681151	-1.000000	-1.000000	-1.000000	-1.000000	-1.000000	-1.000000	-1.000000	87.586207	0.000000	-1.000000	-1.000000	333240.000000	1772894378.189435
1935.855000	-11211.255000	7093.845000	1793.790000	-22535.415000	-18844.200000	-3661.155000	565.965000	-5.368814	1.830200	-0.250140	6.960153	8.328795	8.500263	5.842300	-13.077034	2.350040	9.110220	-0.106820	0.707823	0.034851	0.676329	-1.000000	-1.000000	-1.000000	-1.000000	-1.000000	-1.000000	-1.000000	87.586207	0.000000	-1.000000	-1.000000	333241.000000	1772894378.190771
1925.280000	-11187.180000	7123.230000	1827.495000	-22497.165000	-18805.050000	-3632.490000	579.015000	-8.585794	3.866379	1.854105	9.229257	11.676768	13.013740	6.218682	-26.773532	2.350040	9.110220	-0.106820	0.707823	0.034851	0.676329	-1.000000	-1.000000	-1.000000	-1.000000	-1.000000	-1.000000	-1.000000	87.586207	0.000000	-1.000000	-1.000000	333242.000000	1772894378.190777
1902.645000	-11170.035000	7139.250000	1840.680000	-22485.240000	-18788.445000	-3609.315000	585.810000	-5.943636	4.264244	2.420440	7.716708	10.245595	11.670210	3.815648	-26.473860	2.350040	9.110220	-0.106820	0.707823	0.034851	0.676329	-1.000000	-1.000000	-1.000000	-1.000000	-1.000000	-1.000000	-1.000000	87.586207	0.000000	-1.000000	-1.000000	333243.000000	1772894378.197394
1900.530000	-11167.200000	7147.170000	1847.160000	-22487.175000	-18796.860000	-3628.305000	560.430000	-3.521950	3.938073	2.738827	5.661083	7.611127	8.689528	2.740233	-15.537774	2.350040	9.110220	-0.106820	0.707823	0.034851	0.676329	-1.000000	-1.000000	-1.000000	-1.000000	-1.000000	-1.000000	-1.000000	87.586207	0.000000	-1.000000	-1.000000	333244.000000	1772894378.197401
1927.125000	-11177.280000	7136.820000	1840.995000	-22490.370000	-18800.730000	-3636.180000	564.120000	-4.144549	3.097382	3.311775	4.361758	5.316841	6.062968	3.209917	-3.323289	2.350040	9.110220	-0.106820	0.707823	0.034851	0.676329	-1.000000	-1.000000	-1.000000	-1.000000	-1.000000	-1.000000	-1.000000	87.586207	0.000000	-1.000000	-1.000000	333245.000000	1772894378.200102
1956.240000	-11194.470000	7114.725000	1820.385000	-22507.380000	-18815.895000	-3637.665000	573.480000	-4.760552	0.943546	2.510114	1.924715	1.857980	2.295292	1.930968	3.256717	2.350040	9.110220	-0.106820	0.707823	0.034851	0.676329	-1.000000	-1.000000	-1.000000	-1.000000	-1.000000	-1.000000	-1.000000	87.586207	0.000000	-1.000000	-1.000000	333246.000000	1772894378.200107
1969.740000	-11196.315000	7103.475000	1817.550000	-22506.795000	-18816.930000	-3633.165000	581.490000	-1.546084	-3.030029	-1.373238	-3.573174	-4.309834	-4.258483	-2.924178	4.629620	2.350040	9.110220	-0.106820	0.707823	0.034851	0.676329	-1.000000	-1.000000	-1.000000	-1.000000	-1.000000	-1.000000	-1.000000	87.586207	0.000000	-1.000000	-1.000000	333247.000000	1772894378.202762
1932.570000	-11171.115000	7128.720000	1842.975000	-22487.940000	-18807.075000	-3635.640000	570.060000	4.805993	-6.960561	-6.851428	-10.388043	-11.553869	-12.204242	-9.373875	5.988159	2.350040	9.110220	-0.106820	0.707823	0.034851	0.676329	-1.000000	-1.000000	-1.000000	-1.000000	-1.000000	-1.000000	-1.000000	87.586207	0.000000	-1.000000	-1.000000	333248.000000	1772894378.202769
1905.345000	-11169.810000	7136.730000	1844.415000	-22489.290000	-18809.190000	-3641.130000	558.495000	8.817042	-7.245421	-9.183594	-13.472491	-15.189675	-16.926835	-13.190675	9.862618	2.350040	9.110220	-0.106820	0.707823	0.034851	0.676329	-1.000000	-1.000000	-1.000000	-1.000000	-1.000000	-1.000000	-1.000000	87.586207	0.000000	-1.000000	-1.000000	333249.000000	1772894378.206557
1941.435000	-11177.730000	7134.480000	1845.270000	-22485.690000	-18803.655000	-3634.470000	563.535000	6.457152	-3.237382	-5.735141	-9.985358	-12.254951	-14.853355	-11.696769	12.725383	2.350040	9.110220	-0.106820	0.707823	0.034851	0.676329	-1.000000	-1.000000	-1.000000	-1.000000	-1.000000	-1.000000	-1.000000	87.586207	0.000000	-1.000000	-1.000000	333250.000000	1772894378.206563
1942.380000	-11190.015000	7123.770000	1835.685000	-22493.070000	-18801.855000	-3626.460000	545.310000	0.579458	1.028265	0.158969	-2.973492	-5.143918	-7.410273	-5.946170	10.062552	-2.289000	6.500760	-2.609460	0.701780	0.036194	0.679442	-1.000000	-1.000000	-1.000000	-1.000000	-1.000000	-1.000000	-1.000000	87.586207	0.000000	-1.000000	-1.000000	333251.000000	1772894378.210755
1911.240000	-11183.580000	7124.805000	1835.820000	-22492.035000	-18796.320000	-3623.265000	535.455000	-3.570509	1.714605	3.343169	2.454199	1.497746	1.196370	1.246840	1.886721	-2.289000	6.500760	-2.609460	0.701780	0.036194	0.679442	-1.000000	-1.000000	-1.000000	-1.000000	-1.000000	-1.000000	-1.000000	87.586207	0.000000	-1.000000	-1.000000	333252.000000	1772894378.210764
1896.480000	-11173.365000	7135.155000	1847.655000	-22481.505000	-18792.945000	-3625.290000	562.500000	-5.161678	-0.252180	2.828497	4.597940	5.716686	8.240329	7.795110	-6.929945	-2.289000	6.500760	-2.609460	0.701780	0.036194	0.679442	-1.000000	-1.000000	-1.000000	-1.000000	-1.000000	-1.000000	-1.000000	87.586207	0.000000	-1.000000	-1.000000	333253.000000	1772894378.220108
1897.560000	-11202.615000	7102.845000	1813.905000	-22513.590000	-18821.160000	-3634.245000	578.610000	-6.339977	-1.311430	1.231063	4.763341	7.782672	12.278442	11.997505	-10.545616	-2.289000	6.500760	-2.609460	0.701780	0.036194	0.679442	-1.000000	-1.000000	-1.000000	-1.000000	-1.000000	-1.000000	-1.000000	87.586207	0.000000	-1.000000	-1.000000	333254.000000	1772894378.220141
1897.830000	-11205.270000	7101.675000	1812.960000	-22514.490000	-18820.080000	-3628.980000	568.215000	-7.613562	-0.158325	0.541660	3.937199	7.437635	11.813539	11.985190	-7.578498	-2.289000	6.500760	-2.609460	0.701780	0.036194	0.679442	-1.000000	-1.000000	-1.000000	-1.000000	-1.000000	-1.000000	-1.000000	87.586207	0.000000	-1.000000	-1.000000	333255.000000	1772894378.221068
1894.860000	-11203.515000	7103.970000	1814.580000	-22513.050000	-18813.285000	-3620.745000	553.545000	-6.950304	1.852921	0.952400	2.380124	4.530923	6.971702	7.487786	-1.630440	-2.289000	6.500760	-2.609460	0.701780	0.036194	0.679442	-1.000000	-1.000000	-1.000000	-1.000000	-1.000000	-1.000000	-1.000000	87.586207	0.000000	-1.000000	-1.000000	333256.000000	1772894378.221072
1903.320000	-11201.625000	7104.555000	1813.140000	-22516.425000	-18819.405000	-3627.270000	552.510000	-1.842325	3.143454	1.730634	0.528035	0.359251	0.375088	0.946691	3.367314	-2.289000	6.500760	-2.609460	0.701780	0.036194	0.679442	-1.000000	-1.000000	-1.000000	-1.000000	-1.000000	-1.000000	-1.000000	87.586207	0.000000	-1.000000	-1.000000	333257.000000	1772894378.222620
1917.855000	-11191.770000	7116.795000	1827.540000	-22501.530000	-18807.390000	-3627.540000	556.380000	7.384820	3.267910	2.097025	-0.732712	-2.790450	-4.663042	-4.474756	5.730607	-2.289000	6.500760	-2.609460	0.701780	0.036194	0.679442	-1.000000	-1.000000	-1.000000	-1.000000	-1.000000	-1.000000	-1.000000	87.586207	0.000000	-1.000000	-1.000000	333258.000000	1772894378.222629
1916.370000	-11179.665000	7134.300000	1847.385000	-22483.035000	-18791.190000	-3623.850000	564.705000	15.777875	3.079161	2.275712	-0.167603	-2.890253	-6.027687	-7.239594	5.377088	-2.289000	6.500760	-2.609460	0.701780	0.036194	0.679442	-1.000000	-1.000000	-1.000000	-1.000000	-1.000000	-1.000000	-1.000000	87.586207	0.000000	-1.000000	-1.000000	333259.000000	1772894378.230916
1889.595000	-11191.680000	7130.880000	1845.090000	-22484.475000	-18796.050000	-3640.230000	566.685000	17.276763	3.167314	2.833222	2.415148	0.147476	-3.885316	-7.638472	3.401067	-2.289000	6.500760	-2.609460	0.701780	0.036194	0.679442	-1.000000	-1.000000	-1.000000	-1.000000	-1.000000	-1.000000	-1.000000	87.586207	0.000000	-1.000000	-1.000000	333260.000000	1772894378.230950
1896.570000	-11201.985000	7122.150000	1834.155000	-22495.545000	-18809.190000	-3653.550000	560.160000	10.628861	2.357887	2.960627	4.881295	3.772509	-0.601078	-6.645314	1.121365	-7.462140	5.249440	-1.571780	0.694334	0.042175	0.684202	-1.000000	-1.000000	-1.000000	-1.000000	-1.000000	-1.000000	-1.000000	87.586207	0.000000	-1.000000	-1.000000	333261.000000	1772894378.230989
1923.705000	-11186.955000	7131.105000	1842.570000	-22484.790000	-18796.095000	-3631.365000	581.850000	0.603448	-0.164597	1.489113	4.639054	4.987152	1.519363	-4.352035	-1.247616	-7.462140	5.249440	-1.571780	0.694334	0.042175	0.684202	-1.000000	-1.000000	-1.000000	-1.000000	-1.000000	-1.000000	-1.000000	87.586207	0.000000	-1.000000	-1.000000	333262.000000	1772894378.231011
1949.445000	-11142.675000	7163.100000	1874.880000	-22452.570000	-18763.245000	-3597.030000	574.965000	-6.541837	-1.775555	-0.137628	2.464885	4.018470	2.955631	0.401770	-3.767104	-7.462140	5.249440	-1.571780	0.694334	0.042175	0.684202	-1.000000	-1.000000	-1.000000	-1.000000	-1.000000	-1.000000	-1.000000	87.586207	0.000000	-1.000000	-1.000000	333263.000000	1772894378.234648
1926.585000	-11152.575000	7146.450000	1859.580000	-22471.605000	-18786.555000	-3611.790000	539.820000	-8.348710	0.475699	0.364692	1.125896	3.015524	4.840364	7.028502	-5.907905	-7.462140	5.249440	-1.571780	0.694334	0.042175	0.684202	-1.000000	-1.000000	-1.000000	-1.000000	-1.000000	-1.000000	-1.000000	87.586207	0.000000	-1.000000	-1.000000	333264.000000	1772894378.234656
1904.130000	-11186.775000	7111.395000	1824.795000	-22507.740000	-18825.345000	-3649.365000	533.700000	-7.196494	3.866613	1.113428	-0.115227	1.045610	4.680276	10.870253	-6.931252	-7.462140	5.249440	-1.571780	0.694334	0.042175	0.684202	-1.000000	-1.000000	-1.000000	-1.000000	-1.000000	-1.000000	-1.000000	87.586207	0.000000	-1.000000	-1.000000	333265.000000	1772894378.238640
1935.405000	-11194.020000	7099.200000	1805.220000	-22531.770000	-18849.195000	-3663.270000	575.235000	-6.077443	2.566027	-1.948272	-4.344840	-4.482087	-0.777472	7.513148	-5.399600	-7.462140	5.249440	-1.571780	0.694334	0.042175	0.684202	-1.000000	-1.000000	-1.000000	-1.000000	-1.000000	-1.000000	-1.000000	87.586207	0.000000	-1.000000	-1.000000	333266.000000	1772894378.238645
1920.960000	-11216.745000	7081.920000	1786.635000	-22547.880000	-18859.185000	-3654.045000	597.060000	-5.360252	-4.656252	-8.837493	-11.381536	-12.596235	-9.911723	-1.405316	0.066878	-7.462140	5.249440	-1.571780	0.694334	0.042175	0.684202	-1.000000	-1.000000	-1.000000	-1.000000	-1.000000	-1.000000	-1.000000	87.586207	0.000000	-1.000000	-1.000000	333267.000000	1772894378.242834
1881.360000	-11216.880000	7095.555000	1806.615000	-22520.790000	-18829.080000	-3639.465000	559.170000	-4.812884	-13.146405	-14.849578	-16.769579	-18.162035	-16.503842	-9.200958	7.236979	-7.462140	5.249440	-1.571780	0.694334	0.042175	0.684202	-1.000000	-1.000000	-1.000000	-1.000000	-1.000000	-1.000000	-1.000000	87.586207	0.000000	-1.000000	-1.000000	333268.000000	1772894378.242841
1869.660000	-11198.070000	7116.795000	1833.705000	-22489.920000	-18796.995000	-3623.310000	530.730000	-4.622869	-16.262146	-14.214693	-14.746982	-15.113267	-13.985402	-9.844202	10.160319	-7.462140	5.249440	-1.571780	0.694334	0.042175	0.684202	-1.000000	-1.000000	-1.000000	-1.000000	-1.000000	-1.000000	-1.000000	87.586207	0.000000	-1.000000	-1.000000	333269.000000	1772894378.250583
1874.070000	-11205.090000	7113.735000	1831.995000	-22494.465000	-18803.250000	-3633.390000	542.205000	-3.943335	-10.330703	-4.891402	-3.420614	-2.122154	-1.281264	-2.853558	5.518107	-7.462140	5.249440	-1.571780	0.694334	0.042175	0.684202	-1.000000	-1.000000	-1.000000	-1.000000	-1.000000	-1.000000	-1.000000	87.586207	0.000000	-1.000000	-1.000000	333270.000000	1772894378.250591
1883.925000	-11237.985000	7092.855000	1812.735000	-22514.040000	-18828.045000	-3650.715000	586.305000	-1.865999	1.046298	8.146905	11.352836	13.651561	13.828657	5.619333	-2.796931	-7.813120	4.898460	1.678600	0.695677	0.040649	0.687742	-1.000000	-1.000000	-1.000000	-1.000000	-1.000000	-1.000000	-1.000000	87.586207	0.000000	-1.000000	-1.000000	333271.000000	1772894378.250599
1880.460000	-11244.015000	7088.445000	1804.500000	-22522.455000	-18833.805000	-3649.365000	570.285000	1.299606	9.523578	16.402007	19.940068	21.728522	20.555741	8.165980	-7.415487	-7.813120	4.898460	1.678600	0.695677	0.040649	0.687742	-1.000000	-1.000000	-1.000000	-1.000000	-1.000000	-1.000000	-1.000000	87.586207	0.000000	-1.000000	-1.000000	333272.000000	1772894378.250602
1892.385000	-11201.220000	7111.935000	1821.645000	-22508.010000	-18814.545000	-3619.980000	552.735000	5.219465	11.361084	16.143985	18.067416	18.224317	15.716584	4.187601	-5.030787	-7.813120	4.898460	1.678600	0.695677	0.040649	0.687742	-1.000000	-1.000000	-1.000000	-1.000000	-1.000000	-1.000000	-1.000000	87.586207	0.000000	-1.000000	-1.000000	333273.000000	1772894378.258987
1900.575000	-11207.070000	7093.800000	1798.830000	-22531.455000	-18837.540000	-3631.905000	538.155000	9.726865	10.424697	10.772232	9.729915	8.232043	5.549147	-0.159403	0.808572	-7.813120	4.898460	1.678600	0.695677	0.040649	0.687742	-1.000000	-1.000000	-1.000000	-1.000000	-1.000000	-1.000000	-1.000000	87.586207	0.000000	-1.000000	-1.000000	333274.000000	1772894378.258996
1911.735000	-11206.485000	7108.560000	1818.585000	-22511.205000	-18825.570000	-3655.980000	525.645000	12.857562	10.295376	4.892226	1.278344	-0.970225	-2.613546	-0.949308	3.616227	-7.813120	4.898460	1.678600	0.695677	0.040649	0.687742	-1.000000	-1.000000	-1.000000	-1.000000	-1.000000	-1.000000	-1.000000	87.586207	0.000000	-1.000000	-1.000000	333275.000000	1772894378.259007
1930.725000	-11201.715000	7120.980000	1837.755000	-22492.395000	-18810.900000	-3680.820000	521.100000	12.334531	9.831007	0.505963	-3.512403	-5.415027	-6.046552	-0.827588	0.482568	-7.813120	4.898460	1.678600	0.695677	0.040649	0.687742	-1.000000	-1.000000	-1.000000	-1.000000	-1.000000	-1.000000	-1.000000	87.586207	0.000000	-1.000000	-1.000000	333276.000000	1772894378.259011
1942.560000	-11194.650000	7124.445000	1842.930000	-22488.255000	-18810.540000	-3689.820000	521.685000	9.110570	6.856873	-2.351507	-4.390195	-5.443254	-6.076439	-3.434199	-4.622462	-7.813120	4.898460	1.678600	0.695677	0.040649	0.687742	-1.000000	-1.000000	-1.000000	-1.000000	-1.000000	-1.000000	-1.000000	87.586207	0.000000	-1.000000	-1.000000	333277.000000	1772894378.262809
1905.345000	-11183.490000	7127.370000	1843.605000	-22486.590000	-18801.765000	-3639.915000	574.335000	4.772583	1.145504	-4.724140	-3.966642	-4.325858	-5.481418	-7.130477	-4.764814	-7.813120	4.898460	1.678600	0.695677	0.040649	0.687742	-1.000000	-1.000000	-1.000000	-1.000000	-1.000000	-1.000000	-1.000000	87.586207	0.000000	-1.000000	-1.000000	333278.000000	1772894378.262817
1849.860000	-11182.500000	7124.535000	1833.930000	-22495.185000	-18803.970000	-3612.420000	564.480000	-2.677005	-5.253484	-6.966682	-4.578297	-4.454390	-5.236077	-6.123236	1.895454	-7.813120	4.898460	1.678600	0.695677	0.040649	0.687742	-1.000000	-1.000000	-1.000000	-1.000000	-1.000000	-1.000000	-1.000000	87.586207	0.000000	-1.000000	-1.000000	333279.000000	1772894378.266838
1881.180000	-11191.950000	7106.085000	1807.920000	-22520.835000	-18826.425000	-3626.370000	570.915000	-14.199473	-9.495938	-8.166583	-6.272974	-5.625611	-4.475909	1.597269	9.328604	-7.813120	4.898460	1.678600	0.695677	0.040649	0.687742	-1.000000	-1.000000	-1.000000	-1.000000	-1.000000	-1.000000	-1.000000	87.586207	0.000000	-1.000000	-1.000000	333280.000000	1772894378.266845
1908.270000	-11206.215000	7099.020000	1805.580000	-22520.790000	-18825.210000	-3636.405000	585.360000	-23.208345	-10.805939	-7.929392	-7.950753	-6.706973	-3.120081	10.077495	11.412393	0.183120	4.486440	-0.869820	0.697569	0.030517	0.686827	-1.000000	-1.000000	-1.000000	-1.000000	-1.000000	-1.000000	-1.000000	87.586207	0.000000	-1.000000	-1.000000	333281.000000	1772894378.273075
1933.920000	-11201.355000	7103.385000	1809.810000	-22519.980000	-18826.425000	-3638.970000	575.955000	-21.015788	-10.569993	-6.476516	-7.940398	-6.239217	-1.591220	11.877400	8.339555	0.183120	4.486440	-0.869820	0.697569	0.030517	0.686827	-1.000000	-1.000000	-1.000000	-1.000000	-1.000000	-1.000000	-1.000000	87.586207	0.000000	-1.000000	-1.000000	333282.000000	1772894378.273082
1968.165000	-11191.140000	7112.340000	1816.605000	-22514.445000	-18820.845000	-3631.860000	563.985000	-7.004736	-9.078829	-3.329888	-4.460714	-2.784140	0.601168	6.198840	2.690370	0.183120	4.486440	-0.869820	0.697569	0.030517	0.686827	-1.000000	-1.000000	-1.000000	-1.000000	-1.000000	-1.000000	-1.000000	87.586207	0.000000	-1.000000	-1.000000	333283.000000	1772894378.274830
1988.280000	-11179.980000	7121.160000	1826.955000	-22505.715000	-18816.390000	-3645.045000	573.930000	10.886398	-4.918768	1.585329	2.017626	2.957718	3.501405	-1.656644	-3.882045	0.183120	4.486440	-0.869820	0.697569	0.030517	0.686827	-1.000000	-1.000000	-1.000000	-1.000000	-1.000000	-1.000000	-1.000000	87.586207	0.000000	-1.000000	-1.000000	333284.000000	1772894378.274837
1959.345000	-11158.245000	7144.965000	1851.705000	-22481.055000	-18797.805000	-3648.015000	598.185000	22.435797	2.015079	6.589881	8.271765	7.957662	5.599527	-6.618061	-8.676496	0.183120	4.486440	-0.869820	0.697569	0.030517	0.686827	-1.000000	-1.000000	-1.000000	-1.000000	-1.000000	-1.000000	-1.000000	87.586207	0.000000	-1.000000	-1.000000	333285.000000	1772894378.278830
1957.320000	-11173.455000	7132.185000	1839.870000	-22490.370000	-18802.305000	-3632.670000	632.295000	21.332255	8.812934	9.309169	11.008249	9.540971	5.419217	-7.343997	-8.562654	0.183120	4.486440	-0.869820	0.697569	0.030517	0.686827	-1.000000	-1.000000	-1.000000	-1.000000	-1.000000	-1.000000	-1.000000	87.448276	0.000000	-1.000000	-1.000000	333286.000000	1772894378.278839
1910.655000	-11215.755000	7096.995000	1806.210000	-22522.005000	-18828.810000	-3632.805000	625.185000	9.223488	10.726955	7.653263	8.460111	6.623304	2.496907	-5.648298	-4.215854	0.183120	4.486440	-0.869820	0.697569	0.030517	0.686827	-1.000000	-1.000000	-1.000000	-1.000000	-1.000000	-1.000000	-1.000000	87.448276	0.000000	-1.000000	-1.000000	333287.000000	1772894378.282828
1938.555000	-11207.070000	7097.940000	1805.760000	-22524.345000	-18835.245000	-3652.155000	579.285000	-5.846302	5.617087	1.520195	1.498424	0.246182	-2.337938	-4.344700	-0.872576	0.183120	4.486440	-0.869820	0.697569	0.030517	0.686827	-1.000000	-1.000000	-1.000000	-1.000000	-1.000000	-1.000000	-1.000000	87.448276	0.000000	-1.000000	-1.000000	333288.000000	1772894378.282835
1939.095000	-11194.335000	7109.010000	1817.235000	-22512.375000	-18828.585000	-3652.020000	564.345000	-15.686433	-2.232519	-5.124848	-5.311576	-5.542669	-6.169936	-4.272131	-2.871971	0.183120	4.486440	-0.869820	0.697569	0.030517	0.686827	-1.000000	-1.000000	-1.000000	-1.000000	-1.000000	-1.000000	-1.000000	87.448276	0.000000	-1.000000	-1.000000	333289.000000	1772894378.286752
1907.235000	-11189.115000	7114.410000	1824.480000	-22501.575000	-18814.500000	-3628.440000	559.755000	-17.663699	-6.116090	-7.213695	-7.105449	-6.473359	-5.818123	-3.300914	-8.404525	0.183120	4.486440	-0.869820	0.697569	0.030517	0.686827	-1.000000	-1.000000	-1.000000	-1.000000	-1.000000	-1.000000	-1.000000	87.448276	0.000000	-1.000000	-1.000000	333290.000000	1772894378.286758
1877.130000	-11172.330000	7122.105000	1830.960000	-22492.080000	-18800.640000	-3616.470000	565.605000	-15.136403	-3.742379	-3.701125	-3.369809	-2.147244	-0.898794	0.864353	-11.117890	2.350040	2.319520	-4.562740	0.697264	0.027832	0.683714	-1.000000	-1.000000	-1.000000	-1.000000	-1.000000	-1.000000	-1.000000	87.448276	0.000000	-1.000000	-1.000000	333291.000000	1772894378.290664
1904.625000	-11155.590000	7138.890000	1853.055000	-22467.240000	-18776.340000	-3609.765000	568.260000	-11.712879	2.215612	2.282922	2.518838	4.163115	5.940179	7.406720	-6.569566	2.350040	2.319520	-4.562740	0.697264	0.027832	0.683714	-1.000000	-1.000000	-1.000000	-1.000000	-1.000000	-1.000000	-1.000000	87.448276	0.000000	-1.000000	-1.000000	333292.000000	1772894378.290671
1936.080000	-11139.075000	7184.430000	1906.965000	-22418.955000	-18730.260000	-3591.495000	565.065000	-6.243410	7.481074	7.108626	7.100734	8.776525	11.181201	12.972087	3.456222	2.350040	2.319520	-4.562740	0.697264	0.027832	0.683714	-1.000000	-1.000000	-1.000000	-1.000000	-1.000000	-1.000000	-1.000000	87.448276	0.000000	-1.000000	-1.000000	333293.000000	1772894378.297589
1957.095000	-11141.190000	7185.870000	1902.150000	-22432.005000	-18741.690000	-3601.260000	565.920000	4.337381	8.664678	8.883223	8.648930	9.416425	12.118628	14.260327	12.502746	2.350040	2.319520	-4.562740	0.697264	0.027832	0.683714	-1.000000	-1.000000	-1.000000	-1.000000	-1.000000	-1.000000	-1.000000	87.448276	0.000000	-1.000000	-1.000000	333294.000000	1772894378.297596
1949.355000	-11156.580000	7157.340000	1872.270000	-22460.940000	-18772.740000	-3617.685000	577.935000	18.419744	4.964497	6.791691	6.119953	4.937323	7.051737	8.933444	14.952120	2.350040	2.319520	-4.562740	0.697264	0.027832	0.683714	-1.000000	-1.000000	-1.000000	-1.000000	-1.000000	-1.000000	-1.000000	87.448276	0.000000	-1.000000	-1.000000	333295.000000	1772894378.300290
1932.615000	-11148.210000	7167.060000	1885.095000	-22451.220000	-18766.935000	-3611.115000	578.745000	28.797955	-1.102391	1.330649	-0.037188	-3.244814	-2.875149	-2.264451	10.701255	2.350040	2.319520	-4.562740	0.697264	0.027832	0.683714	-1.000000	-1.000000	-1.000000	-1.000000	-1.000000	-1.000000	-1.000000	87.448276	0.000000	-1.000000	-1.000000	333296.000000	1772894378.300299
1904.310000	-11155.770000	7147.755000	1874.520000	-22456.845000	-18775.800000	-3614.850000	563.175000	27.518359	-5.934387	-5.013058	-6.603515	-10.488494	-12.466105	-13.459209	4.390742	2.350040	2.319520	-4.562740	0.697264	0.027832	0.683714	-1.000000	-1.000000	-1.000000	-1.000000	-1.000000	-1.000000	-1.000000	87.448276	0.000000	-1.000000	-1.000000	333297.000000	1772894378.304016
1928.070000	-11171.385000	7125.480000	1847.745000	-22476.240000	-18791.910000	-3611.430000	572.265000	12.841805	-8.277139	-10.095403	-10.849424	-13.296032	-16.885010	-18.029096	0.179916	2.350040	2.319520	-4.562740	0.697264	0.027832	0.683714	-1.000000	-1.000000	-1.000000	-1.000000	-1.000000	-1.000000	-1.000000	87.448276	0.000000	-1.000000	-1.000000	333298.000000	1772894378.304024
1970.235000	-11175.795000	7125.030000	1827.135000	-22494.150000	-18806.130000	-3623.355000	593.640000	-6.309929	-9.029250	-13.095065	-12.826891	-12.234544	-15.638839	-14.680681	-0.848309	2.350040	2.319520	-4.562740	0.697264	0.027832	0.683714	-1.000000	-1.000000	-1.000000	-1.000000	-1.000000	-1.000000	-1.000000	87.448276	0.000000	-1.000000	-1.000000	333299.000000	1772894378.306530
1956.060000	-11152.890000	7158.465000	1847.115000	-22477.320000	-18793.665000	-3633.705000	584.550000	-17.815233	-8.394211	-12.414770	-12.586825	-9.069107	-10.684425	-7.197322	0.147211	2.350040	2.319520	-4.562740	0.697264	0.027832	0.683714	-1.000000	-1.000000	-1.000000	-1.000000	-1.000000	-1.000000	-1.000000	87.448276	0.000000	-1.000000	-1.000000	333300.000000	1772894378.306538
1929.375000	-11135.115000	7186.410000	1872.180000	-22457.655000	-18773.190000	-3624.885000	567.495000	-19.040838	-5.303943	-6.480598	-8.841078	-4.356583	-3.760414	0.161970	0.392972	-5.722500	0.503580	-3.753960	0.696715	0.038635	0.684446	-1.000000	-1.000000	-1.000000	-1.000000	-1.000000	-1.000000	-1.000000	87.448276	0.000000	-1.000000	-1.000000	333301.000000	1772894378.315542
1937.520000	-11138.265000	7176.780000	1876.005000	-22454.190000	-18764.280000	-3612.870000	585.000000	-15.876882	0.160515	2.529720	-1.812673	1.216367	3.470827	5.669760	-2.103096	-5.722500	0.503580	-3.753960	0.696715	0.038635	0.684446	-1.000000	-1.000000	-1.000000	-1.000000	-1.000000	-1.000000	-1.000000	87.448276	0.000000	-1.000000	-1.000000	333302.000000	1772894378.315550
1950.390000	-11146.950000	7163.685000	1880.010000	-22453.605000	-18764.280000	-3598.020000	603.810000	-12.087673	5.685054	9.393141	6.098880	6.473368	9.494986	9.572404	-5.856564	-5.722500	0.503580	-3.753960	0.696715	0.038635	0.684446	-1.000000	-1.000000	-1.000000	-1.000000	-1.000000	-1.000000	-1.000000	87.448276	0.000000	-1.000000	-1.000000	333303.000000	1772894378.315560
1941.165000	-11148.615000	7171.335000	1893.330000	-22437.045000	-18753.210000	-3595.275000	583.110000	-6.490246	8.949027	11.357664	12.989399	11.155929	13.820888	12.023836	-8.074703	-5.722500	0.503580	-3.753960	0.696715	0.038635	0.684446	-1.000000	-1.000000	-1.000000	-1.000000	-1.000000	-1.000000	-1.000000	87.448276	0.000000	-1.000000	-1.000000	333304.000000	1772894378.315564
1954.710000	-11144.475000	7177.545000	1888.020000	-22443.525000	-18758.880000	-3595.590000	599.310000	1.918658	9.216418	9.807675	17.306950	14.658727	15.864064	12.055015	-7.450823	-5.722500	0.503580	-3.753960	0.696715	0.038635	0.684446	-1.000000	-1.000000	-1.000000	-1.000000	-1.000000	-1.000000	-1.000000	87.448276	0.000000	-1.000000	-1.000000	333305.000000	1772894378.323234
1963.620000	-11146.230000	7165.665000	1871.145000	-22462.740000	-18777.465000	-3601.710000	601.380000	10.943289	6.929653	6.924218	16.621165	14.433153	13.846062	8.574837	-3.611161	-5.722500	0.503580	-3.753960	0.696715	0.038635	0.684446	-1.000000	-1.000000	-1.000000	-1.000000	-1.000000	-1.000000	-1.000000	87.448276	0.000000	-1.000000	-1.000000	333306.000000	1772894378.323243
1949.670000	-11150.055000	7157.250000	1864.440000	-22468.455000	-18778.770000	-3591.000000	593.505000	16.005707	3.268727	3.560653	10.056890	8.717337	6.964729	2.133258	2.020233	-5.722500	0.503580	-3.753960	0.696715	0.038635	0.684446	-1.000000	-1.000000	-1.000000	-1.000000	-1.000000	-1.000000	-1.000000	87.448276	0.000000	-1.000000	-1.000000	333307.000000	1772894378.323553
1947.330000	-11161.080000	7141.410000	1852.830000	-22477.590000	-18780.930000	-3584.880000	600.930000	13.176438	-0.775793	-0.631402	0.108751	-0.583359	-2.415089	-4.492731	5.862619	-5.722500	0.503580	-3.753960	0.696715	0.038635	0.684446	-1.000000	-1.000000	-1.000000	-1.000000	-1.000000	-1.000000	-1.000000	87.448276	0.000000	-1.000000	-1.000000	333308.000000	1772894378.323562
1921.320000	-11177.235000	7123.860000	1837.170000	-22492.440000	-18797.670000	-3598.695000	609.840000	3.320801	-5.293471	-6.470136	-9.870080	-9.904773	-10.798235	-8.361711	6.116176	-5.722500	0.503580	-3.753960	0.696715	0.038635	0.684446	-1.000000	-1.000000	-1.000000	-1.000000	-1.000000	-1.000000	-1.000000	87.448276	0.000000	-1.000000	-1.000000	333309.000000	1772894378.326670
1908.225000	-11173.770000	7127.505000	1840.905000	-22487.355000	-18793.755000	-3598.245000	608.580000	-7.940433	-9.978147	-13.203812	-17.587538	-16.611173	-16.245551	-9.105177	4.258931	-5.722500	0.503580	-3.753960	0.696715	0.038635	0.684446	-1.000000	-1.000000	-1.000000	-1.000000	-1.000000	-1.000000	-1.000000	87.448276	0.000000	-1.000000	-1.000000	333310.000000	1772894378.326698
1915.110000	-11172.825000	7136.055000	1851.840000	-22471.425000	-18778.500000	-3585.240000	605.205000	-14.712012	-12.191905	-16.617290	-20.258184	-18.039856	-17.134784	-7.984197	1.610356	-11.109280	0.244160	-0.289940	0.696470	0.043274	0.691832	-1.000000	-1.000000	-1.000000	-1.000000	-1.000000	-1.000000	-1.000000	87.448276	0.000000	-1.000000	-1.000000	333311.000000	1772894378.330604
1930.725000	-11175.255000	7153.560000	1868.850000	-22459.995000	-18771.255000	-3592.080000	588.735000	-13.718246	-8.885454	-11.763510	-14.894661	-11.851059	-11.556962	-5.677651	-2.056209	-11.109280	0.244160	-0.289940	0.696470	0.043274	0.691832	-1.000000	-1.000000	-1.000000	-1.000000	-1.000000	-1.000000	-1.000000	87.448276	0.000000	-1.000000	-1.000000	333312.000000	1772894378.330609
1952.280000	-11167.965000	7160.085000	1870.785000	-22464.360000	-18778.725000	-3602.475000	582.480000	-4.943000	-0.450212	1.059933	-2.325259	0.202199	-0.710968	-2.746617	-6.068974	-11.109280	0.244160	-0.289940	0.696470	0.043274	0.691832	-1.000000	-1.000000	-1.000000	-1.000000	-1.000000	-1.000000	-1.000000	87.448276	0.000000	-1.000000	-1.000000	333313.000000	1772894378.334649
1928.835000	-11158.470000	7165.845000	1877.940000	-22455.045000	-18769.860000	-3593.430000	571.005000	7.193609	9.044159	15.132642	11.714354	12.137479	10.358665	0.124587	-8.233090	-11.109280	0.244160	-0.289940	0.696470	0.043274	0.691832	-1.000000	-1.000000	-1.000000	-1.000000	-1.000000	-1.000000	-1.000000	87.448276	0.000000	-1.000000	-1.000000	333314.000000	1772894378.334657
1986.795000	-11168.280000	7156.035000	1868.220000	-22462.290000	-18773.370000	-3575.610000	605.070000	15.850759	14.922959	22.775988	20.719280	18.601415	16.898329	3.065904	-6.620286	-11.109280	0.244160	-0.289940	0.696470	0.043274	0.691832	-1.000000	-1.000000	-1.000000	-1.000000	-1.000000	-1.000000	-1.000000	87.448276	0.000000	-1.000000	-1.000000	333315.000000	1772894378.340539
1998.225000	-11193.480000	7130.655000	1843.785000	-22482.630000	-18787.050000	-3586.365000	591.345000	17.756128	14.202129	20.182701	20.867582	17.388841	16.703438	5.948853	-1.002254	-11.109280	0.244160	-0.289940	0.696470	0.043274	0.691832	-1.000000	-1.000000	-1.000000	-1.000000	-1.000000	-1.000000	-1.000000	87.448276	0.000000	-1.000000	-1.000000	333316.000000	1772894378.340546
1925.145000	-11181.645000	7141.590000	1857.285000	-22467.870000	-18777.690000	-3600.045000	575.550000	12.959146	7.106598	8.793908	12.371384	9.412700	10.120457	7.087840	5.587528	-11.109280	0.244160	-0.289940	0.696470	0.043274	0.691832	-1.000000	-1.000000	-1.000000	-1.000000	-1.000000	-1.000000	-1.000000	87.448276	0.000000	-1.000000	-1.000000	333317.000000	1772894378.344222
1859.850000	-11159.010000	7154.190000	1864.350000	-22467.105000	-18785.610000	-3621.420000	577.890000	1.163835	-1.940220	-5.148476	-0.050238	-1.213459	0.331981	4.887056	8.641881	-11.109280	0.244160	-0.289940	0.696470	0.043274	0.691832	-1.000000	-1.000000	-1.000000	-1.000000	-1.000000	-1.000000	-1.000000	87.448276	0.000000	-1.000000	-1.000000	333318.000000	1772894378.344229
1917.585000	-11151.720000	7156.080000	1864.710000	-22466.295000	-18785.205000	-3625.110000	615.285000	-14.087849	-7.333283	-14.524017	-10.252917	-9.676822	-8.463763	-0.192948	7.320894	-11.109280	0.244160	-0.289940	0.696470	0.043274	0.691832	-1.000000	-1.000000	-1.000000	-1.000000	-1.000000	-1.000000	-1.000000	87.448276	0.000000	-1.000000	-1.000000	333319.000000	1772894378.346851
1937.970000	-11165.895000	7141.455000	1847.835000	-22481.595000	-18798.030000	-3618.495000	638.145000	-22.953810	-7.278071	-16.385055	-15.056222	-13.694172	-13.536658	-5.534490	5.005543	-11.109280	0.244160	-0.289940	0.696470	0.043274	0.691832	-1.000000	-1.000000	-1.000000	-1.000000	-1.000000	-1.000000	-1.000000	87.448276	0.000000	-1.000000	-1.000000	333320.000000	1772894378.346859
1915.155000	-11158.785000	7147.260000	1855.845000	-22471.200000	-18778.905000	-3575.475000	623.295000	-19.005629	-4.215910	-12.576448	-14.716129	-13.325160	-13.659478	-7.107766	4.354749	-7.630000	1.556520	0.854560	0.703489	0.031677	0.690916	-1.000000	-1.000000	-1.000000	-1.000000	-1.000000	-1.000000	-1.000000	87.448276	0.000000	-1.000000	-1.000000	333321.000000	1772894378.350795
1933.830000	-11129.040000	7180.335000	1894.005000	-22431.015000	-18738.675000	-3567.420000	567.630000	-6.194901	-0.968400	-6.027129	-10.009173	-8.647835	-8.083502	-2.215136	3.507396	-7.630000	1.556520	0.854560	0.703489	0.031677	0.690916	-1.000000	-1.000000	-1.000000	-1.000000	-1.000000	-1.000000	-1.000000	87.448276	0.000000	-1.000000	-1.000000	333322.000000	1772894378.350803
1975.680000	-11115.900000	7182.630000	1889.730000	-22439.565000	-18750.645000	-3596.445000	571.140000	7.647593	1.654813	1.682917	-1.458866	-0.064380	2.025939	6.032586	-1.225470	-7.630000	1.556520	0.854560	0.703489	0.031677	0.690916	-1.000000	-1.000000	-1.000000	-1.000000	-1.000000	-1.000000	-1.000000	87.448276	0.000000	-1.000000	-1.000000	333323.000000	1772894378.357655
1983.735000	-11161.890000	7129.080000	1829.160000	-22502.745000	-18811.800000	-3631.545000	634.635000	16.846928	3.126245	8.156009	7.425144	8.300454	10.825472	9.674607	-8.358613	-7.630000	1.556520	0.854560	0.703489	0.031677	0.690916	-1.000000	-1.000000	-1.000000	-1.000000	-1.000000	-1.000000	-1.000000	87.448276	0.000000	-1.000000	-1.000000	333324.000000	1772894378.357662
1951.020000	-11166.480000	7138.215000	1845.585000	-22483.440000	-18788.580000	-3605.445000	621.000000	17.851846	1.856260	9.765195	11.067401	10.584296	11.700859	4.847416	-11.206666	-7.630000	1.556520	0.854560	0.703489	0.031677	0.690916	-1.000000	-1.000000	-1.000000	-1.000000	-1.000000	-1.000000	-1.000000	87.448276	0.000000	-1.000000	-1.000000	333325.000000	1772894378.358823
1937.655000	-11161.170000	7154.280000	1864.755000	-22464.495000	-18780.165000	-3616.155000	587.475000	11.423121	-2.321127	6.063667	8.250794	6.348592	5.142375	-3.331785	-7.129151	-7.630000	1.556520	0.854560	0.703489	0.031677	0.690916	-1.000000	-1.000000	-1.000000	-1.000000	-1.000000	-1.000000	-1.000000	87.448276	0.000000	-1.000000	-1.000000	333326.000000	1772894378.358830
1980.720000	-11157.480000	7164.855000	1877.760000	-22454.325000	-18779.625000	-3635.100000	568.710000	3.403342	-6.866817	0.645484	2.945320	0.644794	-2.457207	-7.835044	-1.288683	-7.630000	1.556520	0.854560	0.703489	0.031677	0.690916	-1.000000	-1.000000	-1.000000	-1.000000	-1.000000	-1.000000	-1.000000	87.448276	0.000000	-1.000000	-1.000000	333327.000000	1772894378.362694
2013.120000	-11161.845000	7151.715000	1861.425000	-22470.480000	-18796.815000	-3641.265000	579.150000	-1.268620	-8.696801	-2.991632	-1.039480	-2.506585	-6.424268	-7.163779	0.468420	-7.630000	1.556520	0.854560	0.703489	0.031677	0.690916	-1.000000	-1.000000	-1.000000	-1.000000	-1.000000	-1.000000	-1.000000	87.448276	0.000000	-1.000000	-1.000000	333328.000000	1772894378.362707
1979.730000	-11158.560000	7145.055000	1851.120000	-22476.690000	-18790.515000	-3609.945000	603.225000	-3.271331	-6.184025	-3.946167	-2.957267	-2.989884	-6.324529	-3.645992	-1.494290	-7.630000	1.556520	0.854560	0.703489	0.031677	0.690916	-1.000000	-1.000000	-1.000000	-1.000000	-1.000000	-1.000000	-1.000000	87.448276	0.000000	-1.000000	-1.000000	333329.000000	1772894378.366612
1919.835000	-11150.595000	7153.605000	1861.380000	-22464.090000	-18768.600000	-3578.670000	561.555000	-6.684078	-0.306134	-3.299908	-3.885543	-2.557113	-3.666951	0.850563	-2.261187	-7.630000	1.556520	0.854560	0.703489	0.031677	0.690916	-1.000000	-1.000000	-1.000000	-1.000000	-1.000000	-1.000000	-1.000000	87.448276	0.000000	-1.000000	-1.000000	333330.000000	1772894378.366619
1907.685000	-11168.370000	7137.180000	1846.755000	-22478.040000	-18779.535000	-3580.335000	562.095000	-13.808459	5.183245	-2.710918	-4.785554	-2.627826	-0.412210	5.349470	0.963835	1.938020	4.013380	2.365300	0.710692	0.027039	0.685911	-1.000000	-1.000000	-1.000000	-1.000000	-1.000000	-1.000000	-1.000000	87.448276	0.000000	-1.000000	-1.000000	333331.000000	1772894378.370678
1909.845000	-11167.875000	7132.770000	1837.485000	-22492.845000	-18801.630000	-3603.240000	616.140000	-21.754985	6.857992	-2.704541	-5.242153	-3.129892	1.799969	8.340834	6.611171	1.938020	4.013380	2.365300	0.710692	0.027039	0.685911	-1.000000	-1.000000	-1.000000	-1.000000	-1.000000	-1.000000	-1.000000	87.448276	0.000000	-1.000000	-1.000000	333332.000000	1772894378.370685
1944.135000	-11156.580000	7144.470000	1850.490000	-22482.450000	-18800.055000	-3614.040000	650.385000	-23.337862	5.728479	-1.373949	-3.078721	-2.025256	2.963972	7.885332	11.578715	1.938020	4.013380	2.365300	0.710692	0.027039	0.685911	-1.000000	-1.000000	-1.000000	-1.000000	-1.000000	-1.000000	-1.000000	87.448276	0.000000	-1.000000	-1.000000	333333.000000	1772894378.374791
1953.135000	-11149.920000	7153.110000	1865.610000	-22468.770000	-18787.500000	-3614.895000	611.955000	-12.224074	5.184029	2.794278	2.601116	1.896461	3.785606	3.342964	13.199192	1.938020	4.013380	2.365300	0.710692	0.027039	0.685911	-1.000000	-1.000000	-1.000000	-1.000000	-1.000000	-1.000000	-1.000000	87.448276	0.000000	-1.000000	-1.000000	333334.000000	1772894378.374799
1946.655000	-11159.145000	7141.095000	1862.550000	-22471.740000	-18788.805000	-3618.765000	588.915000	9.535561	5.398748	7.091965	8.331775	6.072111	3.880003	-3.086762	9.574688	1.938020	4.013380	2.365300	0.710692	0.027039	0.685911	-1.000000	-1.000000	-1.000000	-1.000000	-1.000000	-1.000000	-1.000000	87.448276	0.000000	-1.000000	-1.000000	333335.000000	1772894378.381378
1926.945000	-11160.180000	7157.295000	1878.480000	-22453.155000	-18772.335000	-3615.255000	565.110000	28.952721	3.789713	7.506108	9.703638	7.122128	2.909221	-7.351701	0.588618	1.938020	4.013380	2.365300	0.710692	0.027039	0.685911	-1.000000	-1.000000	-1.000000	-1.000000	-1.000000	-1.000000	-1.000000	87.448276	0.000000	-1.000000	-1.000000	333336.000000	1772894378.381384
1905.705000	-11166.660000	7159.995000	1873.620000	-22453.290000	-18769.140000	-3609.270000	548.010000	32.189189	-0.386006	4.148248	6.437273	5.078817	1.845333	-7.154038	-11.204844	1.938020	4.013380	2.365300	0.710692	0.027039	0.685911	-1.000000	-1.000000	-1.000000	-1.000000	-1.000000	-1.000000	-1.000000	87.448276	0.000000	-1.000000	-1.000000	333337.000000	1772894378.383033
1914.435000	-11162.970000	7156.710000	1858.455000	-22465.440000	-18775.665000	-3595.275000	575.370000	18.530062	-5.113134	0.083765	1.113415	1.808115	1.035566	-4.089938	-20.269176	1.938020	4.013380	2.365300	0.710692	0.027039	0.685911	-1.000000	-1.000000	-1.000000	-1.000000	-1.000000	-1.000000	-1.000000	87.448276	0.000000	-1.000000	-1.000000	333338.000000	1772894378.383040
1934.235000	-11167.290000	7136.460000	1837.305000	-22486.005000	-18789.435000	-3591.180000	613.620000	0.633306	-8.053185	-3.263344	-4.724608	-2.379112	-1.153191	-1.390127	-19.124448	1.938020	4.013380	2.365300	0.710692	0.027039	0.685911	-1.000000	-1.000000	-1.000000	-1.000000	-1.000000	-1.000000	-1.000000	87.448276	0.000000	-1.000000	-1.000000	333339.000000	1772894378.389643
1923.660000	-11170.395000	7134.480000	1839.195000	-22483.305000	-18787.320000	-3599.415000	596.970000	-9.550778	-7.977651	-5.983195	-9.787128	-7.059694	-5.071514	-0.212397	-5.853825	1.938020	4.013380	2.365300	0.710692	0.027039	0.685911	-1.000000	-1.000000	-1.000000	-1.000000	-1.000000	-1.000000	-1.000000	87.448276	0.000000	-1.000000	-1.000000	333340.000000	1772894378.389650
1919.925000	-11166.255000	7139.205000	1845.630000	-22479.840000	-18788.220000	-3609.585000	579.960000	-10.864718	-4.759117	-6.923557	-11.008214	-9.146800	-7.391806	0.678119	9.505970	-2.609460	0.503580	2.762060	0.706785	0.034546	0.677000	-1.000000	-1.000000	-1.000000	-1.000000	-1.000000	-1.000000	-1.000000	87.448276	0.000000	-1.000000	-1.000000	333341.000000	1772894378.390755
1932.030000	-11163.015000	7145.190000	1853.460000	-22472.280000	-18779.490000	-3607.290000	576.585000	-8.526676	0.372893	-4.765819	-6.584884	-6.241102	-5.231790	2.217025	14.646926	-2.609460	0.503580	2.762060	0.706785	0.034546	0.677000	-1.000000	-1.000000	-1.000000	-1.000000	-1.000000	-1.000000	-1.000000	87.448276	0.000000	-1.000000	-1.000000	333342.000000	1772894378.390762
1938.420000	-11163.150000	7144.965000	1852.560000	-22478.040000	-18784.980000	-3609.765000	593.460000	-5.690522	4.907929	-0.600347	0.742269	-0.458580	-0.227366	3.780409	9.214668	-2.609460	0.503580	2.762060	0.706785	0.034546	0.677000	-1.000000	-1.000000	-1.000000	-1.000000	-1.000000	-1.000000	-1.000000	87.448276	0.000000	-1.000000	-1.000000	333343.000000	1772894378.394658
1940.535000	-11166.435000	7138.305000	1843.290000	-22489.155000	-18798.210000	-3621.465000	593.775000	-2.587780	6.672172	2.920100	6.098024	3.774532	3.517499	4.221197	2.394278	-2.609460	0.503580	2.762060	0.706785	0.034546	0.677000	-1.000000	-1.000000	-1.000000	-1.000000	-1.000000	-1.000000	-1.000000	87.448276	0.000000	-1.000000	-1.000000	333344.000000	1772894378.394667
1946.160000	-11155.815000	7149.015000	1856.835000	-22473.630000	-18784.350000	-3617.280000	587.205000	0.442165	5.511204	4.058272	6.946474	4.211399	3.691643	2.893896	0.422916	-2.609460	0.503580	2.762060	0.706785	0.034546	0.677000	-1.000000	-1.000000	-1.000000	-1.000000	-1.000000	-1.000000	-1.000000	87.448276	0.000000	-1.000000	-1.000000	333345.000000	1772894378.404316
1927.980000	-11166.255000	7139.835000	1850.490000	-22477.815000	-18788.625000	-3617.550000	571.680000	2.534045	2.851026	3.008578	4.623405	2.325225	1.423481	-0.005029	1.772215	-2.609460	0.503580	2.762060	0.706785	0.034546	0.677000	-1.000000	-1.000000	-1.000000	-1.000000	-1.000000	-1.000000	-1.000000	87.448276	0.000000	-1.000000	-1.000000	333346.000000	1772894378.404324
1910.835000	-11177.595000	7126.830000	1835.370000	-22492.260000	-18800.325000	-3617.910000	569.070000	2.660189	-0.296088	0.926801	1.844849	0.703563	-0.898892	-3.617713	1.646045	-2.609460	0.503580	2.762060	0.706785	0.034546	0.677000	-1.000000	-1.000000	-1.000000	-1.000000	-1.000000	-1.000000	-1.000000	87.448276	0.000000	-1.000000	-1.000000	333347.000000	1772894378.406264
1913.760000	-11173.455000	7133.490000	1844.190000	-22482.405000	-18790.380000	-3615.840000	568.710000	0.209452	-3.399943	-0.892512	0.125814	0.453163	-1.831400	-6.340004	-2.093952	-2.609460	0.503580	2.762060	0.706785	0.034546	0.677000	-1.000000	-1.000000	-1.000000	-1.000000	-1.000000	-1.000000	-1.000000	87.448276	0.000000	-1.000000	-1.000000	333348.000000	1772894378.406272
1923.300000	-11166.480000	7147.575000	1861.020000	-22465.935000	-18778.500000	-3614.805000	559.800000	-3.210561	-4.989466	-0.915620	0.158392	1.796260	-0.472527	-5.927905	-7.302305	-2.609460	0.503580	2.762060	0.706785	0.034546	0.677000	-1.000000	-1.000000	-1.000000	-1.000000	-1.000000	-1.000000	-1.000000	87.448276	0.000000	-1.000000	-1.000000	333349.000000	1772894378.406706
1923.210000	-11166.390000	7157.970000	1871.145000	-22458.870000	-18777.555000	-3618.540000	562.320000	-4.658318	-3.831697	1.328855	1.800714	4.193633	2.927792	-1.605279	-10.202601	-2.609460	0.503580	2.762060	0.706785	0.034546	0.677000	-1.000000	-1.000000	-1.000000	-1.000000	-1.000000	-1.000000	-1.000000	87.448276	0.000000	-1.000000	-1.000000	333350.000000	1772894378.406713
1926.810000	-11156.355000	7164.540000	1877.985000	-22453.065000	-18776.070000	-3636.855000	561.195000	-3.101072	-0.742522	4.068744	3.281145	5.602032	5.833507	3.996634	-8.334694	-12.696320	1.861720	0.900340	0.696653	0.044372	0.674315	-1.000000	-1.000000	-1.000000	-1.000000	-1.000000	-1.000000	-1.000000	87.448276	0.000000	-1.000000	-1.000000	333351.000000	1772894378.410612
1929.420000	-11154.015000	7162.560000	1877.895000	-22447.935000	-18766.980000	-3637.260000	568.170000	0.136146	2.423233	4.877388	2.678646	4.276551	5.799857	6.963081	-2.100026	-12.696320	1.861720	0.900340	0.696653	0.044372	0.674315	-1.000000	-1.000000	-1.000000	-1.000000	-1.000000	-1.000000	-1.000000	87.448276	0.000000	-1.000000	-1.000000	333352.000000	1772894378.410619
1924.245000	-11147.715000	7158.330000	1869.795000	-22456.395000	-18773.820000	-3614.490000	575.910000	3.032914	4.279599	2.704403	-0.315405	0.475358	2.905355	6.302135	5.634787	-12.696320	1.861720	0.900340	0.696653	0.044372	0.674315	-1.000000	-1.000000	-1.000000	-1.000000	-1.000000	-1.000000	-1.000000	87.448276	0.000000	-1.000000	-1.000000	333353.000000	1772894378.418208
1948.185000	-11157.390000	7137.270000	1845.360000	-22483.890000	-18798.660000	-3606.120000	591.210000	4.532121	4.045525	-1.965858	-4.859779	-4.790605	-1.786125	4.109606	11.749881	-12.696320	1.861720	0.900340	0.696653	0.044372	0.674315	-1.000000	-1.000000	-1.000000	-1.000000	-1.000000	-1.000000	-1.000000	87.448276	0.000000	-1.000000	-1.000000	333354.000000	1772894378.418217
1965.780000	-11187.090000	7122.015000	1829.880000	-22498.020000	-18807.390000	-3606.750000	593.865000	5.640025	1.386403	-7.405677	-9.376797	-10.215573	-7.196829	1.945106	14.183177	-12.696320	1.861720	0.900340	0.696653	0.044372	0.674315	-1.000000	-1.000000	-1.000000	-1.000000	-1.000000	-1.000000	-1.000000	87.448276	0.000000	-1.000000	-1.000000	333355.000000	1772894378.418681
1956.960000	-11178.720000	7137.360000	1838.745000	-22493.745000	-18805.230000	-3616.695000	584.010000	7.138183	-2.877107	-10.517041	-11.130507	-13.008912	-10.852553	-0.517573	11.604660	-12.696320	1.861720	0.900340	0.696653	0.044372	0.674315	-1.000000	-1.000000	-1.000000	-1.000000	-1.000000	-1.000000	-1.000000	87.448276	0.000000	-1.000000	-1.000000	333356.000000	1772894378.418686
1925.955000	-11174.895000	7147.485000	1854.855000	-22478.265000	-18796.140000	-3629.385000	559.710000	6.574520	-6.160290	-8.446183	-7.749326	-10.332857	-9.946701	-3.685449	3.766254	-12.696320	1.861720	0.900340	0.696653	0.044372	0.674315	-1.000000	-1.000000	-1.000000	-1.000000	-1.000000	-1.000000	-1.000000	87.448276	0.000000	-1.000000	-1.000000	333357.000000	1772894378.423881
1933.560000	-11181.330000	7152.750000	1860.570000	-22470.210000	-18787.905000	-3629.430000	564.030000	1.131687	-6.172202	-1.729572	-0.082551	-2.503120	-4.200640	-6.593652	-6.860111	-12.696320	1.861720	0.900340	0.696653	0.044372	0.674315	-1.000000	-1.000000	-1.000000	-1.000000	-1.000000	-1.000000	-1.000000	87.448276	0.000000	-1.000000	-1.000000	333358.000000	1772894378.423885
1938.060000	-11162.925000	7161.345000	1871.055000	-22459.635000	-18776.700000	-3611.565000	591.390000	-7.246409	-3.046570	5.607035	7.787858	6.675486	3.739801	-7.064501	-14.707332	-12.696320	1.861720	0.900340	0.696653	0.044372	0.674315	-1.000000	-1.000000	-1.000000	-1.000000	-1.000000	-1.000000	-1.000000	87.448276	0.000000	-1.000000	-1.000000	333359.000000	1772894378.429720
1897.425000	-11140.290000	7166.970000	1886.445000	-22440.330000	-18754.650000	-3583.755000	574.830000	-13.630346	1.789330	9.660156	12.003996	12.940867	10.385765	-3.143381	-15.027806	-12.696320	1.861720	0.900340	0.696653	0.044372	0.674315	-1.000000	-1.000000	-1.000000	-1.000000	-1.000000	-1.000000	-1.000000	87.448276	0.000000	-1.000000	-1.000000	333360.000000	1772894378.429728
1898.325000	-11138.175000	7160.580000	1879.650000	-22447.125000	-18755.415000	-3578.040000	525.015000	-15.278441	6.628774	9.155651	11.433194	14.140546	13.250934	4.289460	-9.324862	-11.750200	3.479280	-0.198380	0.692442	0.044006	0.674315	-1.000000	-1.000000	-1.000000	-1.000000	-1.000000	-1.000000	-1.000000	87.448276	0.000000	-1.000000	-1.000000	333361.000000	1772894378.430584
1897.155000	-11160.495000	7135.335000	1846.530000	-22482.315000	-18789.615000	-3606.480000	547.335000	-11.850215	8.825838	4.844758	6.699353	9.913241	10.902463	9.983978	-3.318106	-11.750200	3.479280	-0.198380	0.692442	0.044006	0.674315	-1.000000	-1.000000	-1.000000	-1.000000	-1.000000	-1.000000	-1.000000	87.448276	0.000000	-1.000000	-1.000000	333362.000000	1772894378.430591
1922.130000	-11178.045000	7128.405000	1832.985000	-22498.695000	-18812.880000	-3632.130000	608.355000	-4.056926	6.211429	-1.272911	-0.647731	1.498253	3.347570	7.981223	1.221581	-11.750200	3.479280	-0.198380	0.692442	0.044006	0.674315	-1.000000	-1.000000	-1.000000	-1.000000	-1.000000	-1.000000	-1.000000	87.448276	0.000000	-1.000000	-1.000000	333363.000000	1772894378.434541
1933.605000	-11216.745000	7103.385000	1802.205000	-22531.455000	-18847.620000	-3666.780000	590.220000	5.976011	-0.428790	-6.409621	-7.795052	-7.737126	-6.833461	-2.142100	6.574284	-11.750200	3.479280	-0.198380	0.692442	0.044006	0.674315	-1.000000	-1.000000	-1.000000	-1.000000	-1.000000	-1.000000	-1.000000	87.448276	0.000000	-1.000000	-1.000000	333364.000000	1772894378.434547
1917.495000	-11222.010000	7099.245000	1802.925000	-22528.215000	-18843.570000	-3659.445000	556.740000	14.738931	-8.019191	-8.872620	-12.091732	-13.979596	-15.221057	-13.843075	11.576723	-11.750200	3.479280	-0.198380	0.692442	0.044006	0.674315	-1.000000	-1.000000	-1.000000	-1.000000	-1.000000	-1.000000	-1.000000	87.448276	0.000000	-1.000000	-1.000000	333365.000000	1772894378.438713
1856.250000	-11198.655000	7132.005000	1848.960000	-22477.770000	-18796.185000	-3635.640000	538.830000	17.678081	-12.519278	-8.145282	-11.680312	-14.218655	-17.003990	-18.080195	11.672088	-11.750200	3.479280	-0.198380	0.692442	0.044006	0.674315	-1.000000	-1.000000	-1.000000	-1.000000	-1.000000	-1.000000	-1.000000	87.448276	0.000000	-1.000000	-1.000000	333366.000000	1772894378.438723
1874.520000	-11189.295000	7151.445000	1877.265000	-22444.425000	-18764.145000	-3634.425000	570.330000	11.846151	-10.318635	-3.556366	-5.216628	-6.743781	-9.242477	-10.577439	5.799000	-11.750200	3.479280	-0.198380	0.692442	0.044006	0.674315	-1.000000	-1.000000	-1.000000	-1.000000	-1.000000	-1.000000	-1.000000	87.448276	0.000000	-1.000000	-1.000000	333367.000000	1772894378.442661
1932.435000	-11219.535000	7115.445000	1847.205000	-22476.510000	-18790.695000	-3643.470000	622.620000	1.354646	-2.490635	3.333928	4.902931	5.296532	4.651831	3.740300	-1.258353	-11.750200	3.479280	-0.198380	0.692442	0.044006	0.674315	-1.000000	-1.000000	-1.000000	-1.000000	-1.000000	-1.000000	-1.000000	87.448276	0.000000	-1.000000	-1.000000	333368.000000	1772894378.442666
1905.570000	-11238.570000	7080.795000	1813.275000	-22512.555000	-18817.335000	-3629.430000	587.520000	-4.902960	4.556251	7.334367	11.404760	13.183410	14.924193	15.157735	-3.804255	-11.750200	3.479280	-0.198380	0.692442	0.044006	0.674315	-1.000000	-1.000000	-1.000000	-1.000000	-1.000000	-1.000000	-1.000000	87.448276	0.000000	-1.000000	-1.000000	333369.000000	1772894378.448256
1869.345000	-11219.220000	7084.530000	1802.205000	-22523.040000	-18821.115000	-3608.325000	580.230000	-4.419316	6.368132	5.204806	9.205263	10.840782	14.451937	18.109850	-1.573768	-11.750200	3.479280	-0.198380	0.692442	0.044006	0.674315	-1.000000	-1.000000	-1.000000	-1.000000	-1.000000	-1.000000	-1.000000	87.448276	0.000000	-1.000000	-1.000000	333370.000000	1772894378.448264
1920.555000	-11204.100000	7084.845000	1783.845000	-22544.955000	-18844.785000	-3620.295000	600.660000	-2.128288	5.419720	0.275444	1.293549	1.563409	5.720335	14.010102	0.717166	-2.990960	2.182180	1.831200	0.693174	0.032226	0.673582	-1.000000	-1.000000	-1.000000	-1.000000	-1.000000	-1.000000	-1.000000	87.448276	0.000000	-1.000000	-1.000000	333371.000000	1772894378.450642
1912.770000	-11198.250000	7103.970000	1795.635000	-22535.010000	-18844.560000	-3645.135000	565.560000	-1.382377	6.541061	-1.496722	-4.928276	-6.174220	-3.250476	6.736054	-1.231364	-2.990960	2.182180	1.831200	0.693174	0.032226	0.673582	-1.000000	-1.000000	-1.000000	-1.000000	-1.000000	-1.000000	-1.000000	87.448276	0.000000	-1.000000	-1.000000	333372.000000	1772894378.450649
1906.920000	-11185.650000	7130.385000	1821.870000	-22512.870000	-18821.340000	-3635.505000	554.490000	-2.170249	10.580068	2.429860	-4.269136	-6.339579	-6.196322	-0.748437	-7.275573	-2.990960	2.182180	1.831200	0.693174	0.032226	0.673582	-1.000000	-1.000000	-1.000000	-1.000000	-1.000000	-1.000000	-1.000000	87.448276	0.000000	-1.000000	-1.000000	333373.000000	1772894378.454572
1929.195000	-11173.320000	7133.985000	1831.950000	-22503.465000	-18814.680000	-3630.015000	570.510000	-2.843092	13.797627	9.143850	2.486057	0.483542	-2.435199	-6.250448	-11.847294	-2.990960	2.182180	1.831200	0.693174	0.032226	0.673582	-1.000000	-1.000000	-1.000000	-1.000000	-1.000000	-1.000000	-1.000000	87.448276	0.000000	-1.000000	-1.000000	333374.000000	1772894378.454581
1927.260000	-11181.690000	7124.355000	1824.705000	-22506.705000	-18818.325000	-3641.400000	573.390000	-0.703338	11.359823	11.941235	8.582888	7.303015	2.700428	-9.024891	-9.174426	-2.990960	2.182180	1.831200	0.693174	0.032226	0.673582	-1.000000	-1.000000	-1.000000	-1.000000	-1.000000	-1.000000	-1.000000	87.448276	0.000000	-1.000000	-1.000000	333375.000000	1772894378.458780
1919.655000	-11197.170000	7113.105000	1816.110000	-22510.530000	-18822.915000	-3649.140000	567.810000	3.256272	1.595714	6.159356	7.377435	7.251890	3.117076	-9.900607	-0.838394	-2.990960	2.182180	1.831200	0.693174	0.032226	0.673582	-1.000000	-1.000000	-1.000000	-1.000000	-1.000000	-1.000000	-1.000000	87.448276	0.000000	-1.000000	-1.000000	333376.000000	1772894378.458788
1917.765000	-11197.305000	7113.600000	1812.645000	-22510.215000	-18817.290000	-3634.650000	563.535000	3.932477	-11.488191	-5.186284	-0.491458	0.834999	-1.250083	-9.215934	6.037988	-2.990960	2.182180	1.831200	0.693174	0.032226	0.673582	-1.000000	-1.000000	-1.000000	-1.000000	-1.000000	-1.000000	-1.000000	87.448276	0.000000	-1.000000	-1.000000	333377.000000	1772894378.463704
1914.930000	-11193.840000	7122.645000	1823.715000	-22501.080000	-18807.255000	-3624.795000	569.970000	-0.096656	-20.537977	-13.724559	-7.937353	-5.283968	-5.069106	-6.453851	8.054945	-2.990960	2.182180	1.831200	0.693174	0.032226	0.673582	-1.000000	-1.000000	-1.000000	-1.000000	-1.000000	-1.000000	-1.000000	87.448276	0.000000	-1.000000	-1.000000	333378.000000	1772894378.463712
1892.385000	-11210.580000	7113.825000	1819.170000	-22509.405000	-18818.055000	-3640.005000	557.460000	-4.996943	-21.115127	-13.992607	-8.840608	-5.770469	-4.186652	-2.120620	7.133593	-2.990960	2.182180	1.831200	0.693174	0.032226	0.673582	-1.000000	-1.000000	-1.000000	-1.000000	-1.000000	-1.000000	-1.000000	87.448276	0.000000	-1.000000	-1.000000	333379.000000	1772894378.466670
1881.315000	-11198.385000	7124.580000	1839.375000	-22489.605000	-18807.345000	-3639.960000	537.435000	-8.295000	-14.385893	-7.492855	-2.957351	-0.826755	0.830805	2.312412	4.399100	-2.990960	2.182180	1.831200	0.693174	0.032226	0.673582	-1.000000	-1.000000	-1.000000	-1.000000	-1.000000	-1.000000	-1.000000	87.448276	0.000000	-1.000000	-1.000000	333380.000000	1772894378.466677
1864.755000	-11201.265000	7120.305000	1833.210000	-22497.030000	-18811.170000	-3623.445000	532.935000	-10.040477	-4.015392	0.394904	4.971362	5.297499	6.308984	6.326597	0.089682	5.875100	2.380560	-0.259420	0.695799	0.028381	0.662962	-1.000000	-1.000000	-1.000000	-1.000000	-1.000000	-1.000000	-1.000000	87.448276	0.000000	-1.000000	-1.000000	333381.000000	1772894378.470546
1873.755000	-11224.080000	7092.720000	1799.820000	-22529.070000	-18838.890000	-3649.275000	545.670000	-9.096451	5.700531	4.441614	8.301751	6.991855	7.653056	9.253872	-3.051484	5.875100	2.380560	-0.259420	0.695799	0.028381	0.662962	-1.000000	-1.000000	-1.000000	-1.000000	-1.000000	-1.000000	-1.000000	87.448276	0.000000	-1.000000	-1.000000	333382.000000	1772894378.470555
1902.150000	-11213.820000	7097.310000	1804.230000	-22522.635000	-18830.250000	-3647.880000	569.385000	-3.469901	10.631774	2.490080	3.161425	1.120605	2.300179	8.700892	-2.154837	5.875100	2.380560	-0.259420	0.695799	0.028381	0.662962	-1.000000	-1.000000	-1.000000	-1.000000	-1.000000	-1.000000	-1.000000	87.448276	0.000000	-1.000000	-1.000000	333383.000000	1772894378.476050
1909.035000	-11215.305000	7097.310000	1804.725000	-22523.130000	-18833.130000	-3651.345000	574.110000	6.366525	10.083722	-2.515371	-7.045712	-8.941280	-6.813209	3.906299	2.077598	5.875100	2.380560	-0.259420	0.695799	0.028381	0.662962	-1.000000	-1.000000	-1.000000	-1.000000	-1.000000	-1.000000	-1.000000	87.448276	0.000000	-1.000000	-1.000000	333384.000000	1772894378.476058
1888.380000	-11205.360000	7112.835000	1821.465000	-22507.470000	-18819.315000	-3649.950000	557.595000	15.537631	7.248290	-4.830423	-13.883115	-15.333443	-12.955551	-2.212733	5.620606	5.875100	2.380560	-0.259420	0.695799	0.028381	0.662962	-1.000000	-1.000000	-1.000000	-1.000000	-1.000000	-1.000000	-1.000000	87.448276	0.000000	-1.000000	-1.000000	333385.000000	1772894378.478683
1909.890000	-11178.540000	7139.655000	1848.060000	-22481.100000	-18794.700000	-3644.370000	550.845000	18.229784	5.588346	-0.977289	-11.185838	-12.311618	-11.214116	-6.398828	4.834265	5.875100	2.380560	-0.259420	0.695799	0.028381	0.662962	-1.000000	-1.000000	-1.000000	-1.000000	-1.000000	-1.000000	-1.000000	87.448276	0.000000	-1.000000	-1.000000	333386.000000	1772894378.478690
1904.625000	-11179.350000	7140.420000	1848.780000	-22482.090000	-18802.215000	-3654.270000	541.485000	13.619281	5.977380	7.313411	0.062222	-0.742752	-2.196643	-7.543298	-0.076085	5.875100	2.380560	-0.259420	0.695799	0.028381	0.662962	-1.000000	-1.000000	-1.000000	-1.000000	-1.000000	-1.000000	-1.000000	87.448276	0.000000	-1.000000	-1.000000	333387.000000	1772894378.485469
1906.110000	-11179.530000	7132.320000	1839.645000	-22492.080000	-18819.900000	-3661.650000	532.980000	5.253240	6.367241	14.103877	12.399937	12.226706	8.246726	-5.954995	-5.893373	5.875100	2.380560	-0.259420	0.695799	0.028381	0.662962	-1.000000	-1.000000	-1.000000	-1.000000	-1.000000	-1.000000	-1.000000	87.448276	0.000000	-1.000000	-1.000000	333388.000000	1772894378.485478
1889.415000	-11195.280000	7119.045000	1830.960000	-22495.995000	-18819.135000	-3645.720000	536.175000	-3.339386	3.905490	13.656585	17.419506	18.257964	13.412905	-2.244316	-8.955896	5.875100	2.380560	-0.259420	0.695799	0.028381	0.662962	-1.000000	-1.000000	-1.000000	-1.000000	-1.000000	-1.000000	-1.000000	87.448276	0.000000	-1.000000	-1.000000	333389.000000	1772894378.489496
1899.405000	-11191.320000	7123.590000	1837.395000	-22487.445000	-18801.540000	-3629.880000	545.985000	-9.652976	-1.955183	5.253989	12.317043	14.306975	11.205286	2.770260	-6.973996	5.875100	2.380560	-0.259420	0.695799	0.028381	0.662962	-1.000000	-1.000000	-1.000000	-1.000000	-1.000000	-1.000000	-1.000000	87.448276	0.000000	-1.000000	-1.000000	333390.000000	1772894378.489504
1908.495000	-11194.605000	7118.280000	1832.715000	-22496.040000	-18806.850000	-3629.790000	543.195000	-12.007424	-8.382696	-5.937396	1.564700	4.249238	4.851136	7.613529	-1.166406	0.076300	2.289000	0.717220	0.692076	0.039123	0.662230	-1.000000	-1.000000	-1.000000	-1.000000	-1.000000	-1.000000	-1.000000	87.448276	0.000000	-1.000000	-1.000000	333391.000000	1772894378.490680
1906.200000	-11196.315000	7113.960000	1827.090000	-22507.470000	-18812.070000	-3623.265000	560.430000	-10.587144	-11.849528	-13.556514	-8.168143	-6.049818	-1.720459	10.136958	4.269930	0.076300	2.289000	0.717220	0.692076	0.039123	0.662230	-1.000000	-1.000000	-1.000000	-1.000000	-1.000000	-1.000000	-1.000000	87.448276	0.000000	-1.000000	-1.000000	333392.000000	1772894378.490685
1910.205000	-11180.025000	7132.230000	1841.895000	-22490.955000	-18800.055000	-3614.445000	575.775000	-7.066342	-10.758454	-14.487690	-12.843970	-12.669137	-6.505256	8.837212	6.513193	0.076300	2.289000	0.717220	0.692076	0.039123	0.662230	-1.000000	-1.000000	-1.000000	-1.000000	-1.000000	-1.000000	-1.000000	87.448276	0.000000	-1.000000	-1.000000	333393.000000	1772894378.496477
1901.520000	-11186.415000	7129.440000	1839.195000	-22488.525000	-18800.415000	-3625.965000	558.045000	-2.861336	-5.805734	-9.357251	-11.647357	-13.612699	-8.495055	3.880130	5.927369	0.076300	2.289000	0.717220	0.692076	0.039123	0.662230	-1.000000	-1.000000	-1.000000	-1.000000	-1.000000	-1.000000	-1.000000	87.448276	0.000000	-1.000000	-1.000000	333394.000000	1772894378.496484
1892.655000	-11205.180000	7116.390000	1828.125000	-22500.180000	-18814.815000	-3639.060000	542.835000	0.819967	-0.198911	-2.001713	-6.777144	-9.553268	-7.952673	-3.448437	3.481155	0.076300	2.289000	0.717220	0.692076	0.039123	0.662230	-1.000000	-1.000000	-1.000000	-1.000000	-1.000000	-1.000000	-1.000000	87.448276	0.000000	-1.000000	-1.000000	333395.000000	1772894378.498520
1915.110000	-11208.015000	7116.570000	1826.955000	-22503.735000	-18818.550000	-3638.655000	553.365000	3.162183	2.609048	3.209585	-1.593910	-3.445746	-5.940460	-10.468020	-0.098197	0.076300	2.289000	0.717220	0.692076	0.039123	0.662230	-1.000000	-1.000000	-1.000000	-1.000000	-1.000000	-1.000000	-1.000000	87.448276	0.000000	-1.000000	-1.000000	333396.000000	1772894378.498527
1922.670000	-11207.205000	7111.395000	1814.760000	-22517.595000	-18826.515000	-3627.270000	570.330000	4.920571	2.547652	5.043100	2.193603	2.076406	-2.724143	-13.304577	-2.799505	0.076300	2.289000	0.717220	0.692076	0.039123	0.662230	-1.000000	-1.000000	-1.000000	-1.000000	-1.000000	-1.000000	-1.000000	87.448276	0.000000	-1.000000	-1.000000	333397.000000	1772894378.502427
1903.680000	-11191.230000	7120.260000	1823.400000	-22507.155000	-18815.940000	-3618.540000	558.180000	6.660019	2.365191	5.000178	4.476614	5.638301	1.346665	-10.101993	-2.832041	0.076300	2.289000	0.717220	0.692076	0.039123	0.662230	-1.000000	-1.000000	-1.000000	-1.000000	-1.000000	-1.000000	-1.000000	87.448276	0.000000	-1.000000	-1.000000	333398.000000	1772894378.502436
1887.345000	-11178.630000	7126.560000	1832.400000	-22497.435000	-18810.675000	-3631.995000	563.850000	6.487363	4.223030	4.797700	5.775678	7.183939	5.014194	-3.175218	-1.291927	0.076300	2.289000	0.717220	0.692076	0.039123	0.662230	-1.000000	-1.000000	-1.000000	-1.000000	-1.000000	-1.000000	-1.000000	87.448276	0.000000	-1.000000	-1.000000	333399.000000	1772894378.506513
1901.880000	-11203.020000	7105.140000	1810.530000	-22519.845000	-18831.465000	-3643.155000	598.185000	2.571221	7.107830	4.708592	6.303097	7.246988	6.807856	3.026820	-0.141135	0.076300	2.289000	0.717220	0.692076	0.039123	0.662230	-1.000000	-1.000000	-1.000000	-1.000000	-1.000000	-1.000000	-1.000000	87.448276	0.000000	-1.000000	-1.000000	333400.000000	1772894378.506522
1894.680000	-11214.225000	7108.830000	1819.170000	-22508.595000	-18816.390000	-3633.210000	581.355000	-3.267987	7.365502	3.477805	5.259010	5.689225	5.854230	5.615018	0.099507	-5.691980	0.396760	-2.701020	0.684569	0.050659	0.664915	-1.000000	-1.000000	-1.000000	-1.000000	-1.000000	-1.000000	-1.000000	87.448276	0.000000	-1.000000	-1.000000	333401.000000	1772894378.516409
1897.335000	-11205.855000	7108.740000	1823.850000	-22501.845000	-18810.585000	-3641.580000	565.245000	-7.133781	3.010933	0.422053	2.394419	2.616252	2.940972	4.882809	-1.045480	-5.691980	0.396760	-2.701020	0.684569	0.050659	0.664915	-1.000000	-1.000000	-1.000000	-1.000000	-1.000000	-1.000000	-1.000000	87.448276	0.000000	-1.000000	-1.000000	333402.000000	1772894378.516418
1910.835000	-11193.345000	7118.145000	1837.845000	-22485.555000	-18792.990000	-3624.165000	574.965000	-6.521446	-3.239136	-3.056597	-0.764008	-0.583547	0.206958	3.107799	-3.190747	-5.691980	0.396760	-2.701020	0.684569	0.050659	0.664915	-1.000000	-1.000000	-1.000000	-1.000000	-1.000000	-1.000000	-1.000000	87.448276	0.000000	-1.000000	-1.000000	333403.000000	1772894378.516428
1902.510000	-11212.605000	7107.390000	1827.495000	-22493.970000	-18798.615000	-3617.865000	561.330000	-1.854420	-6.836506	-4.712982	-2.339820	-2.234641	-0.608612	2.703865	-4.018316	-5.691980	0.396760	-2.701020	0.684569	0.050659	0.664915	-1.000000	-1.000000	-1.000000	-1.000000	-1.000000	-1.000000	-1.000000	87.448276	0.000000	-1.000000	-1.000000	333404.000000	1772894378.516432
1925.370000	-11189.655000	7129.215000	1844.955000	-22478.580000	-18787.950000	-3618.495000	539.145000	3.655436	-5.907443	-3.435583	-1.751545	-1.730054	0.604158	4.154468	-2.842095	-5.691980	0.396760	-2.701020	0.684569	0.050659	0.664915	-1.000000	-1.000000	-1.000000	-1.000000	-1.000000	-1.000000	-1.000000	87.448276	0.000000	-1.000000	-1.000000	333405.000000	1772894378.518684
1944.360000	-11159.775000	7141.725000	1854.180000	-22470.120000	-18782.145000	-3615.255000	542.970000	7.138566	-1.336089	0.331200	0.414971	0.294422	2.402168	5.162480	-1.525732	-5.691980	0.396760	-2.701020	0.684569	0.050659	0.664915	-1.000000	-1.000000	-1.000000	-1.000000	-1.000000	-1.000000	-1.000000	87.448276	0.000000	-1.000000	-1.000000	333406.000000	1772894378.518692
1914.615000	-11173.545000	7131.150000	1853.280000	-22470.120000	-18780.570000	-3608.685000	528.075000	7.916716	4.283075	4.451985	2.621219	2.136495	2.747131	3.432305	-0.909497	-5.691980	0.396760	-2.701020	0.684569	0.050659	0.664915	-1.000000	-1.000000	-1.000000	-1.000000	-1.000000	-1.000000	-1.000000	87.448276	0.000000	-1.000000	-1.000000	333407.000000	1772894378.522691
1918.980000	-11175.390000	7144.155000	1858.545000	-22465.890000	-18778.140000	-3607.020000	559.035000	5.543443	6.987914	6.015376	2.915337	1.939043	0.588758	-0.328572	-0.097881	-5.691980	0.396760	-2.701020	0.684569	0.050659	0.664915	-1.000000	-1.000000	-1.000000	-1.000000	-1.000000	-1.000000	-1.000000	87.448276	0.000000	-1.000000	-1.000000	333408.000000	1772894378.522698
1923.885000	-11171.700000	7133.355000	1829.565000	-22499.280000	-18806.220000	-3620.790000	607.455000	0.218437	4.971994	4.176312	0.582736	-0.721513	-3.268243	-3.802780	2.240542	-5.691980	0.396760	-2.701020	0.684569	0.050659	0.664915	-1.000000	-1.000000	-1.000000	-1.000000	-1.000000	-1.000000	-1.000000	87.448276	0.000000	-1.000000	-1.000000	333409.000000	1772894378.526697
1879.155000	-11191.860000	7120.935000	1825.425000	-22508.685000	-18814.455000	-3632.445000	595.665000	-6.097199	0.136910	0.062861	-3.781802	-5.202880	-7.542298	-6.102109	6.677357	-5.691980	0.396760	-2.701020	0.684569	0.050659	0.664915	-1.000000	-1.000000	-1.000000	-1.000000	-1.000000	-1.000000	-1.000000	87.448276	0.000000	-1.000000	-1.000000	333410.000000	1772894378.526704
1829.880000	-11218.680000	7112.745000	1834.245000	-22500.090000	-18810.315000	-3637.890000	549.045000	-11.945203	-5.510008	-5.081616	-8.402052	-9.873015	-10.865991	-7.426773	10.419793	-5.737760	2.426340	-2.685760	0.690306	0.048889	0.665404	-1.000000	-1.000000	-1.000000	-1.000000	-1.000000	-1.000000	-1.000000	87.448276	0.000000	-1.000000	-1.000000	333411.000000	1772894378.530838
1834.560000	-11197.260000	7145.910000	1863.405000	-22473.405000	-18793.170000	-3638.385000	536.760000	-16.165163	-10.295233	-8.868986	-9.853648	-11.203692	-10.800064	-7.400557	8.569493	-5.737760	2.426340	-2.685760	0.690306	0.048889	0.665404	-1.000000	-1.000000	-1.000000	-1.000000	-1.000000	-1.000000	-1.000000	87.448276	0.000000	-1.000000	-1.000000	333412.000000	1772894378.530844
1928.790000	-11168.145000	7160.760000	1871.235000	-22465.080000	-18791.415000	-3651.525000	569.250000	-14.452975	-10.572472	-7.861883	-5.471838	-6.208803	-5.483719	-5.523465	1.101973	-5.737760	2.426340	-2.685760	0.690306	0.048889	0.665404	-1.000000	-1.000000	-1.000000	-1.000000	-1.000000	-1.000000	-1.000000	87.448276	0.000000	-1.000000	-1.000000	333413.000000	1772894378.534624
1948.455000	-11187.855000	7127.505000	1832.580000	-22502.565000	-18825.840000	-3665.070000	563.895000	-2.608525	-4.632870	-2.254593	2.408067	2.923238	2.928886	-2.335348	-5.834321	-5.737760	2.426340	-2.685760	0.690306	0.048889	0.665404	-1.000000	-1.000000	-1.000000	-1.000000	-1.000000	-1.000000	-1.000000	87.448276	0.000000	-1.000000	-1.000000	333414.000000	1772894378.534634
1908.180000	-11225.565000	7085.655000	1788.705000	-22543.605000	-18853.110000	-3658.680000	563.760000	14.711595	2.610344	2.300911	6.842522	8.956658	8.531653	0.917998	-7.512281	-5.737760	2.426340	-2.685760	0.690306	0.048889	0.665404	-1.000000	-1.000000	-1.000000	-1.000000	-1.000000	-1.000000	-1.000000	87.448276	0.000000	-1.000000	-1.000000	333415.000000	1772894378.538515
1850.310000	-11252.340000	7069.905000	1776.735000	-22552.290000	-18852.525000	-3650.265000	567.045000	25.032789	4.669720	1.070988	3.450856	6.846863	7.546632	3.762653	-4.785143	-5.737760	2.426340	-2.685760	0.690306	0.048889	0.665404	-1.000000	-1.000000	-1.000000	-1.000000	-1.000000	-1.000000	-1.000000	87.448276	0.000000	-1.000000	-1.000000	333416.000000	1772894378.538523
1905.480000	-11217.915000	7099.515000	1808.820000	-22522.275000	-18823.905000	-3632.445000	577.035000	20.697913	1.598814	-3.613491	-3.729949	-0.002335	2.985022	6.736498	-1.589053	-5.737760	2.426340	-2.685760	0.690306	0.048889	0.665404	-1.000000	-1.000000	-1.000000	-1.000000	-1.000000	-1.000000	-1.000000	87.448276	0.000000	-1.000000	-1.000000	333417.000000	1772894378.547758
1916.415000	-11205.045000	7096.770000	1805.715000	-22524.480000	-18829.620000	-3631.545000	579.555000	6.953022	-0.497009	-5.045761	-6.153782	-3.264981	1.101461	9.874676	-1.166847	-5.737760	2.426340	-2.685760	0.690306	0.048889	0.665404	-1.000000	-1.000000	-1.000000	-1.000000	-1.000000	-1.000000	-1.000000	87.448276	0.000000	-1.000000	-1.000000	333418.000000	1772894378.547765
1891.845000	-11201.040000	7111.710000	1825.290000	-22503.195000	-18811.080000	-3626.460000	547.830000	-4.948015	2.818736	0.159884	-0.351101	0.868757	4.011755	11.701277	-3.112994	-5.737760	2.426340	-2.685760	0.690306	0.048889	0.665404	-1.000000	-1.000000	-1.000000	-1.000000	-1.000000	-1.000000	-1.000000	87.448276	0.000000	-1.000000	-1.000000	333419.000000	1772894378.547837
1884.960000	-11199.690000	7121.880000	1833.345000	-22498.020000	-18808.560000	-3630.420000	543.330000	-9.197610	9.547577	8.977082	9.048286	8.395251	8.221945	10.172878	-4.175717	-5.737760	2.426340	-2.685760	0.690306	0.048889	0.665404	-1.000000	-1.000000	-1.000000	-1.000000	-1.000000	-1.000000	-1.000000	87.448276	0.000000	-1.000000	-1.000000	333420.000000	1772894378.547842
1888.560000	-11199.465000	7119.270000	1827.450000	-22506.210000	-18819.045000	-3636.405000	566.370000	-8.024396	13.624265	14.985301	14.534516	12.285499	8.863602	4.543673	-1.869748	3.265640	4.227020	-1.220800	0.699217	0.037659	0.670347	-1.000000	-1.000000	-1.000000	-1.000000	-1.000000	-1.000000	-1.000000	87.448276	0.000000	-1.000000	-1.000000	333421.000000	1772894378.550701
1910.385000	-11201.220000	7108.200000	1816.470000	-22513.455000	-18823.860000	-3639.555000	588.510000	-7.036656	10.398771	13.332122	11.863846	8.679151	3.999381	-3.394110	3.459062	3.265640	4.227020	-1.220800	0.699217	0.037659	0.670347	-1.000000	-1.000000	-1.000000	-1.000000	-1.000000	-1.000000	-1.000000	87.448276	0.000000	-1.000000	-1.000000	333422.000000	1772894378.550708
1911.645000	-11198.790000	7111.620000	1824.525000	-22500.450000	-18809.820000	-3626.415000	569.610000	-8.511425	1.010068	5.057703	3.392934	0.346454	-3.274218	-9.918578	8.788067	3.265640	4.227020	-1.220800	0.699217	0.037659	0.670347	-1.000000	-1.000000	-1.000000	-1.000000	-1.000000	-1.000000	-1.000000	87.448276	0.000000	-1.000000	-1.000000	333423.000000	1772894378.554494
1908.315000	-11189.790000	7121.700000	1833.030000	-22494.915000	-18807.840000	-3635.955000	565.245000	-8.618831	-8.014845	-3.465998	-4.094928	-5.963365	-7.570235	-12.198144	10.251337	3.265640	4.227020	-1.220800	0.699217	0.037659	0.670347	-1.000000	-1.000000	-1.000000	-1.000000	-1.000000	-1.000000	-1.000000	87.448276	0.000000	-1.000000	-1.000000	333424.000000	1772894378.554499
1914.300000	-11181.510000	7130.610000	1841.175000	-22487.985000	-18805.725000	-3652.155000	551.745000	-3.284709	-10.765064	-6.906273	-6.187782	-6.609090	-6.965670	-10.703803	5.876989	3.265640	4.227020	-1.220800	0.699217	0.037659	0.670347	-1.000000	-1.000000	-1.000000	-1.000000	-1.000000	-1.000000	-1.000000	87.448276	0.000000	-1.000000	-1.000000	333425.000000	1772894378.558677
1916.505000	-11184.480000	7126.020000	1836.900000	-22492.620000	-18811.620000	-3664.395000	527.940000	4.990024	-7.561462	-5.733399	-4.402521	-3.866195	-4.184313	-8.006455	-3.197980	3.265640	4.227020	-1.220800	0.699217	0.037659	0.670347	-1.000000	-1.000000	-1.000000	-1.000000	-1.000000	-1.000000	-1.000000	87.448276	0.000000	-1.000000	-1.000000	333426.000000	1772894378.558685
1913.490000	-11194.380000	7114.365000	1823.805000	-22507.380000	-18824.580000	-3665.970000	545.760000	10.065875	-3.379006	-3.954890	-2.987331	-2.124698	-2.632309	-5.471938	-12.384266	3.265640	4.227020	-1.220800	0.699217	0.037659	0.670347	-1.000000	-1.000000	-1.000000	-1.000000	-1.000000	-1.000000	-1.000000	87.448276	0.000000	-1.000000	-1.000000	333427.000000	1772894378.562748
1910.790000	-11193.300000	7117.740000	1826.145000	-22506.480000	-18821.070000	-3651.570000	545.940000	9.792624	-1.721053	-4.221051	-4.382071	-3.646312	-3.401526	-2.207641	-14.752618	3.265640	4.227020	-1.220800	0.699217	0.037659	0.670347	-1.000000	-1.000000	-1.000000	-1.000000	-1.000000	-1.000000	-1.000000	87.448276	0.000000	-1.000000	-1.000000	333428.000000	1772894378.562755
1877.130000	-11206.170000	7113.330000	1826.910000	-22498.020000	-18803.475000	-3623.130000	540.405000	5.838517	-2.353762	-6.113220	-7.534487	-6.993771	-4.770254	3.203278	-7.429735	3.265640	4.227020	-1.220800	0.699217	0.037659	0.670347	-1.000000	-1.000000	-1.000000	-1.000000	-1.000000	-1.000000	-1.000000	87.448276	0.000000	-1.000000	-1.000000	333429.000000	1772894378.566617
1882.980000	-11204.460000	7101.945000	1825.560000	-22494.780000	-18799.065000	-3609.405000	552.285000	-0.770674	-3.550963	-7.531573	-9.113788	-8.286810	-3.664642	10.515058	4.135488	3.265640	4.227020	-1.220800	0.699217	0.037659	0.670347	-1.000000	-1.000000	-1.000000	-1.000000	-1.000000	-1.000000	-1.000000	87.448276	0.000000	-1.000000	-1.000000	333430.000000	1772894378.566624
1892.070000	-11200.185000	7098.750000	1827.720000	-22497.075000	-18811.575000	-3626.820000	546.030000	-8.510958	-3.575676	-6.482767	-6.421729	-4.948403	0.755268	16.345140	11.846854	6.195560	5.341000	-1.052940	0.697081	0.033996	0.676451	-1.000000	-1.000000	-1.000000	-1.000000	-1.000000	-1.000000	-1.000000	87.448276	0.000000	-1.000000	-1.000000	333431.000000	1772894378.570661
1868.175000	-11212.380000	7102.800000	1827.765000	-22498.470000	-18815.580000	-3639.420000	536.670000	-13.266513	-1.341545	-2.186418	0.249916	1.730794	5.589917	15.642353	12.164202	6.195560	5.341000	-1.052940	0.697081	0.033996	0.676451	-1.000000	-1.000000	-1.000000	-1.000000	-1.000000	-1.000000	-1.000000	87.448276	0.000000	-1.000000	-1.000000	333432.000000	1772894378.570668
1885.905000	-11212.695000	7108.965000	1822.410000	-22505.670000	-18819.495000	-3645.450000	557.370000	-11.323116	2.368664	4.112735	7.444431	7.761096	7.318843	6.880871	7.109956	6.195560	5.341000	-1.052940	0.697081	0.033996	0.676451	-1.000000	-1.000000	-1.000000	-1.000000	-1.000000	-1.000000	-1.000000	87.448276	0.000000	-1.000000	-1.000000	333433.000000	1772894378.574615
1908.315000	-11209.365000	7104.285000	1805.895000	-22523.130000	-18831.195000	-3652.605000	567.450000	-2.830370	5.404447	9.326142	10.731689	9.408339	4.933677	-5.339891	1.373315	6.195560	5.341000	-1.052940	0.697081	0.033996	0.676451	-1.000000	-1.000000	-1.000000	-1.000000	-1.000000	-1.000000	-1.000000	87.448276	0.000000	-1.000000	-1.000000	333434.000000	1772894378.574622
1916.910000	-11204.010000	7108.830000	1809.810000	-22520.205000	-18827.820000	-3650.220000	580.005000	8.108688	6.402430	10.777055	8.325811	5.985477	0.278877	-14.125444	-1.438545	6.195560	5.341000	-1.052940	0.697081	0.033996	0.676451	-1.000000	-1.000000	-1.000000	-1.000000	-1.000000	-1.000000	-1.000000	87.448276	0.000000	-1.000000	-1.000000	333435.000000	1772894378.578564
1901.250000	-11205.630000	7112.970000	1821.285000	-22506.930000	-18816.165000	-3645.630000	566.325000	15.878959	5.673115	8.418158	2.852506	0.711327	-3.226762	-15.422623	-1.291560	6.195560	5.341000	-1.052940	0.697081	0.033996	0.676451	-1.000000	-1.000000	-1.000000	-1.000000	-1.000000	-1.000000	-1.000000	87.448276	0.000000	-1.000000	-1.000000	333436.000000	1772894378.578571
1889.910000	-11211.705000	7106.130000	1815.480000	-22513.995000	-18824.760000	-3647.070000	548.055000	16.525944	3.996586	3.909361	-1.645290	-2.549259	-3.528962	-10.157240	-0.991089	6.195560	5.341000	-1.052940	0.697081	0.033996	0.676451	-1.000000	-1.000000	-1.000000	-1.000000	-1.000000	-1.000000	-1.000000	87.448276	0.000000	-1.000000	-1.000000	333437.000000	1772894378.582714
1908.675000	-11215.395000	7097.130000	1806.930000	-22525.020000	-18841.815000	-3653.820000	556.245000	10.251034	1.664368	-1.223017	-3.591589	-3.107494	-2.038921	-2.880217	-2.829012	6.195560	5.341000	-1.052940	0.697081	0.033996	0.676451	-1.000000	-1.000000	-1.000000	-1.000000	-1.000000	-1.000000	-1.000000	87.448276	0.000000	-1.000000	-1.000000	333438.000000	1772894378.582722
1921.365000	-11202.885000	7107.480000	1817.865000	-22514.670000	-18834.345000	-3655.080000	559.800000	0.971217	-0.883070	-5.236168	-3.448154	-2.375770	-1.095365	2.251030	-6.116548	6.195560	5.341000	-1.052940	0.697081	0.033996	0.676451	-1.000000	-1.000000	-1.000000	-1.000000	-1.000000	-1.000000	-1.000000	87.448276	0.000000	-1.000000	-1.000000	333439.000000	1772894378.587013
1912.230000	-11164.770000	7144.335000	1854.990000	-22476.375000	-18797.310000	-3647.835000	536.850000	-7.008828	-2.097028	-5.739822	-1.248300	-0.460323	-0.094706	4.581680	-8.287642	6.195560	5.341000	-1.052940	0.697081	0.033996	0.676451	-1.000000	-1.000000	-1.000000	-1.000000	-1.000000	-1.000000	-1.000000	87.448276	0.000000	-1.000000	-1.000000	333440.000000	1772894378.587020
1909.080000	-11163.870000	7147.260000	1860.435000	-22467.555000	-18784.710000	-3625.695000	544.500000	-11.082927	-0.375657	-1.880610	3.030639	3.434402	3.171060	6.141098	-7.613555	2.868880	5.325740	0.213640	0.689512	0.043396	0.686400	-1.000000	-1.000000	-1.000000	-1.000000	-1.000000	-1.000000	-1.000000	87.448276	0.000000	-1.000000	-1.000000	333441.000000	1772894378.590578
1917.135000	-11185.155000	7127.235000	1841.490000	-22483.170000	-18793.845000	-3619.215000	570.735000	-10.878253	2.664726	3.100392	7.019817	7.631891	7.799297	8.442661	-3.929218	2.868880	5.325740	0.213640	0.689512	0.043396	0.686400	-1.000000	-1.000000	-1.000000	-1.000000	-1.000000	-1.000000	-1.000000	87.448276	0.000000	-1.000000	-1.000000	333442.000000	1772894378.590582
1918.755000	-11189.655000	7124.265000	1838.295000	-22489.335000	-18795.375000	-3610.170000	589.770000	-8.137896	2.698325	4.272261	6.993263	8.309496	9.715400	10.498142	2.022296	2.868880	5.325740	0.213640	0.689512	0.043396	0.686400	-1.000000	-1.000000	-1.000000	-1.000000	-1.000000	-1.000000	-1.000000	87.448276	0.000000	-1.000000	-1.000000	333443.000000	1772894378.594627
1919.835000	-11196.090000	7113.960000	1826.280000	-22502.025000	-18805.815000	-3614.445000	590.040000	-4.688746	-1.873087	0.282919	1.817587	3.540032	6.148573	9.765221	8.255795	2.868880	5.325740	0.213640	0.689512	0.043396	0.686400	-1.000000	-1.000000	-1.000000	-1.000000	-1.000000	-1.000000	-1.000000	87.448276	0.000000	-1.000000	-1.000000	333444.000000	1772894378.594634
1927.035000	-11187.540000	7116.030000	1825.650000	-22502.970000	-18808.695000	-3614.580000	594.810000	-0.722008	-7.755790	-5.815393	-6.033131	-4.847266	-1.923683	4.644361	11.975261	2.868880	5.325740	0.213640	0.689512	0.043396	0.686400	-1.000000	-1.000000	-1.000000	-1.000000	-1.000000	-1.000000	-1.000000	87.448276	0.000000	-1.000000	-1.000000	333445.000000	1772894378.598540
1911.375000	-11183.940000	7126.335000	1837.170000	-22491.855000	-18800.685000	-3608.595000	580.860000	3.695369	-10.136716	-9.427006	-12.011148	-12.150270	-10.238483	-3.572214	11.336397	2.868880	5.325740	0.213640	0.689512	0.043396	0.686400	-1.000000	-1.000000	-1.000000	-1.000000	-1.000000	-1.000000	-1.000000	87.448276	0.000000	-1.000000	-1.000000	333446.000000	1772894378.598544
1890.315000	-11194.650000	7124.715000	1839.285000	-22486.590000	-18797.355000	-3608.820000	550.710000	6.158882	-7.154532	-7.551288	-12.058494	-13.536184	-13.662594	-10.992060	5.568594	2.868880	5.325740	0.213640	0.689512	0.043396	0.686400	-1.000000	-1.000000	-1.000000	-1.000000	-1.000000	-1.000000	-1.000000	87.448276	0.000000	-1.000000	-1.000000	333447.000000	1772894378.602502
1870.560000	-11190.420000	7133.760000	1849.545000	-22474.485000	-18784.170000	-3602.565000	542.160000	3.764139	-1.472938	-1.337239	-6.113515	-8.134176	-10.277624	-13.867892	-4.244940	2.868880	5.325740	0.213640	0.689512	0.043396	0.686400	-1.000000	-1.000000	-1.000000	-1.000000	-1.000000	-1.000000	-1.000000	87.448276	0.000000	-1.000000	-1.000000	333448.000000	1772894378.602509
1876.635000	-11190.600000	7125.480000	1839.645000	-22484.025000	-18794.655000	-3614.445000	552.870000	-2.040823	2.759857	4.614336	1.424131	-0.110788	-3.202081	-11.428256	-13.099776	2.868880	5.325740	0.213640	0.689512	0.043396	0.686400	-1.000000	-1.000000	-1.000000	-1.000000	-1.000000	-1.000000	-1.000000	87.448276	0.000000	-1.000000	-1.000000	333449.000000	1772894378.608399
1930.995000	-11205.675000	7096.275000	1809.810000	-22512.195000	-18822.285000	-3637.980000	578.745000	-5.238306	3.808710	6.158170	5.519514	4.996578	2.197372	-6.479138	-15.009062	2.868880	5.325740	0.213640	0.689512	0.043396	0.686400	-1.000000	-1.000000	-1.000000	-1.000000	-1.000000	-1.000000	-1.000000	87.448276	0.000000	-1.000000	-1.000000	333450.000000	1772894378.608406
1970.100000	-11219.310000	7087.635000	1803.240000	-22519.350000	-18828.450000	-3646.395000	584.100000	-1.066088	2.708165	2.906097	4.640676	4.961307	3.067648	-2.647468	-8.936405	-3.402980	5.188400	0.396760	0.689512	0.048157	0.691282	-1.000000	-1.000000	-1.000000	-1.000000	-1.000000	-1.000000	-1.000000	87.448276	0.000000	-1.000000	-1.000000	333451.000000	1772894378.610640
1952.010000	-11219.940000	7095.825000	1812.330000	-22512.645000	-18820.890000	-3641.310000	580.770000	8.337821	1.326083	-1.625748	1.570740	2.218225	1.232709	-0.734514	0.451243	-3.402980	5.188400	0.396760	0.689512	0.048157	0.691282	-1.000000	-1.000000	-1.000000	-1.000000	-1.000000	-1.000000	-1.000000	87.448276	0.000000	-1.000000	-1.000000	333452.000000	1772894378.610648
1891.755000	-11166.660000	7153.245000	1866.915000	-22462.920000	-18778.275000	-3605.940000	591.885000	14.296729	1.673112	-2.496840	0.899507	1.325741	1.027416	1.595309	7.593166	-3.402980	5.188400	0.396760	0.689512	0.048157	0.691282	-1.000000	-1.000000	-1.000000	-1.000000	-1.000000	-1.000000	-1.000000	87.448276	0.000000	-1.000000	-1.000000	333453.000000	1772894378.614723
1876.950000	-11143.710000	7173.045000	1886.220000	-22445.550000	-18768.375000	-3613.995000	575.280000	9.469493	5.289980	2.820033	5.135322	4.920721	4.999038	6.236845	10.030913	-3.402980	5.188400	0.396760	0.689512	0.048157	0.691282	-1.000000	-1.000000	-1.000000	-1.000000	-1.000000	-1.000000	-1.000000	87.448276	0.000000	-1.000000	-1.000000	333454.000000	1772894378.614732
1906.785000	-11162.790000	7145.145000	1853.370000	-22480.290000	-18811.665000	-3671.775000	551.745000	-3.441934	10.315088	10.678463	11.045769	10.116014	10.224055	10.466002	7.922270	-3.402980	5.188400	0.396760	0.689512	0.048157	0.691282	-1.000000	-1.000000	-1.000000	-1.000000	-1.000000	-1.000000	-1.000000	87.448276	0.000000	-1.000000	-1.000000	333455.000000	1772894378.618691
1898.505000	-11195.685000	7110.765000	1818.405000	-22513.950000	-18842.805000	-3690.315000	570.420000	-13.870256	11.099038	12.891354	11.140364	9.879402	9.938712	8.919777	3.197821	-3.402980	5.188400	0.396760	0.689512	0.048157	0.691282	-1.000000	-1.000000	-1.000000	-1.000000	-1.000000	-1.000000	-1.000000	87.448276	0.000000	-1.000000	-1.000000	333456.000000	1772894378.618698
1892.970000	-11209.815000	7093.755000	1801.485000	-22525.965000	-18841.905000	-3652.335000	572.400000	-14.550290	3.657037	4.678817	1.509250	0.646096	1.259440	1.605471	-0.623364	-3.402980	5.188400	0.396760	0.689512	0.048157	0.691282	-1.000000	-1.000000	-1.000000	-1.000000	-1.000000	-1.000000	-1.000000	87.448276	0.000000	-1.000000	-1.000000	333457.000000	1772894378.631252
1889.595000	-11214.855000	7098.030000	1814.895000	-22506.795000	-18807.705000	-3605.085000	555.300000	-7.280432	-9.106316	-9.559875	-12.541343	-12.200143	-9.837581	-3.943092	-1.957599	-3.402980	5.188400	0.396760	0.689512	0.048157	0.691282	-1.000000	-1.000000	-1.000000	-1.000000	-1.000000	-1.000000	-1.000000	87.448276	0.000000	-1.000000	-1.000000	333458.000000	1772894378.631262
1923.930000	-11201.850000	7106.580000	1830.600000	-22492.440000	-18796.995000	-3612.915000	558.450000	1.015736	-18.648880	-19.249370	-20.093274	-18.208427	-13.524871	-1.345138	-2.951255	-3.402980	5.188400	0.396760	0.689512	0.048157	0.691282	-1.000000	-1.000000	-1.000000	-1.000000	-1.000000	-1.000000	-1.000000	87.448276	0.000000	-1.000000	-1.000000	333459.000000	1772894378.631401
1926.900000	-11178.495000	7132.725000	1857.915000	-22467.330000	-18779.040000	-3627.540000	550.755000	5.358478	-17.578191	-16.781313	-14.468915	-11.658979	-6.175020	6.473349	-5.224598	-3.402980	5.188400	0.396760	0.689512	0.048157	0.691282	-1.000000	-1.000000	-1.000000	-1.000000	-1.000000	-1.000000	-1.000000	87.448276	0.000000	-1.000000	-1.000000	333460.000000	1772894378.631408
1896.120000	-11159.820000	7142.355000	1859.355000	-22464.810000	-18778.770000	-3635.055000	528.660000	5.657817	-5.966175	-3.978242	0.477167	2.959909	6.148022	10.586426	-7.511901	-0.671440	7.034860	2.044840	0.697386	0.039795	0.694761	-1.000000	-1.000000	-1.000000	-1.000000	-1.000000	-1.000000	-1.000000	87.448276	0.000000	-1.000000	-1.000000	333461.000000	1772894378.631417
1903.005000	-11182.455000	7110.045000	1824.345000	-22496.310000	-18806.895000	-3642.300000	544.185000	4.600137	7.796538	9.148276	13.092456	14.333694	13.183670	5.580218	-7.658524	-0.671440	7.034860	2.044840	0.697386	0.039795	0.694761	-1.000000	-1.000000	-1.000000	-1.000000	-1.000000	-1.000000	-1.000000	87.448276	0.000000	-1.000000	-1.000000	333462.000000	1772894378.631421
1901.610000	-11203.470000	7127.505000	1841.715000	-22480.155000	-18785.565000	-3598.695000	569.160000	4.350617	13.552857	13.170958	14.214081	14.141138	9.583123	-4.888806	-3.503167	-0.671440	7.034860	2.044840	0.697386	0.039795	0.694761	-1.000000	-1.000000	-1.000000	-1.000000	-1.000000	-1.000000	-1.000000	87.448276	0.000000	-1.000000	-1.000000	333463.000000	1772894378.634534
1853.370000	-11209.230000	7142.670000	1848.735000	-22475.205000	-18778.455000	-3570.615000	572.220000	3.705192	8.766483	8.529959	6.115862	5.087100	0.212918	-10.760622	5.371112	-0.671440	7.034860	2.044840	0.697386	0.039795	0.694761	-1.000000	-1.000000	-1.000000	-1.000000	-1.000000	-1.000000	-1.000000	87.448276	0.000000	-1.000000	-1.000000	333464.000000	1772894378.634542
1864.980000	-11190.375000	7144.650000	1849.095000	-22480.470000	-18787.725000	-3588.570000	565.470000	0.151515	0.169282	2.947230	-1.721283	-3.525806	-6.161371	-6.656783	14.523582	-0.671440	7.034860	2.044840	0.697386	0.039795	0.694761	-1.000000	-1.000000	-1.000000	-1.000000	-1.000000	-1.000000	-1.000000	87.448276	0.000000	-1.000000	-1.000000	333465.000000	1772894378.638627
1914.525000	-11197.755000	7119.675000	1820.610000	-22511.520000	-18826.020000	-3638.700000	558.270000	-4.083664	-4.232648	0.848643	-4.103713	-6.777493	-7.273812	0.560829	17.231358	-0.671440	7.034860	2.044840	0.697386	0.039795	0.694761	-1.000000	-1.000000	-1.000000	-1.000000	-1.000000	-1.000000	-1.000000	87.448276	0.000000	-1.000000	-1.000000	333466.000000	1772894378.638633
1958.400000	-11204.595000	7113.330000	1815.795000	-22518.630000	-18834.840000	-3659.850000	563.535000	-3.679748	-2.598596	0.339596	-3.160933	-6.604553	-7.183329	0.222855	11.072754	-0.671440	7.034860	2.044840	0.697386	0.039795	0.694761	-1.000000	-1.000000	-1.000000	-1.000000	-1.000000	-1.000000	-1.000000	87.448276	0.000000	-1.000000	-1.000000	333467.000000	1772894378.642520
1915.020000	-11193.795000	7124.040000	1836.090000	-22499.190000	-18814.815000	-3658.545000	556.965000	1.043103	1.395937	-1.359406	-2.396801	-5.795092	-8.076546	-8.336032	-0.328237	-0.671440	7.034860	2.044840	0.697386	0.039795	0.694761	-1.000000	-1.000000	-1.000000	-1.000000	-1.000000	-1.000000	-1.000000	87.448276	0.000000	-1.000000	-1.000000	333468.000000	1772894378.642527
1874.025000	-11200.590000	7109.955000	1819.935000	-22512.465000	-18829.530000	-3667.995000	547.110000	3.324804	3.468727	-4.489086	-2.697145	-4.598638	-7.748693	-15.725363	-10.866258	-0.671440	7.034860	2.044840	0.697386	0.039795	0.694761	-1.000000	-1.000000	-1.000000	-1.000000	-1.000000	-1.000000	-1.000000	87.448276	0.000000	-1.000000	-1.000000	333469.000000	1772894378.646633
1897.965000	-11201.850000	7106.985000	1817.595000	-22511.880000	-18828.990000	-3649.230000	556.020000	-0.081116	1.665292	-7.779423	-3.513927	-2.659352	-4.336323	-13.809973	-15.650399	-0.671440	7.034860	2.044840	0.697386	0.039795	0.694761	-1.000000	-1.000000	-1.000000	-1.000000	-1.000000	-1.000000	-1.000000	87.448276	0.000000	-1.000000	-1.000000	333470.000000	1772894378.646642
1925.055000	-11193.570000	7115.715000	1825.830000	-22503.690000	-18816.390000	-3622.725000	589.860000	-4.241658	-2.399714	-9.025989	-3.556059	0.139862	1.626714	-2.269399	-12.851546	1.815940	7.340060	0.839300	0.703123	0.032410	0.694761	-1.000000	-1.000000	-1.000000	-1.000000	-1.000000	-1.000000	-1.000000	87.448276	0.000000	-1.000000	-1.000000	333471.000000	1772894378.650393
1930.455000	-11182.185000	7126.560000	1832.445000	-22499.505000	-18810.720000	-3618.270000	596.340000	-3.425618	-4.393720	-6.141460	-1.355327	3.814646	8.356302	12.636318	-4.268460	1.815940	7.340060	0.839300	0.703123	0.032410	0.694761	-1.000000	-1.000000	-1.000000	-1.000000	-1.000000	-1.000000	-1.000000	87.448276	0.000000	-1.000000	-1.000000	333472.000000	1772894378.650400
1937.835000	-11172.870000	7139.790000	1847.250000	-22483.710000	-18796.680000	-3617.730000	600.975000	2.473110	-1.656050	0.467520	2.926601	7.508351	13.374052	22.423560	5.342467	1.815940	7.340060	0.839300	0.703123	0.032410	0.694761	-1.000000	-1.000000	-1.000000	-1.000000	-1.000000	-1.000000	-1.000000	87.448276	0.000000	-1.000000	-1.000000	333473.000000	1772894378.654559
1915.290000	-11187.090000	7135.965000	1846.710000	-22479.345000	-18788.310000	-3616.470000	587.070000	8.324316	3.506114	7.889263	7.553974	10.055359	14.925900	22.330649	10.812375	1.815940	7.340060	0.839300	0.703123	0.032410	0.694761	-1.000000	-1.000000	-1.000000	-1.000000	-1.000000	-1.000000	-1.000000	87.448276	0.000000	-1.000000	-1.000000	333474.000000	1772894378.654569
1897.605000	-11201.355000	7135.065000	1847.655000	-22477.770000	-18782.955000	-3610.845000	555.705000	7.126980	6.188132	12.738589	10.426047	10.619604	12.927926	14.275740	9.259847	1.815940	7.340060	0.839300	0.703123	0.032410	0.694761	-1.000000	-1.000000	-1.000000	-1.000000	-1.000000	-1.000000	-1.000000	87.448276	0.000000	-1.000000	-1.000000	333475.000000	1772894378.658556
1920.915000	-11189.430000	7142.085000	1854.360000	-22472.415000	-18782.055000	-3615.075000	539.370000	-2.978496	4.059091	12.823453	9.746323	8.291053	7.805999	3.651374	1.265027	1.815940	7.340060	0.839300	0.703123	0.032410	0.694761	-1.000000	-1.000000	-1.000000	-1.000000	-1.000000	-1.000000	-1.000000	87.448276	0.000000	-1.000000	-1.000000	333476.000000	1772894378.658566
1904.220000	-11200.140000	7109.685000	1817.325000	-22509.810000	-18817.740000	-3634.335000	556.335000	-14.233796	-1.128276	7.488672	4.322753	2.030823	-0.549132	-5.601960	-8.352624	1.815940	7.340060	0.839300	0.703123	0.032410	0.694761	-1.000000	-1.000000	-1.000000	-1.000000	-1.000000	-1.000000	-1.000000	87.448276	0.000000	-1.000000	-1.000000	333477.000000	1772894378.664006
1905.795000	-11183.445000	7121.205000	1821.195000	-22503.060000	-18809.820000	-3620.565000	573.705000	-16.561870	-5.974642	-1.823869	-4.967014	-7.469832	-10.962709	-11.975141	-12.394232	1.815940	7.340060	0.839300	0.703123	0.032410	0.694761	-1.000000	-1.000000	-1.000000	-1.000000	-1.000000	-1.000000	-1.000000	87.448276	0.000000	-1.000000	-1.000000	333478.000000	1772894378.664013
1901.250000	-11185.875000	7122.375000	1826.010000	-22496.040000	-18801.585000	-3617.595000	570.330000	-8.290644	-7.618892	-10.592413	-13.474142	-15.712092	-18.823066	-14.725234	-7.787159	1.815940	7.340060	0.839300	0.703123	0.032410	0.694761	-1.000000	-1.000000	-1.000000	-1.000000	-1.000000	-1.000000	-1.000000	87.448276	0.000000	-1.000000	-1.000000	333479.000000	1772894378.672174
1907.730000	-11179.395000	7122.510000	1833.210000	-22496.265000	-18802.890000	-3618.405000	558.630000	3.572342	-5.249510	-14.076583	-15.786476	-17.438639	-19.380273	-13.925920	0.810042	1.815940	7.340060	0.839300	0.703123	0.032410	0.694761	-1.000000	-1.000000	-1.000000	-1.000000	-1.000000	-1.000000	-1.000000	87.448276	0.000000	-1.000000	-1.000000	333480.000000	1772894378.672182
1916.730000	-11171.970000	7132.095000	1848.645000	-22483.800000	-18791.190000	-3601.035000	556.020000	11.732649	-0.516690	-11.344046	-10.570169	-11.635894	-12.424499	-10.382081	6.382731	-4.623780	5.539380	-0.350980	0.699766	0.033630	0.693297	-1.000000	-1.000000	-1.000000	-1.000000	-1.000000	-1.000000	-1.000000	87.448276	0.000000	-1.000000	-1.000000	333481.000000	1772894378.672191
1937.790000	-11161.440000	7153.875000	1871.460000	-22460.220000	-18770.355000	-3592.890000	562.230000	14.130367	4.058146	-4.462077	-0.677580	-1.363557	-1.481350	-4.420395	6.609217	-4.623780	5.539380	-0.350980	0.699766	0.033630	0.693297	-1.000000	-1.000000	-1.000000	-1.000000	-1.000000	-1.000000	-1.000000	87.448276	0.000000	-1.000000	-1.000000	333482.000000	1772894378.672194
1942.245000	-11155.320000	7169.850000	1883.385000	-22448.565000	-18760.950000	-3603.825000	563.310000	12.345519	6.940175	4.094316	9.566341	9.185548	9.186033	2.974077	4.340541	-4.623780	5.539380	-0.350980	0.699766	0.033630	0.693297	-1.000000	-1.000000	-1.000000	-1.000000	-1.000000	-1.000000	-1.000000	87.448276	0.000000	-1.000000	-1.000000	333483.000000	1772894378.674632
1938.285000	-11173.635000	7141.590000	1854.180000	-22476.915000	-18787.770000	-3622.590000	581.715000	7.778845	7.467354	11.074865	15.502468	15.589391	15.378694	8.698984	3.498449	-4.623780	5.539380	-0.350980	0.699766	0.033630	0.693297	-1.000000	-1.000000	-1.000000	-1.000000	-1.000000	-1.000000	-1.000000	87.448276	0.000000	-1.000000	-1.000000	333484.000000	1772894378.674639
1928.160000	-11186.505000	7122.780000	1837.215000	-22488.480000	-18798.210000	-3619.620000	602.370000	0.876858	4.642135	12.214412	13.299412	14.198259	14.013200	9.941552	5.499084	-4.623780	5.539380	-0.350980	0.699766	0.033630	0.693297	-1.000000	-1.000000	-1.000000	-1.000000	-1.000000	-1.000000	-1.000000	87.448276	0.000000	-1.000000	-1.000000	333485.000000	1772894378.678604
1921.590000	-11187.945000	7120.215000	1833.255000	-22489.380000	-18798.930000	-3612.285000	591.030000	-6.483216	-1.452711	6.290853	3.807188	5.813723	6.297690	7.329367	7.893521	-4.623780	5.539380	-0.350980	0.699766	0.033630	0.693297	-1.000000	-1.000000	-1.000000	-1.000000	-1.000000	-1.000000	-1.000000	87.448276	0.000000	-1.000000	-1.000000	333486.000000	1772894378.678612
1927.710000	-11180.610000	7132.095000	1842.840000	-22485.015000	-18798.930000	-3610.890000	592.110000	-10.905859	-7.828971	-2.486046	-6.736491	-3.976007	-2.562895	3.483545	6.368815	-4.623780	5.539380	-0.350980	0.699766	0.033630	0.693297	-1.000000	-1.000000	-1.000000	-1.000000	-1.000000	-1.000000	-1.000000	87.448276	0.000000	-1.000000	-1.000000	333487.000000	1772894378.682572
1913.715000	-11180.925000	7141.320000	1855.485000	-22473.315000	-18785.430000	-3603.915000	583.515000	-10.814341	-10.566913	-8.305822	-12.042383	-9.736304	-7.930658	-0.024907	-0.512265	-4.623780	5.539380	-0.350980	0.699766	0.033630	0.693297	-1.000000	-1.000000	-1.000000	-1.000000	-1.000000	-1.000000	-1.000000	87.448276	0.000000	-1.000000	-1.000000	333488.000000	1772894378.682579
1929.105000	-11166.615000	7154.865000	1871.415000	-22461.840000	-18777.780000	-3613.050000	579.105000	-7.445207	-7.971103	-8.232021	-10.103134	-9.407803	-8.071944	-2.792419	-9.377993	-4.623780	5.539380	-0.350980	0.699766	0.033630	0.693297	-1.000000	-1.000000	-1.000000	-1.000000	-1.000000	-1.000000	-1.000000	87.448276	0.000000	-1.000000	-1.000000	333489.000000	1772894378.688901
1930.005000	-11166.345000	7154.370000	1876.545000	-22453.605000	-18775.890000	-3621.915000	556.155000	-2.757216	-1.616814	-3.610427	-3.450819	-4.502116	-4.235107	-4.921085	-15.395936	-4.623780	5.539380	-0.350980	0.699766	0.033630	0.693297	-1.000000	-1.000000	-1.000000	-1.000000	-1.000000	-1.000000	-1.000000	87.448276	0.000000	-1.000000	-1.000000	333490.000000	1772894378.688908
1918.935000	-11175.300000	7144.875000	1872.945000	-22454.055000	-18774.090000	-3626.055000	527.310000	1.324280	4.712568	1.276848	2.974289	1.039948	0.168213	-6.336882	-16.318304	-8.728720	5.142620	-2.044840	0.696653	0.036194	0.692686	-1.000000	-1.000000	-1.000000	-1.000000	-1.000000	-1.000000	-1.000000	87.448276	0.000000	-1.000000	-1.000000	333491.000000	1772894378.695124
1909.755000	-11170.530000	7157.385000	1883.430000	-22444.335000	-18759.240000	-3609.900000	532.800000	3.040178	7.801462	3.129370	5.682053	4.016792	2.655068	-5.643263	-12.554903	-8.728720	5.142620	-2.044840	0.696653	0.036194	0.692686	-1.000000	-1.000000	-1.000000	-1.000000	-1.000000	-1.000000	-1.000000	87.448276	0.000000	-1.000000	-1.000000	333492.000000	1772894378.695133
1919.025000	-11161.710000	7163.730000	1882.710000	-22445.190000	-18755.280000	-3587.220000	590.490000	2.445272	7.494925	2.770833	5.181084	4.439925	3.744357	-1.050023	-4.560743	-8.728720	5.142620	-2.044840	0.696653	0.036194	0.692686	-1.000000	-1.000000	-1.000000	-1.000000	-1.000000	-1.000000	-1.000000	87.448276	0.000000	-1.000000	-1.000000	333493.000000	1772894378.695145
1922.040000	-11167.065000	7157.610000	1874.070000	-22449.465000	-18757.440000	-3581.730000	583.605000	1.881266	5.640756	2.917344	3.878954	3.950337	4.765294	6.544506	6.688224	-8.728720	5.142620	-2.044840	0.696653	0.036194	0.692686	-1.000000	-1.000000	-1.000000	-1.000000	-1.000000	-1.000000	-1.000000	87.448276	0.000000	-1.000000	-1.000000	333494.000000	1772894378.695149
1936.170000	-11177.505000	7141.275000	1854.720000	-22472.775000	-18787.140000	-3614.940000	578.745000	3.443506	3.046028	3.601730	2.399749	2.752814	4.830686	12.103987	16.820052	-8.728720	5.142620	-2.044840	0.696653	0.036194	0.692686	-1.000000	-1.000000	-1.000000	-1.000000	-1.000000	-1.000000	-1.000000	87.448276	0.000000	-1.000000	-1.000000	333495.000000	1772894378.705053
1896.930000	-11191.140000	7119.900000	1830.690000	-22499.055000	-18811.215000	-3627.000000	595.125000	5.921812	-0.832712	2.076760	-0.733524	-0.604850	1.464675	10.045243	20.368789	-8.728720	5.142620	-2.044840	0.696653	0.036194	0.692686	-1.000000	-1.000000	-1.000000	-1.000000	-1.000000	-1.000000	-1.000000	87.448276	0.000000	-1.000000	-1.000000	333496.000000	1772894378.705064
1891.755000	-11189.115000	7120.980000	1830.510000	-22499.190000	-18809.325000	-3621.555000	584.055000	5.627294	-5.574138	-2.925100	-6.045225	-6.281116	-5.486435	0.480042	15.911971	-8.728720	5.142620	-2.044840	0.696653	0.036194	0.692686	-1.000000	-1.000000	-1.000000	-1.000000	-1.000000	-1.000000	-1.000000	87.448276	0.000000	-1.000000	-1.000000	333497.000000	1772894378.705074
1922.310000	-11180.790000	7129.170000	1837.935000	-22492.935000	-18803.745000	-3618.495000	573.615000	1.467137	-8.912225	-8.568083	-10.852604	-11.123813	-11.883239	-9.904227	6.188782	-8.728720	5.142620	-2.044840	0.696653	0.036194	0.692686	-1.000000	-1.000000	-1.000000	-1.000000	-1.000000	-1.000000	-1.000000	87.448276	0.000000	-1.000000	-1.000000	333498.000000	1772894378.705079
1929.105000	-11170.890000	7140.870000	1849.185000	-22483.665000	-18798.030000	-3611.340000	569.205000	-3.065481	-8.377326	-10.201210	-11.107662	-11.075747	-12.728257	-13.930950	-4.292196	-8.728720	5.142620	-2.044840	0.696653	0.036194	0.692686	-1.000000	-1.000000	-1.000000	-1.000000	-1.000000	-1.000000	-1.000000	87.448276	0.000000	-1.000000	-1.000000	333499.000000	1772894378.707035
1918.710000	-11165.310000	7152.480000	1864.035000	-22468.770000	-18785.790000	-3608.010000	569.385000	-4.407933	-3.382445	-5.575374	-5.091877	-4.875659	-6.682407	-9.538865	-10.943044	-8.728720	5.142620	-2.044840	0.696653	0.036194	0.692686	-1.000000	-1.000000	-1.000000	-1.000000	-1.000000	-1.000000	-1.000000	87.448276	0.000000	-1.000000	-1.000000	333500.000000	1772894378.707042
1899.765000	-11176.290000	7138.440000	1860.750000	-22468.995000	-18786.330000	-3622.680000	550.620000	-2.959221	3.598207	2.901923	4.795421	4.923329	3.176105	-0.648319	-12.306563	-7.294280	3.921820	-3.601360	0.700987	0.035644	0.695433	-1.000000	-1.000000	-1.000000	-1.000000	-1.000000	-1.000000	-1.000000	87.448276	0.000000	-1.000000	-1.000000	333501.000000	1772894378.711172
1900.305000	-11202.165000	7101.945000	1833.210000	-22495.455000	-18812.385000	-3647.115000	576.720000	-1.495506	7.983884	9.423708	13.073122	13.139641	11.397127	5.912122	-10.896143	-7.294280	3.921820	-3.601360	0.700987	0.035644	0.695433	-1.000000	-1.000000	-1.000000	-1.000000	-1.000000	-1.000000	-1.000000	87.448276	0.000000	-1.000000	-1.000000	333502.000000	1772894378.711179
1931.085000	-11197.035000	7112.610000	1838.790000	-22491.540000	-18806.580000	-3630.690000	605.970000	-0.980030	6.920699	9.757541	15.068627	15.212873	13.746941	6.350897	-8.002910	-7.294280	3.921820	-3.601360	0.700987	0.035644	0.695433	-1.000000	-1.000000	-1.000000	-1.000000	-1.000000	-1.000000	-1.000000	87.448276	0.000000	-1.000000	-1.000000	333503.000000	1772894378.716004
1933.065000	-11184.795000	7131.015000	1845.855000	-22486.095000	-18805.365000	-3635.640000	570.645000	0.183643	2.400399	5.594241	10.905940	11.111406	10.608499	3.295954	-2.776521	-7.294280	3.921820	-3.601360	0.700987	0.035644	0.695433	-1.000000	-1.000000	-1.000000	-1.000000	-1.000000	-1.000000	-1.000000	87.448276	0.000000	-1.000000	-1.000000	333504.000000	1772894378.716012
1920.375000	-11174.355000	7137.450000	1843.785000	-22486.680000	-18806.940000	-3640.275000	552.195000	2.885733	-0.934933	2.009609	4.426163	4.676543	5.553975	1.268470	2.568162	-7.294280	3.921820	-3.601360	0.700987	0.035644	0.695433	-1.000000	-1.000000	-1.000000	-1.000000	-1.000000	-1.000000	-1.000000	87.448276	0.000000	-1.000000	-1.000000	333505.000000	1772894378.718565
1896.705000	-11199.285000	7125.075000	1828.620000	-22503.555000	-18821.205000	-3640.410000	554.220000	4.888628	-1.233376	1.012142	-1.562163	-1.178337	0.731292	1.262222	4.635862	-7.294280	3.921820	-3.601360	0.700987	0.035644	0.695433	-1.000000	-1.000000	-1.000000	-1.000000	-1.000000	-1.000000	-1.000000	87.448276	0.000000	-1.000000	-1.000000	333506.000000	1772894378.718573
1881.045000	-11218.410000	7125.705000	1833.840000	-22499.145000	-18810.945000	-3613.815000	577.620000	2.485672	-1.100096	0.321667	-6.647270	-6.142615	-3.798206	2.059870	4.396317	-7.294280	3.921820	-3.601360	0.700987	0.035644	0.695433	-1.000000	-1.000000	-1.000000	-1.000000	-1.000000	-1.000000	-1.000000	87.448276	0.000000	-1.000000	-1.000000	333507.000000	1772894378.722546
1902.420000	-11183.220000	7148.205000	1858.905000	-22471.740000	-18782.415000	-3599.145000	579.195000	-4.145836	-2.658574	-1.878984	-10.013568	-9.590278	-7.094522	3.180120	5.165586	-7.294280	3.921820	-3.601360	0.700987	0.035644	0.695433	-1.000000	-1.000000	-1.000000	-1.000000	-1.000000	-1.000000	-1.000000	87.448276	0.000000	-1.000000	-1.000000	333508.000000	1772894378.722554
1905.075000	-11172.600000	7140.870000	1851.345000	-22477.005000	-18787.095000	-3605.715000	573.300000	-9.149065	-3.683270	-4.374302	-9.903617	-9.728649	-7.349287	4.155420	7.329004	-7.294280	3.921820	-3.601360	0.700987	0.035644	0.695433	-1.000000	-1.000000	-1.000000	-1.000000	-1.000000	-1.000000	-1.000000	87.448276	0.000000	-1.000000	-1.000000	333509.000000	1772894378.734727
