Channel1	Channel2	Channel3	Channel4	Channel5	Channel6	Channel7	Channel8	FilteredChannel1	FilteredChannel2	FilteredChannel3	FilteredChannel4	FilteredChannel5	FilteredChannel6	FilteredChannel7	FilteredChannel8	GyroX	GyroY	GyroZ	AccX	AccY	AccZ	PPG1	PPG2	rawPPG1	rawPPG2	rawPPG3	Hr	Hrv	Battery	Trigger	PhysicalTrigger	AutoTrigger	NumMeasurements	Timestamp
1293.840000	-12001.590000	5512.770000	-25.965000	-24601.095000	-21047.940000	-5265.495000	1024.200000	-3.226679	-7.702458	-10.919176	-13.324715	-11.551807	-7.175716	6.696508	17.294120	-4.089680	1.312360	-2.197440	0.777342	0.040893	0.606017	-1.000000	-1.000000	-1.000000	-1.000000	-1.000000	-1.000000	-1.000000	87.793103	0.000000	-1.000000	-1.000000	293262.000000	1772894298.257122
1308.825000	-11991.240000	5520.555000	-17.685000	-24592.095000	-21040.830000	-5270.625000	1004.850000	-9.855366	-12.057420	-14.146894	-17.927720	-15.995290	-10.159264	7.248267	17.734077	-4.089680	1.312360	-2.197440	0.777342	0.040893	0.606017	-1.000000	-1.000000	-1.000000	-1.000000	-1.000000	-1.000000	-1.000000	87.793103	0.000000	-1.000000	-1.000000	293263.000000	1772894298.261098
1306.800000	-11982.285000	5532.795000	-4.095000	-24580.845000	-21031.470000	-5271.165000	987.570000	-12.618299	-9.135193	-8.636996	-11.688033	-10.000345	-5.441404	5.404289	9.088796	-4.089680	1.312360	-2.197440	0.777342	0.040893	0.606017	-1.000000	-1.000000	-1.000000	-1.000000	-1.000000	-1.000000	-1.000000	87.793103	0.000000	-1.000000	-1.000000	293264.000000	1772894298.261108
1290.510000	-11989.980000	5527.215000	-7.785000	-24585.210000	-21038.535000	-5279.895000	991.395000	-12.748590	-2.319796	1.231007	0.635052	1.256852	2.583087	1.162620	-4.911958	-4.089680	1.312360	-2.197440	0.777342	0.040893	0.606017	-1.000000	-1.000000	-1.000000	-1.000000	-1.000000	-1.000000	-1.000000	87.793103	0.000000	-1.000000	-1.000000	293265.000000	1772894298.265163
1270.845000	-12008.880000	5515.785000	-17.100000	-24592.995000	-21047.670000	-5287.140000	1001.385000	-12.399691	1.901194	7.643728	9.950074	9.103199	7.260549	-4.071459	-16.947936	-4.089680	1.312360	-2.197440	0.777342	0.040893	0.606017	-1.000000	-1.000000	-1.000000	-1.000000	-1.000000	-1.000000	-1.000000	87.793103	0.000000	-1.000000	-1.000000	293266.000000	1772894298.265186
1259.325000	-12030.210000	5501.025000	-30.555000	-24605.505000	-21060.135000	-5294.655000	986.760000	-12.460300	-0.180160	6.039104	10.247158	8.463422	5.126408	-8.110727	-21.234302	-4.089680	1.312360	-2.197440	0.777342	0.040893	0.606017	-1.000000	-1.000000	-1.000000	-1.000000	-1.000000	-1.000000	-1.000000	87.793103	0.000000	-1.000000	-1.000000	293267.000000	1772894298.270694
1244.655000	-12046.725000	5485.320000	-48.960000	-24625.305000	-21078.720000	-5302.035000	986.805000	-11.510014	-5.905611	-1.111914	3.179431	1.390877	-1.618507	-9.080262	-16.964650	-4.089680	1.312360	-2.197440	0.777342	0.040893	0.606017	-1.000000	-1.000000	-1.000000	-1.000000	-1.000000	-1.000000	-1.000000	87.793103	0.000000	-1.000000	-1.000000	293268.000000	1772894298.270721
1240.920000	-12046.095000	5488.155000	-46.305000	-24621.795000	-21075.120000	-5301.405000	996.210000	-7.432158	-9.204427	-7.173719	-4.477912	-5.749131	-7.564596	-6.712960	-7.026268	-4.089680	1.312360	-2.197440	0.777342	0.040893	0.606017	-1.000000	-1.000000	-1.000000	-1.000000	-1.000000	-1.000000	-1.000000	87.793103	0.000000	-1.000000	-1.000000	293269.000000	1772894298.273572
1250.775000	-12028.005000	5505.480000	-31.950000	-24608.295000	-21062.205000	-5294.880000	1001.835000	0.520870	-6.472778	-7.637058	-7.413507	-8.147837	-8.847012	-2.571523	4.512678	-4.089680	1.312360	-2.197440	0.777342	0.040893	0.606017	-1.000000	-1.000000	-1.000000	-1.000000	-1.000000	-1.000000	-1.000000	87.793103	0.000000	-1.000000	-1.000000	293270.000000	1772894298.273592
1301.805000	-12005.955000	5507.910000	-33.210000	-24609.735000	-21061.530000	-5288.130000	1039.545000	11.377669	1.324361	-3.081872	-5.293944	-5.615821	-5.495462	1.617288	14.406947	-6.973820	1.312360	-1.190280	0.773069	0.042053	0.604369	-1.000000	-1.000000	-1.000000	-1.000000	-1.000000	-1.000000	-1.000000	87.793103	0.000000	-1.000000	-1.000000	293271.000000	1772894298.277057
1303.560000	-12007.215000	5504.265000	-29.520000	-24606.810000	-21054.870000	-5273.730000	1044.045000	21.906913	10.282693	2.861555	-0.909690	-0.937593	-0.068098	5.226028	20.793972	-6.973820	1.312360	-1.190280	0.773069	0.042053	0.604369	-1.000000	-1.000000	-1.000000	-1.000000	-1.000000	-1.000000	-1.000000	87.793103	0.000000	-1.000000	-1.000000	293272.000000	1772894298.277065
1313.685000	-11991.015000	5520.285000	-8.550000	-24586.245000	-21033.225000	-5252.670000	1041.705000	26.755205	15.789978	6.855977	3.199299	3.390127	5.042014	8.249582	21.595194	-6.973820	1.312360	-1.190280	0.773069	0.042053	0.604369	-1.000000	-1.000000	-1.000000	-1.000000	-1.000000	-1.000000	-1.000000	87.793103	0.000000	-1.000000	-1.000000	293273.000000	1772894298.281167
1298.295000	-12006.450000	5509.620000	-21.330000	-24599.835000	-21049.920000	-5269.680000	1024.875000	22.126836	14.977327	7.573872	5.743572	6.166184	8.398869	10.004822	14.552472	-6.973820	1.312360	-1.190280	0.773069	0.042053	0.604369	-1.000000	-1.000000	-1.000000	-1.000000	-1.000000	-1.000000	-1.000000	87.793103	0.000000	-1.000000	-1.000000	293274.000000	1772894298.281176
1302.570000	-12013.695000	5500.980000	-32.355000	-24610.590000	-21060.360000	-5286.105000	1033.155000	9.214212	8.224004	5.320996	5.784097	6.440878	8.602342	8.577993	0.538591	-6.973820	1.312360	-1.190280	0.773069	0.042053	0.604369	-1.000000	-1.000000	-1.000000	-1.000000	-1.000000	-1.000000	-1.000000	87.793103	0.000000	-1.000000	-1.000000	293275.000000	1772894298.285316
1301.355000	-12018.465000	5503.635000	-26.190000	-24600.105000	-21046.320000	-5275.935000	1041.345000	-6.311340	-0.960862	1.643219	3.467811	4.293574	5.534666	3.217608	-14.268839	-6.973820	1.312360	-1.190280	0.773069	0.042053	0.604369	-1.000000	-1.000000	-1.000000	-1.000000	-1.000000	-1.000000	-1.000000	87.793103	0.000000	-1.000000	-1.000000	293276.000000	1772894298.285325
1309.995000	-12017.565000	5519.790000	-4.815000	-24576.660000	-21024.045000	-5253.165000	1041.795000	-17.602752	-7.842026	-0.769292	1.277361	2.231937	2.007656	-3.185110	-22.196299	-6.973820	1.312360	-1.190280	0.773069	0.042053	0.604369	-1.000000	-1.000000	-1.000000	-1.000000	-1.000000	-1.000000	-1.000000	87.793103	0.000000	-1.000000	-1.000000	293277.000000	1772894298.291456
1318.230000	-12002.490000	5534.955000	9.540000	-24564.870000	-21016.125000	-5245.245000	1020.330000	-20.506691	-9.782806	-0.338696	1.409140	2.381164	0.637606	-6.675893	-20.669913	-6.973820	1.312360	-1.190280	0.773069	0.042053	0.604369	-1.000000	-1.000000	-1.000000	-1.000000	-1.000000	-1.000000	-1.000000	87.793103	0.000000	-1.000000	-1.000000	293278.000000	1772894298.291464
1311.300000	-11989.215000	5547.960000	22.635000	-24552.630000	-21006.720000	-5247.180000	988.380000	-15.915972	-7.638976	1.414224	2.700320	3.326661	0.466526	-6.448802	-13.534667	-6.973820	1.312360	-1.190280	0.773069	0.042053	0.604369	-1.000000	-1.000000	-1.000000	-1.000000	-1.000000	-1.000000	-1.000000	87.793103	0.000000	-1.000000	-1.000000	293279.000000	1772894298.300110
1318.230000	-11988.900000	5545.665000	21.150000	-24553.395000	-21006.315000	-5238.495000	1007.055000	-8.816714	-4.114488	1.828347	2.441979	2.316719	-0.855938	-4.574987	-6.097752	-6.973820	1.312360	-1.190280	0.773069	0.042053	0.604369	-1.000000	-1.000000	-1.000000	-1.000000	-1.000000	-1.000000	-1.000000	87.793103	0.000000	-1.000000	-1.000000	293280.000000	1772894298.300118
1337.760000	-11984.535000	5531.850000	-0.855000	-24580.440000	-21029.940000	-5243.490000	1043.145000	-3.250660	-1.485122	-0.394058	-0.874068	-1.848647	-4.289066	-3.189679	0.437929	-5.447820	1.724380	-0.946120	0.771971	0.039001	0.602538	-1.000000	-1.000000	-1.000000	-1.000000	-1.000000	-1.000000	-1.000000	87.793103	0.000000	-1.000000	-1.000000	293281.000000	1772894298.300126
1276.200000	-11982.465000	5532.930000	-4.545000	-24586.470000	-21030.120000	-5243.940000	1039.815000	0.063824	-0.412418	-4.755467	-6.874906	-8.467001	-9.116061	-3.070036	7.898703	-5.447820	1.724380	-0.946120	0.771971	0.039001	0.602538	-1.000000	-1.000000	-1.000000	-1.000000	-1.000000	-1.000000	-1.000000	87.793103	0.000000	-1.000000	-1.000000	293282.000000	1772894298.300130
1264.680000	-11978.280000	5529.240000	-12.645000	-24597.675000	-21040.515000	-5257.845000	1059.795000	0.972554	0.052467	-8.749851	-12.487316	-14.278260	-12.480792	-3.303667	15.509514	-5.447820	1.724380	-0.946120	0.771971	0.039001	0.602538	-1.000000	-1.000000	-1.000000	-1.000000	-1.000000	-1.000000	-1.000000	87.793103	0.000000	-1.000000	-1.000000	293283.000000	1772894298.301202
1284.120000	-11993.940000	5510.295000	-29.655000	-24610.005000	-21057.030000	-5274.045000	1044.135000	0.434247	1.101422	-9.425017	-13.579625	-15.022952	-11.260290	-2.515984	19.221893	-5.447820	1.724380	-0.946120	0.771971	0.039001	0.602538	-1.000000	-1.000000	-1.000000	-1.000000	-1.000000	-1.000000	-1.000000	87.793103	0.000000	-1.000000	-1.000000	293284.000000	1772894298.301210
1305.405000	-11990.205000	5514.885000	-25.335000	-24602.175000	-21046.995000	-5271.165000	1025.685000	1.796674	2.597345	-6.210480	-8.903784	-9.401927	-5.473054	-0.800046	15.445309	-5.447820	1.724380	-0.946120	0.771971	0.039001	0.602538	-1.000000	-1.000000	-1.000000	-1.000000	-1.000000	-1.000000	-1.000000	87.793103	0.000000	-1.000000	-1.000000	293285.000000	1772894298.305242
1294.470000	-12010.680000	5494.860000	-41.040000	-24615.180000	-21058.110000	-5276.070000	1023.570000	6.481470	3.175039	-1.251012	-1.116217	-0.268134	1.900292	0.641454	4.617745	-5.447820	1.724380	-0.946120	0.771971	0.039001	0.602538	-1.000000	-1.000000	-1.000000	-1.000000	-1.000000	-1.000000	-1.000000	87.793103	0.000000	-1.000000	-1.000000	293286.000000	1772894298.305252
1281.195000	-12040.515000	5484.780000	-44.640000	-24615.315000	-21055.995000	-5264.955000	1020.960000	11.041036	0.944082	2.156258	5.338060	7.491845	7.297073	1.311341	-7.528189	-5.447820	1.724380	-0.946120	0.771971	0.039001	0.602538	-1.000000	-1.000000	-1.000000	-1.000000	-1.000000	-1.000000	-1.000000	87.793103	0.000000	-1.000000	-1.000000	293287.000000	1772894298.309034
1305.765000	-12016.620000	5511.915000	-19.800000	-24592.995000	-21036.960000	-5245.380000	1014.210000	11.242843	-4.205521	2.703498	8.029910	10.893968	9.128941	2.229491	-14.198408	-5.447820	1.724380	-0.946120	0.771971	0.039001	0.602538	-1.000000	-1.000000	-1.000000	-1.000000	-1.000000	-1.000000	-1.000000	87.793103	0.000000	-1.000000	-1.000000	293288.000000	1772894298.309042
1309.410000	-11988.720000	5541.120000	9.945000	-24568.740000	-21019.590000	-5243.850000	995.175000	6.768158	-7.988315	3.197223	8.821651	11.239511	8.912108	4.346450	-13.834508	-5.447820	1.724380	-0.946120	0.771971	0.039001	0.602538	-1.000000	-1.000000	-1.000000	-1.000000	-1.000000	-1.000000	-1.000000	87.793103	0.000000	-1.000000	-1.000000	293289.000000	1772894298.319313
1284.570000	-11988.270000	5551.020000	21.060000	-24556.905000	-21009.600000	-5255.010000	1003.455000	0.246449	-5.657344	6.702083	10.606733	11.396773	8.871273	6.412415	-9.877876	-5.447820	1.724380	-0.946120	0.771971	0.039001	0.602538	-1.000000	-1.000000	-1.000000	-1.000000	-1.000000	-1.000000	-1.000000	87.793103	0.000000	-1.000000	-1.000000	293290.000000	1772894298.319322
1288.935000	-12011.175000	5527.530000	-3.690000	-24582.420000	-21038.130000	-5279.535000	1034.505000	-4.981198	1.574122	11.342925	12.469427	11.340455	8.662043	5.944095	-4.772664	-0.763000	4.608520	-1.022420	0.776609	0.035461	0.600279	-1.000000	-1.000000	-1.000000	-1.000000	-1.000000	-1.000000	-1.000000	87.793103	0.000000	-1.000000	-1.000000	293291.000000	1772894298.319332
1316.655000	-12002.175000	5517.225000	-16.470000	-24597.135000	-21059.730000	-5302.035000	1054.935000	-5.883278	8.122656	11.994348	10.513295	8.204236	5.714762	2.095942	1.832410	-0.763000	4.608520	-1.022420	0.776609	0.035461	0.600279	-1.000000	-1.000000	-1.000000	-1.000000	-1.000000	-1.000000	-1.000000	87.793103	0.000000	-1.000000	-1.000000	293292.000000	1772894298.319336
1274.760000	-11974.095000	5539.365000	5.580000	-24573.240000	-21031.110000	-5268.420000	1043.325000	-3.058587	10.831202	6.819074	3.577921	1.099871	-0.463736	-2.777569	9.236193	-0.763000	4.608520	-1.022420	0.776609	0.035461	0.600279	-1.000000	-1.000000	-1.000000	-1.000000	-1.000000	-1.000000	-1.000000	87.793103	0.000000	-1.000000	-1.000000	293293.000000	1772894298.323048
1276.200000	-11981.565000	5536.395000	2.295000	-24577.830000	-21037.365000	-5270.265000	1019.835000	-1.244947	10.366694	-0.819000	-4.793617	-6.772169	-6.601535	-4.872779	13.817321	-0.763000	4.608520	-1.022420	0.776609	0.035461	0.600279	-1.000000	-1.000000	-1.000000	-1.000000	-1.000000	-1.000000	-1.000000	87.793103	0.000000	-1.000000	-1.000000	293294.000000	1772894298.323056
1299.555000	-11999.655000	5527.710000	-7.380000	-24587.775000	-21046.770000	-5277.510000	1013.130000	-2.518117	7.423760	-6.865131	-10.632751	-11.846375	-9.672754	-3.225877	12.059241	-0.763000	4.608520	-1.022420	0.776609	0.035461	0.600279	-1.000000	-1.000000	-1.000000	-1.000000	-1.000000	-1.000000	-1.000000	87.793103	0.000000	-1.000000	-1.000000	293295.000000	1772894298.325106
1310.895000	-12005.460000	5506.830000	-33.120000	-24615.045000	-21069.180000	-5288.445000	1015.470000	-3.516009	1.832732	-10.169140	-13.100003	-13.518898	-9.888133	-0.754519	4.662984	-0.763000	4.608520	-1.022420	0.776609	0.035461	0.600279	-1.000000	-1.000000	-1.000000	-1.000000	-1.000000	-1.000000	-1.000000	87.793103	0.000000	-1.000000	-1.000000	293296.000000	1772894298.325114
1290.735000	-11983.815000	5530.095000	-7.695000	-24588.135000	-21042.180000	-5269.635000	1004.535000	-2.090045	-5.338268	-11.501085	-13.249066	-12.861933	-8.715067	-0.264402	-3.847875	-0.763000	4.608520	-1.022420	0.776609	0.035461	0.600279	-1.000000	-1.000000	-1.000000	-1.000000	-1.000000	-1.000000	-1.000000	87.793103	0.000000	-1.000000	-1.000000	293297.000000	1772894298.329096
1253.880000	-11976.705000	5548.365000	11.610000	-24570.405000	-21023.730000	-5263.470000	989.865000	-0.742983	-11.244086	-10.664766	-10.896975	-9.604898	-5.883740	-1.139986	-9.498863	-0.763000	4.608520	-1.022420	0.776609	0.035461	0.600279	-1.000000	-1.000000	-1.000000	-1.000000	-1.000000	-1.000000	-1.000000	87.793103	0.000000	-1.000000	-1.000000	293298.000000	1772894298.329103
1271.880000	-11996.505000	5531.175000	-2.520000	-24580.575000	-21030.660000	-5267.655000	1008.675000	-1.206075	-13.110212	-6.681633	-5.114875	-2.953082	-0.482347	-0.859780	-11.004983	-0.763000	4.608520	-1.022420	0.776609	0.035461	0.600279	-1.000000	-1.000000	-1.000000	-1.000000	-1.000000	-1.000000	-1.000000	87.793103	0.000000	-1.000000	-1.000000	293299.000000	1772894298.335916
1320.705000	-12007.395000	5516.505000	-16.425000	-24592.455000	-21039.840000	-5266.665000	1055.970000	-0.669222	-10.351018	-0.405051	2.832602	5.481682	6.257417	1.749460	-8.312417	-0.763000	4.608520	-1.022420	0.776609	0.035461	0.600279	-1.000000	-1.000000	-1.000000	-1.000000	-1.000000	-1.000000	-1.000000	87.793103	0.000000	-1.000000	-1.000000	293300.000000	1772894298.335926
1333.755000	-12007.440000	5518.665000	-14.895000	-24591.780000	-21044.115000	-5282.730000	1046.970000	3.731117	-4.800360	5.550643	9.666698	12.098491	11.251717	5.192974	-2.071341	-1.480220	5.844580	-0.442540	0.775511	0.037353	0.598509	-1.000000	-1.000000	-1.000000	-1.000000	-1.000000	-1.000000	-1.000000	87.793103	0.000000	-1.000000	-1.000000	293301.000000	1772894298.337176
1333.170000	-11995.020000	5541.975000	12.060000	-24564.465000	-21021.435000	-5282.910000	1031.895000	10.133977	0.921065	9.041355	12.733080	14.048644	11.751396	5.974829	5.021155	-1.480220	5.844580	-0.442540	0.775511	0.037353	0.598509	-1.000000	-1.000000	-1.000000	-1.000000	-1.000000	-1.000000	-1.000000	87.793103	0.000000	-1.000000	-1.000000	293302.000000	1772894298.337185
1324.530000	-11993.760000	5540.355000	11.430000	-24564.870000	-21021.165000	-5277.105000	1027.485000	13.300004	5.478085	9.689202	11.757943	11.305066	7.691505	2.302285	9.283922	-1.480220	5.844580	-0.442540	0.775511	0.037353	0.598509	-1.000000	-1.000000	-1.000000	-1.000000	-1.000000	-1.000000	-1.000000	87.793103	0.000000	-1.000000	-1.000000	293303.000000	1772894298.341049
1297.755000	-12002.580000	5523.165000	-9.495000	-24587.955000	-21042.810000	-5274.180000	1017.945000	8.755302	8.771122	8.045708	7.931122	5.801850	1.518339	-3.139972	8.846669	-1.480220	5.844580	-0.442540	0.775511	0.037353	0.598509	-1.000000	-1.000000	-1.000000	-1.000000	-1.000000	-1.000000	-1.000000	87.793103	0.000000	-1.000000	-1.000000	293304.000000	1772894298.341058
1268.955000	-12003.165000	5528.205000	-4.455000	-24582.195000	-21032.325000	-5250.375000	1004.580000	-3.498309	9.887988	4.358327	2.257115	-0.728509	-4.366343	-6.114393	4.240825	-1.480220	5.844580	-0.442540	0.775511	0.037353	0.598509	-1.000000	-1.000000	-1.000000	-1.000000	-1.000000	-1.000000	-1.000000	87.793103	0.000000	-1.000000	-1.000000	293305.000000	1772894298.345050
1252.035000	-11990.340000	5544.360000	15.570000	-24560.955000	-21008.700000	-5227.380000	984.870000	-17.429296	7.338850	-0.816648	-4.013739	-6.677664	-8.266577	-4.716065	-2.327368	-1.480220	5.844580	-0.442540	0.775511	0.037353	0.598509	-1.000000	-1.000000	-1.000000	-1.000000	-1.000000	-1.000000	-1.000000	87.793103	0.000000	-1.000000	-1.000000	293306.000000	1772894298.345057
1304.280000	-11959.515000	5557.455000	39.870000	-24534.045000	-20985.930000	-5226.255000	1025.145000	-23.356439	2.248752	-5.549876	-8.437726	-9.727425	-8.669190	-0.174403	-7.298928	-1.480220	5.844580	-0.442540	0.775511	0.037353	0.598509	-1.000000	-1.000000	-1.000000	-1.000000	-1.000000	-1.000000	-1.000000	87.793103	0.000000	-1.000000	-1.000000	293307.000000	1772894298.349179
1347.300000	-11962.935000	5544.675000	29.565000	-24539.805000	-20991.870000	-5238.405000	1066.995000	-15.048814	-1.353631	-7.220646	-8.404453	-7.889441	-4.998993	4.258362	-7.300041	-1.480220	5.844580	-0.442540	0.775511	0.037353	0.598509	-1.000000	-1.000000	-1.000000	-1.000000	-1.000000	-1.000000	-1.000000	87.793103	0.000000	-1.000000	-1.000000	293308.000000	1772894298.349199
1322.865000	-11997.720000	5525.955000	-3.285000	-24574.455000	-21019.185000	-5247.000000	1067.400000	2.646521	-1.774628	-5.168409	-4.342967	-2.435934	0.720338	5.525168	-2.546453	-1.480220	5.844580	-0.442540	0.775511	0.037353	0.598509	-1.000000	-1.000000	-1.000000	-1.000000	-1.000000	-1.000000	-1.000000	87.793103	0.000000	-1.000000	-1.000000	293309.000000	1772894298.353078
1334.385000	-11986.425000	5542.560000	-1.530000	-24580.665000	-21026.565000	-5252.445000	1047.825000	17.049934	-1.841792	-1.719933	-0.444441	1.682216	4.109026	2.823405	2.851162	-1.480220	5.844580	-0.442540	0.775511	0.037353	0.598509	-1.000000	-1.000000	-1.000000	-1.000000	-1.000000	-1.000000	-1.000000	87.793103	0.000000	-1.000000	-1.000000	293310.000000	1772894298.353086
1345.905000	-11973.915000	5555.295000	9.585000	-24572.205000	-21022.875000	-5262.390000	1038.735000	20.256738	-3.585982	0.694831	0.064079	0.952983	2.408108	-2.315161	5.118010	-3.662400	4.867940	-0.595140	0.768431	0.041199	0.596922	-1.000000	-1.000000	-1.000000	-1.000000	-1.000000	-1.000000	-1.000000	87.793103	0.000000	-1.000000	-1.000000	293311.000000	1772894298.357189
1312.650000	-11978.955000	5550.570000	11.610000	-24570.630000	-21025.710000	-5267.025000	1028.295000	13.475910	-5.248114	1.832780	-1.407964	-2.504718	-2.235568	-7.273375	3.560964	-3.662400	4.867940	-0.595140	0.768431	0.041199	0.596922	-1.000000	-1.000000	-1.000000	-1.000000	-1.000000	-1.000000	-1.000000	87.793103	0.000000	-1.000000	-1.000000	293312.000000	1772894298.357210
1320.885000	-11976.075000	5543.730000	12.825000	-24567.975000	-21023.955000	-5261.535000	1045.710000	2.129750	-4.647444	2.394225	-1.330014	-3.746727	-5.007978	-9.541852	0.191969	-3.662400	4.867940	-0.595140	0.768431	0.041199	0.596922	-1.000000	-1.000000	-1.000000	-1.000000	-1.000000	-1.000000	-1.000000	87.793103	0.000000	-1.000000	-1.000000	293313.000000	1772894298.361167
1310.805000	-12004.065000	5518.980000	-10.980000	-24589.710000	-21038.940000	-5259.240000	1041.795000	-7.389989	-2.442012	1.798870	0.847583	-1.252067	-3.882413	-8.132562	-1.819304	-3.662400	4.867940	-0.595140	0.768431	0.041199	0.596922	-1.000000	-1.000000	-1.000000	-1.000000	-1.000000	-1.000000	-1.000000	87.793103	0.000000	-1.000000	-1.000000	293314.000000	1772894298.361181
1307.520000	-12000.330000	5530.005000	-1.530000	-24578.595000	-21024.360000	-5239.170000	1052.415000	-10.796410	-1.411670	-1.193504	2.004140	1.651857	-1.177429	-3.886816	-0.930640	-3.662400	4.867940	-0.595140	0.768431	0.041199	0.596922	-1.000000	-1.000000	-1.000000	-1.000000	-1.000000	-1.000000	-1.000000	87.793103	0.000000	-1.000000	-1.000000	293315.000000	1772894298.365086
1341.765000	-11990.565000	5536.170000	0.990000	-24577.560000	-21023.955000	-5240.700000	1054.575000	-8.823899	-2.449087	-5.086174	0.454724	2.092592	0.680274	1.956266	0.745942	-3.662400	4.867940	-0.595140	0.768431	0.041199	0.596922	-1.000000	-1.000000	-1.000000	-1.000000	-1.000000	-1.000000	-1.000000	87.793103	0.000000	-1.000000	-1.000000	293316.000000	1772894298.365091
1359.855000	-11989.620000	5533.155000	-2.610000	-24581.070000	-21027.240000	-5244.885000	1051.470000	-4.820491	-2.739418	-5.799026	-1.256770	1.309170	2.082279	7.943144	-0.516794	-3.662400	4.867940	-0.595140	0.768431	0.041199	0.596922	-1.000000	-1.000000	-1.000000	-1.000000	-1.000000	-1.000000	-1.000000	87.793103	0.000000	-1.000000	-1.000000	293317.000000	1772894298.369796
1302.120000	-11984.850000	5540.355000	6.480000	-24570.225000	-21014.865000	-5233.095000	1039.590000	-1.552618	0.574070	-1.493502	0.102547	2.188759	4.473154	11.991361	-5.117522	-3.662400	4.867940	-0.595140	0.768431	0.041199	0.596922	-1.000000	-1.000000	-1.000000	-1.000000	-1.000000	-1.000000	-1.000000	87.793103	0.000000	-1.000000	-1.000000	293318.000000	1772894298.369804
1303.335000	-11973.915000	5545.710000	8.505000	-24570.045000	-21014.280000	-5225.535000	1057.005000	-1.047278	6.373793	4.922172	4.195735	5.164696	7.576926	12.577841	-8.504052	-3.662400	4.867940	-0.595140	0.768431	0.041199	0.596922	-1.000000	-1.000000	-1.000000	-1.000000	-1.000000	-1.000000	-1.000000	87.793103	0.000000	-1.000000	-1.000000	293319.000000	1772894298.373049
1306.260000	-11973.105000	5548.005000	13.140000	-24564.195000	-21010.140000	-5225.445000	1057.410000	-2.779780	10.555598	8.751424	7.398153	7.474164	9.016380	9.548931	-5.919412	-3.662400	4.867940	-0.595140	0.768431	0.041199	0.596922	-1.000000	-1.000000	-1.000000	-1.000000	-1.000000	-1.000000	-1.000000	87.793103	0.000000	-1.000000	-1.000000	293320.000000	1772894298.373055
1296.540000	-11979.180000	5542.335000	7.875000	-24570.810000	-21018.915000	-5240.565000	1043.775000	-3.029059	10.088863	7.896627	6.830332	6.458669	6.843718	3.544776	1.870829	-7.141680	2.914660	0.701960	0.766539	0.044617	0.597655	-1.000000	-1.000000	-1.000000	-1.000000	-1.000000	-1.000000	-1.000000	87.793103	0.000000	-1.000000	-1.000000	293321.000000	1772894298.377132
1322.685000	-11975.940000	5545.395000	9.990000	-24568.650000	-21019.365000	-5256.630000	1044.855000	0.891841	5.225545	3.814702	2.823531	2.206632	1.482529	-4.490843	9.108917	-7.141680	2.914660	0.701960	0.766539	0.044617	0.597655	-1.000000	-1.000000	-1.000000	-1.000000	-1.000000	-1.000000	-1.000000	87.793103	0.000000	-1.000000	-1.000000	293322.000000	1772894298.377139
1318.005000	-11974.950000	5545.035000	8.550000	-24571.620000	-21022.605000	-5266.125000	1039.005000	7.901773	-1.148224	-0.709599	-2.199689	-3.126686	-4.885520	-12.773849	10.995814	-7.141680	2.914660	0.701960	0.766539	0.044617	0.597655	-1.000000	-1.000000	-1.000000	-1.000000	-1.000000	-1.000000	-1.000000	87.793103	0.000000	-1.000000	-1.000000	293323.000000	1772894298.381080
1337.580000	-11993.040000	5543.730000	11.520000	-24566.130000	-21019.995000	-5272.605000	1014.885000	13.804420	-6.286662	-3.972590	-6.007071	-7.282439	-9.807922	-18.213853	6.664685	-7.141680	2.914660	0.701960	0.766539	0.044617	0.597655	-1.000000	-1.000000	-1.000000	-1.000000	-1.000000	-1.000000	-1.000000	87.793103	0.000000	-1.000000	-1.000000	293324.000000	1772894298.381087
1364.895000	-11997.945000	5559.885000	34.470000	-24540.345000	-20995.470000	-5261.940000	990.135000	13.933802	-9.439958	-5.401591	-7.127641	-8.438133	-11.018275	-17.376512	-2.262477	-7.141680	2.914660	0.701960	0.766539	0.044617	0.597655	-1.000000	-1.000000	-1.000000	-1.000000	-1.000000	-1.000000	-1.000000	87.793103	0.000000	-1.000000	-1.000000	293325.000000	1772894298.384984
1335.330000	-11995.245000	5541.435000	8.010000	-24569.775000	-21018.420000	-5259.195000	1011.825000	7.237032	-10.134412	-4.674781	-4.950444	-5.746564	-7.355865	-8.955067	-11.409374	-7.141680	2.914660	0.701960	0.766539	0.044617	0.597655	-1.000000	-1.000000	-1.000000	-1.000000	-1.000000	-1.000000	-1.000000	87.793103	0.000000	-1.000000	-1.000000	293326.000000	1772894298.384993
1226.475000	-11999.070000	5511.285000	-31.455000	-24611.040000	-21055.005000	-5264.055000	1043.685000	-3.962153	-7.620426	-3.175878	-1.838922	-1.848447	-1.540556	3.738347	-13.831146	-7.141680	2.914660	0.701960	0.766539	0.044617	0.597655	-1.000000	-1.000000	-1.000000	-1.000000	-1.000000	-1.000000	-1.000000	87.793103	0.000000	-1.000000	-1.000000	293327.000000	1772894298.392120
1246.635000	-11989.890000	5525.325000	-13.635000	-24591.645000	-21037.095000	-5255.820000	1031.715000	-16.392482	-2.720082	-3.208990	-1.360767	-0.748511	1.785085	14.299661	-6.279744	-7.141680	2.914660	0.701960	0.766539	0.044617	0.597655	-1.000000	-1.000000	-1.000000	-1.000000	-1.000000	-1.000000	-1.000000	87.793103	0.000000	-1.000000	-1.000000	293328.000000	1772894298.392129
1286.145000	-11990.205000	5536.170000	1.350000	-24576.120000	-21024.720000	-5252.670000	1021.995000	-23.450227	2.648475	-3.884400	-2.691103	-1.759525	2.184179	18.302743	6.057193	-7.141680	2.914660	0.701960	0.766539	0.044617	0.597655	-1.000000	-1.000000	-1.000000	-1.000000	-1.000000	-1.000000	-1.000000	87.793103	0.000000	-1.000000	-1.000000	293329.000000	1772894298.392987
1314.540000	-11980.080000	5545.935000	11.385000	-24566.985000	-21017.160000	-5253.345000	1022.580000	-17.607767	6.992043	-2.004825	-1.769257	-0.793507	2.861043	15.629835	14.681168	-7.141680	2.914660	0.701960	0.766539	0.044617	0.597655	-1.000000	-1.000000	-1.000000	-1.000000	-1.000000	-1.000000	-1.000000	87.793103	0.000000	-1.000000	-1.000000	293330.000000	1772894298.392994
1320.660000	-11968.965000	5554.845000	18.855000	-24560.415000	-21016.530000	-5264.505000	1023.795000	-0.058168	9.421593	3.152867	2.772363	3.501849	5.179918	8.665126	15.204302	-5.341000	3.311420	-0.137340	0.772642	0.043579	0.597533	-1.000000	-1.000000	-1.000000	-1.000000	-1.000000	-1.000000	-1.000000	87.793103	0.000000	-1.000000	-1.000000	293331.000000	1772894298.399240
1335.330000	-11970.855000	5550.120000	9.585000	-24571.440000	-21027.960000	-5264.415000	1051.785000	18.586282	9.437226	8.645746	8.014740	8.215223	7.102406	0.236574	9.263727	-5.341000	3.311420	-0.137340	0.772642	0.043579	0.597533	-1.000000	-1.000000	-1.000000	-1.000000	-1.000000	-1.000000	-1.000000	87.793103	0.000000	-1.000000	-1.000000	293332.000000	1772894298.399249
1318.410000	-11986.290000	5536.125000	-4.140000	-24583.140000	-21033.990000	-5252.850000	1051.290000	26.791121	6.707706	10.308624	9.461685	8.993947	5.748263	-6.753210	1.934722	-5.341000	3.311420	-0.137340	0.772642	0.043579	0.597533	-1.000000	-1.000000	-1.000000	-1.000000	-1.000000	-1.000000	-1.000000	87.793103	0.000000	-1.000000	-1.000000	293333.000000	1772894298.401071
1304.685000	-11987.055000	5538.420000	0.855000	-24577.695000	-21029.625000	-5250.285000	1028.835000	19.392269	1.546208	6.291151	5.216144	4.255621	0.766610	-9.899378	-3.309107	-5.341000	3.311420	-0.137340	0.772642	0.043579	0.597533	-1.000000	-1.000000	-1.000000	-1.000000	-1.000000	-1.000000	-1.000000	87.793103	0.000000	-1.000000	-1.000000	293334.000000	1772894298.401078
1323.585000	-11951.055000	5575.410000	38.205000	-24542.955000	-20997.180000	-5228.415000	1056.015000	2.514904	-3.832104	-0.217747	-0.952000	-1.912970	-3.995696	-8.556605	-6.700154	-5.341000	3.311420	-0.137340	0.772642	0.043579	0.597533	-1.000000	-1.000000	-1.000000	-1.000000	-1.000000	-1.000000	-1.000000	87.793103	0.000000	-1.000000	-1.000000	293335.000000	1772894298.406531
1311.660000	-11938.500000	5585.535000	46.755000	-24536.025000	-20994.660000	-5233.005000	1048.320000	-10.241332	-6.110196	-3.431673	-2.860816	-3.336696	-3.779279	-4.093753	-9.073217	-5.341000	3.311420	-0.137340	0.772642	0.043579	0.597533	-1.000000	-1.000000	-1.000000	-1.000000	-1.000000	-1.000000	-1.000000	87.793103	0.000000	-1.000000	-1.000000	293336.000000	1772894298.406539
1330.470000	-11955.870000	5560.695000	20.160000	-24561.720000	-21019.725000	-5254.470000	1038.600000	-11.703741	-4.648467	-2.098175	-0.049681	0.095151	0.564098	0.285955	-9.895862	-5.341000	3.311420	-0.137340	0.772642	0.043579	0.597533	-1.000000	-1.000000	-1.000000	-1.000000	-1.000000	-1.000000	-1.000000	87.793103	0.000000	-1.000000	-1.000000	293337.000000	1772894298.410476
1350.000000	-11978.640000	5537.520000	-0.900000	-24580.440000	-21032.460000	-5263.155000	1076.625000	-6.207866	-2.714260	-1.028715	1.334795	1.938321	2.837618	1.282811	-7.798344	-5.341000	3.311420	-0.137340	0.772642	0.043579	0.597533	-1.000000	-1.000000	-1.000000	-1.000000	-1.000000	-1.000000	-1.000000	87.793103	0.000000	-1.000000	-1.000000	293338.000000	1772894298.410482
1307.700000	-12007.305000	5528.655000	-4.185000	-24581.160000	-21025.800000	-5250.690000	1067.625000	-1.778029	-3.793140	-4.150743	-2.877977	-1.979096	-0.365560	-0.942357	-2.115299	-5.341000	3.311420	-0.137340	0.772642	0.043579	0.597533	-1.000000	-1.000000	-1.000000	-1.000000	-1.000000	-1.000000	-1.000000	87.793103	0.000000	-1.000000	-1.000000	293339.000000	1772894298.413224
1299.960000	-11996.640000	5549.085000	15.660000	-24562.035000	-21014.055000	-5257.665000	1011.420000	-3.153513	-7.612936	-9.327698	-9.506193	-8.413887	-5.743563	-2.891371	3.809205	-5.341000	3.311420	-0.137340	0.772642	0.043579	0.597533	-1.000000	-1.000000	-1.000000	-1.000000	-1.000000	-1.000000	-1.000000	87.793103	0.000000	-1.000000	-1.000000	293340.000000	1772894298.413231
1321.650000	-11992.590000	5541.705000	5.085000	-24574.050000	-21027.960000	-5268.825000	1014.390000	-8.541852	-9.733710	-10.984557	-12.035251	-11.019443	-8.005310	-2.345123	4.319305	-4.593260	3.158820	0.152600	0.776121	0.034973	0.592772	-1.000000	-1.000000	-1.000000	-1.000000	-1.000000	-1.000000	-1.000000	87.793103	0.000000	-1.000000	-1.000000	293341.000000	1772894298.419785
1351.080000	-11984.310000	5546.970000	10.935000	-24569.145000	-21022.920000	-5265.765000	1054.530000	-11.035083	-5.803307	-6.288762	-7.615050	-7.202549	-5.502890	-0.352310	-0.128347	-4.593260	3.158820	0.152600	0.776121	0.034973	0.592772	-1.000000	-1.000000	-1.000000	-1.000000	-1.000000	-1.000000	-1.000000	87.793103	0.000000	-1.000000	-1.000000	293342.000000	1772894298.419807
1355.985000	-11974.095000	5558.895000	26.370000	-24552.135000	-21007.035000	-5262.030000	1065.420000	-5.490590	3.472085	2.420740	1.142730	0.567672	-0.259929	1.327986	-2.506055	-4.593260	3.158820	0.152600	0.776121	0.034973	0.592772	-1.000000	-1.000000	-1.000000	-1.000000	-1.000000	-1.000000	-1.000000	87.793103	0.000000	-1.000000	-1.000000	293343.000000	1772894298.421148
1333.305000	-11979.495000	5558.130000	26.145000	-24551.820000	-21008.115000	-5262.480000	1040.670000	5.988109	12.236567	10.016900	9.179415	7.894751	4.781995	2.031033	0.281157	-4.593260	3.158820	0.152600	0.776121	0.034973	0.592772	-1.000000	-1.000000	-1.000000	-1.000000	-1.000000	-1.000000	-1.000000	87.793103	0.000000	-1.000000	-1.000000	293344.000000	1772894298.421156
1312.245000	-11992.545000	5540.760000	7.065000	-24569.730000	-21022.740000	-5255.280000	1050.885000	15.356048	14.448733	12.137823	12.117854	10.936209	7.101002	2.150295	4.325799	-4.593260	3.158820	0.152600	0.776121	0.034973	0.592772	-1.000000	-1.000000	-1.000000	-1.000000	-1.000000	-1.000000	-1.000000	87.793103	0.000000	-1.000000	-1.000000	293345.000000	1772894298.425159
1334.295000	-11963.835000	5561.955000	24.435000	-24554.970000	-21007.530000	-5248.080000	1030.770000	15.623732	9.693009	8.568024	9.182502	8.707299	6.073559	2.872274	5.691239	-4.593260	3.158820	0.152600	0.776121	0.034973	0.592772	-1.000000	-1.000000	-1.000000	-1.000000	-1.000000	-1.000000	-1.000000	87.793103	0.000000	-1.000000	-1.000000	293346.000000	1772894298.425169
1320.120000	-11967.525000	5562.135000	25.965000	-24554.115000	-21009.240000	-5264.415000	1015.785000	6.976521	3.287275	3.414811	3.874516	3.989052	3.530895	4.363856	3.085280	-4.593260	3.158820	0.152600	0.776121	0.034973	0.592772	-1.000000	-1.000000	-1.000000	-1.000000	-1.000000	-1.000000	-1.000000	87.793103	0.000000	-1.000000	-1.000000	293347.000000	1772894298.429054
1319.580000	-11966.670000	5559.570000	25.470000	-24551.010000	-21002.220000	-5256.405000	1023.570000	-4.045276	-0.232746	0.109906	-0.255465	-0.074708	1.179310	4.756789	-2.042402	-4.593260	3.158820	0.152600	0.776121	0.034973	0.592772	-1.000000	-1.000000	-1.000000	-1.000000	-1.000000	-1.000000	-1.000000	87.793103	0.000000	-1.000000	-1.000000	293348.000000	1772894298.429060
1266.795000	-12000.465000	5538.330000	10.170000	-24564.195000	-21010.005000	-5240.340000	1015.335000	-11.320842	-1.627242	-1.988728	-2.953620	-2.911350	-0.859183	3.089867	-5.120950	-4.593260	3.158820	0.152600	0.776121	0.034973	0.592772	-1.000000	-1.000000	-1.000000	-1.000000	-1.000000	-1.000000	-1.000000	87.793103	0.000000	-1.000000	-1.000000	293349.000000	1772894298.438673
1252.530000	-12021.570000	5532.030000	0.720000	-24573.555000	-21016.665000	-5235.615000	1012.230000	-14.156405	-4.348458	-4.716036	-5.284859	-5.115046	-2.728414	0.869722	-3.539379	-4.593260	3.158820	0.152600	0.776121	0.034973	0.592772	-1.000000	-1.000000	-1.000000	-1.000000	-1.000000	-1.000000	-1.000000	87.793103	0.000000	-1.000000	-1.000000	293350.000000	1772894298.438682
1251.945000	-11994.570000	5536.395000	-6.120000	-24581.385000	-21028.770000	-5250.465000	1020.330000	-14.093866	-8.860237	-7.572835	-7.218285	-6.707281	-4.387493	-0.914873	0.083609	3.021480	4.913720	-1.281840	0.778257	0.029114	0.586119	-1.000000	-1.000000	-1.000000	-1.000000	-1.000000	-1.000000	-1.000000	87.793103	0.000000	-1.000000	-1.000000	293351.000000	1772894298.438691
1315.440000	-11986.065000	5537.430000	-2.385000	-24574.455000	-21022.200000	-5244.480000	1037.835000	-9.350858	-11.347557	-8.539136	-7.932641	-7.231110	-5.786889	-3.027484	2.494834	3.021480	4.913720	-1.281840	0.778257	0.029114	0.586119	-1.000000	-1.000000	-1.000000	-1.000000	-1.000000	-1.000000	-1.000000	87.793103	0.000000	-1.000000	-1.000000	293352.000000	1772894298.438695
1346.715000	-11998.890000	5530.050000	-4.545000	-24584.625000	-21033.270000	-5247.045000	1055.295000	3.299975	-8.689095	-6.512744	-6.445985	-5.955545	-6.128723	-5.507258	3.760575	3.021480	4.913720	-1.281840	0.778257	0.029114	0.586119	-1.000000	-1.000000	-1.000000	-1.000000	-1.000000	-1.000000	-1.000000	87.793103	0.000000	-1.000000	-1.000000	293353.000000	1772894298.441137
1311.030000	-12007.845000	5528.430000	4.230000	-24582.015000	-21040.245000	-5259.015000	1067.670000	20.145755	-2.239593	-1.997956	-2.093687	-2.388765	-4.341939	-7.061528	5.337778	3.021480	4.913720	-1.281840	0.778257	0.029114	0.586119	-1.000000	-1.000000	-1.000000	-1.000000	-1.000000	-1.000000	-1.000000	87.793103	0.000000	-1.000000	-1.000000	293354.000000	1772894298.441147
1307.160000	-11979.540000	5548.410000	16.290000	-24571.800000	-21035.025000	-5267.475000	1050.075000	29.269861	4.373854	3.476535	4.264220	2.774294	-0.642323	-6.787935	6.658241	3.021480	4.913720	-1.281840	0.778257	0.029114	0.586119	-1.000000	-1.000000	-1.000000	-1.000000	-1.000000	-1.000000	-1.000000	87.793103	0.000000	-1.000000	-1.000000	293355.000000	1772894298.445043
1330.380000	-11947.815000	5571.720000	34.830000	-24552.405000	-21012.930000	-5249.880000	1056.015000	23.132585	9.388924	8.420039	10.129040	7.804084	3.757101	-4.315583	5.511549	3.021480	4.913720	-1.281840	0.778257	0.029114	0.586119	-1.000000	-1.000000	-1.000000	-1.000000	-1.000000	-1.000000	-1.000000	87.793103	0.000000	-1.000000	-1.000000	293356.000000	1772894298.445052
1331.865000	-11969.730000	5549.355000	10.980000	-24570.495000	-21017.160000	-5236.020000	1070.415000	6.988057	12.555773	11.369064	12.600033	10.599126	7.550146	0.403546	1.592838	3.021480	4.913720	-1.281840	0.778257	0.029114	0.586119	-1.000000	-1.000000	-1.000000	-1.000000	-1.000000	-1.000000	-1.000000	87.793103	0.000000	-1.000000	-1.000000	293357.000000	1772894298.455428
1324.890000	-11984.760000	5543.010000	7.290000	-24571.080000	-21008.790000	-5226.255000	1050.660000	-8.422301	12.354953	10.436141	9.847365	9.476071	9.379301	5.933616	-3.004778	3.021480	4.913720	-1.281840	0.778257	0.029114	0.586119	-1.000000	-1.000000	-1.000000	-1.000000	-1.000000	-1.000000	-1.000000	87.793103	0.000000	-1.000000	-1.000000	293358.000000	1772894298.455437
1311.435000	-11979.540000	5557.185000	26.685000	-24548.985000	-20984.940000	-5214.015000	1040.625000	-16.763915	7.432672	5.346965	3.200710	5.094531	8.814901	9.737196	-7.013483	3.021480	4.913720	-1.281840	0.778257	0.029114	0.586119	-1.000000	-1.000000	-1.000000	-1.000000	-1.000000	-1.000000	-1.000000	87.793103	0.000000	-1.000000	-1.000000	293359.000000	1772894298.455446
1309.950000	-11960.235000	5569.740000	38.655000	-24537.645000	-20975.085000	-5207.715000	1050.795000	-18.304700	-0.808006	-1.287834	-3.210346	0.399625	6.689603	10.246061	-10.227013	3.021480	4.913720	-1.281840	0.778257	0.029114	0.586119	-1.000000	-1.000000	-1.000000	-1.000000	-1.000000	-1.000000	-1.000000	87.793103	0.000000	-1.000000	-1.000000	293360.000000	1772894298.455450
1340.010000	-11957.895000	5556.465000	19.170000	-24559.470000	-20999.340000	-5217.525000	1060.560000	-16.082947	-8.686572	-6.421325	-6.614668	-2.854392	3.153478	7.208888	-11.317365	0.335720	4.211760	-0.457800	0.775755	0.032654	0.587523	-1.000000	-1.000000	-1.000000	-1.000000	-1.000000	-1.000000	-1.000000	87.793103	0.000000	-1.000000	-1.000000	293361.000000	1772894298.457025
1366.110000	-11960.145000	5556.600000	22.095000	-24556.410000	-20999.430000	-5213.790000	1072.710000	-11.192525	-12.398298	-8.688175	-7.455769	-5.173772	-2.264629	1.374755	-8.648888	0.335720	4.211760	-0.457800	0.775755	0.032654	0.587523	-1.000000	-1.000000	-1.000000	-1.000000	-1.000000	-1.000000	-1.000000	87.793103	0.000000	-1.000000	-1.000000	293362.000000	1772894298.457033
1360.890000	-11945.430000	5579.370000	47.835000	-24531.975000	-20984.715000	-5213.070000	1063.620000	-3.040502	-10.565188	-7.888459	-6.684691	-6.532781	-7.965627	-4.811251	-2.576477	0.335720	4.211760	-0.457800	0.775755	0.032654	0.587523	-1.000000	-1.000000	-1.000000	-1.000000	-1.000000	-1.000000	-1.000000	87.793103	0.000000	-1.000000	-1.000000	293363.000000	1772894298.461140
1347.885000	-11945.520000	5582.790000	50.310000	-24530.580000	-20982.915000	-5218.605000	1055.610000	6.168914	-5.369536	-4.690747	-4.386063	-5.949641	-10.934337	-8.440938	4.336958	0.335720	4.211760	-0.457800	0.775755	0.032654	0.587523	-1.000000	-1.000000	-1.000000	-1.000000	-1.000000	-1.000000	-1.000000	87.793103	0.000000	-1.000000	-1.000000	293364.000000	1772894298.461150
1365.705000	-11927.340000	5602.140000	69.570000	-24512.805000	-20969.685000	-5232.645000	1052.280000	11.577889	-0.372561	-0.726994	-1.041282	-3.544710	-9.991984	-9.000891	8.888508	0.335720	4.211760	-0.457800	0.775755	0.032654	0.587523	-1.000000	-1.000000	-1.000000	-1.000000	-1.000000	-1.000000	-1.000000	87.793103	0.000000	-1.000000	-1.000000	293365.000000	1772894298.464970
1357.380000	-11931.750000	5595.660000	58.005000	-24523.290000	-20979.495000	-5243.220000	1040.535000	11.033566	3.082469	2.810637	2.475423	-0.351672	-6.186449	-8.291157	9.127868	0.335720	4.211760	-0.457800	0.775755	0.032654	0.587523	-1.000000	-1.000000	-1.000000	-1.000000	-1.000000	-1.000000	-1.000000	87.793103	0.000000	-1.000000	-1.000000	293366.000000	1772894298.464979
1318.050000	-11970.675000	5557.230000	22.365000	-24555.915000	-21003.255000	-5240.565000	1045.260000	6.082457	5.099069	4.726102	4.486370	1.872111	-1.930017	-7.415341	5.819865	0.335720	4.211760	-0.457800	0.775755	0.032654	0.587523	-1.000000	-1.000000	-1.000000	-1.000000	-1.000000	-1.000000	-1.000000	87.793103	0.000000	-1.000000	-1.000000	293367.000000	1772894298.469204
1286.910000	-11996.010000	5537.655000	8.775000	-24567.930000	-21015.720000	-5245.470000	1036.665000	-1.253648	3.917563	2.596086	2.350427	0.622603	-0.123531	-5.542330	1.642216	0.335720	4.211760	-0.457800	0.775755	0.032654	0.587523	-1.000000	-1.000000	-1.000000	-1.000000	-1.000000	-1.000000	-1.000000	87.793103	0.000000	-1.000000	-1.000000	293368.000000	1772894298.469215
1292.040000	-12009.105000	5529.555000	1.620000	-24575.040000	-21026.520000	-5250.825000	1041.570000	-8.859925	-1.879535	-3.825530	-3.800102	-4.038028	-1.352517	-1.780309	-1.564120	0.335720	4.211760	-0.457800	0.775755	0.032654	0.587523	-1.000000	-1.000000	-1.000000	-1.000000	-1.000000	-1.000000	-1.000000	87.793103	0.000000	-1.000000	-1.000000	293369.000000	1772894298.473066
1306.305000	-12021.480000	5523.435000	-5.940000	-24583.680000	-21036.510000	-5252.985000	1039.185000	-13.497256	-9.115393	-9.933467	-9.252139	-7.886881	-2.700607	3.330406	-3.549546	0.335720	4.211760	-0.457800	0.775755	0.032654	0.587523	-1.000000	-1.000000	-1.000000	-1.000000	-1.000000	-1.000000	-1.000000	87.793103	0.000000	-1.000000	-1.000000	293370.000000	1772894298.473075
1330.740000	-11998.395000	5545.305000	17.280000	-24560.235000	-21014.100000	-5238.945000	1036.755000	-11.837817	-11.715041	-10.194114	-9.086483	-6.628566	-0.817676	8.373388	-4.392898	-4.272800	5.737760	-2.197440	0.770750	0.040649	0.588377	-1.000000	-1.000000	-1.000000	-1.000000	-1.000000	-1.000000	-1.000000	87.793103	0.000000	-1.000000	-1.000000	293371.000000	1772894298.477031
1295.955000	-11970.675000	5564.880000	34.920000	-24544.170000	-20998.350000	-5230.755000	1016.505000	-3.454947	-6.085620	-3.304308	-2.587066	0.046671	4.769770	12.013254	-3.951753	-4.272800	5.737760	-2.197440	0.770750	0.040649	0.588377	-1.000000	-1.000000	-1.000000	-1.000000	-1.000000	-1.000000	-1.000000	87.793103	0.000000	-1.000000	-1.000000	293372.000000	1772894298.477041
1308.060000	-11931.075000	5595.660000	61.380000	-24520.995000	-20978.415000	-5228.595000	1004.220000	7.228714	5.958836	7.242609	6.883649	8.706043	11.319580	13.118508	-2.415180	-4.272800	5.737760	-2.197440	0.770750	0.040649	0.588377	-1.000000	-1.000000	-1.000000	-1.000000	-1.000000	-1.000000	-1.000000	87.793103	0.000000	-1.000000	-1.000000	293373.000000	1772894298.482546
1336.455000	-11955.105000	5569.515000	33.795000	-24546.690000	-21000.105000	-5238.180000	1038.735000	14.668645	17.958419	15.671174	14.191004	14.515838	14.618150	10.718367	0.004780	-4.272800	5.737760	-2.197440	0.770750	0.040649	0.588377	-1.000000	-1.000000	-1.000000	-1.000000	-1.000000	-1.000000	-1.000000	87.793103	0.000000	-1.000000	-1.000000	293374.000000	1772894298.482554
1322.415000	-11982.690000	5544.900000	5.850000	-24572.115000	-21018.870000	-5246.190000	1075.545000	16.851473	22.313282	16.886063	14.874228	13.698973	11.587128	4.678939	4.224147	-4.272800	5.737760	-2.197440	0.770750	0.040649	0.588377	-1.000000	-1.000000	-1.000000	-1.000000	-1.000000	-1.000000	-1.000000	87.793103	0.000000	-1.000000	-1.000000	293375.000000	1772894298.485108
1328.715000	-11986.290000	5533.155000	-11.340000	-24591.150000	-21040.020000	-5270.040000	1068.210000	14.678478	16.019699	10.012768	8.184143	6.175542	2.777860	-3.726019	10.018922	-4.272800	5.737760	-2.197440	0.770750	0.040649	0.588377	-1.000000	-1.000000	-1.000000	-1.000000	-1.000000	-1.000000	-1.000000	87.793103	0.000000	-1.000000	-1.000000	293376.000000	1772894298.485118
1339.695000	-11979.225000	5533.200000	-6.660000	-24587.865000	-21039.030000	-5271.795000	1044.045000	9.839562	3.336091	-0.599486	-1.860116	-3.873385	-7.466010	-11.772823	13.072982	-4.272800	5.737760	-2.197440	0.770750	0.040649	0.588377	-1.000000	-1.000000	-1.000000	-1.000000	-1.000000	-1.000000	-1.000000	87.793103	0.000000	-1.000000	-1.000000	293377.000000	1772894298.489098
1341.675000	-11971.485000	5540.130000	4.860000	-24579.045000	-21030.615000	-5254.605000	1044.315000	3.320376	-8.195264	-8.831261	-9.158671	-10.585500	-13.420644	-15.521988	8.711876	-4.272800	5.737760	-2.197440	0.770750	0.040649	0.588377	-1.000000	-1.000000	-1.000000	-1.000000	-1.000000	-1.000000	-1.000000	87.793103	0.000000	-1.000000	-1.000000	293378.000000	1772894298.489105
1319.895000	-11977.380000	5545.170000	9.990000	-24576.480000	-21032.370000	-5262.615000	1031.355000	-5.165983	-13.570466	-10.988581	-9.865209	-10.429421	-11.845955	-12.336559	-2.149137	-4.272800	5.737760	-2.197440	0.770750	0.040649	0.588377	-1.000000	-1.000000	-1.000000	-1.000000	-1.000000	-1.000000	-1.000000	87.793103	0.000000	-1.000000	-1.000000	293379.000000	1772894298.492974
1297.485000	-11978.820000	5552.820000	19.170000	-24565.275000	-21021.255000	-5262.795000	1026.180000	-14.914560	-13.143796	-7.900477	-5.313536	-4.993884	-4.846194	-4.194458	-13.308126	-4.272800	5.737760	-2.197440	0.770750	0.040649	0.588377	-1.000000	-1.000000	-1.000000	-1.000000	-1.000000	-1.000000	-1.000000	87.793103	0.000000	-1.000000	-1.000000	293380.000000	1772894298.492982
1299.870000	-11978.955000	5547.105000	20.655000	-24561.630000	-21021.120000	-5267.295000	1035.180000	-21.856634	-10.690416	-3.628221	-0.283033	0.865021	2.181603	3.818244	-17.939940	-5.768280	4.700080	-3.433500	0.770079	0.041077	0.590514	-1.000000	-1.000000	-1.000000	-1.000000	-1.000000	-1.000000	-1.000000	87.793103	0.000000	-1.000000	-1.000000	293381.000000	1772894298.498359
1316.520000	-11971.845000	5547.960000	34.695000	-24545.745000	-21004.740000	-5259.555000	1035.045000	-21.105329	-8.721301	-1.558138	1.865952	3.756325	5.510288	8.171607	-13.319705	-5.768280	4.700080	-3.433500	0.770079	0.041077	0.590514	-1.000000	-1.000000	-1.000000	-1.000000	-1.000000	-1.000000	-1.000000	87.793103	0.000000	-1.000000	-1.000000	293382.000000	1772894298.498379
1360.170000	-11970.990000	5552.055000	34.785000	-24544.485000	-20998.665000	-5244.930000	1051.605000	-11.411536	-5.971513	-1.184450	1.957452	4.202984	5.638047	8.920707	-3.092053	-5.768280	4.700080	-3.433500	0.770079	0.041077	0.590514	-1.000000	-1.000000	-1.000000	-1.000000	-1.000000	-1.000000	-1.000000	87.793103	0.000000	-1.000000	-1.000000	293383.000000	1772894298.501054
1350.585000	-11978.505000	5551.380000	19.395000	-24560.460000	-21010.365000	-5241.780000	1069.560000	3.995885	-0.022630	0.658060	2.654790	4.444350	5.125064	8.040950	6.267414	-5.768280	4.700080	-3.433500	0.770079	0.041077	0.590514	-1.000000	-1.000000	-1.000000	-1.000000	-1.000000	-1.000000	-1.000000	87.793103	0.000000	-1.000000	-1.000000	293384.000000	1772894298.501065
1325.655000	-11978.415000	5546.520000	5.895000	-24570.990000	-21015.450000	-5232.465000	1082.115000	17.855365	8.032713	4.907463	4.061643	4.630576	4.735394	6.856885	11.257066	-5.768280	4.700080	-3.433500	0.770079	0.041077	0.590514	-1.000000	-1.000000	-1.000000	-1.000000	-1.000000	-1.000000	-1.000000	87.793103	0.000000	-1.000000	-1.000000	293385.000000	1772894298.505097
1352.880000	-11969.685000	5564.520000	22.860000	-24557.040000	-21005.865000	-5231.565000	1069.155000	22.381130	13.772897	8.862318	4.007610	3.232461	3.404763	5.113521	11.941741	-5.768280	4.700080	-3.433500	0.770079	0.041077	0.590514	-1.000000	-1.000000	-1.000000	-1.000000	-1.000000	-1.000000	-1.000000	87.793103	0.000000	-1.000000	-1.000000	293386.000000	1772894298.505121
1342.800000	-11968.380000	5568.660000	24.930000	-24560.280000	-21013.245000	-5246.325000	1023.570000	15.977861	13.947250	9.621602	1.718600	0.053966	0.611435	1.543988	8.341116	-5.768280	4.700080	-3.433500	0.770079	0.041077	0.590514	-1.000000	-1.000000	-1.000000	-1.000000	-1.000000	-1.000000	-1.000000	87.793103	0.000000	-1.000000	-1.000000	293387.000000	1772894298.508942
1367.775000	-11934.090000	5584.410000	34.470000	-24548.355000	-21003.525000	-5251.050000	1016.595000	4.233500	9.193831	6.414609	-1.625932	-3.574661	-3.042904	-4.276460	0.407624	-5.768280	4.700080	-3.433500	0.770079	0.041077	0.590514	-1.000000	-1.000000	-1.000000	-1.000000	-1.000000	-1.000000	-1.000000	87.793103	0.000000	-1.000000	-1.000000	293388.000000	1772894298.508949
1337.220000	-11912.355000	5614.425000	69.210000	-24511.545000	-20966.220000	-5232.060000	1033.605000	-5.540069	3.006831	0.814874	-4.185280	-5.802113	-5.869275	-9.991653	-8.272715	-5.768280	4.700080	-3.433500	0.770079	0.041077	0.590514	-1.000000	-1.000000	-1.000000	-1.000000	-1.000000	-1.000000	-1.000000	87.793103	0.000000	-1.000000	-1.000000	293389.000000	1772894298.513072
1324.530000	-11921.985000	5607.810000	70.785000	-24511.950000	-20967.480000	-5244.660000	1022.985000	-10.294688	-1.958153	-4.316526	-4.358692	-5.158610	-5.929851	-11.994095	-12.044686	-5.768280	4.700080	-3.433500	0.770079	0.041077	0.590514	-1.000000	-1.000000	-1.000000	-1.000000	-1.000000	-1.000000	-1.000000	87.793103	0.000000	-1.000000	-1.000000	293390.000000	1772894298.513079
1363.230000	-11927.295000	5587.245000	48.915000	-24535.800000	-20995.290000	-5257.305000	1051.155000	-11.404508	-5.810343	-7.517502	-2.706773	-2.684085	-3.892919	-9.508777	-8.910602	-2.227960	5.508860	-3.128300	0.773497	0.036987	0.589354	-1.000000	-1.000000	-1.000000	-1.000000	-1.000000	-1.000000	-1.000000	87.793103	0.000000	-1.000000	-1.000000	293391.000000	1772894298.516976
1367.865000	-11959.470000	5560.245000	23.400000	-24557.580000	-21012.345000	-5249.970000	1074.060000	-9.871626	-9.194738	-9.401089	-1.672240	-1.250455	-2.704228	-4.889665	-1.378037	-2.227960	5.508860	-3.128300	0.773497	0.036987	0.589354	-1.000000	-1.000000	-1.000000	-1.000000	-1.000000	-1.000000	-1.000000	87.793103	0.000000	-1.000000	-1.000000	293392.000000	1772894298.516983
1330.695000	-11977.920000	5557.860000	24.885000	-24552.720000	-20998.980000	-5230.125000	1062.630000	-5.859294	-11.676894	-10.286903	-2.091704	-1.560274	-2.989236	0.079798	6.071534	-2.227960	5.508860	-3.128300	0.773497	0.036987	0.589354	-1.000000	-1.000000	-1.000000	-1.000000	-1.000000	-1.000000	-1.000000	87.793103	0.000000	-1.000000	-1.000000	293393.000000	1772894298.521118
1306.755000	-11994.165000	5545.395000	12.330000	-24562.665000	-21007.485000	-5222.295000	1065.645000	-1.468174	-12.379517	-9.222435	-2.466108	-1.713546	-2.408179	5.107287	9.344584	-2.227960	5.508860	-3.128300	0.773497	0.036987	0.589354	-1.000000	-1.000000	-1.000000	-1.000000	-1.000000	-1.000000	-1.000000	87.793103	0.000000	-1.000000	-1.000000	293394.000000	1772894298.521126
1337.175000	-12002.760000	5524.470000	-12.105000	-24587.415000	-21029.940000	-5224.770000	1082.925000	0.946050	-10.554298	-6.014579	-2.168407	-0.968642	-0.162437	9.156035	7.985116	-2.227960	5.508860	-3.128300	0.773497	0.036987	0.589354	-1.000000	-1.000000	-1.000000	-1.000000	-1.000000	-1.000000	-1.000000	87.793103	0.000000	-1.000000	-1.000000	293395.000000	1772894298.525262
1346.490000	-12020.490000	5515.335000	-17.820000	-24590.745000	-21034.800000	-5233.410000	1066.635000	2.209018	-6.261208	-2.179625	-2.239045	-0.590563	1.834619	10.299997	5.160910	-2.227960	5.508860	-3.128300	0.773497	0.036987	0.589354	-1.000000	-1.000000	-1.000000	-1.000000	-1.000000	-1.000000	-1.000000	87.793103	0.000000	-1.000000	-1.000000	293396.000000	1772894298.525283
1310.085000	-12009.960000	5536.890000	8.370000	-24563.970000	-21010.770000	-5232.690000	1037.250000	3.998467	-0.860331	1.123499	-2.545400	-0.867975	2.308845	7.558344	2.461886	-2.227960	5.508860	-3.128300	0.773497	0.036987	0.589354	-1.000000	-1.000000	-1.000000	-1.000000	-1.000000	-1.000000	-1.000000	87.793103	0.000000	-1.000000	-1.000000	293397.000000	1772894298.530113
1246.005000	-11995.245000	5536.890000	4.680000	-24568.470000	-21012.975000	-5237.370000	1023.075000	4.775609	4.389329	4.180811	-1.530131	-0.608640	1.819697	1.792654	-1.793788	-2.227960	5.508860	-3.128300	0.773497	0.036987	0.589354	-1.000000	-1.000000	-1.000000	-1.000000	-1.000000	-1.000000	-1.000000	87.793103	0.000000	-1.000000	-1.000000	293398.000000	1772894298.530152
1284.570000	-11985.615000	5527.620000	-9.270000	-24583.275000	-21028.635000	-5252.895000	1033.380000	2.385498	9.543817	7.332784	1.152326	0.658485	1.190166	-4.554907	-7.729398	-2.227960	5.508860	-3.128300	0.773497	0.036987	0.589354	-1.000000	-1.000000	-1.000000	-1.000000	-1.000000	-1.000000	-1.000000	87.793103	0.000000	-1.000000	-1.000000	293399.000000	1772894298.534333
1302.660000	-11994.300000	5528.880000	-11.835000	-24590.340000	-21042.045000	-5270.490000	1020.555000	-1.385978	14.392130	10.249967	4.582948	2.601999	1.005580	-8.907937	-12.403357	-2.227960	5.508860	-3.128300	0.773497	0.036987	0.589354	-1.000000	-1.000000	-1.000000	-1.000000	-1.000000	-1.000000	-1.000000	87.793103	0.000000	-1.000000	-1.000000	293400.000000	1772894298.534351
1309.860000	-11977.965000	5553.585000	17.145000	-24565.995000	-21021.750000	-5257.620000	1017.990000	-2.327334	17.468565	12.617283	8.456081	5.400025	1.998297	-9.962584	-13.434870	2.334780	5.646200	-3.341940	0.775877	0.028870	0.589476	-1.000000	-1.000000	-1.000000	-1.000000	-1.000000	-1.000000	-1.000000	87.793103	0.000000	-1.000000	-1.000000	293401.000000	1772894298.537767
1320.750000	-11984.535000	5546.430000	11.565000	-24570.945000	-21026.205000	-5259.465000	1045.440000	1.892587	17.167153	13.679831	12.247483	8.778140	4.200772	-7.639941	-9.635116	2.334780	5.646200	-3.341940	0.775877	0.028870	0.589476	-1.000000	-1.000000	-1.000000	-1.000000	-1.000000	-1.000000	-1.000000	87.793103	0.000000	-1.000000	-1.000000	293402.000000	1772894298.537790
1319.895000	-11982.015000	5548.545000	17.955000	-24560.865000	-21015.180000	-5254.200000	1059.075000	9.127377	12.382979	11.556467	13.575802	10.719535	6.236792	-2.877178	-0.637551	2.334780	5.646200	-3.341940	0.775877	0.028870	0.589476	-1.000000	-1.000000	-1.000000	-1.000000	-1.000000	-1.000000	-1.000000	87.793103	0.000000	-1.000000	-1.000000	293403.000000	1772894298.541256
1310.535000	-11988.045000	5540.445000	6.210000	-24570.270000	-21019.995000	-5247.585000	1058.580000	13.092606	3.429961	5.208277	10.132234	9.195070	6.675483	2.852829	10.747718	2.334780	5.646200	-3.341940	0.775877	0.028870	0.589476	-1.000000	-1.000000	-1.000000	-1.000000	-1.000000	-1.000000	-1.000000	87.793103	0.000000	-1.000000	-1.000000	293404.000000	1772894298.541309
1318.365000	-11980.620000	5541.795000	-0.585000	-24576.840000	-21021.390000	-5236.470000	1059.570000	9.142547	-7.116955	-3.927276	1.880811	3.629420	4.670574	8.190922	19.156563	2.334780	5.646200	-3.341940	0.775877	0.028870	0.589476	-1.000000	-1.000000	-1.000000	-1.000000	-1.000000	-1.000000	-1.000000	87.793103	0.000000	-1.000000	-1.000000	293405.000000	1772894298.545251
1311.795000	-11967.525000	5565.870000	32.760000	-24543.450000	-20994.930000	-5230.530000	1031.715000	0.178067	-15.592755	-12.700784	-8.618525	-4.753178	-0.029441	11.528767	20.350956	2.334780	5.646200	-3.341940	0.775877	0.028870	0.589476	-1.000000	-1.000000	-1.000000	-1.000000	-1.000000	-1.000000	-1.000000	87.793103	0.000000	-1.000000	-1.000000	293406.000000	1772894298.545259
1298.610000	-11975.220000	5575.500000	49.635000	-24529.005000	-20983.095000	-5238.945000	1011.555000	-6.887989	-19.273168	-17.157253	-16.086686	-11.776142	-5.353855	11.228733	12.971949	2.334780	5.646200	-3.341940	0.775877	0.028870	0.589476	-1.000000	-1.000000	-1.000000	-1.000000	-1.000000	-1.000000	-1.000000	87.793103	0.000000	-1.000000	-1.000000	293407.000000	1772894298.549031
1310.130000	-11963.385000	5581.485000	50.355000	-24529.725000	-20984.580000	-5248.080000	998.370000	-9.561672	-17.289159	-14.578593	-15.695803	-12.705576	-7.618450	7.025749	-0.774047	2.334780	5.646200	-3.341940	0.775877	0.028870	0.589476	-1.000000	-1.000000	-1.000000	-1.000000	-1.000000	-1.000000	-1.000000	87.793103	0.000000	-1.000000	-1.000000	293408.000000	1772894298.549055
1327.275000	-11965.050000	5576.040000	45.180000	-24531.120000	-20986.200000	-5246.595000	995.760000	-9.816260	-10.291946	-6.420179	-8.131290	-7.318447	-5.575759	0.521367	-14.925293	2.334780	5.646200	-3.341940	0.775877	0.028870	0.589476	-1.000000	-1.000000	-1.000000	-1.000000	-1.000000	-1.000000	-1.000000	87.793103	0.000000	-1.000000	-1.000000	293409.000000	1772894298.553030
1324.485000	-11976.750000	5562.270000	30.060000	-24546.060000	-20997.045000	-5239.080000	1027.485000	-8.470586	-0.862844	1.944227	0.537368	-0.414487	-1.965785	-5.810497	-22.084472	2.334780	5.646200	-3.341940	0.775877	0.028870	0.589476	-1.000000	-1.000000	-1.000000	-1.000000	-1.000000	-1.000000	-1.000000	87.793103	0.000000	-1.000000	-1.000000	293410.000000	1772894298.553042
1327.860000	-12001.500000	5537.520000	2.115000	-24577.065000	-21026.025000	-5248.890000	1058.040000	-5.104289	6.578026	5.412785	4.246166	2.525521	-0.733107	-9.900101	-17.966953	5.371520	4.700080	-0.579880	0.775450	0.029907	0.596190	-1.000000	-1.000000	-1.000000	-1.000000	-1.000000	-1.000000	-1.000000	87.793103	0.000000	-1.000000	-1.000000	293411.000000	1772894298.557044
1325.520000	-12012.525000	5523.570000	-12.870000	-24592.320000	-21045.465000	-5265.720000	1063.935000	-0.675642	8.676222	3.042145	1.652854	-0.200755	-3.348689	-11.042648	-4.883891	5.371520	4.700080	-0.579880	0.775450	0.029907	0.596190	-1.000000	-1.000000	-1.000000	-1.000000	-1.000000	-1.000000	-1.000000	87.793103	0.000000	-1.000000	-1.000000	293412.000000	1772894298.557054
1306.170000	-12001.815000	5523.525000	-13.680000	-24593.715000	-21047.040000	-5267.385000	1029.510000	2.677568	6.030253	-1.806106	-3.465265	-5.278833	-7.402437	-9.752999	9.160389	5.371520	4.700080	-0.579880	0.775450	0.029907	0.596190	-1.000000	-1.000000	-1.000000	-1.000000	-1.000000	-1.000000	-1.000000	87.793103	0.000000	-1.000000	-1.000000	293413.000000	1772894298.561070
1284.075000	-11988.990000	5536.035000	-0.855000	-24582.510000	-21039.975000	-5281.155000	994.455000	3.220142	2.280019	-4.641376	-5.942263	-7.593378	-8.783177	-6.826687	15.612127	5.371520	4.700080	-0.579880	0.775450	0.029907	0.596190	-1.000000	-1.000000	-1.000000	-1.000000	-1.000000	-1.000000	-1.000000	87.793103	0.000000	-1.000000	-1.000000	293414.000000	1772894298.561077
1301.400000	-11996.145000	5536.305000	0.720000	-24577.155000	-21031.605000	-5272.605000	1025.595000	1.793226	0.287767	-3.454700	-3.796313	-4.955475	-5.511905	-2.830928	12.233439	5.371520	4.700080	-0.579880	0.775450	0.029907	0.596190	-1.000000	-1.000000	-1.000000	-1.000000	-1.000000	-1.000000	-1.000000	87.793103	0.000000	-1.000000	-1.000000	293415.000000	1772894298.564923
1310.760000	-12007.800000	5530.905000	-1.440000	-24578.055000	-21030.120000	-5264.640000	1060.380000	1.404598	0.083086	0.519822	1.134919	1.010353	1.211800	2.313052	5.131951	5.371520	4.700080	-0.579880	0.775450	0.029907	0.596190	-1.000000	-1.000000	-1.000000	-1.000000	-1.000000	-1.000000	-1.000000	87.793103	0.000000	-1.000000	-1.000000	293416.000000	1772894298.564929
1335.420000	-11999.340000	5539.095000	7.920000	-24568.830000	-21019.050000	-5252.310000	1069.200000	3.178278	0.427152	4.876700	6.218652	7.476399	8.773023	8.517246	1.494469	5.371520	4.700080	-0.579880	0.775450	0.029907	0.596190	-1.000000	-1.000000	-1.000000	-1.000000	-1.000000	-1.000000	-1.000000	87.793103	0.000000	-1.000000	-1.000000	293417.000000	1772894298.569132
1317.735000	-11980.305000	5557.365000	24.075000	-24551.865000	-20999.430000	-5234.355000	1046.790000	5.070430	1.189551	8.167406	10.044446	12.303866	14.598941	13.876491	1.642600	5.371520	4.700080	-0.579880	0.775450	0.029907	0.596190	-1.000000	-1.000000	-1.000000	-1.000000	-1.000000	-1.000000	-1.000000	87.793103	0.000000	-1.000000	-1.000000	293418.000000	1772894298.569141
1318.320000	-11970.450000	5559.345000	23.130000	-24553.530000	-20997.945000	-5219.865000	1044.630000	4.565029	3.310582	10.143568	12.053458	14.303510	16.823817	15.545564	0.219199	5.371520	4.700080	-0.579880	0.775450	0.029907	0.596190	-1.000000	-1.000000	-1.000000	-1.000000	-1.000000	-1.000000	-1.000000	87.793103	0.000000	-1.000000	-1.000000	293419.000000	1772894298.573152
1299.420000	-11974.860000	5563.125000	31.185000	-24545.745000	-20992.680000	-5209.155000	1043.505000	1.010713	6.511429	10.566645	11.799703	13.066370	14.742168	12.404790	-6.068748	5.371520	4.700080	-0.579880	0.775450	0.029907	0.596190	-1.000000	-1.000000	-1.000000	-1.000000	-1.000000	-1.000000	-1.000000	87.793103	0.000000	-1.000000	-1.000000	293420.000000	1772894298.573159
1317.645000	-11948.265000	5589.405000	57.555000	-24522.615000	-20978.595000	-5215.905000	1028.745000	-3.652268	8.602292	9.007110	9.281381	9.116651	9.082638	5.687878	-13.948892	2.258480	2.853620	-1.068200	0.771543	0.038879	0.601439	-1.000000	-1.000000	-1.000000	-1.000000	-1.000000	-1.000000	-1.000000	87.793103	0.000000	-1.000000	-1.000000	293421.000000	1772894298.578520
1370.610000	-11907.720000	5622.570000	88.605000	-24495.255000	-20955.105000	-5213.520000	1022.535000	-5.096215	7.837073	5.734516	5.305691	3.808064	1.715635	-2.481072	-16.761851	2.258480	2.853620	-1.068200	0.771543	0.038879	0.601439	-1.000000	-1.000000	-1.000000	-1.000000	-1.000000	-1.000000	-1.000000	87.793103	0.000000	-1.000000	-1.000000	293422.000000	1772894298.578529
1388.970000	-11898.450000	5622.840000	85.005000	-24499.350000	-20958.705000	-5220.000000	1036.620000	0.133712	4.319998	1.181700	0.283922	-2.032175	-5.627424	-9.865726	-10.591544	2.258480	2.853620	-1.068200	0.771543	0.038879	0.601439	-1.000000	-1.000000	-1.000000	-1.000000	-1.000000	-1.000000	-1.000000	87.793103	0.000000	-1.000000	-1.000000	293423.000000	1772894298.581040
1355.445000	-11961.945000	5555.025000	14.310000	-24569.505000	-21023.145000	-5257.755000	1072.710000	8.616457	-1.786407	-5.545895	-7.048173	-9.370376	-12.893080	-14.904602	2.234876	2.258480	2.853620	-1.068200	0.771543	0.038879	0.601439	-1.000000	-1.000000	-1.000000	-1.000000	-1.000000	-1.000000	-1.000000	87.793103	0.000000	-1.000000	-1.000000	293424.000000	1772894298.581045
1358.955000	-11973.330000	5545.845000	7.920000	-24573.645000	-21025.665000	-5253.615000	1084.635000	11.270185	-10.640713	-15.015786	-17.179762	-18.615720	-20.256318	-17.137029	14.677113	2.258480	2.853620	-1.068200	0.771543	0.038879	0.601439	-1.000000	-1.000000	-1.000000	-1.000000	-1.000000	-1.000000	-1.000000	87.793103	0.000000	-1.000000	-1.000000	293425.000000	1772894298.585166
1334.430000	-11975.265000	5560.470000	30.960000	-24546.060000	-20994.750000	-5231.205000	1040.670000	3.357979	-19.558955	-23.411506	-25.493579	-25.367562	-24.248152	-15.520807	19.552958	2.258480	2.853620	-1.068200	0.771543	0.038879	0.601439	-1.000000	-1.000000	-1.000000	-1.000000	-1.000000	-1.000000	-1.000000	87.793103	0.000000	-1.000000	-1.000000	293426.000000	1772894298.585173
1286.820000	-11995.470000	5560.650000	38.070000	-24535.305000	-20979.360000	-5220.450000	998.280000	-10.933064	-23.352071	-24.112539	-24.633769	-22.774373	-19.458596	-8.859436	13.281520	2.258480	2.853620	-1.068200	0.771543	0.038879	0.601439	-1.000000	-1.000000	-1.000000	-1.000000	-1.000000	-1.000000	-1.000000	87.793103	0.000000	-1.000000	-1.000000	293427.000000	1772894298.589058
1332.990000	-11996.325000	5554.305000	27.720000	-24548.580000	-20991.645000	-5218.920000	1045.980000	-22.370910	-18.923047	-14.545895	-12.505636	-9.476354	-5.526353	1.215101	-0.879591	2.258480	2.853620	-1.068200	0.771543	0.038879	0.601439	-1.000000	-1.000000	-1.000000	-1.000000	-1.000000	-1.000000	-1.000000	87.793103	0.000000	-1.000000	-1.000000	293428.000000	1772894298.589065
1321.110000	-12011.625000	5533.965000	3.375000	-24572.745000	-21017.115000	-5229.405000	1095.255000	-22.424645	-7.465155	0.801664	4.599027	7.565921	10.541295	10.330300	-12.465068	2.258480	2.853620	-1.068200	0.771543	0.038879	0.601439	-1.000000	-1.000000	-1.000000	-1.000000	-1.000000	-1.000000	-1.000000	87.793103	0.000000	-1.000000	-1.000000	293429.000000	1772894298.593043
1316.295000	-11992.815000	5535.765000	-1.170000	-24581.295000	-21027.915000	-5244.615000	1077.525000	-10.506609	6.120922	13.658364	16.848108	18.456697	19.602437	14.417460	-12.321171	2.258480	2.853620	-1.068200	0.771543	0.038879	0.601439	-1.000000	-1.000000	-1.000000	-1.000000	-1.000000	-1.000000	-1.000000	87.793103	0.000000	-1.000000	-1.000000	293430.000000	1772894298.593051
1297.485000	-11980.980000	5540.040000	-0.495000	-24581.250000	-21031.965000	-5259.330000	1028.745000	4.573556	16.011601	18.105395	18.550494	18.177734	17.508902	12.094227	-2.725831	-5.386780	2.853620	-2.502640	0.772520	0.046081	0.598753	-1.000000	-1.000000	-1.000000	-1.000000	-1.000000	-1.000000	-1.000000	87.793103	0.000000	-1.000000	-1.000000	293431.000000	1772894298.597083
1304.595000	-11967.255000	5549.580000	10.485000	-24570.135000	-21022.335000	-5255.415000	1031.715000	13.739089	19.794315	14.976135	12.336539	10.293179	8.233796	5.631647	5.420079	-5.386780	2.853620	-2.502640	0.772520	0.046081	0.598753	-1.000000	-1.000000	-1.000000	-1.000000	-1.000000	-1.000000	-1.000000	87.793103	0.000000	-1.000000	-1.000000	293432.000000	1772894298.597094
1328.805000	-11970.765000	5548.770000	12.195000	-24567.795000	-21017.655000	-5250.375000	1053.045000	15.559566	19.427463	10.260681	6.163938	3.418728	0.491546	-0.126895	4.966081	-5.386780	2.853620	-2.502640	0.772520	0.046081	0.598753	-1.000000	-1.000000	-1.000000	-1.000000	-1.000000	-1.000000	-1.000000	87.793103	0.000000	-1.000000	-1.000000	293433.000000	1772894298.601041
1322.730000	-11979.270000	5548.455000	11.070000	-24569.325000	-21023.955000	-5261.040000	1039.815000	13.706081	16.809072	8.058111	4.824323	2.434528	-0.699675	-2.146203	-1.572464	-5.386780	2.853620	-2.502640	0.772520	0.046081	0.598753	-1.000000	-1.000000	-1.000000	-1.000000	-1.000000	-1.000000	-1.000000	87.793103	0.000000	-1.000000	-1.000000	293434.000000	1772894298.601050
1315.620000	-11972.565000	5563.125000	22.635000	-24557.220000	-21014.955000	-5264.910000	1032.795000	10.876406	11.191702	6.857680	5.765385	4.347726	1.648042	-2.113435	-6.703469	-5.386780	2.853620	-2.502640	0.772520	0.046081	0.598753	-1.000000	-1.000000	-1.000000	-1.000000	-1.000000	-1.000000	-1.000000	87.793103	0.000000	-1.000000	-1.000000	293435.000000	1772894298.605004
1333.260000	-11972.970000	5556.870000	17.190000	-24562.620000	-21021.120000	-5271.075000	1033.920000	7.832698	2.583160	3.738035	4.474469	4.104103	2.213102	-3.022987	-5.569583	-5.386780	2.853620	-2.502640	0.772520	0.046081	0.598753	-1.000000	-1.000000	-1.000000	-1.000000	-1.000000	-1.000000	-1.000000	87.793103	0.000000	-1.000000	-1.000000	293436.000000	1772894298.605029
1355.265000	-11966.490000	5555.835000	23.040000	-24557.625000	-21015.360000	-5264.325000	1036.620000	4.554443	-6.242742	-1.491094	0.222412	0.725738	-0.059776	-4.822434	-0.183422	-5.386780	2.853620	-2.502640	0.772520	0.046081	0.598753	-1.000000	-1.000000	-1.000000	-1.000000	-1.000000	-1.000000	-1.000000	87.793103	0.000000	-1.000000	-1.000000	293437.000000	1772894298.609050
1330.785000	-11958.930000	5577.525000	47.970000	-24533.595000	-20991.420000	-5238.675000	1033.785000	0.418702	-12.128553	-6.526975	-4.131883	-2.967417	-2.193372	-4.572797	3.719714	-5.386780	2.853620	-2.502640	0.772520	0.046081	0.598753	-1.000000	-1.000000	-1.000000	-1.000000	-1.000000	-1.000000	-1.000000	87.793103	0.000000	-1.000000	-1.000000	293438.000000	1772894298.609059
1316.790000	-11969.865000	5573.295000	39.600000	-24542.010000	-20996.505000	-5225.895000	1071.540000	-5.223926	-14.314047	-9.054996	-5.964417	-4.377390	-1.690536	0.111887	4.607781	-5.386780	2.853620	-2.502640	0.772520	0.046081	0.598753	-1.000000	-1.000000	-1.000000	-1.000000	-1.000000	-1.000000	-1.000000	87.793103	0.000000	-1.000000	-1.000000	293439.000000	1772894298.615534
1332.270000	-11973.960000	5565.780000	32.760000	-24548.040000	-20998.440000	-5220.405000	1060.785000	-11.242480	-14.293706	-9.123358	-5.901135	-4.182639	0.219403	7.659498	5.939294	-5.386780	2.853620	-2.502640	0.772520	0.046081	0.598753	-1.000000	-1.000000	-1.000000	-1.000000	-1.000000	-1.000000	-1.000000	87.793103	0.000000	-1.000000	-1.000000	293440.000000	1772894298.615543
1334.745000	-11984.535000	5555.745000	23.040000	-24556.275000	-21004.020000	-5226.705000	1047.105000	-14.300123	-12.728648	-8.052556	-5.906883	-4.429153	0.683986	12.957444	7.979431	-8.331960	2.426340	-0.015260	0.775816	0.047363	0.597655	-1.000000	-1.000000	-1.000000	-1.000000	-1.000000	-1.000000	-1.000000	87.793103	0.000000	-1.000000	-1.000000	293441.000000	1772894298.618532
1315.980000	-11994.795000	5540.355000	5.805000	-24572.745000	-21021.075000	-5244.390000	1052.550000	-12.641855	-8.679022	-6.339955	-6.362006	-5.501839	-1.342982	11.375521	6.357182	-8.331960	2.426340	-0.015260	0.775816	0.047363	0.597655	-1.000000	-1.000000	-1.000000	-1.000000	-1.000000	-1.000000	-1.000000	87.793103	0.000000	-1.000000	-1.000000	293442.000000	1772894298.618545
1323.270000	-11976.120000	5553.540000	18.360000	-24562.575000	-21012.165000	-5241.960000	1059.795000	-7.662720	-1.860208	-4.016521	-6.467982	-6.492799	-4.873083	2.584065	0.291374	-8.331960	2.426340	-0.015260	0.775816	0.047363	0.597655	-1.000000	-1.000000	-1.000000	-1.000000	-1.000000	-1.000000	-1.000000	87.793103	0.000000	-1.000000	-1.000000	293443.000000	1772894298.620962
1322.415000	-11986.065000	5544.360000	11.835000	-24565.995000	-21011.895000	-5236.200000	1048.950000	-1.001214	6.174324	-1.205433	-5.222478	-6.186295	-7.671876	-8.617017	-5.625158	-8.331960	2.426340	-0.015260	0.775816	0.047363	0.597655	-1.000000	-1.000000	-1.000000	-1.000000	-1.000000	-1.000000	-1.000000	87.793103	0.000000	-1.000000	-1.000000	293444.000000	1772894298.620969
1310.715000	-11993.805000	5539.635000	5.580000	-24573.240000	-21019.410000	-5238.765000	1037.295000	5.225712	12.216649	1.805399	-2.157875	-3.722720	-7.527690	-15.763656	-8.255625	-8.331960	2.426340	-0.015260	0.775816	0.047363	0.597655	-1.000000	-1.000000	-1.000000	-1.000000	-1.000000	-1.000000	-1.000000	87.793103	0.000000	-1.000000	-1.000000	293445.000000	1772894298.625038
1313.550000	-11985.975000	5547.420000	12.150000	-24565.815000	-21010.905000	-5230.170000	1046.610000	7.973679	13.361593	4.484324	1.930556	0.439409	-4.064523	-15.565672	-8.314932	-8.331960	2.426340	-0.015260	0.775816	0.047363	0.597655	-1.000000	-1.000000	-1.000000	-1.000000	-1.000000	-1.000000	-1.000000	87.793103	0.000000	-1.000000	-1.000000	293446.000000	1772894298.625043
1313.820000	-11980.620000	5551.650000	16.020000	-24561.855000	-21007.935000	-5233.995000	1036.935000	7.001806	9.575073	6.142796	5.447385	4.666844	1.041332	-9.429070	-6.916459	-8.331960	2.426340	-0.015260	0.775816	0.047363	0.597655	-1.000000	-1.000000	-1.000000	-1.000000	-1.000000	-1.000000	-1.000000	87.793103	0.000000	-1.000000	-1.000000	293447.000000	1772894298.629148
1330.965000	-11961.315000	5571.855000	38.115000	-24541.515000	-20990.295000	-5225.310000	1032.390000	5.218328	3.681101	6.475785	7.479814	7.637896	5.702400	-1.281498	-4.413439	-8.331960	2.426340	-0.015260	0.775816	0.047363	0.597655	-1.000000	-1.000000	-1.000000	-1.000000	-1.000000	-1.000000	-1.000000	87.793103	0.000000	-1.000000	-1.000000	293448.000000	1772894298.629152
1324.080000	-11972.250000	5563.935000	34.650000	-24541.830000	-20998.530000	-5234.085000	1032.660000	4.373961	-0.965230	6.030816	8.374497	9.171916	8.635772	5.378872	-1.142282	-8.331960	2.426340	-0.015260	0.775816	0.047363	0.597655	-1.000000	-1.000000	-1.000000	-1.000000	-1.000000	-1.000000	-1.000000	87.793103	0.000000	-1.000000	-1.000000	293449.000000	1772894298.633194
1346.535000	-11972.205000	5561.955000	31.095000	-24544.980000	-21004.020000	-5247.225000	1054.125000	3.771904	-2.886539	5.181371	8.250800	9.137890	8.973965	8.641138	2.788938	-8.331960	2.426340	-0.015260	0.775816	0.047363	0.597655	-1.000000	-1.000000	-1.000000	-1.000000	-1.000000	-1.000000	-1.000000	87.793103	0.000000	-1.000000	-1.000000	293450.000000	1772894298.633203
1359.135000	-11976.210000	5563.440000	32.400000	-24543.405000	-20998.890000	-5240.295000	1063.080000	2.966446	-2.854493	3.466704	6.304431	6.857156	6.422448	8.330114	7.042232	-5.157880	1.983800	-1.358140	0.778562	0.038818	0.600096	-1.000000	-1.000000	-1.000000	-1.000000	-1.000000	-1.000000	-1.000000	87.793103	0.000000	-1.000000	-1.000000	293451.000000	1772894298.637185
1356.660000	-11970.225000	5571.360000	39.465000	-24537.195000	-20990.655000	-5230.080000	1067.130000	2.277717	-2.491131	0.523190	2.131135	2.179341	1.972181	5.937102	10.302748	-5.157880	1.983800	-1.358140	0.778562	0.038818	0.600096	-1.000000	-1.000000	-1.000000	-1.000000	-1.000000	-1.000000	-1.000000	87.793103	0.000000	-1.000000	-1.000000	293452.000000	1772894298.637194
1368.900000	-11951.820000	5588.820000	53.910000	-24525.765000	-20980.035000	-5217.525000	1095.210000	1.153912	-2.307784	-2.680898	-2.883516	-3.350506	-2.371191	3.417419	11.197307	-5.157880	1.983800	-1.358140	0.778562	0.038818	0.600096	-1.000000	-1.000000	-1.000000	-1.000000	-1.000000	-1.000000	-1.000000	87.793103	0.000000	-1.000000	-1.000000	293453.000000	1772894298.641147
1348.425000	-11950.695000	5597.370000	63.495000	-24518.025000	-20976.345000	-5219.055000	1073.385000	-1.346287	-1.440906	-4.182660	-6.081613	-7.000653	-4.640699	1.727549	9.059575	-5.157880	1.983800	-1.358140	0.778562	0.038818	0.600096	-1.000000	-1.000000	-1.000000	-1.000000	-1.000000	-1.000000	-1.000000	87.793103	0.000000	-1.000000	-1.000000	293454.000000	1772894298.641155
1295.190000	-11957.085000	5587.605000	55.755000	-24525.360000	-20984.625000	-5233.410000	1017.045000	-5.860400	-0.147285	-3.703642	-6.408675	-7.540489	-4.661020	0.170625	2.667428	-5.157880	1.983800	-1.358140	0.778562	0.038818	0.600096	-1.000000	-1.000000	-1.000000	-1.000000	-1.000000	-1.000000	-1.000000	87.793103	0.000000	-1.000000	-1.000000	293455.000000	1772894298.645171
1302.030000	-11950.920000	5575.995000	41.085000	-24539.220000	-20996.550000	-5240.295000	1016.055000	-11.818819	-0.160319	-3.477806	-5.699943	-6.548034	-4.297126	-2.505329	-8.042224	-5.157880	1.983800	-1.358140	0.778562	0.038818	0.600096	-1.000000	-1.000000	-1.000000	-1.000000	-1.000000	-1.000000	-1.000000	87.793103	0.000000	-1.000000	-1.000000	293456.000000	1772894298.645181
1352.835000	-11955.555000	5563.395000	23.445000	-24555.105000	-21007.215000	-5245.380000	1055.790000	-15.088220	-1.976457	-5.230622	-6.200041	-6.226847	-5.073975	-5.943157	-17.538227	-5.157880	1.983800	-1.358140	0.778562	0.038818	0.600096	-1.000000	-1.000000	-1.000000	-1.000000	-1.000000	-1.000000	-1.000000	87.793103	0.000000	-1.000000	-1.000000	293457.000000	1772894298.649215
1327.860000	-11973.915000	5558.580000	20.340000	-24558.480000	-21011.130000	-5257.890000	1033.155000	-10.913108	-4.154597	-7.652322	-7.601101	-6.657258	-6.181271	-8.022874	-18.410011	-5.157880	1.983800	-1.358140	0.778562	0.038818	0.600096	-1.000000	-1.000000	-1.000000	-1.000000	-1.000000	-1.000000	-1.000000	87.793103	0.000000	-1.000000	-1.000000	293458.000000	1772894298.649222
1347.480000	-11967.210000	5569.380000	32.760000	-24547.230000	-21008.115000	-5269.905000	1033.065000	-0.650921	-4.872936	-7.484667	-6.990259	-5.531492	-5.283293	-7.012250	-10.374567	-5.157880	1.983800	-1.358140	0.778562	0.038818	0.600096	-1.000000	-1.000000	-1.000000	-1.000000	-1.000000	-1.000000	-1.000000	87.793103	0.000000	-1.000000	-1.000000	293459.000000	1772894298.652974
1343.835000	-11970.180000	5559.570000	31.005000	-24548.490000	-21011.265000	-5271.705000	1030.770000	9.503163	-3.200307	-3.191036	-2.332302	-1.105507	-1.460192	-3.348546	0.357728	-5.157880	1.983800	-1.358140	0.778562	0.038818	0.600096	-1.000000	-1.000000	-1.000000	-1.000000	-1.000000	-1.000000	-1.000000	87.793103	0.000000	-1.000000	-1.000000	293460.000000	1772894298.652982
1315.035000	-11975.130000	5552.865000	39.960000	-24536.295000	-20994.570000	-5242.545000	1000.395000	14.230466	0.060691	2.894155	4.676110	5.229438	3.612868	1.253812	7.813413	3.341940	4.471180	-0.122080	0.781187	0.031921	0.603880	-1.000000	-1.000000	-1.000000	-1.000000	-1.000000	-1.000000	-1.000000	87.793103	0.000000	-1.000000	-1.000000	293461.000000	1772894298.657019
1318.905000	-11961.045000	5583.780000	68.985000	-24507.945000	-20966.670000	-5208.705000	1002.555000	11.529174	3.023567	7.332366	10.569743	10.600584	7.969866	6.013481	9.134152	3.341940	4.471180	-0.122080	0.781187	0.031921	0.603880	-1.000000	-1.000000	-1.000000	-1.000000	-1.000000	-1.000000	-1.000000	87.793103	0.000000	-1.000000	-1.000000	293462.000000	1772894298.657032
1337.985000	-11955.465000	5595.120000	65.160000	-24516.360000	-20974.905000	-5214.420000	1033.695000	4.697743	4.753029	9.247302	13.086255	12.954723	10.540753	10.451287	6.577109	3.341940	4.471180	-0.122080	0.781187	0.031921	0.603880	-1.000000	-1.000000	-1.000000	-1.000000	-1.000000	-1.000000	-1.000000	87.793103	0.000000	-1.000000	-1.000000	293463.000000	1772894298.661062
1310.670000	-12010.410000	5529.420000	-12.915000	-24590.925000	-21036.195000	-5251.950000	1062.945000	-0.010028	4.654611	8.553112	10.360876	10.144619	9.318875	12.003675	6.402127	3.341940	4.471180	-0.122080	0.781187	0.031921	0.603880	-1.000000	-1.000000	-1.000000	-1.000000	-1.000000	-1.000000	-1.000000	87.793103	0.000000	-1.000000	-1.000000	293464.000000	1772894298.661074
1289.745000	-12022.965000	5511.285000	-34.380000	-24613.515000	-21045.690000	-5247.270000	1055.070000	-1.292403	1.260665	3.771283	1.181355	0.779515	2.431030	7.796929	10.652393	3.341940	4.471180	-0.122080	0.781187	0.031921	0.603880	-1.000000	-1.000000	-1.000000	-1.000000	-1.000000	-1.000000	-1.000000	87.793103	0.000000	-1.000000	-1.000000	293465.000000	1772894298.665287
1321.155000	-12003.120000	5525.820000	-16.605000	-24594.345000	-21023.730000	-5219.055000	1085.400000	-2.721550	-4.127699	-3.847310	-10.422832	-11.024509	-7.008356	-0.351995	13.835137	3.341940	4.471180	-0.122080	0.781187	0.031921	0.603880	-1.000000	-1.000000	-1.000000	-1.000000	-1.000000	-1.000000	-1.000000	87.793103	0.000000	-1.000000	-1.000000	293466.000000	1772894298.665296
1329.480000	-11971.980000	5559.210000	21.960000	-24556.680000	-20997.090000	-5209.470000	1071.450000	-4.766909	-5.846873	-8.349412	-15.602818	-16.304752	-11.556050	-6.320845	10.617088	3.341940	4.471180	-0.122080	0.781187	0.031921	0.603880	-1.000000	-1.000000	-1.000000	-1.000000	-1.000000	-1.000000	-1.000000	87.793103	0.000000	-1.000000	-1.000000	293467.000000	1772894298.669221
1345.545000	-11950.650000	5582.925000	47.970000	-24533.955000	-20984.580000	-5214.105000	1060.830000	-4.631721	-0.238778	-5.137155	-9.176926	-9.831746	-7.098054	-6.430927	1.073895	3.341940	4.471180	-0.122080	0.781187	0.031921	0.603880	-1.000000	-1.000000	-1.000000	-1.000000	-1.000000	-1.000000	-1.000000	87.793103	0.000000	-1.000000	-1.000000	293468.000000	1772894298.669229
1353.240000	-11955.825000	5587.020000	54.360000	-24528.105000	-20988.675000	-5224.095000	1058.175000	-1.351865	9.253381	3.903187	4.883946	4.337895	2.720373	-3.197862	-10.744613	3.341940	4.471180	-0.122080	0.781187	0.031921	0.603880	-1.000000	-1.000000	-1.000000	-1.000000	-1.000000	-1.000000	-1.000000	87.793103	0.000000	-1.000000	-1.000000	293469.000000	1772894298.673122
1340.775000	-11967.480000	5583.285000	53.235000	-24527.115000	-20987.775000	-5224.095000	1058.130000	3.347932	14.921320	11.876615	16.666640	16.243152	9.965807	-1.870734	-18.984833	3.341940	4.471180	-0.122080	0.781187	0.031921	0.603880	-1.000000	-1.000000	-1.000000	-1.000000	-1.000000	-1.000000	-1.000000	87.793103	0.000000	-1.000000	-1.000000	293470.000000	1772894298.673130
1325.790000	-11971.665000	5575.455000	42.660000	-24539.175000	-20995.155000	-5227.290000	1062.090000	6.016782	11.393159	12.018812	17.799302	17.682786	9.174105	-4.719957	-19.578682	6.790700	5.234180	0.503580	0.781126	0.030395	0.599852	-1.000000	-1.000000	-1.000000	-1.000000	-1.000000	-1.000000	-1.000000	87.793103	0.000000	-1.000000	-1.000000	293471.000000	1772894298.676915
1318.230000	-11971.440000	5578.830000	49.185000	-24530.715000	-20985.030000	-5227.245000	1065.600000	4.099013	0.388137	3.506788	8.096867	8.585712	1.923522	-8.658159	-13.171890	6.790700	5.234180	0.503580	0.781126	0.030395	0.599852	-1.000000	-1.000000	-1.000000	-1.000000	-1.000000	-1.000000	-1.000000	87.793103	0.000000	-1.000000	-1.000000	293472.000000	1772894298.676925
1320.660000	-11982.915000	5569.245000	43.020000	-24532.515000	-20986.965000	-5227.560000	1062.180000	-0.795776	-10.500437	-6.952973	-4.034813	-2.830270	-4.655266	-8.380287	-3.891487	6.790700	5.234180	0.503580	0.781126	0.030395	0.599852	-1.000000	-1.000000	-1.000000	-1.000000	-1.000000	-1.000000	-1.000000	87.793103	0.000000	-1.000000	-1.000000	293473.000000	1772894298.681368
1330.920000	-11969.955000	5563.080000	27.585000	-24553.395000	-21010.365000	-5239.215000	1053.225000	-4.673836	-14.587848	-11.908700	-10.303460	-8.702345	-5.763708	-2.530409	3.647482	6.790700	5.234180	0.503580	0.781126	0.030395	0.599852	-1.000000	-1.000000	-1.000000	-1.000000	-1.000000	-1.000000	-1.000000	87.793103	0.000000	-1.000000	-1.000000	293474.000000	1772894298.681378
1355.490000	-11977.020000	5546.385000	6.570000	-24575.490000	-21030.120000	-5249.970000	1028.655000	-5.312602	-11.286640	-10.529224	-10.526541	-9.318080	-3.954566	4.464643	6.473321	6.790700	5.234180	0.503580	0.781126	0.030395	0.599852	-1.000000	-1.000000	-1.000000	-1.000000	-1.000000	-1.000000	-1.000000	87.793103	0.000000	-1.000000	-1.000000	293475.000000	1772894298.685302
1303.110000	-11985.390000	5548.185000	12.960000	-24567.705000	-21015.630000	-5231.610000	1015.830000	-3.860589	-5.224098	-7.212564	-9.616081	-9.532522	-3.874705	7.966318	4.674593	6.790700	5.234180	0.503580	0.781126	0.030395	0.599852	-1.000000	-1.000000	-1.000000	-1.000000	-1.000000	-1.000000	-1.000000	87.793103	0.000000	-1.000000	-1.000000	293476.000000	1772894298.685310
1285.245000	-11984.895000	5556.240000	25.425000	-24551.955000	-20996.955000	-5215.455000	1018.125000	-3.761134	-1.192701	-5.082282	-9.692367	-10.640204	-5.296466	8.075298	1.512955	6.790700	5.234180	0.503580	0.781126	0.030395	0.599852	-1.000000	-1.000000	-1.000000	-1.000000	-1.000000	-1.000000	-1.000000	87.793103	0.000000	-1.000000	-1.000000	293477.000000	1772894298.689406
1292.130000	-11984.445000	5556.105000	25.605000	-24553.305000	-21002.445000	-5224.140000	1035.225000	-5.943332	0.150196	-3.279385	-8.468908	-9.632354	-4.668511	7.084273	1.005883	6.790700	5.234180	0.503580	0.781126	0.030395	0.599852	-1.000000	-1.000000	-1.000000	-1.000000	-1.000000	-1.000000	-1.000000	87.793103	0.000000	-1.000000	-1.000000	293478.000000	1772894298.689414
1304.865000	-11982.060000	5554.530000	20.475000	-24562.935000	-21021.795000	-5248.080000	1039.050000	-6.305045	1.184304	-0.073900	-3.925141	-4.680400	-1.162167	4.906633	4.481782	6.790700	5.234180	0.503580	0.781126	0.030395	0.599852	-1.000000	-1.000000	-1.000000	-1.000000	-1.000000	-1.000000	-1.000000	87.793103	0.000000	-1.000000	-1.000000	293479.000000	1772894298.697271
1296.045000	-11984.355000	5549.760000	12.870000	-24569.820000	-21028.860000	-5262.390000	1032.120000	-1.221490	3.351393	4.135960	2.761211	2.398140	2.537016	0.193843	9.088912	6.790700	5.234180	0.503580	0.781126	0.030395	0.599852	-1.000000	-1.000000	-1.000000	-1.000000	-1.000000	-1.000000	-1.000000	87.793103	0.000000	-1.000000	-1.000000	293480.000000	1772894298.697279
1352.295000	-11976.660000	5542.155000	1.800000	-24578.955000	-21033.855000	-5266.665000	1080.405000	8.169323	6.168352	7.687485	8.820411	8.577277	4.386977	-5.710428	10.957645	4.318580	6.332900	0.930860	0.780516	0.033996	0.595824	-1.000000	-1.000000	-1.000000	-1.000000	-1.000000	-1.000000	-1.000000	87.793103	0.000000	-1.000000	-1.000000	293481.000000	1772894298.697287
1372.455000	-11963.970000	5558.355000	21.960000	-24557.895000	-21017.520000	-5277.150000	1082.205000	17.852200	8.626035	9.671285	12.492550	12.270439	5.052247	-9.212383	9.373582	4.318580	6.332900	0.930860	0.780516	0.033996	0.595824	-1.000000	-1.000000	-1.000000	-1.000000	-1.000000	-1.000000	-1.000000	87.793103	0.000000	-1.000000	-1.000000	293482.000000	1772894298.697291
1385.190000	-11965.815000	5568.120000	34.875000	-24546.690000	-21010.410000	-5285.655000	1047.555000	22.459516	9.336139	10.198058	13.795711	13.747457	6.262079	-8.241401	5.095348	4.318580	6.332900	0.930860	0.780516	0.033996	0.595824	-1.000000	-1.000000	-1.000000	-1.000000	-1.000000	-1.000000	-1.000000	87.793103	0.000000	-1.000000	-1.000000	293483.000000	1772894298.701015
1389.420000	-11995.245000	5540.760000	10.260000	-24569.460000	-21028.635000	-5276.430000	1034.955000	17.698330	6.381999	8.715484	12.468161	12.813960	7.730015	-3.579938	-1.794882	4.318580	6.332900	0.930860	0.780516	0.033996	0.595824	-1.000000	-1.000000	-1.000000	-1.000000	-1.000000	-1.000000	-1.000000	87.793103	0.000000	-1.000000	-1.000000	293484.000000	1772894298.701023
1354.095000	-12000.150000	5557.635000	33.120000	-24545.205000	-20998.845000	-5237.640000	1002.375000	4.643918	-0.763808	3.866214	7.070844	7.845035	6.830230	2.768565	-9.839053	4.318580	6.332900	0.930860	0.780516	0.033996	0.595824	-1.000000	-1.000000	-1.000000	-1.000000	-1.000000	-1.000000	-1.000000	87.793103	0.000000	-1.000000	-1.000000	293485.000000	1772894298.705236
1258.290000	-11995.290000	5574.780000	44.865000	-24536.700000	-20990.880000	-5226.705000	978.885000	-12.110347	-9.061051	-3.238601	-1.583032	-0.676612	2.587864	8.843564	-16.294869	4.318580	6.332900	0.930860	0.780516	0.033996	0.595824	-1.000000	-1.000000	-1.000000	-1.000000	-1.000000	-1.000000	-1.000000	87.793103	0.000000	-1.000000	-1.000000	293486.000000	1772894298.705245
1242.045000	-11985.435000	5557.995000	16.245000	-24568.695000	-21023.370000	-5246.640000	1015.830000	-28.183662	-13.342796	-8.866766	-9.783230	-9.292053	-3.110801	12.254979	-18.335742	4.318580	6.332900	0.930860	0.780516	0.033996	0.595824	-1.000000	-1.000000	-1.000000	-1.000000	-1.000000	-1.000000	-1.000000	87.793103	0.000000	-1.000000	-1.000000	293487.000000	1772894298.709163
1297.935000	-11990.070000	5529.870000	-14.040000	-24596.415000	-21046.905000	-5259.195000	1056.015000	-36.503919	-10.839764	-11.130818	-14.928917	-15.182515	-8.377873	10.654271	-12.785893	4.318580	6.332900	0.930860	0.780516	0.033996	0.595824	-1.000000	-1.000000	-1.000000	-1.000000	-1.000000	-1.000000	-1.000000	87.793103	0.000000	-1.000000	-1.000000	293488.000000	1772894298.709173
1325.475000	-11979.720000	5548.050000	11.745000	-24568.245000	-21017.655000	-5244.210000	1050.390000	-28.750618	-3.313156	-10.424752	-15.764811	-16.479225	-11.297306	4.466736	0.165142	4.318580	6.332900	0.930860	0.780516	0.033996	0.595824	-1.000000	-1.000000	-1.000000	-1.000000	-1.000000	-1.000000	-1.000000	87.793103	0.000000	-1.000000	-1.000000	293489.000000	1772894298.712878
1345.230000	-11970.765000	5560.650000	24.795000	-24557.265000	-21007.260000	-5237.910000	1063.080000	-5.956866	5.077197	-6.448135	-10.606880	-11.234119	-9.254054	-2.516248	13.487220	4.318580	6.332900	0.930860	0.780516	0.033996	0.595824	-1.000000	-1.000000	-1.000000	-1.000000	-1.000000	-1.000000	-1.000000	87.793103	0.000000	-1.000000	-1.000000	293490.000000	1772894298.712886
1355.310000	-11954.205000	5582.295000	45.720000	-24537.330000	-20992.005000	-5238.720000	1061.190000	19.290586	10.556324	0.643015	-0.149718	-0.449411	-2.135562	-6.573814	19.270945	0.595140	7.324800	2.777320	0.782957	0.041260	0.595580	-1.000000	-1.000000	-1.000000	-1.000000	-1.000000	-1.000000	-1.000000	87.793103	0.000000	-1.000000	-1.000000	293491.000000	1772894298.717028
1352.070000	-11942.685000	5595.750000	61.560000	-24520.770000	-20981.520000	-5239.845000	1047.510000	33.393441	11.555518	8.333254	10.971848	10.935754	6.393659	-6.934106	16.071304	0.595140	7.324800	2.777320	0.782957	0.041260	0.595580	-1.000000	-1.000000	-1.000000	-1.000000	-1.000000	-1.000000	-1.000000	87.793103	0.000000	-1.000000	-1.000000	293492.000000	1772894298.717036
1335.465000	-11948.310000	5584.905000	50.175000	-24529.230000	-20984.085000	-5228.910000	1059.030000	31.003378	8.989487	13.088250	17.322229	17.470923	11.724371	-5.459507	7.967320	0.595140	7.324800	2.777320	0.782957	0.041260	0.595580	-1.000000	-1.000000	-1.000000	-1.000000	-1.000000	-1.000000	-1.000000	87.793103	0.000000	-1.000000	-1.000000	293493.000000	1772894298.721072
1323.630000	-11948.085000	5580.405000	44.730000	-24532.605000	-20982.600000	-5215.635000	1058.445000	16.945920	4.297773	11.783508	15.176617	15.523531	10.564182	-4.481679	0.256362	0.595140	7.324800	2.777320	0.782957	0.041260	0.595580	-1.000000	-1.000000	-1.000000	-1.000000	-1.000000	-1.000000	-1.000000	87.793103	0.000000	-1.000000	-1.000000	293494.000000	1772894298.721080
1324.260000	-11954.970000	5586.840000	50.985000	-24524.190000	-20975.175000	-5213.790000	1055.295000	1.780741	-1.710696	4.019416	5.048904	5.692682	3.311883	-4.410695	-4.213566	0.595140	7.324800	2.777320	0.782957	0.041260	0.595580	-1.000000	-1.000000	-1.000000	-1.000000	-1.000000	-1.000000	-1.000000	87.793103	0.000000	-1.000000	-1.000000	293495.000000	1772894298.725162
1306.440000	-11966.310000	5594.130000	51.885000	-24524.865000	-20977.245000	-5224.140000	1032.165000	-7.289082	-7.982560	-5.579409	-6.666672	-5.676997	-4.771743	-3.587371	-7.089486	0.595140	7.324800	2.777320	0.782957	0.041260	0.595580	-1.000000	-1.000000	-1.000000	-1.000000	-1.000000	-1.000000	-1.000000	87.793103	0.000000	-1.000000	-1.000000	293496.000000	1772894298.725172
1341.135000	-11946.420000	5605.335000	65.610000	-24520.005000	-20980.530000	-5242.275000	1023.570000	-10.969089	-12.284205	-10.498738	-12.334245	-11.426186	-8.239660	-1.147891	-11.374810	0.595140	7.324800	2.777320	0.782957	0.041260	0.595580	-1.000000	-1.000000	-1.000000	-1.000000	-1.000000	-1.000000	-1.000000	87.793103	0.000000	-1.000000	-1.000000	293497.000000	1772894298.728906
1375.335000	-11954.790000	5579.370000	52.110000	-24534.450000	-20997.180000	-5253.750000	1045.260000	-12.159057	-12.167253	-8.830993	-10.066185	-10.224867	-7.007685	1.208811	-15.853342	0.595140	7.324800	2.777320	0.782957	0.041260	0.595580	-1.000000	-1.000000	-1.000000	-1.000000	-1.000000	-1.000000	-1.000000	87.793103	0.000000	-1.000000	-1.000000	293498.000000	1772894298.728930
1383.300000	-11960.010000	5575.185000	44.640000	-24542.820000	-21006.180000	-5244.435000	1076.220000	-11.198493	-7.865213	-4.719193	-4.564886	-6.378194	-5.007266	1.752847	-15.234307	0.595140	7.324800	2.777320	0.782957	0.041260	0.595580	-1.000000	-1.000000	-1.000000	-1.000000	-1.000000	-1.000000	-1.000000	87.793103	0.000000	-1.000000	-1.000000	293499.000000	1772894298.732885
1346.490000	-11965.410000	5579.235000	49.905000	-24533.190000	-20993.400000	-5220.090000	1079.910000	-8.634257	-2.452155	-2.665602	-1.276395	-4.009001	-4.529000	1.683747	-6.197749	0.595140	7.324800	2.777320	0.782957	0.041260	0.595580	-1.000000	-1.000000	-1.000000	-1.000000	-1.000000	-1.000000	-1.000000	87.793103	0.000000	-1.000000	-1.000000	293500.000000	1772894298.732896
1325.160000	-11966.895000	5582.475000	53.820000	-24526.440000	-20982.420000	-5212.305000	1063.260000	-6.621085	1.617841	-2.694996	-1.159257	-3.157109	-3.996855	3.233746	7.850935	-6.027700	5.432560	1.999060	0.782041	0.044067	0.596434	-1.000000	-1.000000	-1.000000	-1.000000	-1.000000	-1.000000	-1.000000	87.793103	0.000000	-1.000000	-1.000000	293501.000000	1772894298.736969
1337.445000	-11965.320000	5580.810000	49.230000	-24531.345000	-20982.510000	-5211.090000	1067.310000	-5.176724	4.251503	-2.024189	-1.595675	-1.611497	-1.227612	5.614900	18.719229	-6.027700	5.432560	1.999060	0.782041	0.044067	0.596434	-1.000000	-1.000000	-1.000000	-1.000000	-1.000000	-1.000000	-1.000000	87.793103	0.000000	-1.000000	-1.000000	293502.000000	1772894298.736996
1362.870000	-11958.705000	5583.870000	49.050000	-24531.840000	-20983.905000	-5215.905000	1074.060000	-0.852237	6.275102	0.756337	-0.544851	1.337073	3.133976	5.626833	20.552648	-6.027700	5.432560	1.999060	0.782041	0.044067	0.596434	-1.000000	-1.000000	-1.000000	-1.000000	-1.000000	-1.000000	-1.000000	87.793103	0.000000	-1.000000	-1.000000	293503.000000	1772894298.740990
1363.320000	-11958.435000	5580.855000	45.855000	-24535.980000	-20986.605000	-5217.300000	1070.685000	7.959826	7.865340	4.453832	1.864699	4.470352	6.650090	2.141399	13.695975	-6.027700	5.432560	1.999060	0.782041	0.044067	0.596434	-1.000000	-1.000000	-1.000000	-1.000000	-1.000000	-1.000000	-1.000000	87.793103	0.000000	-1.000000	-1.000000	293504.000000	1772894298.741003
1347.570000	-11950.380000	5587.380000	56.340000	-24522.840000	-20968.470000	-5201.100000	1059.570000	16.370721	8.392631	7.026176	4.590665	6.680083	8.111561	-2.040555	2.413384	-6.027700	5.432560	1.999060	0.782041	0.044067	0.596434	-1.000000	-1.000000	-1.000000	-1.000000	-1.000000	-1.000000	-1.000000	87.793103	0.000000	-1.000000	-1.000000	293505.000000	1772894298.744949
1321.920000	-11960.505000	5583.510000	54.450000	-24523.290000	-20967.120000	-5191.650000	1048.005000	16.217063	6.812237	7.327701	6.509909	7.620627	7.959499	-3.103008	-8.511089	-6.027700	5.432560	1.999060	0.782041	0.044067	0.596434	-1.000000	-1.000000	-1.000000	-1.000000	-1.000000	-1.000000	-1.000000	87.793103	0.000000	-1.000000	-1.000000	293506.000000	1772894298.744973
1314.720000	-11955.330000	5594.940000	65.520000	-24511.320000	-20957.175000	-5182.785000	1045.170000	4.333439	2.732840	5.724039	6.751111	7.147797	6.689731	-0.296413	-15.877006	-6.027700	5.432560	1.999060	0.782041	0.044067	0.596434	-1.000000	-1.000000	-1.000000	-1.000000	-1.000000	-1.000000	-1.000000	87.793103	0.000000	-1.000000	-1.000000	293507.000000	1772894298.748916
1312.065000	-11958.345000	5590.845000	60.795000	-24516.405000	-20965.545000	-5202.540000	1031.580000	-12.592366	-2.394733	3.298019	5.143895	5.140653	4.099760	2.996531	-18.376773	-6.027700	5.432560	1.999060	0.782041	0.044067	0.596434	-1.000000	-1.000000	-1.000000	-1.000000	-1.000000	-1.000000	-1.000000	87.793103	0.000000	-1.000000	-1.000000	293508.000000	1772894298.748924
1360.665000	-11960.325000	5575.185000	40.230000	-24539.490000	-20991.240000	-5226.120000	1068.030000	-21.835339	-6.207852	0.211336	1.598144	1.086342	-0.670926	2.059521	-14.907887	-6.027700	5.432560	1.999060	0.782041	0.044067	0.596434	-1.000000	-1.000000	-1.000000	-1.000000	-1.000000	-1.000000	-1.000000	87.793103	0.000000	-1.000000	-1.000000	293509.000000	1772894298.753140
1377.630000	-11978.865000	5555.610000	20.070000	-24558.570000	-21010.905000	-5235.480000	1090.530000	-14.862282	-7.489002	-3.971361	-3.844849	-5.226848	-7.868588	-4.455301	-4.458695	-6.027700	5.432560	1.999060	0.782041	0.044067	0.596434	-1.000000	-1.000000	-1.000000	-1.000000	-1.000000	-1.000000	-1.000000	87.793103	0.000000	-1.000000	-1.000000	293510.000000	1772894298.753148
1352.880000	-12003.615000	5557.365000	30.285000	-24543.315000	-20993.670000	-5217.705000	1067.355000	3.885594	-7.005972	-8.280919	-9.232736	-11.400220	-14.652600	-12.104563	9.798888	-6.088740	4.272800	-0.076300	0.776487	0.041992	0.597289	-1.000000	-1.000000	-1.000000	-1.000000	-1.000000	-1.000000	-1.000000	87.793103	0.000000	-1.000000	-1.000000	293511.000000	1772894298.756809
1331.775000	-12019.590000	5562.135000	41.625000	-24528.420000	-20978.370000	-5209.875000	1048.275000	19.764061	-6.320310	-10.091199	-10.790381	-12.815045	-15.696165	-13.974821	19.426405	-6.088740	4.272800	-0.076300	0.776487	0.041992	0.597289	-1.000000	-1.000000	-1.000000	-1.000000	-1.000000	-1.000000	-1.000000	87.793103	0.000000	-1.000000	-1.000000	293512.000000	1772894298.756817
1307.430000	-11979.495000	5582.340000	54.630000	-24521.715000	-20975.040000	-5209.200000	1044.810000	21.263116	-5.042975	-7.178760	-6.270566	-7.078745	-8.384553	-7.193232	18.109209	-6.088740	4.272800	-0.076300	0.776487	0.041992	0.597289	-1.000000	-1.000000	-1.000000	-1.000000	-1.000000	-1.000000	-1.000000	87.793103	0.000000	-1.000000	-1.000000	293513.000000	1772894298.760845
1312.020000	-11941.065000	5586.255000	47.655000	-24535.575000	-20991.285000	-5219.415000	1034.010000	9.052593	-0.461544	-0.015152	2.125279	2.605960	3.325183	4.157580	7.814149	-6.088740	4.272800	-0.076300	0.776487	0.041992	0.597289	-1.000000	-1.000000	-1.000000	-1.000000	-1.000000	-1.000000	-1.000000	87.793103	0.000000	-1.000000	-1.000000	293514.000000	1772894298.760853
1385.910000	-11920.140000	5595.795000	55.260000	-24529.500000	-20983.320000	-5215.365000	1066.995000	-5.987424	8.308565	7.958628	9.180331	9.939794	12.151048	12.862337	-3.831842	-6.088740	4.272800	-0.076300	0.776487	0.041992	0.597289	-1.000000	-1.000000	-1.000000	-1.000000	-1.000000	-1.000000	-1.000000	87.793103	0.000000	-1.000000	-1.000000	293515.000000	1772894298.766190
1355.760000	-11923.020000	5608.395000	70.830000	-24513.030000	-20967.390000	-5206.500000	1085.805000	-12.559180	17.039578	12.679435	11.269237	11.357951	14.225175	14.769178	-9.596370	-6.088740	4.272800	-0.076300	0.776487	0.041992	0.597289	-1.000000	-1.000000	-1.000000	-1.000000	-1.000000	-1.000000	-1.000000	87.793103	0.000000	-1.000000	-1.000000	293516.000000	1772894298.766196
1325.880000	-11958.210000	5580.720000	46.125000	-24533.280000	-20985.615000	-5220.675000	1077.255000	-9.559029	18.777766	11.738049	8.311067	7.805440	10.725089	10.784208	-7.492383	-6.088740	4.272800	-0.076300	0.776487	0.041992	0.597289	-1.000000	-1.000000	-1.000000	-1.000000	-1.000000	-1.000000	-1.000000	87.793103	0.000000	-1.000000	-1.000000	293517.000000	1772894298.768985
1355.805000	-11977.830000	5558.130000	21.465000	-24557.670000	-21010.230000	-5238.810000	1059.930000	-4.269492	9.900726	5.095511	2.014997	1.831486	4.388759	4.017379	-2.207763	-6.088740	4.272800	-0.076300	0.776487	0.041992	0.597289	-1.000000	-1.000000	-1.000000	-1.000000	-1.000000	-1.000000	-1.000000	87.793103	0.000000	-1.000000	-1.000000	293518.000000	1772894298.768992
1384.155000	-11978.325000	5561.325000	26.100000	-24556.545000	-21014.190000	-5241.420000	1064.160000	-0.932057	-5.477793	-4.258742	-4.979270	-4.158506	-2.511691	-2.937843	0.118007	-6.088740	4.272800	-0.076300	0.776487	0.041992	0.597289	-1.000000	-1.000000	-1.000000	-1.000000	-1.000000	-1.000000	-1.000000	87.793103	0.000000	-1.000000	-1.000000	293519.000000	1772894298.773022
1389.735000	-11939.850000	5609.295000	79.335000	-24504.165000	-20965.635000	-5212.035000	1081.485000	2.098814	-17.357495	-10.685386	-8.765626	-7.311137	-7.310236	-7.813898	-1.043293	-6.088740	4.272800	-0.076300	0.776487	0.041992	0.597289	-1.000000	-1.000000	-1.000000	-1.000000	-1.000000	-1.000000	-1.000000	87.793103	0.000000	-1.000000	-1.000000	293520.000000	1772894298.773028
1382.715000	-11907.405000	5648.580000	121.410000	-24460.830000	-20930.400000	-5206.770000	1076.760000	6.058674	-17.593888	-9.345758	-5.953470	-4.847613	-6.913506	-8.387518	-1.641555	-7.980980	4.150720	-0.442540	0.774290	0.036072	0.596617	-1.000000	-1.000000	-1.000000	-1.000000	-1.000000	-1.000000	-1.000000	87.793103	0.000000	-1.000000	-1.000000	293521.000000	1772894298.776901
1347.705000	-11913.480000	5635.260000	105.660000	-24476.940000	-20947.770000	-5239.620000	1010.070000	8.434601	-7.537284	-1.232872	2.168250	2.474598	-1.192726	-4.917567	-0.465439	-7.980980	4.150720	-0.442540	0.774290	0.036072	0.596617	-1.000000	-1.000000	-1.000000	-1.000000	-1.000000	-1.000000	-1.000000	87.793103	0.000000	-1.000000	-1.000000	293522.000000	1772894298.776925
1377.945000	-11926.170000	5600.430000	67.770000	-24513.345000	-20971.845000	-5231.340000	1051.875000	5.772005	2.958007	6.148357	8.515390	8.491236	4.802294	-0.772838	-0.172726	-7.980980	4.150720	-0.442540	0.774290	0.036072	0.596617	-1.000000	-1.000000	-1.000000	-1.000000	-1.000000	-1.000000	-1.000000	87.793103	0.000000	-1.000000	-1.000000	293523.000000	1772894298.780895
1383.435000	-11965.230000	5554.935000	27.585000	-24547.410000	-20990.790000	-5210.505000	1109.970000	-1.742803	5.141986	5.170683	5.968640	6.385949	5.015163	1.664091	-0.686397	-7.980980	4.150720	-0.442540	0.774290	0.036072	0.596617	-1.000000	-1.000000	-1.000000	-1.000000	-1.000000	-1.000000	-1.000000	87.793103	0.000000	-1.000000	-1.000000	293524.000000	1772894298.780901
1334.475000	-11996.595000	5544.315000	19.305000	-24557.625000	-21003.030000	-5215.095000	1094.085000	-9.760264	-1.506343	-4.601628	-5.368629	-4.248313	-1.647348	2.819633	0.933183	-7.980980	4.150720	-0.442540	0.774290	0.036072	0.596617	-1.000000	-1.000000	-1.000000	-1.000000	-1.000000	-1.000000	-1.000000	87.793103	0.000000	-1.000000	-1.000000	293525.000000	1772894298.784946
1325.835000	-11970.765000	5586.165000	53.280000	-24529.770000	-20981.205000	-5210.685000	1094.625000	-14.039895	-9.567259	-14.466243	-16.411383	-15.304327	-9.583464	3.663242	4.302927	-7.980980	4.150720	-0.442540	0.774290	0.036072	0.596617	-1.000000	-1.000000	-1.000000	-1.000000	-1.000000	-1.000000	-1.000000	87.793103	0.000000	-1.000000	-1.000000	293526.000000	1772894298.784956
1337.805000	-11943.945000	5592.960000	51.570000	-24532.020000	-20982.825000	-5219.055000	1061.055000	-13.277850	-9.579262	-13.678435	-16.477696	-16.640804	-11.046637	4.324662	5.683752	-7.980980	4.150720	-0.442540	0.774290	0.036072	0.596617	-1.000000	-1.000000	-1.000000	-1.000000	-1.000000	-1.000000	-1.000000	87.793103	0.000000	-1.000000	-1.000000	293527.000000	1772894298.788992
1353.645000	-11961.630000	5565.510000	21.285000	-24561.135000	-21006.495000	-5227.380000	1056.105000	-7.908826	0.669741	-1.553647	-5.046409	-7.019045	-4.652636	3.662782	2.521309	-7.980980	4.150720	-0.442540	0.774290	0.036072	0.596617	-1.000000	-1.000000	-1.000000	-1.000000	-1.000000	-1.000000	-1.000000	87.793103	0.000000	-1.000000	-1.000000	293528.000000	1772894298.789000
1353.150000	-11967.930000	5564.835000	21.645000	-24559.200000	-21004.560000	-5224.185000	1068.120000	0.893144	12.851126	11.014309	7.249973	4.289004	2.733334	0.203800	-3.691021	-7.980980	4.150720	-0.442540	0.774290	0.036072	0.596617	-1.000000	-1.000000	-1.000000	-1.000000	-1.000000	-1.000000	-1.000000	87.793103	0.000000	-1.000000	-1.000000	293529.000000	1772894298.792908
1351.620000	-11955.960000	5581.710000	42.660000	-24539.130000	-20991.150000	-5226.840000	1068.750000	10.633226	16.882068	14.192597	11.275425	8.847840	4.892789	-4.933561	-7.813148	-7.980980	4.150720	-0.442540	0.774290	0.036072	0.596617	-1.000000	-1.000000	-1.000000	-1.000000	-1.000000	-1.000000	-1.000000	87.793103	0.000000	-1.000000	-1.000000	293530.000000	1772894298.792913
1365.795000	-11931.390000	5609.385000	72.765000	-24508.845000	-20962.800000	-5213.925000	1073.610000	17.809035	11.156099	9.107476	8.651307	7.914987	3.512294	-7.716378	-5.543845	-3.052000	4.654300	-0.213640	0.775877	0.030701	0.598143	-1.000000	-1.000000	-1.000000	-1.000000	-1.000000	-1.000000	-1.000000	87.793103	0.000000	-1.000000	-1.000000	293531.000000	1772894298.797047
1365.840000	-11926.935000	5620.320000	87.210000	-24492.870000	-20950.965000	-5209.695000	1069.470000	18.768385	2.212985	4.002562	7.025266	8.152731	4.255096	-5.518106	1.028968	-3.052000	4.654300	-0.213640	0.775877	0.030701	0.598143	-1.000000	-1.000000	-1.000000	-1.000000	-1.000000	-1.000000	-1.000000	87.793103	0.000000	-1.000000	-1.000000	293532.000000	1772894298.797055
1356.930000	-11932.605000	5617.620000	87.705000	-24493.140000	-20954.565000	-5223.195000	1055.655000	12.063093	-3.035845	4.017103	9.815374	11.989827	8.502208	-0.498650	4.640952	-3.052000	4.654300	-0.213640	0.775877	0.030701	0.598143	-1.000000	-1.000000	-1.000000	-1.000000	-1.000000	-1.000000	-1.000000	87.793103	0.000000	-1.000000	-1.000000	293533.000000	1772894298.801132
1354.680000	-11938.185000	5608.035000	78.255000	-24499.530000	-20955.870000	-5225.850000	1039.725000	1.456795	-2.840328	6.568310	12.854081	14.909207	11.911980	3.092217	1.554537	-3.052000	4.654300	-0.213640	0.775877	0.030701	0.598143	-1.000000	-1.000000	-1.000000	-1.000000	-1.000000	-1.000000	-1.000000	87.793103	0.000000	-1.000000	-1.000000	293534.000000	1772894298.801140
1325.475000	-11948.220000	5599.845000	70.110000	-24505.020000	-20956.230000	-5214.060000	1035.585000	-7.529419	-0.713822	5.447615	9.813441	11.131861	9.863184	3.777220	-4.430206	-3.052000	4.654300	-0.213640	0.775877	0.030701	0.598143	-1.000000	-1.000000	-1.000000	-1.000000	-1.000000	-1.000000	-1.000000	87.793103	0.000000	-1.000000	-1.000000	293535.000000	1772894298.805058
1305.450000	-11961.720000	5587.155000	58.545000	-24516.270000	-20966.040000	-5206.590000	1032.930000	-13.390292	-1.338545	-1.923595	-0.613101	0.083711	2.047302	3.258815	-6.990285	-3.052000	4.654300	-0.213640	0.775877	0.030701	0.598143	-1.000000	-1.000000	-1.000000	-1.000000	-1.000000	-1.000000	-1.000000	87.793103	0.000000	-1.000000	-1.000000	293536.000000	1772894298.805066
1321.020000	-11981.835000	5562.990000	32.310000	-24543.810000	-20991.375000	-5215.680000	1035.810000	-16.471339	-5.740507	-12.035896	-13.547100	-13.274607	-8.083045	2.921140	-3.469273	-3.052000	4.654300	-0.213640	0.775877	0.030701	0.598143	-1.000000	-1.000000	-1.000000	-1.000000	-1.000000	-1.000000	-1.000000	87.793103	0.000000	-1.000000	-1.000000	293537.000000	1772894298.809072
1361.565000	-11977.155000	5565.510000	33.030000	-24545.430000	-20990.520000	-5216.580000	1075.860000	-14.397810	-10.811825	-19.270158	-22.781279	-23.097403	-16.474433	2.089102	4.000611	-3.052000	4.654300	-0.213640	0.775877	0.030701	0.598143	-1.000000	-1.000000	-1.000000	-1.000000	-1.000000	-1.000000	-1.000000	87.793103	0.000000	-1.000000	-1.000000	293538.000000	1772894298.809080
1375.920000	-11961.270000	5581.935000	48.555000	-24531.570000	-20980.890000	-5222.925000	1101.645000	-4.772416	-12.480161	-19.712765	-24.286158	-25.436101	-19.747603	0.062870	12.072052	-3.052000	4.654300	-0.213640	0.775877	0.030701	0.598143	-1.000000	-1.000000	-1.000000	-1.000000	-1.000000	-1.000000	-1.000000	87.793103	0.000000	-1.000000	-1.000000	293539.000000	1772894298.813126
1352.430000	-11953.710000	5587.470000	52.695000	-24527.880000	-20980.485000	-5226.255000	1065.510000	8.401890	-8.630345	-12.363259	-16.937063	-18.793627	-15.966109	-2.576404	16.848583	-3.052000	4.654300	-0.213640	0.775877	0.030701	0.598143	-1.000000	-1.000000	-1.000000	-1.000000	-1.000000	-1.000000	-1.000000	87.793103	0.000000	-1.000000	-1.000000	293540.000000	1772894298.813134
1320.210000	-11962.890000	5579.820000	49.050000	-24526.395000	-20974.770000	-5214.420000	1043.595000	15.825227	-0.422620	0.080568	-3.397346	-5.353637	-6.280039	-4.610598	13.169781	1.571780	3.753960	-2.227960	0.778562	0.026794	0.599730	-1.000000	-1.000000	-1.000000	-1.000000	-1.000000	-1.000000	-1.000000	87.793103	0.000000	-1.000000	-1.000000	293541.000000	1772894298.817063
1310.310000	-11946.465000	5607.810000	81.405000	-24492.870000	-20941.110000	-5192.055000	1040.805000	12.448937	8.806802	12.609154	11.110975	9.916177	5.924475	-4.178396	0.504300	1.571780	3.753960	-2.227960	0.778562	0.026794	0.599730	-1.000000	-1.000000	-1.000000	-1.000000	-1.000000	-1.000000	-1.000000	87.793103	0.000000	-1.000000	-1.000000	293542.000000	1772894298.817071
1327.050000	-11935.980000	5624.775000	99.090000	-24477.165000	-20932.650000	-5187.915000	1051.200000	2.627436	15.714431	21.047748	21.975937	22.103063	16.857851	-0.238964	-13.396210	1.571780	3.753960	-2.227960	0.778562	0.026794	0.599730	-1.000000	-1.000000	-1.000000	-1.000000	-1.000000	-1.000000	-1.000000	87.793103	0.000000	-1.000000	-1.000000	293543.000000	1772894298.822404
1355.760000	-11942.190000	5609.880000	86.805000	-24492.780000	-20951.325000	-5212.215000	1047.195000	-4.723773	17.679554	22.796669	25.918630	27.085944	22.204667	4.592823	-19.389102	1.571780	3.753960	-2.227960	0.778562	0.026794	0.599730	-1.000000	-1.000000	-1.000000	-1.000000	-1.000000	-1.000000	-1.000000	87.793103	0.000000	-1.000000	-1.000000	293544.000000	1772894298.822412
1392.480000	-11938.950000	5585.580000	62.190000	-24516.945000	-20969.460000	-5215.320000	1080.630000	-3.882655	13.616128	16.592380	20.883174	22.175243	18.635641	5.749636	-14.430102	1.571780	3.753960	-2.227960	0.778562	0.026794	0.599730	-1.000000	-1.000000	-1.000000	-1.000000	-1.000000	-1.000000	-1.000000	87.793103	0.000000	-1.000000	-1.000000	293545.000000	1772894298.824873
1410.075000	-11951.595000	5565.825000	31.050000	-24547.365000	-20999.205000	-5223.420000	1096.335000	3.317916	5.077594	3.917220	7.697404	8.404084	6.954599	1.964988	-2.284523	1.571780	3.753960	-2.227960	0.778562	0.026794	0.599730	-1.000000	-1.000000	-1.000000	-1.000000	-1.000000	-1.000000	-1.000000	87.793103	0.000000	-1.000000	-1.000000	293546.000000	1772894298.824878
1408.815000	-11942.505000	5586.570000	48.735000	-24533.460000	-20988.270000	-5210.550000	1098.270000	9.272609	-4.857284	-10.309073	-8.831829	-8.745909	-7.696320	-3.412487	9.260725	1.571780	3.753960	-2.227960	0.778562	0.026794	0.599730	-1.000000	-1.000000	-1.000000	-1.000000	-1.000000	-1.000000	-1.000000	87.793103	0.000000	-1.000000	-1.000000	293547.000000	1772894298.829018
1391.130000	-11948.535000	5586.795000	55.710000	-24524.055000	-20977.785000	-5203.665000	1092.555000	7.419074	-13.182051	-19.777428	-21.301532	-21.445787	-18.276407	-5.893314	13.303985	1.571780	3.753960	-2.227960	0.778562	0.026794	0.599730	-1.000000	-1.000000	-1.000000	-1.000000	-1.000000	-1.000000	-1.000000	87.793103	0.000000	-1.000000	-1.000000	293548.000000	1772894298.829027
1385.235000	-11958.930000	5597.820000	67.320000	-24510.555000	-20966.670000	-5199.300000	1081.575000	-1.927532	-17.436108	-20.399521	-23.741767	-23.708499	-19.564299	-3.806085	8.866943	1.571780	3.753960	-2.227960	0.778562	0.026794	0.599730	-1.000000	-1.000000	-1.000000	-1.000000	-1.000000	-1.000000	-1.000000	87.793103	0.000000	-1.000000	-1.000000	293549.000000	1772894298.833041
1364.535000	-11978.685000	5585.760000	48.195000	-24528.960000	-20981.430000	-5210.775000	1061.955000	-12.188061	-16.379139	-12.741381	-15.931997	-15.589579	-11.953098	0.438294	0.390645	1.571780	3.753960	-2.227960	0.778562	0.026794	0.599730	-1.000000	-1.000000	-1.000000	-1.000000	-1.000000	-1.000000	-1.000000	87.793103	0.000000	-1.000000	-1.000000	293550.000000	1772894298.833050
1320.795000	-11967.480000	5583.645000	46.755000	-24532.875000	-20985.345000	-5215.590000	1066.950000	-17.359103	-10.674300	-1.901570	-3.838954	-3.437952	-1.421888	2.818927	-6.895448	3.082520	2.273740	-1.999060	0.773008	0.028809	0.606017	-1.000000	-1.000000	-1.000000	-1.000000	-1.000000	-1.000000	-1.000000	87.793103	0.000000	-1.000000	-1.000000	293551.000000	1772894298.836779
1332.810000	-11977.875000	5575.635000	44.505000	-24537.240000	-20995.245000	-5231.565000	1074.240000	-16.536522	-2.490343	6.030289	5.525630	5.591982	5.745805	1.532991	-9.657556	3.082520	2.273740	-1.999060	0.773008	0.028809	0.606017	-1.000000	-1.000000	-1.000000	-1.000000	-1.000000	-1.000000	-1.000000	87.793103	0.000000	-1.000000	-1.000000	293552.000000	1772894298.836788
1372.860000	-11973.915000	5585.580000	55.395000	-24527.160000	-20989.665000	-5234.445000	1050.255000	-10.818708	5.569065	8.963663	9.888872	9.456571	8.074193	-1.611797	-7.526071	3.082520	2.273740	-1.999060	0.773008	0.028809	0.606017	-1.000000	-1.000000	-1.000000	-1.000000	-1.000000	-1.000000	-1.000000	87.793103	0.000000	-1.000000	-1.000000	293553.000000	1772894298.840887
1338.750000	-11968.695000	5590.440000	60.795000	-24520.680000	-20983.770000	-5233.815000	1014.570000	-1.816476	11.494046	9.346214	11.571372	10.847517	8.322885	-3.311914	-4.001551	3.082520	2.273740	-1.999060	0.773008	0.028809	0.606017	-1.000000	-1.000000	-1.000000	-1.000000	-1.000000	-1.000000	-1.000000	87.793103	0.000000	-1.000000	-1.000000	293554.000000	1772894298.840906
1287.270000	-11962.395000	5590.035000	58.140000	-24522.390000	-20979.720000	-5220.180000	1007.325000	5.568464	14.193890	9.465563	12.535675	11.975555	8.971258	-1.715074	-3.317291	3.082520	2.273740	-1.999060	0.773008	0.028809	0.606017	-1.000000	-1.000000	-1.000000	-1.000000	-1.000000	-1.000000	-1.000000	87.793103	0.000000	-1.000000	-1.000000	293555.000000	1772894298.845020
1314.270000	-11966.670000	5583.195000	51.030000	-24527.250000	-20977.020000	-5202.495000	1045.305000	7.165899	12.916266	8.150204	11.218767	11.301767	9.172488	2.528296	-4.528304	3.082520	2.273740	-1.999060	0.773008	0.028809	0.606017	-1.000000	-1.000000	-1.000000	-1.000000	-1.000000	-1.000000	-1.000000	87.793103	0.000000	-1.000000	-1.000000	293556.000000	1772894298.845028
1340.775000	-11959.740000	5582.565000	45.990000	-24535.665000	-20986.875000	-5223.555000	1042.335000	6.143401	7.787852	3.403027	5.228584	6.067830	6.237375	6.595947	-2.293519	3.082520	2.273740	-1.999060	0.773008	0.028809	0.606017	-1.000000	-1.000000	-1.000000	-1.000000	-1.000000	-1.000000	-1.000000	87.793103	0.000000	-1.000000	-1.000000	293557.000000	1772894298.849057
1339.605000	-11979.720000	5561.685000	21.735000	-24562.395000	-21014.415000	-5254.065000	1065.195000	8.452947	0.913866	-3.853082	-4.390379	-3.399578	-0.824369	6.706075	5.840702	3.082520	2.273740	-1.999060	0.773008	0.028809	0.606017	-1.000000	-1.000000	-1.000000	-1.000000	-1.000000	-1.000000	-1.000000	87.793103	0.000000	-1.000000	-1.000000	293558.000000	1772894298.849075
1346.760000	-11996.055000	5538.465000	-2.340000	-24585.885000	-21036.465000	-5261.940000	1062.900000	14.507452	-5.174815	-10.575805	-13.528089	-13.302335	-9.870519	1.408863	16.225158	3.082520	2.273740	-1.999060	0.773008	0.028809	0.606017	-1.000000	-1.000000	-1.000000	-1.000000	-1.000000	-1.000000	-1.000000	87.793103	0.000000	-1.000000	-1.000000	293559.000000	1772894298.853056
1321.290000	-12002.085000	5536.980000	1.620000	-24579.090000	-21029.895000	-5254.335000	1051.830000	19.134629	-9.331308	-13.961600	-17.974433	-18.760377	-16.428112	-5.815610	21.818633	3.082520	2.273740	-1.999060	0.773008	0.028809	0.606017	-1.000000	-1.000000	-1.000000	-1.000000	-1.000000	-1.000000	-1.000000	87.793103	0.000000	-1.000000	-1.000000	293560.000000	1772894298.853064
1321.695000	-12006.810000	5539.680000	7.335000	-24573.690000	-21025.035000	-5246.730000	1063.800000	16.110717	-10.848550	-12.079225	-15.176878	-16.237922	-15.943090	-9.033282	17.692929	0.350980	1.724380	-2.289000	0.766111	0.040039	0.603575	-1.000000	-1.000000	-1.000000	-1.000000	-1.000000	-1.000000	-1.000000	87.793103	0.000000	-1.000000	-1.000000	293561.000000	1772894298.858208
1319.265000	-12020.940000	5535.810000	4.320000	-24576.030000	-21030.030000	-5249.565000	1067.625000	3.479777	-9.165509	-4.938296	-5.733121	-6.116357	-7.529952	-5.475931	5.932728	0.350980	1.724380	-2.289000	0.766111	0.040039	0.603575	-1.000000	-1.000000	-1.000000	-1.000000	-1.000000	-1.000000	-1.000000	87.793103	0.000000	-1.000000	-1.000000	293562.000000	1772894298.858218
1271.115000	-12020.490000	5546.655000	16.920000	-24562.080000	-21019.050000	-5257.620000	1038.375000	-13.341405	-5.061522	4.576364	6.265634	6.881757	4.578399	1.827720	-6.821402	0.350980	1.724380	-2.289000	0.766111	0.040039	0.603575	-1.000000	-1.000000	-1.000000	-1.000000	-1.000000	-1.000000	-1.000000	87.793103	0.000000	-1.000000	-1.000000	293563.000000	1772894298.861013
1253.115000	-12022.470000	5537.970000	4.410000	-24576.660000	-21035.925000	-5286.195000	1002.870000	-25.570255	-0.224984	12.151276	15.415059	16.587664	13.983577	6.695848	-16.389567	0.350980	1.724380	-2.289000	0.766111	0.040039	0.603575	-1.000000	-1.000000	-1.000000	-1.000000	-1.000000	-1.000000	-1.000000	87.793103	0.000000	-1.000000	-1.000000	293564.000000	1772894298.861034
1324.530000	-12029.310000	5514.795000	-23.895000	-24607.350000	-21064.095000	-5303.520000	1022.985000	-26.797053	3.822889	14.090669	17.285395	18.171867	15.634575	4.929939	-21.855368	0.350980	1.724380	-2.289000	0.766111	0.040039	0.603575	-1.000000	-1.000000	-1.000000	-1.000000	-1.000000	-1.000000	-1.000000	87.793103	0.000000	-1.000000	-1.000000	293565.000000	1772894298.864935
1323.855000	-12017.970000	5524.020000	-13.545000	-24596.955000	-21050.550000	-5290.020000	1022.130000	-15.556857	6.343759	9.562041	11.077301	11.010521	9.165695	-1.398158	-21.466250	0.350980	1.724380	-2.289000	0.766111	0.040039	0.603575	-1.000000	-1.000000	-1.000000	-1.000000	-1.000000	-1.000000	-1.000000	87.793103	0.000000	-1.000000	-1.000000	293566.000000	1772894298.864942
1274.985000	-12008.430000	5534.145000	-3.240000	-24586.110000	-21040.695000	-5284.260000	1011.555000	2.138560	7.987946	2.332551	1.684075	0.682590	0.383067	-5.361139	-13.882963	0.350980	1.724380	-2.289000	0.766111	0.040039	0.603575	-1.000000	-1.000000	-1.000000	-1.000000	-1.000000	-1.000000	-1.000000	87.793103	0.000000	-1.000000	-1.000000	293567.000000	1772894298.868884
1298.295000	-11995.245000	5541.255000	3.330000	-24579.000000	-21032.775000	-5269.230000	1022.445000	15.879227	9.585342	-2.169374	-4.167699	-5.462892	-3.900399	-2.573112	-1.639045	0.350980	1.724380	-2.289000	0.766111	0.040039	0.603575	-1.000000	-1.000000	-1.000000	-1.000000	-1.000000	-1.000000	-1.000000	87.793103	0.000000	-1.000000	-1.000000	293568.000000	1772894298.868900
1296.180000	-12004.920000	5539.590000	4.230000	-24577.875000	-21031.020000	-5262.120000	1008.945000	20.116500	10.104101	-2.195608	-4.376470	-5.249735	-2.398161	4.690279	10.310312	0.350980	1.724380	-2.289000	0.766111	0.040039	0.603575	-1.000000	-1.000000	-1.000000	-1.000000	-1.000000	-1.000000	-1.000000	87.793103	0.000000	-1.000000	-1.000000	293569.000000	1772894298.872848
1279.800000	-12013.380000	5538.645000	4.815000	-24578.280000	-21033.450000	-5267.655000	997.695000	15.635205	7.350385	-0.348100	-1.929422	-2.033075	1.055198	10.552677	17.101850	0.350980	1.724380	-2.289000	0.766111	0.040039	0.603575	-1.000000	-1.000000	-1.000000	-1.000000	-1.000000	-1.000000	-1.000000	87.793103	0.000000	-1.000000	-1.000000	293570.000000	1772894298.872912
1270.710000	-12023.550000	5522.850000	-12.105000	-24594.390000	-21048.480000	-5277.195000	1005.930000	5.689104	0.733321	-0.058902	-0.706625	-0.160444	2.153813	10.456490	16.552956	-5.310480	1.922760	0.000000	0.770994	0.047851	0.596190	-1.000000	-1.000000	-1.000000	-1.000000	-1.000000	-1.000000	-1.000000	87.793103	0.000000	-1.000000	-1.000000	293571.000000	1772894298.876947
1263.465000	-12016.440000	5524.605000	-11.430000	-24591.510000	-21043.440000	-5277.330000	1020.555000	-4.092952	-7.398314	-2.678406	-2.417107	-1.592549	-0.596879	4.240560	11.491497	-5.310480	1.922760	0.000000	0.770994	0.047851	0.596190	-1.000000	-1.000000	-1.000000	-1.000000	-1.000000	-1.000000	-1.000000	87.793103	0.000000	-1.000000	-1.000000	293572.000000	1772894298.876956
1278.765000	-12000.600000	5542.155000	8.100000	-24571.710000	-21021.840000	-5260.590000	1029.105000	-8.609594	-12.883749	-6.151338	-5.201125	-4.380672	-4.634866	-3.750729	6.640242	-5.310480	1.922760	0.000000	0.770994	0.047851	0.596190	-1.000000	-1.000000	-1.000000	-1.000000	-1.000000	-1.000000	-1.000000	87.793103	0.000000	-1.000000	-1.000000	293573.000000	1772894298.880784
1282.725000	-12016.305000	5536.395000	4.410000	-24574.725000	-21026.790000	-5267.925000	995.805000	-8.189215	-12.830162	-6.741927	-5.279678	-4.551653	-5.694829	-8.342045	2.859574	-5.310480	1.922760	0.000000	0.770994	0.047851	0.596190	-1.000000	-1.000000	-1.000000	-1.000000	-1.000000	-1.000000	-1.000000	87.793103	0.000000	-1.000000	-1.000000	293574.000000	1772894298.880793
1297.395000	-12019.590000	5538.465000	6.030000	-24573.870000	-21028.815000	-5275.215000	992.430000	-5.719158	-8.277868	-3.511135	-1.746138	-1.174963	-2.941572	-8.182611	-2.277635	-5.310480	1.922760	0.000000	0.770994	0.047851	0.596190	-1.000000	-1.000000	-1.000000	-1.000000	-1.000000	-1.000000	-1.000000	87.793103	0.000000	-1.000000	-1.000000	293575.000000	1772894298.884851
1307.250000	-12028.005000	5523.840000	-10.530000	-24592.680000	-21049.560000	-5290.965000	1027.035000	-1.594340	-2.786468	0.682882	2.229289	2.430025	0.219993	-5.968375	-8.297609	-5.310480	1.922760	0.000000	0.770994	0.047851	0.596190	-1.000000	-1.000000	-1.000000	-1.000000	-1.000000	-1.000000	-1.000000	87.793103	0.000000	-1.000000	-1.000000	293576.000000	1772894298.884860
1336.635000	-12025.395000	5520.465000	-12.780000	-24594.570000	-21048.570000	-5283.540000	1043.010000	4.198683	1.048582	2.615266	3.203563	2.753092	0.513405	-4.559208	-10.769406	-5.310480	1.922760	0.000000	0.770994	0.047851	0.596190	-1.000000	-1.000000	-1.000000	-1.000000	-1.000000	-1.000000	-1.000000	87.793103	0.000000	-1.000000	-1.000000	293577.000000	1772894298.888949
1312.245000	-11999.790000	5542.020000	7.695000	-24576.480000	-21032.100000	-5269.230000	1005.660000	8.820598	3.427156	1.915461	1.057999	-0.082781	-1.605876	-3.923276	-7.706315	-5.310480	1.922760	0.000000	0.770994	0.047851	0.596190	-1.000000	-1.000000	-1.000000	-1.000000	-1.000000	-1.000000	-1.000000	87.793103	0.000000	-1.000000	-1.000000	293578.000000	1772894298.888957
1304.820000	-11984.580000	5561.145000	25.290000	-24557.085000	-21011.985000	-5250.735000	1002.915000	8.502481	6.320974	1.235753	-0.936829	-2.397826	-2.538363	-1.747182	-2.635196	-5.310480	1.922760	0.000000	0.770994	0.047851	0.596190	-1.000000	-1.000000	-1.000000	-1.000000	-1.000000	-1.000000	-1.000000	87.793103	0.000000	-1.000000	-1.000000	293579.000000	1772894298.892954
