Channel1	Channel2	Channel3	Channel4	Channel5	Channel6	Channel7	Channel8	FilteredChannel1	FilteredChannel2	FilteredChannel3	FilteredChannel4	FilteredChannel5	FilteredChannel6	FilteredChannel7	FilteredChannel8	GyroX	GyroY	GyroZ	AccX	AccY	AccZ	PPG1	PPG2	rawPPG1	rawPPG2	rawPPG3	Hr	Hrv	Battery	Trigger	PhysicalTrigger	AutoTrigger	NumMeasurements	Timestamp
-8756.730000	12946.500000	17093.430000	31236.930000	6951.060000	-8863.470000	-18135.135000	-14859.540000	-8.381620	-22.206891	-15.558405	-7.329734	-5.186678	-1.480233	6.325157	-2.340522	-7.889420	4.471180	-1.022420	-0.929319	-0.101013	0.237304	-1.000000	-1.000000	-1.000000	-1.000000	-1.000000	-1.000000	-1.000000	78.965517	0.000000	-1.000000	-1.000000	1454398.000000	1769636720.372356
-8754.795000	12938.265000	17084.565000	31240.845000	6958.620000	-8841.690000	-18089.370000	-14852.655000	-12.378055	-30.388253	-23.264745	-12.502293	-9.157024	-3.492742	8.456585	-3.302814	-7.889420	4.471180	-1.022420	-0.929319	-0.101013	0.237304	-1.000000	-1.000000	-1.000000	-1.000000	-1.000000	-1.000000	-1.000000	78.965517	0.000000	-1.000000	-1.000000	1454399.000000	1769636720.376244
-8760.690000	12953.025000	17094.555000	31241.385000	6956.415000	-8851.590000	-18110.070000	-14863.140000	-12.097339	-28.315482	-22.866634	-12.828716	-9.401478	-2.312152	10.894288	-2.762529	-7.889420	4.471180	-1.022420	-0.929319	-0.101013	0.237304	-1.000000	-1.000000	-1.000000	-1.000000	-1.000000	-1.000000	-1.000000	78.965517	0.000000	-1.000000	-1.000000	1454400.000000	1769636720.376257
-8765.145000	12956.490000	17097.525000	31238.595000	6952.410000	-8856.810000	-18120.960000	-14866.965000	-7.830774	-15.670338	-13.794917	-8.272865	-6.190045	0.226358	10.650956	-1.576113	-7.889420	4.471180	-1.022420	-0.929319	-0.101013	0.237304	-1.000000	-1.000000	-1.000000	-1.000000	-1.000000	-1.000000	-1.000000	78.965517	0.000000	-1.000000	-1.000000	1454401.000000	1769636720.380352
-8761.410000	12959.370000	17097.795000	31236.840000	6948.810000	-8861.805000	-18123.840000	-14862.915000	-2.246522	1.908807	-0.301747	-1.688023	-1.926468	0.723358	4.276490	-1.098556	-7.889420	4.471180	-1.022420	-0.929319	-0.101013	0.237304	-1.000000	-1.000000	-1.000000	-1.000000	-1.000000	-1.000000	-1.000000	78.965517	0.000000	-1.000000	-1.000000	1454402.000000	1769636720.380363
-8763.255000	12953.070000	17090.235000	31227.750000	6937.875000	-8874.630000	-18128.025000	-14864.715000	2.417115	16.729911	11.524256	3.809976	1.323565	-1.438795	-6.288791	-1.293989	-7.889420	4.471180	-1.022420	-0.929319	-0.101013	0.237304	-1.000000	-1.000000	-1.000000	-1.000000	-1.000000	-1.000000	-1.000000	78.965517	0.000000	-1.000000	-1.000000	1454403.000000	1769636720.384259
-8764.380000	12949.740000	17085.780000	31223.655000	6933.195000	-8880.210000	-18131.040000	-14867.595000	5.473872	24.224171	17.721349	6.657354	2.862349	-4.163387	-14.844272	-1.240568	-7.889420	4.471180	-1.022420	-0.929319	-0.101013	0.237304	-1.000000	-1.000000	-1.000000	-1.000000	-1.000000	-1.000000	-1.000000	78.965517	0.000000	-1.000000	-1.000000	1454404.000000	1769636720.384270
-8757.090000	12969.405000	17104.230000	31239.945000	6948.585000	-8870.895000	-18132.570000	-14864.985000	7.543006	24.191255	18.153620	7.586387	3.782555	-4.388488	-16.272459	-0.173817	-7.889420	4.471180	-1.022420	-0.929319	-0.101013	0.237304	-1.000000	-1.000000	-1.000000	-1.000000	-1.000000	-1.000000	-1.000000	78.965517	0.000000	-1.000000	-1.000000	1454405.000000	1769636720.392672
-8748.090000	12989.700000	17124.660000	31258.845000	6970.455000	-8846.550000	-18123.705000	-14859.270000	9.336715	19.065090	15.146418	8.495060	5.984574	-0.232662	-10.231760	2.017227	-7.889420	4.471180	-1.022420	-0.929319	-0.101013	0.237304	-1.000000	-1.000000	-1.000000	-1.000000	-1.000000	-1.000000	-1.000000	78.965517	0.000000	-1.000000	-1.000000	1454406.000000	1769636720.392684
-8739.720000	12996.135000	17133.660000	31266.090000	6975.855000	-8840.835000	-18118.530000	-14854.545000	10.134100	11.820603	10.864653	9.619903	9.157444	6.247818	-1.410108	4.286562	-2.899400	4.486440	-1.526000	-0.935239	-0.107971	0.234802	-1.000000	-1.000000	-1.000000	-1.000000	-1.000000	-1.000000	-1.000000	78.965517	0.000000	-1.000000	-1.000000	1454407.000000	1769636720.392892
-8728.470000	13000.950000	17136.360000	31265.505000	6974.505000	-8842.860000	-18113.265000	-14843.655000	8.455122	4.039430	5.736326	8.738853	10.053668	9.929918	4.562343	5.197935	-2.899400	4.486440	-1.526000	-0.935239	-0.107971	0.234802	-1.000000	-1.000000	-1.000000	-1.000000	-1.000000	-1.000000	-1.000000	78.965517	0.000000	-1.000000	-1.000000	1454408.000000	1769636720.392902
-8733.195000	12984.435000	17114.490000	31250.205000	6962.220000	-8851.815000	-18122.805000	-14844.645000	3.977667	-4.525899	-1.160167	3.801783	5.993028	7.619977	5.929573	4.375234	-2.899400	4.486440	-1.526000	-0.935239	-0.107971	0.234802	-1.000000	-1.000000	-1.000000	-1.000000	-1.000000	-1.000000	-1.000000	78.965517	0.000000	-1.000000	-1.000000	1454409.000000	1769636720.400339
-8758.935000	12952.890000	17088.570000	31232.070000	6943.455000	-8870.445000	-18137.430000	-14860.395000	-2.557445	-14.234760	-10.272518	-4.646207	-2.315261	0.549261	4.426406	2.036958	-2.899400	4.486440	-1.526000	-0.935239	-0.107971	0.234802	-1.000000	-1.000000	-1.000000	-1.000000	-1.000000	-1.000000	-1.000000	78.965517	0.000000	-1.000000	-1.000000	1454410.000000	1769636720.400352
-8770.725000	12969.495000	17111.115000	31244.895000	6954.255000	-8860.860000	-18125.595000	-14872.680000	-9.958993	-22.793942	-18.928593	-13.022171	-10.961896	-7.146034	2.237280	-1.846872	-2.899400	4.486440	-1.526000	-0.935239	-0.107971	0.234802	-1.000000	-1.000000	-1.000000	-1.000000	-1.000000	-1.000000	-1.000000	78.965517	0.000000	-1.000000	-1.000000	1454411.000000	1769636720.400531
-8771.400000	12970.035000	17108.460000	31238.865000	6948.225000	-8862.120000	-18111.915000	-14872.230000	-15.622718	-24.822382	-21.475298	-16.394943	-14.964117	-10.787717	1.333180	-6.319946	-2.899400	4.486440	-1.526000	-0.935239	-0.107971	0.234802	-1.000000	-1.000000	-1.000000	-1.000000	-1.000000	-1.000000	-1.000000	78.965517	0.000000	-1.000000	-1.000000	1454412.000000	1769636720.400542
-8767.710000	12960.945000	17097.660000	31229.910000	6937.920000	-8880.165000	-18133.650000	-14870.340000	-15.958685	-17.120575	-14.968031	-12.576622	-12.102987	-8.422882	2.507250	-8.765385	-2.899400	4.486440	-1.526000	-0.935239	-0.107971	0.234802	-1.000000	-1.000000	-1.000000	-1.000000	-1.000000	-1.000000	-1.000000	78.965517	0.000000	-1.000000	-1.000000	1454413.000000	1769636720.404296
-8747.055000	12984.525000	17120.070000	31249.710000	6951.555000	-8892.990000	-18181.170000	-14864.535000	-9.361619	-3.105571	-2.893018	-4.053269	-4.688570	-2.767241	3.311186	-7.071184	-2.899400	4.486440	-1.526000	-0.935239	-0.107971	0.234802	-1.000000	-1.000000	-1.000000	-1.000000	-1.000000	-1.000000	-1.000000	78.965517	0.000000	-1.000000	-1.000000	1454414.000000	1769636720.404307
-8752.770000	12982.050000	17118.675000	31249.845000	6957.765000	-8879.580000	-18159.255000	-14864.805000	1.592468	10.364036	8.441670	4.657508	3.037423	1.647880	0.457915	-1.933905	-2.899400	4.486440	-1.526000	-0.935239	-0.107971	0.234802	-1.000000	-1.000000	-1.000000	-1.000000	-1.000000	-1.000000	-1.000000	78.965517	0.000000	-1.000000	-1.000000	1454415.000000	1769636720.409647
-8776.890000	12956.445000	17094.150000	31227.975000	6943.230000	-8862.570000	-18093.465000	-14873.355000	10.808668	17.519807	14.059847	9.552444	7.649924	3.138045	-4.132615	3.449656	-2.899400	4.486440	-1.526000	-0.935239	-0.107971	0.234802	-1.000000	-1.000000	-1.000000	-1.000000	-1.000000	-1.000000	-1.000000	78.965517	0.000000	-1.000000	-1.000000	1454416.000000	1769636720.409660
-8761.140000	12977.955000	17115.930000	31249.080000	6960.330000	-8845.065000	-18095.715000	-14872.680000	13.121068	16.118890	12.448260	9.056626	8.011045	3.667823	-4.473382	5.957004	1.831200	5.035800	-0.915600	-0.934019	-0.109436	0.236205	-1.000000	-1.000000	-1.000000	-1.000000	-1.000000	-1.000000	-1.000000	78.965517	0.000000	-1.000000	-1.000000	1454417.000000	1769636720.422011
-8710.515000	13025.205000	17158.680000	31287.150000	6989.850000	-8832.420000	-18127.260000	-14841.360000	9.770581	9.896530	7.503141	6.126171	6.367278	5.546797	0.630551	5.498302	1.831200	5.035800	-0.915600	-0.934019	-0.109436	0.236205	-1.000000	-1.000000	-1.000000	-1.000000	-1.000000	-1.000000	-1.000000	78.965517	0.000000	-1.000000	-1.000000	1454418.000000	1769636720.422023
-8727.795000	13001.085000	17133.705000	31263.345000	6966.360000	-8854.020000	-18122.265000	-14842.890000	6.408990	5.119435	4.617650	4.866598	5.598607	8.155855	5.789782	4.732463	1.831200	5.035800	-0.915600	-0.934019	-0.109436	0.236205	-1.000000	-1.000000	-1.000000	-1.000000	-1.000000	-1.000000	-1.000000	78.965517	0.000000	-1.000000	-1.000000	1454419.000000	1769636720.422038
-8750.070000	12980.295000	17116.560000	31247.145000	6948.495000	-8874.360000	-18132.795000	-14854.770000	4.857552	2.606372	3.443077	4.491524	4.738902	7.922180	6.116487	4.845948	1.831200	5.035800	-0.915600	-0.934019	-0.109436	0.236205	-1.000000	-1.000000	-1.000000	-1.000000	-1.000000	-1.000000	-1.000000	78.965517	0.000000	-1.000000	-1.000000	1454420.000000	1769636720.422043
-8750.880000	12992.040000	17133.435000	31263.930000	6963.705000	-8860.410000	-18129.825000	-14858.820000	2.132316	-0.916914	0.475671	1.913438	1.456428	2.835129	1.508806	3.978594	1.831200	5.035800	-0.915600	-0.934019	-0.109436	0.236205	-1.000000	-1.000000	-1.000000	-1.000000	-1.000000	-1.000000	-1.000000	78.965517	0.000000	-1.000000	-1.000000	1454421.000000	1769636720.422050
-8748.675000	12990.780000	17129.385000	31260.195000	6966.135000	-8853.075000	-18124.470000	-14858.055000	-3.218130	-5.761015	-4.084375	-2.447405	-3.053224	-3.829740	-3.872864	0.615568	1.831200	5.035800	-0.915600	-0.934019	-0.109436	0.236205	-1.000000	-1.000000	-1.000000	-1.000000	-1.000000	-1.000000	-1.000000	78.965517	0.000000	-1.000000	-1.000000	1454422.000000	1769636720.422054
-8754.660000	12977.640000	17112.105000	31242.780000	6952.410000	-8860.365000	-18125.775000	-14859.855000	-9.144289	-9.827709	-8.090633	-6.571578	-6.363042	-7.429844	-5.258215	-4.176289	1.831200	5.035800	-0.915600	-0.934019	-0.109436	0.236205	-1.000000	-1.000000	-1.000000	-1.000000	-1.000000	-1.000000	-1.000000	78.965517	0.000000	-1.000000	-1.000000	1454423.000000	1769636720.431753
-8760.240000	12969.135000	17101.305000	31232.475000	6944.355000	-8863.920000	-18126.045000	-14863.140000	-12.552396	-11.654856	-10.579039	-9.618216	-8.086710	-7.493299	-2.807283	-7.953181	1.831200	5.035800	-0.915600	-0.934019	-0.109436	0.236205	-1.000000	-1.000000	-1.000000	-1.000000	-1.000000	-1.000000	-1.000000	78.965517	0.000000	-1.000000	-1.000000	1454424.000000	1769636720.431767
-8757.765000	12976.875000	17111.205000	31243.005000	6953.940000	-8857.845000	-18127.890000	-14863.455000	-11.231305	-10.010367	-10.288392	-10.256484	-8.065537	-6.360953	-1.316831	-8.731629	1.831200	5.035800	-0.915600	-0.934019	-0.109436	0.236205	-1.000000	-1.000000	-1.000000	-1.000000	-1.000000	-1.000000	-1.000000	78.965517	0.000000	-1.000000	-1.000000	1454425.000000	1769636720.431781
-8753.985000	12976.740000	17113.905000	31248.765000	6962.400000	-8849.880000	-18127.350000	-14859.090000	-5.696841	-4.936272	-6.314262	-7.146272	-5.533463	-5.105241	-2.942391	-6.210365	1.831200	5.035800	-0.915600	-0.934019	-0.109436	0.236205	-1.000000	-1.000000	-1.000000	-1.000000	-1.000000	-1.000000	-1.000000	78.965517	0.000000	-1.000000	-1.000000	1454426.000000	1769636720.431787
-8749.080000	12978.540000	17116.380000	31249.305000	6961.995000	-8853.165000	-18130.680000	-14858.640000	0.769261	1.060281	-0.242507	-1.373533	-0.967735	-3.025029	-4.356645	-1.993132	-1.632820	7.874160	-2.166920	-0.930418	-0.103149	0.236266	-1.000000	-1.000000	-1.000000	-1.000000	-1.000000	-1.000000	-1.000000	78.965517	0.000000	-1.000000	-1.000000	1454427.000000	1769636720.435611
-8737.920000	13000.050000	17136.675000	31264.335000	6974.955000	-8842.410000	-18123.930000	-14853.105000	5.751272	5.996466	5.770889	4.863163	4.233703	0.744570	-2.244734	2.026303	-1.632820	7.874160	-2.166920	-0.930418	-0.103149	0.236266	-1.000000	-1.000000	-1.000000	-1.000000	-1.000000	-1.000000	-1.000000	78.965517	0.000000	-1.000000	-1.000000	1454428.000000	1769636720.435626
-8746.335000	12999.060000	17133.705000	31260.645000	6969.330000	-8845.920000	-18120.555000	-14857.020000	9.224626	10.008147	10.739425	10.080794	8.782244	5.785492	2.655075	5.096913	-1.632820	7.874160	-2.166920	-0.930418	-0.103149	0.236266	-1.000000	-1.000000	-1.000000	-1.000000	-1.000000	-1.000000	-1.000000	78.965517	0.000000	-1.000000	-1.000000	1454429.000000	1769636720.436417
-8753.220000	12984.345000	17117.415000	31247.820000	6955.065000	-8860.500000	-18128.655000	-14860.305000	10.613882	12.080884	12.761799	12.177714	10.466226	9.396953	7.151399	6.735149	-1.632820	7.874160	-2.166920	-0.930418	-0.103149	0.236266	-1.000000	-1.000000	-1.000000	-1.000000	-1.000000	-1.000000	-1.000000	78.965517	0.000000	-1.000000	-1.000000	1454430.000000	1769636720.436427
-8742.015000	12984.840000	17124.210000	31259.745000	6966.855000	-8849.745000	-18119.925000	-14851.440000	8.455168	9.690509	9.601224	9.288103	7.371379	8.611117	8.612229	6.264808	-1.632820	7.874160	-2.166920	-0.930418	-0.103149	0.236266	-1.000000	-1.000000	-1.000000	-1.000000	-1.000000	-1.000000	-1.000000	78.965517	0.000000	-1.000000	-1.000000	1454431.000000	1769636720.440282
-8754.255000	12971.970000	17108.865000	31240.080000	6944.670000	-8874.090000	-18133.020000	-14857.290000	3.217672	2.918668	2.381215	2.759971	0.834608	3.474764	6.349595	3.851343	-1.632820	7.874160	-2.166920	-0.930418	-0.103149	0.236266	-1.000000	-1.000000	-1.000000	-1.000000	-1.000000	-1.000000	-1.000000	78.965517	0.000000	-1.000000	-1.000000	1454432.000000	1769636720.440295
-8761.680000	12979.260000	17108.370000	31228.470000	6933.735000	-8883.990000	-18143.595000	-14864.040000	-2.709677	-4.610463	-4.928421	-4.080928	-5.781037	-3.578066	0.845761	0.471802	-1.632820	7.874160	-2.166920	-0.930418	-0.103149	0.236266	-1.000000	-1.000000	-1.000000	-1.000000	-1.000000	-1.000000	-1.000000	78.965517	0.000000	-1.000000	-1.000000	1454433.000000	1769636720.444342
-8750.115000	13006.485000	17132.670000	31246.830000	6949.215000	-8874.225000	-18161.685000	-14864.265000	-6.974028	-8.732799	-8.871974	-8.672633	-9.762181	-9.501255	-6.308875	-2.819403	-1.632820	7.874160	-2.166920	-0.930418	-0.103149	0.236266	-1.000000	-1.000000	-1.000000	-1.000000	-1.000000	-1.000000	-1.000000	78.965517	0.000000	-1.000000	-1.000000	1454434.000000	1769636720.444351
-8753.130000	12983.940000	17117.595000	31251.330000	6959.565000	-8864.865000	-18159.480000	-14862.015000	-8.310370	-7.985918	-8.388982	-9.505417	-9.455117	-11.125969	-11.591569	-5.071749	-1.632820	7.874160	-2.166920	-0.930418	-0.103149	0.236266	-1.000000	-1.000000	-1.000000	-1.000000	-1.000000	-1.000000	-1.000000	78.965517	0.000000	-1.000000	-1.000000	1454435.000000	1769636720.448329
-8766.045000	12963.510000	17099.595000	31237.290000	6952.095000	-8859.330000	-18128.745000	-14865.435000	-7.048745	-4.912568	-5.416371	-6.653975	-4.936170	-6.915467	-11.035103	-5.597987	-1.632820	7.874160	-2.166920	-0.930418	-0.103149	0.236266	-1.000000	-1.000000	-1.000000	-1.000000	-1.000000	-1.000000	-1.000000	78.965517	0.000000	-1.000000	-1.000000	1454436.000000	1769636720.448340
-8760.780000	13002.840000	17127.540000	31238.055000	6946.875000	-8860.320000	-18120.645000	-14867.100000	-4.338634	-2.513304	-2.559160	-2.198782	1.243481	1.179975	-3.624881	-4.249025	-5.936140	7.141680	-1.495480	-0.936643	-0.098449	0.234496	-1.000000	-1.000000	-1.000000	-1.000000	-1.000000	-1.000000	-1.000000	78.965517	0.000000	-1.000000	-1.000000	1454437.000000	1769636720.452252
-8748.270000	12998.385000	17126.100000	31245.570000	6948.135000	-8862.255000	-18120.735000	-14859.405000	-0.586985	-0.372552	0.046393	1.774525	5.847042	8.715033	6.793990	-1.384372	-5.936140	7.141680	-1.495480	-0.936643	-0.098449	0.234496	-1.000000	-1.000000	-1.000000	-1.000000	-1.000000	-1.000000	-1.000000	78.965517	0.000000	-1.000000	-1.000000	1454438.000000	1769636720.452259
-8751.690000	12940.020000	17091.360000	31251.105000	6960.780000	-8846.280000	-18098.865000	-14851.575000	3.872411	1.947965	2.710351	4.674494	7.513922	12.086023	14.292750	2.233564	-5.936140	7.141680	-1.495480	-0.936643	-0.098449	0.234496	-1.000000	-1.000000	-1.000000	-1.000000	-1.000000	-1.000000	-1.000000	78.965517	0.000000	-1.000000	-1.000000	1454439.000000	1769636720.456230
-8760.555000	12946.320000	17091.810000	31243.230000	6955.920000	-8839.755000	-18069.390000	-14854.995000	7.099782	2.223860	3.811653	6.249968	6.738605	10.703991	15.772841	5.188511	-5.936140	7.141680	-1.495480	-0.936643	-0.098449	0.234496	-1.000000	-1.000000	-1.000000	-1.000000	-1.000000	-1.000000	-1.000000	78.965517	0.000000	-1.000000	-1.000000	1454440.000000	1769636720.456243
-8770.185000	12952.440000	17089.515000	31230.495000	6940.530000	-8861.670000	-18105.705000	-14867.415000	6.998844	0.328622	2.765640	5.934813	4.372738	6.015421	11.404292	5.801985	-5.936140	7.141680	-1.495480	-0.936643	-0.098449	0.234496	-1.000000	-1.000000	-1.000000	-1.000000	-1.000000	-1.000000	-1.000000	78.965517	0.000000	-1.000000	-1.000000	1454441.000000	1769636720.460265
-8757.180000	12970.575000	17103.150000	31239.765000	6946.695000	-8869.680000	-18150.570000	-14862.690000	3.884845	-0.671532	1.312160	3.725908	1.094201	-0.475104	1.832709	3.624653	-5.936140	7.141680	-1.495480	-0.936643	-0.098449	0.234496	-1.000000	-1.000000	-1.000000	-1.000000	-1.000000	-1.000000	-1.000000	78.965517	0.000000	-1.000000	-1.000000	1454442.000000	1769636720.460273
-8748.630000	12992.310000	17125.695000	31258.710000	6964.290000	-8854.290000	-18138.465000	-14860.980000	0.023199	0.980095	0.963829	0.559833	-2.249931	-7.103264	-10.476713	0.058920	-5.936140	7.141680	-1.495480	-0.936643	-0.098449	0.234496	-1.000000	-1.000000	-1.000000	-1.000000	-1.000000	-1.000000	-1.000000	78.965517	0.000000	-1.000000	-1.000000	1454443.000000	1769636720.464308
-8748.765000	13001.985000	17135.055000	31266.225000	6972.120000	-8841.105000	-18109.035000	-14858.235000	-2.477884	4.800903	2.295293	-1.943732	-4.356826	-11.071167	-19.064154	-2.875475	-5.936140	7.141680	-1.495480	-0.936643	-0.098449	0.234496	-1.000000	-1.000000	-1.000000	-1.000000	-1.000000	-1.000000	-1.000000	78.965517	0.000000	-1.000000	-1.000000	1454444.000000	1769636720.464314
-8728.695000	13029.840000	17149.590000	31270.410000	6971.670000	-8852.715000	-18139.320000	-14848.380000	-2.566326	9.085192	4.823081	-2.428887	-4.181784	-10.280935	-18.865984	-3.765292	-5.936140	7.141680	-1.495480	-0.936643	-0.098449	0.234496	-1.000000	-1.000000	-1.000000	-1.000000	-1.000000	-1.000000	-1.000000	78.965517	0.000000	-1.000000	-1.000000	1454445.000000	1769636720.468347
-8735.895000	12998.835000	17129.250000	31258.350000	6960.735000	-8865.585000	-18151.380000	-14852.205000	-0.638475	10.322547	5.927573	-1.369430	-2.243276	-5.870365	-11.779238	-2.389777	-5.936140	7.141680	-1.495480	-0.936643	-0.098449	0.234496	-1.000000	-1.000000	-1.000000	-1.000000	-1.000000	-1.000000	-1.000000	78.965517	0.000000	-1.000000	-1.000000	1454446.000000	1769636720.468359
-8757.180000	12983.940000	17113.725000	31241.475000	6940.260000	-8882.595000	-18154.845000	-14866.560000	0.888910	5.400012	2.806539	-1.051155	-0.710629	-1.183297	-3.072651	-0.337636	-4.059160	7.340060	-3.143560	-0.937253	-0.101745	0.238586	-1.000000	-1.000000	-1.000000	-1.000000	-1.000000	-1.000000	-1.000000	78.965517	0.000000	-1.000000	-1.000000	1454447.000000	1769636720.474085
-8753.895000	13009.095000	17131.185000	31246.425000	6943.455000	-8876.565000	-18144.000000	-14866.245000	-0.334333	-3.272957	-3.275680	-2.867124	-1.392339	1.234226	3.809616	0.144442	-4.059160	7.340060	-3.143560	-0.937253	-0.101745	0.238586	-1.000000	-1.000000	-1.000000	-1.000000	-1.000000	-1.000000	-1.000000	78.965517	0.000000	-1.000000	-1.000000	1454448.000000	1769636720.474098
-8752.365000	12961.935000	17100.945000	31241.610000	6946.065000	-8876.790000	-18151.605000	-14857.875000	-3.224716	-9.869315	-7.977778	-5.084386	-3.174666	1.639219	7.779588	-0.965399	-4.059160	7.340060	-3.143560	-0.937253	-0.101745	0.238586	-1.000000	-1.000000	-1.000000	-1.000000	-1.000000	-1.000000	-1.000000	78.965517	0.000000	-1.000000	-1.000000	1454449.000000	1769636720.476326
-8761.410000	12917.970000	17069.265000	31237.695000	6949.080000	-8875.665000	-18164.250000	-14859.810000	-4.674105	-13.099599	-9.631370	-4.857462	-2.950529	2.393529	9.566263	-1.431289	-4.059160	7.340060	-3.143560	-0.937253	-0.101745	0.238586	-1.000000	-1.000000	-1.000000	-1.000000	-1.000000	-1.000000	-1.000000	78.965517	0.000000	-1.000000	-1.000000	1454450.000000	1769636720.476336
-8754.795000	12951.990000	17100.225000	31253.940000	6966.315000	-8850.285000	-18125.460000	-14856.570000	-3.671851	-14.942938	-9.538963	-1.797890	0.334454	4.947184	11.194572	-0.072567	-4.059160	7.340060	-3.143560	-0.937253	-0.101745	0.238586	-1.000000	-1.000000	-1.000000	-1.000000	-1.000000	-1.000000	-1.000000	78.965517	0.000000	-1.000000	-1.000000	1454451.000000	1769636720.481010
-8758.620000	12958.695000	17099.595000	31241.880000	6953.175000	-8855.010000	-18097.785000	-14853.600000	-1.487928	-13.885157	-7.644243	1.831027	4.217439	7.916855	13.616484	1.986190	-4.059160	7.340060	-3.143560	-0.937253	-0.101745	0.238586	-1.000000	-1.000000	-1.000000	-1.000000	-1.000000	-1.000000	-1.000000	78.965517	0.000000	-1.000000	-1.000000	1454452.000000	1769636720.481019
-8777.880000	12932.865000	17068.320000	31208.355000	6918.120000	-8889.345000	-18109.665000	-14863.365000	0.323655	-7.561127	-3.478663	3.150400	4.965464	7.848764	14.254875	2.972572	-4.059160	7.340060	-3.143560	-0.937253	-0.101745	0.238586	-1.000000	-1.000000	-1.000000	-1.000000	-1.000000	-1.000000	-1.000000	78.965517	0.000000	-1.000000	-1.000000	1454453.000000	1769636720.484365
-8768.880000	12950.505000	17086.905000	31226.175000	6934.095000	-8884.755000	-18145.935000	-14867.640000	0.794301	1.840472	1.319100	1.264984	1.424764	2.885957	9.133480	1.854813	-4.059160	7.340060	-3.143560	-0.937253	-0.101745	0.238586	-1.000000	-1.000000	-1.000000	-1.000000	-1.000000	-1.000000	-1.000000	78.965517	0.000000	-1.000000	-1.000000	1454454.000000	1769636720.484375
-8765.055000	12951.045000	17083.935000	31225.095000	6940.935000	-8858.745000	-18110.565000	-14858.145000	0.649090	10.700330	5.616140	-1.047567	-2.772834	-3.599018	-1.473835	-0.615188	-4.059160	7.340060	-3.143560	-0.937253	-0.101745	0.238586	-1.000000	-1.000000	-1.000000	-1.000000	-1.000000	-1.000000	-1.000000	78.965517	0.000000	-1.000000	-1.000000	1454455.000000	1769636720.498928
-8764.605000	12947.130000	17080.875000	31221.540000	6935.085000	-8866.980000	-18103.230000	-14857.695000	1.753956	17.118880	9.570034	-0.495442	-3.165991	-6.182365	-11.816153	-2.143392	-4.059160	7.340060	-3.143560	-0.937253	-0.101745	0.238586	-1.000000	-1.000000	-1.000000	-1.000000	-1.000000	-1.000000	-1.000000	78.965517	0.000000	-1.000000	-1.000000	1454456.000000	1769636720.498940
-8759.610000	12959.775000	17094.960000	31233.240000	6944.085000	-8863.020000	-18119.205000	-14854.140000	4.328338	19.289768	12.194486	2.797053	0.347516	-3.934014	-16.713500	-1.435151	0.900340	9.033920	-4.379620	-0.934995	-0.106201	0.237609	-1.000000	-1.000000	-1.000000	-1.000000	-1.000000	-1.000000	-1.000000	78.965517	0.000000	-1.000000	-1.000000	1454457.000000	1769636720.498953
-8802.360000	12937.275000	17076.330000	31216.725000	6933.915000	-8855.190000	-18063.765000	-14877.990000	6.000525	16.291190	12.131564	6.236243	4.452457	0.015294	-14.793372	0.243698	0.900340	9.033920	-4.379620	-0.934995	-0.106201	0.237609	-1.000000	-1.000000	-1.000000	-1.000000	-1.000000	-1.000000	-1.000000	78.965517	0.000000	-1.000000	-1.000000	1454458.000000	1769636720.498958
-8743.995000	13004.325000	17140.455000	31274.820000	6976.665000	-8855.010000	-18118.395000	-14860.800000	4.759353	9.998852	9.666891	7.749511	6.358767	2.746069	-7.189441	0.876501	0.900340	9.033920	-4.379620	-0.934995	-0.106201	0.237609	-1.000000	-1.000000	-1.000000	-1.000000	-1.000000	-1.000000	-1.000000	78.965517	0.000000	-1.000000	-1.000000	1454459.000000	1769636720.498964
-8702.460000	13043.610000	17177.400000	31308.255000	7004.655000	-8845.920000	-18179.865000	-14838.120000	2.649556	3.721764	6.448342	7.589319	5.966074	2.649538	-0.069284	0.582458	0.900340	9.033920	-4.379620	-0.934995	-0.106201	0.237609	-1.000000	-1.000000	-1.000000	-1.000000	-1.000000	-1.000000	-1.000000	78.965517	0.000000	-1.000000	-1.000000	1454460.000000	1769636720.498968
-8747.730000	12990.105000	17123.040000	31253.625000	6954.210000	-8873.910000	-18161.415000	-14849.460000	2.427987	-1.561026	2.744943	6.227941	4.167805	-0.267823	-0.673839	0.877959	0.900340	9.033920	-4.379620	-0.934995	-0.106201	0.237609	-1.000000	-1.000000	-1.000000	-1.000000	-1.000000	-1.000000	-1.000000	78.965517	0.000000	-1.000000	-1.000000	1454461.000000	1769636720.500363
-8757.540000	12987.360000	17129.430000	31261.410000	6964.785000	-8858.655000	-18132.705000	-14864.265000	2.015276	-8.041494	-3.342305	2.106858	0.630194	-3.767955	-5.922239	1.509921	0.900340	9.033920	-4.379620	-0.934995	-0.106201	0.237609	-1.000000	-1.000000	-1.000000	-1.000000	-1.000000	-1.000000	-1.000000	78.965517	0.000000	-1.000000	-1.000000	1454462.000000	1769636720.500374
-8693.910000	13042.035000	17171.730000	31293.585000	7004.205000	-8825.175000	-18130.815000	-14826.915000	-0.951498	-15.287737	-10.997563	-4.565663	-3.794258	-4.521075	-5.677795	1.370486	0.900340	9.033920	-4.379620	-0.934995	-0.106201	0.237609	-1.000000	-1.000000	-1.000000	-1.000000	-1.000000	-1.000000	-1.000000	78.965517	0.000000	-1.000000	-1.000000	1454463.000000	1769636720.504534
-8731.395000	13010.445000	17126.910000	31240.305000	6962.085000	-8850.420000	-18132.570000	-14842.395000	-4.262727	-18.300512	-15.687137	-10.454799	-6.582328	-1.567458	2.776503	0.854183	0.900340	9.033920	-4.379620	-0.934995	-0.106201	0.237609	-1.000000	-1.000000	-1.000000	-1.000000	-1.000000	-1.000000	-1.000000	78.965517	0.000000	-1.000000	-1.000000	1454464.000000	1769636720.504546
-8774.955000	12969.405000	17086.635000	31202.010000	6921.900000	-8882.640000	-18145.350000	-14868.945000	-6.609816	-15.347919	-15.932842	-14.164142	-7.940743	1.583611	12.385330	-0.117350	0.900340	9.033920	-4.379620	-0.934995	-0.106201	0.237609	-1.000000	-1.000000	-1.000000	-1.000000	-1.000000	-1.000000	-1.000000	78.965517	0.000000	-1.000000	-1.000000	1454465.000000	1769636720.508427
-8779.725000	12943.575000	17069.760000	31200.390000	6913.620000	-8889.840000	-18140.805000	-14868.090000	-9.326593	-10.365575	-14.182026	-16.092367	-9.868144	0.892978	15.781510	-2.531213	0.900340	9.033920	-4.379620	-0.934995	-0.106201	0.237609	-1.000000	-1.000000	-1.000000	-1.000000	-1.000000	-1.000000	-1.000000	78.965517	0.000000	-1.000000	-1.000000	1454466.000000	1769636720.508436
-8786.655000	12931.650000	17073.405000	31222.035000	6929.190000	-8873.370000	-18106.290000	-14868.495000	-11.136509	-6.295542	-11.059511	-14.279730	-11.133164	-2.891367	11.943806	-5.157007	3.540320	4.028640	-5.279960	-0.944883	-0.107177	0.229064	-1.000000	-1.000000	-1.000000	-1.000000	-1.000000	-1.000000	-1.000000	78.965517	0.000000	-1.000000	-1.000000	1454467.000000	1769636720.515485
-8767.305000	12951.360000	17087.220000	31229.415000	6937.335000	-8870.580000	-18111.420000	-14855.895000	-9.619714	-3.254280	-5.778653	-7.172777	-8.827555	-5.397119	5.804940	-5.533238	3.540320	4.028640	-5.279960	-0.944883	-0.107177	0.229064	-1.000000	-1.000000	-1.000000	-1.000000	-1.000000	-1.000000	-1.000000	78.965517	0.000000	-1.000000	-1.000000	1454468.000000	1769636720.515494
-8808.120000	12907.440000	17038.080000	31174.560000	6898.005000	-8882.955000	-18076.905000	-14875.695000	-5.342201	-0.856376	0.418373	2.122553	-3.019359	-3.943289	2.683646	-3.477173	3.540320	4.028640	-5.279960	-0.944883	-0.107177	0.229064	-1.000000	-1.000000	-1.000000	-1.000000	-1.000000	-1.000000	-1.000000	78.965517	0.000000	-1.000000	-1.000000	1454469.000000	1769636720.516438
-8761.410000	12966.030000	17104.410000	31239.180000	6955.785000	-8865.270000	-18165.015000	-14869.305000	0.723628	2.942138	6.873813	10.063146	4.780431	0.922696	1.619765	-0.484440	3.540320	4.028640	-5.279960	-0.944883	-0.107177	0.229064	-1.000000	-1.000000	-1.000000	-1.000000	-1.000000	-1.000000	-1.000000	78.965517	0.000000	-1.000000	-1.000000	1454470.000000	1769636720.516448
-8710.020000	13033.575000	17167.950000	31295.115000	7002.180000	-8843.895000	-18198.135000	-14842.035000	9.346271	11.424139	15.487688	17.237998	14.171323	7.026958	-3.807811	2.856650	3.540320	4.028640	-5.279960	-0.944883	-0.107177	0.229064	-1.000000	-1.000000	-1.000000	-1.000000	-1.000000	-1.000000	-1.000000	78.965517	0.000000	-1.000000	-1.000000	1454471.000000	1769636720.520326
-8737.290000	13006.845000	17134.830000	31255.785000	6967.035000	-8854.290000	-18124.155000	-14848.380000	18.311549	22.657884	24.768561	23.161501	22.076404	10.945789	-14.243523	6.112421	3.540320	4.028640	-5.279960	-0.944883	-0.107177	0.229064	-1.000000	-1.000000	-1.000000	-1.000000	-1.000000	-1.000000	-1.000000	78.965517	0.000000	-1.000000	-1.000000	1454472.000000	1769636720.520338
-8764.830000	12960.315000	17083.080000	31165.830000	6913.035000	-8861.535000	-18087.885000	-14860.260000	21.198253	27.751899	27.195648	22.026706	21.906140	9.971894	-19.718978	7.565944	3.540320	4.028640	-5.279960	-0.944883	-0.107177	0.229064	-1.000000	-1.000000	-1.000000	-1.000000	-1.000000	-1.000000	-1.000000	78.965517	0.000000	-1.000000	-1.000000	1454473.000000	1769636720.524417
-8736.255000	12977.415000	17094.510000	31143.195000	6896.970000	-8879.220000	-18151.020000	-14845.860000	15.225906	20.595712	17.816806	9.429214	10.868813	4.811528	-13.074124	6.334746	3.540320	4.028640	-5.279960	-0.944883	-0.107177	0.229064	-1.000000	-1.000000	-1.000000	-1.000000	-1.000000	-1.000000	-1.000000	78.965517	0.000000	-1.000000	-1.000000	1454474.000000	1769636720.524428
-8741.340000	12985.920000	17097.300000	31137.705000	6891.525000	-8876.340000	-18150.210000	-14849.955000	4.742875	5.397801	1.071887	-10.080566	-5.882745	-1.781648	-0.507750	3.613478	3.540320	4.028640	-5.279960	-0.944883	-0.107177	0.229064	-1.000000	-1.000000	-1.000000	-1.000000	-1.000000	-1.000000	-1.000000	78.965517	0.000000	-1.000000	-1.000000	1454475.000000	1769636720.528449
-8714.790000	13027.455000	17129.160000	31195.125000	6931.620000	-8846.145000	-18153.945000	-14840.100000	-4.749586	-8.664371	-13.999277	-25.277969	-19.306570	-7.017686	7.672544	0.583590	3.540320	4.028640	-5.279960	-0.944883	-0.107177	0.229064	-1.000000	-1.000000	-1.000000	-1.000000	-1.000000	-1.000000	-1.000000	78.965517	0.000000	-1.000000	-1.000000	1454476.000000	1769636720.528457
-8699.625000	13052.475000	17139.780000	31248.720000	6947.865000	-8855.415000	-18143.145000	-14822.145000	-10.611924	-15.667651	-21.082526	-25.997711	-22.213810	-8.606990	8.672027	-2.225509	5.402040	-2.365300	-6.241340	-0.952695	-0.105407	0.222167	-1.000000	-1.000000	-1.000000	-1.000000	-1.000000	-1.000000	-1.000000	78.965517	0.000000	-1.000000	-1.000000	1454477.000000	1769636720.542634
-8774.820000	13002.435000	17090.640000	31214.835000	6895.350000	-8910.270000	-18137.880000	-14868.000000	-12.816142	-15.347601	-19.214781	-10.689613	-13.958139	-6.953072	6.189567	-4.365860	5.402040	-2.365300	-6.241340	-0.952695	-0.105407	0.222167	-1.000000	-1.000000	-1.000000	-1.000000	-1.000000	-1.000000	-1.000000	78.965517	0.000000	-1.000000	-1.000000	1454478.000000	1769636720.542648
-8788.320000	12984.930000	17097.480000	31241.655000	6924.555000	-8889.300000	-18135.945000	-14878.845000	-14.422001	-13.080744	-13.377430	9.638458	-1.996952	-5.247762	5.111736	-6.487542	5.402040	-2.365300	-6.241340	-0.952695	-0.105407	0.222167	-1.000000	-1.000000	-1.000000	-1.000000	-1.000000	-1.000000	-1.000000	78.965517	0.000000	-1.000000	-1.000000	1454479.000000	1769636720.542663
-8776.080000	12958.965000	17102.025000	31242.780000	6943.590000	-8872.020000	-18124.245000	-14871.420000	-17.627355	-14.990643	-9.634957	20.179835	5.452568	-4.684455	7.252537	-9.183932	5.402040	-2.365300	-6.241340	-0.952695	-0.105407	0.222167	-1.000000	-1.000000	-1.000000	-1.000000	-1.000000	-1.000000	-1.000000	78.965517	0.000000	-1.000000	-1.000000	1454480.000000	1769636720.542669
-8765.730000	12959.775000	17081.145000	31172.130000	6918.480000	-8873.280000	-18115.920000	-14863.905000	-17.909014	-19.073918	-7.493610	16.136240	7.539544	-2.840131	8.635649	-10.164377	5.402040	-2.365300	-6.241340	-0.952695	-0.105407	0.222167	-1.000000	-1.000000	-1.000000	-1.000000	-1.000000	-1.000000	-1.000000	78.965517	0.000000	-1.000000	-1.000000	1454481.000000	1769636720.542675
-8758.350000	12930.435000	17070.480000	31187.835000	6928.920000	-8872.020000	-18124.830000	-14856.480000	-8.885802	-16.794530	-2.202534	4.327454	8.292126	2.122791	4.519564	-6.139187	5.402040	-2.365300	-6.241340	-0.952695	-0.105407	0.222167	-1.000000	-1.000000	-1.000000	-1.000000	-1.000000	-1.000000	-1.000000	78.965517	0.000000	-1.000000	-1.000000	1454482.000000	1769636720.542680
-8769.330000	12905.460000	17071.020000	31245.300000	6951.870000	-8866.575000	-18131.265000	-14859.675000	7.625868	-5.131932	6.913749	-4.382387	10.241398	8.670335	-3.474318	2.347716	5.402040	-2.365300	-6.241340	-0.952695	-0.105407	0.222167	-1.000000	-1.000000	-1.000000	-1.000000	-1.000000	-1.000000	-1.000000	78.965517	0.000000	-1.000000	-1.000000	1454483.000000	1769636720.544394
-8765.235000	12955.680000	17124.930000	31319.100000	6983.730000	-8854.380000	-18131.085000	-14860.665000	21.988228	10.165366	15.724411	-3.412275	12.232293	12.992247	-9.837436	10.493362	5.402040	-2.365300	-6.241340	-0.952695	-0.105407	0.222167	-1.000000	-1.000000	-1.000000	-1.000000	-1.000000	-1.000000	-1.000000	78.965517	0.000000	-1.000000	-1.000000	1454484.000000	1769636720.544405
-8739.675000	13008.195000	17172.990000	31341.060000	7012.980000	-8828.955000	-18135.855000	-14849.055000	25.998694	22.414533	20.515335	4.157959	11.009858	12.070391	-11.478768	13.527256	5.402040	-2.365300	-6.241340	-0.952695	-0.105407	0.222167	-1.000000	-1.000000	-1.000000	-1.000000	-1.000000	-1.000000	-1.000000	78.965517	0.000000	-1.000000	-1.000000	1454485.000000	1769636720.548499
-8727.075000	13031.010000	17187.345000	31334.085000	7015.635000	-8822.295000	-18148.905000	-14840.640000	19.615054	28.714685	20.482529	8.992952	5.258251	6.903312	-9.142797	10.644011	5.402040	-2.365300	-6.241340	-0.952695	-0.105407	0.222167	-1.000000	-1.000000	-1.000000	-1.000000	-1.000000	-1.000000	-1.000000	78.965517	0.000000	-1.000000	-1.000000	1454486.000000	1769636720.548510
-8730.045000	13006.215000	17155.755000	31347.135000	7015.590000	-8827.695000	-18141.705000	-14841.045000	9.465407	28.214413	15.732742	5.221730	-2.719338	1.328574	-4.961949	5.256642	9.796920	-2.075360	-6.271860	-0.945981	-0.107666	0.228088	-1.000000	-1.000000	-1.000000	-1.000000	-1.000000	-1.000000	-1.000000	78.965517	0.000000	-1.000000	-1.000000	1454487.000000	1769636720.552499
-8720.595000	12985.380000	17121.105000	31355.820000	7014.555000	-8837.055000	-18127.620000	-14831.370000	1.005605	19.529234	4.720367	-5.480413	-10.561912	-3.267881	0.176484	0.967298	9.796920	-2.075360	-6.271860	-0.945981	-0.107666	0.228088	-1.000000	-1.000000	-1.000000	-1.000000	-1.000000	-1.000000	-1.000000	78.965517	0.000000	-1.000000	-1.000000	1454488.000000	1769636720.552510
-8770.815000	12913.110000	17036.055000	31278.780000	6947.685000	-8877.375000	-18106.875000	-14858.055000	-5.910507	2.451687	-12.906554	-17.355395	-17.750731	-8.758113	5.491605	-2.078379	9.796920	-2.075360	-6.271860	-0.945981	-0.107666	0.228088	-1.000000	-1.000000	-1.000000	-1.000000	-1.000000	-1.000000	-1.000000	78.965517	0.000000	-1.000000	-1.000000	1454489.000000	1769636720.556478
-8797.905000	12880.350000	17005.455000	31222.980000	6910.380000	-8890.515000	-18114.975000	-14870.340000	-13.421859	-18.322997	-31.196150	-24.603123	-23.048793	-15.333522	8.656779	-5.724529	9.796920	-2.075360	-6.271860	-0.945981	-0.107666	0.228088	-1.000000	-1.000000	-1.000000	-1.000000	-1.000000	-1.000000	-1.000000	78.965517	0.000000	-1.000000	-1.000000	1454490.000000	1769636720.556484
-8792.280000	12904.155000	17009.235000	31165.560000	6889.185000	-8899.065000	-18143.505000	-14872.815000	-20.335886	-32.977408	-39.528838	-24.856130	-23.636381	-19.235509	7.786639	-10.008764	9.796920	-2.075360	-6.271860	-0.945981	-0.107666	0.228088	-1.000000	-1.000000	-1.000000	-1.000000	-1.000000	-1.000000	-1.000000	78.965517	0.000000	-1.000000	-1.000000	1454491.000000	1769636720.560528
-8763.300000	12962.520000	17084.295000	31223.430000	6929.280000	-8870.895000	-18143.910000	-14864.670000	-21.401533	-31.749741	-30.165108	-19.482255	-17.120118	-16.102378	3.287799	-12.151378	9.796920	-2.075360	-6.271860	-0.945981	-0.107666	0.228088	-1.000000	-1.000000	-1.000000	-1.000000	-1.000000	-1.000000	-1.000000	78.965517	0.000000	-1.000000	-1.000000	1454492.000000	1769636720.560542
-8771.895000	12922.695000	17052.255000	31276.530000	6951.960000	-8865.990000	-18123.705000	-14862.060000	-13.261992	-15.095145	-6.104332	-9.265023	-3.667118	-5.532380	-2.028911	-9.505881	9.796920	-2.075360	-6.271860	-0.945981	-0.107666	0.228088	-1.000000	-1.000000	-1.000000	-1.000000	-1.000000	-1.000000	-1.000000	78.965517	0.000000	-1.000000	-1.000000	1454493.000000	1769636720.564373
-8820.765000	12826.125000	16936.290000	31259.160000	6923.745000	-8894.970000	-18134.640000	-14880.915000	-0.584944	2.650427	16.992788	5.401305	12.115733	7.259975	-4.640227	-3.114444	9.796920	-2.075360	-6.271860	-0.945981	-0.107666	0.228088	-1.000000	-1.000000	-1.000000	-1.000000	-1.000000	-1.000000	-1.000000	78.965517	0.000000	-1.000000	-1.000000	1454494.000000	1769636720.564386
-8814.195000	12802.455000	16917.570000	31312.530000	6966.405000	-8866.215000	-18137.070000	-14872.410000	8.438611	7.399921	23.590678	21.113240	23.670341	15.789935	-3.584800	3.353355	9.796920	-2.075360	-6.271860	-0.945981	-0.107666	0.228088	-1.000000	-1.000000	-1.000000	-1.000000	-1.000000	-1.000000	-1.000000	78.965517	0.000000	-1.000000	-1.000000	1454495.000000	1769636720.568488
-8800.110000	12813.885000	16918.335000	31333.905000	6984.090000	-8852.850000	-18143.280000	-14866.155000	11.307475	1.032207	14.572166	32.697383	27.912663	18.203482	-0.906464	7.637318	9.796920	-2.075360	-6.271860	-0.945981	-0.107666	0.228088	-1.000000	-1.000000	-1.000000	-1.000000	-1.000000	-1.000000	-1.000000	78.965517	0.000000	-1.000000	-1.000000	1454496.000000	1769636720.568499
-8791.965000	12861.090000	16975.755000	31327.110000	6983.865000	-8859.240000	-18139.455000	-14868.765000	11.158985	-2.442608	4.955491	35.633027	25.308499	16.227183	0.657522	9.405905	1.968540	0.854560	-2.060100	-0.929441	-0.104370	0.244689	-1.000000	-1.000000	-1.000000	-1.000000	-1.000000	-1.000000	-1.000000	78.965517	0.000000	-1.000000	-1.000000	1454497.000000	1769636720.572515
-8764.785000	12938.895000	17094.105000	31351.410000	6994.620000	-8859.105000	-18158.445000	-14858.730000	11.701563	8.135470	9.282213	29.462755	18.213635	11.595327	-0.555217	9.059164	1.968540	0.854560	-2.060100	-0.929441	-0.104370	0.244689	-1.000000	-1.000000	-1.000000	-1.000000	-1.000000	-1.000000	-1.000000	78.965517	0.000000	-1.000000	-1.000000	1454498.000000	1769636720.572524
-8722.350000	13021.965000	17196.255000	31371.615000	7030.440000	-8822.340000	-18128.295000	-14834.880000	14.541561	31.212921	29.777618	19.031403	10.424604	6.145897	-3.094684	7.794722	1.968540	0.854560	-2.060100	-0.929441	-0.104370	0.244689	-1.000000	-1.000000	-1.000000	-1.000000	-1.000000	-1.000000	-1.000000	78.965517	0.000000	-1.000000	-1.000000	1454499.000000	1769636720.577200
-8773.020000	13000.950000	17140.635000	31241.835000	6974.325000	-8854.965000	-18129.150000	-14872.725000	16.445489	51.210443	50.483498	6.238693	2.983640	1.067875	-2.695160	5.872918	1.968540	0.854560	-2.060100	-0.929441	-0.104370	0.244689	-1.000000	-1.000000	-1.000000	-1.000000	-1.000000	-1.000000	-1.000000	78.965517	0.000000	-1.000000	-1.000000	1454500.000000	1769636720.577212
-8770.905000	12994.380000	17081.550000	31098.870000	6930.585000	-8857.530000	-18096.480000	-14862.420000	10.708159	48.405485	46.191355	-15.657085	-8.342671	-5.023845	2.434753	1.651977	1.968540	0.854560	-2.060100	-0.929441	-0.104370	0.244689	-1.000000	-1.000000	-1.000000	-1.000000	-1.000000	-1.000000	-1.000000	78.965517	0.000000	-1.000000	-1.000000	1454501.000000	1769636720.580698
-8770.455000	12991.410000	17073.090000	31085.865000	6901.335000	-8879.220000	-18097.560000	-14861.025000	-3.738516	17.752909	8.244749	-48.372668	-25.505702	-13.022203	8.917730	-4.779109	1.968540	0.854560	-2.060100	-0.929441	-0.104370	0.244689	-1.000000	-1.000000	-1.000000	-1.000000	-1.000000	-1.000000	-1.000000	78.965517	0.000000	-1.000000	-1.000000	1454502.000000	1769636720.580709
-8755.290000	13010.670000	17118.045000	31156.110000	6934.320000	-8858.070000	-18102.375000	-14852.700000	-18.306869	-23.453815	-41.143858	-73.322356	-40.123309	-19.278983	11.745024	-9.842101	1.968540	0.854560	-2.060100	-0.929441	-0.104370	0.244689	-1.000000	-1.000000	-1.000000	-1.000000	-1.000000	-1.000000	-1.000000	78.965517	0.000000	-1.000000	-1.000000	1454503.000000	1769636720.584316
-8739.495000	13024.080000	17149.545000	31208.040000	6963.165000	-8839.575000	-18099.855000	-14845.275000	-23.403219	-51.110105	-68.954172	-65.862519	-39.770398	-18.568252	8.515181	-10.244820	1.968540	0.854560	-2.060100	-0.929441	-0.104370	0.244689	-1.000000	-1.000000	-1.000000	-1.000000	-1.000000	-1.000000	-1.000000	78.965517	0.000000	-1.000000	-1.000000	1454504.000000	1769636720.584327
-8717.355000	13040.370000	17180.145000	31247.775000	6977.610000	-8855.505000	-18148.455000	-14836.140000	-17.210173	-53.925857	-61.036436	-22.530059	-21.108131	-10.179652	0.158590	-6.136052	1.968540	0.854560	-2.060100	-0.929441	-0.104370	0.244689	-1.000000	-1.000000	-1.000000	-1.000000	-1.000000	-1.000000	-1.000000	78.965517	0.000000	-1.000000	-1.000000	1454505.000000	1769636720.589418
-8727.795000	12981.870000	17118.135000	31197.735000	6913.710000	-8923.320000	-18201.465000	-14831.775000	-5.143488	-38.075688	-29.766144	34.603700	6.442630	0.519498	-11.190820	-0.157305	1.968540	0.854560	-2.060100	-0.929441	-0.104370	0.244689	-1.000000	-1.000000	-1.000000	-1.000000	-1.000000	-1.000000	-1.000000	78.965517	0.000000	-1.000000	-1.000000	1454506.000000	1769636720.589432
-8736.390000	12923.910000	17045.370000	31149.630000	6871.005000	-8925.795000	-18138.870000	-14810.355000	4.916481	-19.433587	-1.304356	74.229776	27.258537	6.582591	-20.915635	4.833925	-13.932380	8.148840	4.089680	-0.929258	-0.096557	0.259460	-1.000000	-1.000000	-1.000000	-1.000000	-1.000000	-1.000000	-1.000000	78.965517	0.000000	-1.000000	-1.000000	1454507.000000	1769636720.592227
-8755.020000	12939.840000	17066.115000	31187.340000	6904.620000	-8892.045000	-18105.165000	-14817.825000	7.370902	-9.635533	6.737871	77.614852	31.466297	6.496810	-20.947570	6.947442	-13.932380	8.148840	4.089680	-0.929258	-0.096557	0.259460	-1.000000	-1.000000	-1.000000	-1.000000	-1.000000	-1.000000	-1.000000	78.965517	0.000000	-1.000000	-1.000000	1454508.000000	1769636720.592239
-8763.705000	12997.395000	17127.630000	31262.850000	6972.210000	-8846.055000	-18117.765000	-14856.345000	2.907677	-5.594186	1.126103	52.712288	23.790982	5.785751	-8.288212	5.317052	-13.932380	8.148840	4.089680	-0.929258	-0.096557	0.259460	-1.000000	-1.000000	-1.000000	-1.000000	-1.000000	-1.000000	-1.000000	78.965517	0.000000	-1.000000	-1.000000	1454509.000000	1769636720.599073
-8766.315000	12993.345000	17114.715000	31255.920000	6975.630000	-8821.530000	-18099.675000	-14870.970000	-2.869264	3.434169	1.426684	22.447349	16.299038	9.792569	9.113360	-0.092668	-13.932380	8.148840	4.089680	-0.929258	-0.096557	0.259460	-1.000000	-1.000000	-1.000000	-1.000000	-1.000000	-1.000000	-1.000000	78.965517	0.000000	-1.000000	-1.000000	1454510.000000	1769636720.599086
-8786.745000	12964.320000	17081.235000	31211.730000	6946.830000	-8824.590000	-18108.450000	-14885.055000	-5.284335	19.598731	14.532999	-1.107039	12.984076	16.729559	20.403592	-7.400079	-13.932380	8.148840	4.089680	-0.929258	-0.096557	0.259460	-1.000000	-1.000000	-1.000000	-1.000000	-1.000000	-1.000000	-1.000000	78.965517	0.000000	-1.000000	-1.000000	1454511.000000	1769636720.600341
-8765.055000	12975.435000	17094.150000	31215.735000	6945.795000	-8845.155000	-18107.415000	-14868.090000	-3.400169	33.908858	29.557473	-21.779425	7.710835	18.883290	20.802941	-12.294600	-13.932380	8.148840	4.089680	-0.929258	-0.096557	0.259460	-1.000000	-1.000000	-1.000000	-1.000000	-1.000000	-1.000000	-1.000000	78.965517	0.000000	-1.000000	-1.000000	1454512.000000	1769636720.600353
-8755.065000	12985.650000	17116.065000	31219.695000	6926.580000	-8895.285000	-18106.740000	-14849.505000	1.236269	37.138207	33.655201	-42.735161	-4.778566	9.681494	12.485987	-10.733298	-13.932380	8.148840	4.089680	-0.929258	-0.096557	0.259460	-1.000000	-1.000000	-1.000000	-1.000000	-1.000000	-1.000000	-1.000000	78.965517	0.000000	-1.000000	-1.000000	1454513.000000	1769636720.604406
-8772.615000	12983.355000	17130.735000	31237.560000	6942.960000	-8875.845000	-18117.090000	-14862.870000	5.868201	27.688432	24.367221	-56.479721	-20.449588	-8.217688	1.809501	-2.735934	-13.932380	8.148840	4.089680	-0.929258	-0.096557	0.259460	-1.000000	-1.000000	-1.000000	-1.000000	-1.000000	-1.000000	-1.000000	78.965517	0.000000	-1.000000	-1.000000	1454514.000000	1769636720.604417
-8768.070000	12992.940000	17140.545000	31254.705000	6961.905000	-8854.830000	-18116.730000	-14866.875000	7.886321	11.455262	8.848109	-51.539590	-28.020673	-22.235017	-5.426113	6.763899	-13.932380	8.148840	4.089680	-0.929258	-0.096557	0.259460	-1.000000	-1.000000	-1.000000	-1.000000	-1.000000	-1.000000	-1.000000	78.965517	0.000000	-1.000000	-1.000000	1454515.000000	1769636720.608466
-8761.140000	12987.855000	17130.015000	31247.775000	6954.165000	-8843.040000	-18109.755000	-14855.220000	6.931181	-3.423679	-4.318234	-25.640483	-20.434151	-22.098548	-8.484859	12.004616	-13.932380	8.148840	4.089680	-0.929258	-0.096557	0.259460	-1.000000	-1.000000	-1.000000	-1.000000	-1.000000	-1.000000	-1.000000	78.965517	0.000000	-1.000000	-1.000000	1454516.000000	1769636720.608473
-8760.195000	12985.065000	17125.425000	31245.480000	6947.370000	-8856.270000	-18114.795000	-14853.690000	4.921240	-13.195726	-12.363696	8.561676	-3.779743	-10.667541	-10.038181	11.644764	-26.979680	8.911840	-1.602300	-0.938413	-0.078674	0.272399	-1.000000	-1.000000	-1.000000	-1.000000	-1.000000	-1.000000	-1.000000	78.965517	0.000000	-1.000000	-1.000000	1454517.000000	1769636720.618127
-8750.745000	12980.385000	17117.370000	31242.870000	6948.765000	-8876.295000	-18112.095000	-14841.495000	3.627826	-19.072052	-17.293518	32.807924	8.938738	0.674950	-10.977794	8.810713	-26.979680	8.911840	-1.602300	-0.938413	-0.078674	0.272399	-1.000000	-1.000000	-1.000000	-1.000000	-1.000000	-1.000000	-1.000000	78.965517	0.000000	-1.000000	-1.000000	1454518.000000	1769636720.618140
-8736.345000	12997.305000	17136.810000	31265.100000	6971.805000	-8870.940000	-18109.890000	-14830.290000	3.248874	-21.279896	-19.122948	38.041863	11.471122	4.152031	-9.816704	6.597694	-26.979680	8.911840	-1.602300	-0.938413	-0.078674	0.272399	-1.000000	-1.000000	-1.000000	-1.000000	-1.000000	-1.000000	-1.000000	78.965517	0.000000	-1.000000	-1.000000	1454519.000000	1769636720.618154
-8748.135000	12990.690000	17130.285000	31258.170000	6963.885000	-8869.230000	-18121.365000	-14838.525000	2.787439	-17.279249	-15.024952	28.106860	7.637232	1.411712	-5.613837	4.963088	-26.979680	8.911840	-1.602300	-0.938413	-0.078674	0.272399	-1.000000	-1.000000	-1.000000	-1.000000	-1.000000	-1.000000	-1.000000	78.965517	0.000000	-1.000000	-1.000000	1454520.000000	1769636720.618159
-8771.355000	12978.675000	17119.710000	31251.780000	6959.655000	-8864.415000	-18123.030000	-14857.155000	0.032855	-7.603314	-5.973454	11.286566	2.993991	-0.843585	0.468182	1.233219	-26.979680	8.911840	-1.602300	-0.938413	-0.078674	0.272399	-1.000000	-1.000000	-1.000000	-1.000000	-1.000000	-1.000000	-1.000000	78.965517	0.000000	-1.000000	-1.000000	1454521.000000	1769636720.620458
-8772.795000	12994.875000	17140.140000	31275.450000	6979.275000	-8843.400000	-18118.440000	-14869.800000	-6.339389	2.499714	2.296248	-5.538654	-0.128723	2.112444	6.298614	-6.315870	-26.979680	8.911840	-1.602300	-0.938413	-0.078674	0.272399	-1.000000	-1.000000	-1.000000	-1.000000	-1.000000	-1.000000	-1.000000	78.965517	0.000000	-1.000000	-1.000000	1454522.000000	1769636720.620469
-8772.570000	12978.225000	17123.445000	31266.225000	6967.395000	-8851.815000	-18119.745000	-14864.535000	-13.105605	8.716776	5.928705	-16.423687	-1.034206	9.343068	10.564539	-14.710853	-26.979680	8.911840	-1.602300	-0.938413	-0.078674	0.272399	-1.000000	-1.000000	-1.000000	-1.000000	-1.000000	-1.000000	-1.000000	78.965517	0.000000	-1.000000	-1.000000	1454523.000000	1769636720.625523
-8776.395000	12967.920000	17111.880000	31255.560000	6949.170000	-8874.450000	-18139.005000	-14864.175000	-14.967953	10.024895	5.339506	-18.196029	-0.600834	14.359312	11.759492	-18.213784	-26.979680	8.911840	-1.602300	-0.938413	-0.078674	0.272399	-1.000000	-1.000000	-1.000000	-1.000000	-1.000000	-1.000000	-1.000000	78.965517	0.000000	-1.000000	-1.000000	1454524.000000	1769636720.625536
-8755.605000	12990.195000	17129.475000	31272.570000	6964.335000	-8869.635000	-18163.530000	-14858.100000	-9.929691	7.529045	3.060177	-12.257760	-0.606887	11.074149	7.602180	-14.012557	-26.979680	8.911840	-1.602300	-0.938413	-0.078674	0.272399	-1.000000	-1.000000	-1.000000	-1.000000	-1.000000	-1.000000	-1.000000	78.965517	0.000000	-1.000000	-1.000000	1454525.000000	1769636720.637767
-8716.365000	13036.095000	17175.285000	31328.460000	7019.460000	-8819.010000	-18113.085000	-14834.160000	0.442450	4.370553	2.430270	-1.904480	-0.566537	1.360206	-0.638848	-3.711493	-26.979680	8.911840	-1.602300	-0.938413	-0.078674	0.272399	-1.000000	-1.000000	-1.000000	-1.000000	-1.000000	-1.000000	-1.000000	78.965517	0.000000	-1.000000	-1.000000	1454526.000000	1769636720.637780
-8760.825000	12974.985000	17111.475000	31273.425000	6967.125000	-8858.655000	-18089.010000	-14842.890000	11.519184	2.763866	4.499300	8.569949	0.703082	-7.181347	-6.501150	8.260070	-29.985900	13.520360	3.982860	-0.934324	-0.069885	0.249755	-1.000000	-1.000000	-1.000000	-1.000000	-1.000000	-1.000000	-1.000000	78.965517	0.000000	-1.000000	-1.000000	1454527.000000	1769636720.637796
-8815.995000	12922.380000	17071.425000	31222.215000	6916.410000	-8892.180000	-18118.125000	-14875.515000	15.667173	0.197603	5.118609	12.345462	0.466115	-11.043334	-5.645620	15.704472	-29.985900	13.520360	3.982860	-0.934324	-0.069885	0.249755	-1.000000	-1.000000	-1.000000	-1.000000	-1.000000	-1.000000	-1.000000	78.965517	0.000000	-1.000000	-1.000000	1454528.000000	1769636720.637801
-8778.330000	12961.800000	17096.985000	31223.385000	6928.155000	-8892.585000	-18142.290000	-14859.720000	9.244215	-5.489763	0.686170	5.381812	-4.147685	-12.033223	-1.200729	14.558544	-29.985900	13.520360	3.982860	-0.934324	-0.069885	0.249755	-1.000000	-1.000000	-1.000000	-1.000000	-1.000000	-1.000000	-1.000000	78.965517	0.000000	-1.000000	-1.000000	1454529.000000	1769636720.637807
-8764.515000	12974.580000	17095.095000	31211.955000	6928.470000	-8910.405000	-18182.295000	-14857.065000	-1.316773	-9.882008	-5.539062	-7.251516	-9.659150	-11.080583	0.716646	7.175904	-29.985900	13.520360	3.982860	-0.934324	-0.069885	0.249755	-1.000000	-1.000000	-1.000000	-1.000000	-1.000000	-1.000000	-1.000000	78.965517	0.000000	-1.000000	-1.000000	1454530.000000	1769636720.637812
-8779.365000	12967.515000	17096.085000	31224.150000	6938.550000	-8898.345000	-18170.865000	-14866.470000	-6.967398	-7.848291	-8.214753	-15.936715	-10.070220	-7.440834	-2.033487	-0.543134	-29.985900	13.520360	3.982860	-0.934324	-0.069885	0.249755	-1.000000	-1.000000	-1.000000	-1.000000	-1.000000	-1.000000	-1.000000	78.965517	0.000000	-1.000000	-1.000000	1454531.000000	1769636720.641009
-8784.855000	12955.005000	17087.715000	31229.865000	6947.550000	-8846.820000	-18084.420000	-14858.460000	-5.778803	-0.586130	-5.728272	-14.375364	-3.412865	-0.310678	-4.679442	-4.977091	-29.985900	13.520360	3.982860	-0.934324	-0.069885	0.249755	-1.000000	-1.000000	-1.000000	-1.000000	-1.000000	-1.000000	-1.000000	78.965517	0.000000	-1.000000	-1.000000	1454532.000000	1769636720.641022
-8769.555000	12946.995000	17074.260000	31226.805000	6945.570000	-8847.405000	-18085.275000	-14836.815000	-1.425608	6.603330	-0.003908	-3.009820	7.336825	9.972715	-0.534491	-5.548813	-29.985900	13.520360	3.982860	-0.934324	-0.069885	0.249755	-1.000000	-1.000000	-1.000000	-1.000000	-1.000000	-1.000000	-1.000000	78.965517	0.000000	-1.000000	-1.000000	1454533.000000	1769636720.644501
-8767.755000	12930.525000	17054.820000	31205.070000	6914.295000	-8895.285000	-18122.040000	-14829.480000	2.231150	8.625354	4.581977	10.576441	15.255756	18.106986	8.756122	-3.083363	-29.985900	13.520360	3.982860	-0.934324	-0.069885	0.249755	-1.000000	-1.000000	-1.000000	-1.000000	-1.000000	-1.000000	-1.000000	78.965517	0.000000	-1.000000	-1.000000	1454534.000000	1769636720.644512
-8785.845000	12938.670000	17071.020000	31214.430000	6920.145000	-8900.550000	-18144.315000	-14848.245000	2.746646	4.006915	4.664551	17.102571	13.855244	16.204560	12.724707	-0.030412	-29.985900	13.520360	3.982860	-0.934324	-0.069885	0.249755	-1.000000	-1.000000	-1.000000	-1.000000	-1.000000	-1.000000	-1.000000	78.965517	0.000000	-1.000000	-1.000000	1454535.000000	1769636720.648458
-8791.920000	12982.320000	17122.635000	31254.750000	6963.030000	-8855.370000	-18132.480000	-14875.965000	0.480255	-1.721906	3.335102	15.216778	5.356770	4.974058	5.062347	0.507973	-29.985900	13.520360	3.982860	-0.934324	-0.069885	0.249755	-1.000000	-1.000000	-1.000000	-1.000000	-1.000000	-1.000000	-1.000000	78.965517	0.000000	-1.000000	-1.000000	1454536.000000	1769636720.648470
-8773.785000	12993.435000	17126.685000	31255.020000	6972.615000	-8830.395000	-18092.205000	-14861.835000	-0.987527	-0.621778	6.495563	11.403504	-0.596516	-4.852515	-7.414952	-1.726662	-22.737400	12.101180	0.793520	-0.934385	-0.085022	0.245117	-1.000000	-1.000000	-1.000000	-1.000000	-1.000000	-1.000000	-1.000000	78.965517	0.000000	-1.000000	-1.000000	1454537.000000	1769636720.654190
-8773.290000	12975.210000	17104.950000	31234.545000	6951.015000	-8849.430000	-18084.510000	-14851.980000	0.428450	6.452293	12.292788	8.948632	0.160833	-5.871327	-12.365655	-3.698388	-22.737400	12.101180	0.793520	-0.934385	-0.085022	0.245117	-1.000000	-1.000000	-1.000000	-1.000000	-1.000000	-1.000000	-1.000000	78.965517	0.000000	-1.000000	-1.000000	1454538.000000	1769636720.654202
-8763.795000	12985.065000	17113.320000	31239.990000	6949.890000	-8858.565000	-18100.620000	-14848.110000	2.664536	10.447607	12.514718	4.758085	2.255789	-1.430270	-5.799496	-2.797737	-22.737400	12.101180	0.793520	-0.934385	-0.085022	0.245117	-1.000000	-1.000000	-1.000000	-1.000000	-1.000000	-1.000000	-1.000000	78.965517	0.000000	-1.000000	-1.000000	1454539.000000	1769636720.658026
-8771.490000	12980.340000	17107.785000	31234.185000	6944.985000	-8862.885000	-18112.230000	-14851.755000	3.340325	6.365421	4.055664	-3.203576	0.072489	0.854989	4.383647	0.664862	-22.737400	12.101180	0.793520	-0.934385	-0.085022	0.245117	-1.000000	-1.000000	-1.000000	-1.000000	-1.000000	-1.000000	-1.000000	78.965517	0.000000	-1.000000	-1.000000	1454540.000000	1769636720.658037
-8780.265000	12982.635000	17113.095000	31238.640000	6945.030000	-8867.295000	-18116.595000	-14862.240000	1.907296	-2.402498	-7.904953	-12.153797	-5.919724	-2.824251	7.251280	3.831963	-22.737400	12.101180	0.793520	-0.934385	-0.085022	0.245117	-1.000000	-1.000000	-1.000000	-1.000000	-1.000000	-1.000000	-1.000000	78.965517	0.000000	-1.000000	-1.000000	1454541.000000	1769636720.660342
-8796.330000	12956.400000	17087.985000	31219.065000	6922.125000	-8892.135000	-18125.460000	-14870.475000	-1.672308	-10.201432	-16.304349	-17.541214	-11.507858	-10.034996	0.278255	3.560004	-22.737400	12.101180	0.793520	-0.934385	-0.085022	0.245117	-1.000000	-1.000000	-1.000000	-1.000000	-1.000000	-1.000000	-1.000000	78.965517	0.000000	-1.000000	-1.000000	1454542.000000	1769636720.660356
-8800.605000	12937.860000	17072.055000	31210.605000	6918.210000	-8896.455000	-18145.575000	-14872.680000	-6.554452	-14.380677	-18.209016	-17.164711	-13.267966	-14.725156	-9.229498	-0.404828	-22.737400	12.101180	0.793520	-0.934385	-0.085022	0.245117	-1.000000	-1.000000	-1.000000	-1.000000	-1.000000	-1.000000	-1.000000	78.965517	0.000000	-1.000000	-1.000000	1454543.000000	1769636720.664534
-8773.920000	12969.405000	17095.005000	31232.925000	6953.490000	-8850.690000	-18136.980000	-14856.120000	-9.297628	-14.354299	-14.655071	-11.759775	-9.934560	-11.959460	-13.132933	-4.264561	-22.737400	12.101180	0.793520	-0.934385	-0.085022	0.245117	-1.000000	-1.000000	-1.000000	-1.000000	-1.000000	-1.000000	-1.000000	78.965517	0.000000	-1.000000	-1.000000	1454544.000000	1769636720.664544
-8716.905000	13068.180000	17178.750000	31293.090000	7007.130000	-8792.730000	-18073.935000	-14816.700000	-5.236852	-8.266099	-6.471854	-2.485297	-1.523177	-1.056736	-8.282139	-2.950205	-22.737400	12.101180	0.793520	-0.934385	-0.085022	0.245117	-1.000000	-1.000000	-1.000000	-1.000000	-1.000000	-1.000000	-1.000000	78.965517	0.000000	-1.000000	-1.000000	1454545.000000	1769636720.668390
-8700.795000	13150.125000	17247.960000	31327.560000	7025.310000	-8792.190000	-18079.605000	-14816.025000	5.748183	5.676345	6.724819	9.625023	9.996462	13.381080	3.253099	4.204515	-22.737400	12.101180	0.793520	-0.934385	-0.085022	0.245117	-1.000000	-1.000000	-1.000000	-1.000000	-1.000000	-1.000000	-1.000000	78.965517	0.000000	-1.000000	-1.000000	1454546.000000	1769636720.668400
-8768.295000	13069.530000	17167.725000	31259.205000	6953.040000	-8875.980000	-18140.130000	-14856.930000	15.557731	22.099905	20.855610	20.078052	18.657800	22.356797	14.040791	10.769189	-25.545240	6.714400	-1.983800	-0.953672	-0.100281	0.215393	-1.000000	-1.000000	-1.000000	-1.000000	-1.000000	-1.000000	-1.000000	78.965517	0.000000	-1.000000	-1.000000	1454547.000000	1769636720.672402
-8803.845000	12945.330000	17070.570000	31214.655000	6919.290000	-8905.770000	-18160.785000	-14874.120000	13.943707	26.314080	24.139395	20.334878	16.634467	17.765453	15.713810	9.196022	-25.545240	6.714400	-1.983800	-0.953672	-0.100281	0.215393	-1.000000	-1.000000	-1.000000	-1.000000	-1.000000	-1.000000	-1.000000	78.965517	0.000000	-1.000000	-1.000000	1454548.000000	1769636720.672414
-8734.500000	12916.710000	17096.895000	31325.625000	7050.780000	-8789.265000	-18094.365000	-14820.750000	0.843718	8.392695	9.249448	8.360413	4.453721	2.179984	7.725856	0.002172	-25.545240	6.714400	-1.983800	-0.953672	-0.100281	0.215393	-1.000000	-1.000000	-1.000000	-1.000000	-1.000000	-1.000000	-1.000000	78.965517	0.000000	-1.000000	-1.000000	1454549.000000	1769636720.676571
-8706.465000	12984.795000	17136.225000	31326.165000	7046.775000	-8785.980000	-18072.045000	-14797.980000	-11.540005	-20.791037	-13.468564	-5.183043	-6.015845	-10.542051	-1.430451	-8.101762	-25.545240	6.714400	-1.983800	-0.953672	-0.100281	0.215393	-1.000000	-1.000000	-1.000000	-1.000000	-1.000000	-1.000000	-1.000000	78.965517	0.000000	-1.000000	-1.000000	1454550.000000	1769636720.676582
-8802.270000	12905.190000	17040.870000	31183.470000	6903.675000	-8897.130000	-18135.990000	-14853.510000	-13.916791	-38.385072	-26.637547	-11.772860	-8.252877	-12.035396	-4.669562	-9.074831	-25.545240	6.714400	-1.983800	-0.953672	-0.100281	0.215393	-1.000000	-1.000000	-1.000000	-1.000000	-1.000000	-1.000000	-1.000000	78.965517	0.000000	-1.000000	-1.000000	1454551.000000	1769636720.680472
-8805.015000	12906.855000	17047.260000	31192.830000	6908.490000	-8894.295000	-18136.440000	-14859.045000	-9.926809	-33.467617	-24.620817	-15.006309	-9.327221	-8.494976	-3.668508	-5.905313	-25.545240	6.714400	-1.983800	-0.953672	-0.100281	0.215393	-1.000000	-1.000000	-1.000000	-1.000000	-1.000000	-1.000000	-1.000000	78.965517	0.000000	-1.000000	-1.000000	1454552.000000	1769636720.680482
-8791.380000	12925.215000	17068.185000	31216.995000	6933.015000	-8867.790000	-18117.270000	-14850.090000	-6.427513	-13.043033	-13.031522	-18.187326	-14.374608	-7.803985	-3.111633	-3.695430	-25.545240	6.714400	-1.983800	-0.953672	-0.100281	0.215393	-1.000000	-1.000000	-1.000000	-1.000000	-1.000000	-1.000000	-1.000000	78.965517	0.000000	-1.000000	-1.000000	1454553.000000	1769636720.684383
-8789.940000	12935.970000	17074.440000	31217.040000	6933.105000	-8870.625000	-18132.165000	-14850.540000	-4.740187	8.768081	0.219273	-17.802925	-18.518806	-9.681243	-4.719351	-3.380418	-25.545240	6.714400	-1.983800	-0.953672	-0.100281	0.215393	-1.000000	-1.000000	-1.000000	-1.000000	-1.000000	-1.000000	-1.000000	78.965517	0.000000	-1.000000	-1.000000	1454554.000000	1769636720.684393
-8786.880000	12946.185000	17080.920000	31215.510000	6934.050000	-8862.345000	-18122.490000	-14846.265000	-2.831654	21.333922	9.403647	-10.783495	-15.260786	-9.052783	-6.998870	-3.096536	-25.545240	6.714400	-1.983800	-0.953672	-0.100281	0.215393	-1.000000	-1.000000	-1.000000	-1.000000	-1.000000	-1.000000	-1.000000	78.965517	0.000000	-1.000000	-1.000000	1454555.000000	1769636720.688684
-8792.775000	12940.290000	17073.540000	31210.335000	6925.455000	-8867.115000	-18107.415000	-14848.920000	2.123465	24.434991	14.744971	2.580679	-2.491513	-1.241996	-5.488445	-0.402190	-25.545240	6.714400	-1.983800	-0.953672	-0.100281	0.215393	-1.000000	-1.000000	-1.000000	-1.000000	-1.000000	-1.000000	-1.000000	78.965517	0.000000	-1.000000	-1.000000	1454556.000000	1769636720.688699
-8787.465000	12945.060000	17082.855000	31230.900000	6942.195000	-8860.995000	-18117.360000	-14848.470000	10.362829	25.023599	19.891540	18.314667	15.117157	11.992125	1.824374	4.894594	-11.353440	-9.949520	2.487380	-0.965940	-0.127929	0.193969	-1.000000	-1.000000	-1.000000	-1.000000	-1.000000	-1.000000	-1.000000	78.965517	0.000000	-1.000000	-1.000000	1454557.000000	1769636720.692433
-8776.620000	12952.845000	17097.705000	31249.305000	6962.265000	-8840.520000	-18103.230000	-14840.055000	16.620958	25.620891	23.800153	28.135102	26.889917	21.011948	9.199439	8.958327	-11.353440	-9.949520	2.487380	-0.965940	-0.127929	0.193969	-1.000000	-1.000000	-1.000000	-1.000000	-1.000000	-1.000000	-1.000000	78.965517	0.000000	-1.000000	-1.000000	1454558.000000	1769636720.692444
-8790.930000	12943.170000	17083.530000	31225.095000	6937.515000	-8859.105000	-18110.745000	-14848.020000	15.487627	21.250969	21.215650	26.222323	25.909935	18.962962	10.125036	8.190445	-11.353440	-9.949520	2.487380	-0.965940	-0.127929	0.193969	-1.000000	-1.000000	-1.000000	-1.000000	-1.000000	-1.000000	-1.000000	78.965517	0.000000	-1.000000	-1.000000	1454559.000000	1769636720.698743
-8793.945000	12945.510000	17082.045000	31218.030000	6928.470000	-8873.640000	-18135.450000	-14854.815000	8.444106	8.944519	11.078050	15.990719	16.238905	9.604646	5.361547	3.897979	-11.353440	-9.949520	2.487380	-0.965940	-0.127929	0.193969	-1.000000	-1.000000	-1.000000	-1.000000	-1.000000	-1.000000	-1.000000	78.965517	0.000000	-1.000000	-1.000000	1454560.000000	1769636720.698754
-8784.720000	12956.805000	17092.665000	31227.570000	6936.075000	-8870.490000	-18143.685000	-14850.945000	0.995878	-7.058487	-2.153642	4.397337	5.403609	-0.083234	-0.819554	-0.101879	-11.353440	-9.949520	2.487380	-0.965940	-0.127929	0.193969	-1.000000	-1.000000	-1.000000	-1.000000	-1.000000	-1.000000	-1.000000	78.965517	0.000000	-1.000000	-1.000000	1454561.000000	1769636720.700569
-8787.150000	12955.680000	17090.505000	31223.970000	6933.150000	-8864.505000	-18119.340000	-14849.550000	-4.406766	-21.087217	-14.421643	-6.032745	-4.254585	-7.769030	-5.890092	-2.212551	-11.353440	-9.949520	2.487380	-0.965940	-0.127929	0.193969	-1.000000	-1.000000	-1.000000	-1.000000	-1.000000	-1.000000	-1.000000	78.965517	0.000000	-1.000000	-1.000000	1454562.000000	1769636720.700579
-8783.370000	12959.235000	17092.440000	31224.330000	6931.800000	-8864.055000	-18098.550000	-14843.745000	-8.394457	-29.950901	-23.517173	-15.061992	-12.804392	-13.082923	-7.746204	-3.064501	-11.353440	-9.949520	2.487380	-0.965940	-0.127929	0.193969	-1.000000	-1.000000	-1.000000	-1.000000	-1.000000	-1.000000	-1.000000	78.965517	0.000000	-1.000000	-1.000000	1454563.000000	1769636720.704515
-8770.680000	12970.800000	17102.745000	31233.420000	6939.405000	-8864.415000	-18112.815000	-14837.220000	-10.358406	-30.785182	-26.281800	-20.002300	-17.711753	-14.054923	-4.814572	-2.911688	-11.353440	-9.949520	2.487380	-0.965940	-0.127929	0.193969	-1.000000	-1.000000	-1.000000	-1.000000	-1.000000	-1.000000	-1.000000	78.965517	0.000000	-1.000000	-1.000000	1454564.000000	1769636720.704528
-8767.170000	12974.085000	17107.515000	31242.195000	6948.630000	-8856.270000	-18112.095000	-14836.365000	-8.341927	-21.038175	-19.507027	-17.499198	-15.685751	-9.295460	0.864158	-1.411923	-11.353440	-9.949520	2.487380	-0.965940	-0.127929	0.193969	-1.000000	-1.000000	-1.000000	-1.000000	-1.000000	-1.000000	-1.000000	78.965517	0.000000	-1.000000	-1.000000	1454565.000000	1769636720.708536
-8784.630000	12958.470000	17095.005000	31233.105000	6939.585000	-8861.400000	-18112.275000	-14846.940000	-3.397375	-3.311650	-5.277448	-9.165418	-8.280379	-1.564809	4.800329	0.365199	-11.353440	-9.949520	2.487380	-0.965940	-0.127929	0.193969	-1.000000	-1.000000	-1.000000	-1.000000	-1.000000	-1.000000	-1.000000	78.965517	0.000000	-1.000000	-1.000000	1454566.000000	1769636720.708546
-8795.745000	12952.845000	17089.650000	31227.435000	6933.960000	-8869.005000	-18125.370000	-14857.515000	0.031301	13.275241	8.271561	-1.082746	-1.340329	3.742186	4.120485	0.126863	19.883780	-8.148840	4.364360	-0.926816	-0.150817	0.213622	-1.000000	-1.000000	-1.000000	-1.000000	-1.000000	-1.000000	-1.000000	78.965517	0.000000	-1.000000	-1.000000	1454567.000000	1769636720.712577
-8788.815000	12959.910000	17095.860000	31235.040000	6941.655000	-8861.580000	-18120.600000	-14852.565000	0.235424	20.791015	14.856350	3.963860	2.790551	5.033326	0.125091	-2.137777	19.883780	-8.148840	4.364360	-0.926816	-0.150817	0.213622	-1.000000	-1.000000	-1.000000	-1.000000	-1.000000	-1.000000	-1.000000	78.965517	0.000000	-1.000000	-1.000000	1454568.000000	1769636720.712587
-8795.205000	12951.180000	17083.620000	31224.735000	6934.545000	-8868.420000	-18117.090000	-14856.120000	-0.055726	18.490104	14.436789	7.574102	6.162192	5.163198	-2.672170	-3.521063	19.883780	-8.148840	4.364360	-0.926816	-0.150817	0.213622	-1.000000	-1.000000	-1.000000	-1.000000	-1.000000	-1.000000	-1.000000	78.965517	0.000000	-1.000000	-1.000000	1454569.000000	1769636720.716604
-8792.325000	12956.355000	17087.670000	31234.410000	6945.660000	-8860.770000	-18123.975000	-14861.745000	0.877569	9.798829	9.150658	9.559044	8.698633	5.294994	-1.836506	-2.382253	19.883780	-8.148840	4.364360	-0.926816	-0.150817	0.213622	-1.000000	-1.000000	-1.000000	-1.000000	-1.000000	-1.000000	-1.000000	78.965517	0.000000	-1.000000	-1.000000	1454570.000000	1769636720.716614
-8779.455000	12956.940000	17087.715000	31241.070000	6954.660000	-8845.515000	-18117.315000	-14849.190000	2.167098	-0.983366	1.331199	8.223998	8.352287	4.190420	0.289178	0.077798	19.883780	-8.148840	4.364360	-0.926816	-0.150817	0.213622	-1.000000	-1.000000	-1.000000	-1.000000	-1.000000	-1.000000	-1.000000	78.965517	0.000000	-1.000000	-1.000000	1454571.000000	1769636720.720456
-8758.980000	12972.735000	17108.820000	31246.335000	6951.735000	-8855.640000	-18111.420000	-14832.765000	3.328634	-9.073831	-5.290220	4.277712	5.145142	1.820460	0.855462	2.540413	19.883780	-8.148840	4.364360	-0.926816	-0.150817	0.213622	-1.000000	-1.000000	-1.000000	-1.000000	-1.000000	-1.000000	-1.000000	78.965517	0.000000	-1.000000	-1.000000	1454572.000000	1769636720.720468
-8738.460000	13012.335000	17151.480000	31278.735000	6971.535000	-8874.720000	-18159.435000	-14833.395000	4.775741	-10.340266	-6.571411	0.445515	1.007402	-0.989580	-0.450848	4.570541	19.883780	-8.148840	4.364360	-0.926816	-0.150817	0.213622	-1.000000	-1.000000	-1.000000	-1.000000	-1.000000	-1.000000	-1.000000	78.965517	0.000000	-1.000000	-1.000000	1454573.000000	1769636720.724600
-8735.265000	13018.095000	17153.370000	31280.130000	6972.165000	-8891.145000	-18205.695000	-14835.060000	6.196000	-3.739863	-1.260558	-1.196680	-2.229130	-4.254565	-3.651244	5.371549	19.883780	-8.148840	4.364360	-0.926816	-0.150817	0.213622	-1.000000	-1.000000	-1.000000	-1.000000	-1.000000	-1.000000	-1.000000	78.965517	0.000000	-1.000000	-1.000000	1454574.000000	1769636720.724612
-8767.125000	12998.880000	17135.955000	31261.545000	6958.305000	-8865.945000	-18148.770000	-14848.065000	5.699704	6.174228	6.263869	-1.437504	-4.279561	-7.346293	-7.565864	3.916844	19.883780	-8.148840	4.364360	-0.926816	-0.150817	0.213622	-1.000000	-1.000000	-1.000000	-1.000000	-1.000000	-1.000000	-1.000000	78.965517	0.000000	-1.000000	-1.000000	1454575.000000	1769636720.728494
-8803.665000	12950.505000	17086.995000	31219.110000	6930.405000	-8842.545000	-18058.320000	-14853.510000	1.154616	11.101722	8.659796	-2.874770	-5.859521	-7.147799	-6.118367	0.353050	19.883780	-8.148840	4.364360	-0.926816	-0.150817	0.213622	-1.000000	-1.000000	-1.000000	-1.000000	-1.000000	-1.000000	-1.000000	78.965517	0.000000	-1.000000	-1.000000	1454576.000000	1769636720.728504
-8803.305000	12941.280000	17076.870000	31216.410000	6933.960000	-8840.790000	-18072.675000	-14850.765000	-6.713353	6.063676	2.424102	-6.338047	-6.864787	-1.351623	5.231416	-3.536581	19.654880	3.982860	-3.296160	-0.913511	-0.128540	0.233825	-1.000000	-1.000000	-1.000000	-1.000000	-1.000000	-1.000000	-1.000000	78.965517	0.000000	-1.000000	-1.000000	1454577.000000	1769636720.735332
-8779.005000	12972.735000	17111.160000	31249.035000	6962.490000	-8830.755000	-18093.960000	-14843.565000	-13.074848	-5.212035	-8.066851	-9.089980	-5.902751	7.089122	19.423634	-5.455166	19.654880	3.982860	-3.296160	-0.913511	-0.128540	0.233825	-1.000000	-1.000000	-1.000000	-1.000000	-1.000000	-1.000000	-1.000000	78.965517	0.000000	-1.000000	-1.000000	1454578.000000	1769636720.735345
-8754.120000	13006.260000	17146.620000	31281.345000	6989.220000	-8817.525000	-18094.500000	-14833.260000	-12.513954	-13.135761	-13.765098	-6.973622	-1.644325	12.272349	23.600012	-4.255770	19.654880	3.982860	-3.296160	-0.913511	-0.128540	0.233825	-1.000000	-1.000000	-1.000000	-1.000000	-1.000000	-1.000000	-1.000000	78.965517	0.000000	-1.000000	-1.000000	1454579.000000	1769636720.741609
-8772.165000	12985.515000	17126.190000	31260.645000	6968.160000	-8838.405000	-18107.235000	-14843.070000	-4.778589	-11.673147	-9.902303	0.423850	4.608461	10.549550	12.919555	-1.138958	19.654880	3.982860	-3.296160	-0.913511	-0.128540	0.233825	-1.000000	-1.000000	-1.000000	-1.000000	-1.000000	-1.000000	-1.000000	78.965517	0.000000	-1.000000	-1.000000	1454580.000000	1769636720.741623
-8794.395000	12952.935000	17089.785000	31222.080000	6930.630000	-8868.690000	-18112.860000	-14848.965000	3.890103	-4.298780	-1.381323	7.359015	8.158379	2.381601	-6.082934	0.994302	19.654880	3.982860	-3.296160	-0.913511	-0.128540	0.233825	-1.000000	-1.000000	-1.000000	-1.000000	-1.000000	-1.000000	-1.000000	78.965517	0.000000	-1.000000	-1.000000	1454581.000000	1769636720.741637
-8799.210000	12946.410000	17079.165000	31211.910000	6924.555000	-8874.675000	-18112.995000	-14851.530000	6.843769	0.994448	3.007449	7.143745	4.982748	-8.045858	-21.289195	0.530975	19.654880	3.982860	-3.296160	-0.913511	-0.128540	0.233825	-1.000000	-1.000000	-1.000000	-1.000000	-1.000000	-1.000000	-1.000000	78.965517	0.000000	-1.000000	-1.000000	1454582.000000	1769636720.741643
-8805.735000	12936.825000	17052.435000	31193.055000	6920.685000	-8881.695000	-18107.595000	-14854.545000	3.685435	1.089368	0.459931	-0.353961	-3.158176	-15.053383	-23.824774	-1.218561	19.654880	3.982860	-3.296160	-0.913511	-0.128540	0.233825	-1.000000	-1.000000	-1.000000	-1.000000	-1.000000	-1.000000	-1.000000	78.965517	0.000000	-1.000000	-1.000000	1454583.000000	1769636720.744637
-8798.085000	12946.680000	17063.685000	31242.105000	6980.265000	-8855.910000	-18117.540000	-14854.590000	-0.104700	-0.151634	-3.854265	-7.483590	-8.670672	-15.100392	-15.392395	-1.797360	19.654880	3.982860	-3.296160	-0.913511	-0.128540	0.233825	-1.000000	-1.000000	-1.000000	-1.000000	-1.000000	-1.000000	-1.000000	78.965517	0.000000	-1.000000	-1.000000	1454584.000000	1769636720.744648
-8793.270000	12944.610000	17080.695000	31274.595000	7009.830000	-8827.650000	-18119.250000	-14849.955000	0.818743	2.412579	-2.577060	-5.176080	-4.270874	-8.051491	-5.439181	-0.013239	19.654880	3.982860	-3.296160	-0.913511	-0.128540	0.233825	-1.000000	-1.000000	-1.000000	-1.000000	-1.000000	-1.000000	-1.000000	78.965517	0.000000	-1.000000	-1.000000	1454585.000000	1769636720.748526
-8801.820000	12930.030000	17065.170000	31221.000000	6938.955000	-8866.395000	-18124.155000	-14853.465000	5.948255	8.567550	5.849355	6.420765	7.554804	2.671722	0.049912	3.051707	19.654880	3.982860	-3.296160	-0.913511	-0.128540	0.233825	-1.000000	-1.000000	-1.000000	-1.000000	-1.000000	-1.000000	-1.000000	78.965517	0.000000	-1.000000	-1.000000	1454586.000000	1769636720.748538
-8796.060000	12966.255000	17107.920000	31214.655000	6907.635000	-8905.455000	-18164.970000	-14867.460000	9.462774	12.693149	14.838210	15.534131	13.947286	10.011552	2.230263	4.743576	-7.538440	5.157880	-6.729660	-0.932981	-0.087463	0.232421	-1.000000	-1.000000	-1.000000	-1.000000	-1.000000	-1.000000	-1.000000	78.965517	0.000000	-1.000000	-1.000000	1454587.000000	1769636720.752561
-8778.645000	12990.060000	17138.070000	31268.655000	6960.960000	-8866.755000	-18159.075000	-14860.440000	7.146536	11.076403	17.591845	12.979468	7.125359	9.175606	3.515481	3.236266	-7.538440	5.157880	-6.729660	-0.932981	-0.087463	0.232421	-1.000000	-1.000000	-1.000000	-1.000000	-1.000000	-1.000000	-1.000000	78.965517	0.000000	-1.000000	-1.000000	1454588.000000	1769636720.752572
-8745.210000	13008.555000	17151.660000	31279.680000	6986.070000	-8812.395000	-18099.900000	-14824.305000	1.309193	5.977775	13.821039	3.196561	-4.949752	4.688583	5.885734	0.135635	-7.538440	5.157880	-6.729660	-0.932981	-0.087463	0.232421	-1.000000	-1.000000	-1.000000	-1.000000	-1.000000	-1.000000	-1.000000	78.965517	0.000000	-1.000000	-1.000000	1454589.000000	1769636720.760698
-8746.155000	13007.835000	17149.005000	31273.695000	6978.465000	-8817.840000	-18102.330000	-14825.025000	-2.610924	1.499850	6.904667	-4.165701	-9.757220	4.788064	11.374364	-0.898256	-7.538440	5.157880	-6.729660	-0.932981	-0.087463	0.232421	-1.000000	-1.000000	-1.000000	-1.000000	-1.000000	-1.000000	-1.000000	78.965517	0.000000	-1.000000	-1.000000	1454590.000000	1769636720.760710
-8774.640000	12976.515000	17116.695000	31244.580000	6950.520000	-8839.395000	-18090.630000	-14837.355000	-3.125831	-1.624739	-1.060301	-6.095304	-5.249552	9.563055	18.034545	0.841459	-7.538440	5.157880	-6.729660	-0.932981	-0.087463	0.232421	-1.000000	-1.000000	-1.000000	-1.000000	-1.000000	-1.000000	-1.000000	78.965517	0.000000	-1.000000	-1.000000	1454591.000000	1769636720.760724
-8795.250000	12965.535000	17099.235000	31221.945000	6926.355000	-8862.795000	-18104.805000	-14851.035000	-3.430311	-5.478220	-9.475696	-6.124304	0.798560	11.055258	19.647791	2.262176	-7.538440	5.157880	-6.729660	-0.932981	-0.087463	0.232421	-1.000000	-1.000000	-1.000000	-1.000000	-1.000000	-1.000000	-1.000000	78.965517	0.000000	-1.000000	-1.000000	1454592.000000	1769636720.760729
-8820.900000	12952.485000	17079.705000	31191.795000	6885.990000	-8905.320000	-18117.495000	-14869.260000	-6.028782	-10.426842	-16.884921	-8.296119	0.487104	2.921626	11.588338	0.617941	-7.538440	5.157880	-6.729660	-0.932981	-0.087463	0.232421	-1.000000	-1.000000	-1.000000	-1.000000	-1.000000	-1.000000	-1.000000	78.965517	0.000000	-1.000000	-1.000000	1454593.000000	1769636720.764582
-8827.605000	12943.260000	17070.885000	31182.930000	6869.385000	-8944.425000	-18155.610000	-14880.690000	-9.835089	-13.836773	-20.689429	-12.717321	-6.941877	-13.250015	-4.537826	-3.894783	-7.538440	5.157880	-6.729660	-0.932981	-0.087463	0.232421	-1.000000	-1.000000	-1.000000	-1.000000	-1.000000	-1.000000	-1.000000	78.965517	0.000000	-1.000000	-1.000000	1454594.000000	1769636720.764593
-8795.655000	12964.500000	17103.915000	31230.765000	6922.800000	-8915.490000	-18191.340000	-14868.540000	-11.172639	-12.945026	-18.500131	-13.937726	-13.068467	-27.329453	-21.358224	-8.228826	-7.538440	5.157880	-6.729660	-0.932981	-0.087463	0.232421	-1.000000	-1.000000	-1.000000	-1.000000	-1.000000	-1.000000	-1.000000	78.965517	0.000000	-1.000000	-1.000000	1454595.000000	1769636720.769184
-8814.915000	12956.895000	17082.360000	31192.020000	6891.885000	-8928.900000	-18183.195000	-14872.635000	-7.288475	-7.835349	-10.570619	-7.100301	-8.786622	-27.706315	-29.923819	-8.582723	-7.538440	5.157880	-6.729660	-0.932981	-0.087463	0.232421	-1.000000	-1.000000	-1.000000	-1.000000	-1.000000	-1.000000	-1.000000	78.965517	0.000000	-1.000000	-1.000000	1454596.000000	1769636720.769197
-8848.305000	12985.155000	17095.005000	31171.275000	6853.095000	-8981.415000	-18218.025000	-14914.035000	-0.578465	-1.164117	-0.889210	3.540214	2.921193	-13.943260	-25.837024	-4.826770	-29.604400	2.273740	-2.136400	-0.941709	-0.078552	0.219177	-1.000000	-1.000000	-1.000000	-1.000000	-1.000000	-1.000000	-1.000000	78.965517	0.000000	-1.000000	-1.000000	1454597.000000	1769636720.772595
-8772.570000	13061.970000	17167.275000	31252.545000	6944.535000	-8886.015000	-18185.355000	-14871.015000	4.628329	5.965384	7.758307	10.884477	12.201541	3.967778	-12.565966	-0.548471	-29.604400	2.273740	-2.136400	-0.941709	-0.078552	0.219177	-1.000000	-1.000000	-1.000000	-1.000000	-1.000000	-1.000000	-1.000000	78.965517	0.000000	-1.000000	-1.000000	1454598.000000	1769636720.772607
-8723.745000	13038.435000	17149.320000	31296.780000	7015.005000	-8814.060000	-18135.090000	-14812.605000	9.286545	14.031856	16.013224	15.672945	17.504709	20.051834	3.996279	3.586092	-29.604400	2.273740	-2.136400	-0.941709	-0.078552	0.219177	-1.000000	-1.000000	-1.000000	-1.000000	-1.000000	-1.000000	-1.000000	78.965517	0.000000	-1.000000	-1.000000	1454599.000000	1769636720.776356
-8760.870000	12933.495000	17078.130000	31280.445000	7014.330000	-8814.375000	-18143.370000	-14830.245000	15.726864	18.741441	21.566604	20.837363	22.514604	33.459870	19.625707	9.755406	-29.604400	2.273740	-2.136400	-0.941709	-0.078552	0.219177	-1.000000	-1.000000	-1.000000	-1.000000	-1.000000	-1.000000	-1.000000	78.965517	0.000000	-1.000000	-1.000000	1454600.000000	1769636720.776367
-8761.455000	12943.620000	17097.705000	31278.420000	7000.515000	-8812.845000	-18103.995000	-14822.280000	20.089458	13.163420	19.066462	22.890129	24.541421	39.231562	29.453721	15.925228	-29.604400	2.273740	-2.136400	-0.941709	-0.078552	0.219177	-1.000000	-1.000000	-1.000000	-1.000000	-1.000000	-1.000000	-1.000000	78.965517	0.000000	-1.000000	-1.000000	1454601.000000	1769636720.781044
-8769.555000	12939.300000	17095.905000	31235.490000	6951.780000	-8831.475000	-18081.945000	-14824.035000	16.782991	-1.014859	8.731798	16.038814	16.821187	31.187471	30.095156	16.971881	-29.604400	2.273740	-2.136400	-0.941709	-0.078552	0.219177	-1.000000	-1.000000	-1.000000	-1.000000	-1.000000	-1.000000	-1.000000	78.965517	0.000000	-1.000000	-1.000000	1454602.000000	1769636720.781056
-8774.685000	12928.365000	17095.725000	31259.565000	6972.840000	-8839.350000	-18088.470000	-14829.930000	5.385315	-13.935668	-3.340677	0.031936	-1.538345	10.237375	22.601663	10.669187	-29.604400	2.273740	-2.136400	-0.941709	-0.078552	0.219177	-1.000000	-1.000000	-1.000000	-1.000000	-1.000000	-1.000000	-1.000000	78.965517	0.000000	-1.000000	-1.000000	1454603.000000	1769636720.784369
-8705.070000	13037.850000	17188.470000	31329.315000	7034.355000	-8804.655000	-18103.725000	-14801.265000	-8.871870	-17.233983	-11.076242	-17.262926	-21.731909	-14.913222	9.897427	-0.602393	-29.604400	2.273740	-2.136400	-0.941709	-0.078552	0.219177	-1.000000	-1.000000	-1.000000	-1.000000	-1.000000	-1.000000	-1.000000	78.965517	0.000000	-1.000000	-1.000000	1454604.000000	1769636720.784383
-8683.200000	13080.735000	17215.425000	31334.625000	7037.730000	-8776.890000	-18078.930000	-14785.965000	-17.410878	-7.855237	-10.335413	-24.982470	-31.428231	-32.344315	-4.816903	-10.867135	-29.604400	2.273740	-2.136400	-0.941709	-0.078552	0.219177	-1.000000	-1.000000	-1.000000	-1.000000	-1.000000	-1.000000	-1.000000	78.965517	0.000000	-1.000000	-1.000000	1454605.000000	1769636720.788368
-8790.480000	12976.020000	17112.060000	31225.365000	6932.655000	-8854.470000	-18112.320000	-14838.975000	-16.959897	7.278750	-4.011854	-21.202907	-27.477376	-35.666788	-17.826307	-15.519113	-29.604400	2.273740	-2.136400	-0.941709	-0.078552	0.219177	-1.000000	-1.000000	-1.000000	-1.000000	-1.000000	-1.000000	-1.000000	78.965517	0.000000	-1.000000	-1.000000	1454606.000000	1769636720.788382
-8815.095000	12962.565000	17113.815000	31243.365000	6953.220000	-8832.870000	-18110.655000	-14866.650000	-15.296136	12.640744	-2.694910	-15.617522	-19.369407	-29.934094	-26.762107	-16.654054	-34.273960	-3.937080	-0.732480	-0.937681	-0.101501	0.219116	-1.000000	-1.000000	-1.000000	-1.000000	-1.000000	-1.000000	-1.000000	78.965517	0.000000	-1.000000	-1.000000	1454607.000000	1769636720.792399
-8773.875000	12986.955000	17140.635000	31288.815000	6996.690000	-8803.890000	-18089.280000	-14848.110000	-18.095146	3.297365	-9.131291	-13.955945	-14.483009	-22.439217	-30.270187	-18.021542	-34.273960	-3.937080	-0.732480	-0.937681	-0.101501	0.219116	-1.000000	-1.000000	-1.000000	-1.000000	-1.000000	-1.000000	-1.000000	78.965517	0.000000	-1.000000	-1.000000	1454608.000000	1769636720.792412
-8730.855000	13062.060000	17198.730000	31323.195000	7022.745000	-8784.045000	-18061.965000	-14828.670000	-17.538104	-6.556786	-11.941226	-9.692046	-8.412677	-12.671360	-25.777568	-16.818537	-34.273960	-3.937080	-0.732480	-0.937681	-0.101501	0.219116	-1.000000	-1.000000	-1.000000	-1.000000	-1.000000	-1.000000	-1.000000	78.965517	0.000000	-1.000000	-1.000000	1454609.000000	1769636720.796485
-8762.490000	12997.170000	17134.830000	31263.435000	6972.570000	-8816.490000	-18060.750000	-14826.645000	-5.025043	-4.063923	-3.335523	2.577338	4.185638	1.642713	-12.756096	-7.934946	-34.273960	-3.937080	-0.732480	-0.937681	-0.101501	0.219116	-1.000000	-1.000000	-1.000000	-1.000000	-1.000000	-1.000000	-1.000000	78.965517	0.000000	-1.000000	-1.000000	1454610.000000	1769636720.796496
-8788.590000	12968.145000	17094.735000	31214.115000	6930.180000	-8850.690000	-18102.690000	-14834.475000	14.171068	5.442898	8.767489	16.478409	18.864886	16.495252	3.257759	6.984156	-34.273960	-3.937080	-0.732480	-0.937681	-0.101501	0.219116	-1.000000	-1.000000	-1.000000	-1.000000	-1.000000	-1.000000	-1.000000	78.965517	0.000000	-1.000000	-1.000000	1454611.000000	1769636720.800333
-8787.600000	13028.445000	17123.895000	31204.215000	6914.880000	-8864.595000	-18115.965000	-14845.455000	26.594970	9.525374	12.242422	20.905877	25.462327	24.430453	14.533461	19.895554	-34.273960	-3.937080	-0.732480	-0.937681	-0.101501	0.219116	-1.000000	-1.000000	-1.000000	-1.000000	-1.000000	-1.000000	-1.000000	78.965517	0.000000	-1.000000	-1.000000	1454612.000000	1769636720.800342
-8826.795000	13012.020000	17108.280000	31185.540000	6890.580000	-8881.605000	-18083.430000	-14866.065000	23.628326	3.726268	4.356037	11.837263	18.369074	21.294356	18.178777	23.054809	-34.273960	-3.937080	-0.732480	-0.937681	-0.101501	0.219116	-1.000000	-1.000000	-1.000000	-1.000000	-1.000000	-1.000000	-1.000000	78.965517	0.000000	-1.000000	-1.000000	1454613.000000	1769636720.804465
-8878.680000	12866.445000	17010.270000	31167.990000	6888.240000	-8867.430000	-18026.280000	-14891.355000	7.245810	-9.865257	-9.267065	-3.492388	2.873732	10.209665	17.502546	14.865012	-34.273960	-3.937080	-0.732480	-0.937681	-0.101501	0.219116	-1.000000	-1.000000	-1.000000	-1.000000	-1.000000	-1.000000	-1.000000	78.965517	0.000000	-1.000000	-1.000000	1454614.000000	1769636720.804478
-8834.220000	12798.945000	16997.400000	31230.405000	6960.510000	-8809.290000	-18019.350000	-14868.495000	-10.466256	-26.157123	-20.159714	-11.683375	-7.652315	0.580533	16.859203	1.782282	-34.273960	-3.937080	-0.732480	-0.937681	-0.101501	0.219116	-1.000000	-1.000000	-1.000000	-1.000000	-1.000000	-1.000000	-1.000000	78.965517	0.000000	-1.000000	-1.000000	1454615.000000	1769636720.808462
-8768.655000	12944.790000	17116.335000	31306.860000	7025.310000	-8778.195000	-18043.065000	-14846.580000	-15.331721	-33.637519	-19.028433	-4.446259	-3.962378	-0.409934	15.358404	-6.696190	-34.273960	-3.937080	-0.732480	-0.937681	-0.101501	0.219116	-1.000000	-1.000000	-1.000000	-1.000000	-1.000000	-1.000000	-1.000000	78.965517	0.000000	-1.000000	-1.000000	1454616.000000	1769636720.808471
-8674.785000	13094.865000	17259.525000	31415.670000	7121.835000	-8730.180000	-18132.750000	-14803.020000	-3.012010	-18.037132	0.249821	14.359466	10.593556	5.287792	6.947824	-6.000622	-15.260000	6.241340	1.297100	-0.928403	-0.121032	0.233093	-1.000000	-1.000000	-1.000000	-1.000000	-1.000000	-1.000000	-1.000000	78.965517	0.000000	-1.000000	-1.000000	1454617.000000	1769636720.812500
-8643.915000	13113.225000	17261.955000	31403.295000	7088.895000	-8781.615000	-18166.500000	-14754.420000	17.887170	20.198460	31.595025	32.405618	24.433979	10.034945	-11.396861	1.616022	-15.260000	6.241340	1.297100	-0.928403	-0.121032	0.233093	-1.000000	-1.000000	-1.000000	-1.000000	-1.000000	-1.000000	-1.000000	78.965517	0.000000	-1.000000	-1.000000	1454618.000000	1769636720.812508
-8794.305000	12928.905000	17061.885000	31203.900000	6913.080000	-8861.445000	-18042.480000	-14820.210000	31.065826	56.492734	53.170281	34.856742	24.569916	6.824103	-30.169134	9.437245	-15.260000	6.241340	1.297100	-0.928403	-0.121032	0.233093	-1.000000	-1.000000	-1.000000	-1.000000	-1.000000	-1.000000	-1.000000	78.965517	0.000000	-1.000000	-1.000000	1454619.000000	1769636720.819322
-8824.455000	12903.165000	17030.475000	31171.680000	6886.620000	-8884.080000	-18106.380000	-14859.000000	22.334215	60.547634	42.808330	12.562543	4.101074	-5.593961	-32.468911	9.210233	-15.260000	6.241340	1.297100	-0.928403	-0.121032	0.233093	-1.000000	-1.000000	-1.000000	-1.000000	-1.000000	-1.000000	-1.000000	78.965517	0.000000	-1.000000	-1.000000	1454620.000000	1769636720.819330
-8792.325000	12963.465000	17101.845000	31243.545000	6945.210000	-8868.015000	-18156.060000	-14861.790000	-6.134207	26.121404	2.436010	-24.752878	-27.099267	-19.995921	-15.173763	-1.664622	-15.260000	6.241340	1.297100	-0.928403	-0.121032	0.233093	-1.000000	-1.000000	-1.000000	-1.000000	-1.000000	-1.000000	-1.000000	78.965517	0.000000	-1.000000	-1.000000	1454621.000000	1769636720.821874
-8819.910000	12930.480000	17066.520000	31210.965000	6922.260000	-8866.710000	-18100.080000	-14868.405000	-34.466428	-22.172474	-40.247492	-51.711602	-46.818524	-25.920936	7.076363	-15.716569	-15.260000	6.241340	1.297100	-0.928403	-0.121032	0.233093	-1.000000	-1.000000	-1.000000	-1.000000	-1.000000	-1.000000	-1.000000	78.965517	0.000000	-1.000000	-1.000000	1454622.000000	1769636720.821885
-8862.390000	12881.610000	17008.965000	31152.195000	6872.310000	-8892.720000	-18097.605000	-14881.815000	-43.958822	-51.799216	-57.858297	-51.883346	-42.487798	-19.421997	20.693783	-22.397271	-15.260000	6.241340	1.297100	-0.928403	-0.121032	0.233093	-1.000000	-1.000000	-1.000000	-1.000000	-1.000000	-1.000000	-1.000000	78.965517	0.000000	-1.000000	-1.000000	1454623.000000	1769636720.824587
-8840.880000	12929.580000	17061.300000	31203.405000	6925.905000	-8841.735000	-18103.410000	-14878.170000	-32.357506	-48.078748	-44.470290	-30.417017	-21.005567	-5.835804	22.402787	-17.805456	-15.260000	6.241340	1.297100	-0.928403	-0.121032	0.233093	-1.000000	-1.000000	-1.000000	-1.000000	-1.000000	-1.000000	-1.000000	78.965517	0.000000	-1.000000	-1.000000	1454624.000000	1769636720.824597
-8786.520000	12980.745000	17119.710000	31260.960000	6974.055000	-8806.545000	-18072.495000	-14833.395000	-10.164528	-21.153529	-13.769455	-2.421401	3.297682	7.330075	16.253989	-5.728498	-15.260000	6.241340	1.297100	-0.928403	-0.121032	0.233093	-1.000000	-1.000000	-1.000000	-1.000000	-1.000000	-1.000000	-1.000000	78.965517	0.000000	-1.000000	-1.000000	1454625.000000	1769636720.829998
-8807.985000	12946.815000	17100.405000	31254.840000	6966.765000	-8810.145000	-18029.790000	-14845.545000	9.955986	5.717929	13.955471	19.578208	20.338078	15.957390	10.393694	6.965454	-15.260000	6.241340	1.297100	-0.928403	-0.121032	0.233093	-1.000000	-1.000000	-1.000000	-1.000000	-1.000000	-1.000000	-1.000000	78.965517	0.000000	-1.000000	-1.000000	1454626.000000	1769636720.830012
-8806.815000	12951.180000	17098.110000	31248.630000	6959.430000	-8821.170000	-18045.855000	-14863.320000	20.608723	17.167416	26.609976	30.640565	27.683744	19.316802	8.949555	13.851174	4.883200	6.256600	-9.629060	-0.937009	-0.136840	0.238403	-1.000000	-1.000000	-1.000000	-1.000000	-1.000000	-1.000000	-1.000000	78.965517	0.000000	-1.000000	-1.000000	1454627.000000	1769636720.832949
-8761.995000	12994.965000	17133.795000	31285.665000	6997.770000	-8798.175000	-18095.760000	-14835.150000	24.544837	18.094822	28.719923	35.344219	30.706789	19.571336	5.859321	13.806573	4.883200	6.256600	-9.629060	-0.937009	-0.136840	0.238403	-1.000000	-1.000000	-1.000000	-1.000000	-1.000000	-1.000000	-1.000000	78.965517	0.000000	-1.000000	-1.000000	1454628.000000	1769636720.832959
-8758.305000	12995.865000	17131.095000	31279.095000	6983.055000	-8831.790000	-18127.620000	-14821.920000	27.913972	19.676495	29.098249	38.095128	33.130442	17.938219	-4.934913	11.937554	4.883200	6.256600	-9.629060	-0.937009	-0.136840	0.238403	-1.000000	-1.000000	-1.000000	-1.000000	-1.000000	-1.000000	-1.000000	78.965517	0.000000	-1.000000	-1.000000	1454629.000000	1769636720.837726
-8800.245000	12963.375000	17097.705000	31238.550000	6933.285000	-8891.550000	-18141.480000	-14866.920000	27.932551	20.185160	24.922987	32.604719	28.173682	10.675225	-19.033871	10.974722	4.883200	6.256600	-9.629060	-0.937009	-0.136840	0.238403	-1.000000	-1.000000	-1.000000	-1.000000	-1.000000	-1.000000	-1.000000	78.965517	0.000000	-1.000000	-1.000000	1454630.000000	1769636720.837739
-8639.730000	13149.630000	17277.930000	31409.145000	7092.900000	-8774.370000	-18214.380000	-14788.800000	20.161293	15.429965	13.193835	14.998826	11.533246	-3.272168	-29.069291	8.822806	4.883200	6.256600	-9.629060	-0.937009	-0.136840	0.238403	-1.000000	-1.000000	-1.000000	-1.000000	-1.000000	-1.000000	-1.000000	78.965517	0.000000	-1.000000	-1.000000	1454631.000000	1769636720.841860
-8638.245000	13172.310000	17299.485000	31413.285000	7093.485000	-8734.230000	-18133.155000	-14771.385000	9.891991	12.378951	3.376160	-3.942606	-6.773302	-14.813074	-30.932519	5.557635	4.883200	6.256600	-9.629060	-0.937009	-0.136840	0.238403	-1.000000	-1.000000	-1.000000	-1.000000	-1.000000	-1.000000	-1.000000	78.965517	0.000000	-1.000000	-1.000000	1454632.000000	1769636720.841871
-8755.065000	13027.410000	17151.930000	31245.885000	6912.045000	-8878.455000	-18174.960000	-14838.165000	-0.604446	10.907140	-1.967057	-18.019248	-20.515950	-18.302906	-21.193582	1.347151	4.883200	6.256600	-9.629060	-0.937009	-0.136840	0.238403	-1.000000	-1.000000	-1.000000	-1.000000	-1.000000	-1.000000	-1.000000	78.965517	0.000000	-1.000000	-1.000000	1454633.000000	1769636720.844448
-8804.835000	12926.655000	17059.905000	31190.805000	6871.860000	-8900.145000	-18152.640000	-14865.480000	-19.255043	-4.960245	-17.016306	-36.041412	-37.219345	-21.155546	-1.575165	-7.867634	4.883200	6.256600	-9.629060	-0.937009	-0.136840	0.238403	-1.000000	-1.000000	-1.000000	-1.000000	-1.000000	-1.000000	-1.000000	78.965517	0.000000	-1.000000	-1.000000	1454634.000000	1769636720.844501
-8811.765000	12916.935000	17044.515000	31205.745000	6918.480000	-8885.340000	-18148.410000	-14865.390000	-45.027055	-38.723051	-45.537005	-57.671981	-54.949200	-26.627633	18.815744	-21.816519	4.883200	6.256600	-9.629060	-0.937009	-0.136840	0.238403	-1.000000	-1.000000	-1.000000	-1.000000	-1.000000	-1.000000	-1.000000	78.965517	0.000000	-1.000000	-1.000000	1454635.000000	1769636720.850068
-8807.670000	12926.835000	17065.440000	31236.750000	6961.815000	-8856.855000	-18126.495000	-14860.215000	-60.246687	-66.892408	-66.187245	-63.212228	-54.264629	-24.657963	31.277570	-30.819466	4.883200	6.256600	-9.629060	-0.937009	-0.136840	0.238403	-1.000000	-1.000000	-1.000000	-1.000000	-1.000000	-1.000000	-1.000000	78.965517	0.000000	-1.000000	-1.000000	1454636.000000	1769636720.850080
-8800.515000	12948.885000	17082.630000	31236.885000	6947.055000	-8860.455000	-18113.580000	-14860.170000	-49.699536	-63.990061	-56.180509	-38.172603	-24.382365	-7.797083	33.499968	-25.993016	39.599700	9.156000	-15.382080	-0.937620	-0.142151	0.230895	-1.000000	-1.000000	-1.000000	-1.000000	-1.000000	-1.000000	-1.000000	78.965517	0.000000	-1.000000	-1.000000	1454637.000000	1769636720.852510
-8814.060000	12942.540000	17072.235000	31216.680000	6922.575000	-8875.620000	-18116.145000	-14873.175000	-16.324452	-28.104791	-16.306594	7.392326	20.228410	17.570416	28.132974	-8.686407	39.599700	9.156000	-15.382080	-0.937620	-0.142151	0.230895	-1.000000	-1.000000	-1.000000	-1.000000	-1.000000	-1.000000	-1.000000	78.965517	0.000000	-1.000000	-1.000000	1454638.000000	1769636720.852519
-8809.785000	12954.420000	17085.735000	31224.690000	6925.680000	-8874.090000	-18115.740000	-14872.365000	22.634596	20.482353	31.326416	48.246615	53.770502	37.336539	17.647559	11.869632	39.599700	9.156000	-15.382080	-0.937620	-0.142151	0.230895	-1.000000	-1.000000	-1.000000	-1.000000	-1.000000	-1.000000	-1.000000	78.965517	0.000000	-1.000000	-1.000000	1454639.000000	1769636720.856556
-8807.715000	12950.190000	17090.730000	31236.210000	6935.040000	-8872.290000	-18119.115000	-14873.580000	47.627670	55.421144	61.135769	63.547475	59.084448	39.504529	3.389884	25.208776	39.599700	9.156000	-15.382080	-0.937620	-0.142151	0.230895	-1.000000	-1.000000	-1.000000	-1.000000	-1.000000	-1.000000	-1.000000	78.965517	0.000000	-1.000000	-1.000000	1454640.000000	1769636720.856564
-8806.545000	12948.570000	17082.135000	31229.685000	6932.295000	-8871.255000	-18114.840000	-14871.645000	49.103602	61.429147	60.760983	49.696615	37.550230	22.451621	-12.311333	25.771174	39.599700	9.156000	-15.382080	-0.937620	-0.142151	0.230895	-1.000000	-1.000000	-1.000000	-1.000000	-1.000000	-1.000000	-1.000000	78.965517	0.000000	-1.000000	-1.000000	1454641.000000	1769636720.864451
-8805.735000	12961.710000	17088.255000	31228.110000	6930.360000	-8871.480000	-18118.665000	-14873.805000	33.688093	44.162132	38.429007	21.578542	7.512876	-1.447566	-25.262995	16.814811	39.599700	9.156000	-15.382080	-0.937620	-0.142151	0.230895	-1.000000	-1.000000	-1.000000	-1.000000	-1.000000	-1.000000	-1.000000	78.965517	0.000000	-1.000000	-1.000000	1454642.000000	1769636720.864460
-8800.830000	12963.735000	17094.195000	31237.380000	6943.455000	-8856.315000	-18115.335000	-14870.700000	15.223563	21.374718	13.036076	-1.690601	-12.009903	-16.326344	-30.703888	6.184848	39.599700	9.156000	-15.382080	-0.937620	-0.142151	0.230895	-1.000000	-1.000000	-1.000000	-1.000000	-1.000000	-1.000000	-1.000000	78.965517	0.000000	-1.000000	-1.000000	1454643.000000	1769636720.866264
-8797.455000	12952.935000	17084.430000	31234.320000	6945.930000	-8844.570000	-18103.500000	-14863.140000	1.974505	4.686344	-3.310036	-12.259026	-16.552740	-16.894377	-26.740352	-1.025430	39.599700	9.156000	-15.382080	-0.937620	-0.142151	0.230895	-1.000000	-1.000000	-1.000000	-1.000000	-1.000000	-1.000000	-1.000000	78.965517	0.000000	-1.000000	-1.000000	1454644.000000	1769636720.866270
-8802.180000	12943.035000	17076.330000	31225.005000	6934.365000	-8862.165000	-18118.980000	-14868.810000	-5.705887	-6.216470	-11.059743	-13.990440	-13.435972	-9.202667	-15.595068	-4.278979	39.599700	9.156000	-15.382080	-0.937620	-0.142151	0.230895	-1.000000	-1.000000	-1.000000	-1.000000	-1.000000	-1.000000	-1.000000	78.965517	0.000000	-1.000000	-1.000000	1454645.000000	1769636720.868697
-8799.840000	12941.730000	17082.630000	31235.670000	6942.240000	-8869.500000	-18146.430000	-14872.815000	-10.682442	-15.696966	-15.774175	-13.272267	-10.004494	-2.048894	-2.237693	-5.457127	39.599700	9.156000	-15.382080	-0.937620	-0.142151	0.230895	-1.000000	-1.000000	-1.000000	-1.000000	-1.000000	-1.000000	-1.000000	78.965517	0.000000	-1.000000	-1.000000	1454646.000000	1769636720.868707
-8767.125000	12988.935000	17127.945000	31275.540000	6977.520000	-8838.135000	-18123.435000	-14855.535000	-13.778006	-23.436737	-18.975151	-11.802945	-7.194025	0.939166	8.467807	-5.715106	25.575760	16.694440	1.632820	-0.926878	-0.106262	0.235473	-1.000000	-1.000000	-1.000000	-1.000000	-1.000000	-1.000000	-1.000000	78.965517	0.000000	-1.000000	-1.000000	1454647.000000	1769636720.872552
-8742.285000	13023.180000	17160.570000	31304.070000	7006.500000	-8793.315000	-18052.920000	-14837.040000	-13.559566	-24.808219	-18.043955	-8.252825	-3.142245	1.706807	15.706834	-4.662758	25.575760	16.694440	1.632820	-0.926878	-0.106262	0.235473	-1.000000	-1.000000	-1.000000	-1.000000	-1.000000	-1.000000	-1.000000	78.965517	0.000000	-1.000000	-1.000000	1454648.000000	1769636720.872562
-8775.450000	12984.435000	17123.985000	31271.130000	6976.395000	-8819.955000	-18080.865000	-14853.645000	-10.746653	-18.662662	-13.012955	-4.123710	0.643114	1.799295	20.680237	-2.860181	25.575760	16.694440	1.632820	-0.926878	-0.106262	0.235473	-1.000000	-1.000000	-1.000000	-1.000000	-1.000000	-1.000000	-1.000000	78.965517	0.000000	-1.000000	-1.000000	1454649.000000	1769636720.876592
-8797.320000	12950.370000	17087.985000	31237.380000	6940.305000	-8866.890000	-18138.645000	-14865.255000	-8.301113	-9.805794	-7.752631	-2.731991	0.875920	-0.170958	20.206844	-2.149357	25.575760	16.694440	1.632820	-0.926878	-0.106262	0.235473	-1.000000	-1.000000	-1.000000	-1.000000	-1.000000	-1.000000	-1.000000	78.965517	0.000000	-1.000000	-1.000000	1454650.000000	1769636720.876604
-8793.315000	12944.295000	17078.085000	31226.760000	6932.025000	-8866.440000	-18117.810000	-14859.855000	-7.181597	-3.072023	-4.805805	-4.417346	-2.623428	-4.931722	10.428378	-2.977556	25.575760	16.694440	1.632820	-0.926878	-0.106262	0.235473	-1.000000	-1.000000	-1.000000	-1.000000	-1.000000	-1.000000	-1.000000	78.965517	0.000000	-1.000000	-1.000000	1454651.000000	1769636720.880677
-8784.225000	12957.750000	17086.860000	31232.160000	6934.860000	-8863.155000	-18110.970000	-14855.310000	-5.412406	1.200013	-2.898104	-6.358717	-6.892273	-9.841824	-4.616858	-3.746414	25.575760	16.694440	1.632820	-0.926878	-0.106262	0.235473	-1.000000	-1.000000	-1.000000	-1.000000	-1.000000	-1.000000	-1.000000	78.965517	0.000000	-1.000000	-1.000000	1454652.000000	1769636720.880688
-8799.570000	12950.955000	17082.990000	31228.560000	6932.385000	-8865.810000	-18112.590000	-14866.605000	-1.407895	5.174918	0.566567	-5.458563	-8.504363	-11.024303	-15.960309	-3.085585	25.575760	16.694440	1.632820	-0.926878	-0.106262	0.235473	-1.000000	-1.000000	-1.000000	-1.000000	-1.000000	-1.000000	-1.000000	78.965517	0.000000	-1.000000	-1.000000	1454653.000000	1769636720.884589
-8804.475000	12949.830000	17084.745000	31230.855000	6937.020000	-8854.380000	-18097.605000	-14868.495000	3.529712	9.173191	5.792116	-0.885489	-5.542247	-6.510654	-17.607505	-1.267166	25.575760	16.694440	1.632820	-0.926878	-0.106262	0.235473	-1.000000	-1.000000	-1.000000	-1.000000	-1.000000	-1.000000	-1.000000	78.965517	0.000000	-1.000000	-1.000000	1454654.000000	1769636720.884599
-8855.640000	12914.730000	17054.865000	31203.135000	6911.595000	-8857.170000	-18024.255000	-14894.730000	6.145253	10.568523	9.636948	4.824738	0.818824	2.457869	-8.447626	0.509629	25.575760	16.694440	1.632820	-0.926878	-0.106262	0.235473	-1.000000	-1.000000	-1.000000	-1.000000	-1.000000	-1.000000	-1.000000	78.965517	0.000000	-1.000000	-1.000000	1454655.000000	1769636720.890573
-8931.465000	12844.035000	16989.075000	31145.445000	6875.280000	-8855.505000	-17951.220000	-14939.280000	2.762569	5.389323	7.231002	6.405425	5.621100	10.875139	7.849458	0.301665	25.575760	16.694440	1.632820	-0.926878	-0.106262	0.235473	-1.000000	-1.000000	-1.000000	-1.000000	-1.000000	-1.000000	-1.000000	78.965517	0.000000	-1.000000	-1.000000	1454656.000000	1769636720.890583
-8731.080000	13058.685000	17199.180000	31339.260000	7028.010000	-8817.345000	-18165.960000	-14856.525000	-4.345402	-4.166306	-0.360829	3.098362	6.277560	13.324827	19.504465	-2.036522	-19.700660	14.176540	2.151660	-0.937620	-0.070923	0.248596	-1.000000	-1.000000	-1.000000	-1.000000	-1.000000	-1.000000	-1.000000	78.965517	0.000000	-1.000000	-1.000000	1454657.000000	1769636720.894087
-8679.375000	13128.795000	17262.585000	31384.575000	7059.555000	-8799.210000	-18157.455000	-14822.145000	-2.505789	-4.338850	-0.474876	4.760069	8.993116	10.509673	12.685063	-1.282861	-19.700660	14.176540	2.151660	-0.937620	-0.070923	0.248596	-1.000000	-1.000000	-1.000000	-1.000000	-1.000000	-1.000000	-1.000000	78.965517	0.000000	-1.000000	-1.000000	1454658.000000	1769636720.894101
-8794.035000	13024.305000	17139.285000	31245.750000	6946.920000	-8861.895000	-18154.350000	-14876.055000	13.168163	11.337470	12.985474	15.823773	16.951991	6.970032	-9.237218	5.846904	-19.700660	14.176540	2.151660	-0.937620	-0.070923	0.248596	-1.000000	-1.000000	-1.000000	-1.000000	-1.000000	-1.000000	-1.000000	78.965517	0.000000	-1.000000	-1.000000	1454659.000000	1769636720.896612
-8788.275000	13058.055000	17160.345000	31244.715000	6941.385000	-8875.575000	-18183.420000	-14877.720000	26.717533	27.146443	25.091116	22.586565	19.885043	2.842861	-27.405730	12.886200	-19.700660	14.176540	2.151660	-0.937620	-0.070923	0.248596	-1.000000	-1.000000	-1.000000	-1.000000	-1.000000	-1.000000	-1.000000	78.965517	0.000000	-1.000000	-1.000000	1454660.000000	1769636720.896622
-8780.985000	13018.680000	17136.000000	31253.580000	6943.140000	-8880.120000	-18171.945000	-14865.930000	22.705390	25.283915	20.105943	13.064118	9.133846	-3.967415	-29.358579	12.262847	-19.700660	14.176540	2.151660	-0.937620	-0.070923	0.248596	-1.000000	-1.000000	-1.000000	-1.000000	-1.000000	-1.000000	-1.000000	78.965517	0.000000	-1.000000	-1.000000	1454661.000000	1769636720.900709
-8809.920000	12879.495000	17042.625000	31243.680000	6951.060000	-8861.850000	-18140.175000	-14871.015000	3.814690	3.143116	-1.545784	-7.059020	-9.453018	-10.970235	-15.100245	4.692486	-19.700660	14.176540	2.151660	-0.937620	-0.070923	0.248596	-1.000000	-1.000000	-1.000000	-1.000000	-1.000000	-1.000000	-1.000000	78.965517	0.000000	-1.000000	-1.000000	1454662.000000	1769636720.900720
-8804.250000	12893.175000	17049.870000	31235.895000	6947.595000	-8858.475000	-18127.710000	-14864.940000	-17.065337	-29.175235	-28.545189	-24.333651	-23.475681	-13.024759	7.842440	-3.997948	-19.700660	14.176540	2.151660	-0.937620	-0.070923	0.248596	-1.000000	-1.000000	-1.000000	-1.000000	-1.000000	-1.000000	-1.000000	78.965517	0.000000	-1.000000	-1.000000	1454663.000000	1769636720.904678
-8802.765000	12933.135000	17078.805000	31237.200000	6942.780000	-8863.290000	-18123.030000	-14869.665000	-27.522302	-51.723589	-44.596016	-29.238130	-25.136483	-8.521035	26.598511	-8.599984	-19.700660	14.176540	2.151660	-0.937620	-0.070923	0.248596	-1.000000	-1.000000	-1.000000	-1.000000	-1.000000	-1.000000	-1.000000	78.965517	0.000000	-1.000000	-1.000000	1454664.000000	1769636720.904688
-8793.630000	12956.445000	17095.995000	31247.730000	6949.755000	-8858.025000	-18124.155000	-14869.710000	-22.990137	-47.396746	-38.294415	-20.815811	-15.756611	-1.186569	30.814100	-7.752955	-19.700660	14.176540	2.151660	-0.937620	-0.070923	0.248596	-1.000000	-1.000000	-1.000000	-1.000000	-1.000000	-1.000000	-1.000000	78.965517	0.000000	-1.000000	-1.000000	1454665.000000	1769636720.908478
-8806.770000	12943.755000	17082.135000	31233.600000	6938.730000	-8859.915000	-18111.195000	-14875.245000	-11.526405	-20.814415	-15.989422	-7.903389	-4.408696	3.749033	23.227837	-5.168058	-19.700660	14.176540	2.151660	-0.937620	-0.070923	0.248596	-1.000000	-1.000000	-1.000000	-1.000000	-1.000000	-1.000000	-1.000000	78.965517	0.000000	-1.000000	-1.000000	1454666.000000	1769636720.908490
-8827.110000	12925.935000	17064.810000	31215.870000	6919.245000	-8876.340000	-18105.885000	-14888.970000	-4.237791	8.071783	5.845163	0.107138	1.419362	4.568769	14.095087	-5.058287	-45.902080	12.436900	-0.976640	-0.954893	-0.058288	0.242614	-1.000000	-1.000000	-1.000000	-1.000000	-1.000000	-1.000000	-1.000000	78.965517	0.000000	-1.000000	-1.000000	1454667.000000	1769636720.912715
-8829.090000	12922.020000	17057.070000	31203.495000	6899.445000	-8910.000000	-18149.220000	-14896.890000	-1.312104	26.638568	19.595500	4.457885	3.688103	3.470339	6.478469	-6.346117	-45.902080	12.436900	-0.976640	-0.954893	-0.058288	0.242614	-1.000000	-1.000000	-1.000000	-1.000000	-1.000000	-1.000000	-1.000000	78.965517	0.000000	-1.000000	-1.000000	1454668.000000	1769636720.912728
-8818.605000	12943.710000	17083.665000	31232.520000	6932.610000	-8874.990000	-18128.115000	-14891.535000	3.571471	34.104089	27.048198	11.029357	7.884716	3.098477	-2.832155	-5.098864	-45.902080	12.436900	-0.976640	-0.954893	-0.058288	0.242614	-1.000000	-1.000000	-1.000000	-1.000000	-1.000000	-1.000000	-1.000000	78.965517	0.000000	-1.000000	-1.000000	1454669.000000	1769636720.916615
-8768.025000	12990.330000	17128.485000	31278.780000	6988.275000	-8813.655000	-18123.615000	-14857.965000	12.141791	34.339045	30.590271	19.832647	14.996905	5.214081	-13.482117	0.110825	-45.902080	12.436900	-0.976640	-0.954893	-0.058288	0.242614	-1.000000	-1.000000	-1.000000	-1.000000	-1.000000	-1.000000	-1.000000	78.965517	0.000000	-1.000000	-1.000000	1454670.000000	1769636720.916627
-8756.370000	12997.260000	17132.670000	31278.870000	6985.620000	-8815.365000	-18115.785000	-14846.805000	21.393975	32.336621	31.373044	26.137635	21.582641	9.616069	-21.298231	7.736379	-45.902080	12.436900	-0.976640	-0.954893	-0.058288	0.242614	-1.000000	-1.000000	-1.000000	-1.000000	-1.000000	-1.000000	-1.000000	78.965517	0.000000	-1.000000	-1.000000	1454671.000000	1769636720.920628
-8737.830000	13028.895000	17166.780000	31313.340000	7017.300000	-8785.215000	-18066.600000	-14834.070000	26.597684	28.481500	27.823397	25.448181	22.744410	12.620414	-22.777552	14.460209	-45.902080	12.436900	-0.976640	-0.954893	-0.058288	0.242614	-1.000000	-1.000000	-1.000000	-1.000000	-1.000000	-1.000000	-1.000000	78.965517	0.000000	-1.000000	-1.000000	1454672.000000	1769636720.920639
-8698.365000	13080.420000	17218.710000	31363.065000	7057.845000	-8772.120000	-18091.755000	-14817.240000	23.882701	18.145682	17.038022	17.133227	16.511567	10.511884	-17.173595	16.827477	-45.902080	12.436900	-0.976640	-0.954893	-0.058288	0.242614	-1.000000	-1.000000	-1.000000	-1.000000	-1.000000	-1.000000	-1.000000	78.965517	0.000000	-1.000000	-1.000000	1454673.000000	1769636720.924576
-8736.210000	13042.890000	17174.070000	31313.970000	7005.285000	-8838.090000	-18145.485000	-14843.565000	11.996658	-1.149176	-1.279157	3.161005	4.038589	2.055282	-7.587210	12.693663	-45.902080	12.436900	-0.976640	-0.954893	-0.058288	0.242614	-1.000000	-1.000000	-1.000000	-1.000000	-1.000000	-1.000000	-1.000000	78.965517	0.000000	-1.000000	-1.000000	1454674.000000	1769636720.924586
-8810.055000	12965.085000	17089.830000	31231.440000	6935.805000	-8867.745000	-18101.205000	-14875.740000	-8.251335	-26.918631	-24.878232	-15.558887	-13.571524	-11.889220	1.578510	1.639343	-45.902080	12.436900	-0.976640	-0.954893	-0.058288	0.242614	-1.000000	-1.000000	-1.000000	-1.000000	-1.000000	-1.000000	-1.000000	78.965517	0.000000	-1.000000	-1.000000	1454675.000000	1769636720.928696
-8825.715000	12946.950000	17076.015000	31220.190000	6927.795000	-8868.780000	-18119.295000	-14885.235000	-30.727523	-50.482931	-46.599415	-34.622152	-31.416747	-25.272129	8.517494	-12.650959	-45.902080	12.436900	-0.976640	-0.954893	-0.058288	0.242614	-1.000000	-1.000000	-1.000000	-1.000000	-1.000000	-1.000000	-1.000000	78.965517	0.000000	-1.000000	-1.000000	1454676.000000	1769636720.928707
-8791.560000	12975.300000	17110.710000	31254.030000	6956.055000	-8846.010000	-18123.255000	-14864.220000	-43.086816	-58.752822	-54.051585	-43.044726	-38.881093	-28.274627	12.948411	-22.205029	-35.662620	6.531280	1.434440	-0.954648	-0.091247	0.232055	-1.000000	-1.000000	-1.000000	-1.000000	-1.000000	-1.000000	-1.000000	78.965517	0.000000	-1.000000	-1.000000	1454677.000000	1769636720.933631
-8810.505000	12944.295000	17076.375000	31220.550000	6926.085000	-8870.040000	-18115.065000	-14868.720000	-36.879400	-44.869616	-40.458453	-33.881935	-30.085285	-17.833000	13.771908	-21.190697	-35.662620	6.531280	1.434440	-0.954648	-0.091247	0.232055	-1.000000	-1.000000	-1.000000	-1.000000	-1.000000	-1.000000	-1.000000	78.965517	0.000000	-1.000000	-1.000000	1454678.000000	1769636720.933640
-8822.250000	12918.240000	17050.050000	31202.730000	6910.605000	-8885.070000	-18109.890000	-14877.855000	-16.402475	-15.514509	-12.929112	-13.088591	-11.430688	-2.145954	10.183323	-11.488761	-35.662620	6.531280	1.434440	-0.954648	-0.091247	0.232055	-1.000000	-1.000000	-1.000000	-1.000000	-1.000000	-1.000000	-1.000000	78.965517	0.000000	-1.000000	-1.000000	1454679.000000	1769636720.936694
-8815.770000	12945.870000	17074.125000	31229.235000	6935.130000	-8870.895000	-18126.180000	-14880.645000	6.359282	15.251728	14.577763	7.878408	6.496282	8.960855	2.903539	0.015303	-35.662620	6.531280	1.434440	-0.954648	-0.091247	0.232055	-1.000000	-1.000000	-1.000000	-1.000000	-1.000000	-1.000000	-1.000000	78.965517	0.000000	-1.000000	-1.000000	1454680.000000	1769636720.936706
-8803.980000	12960.720000	17096.985000	31251.870000	6948.405000	-8876.655000	-18148.860000	-14878.395000	22.070582	35.883320	32.087788	22.222734	18.421286	12.801533	-6.553190	7.930867	-35.662620	6.531280	1.434440	-0.954648	-0.091247	0.232055	-1.000000	-1.000000	-1.000000	-1.000000	-1.000000	-1.000000	-1.000000	78.965517	0.000000	-1.000000	-1.000000	1454681.000000	1769636720.940663
-8803.890000	12951.045000	17085.195000	31237.605000	6936.480000	-8884.395000	-18151.695000	-14875.470000	27.223796	40.781337	35.941445	27.604010	23.151076	11.849583	-14.408417	10.906830	-35.662620	6.531280	1.434440	-0.954648	-0.091247	0.232055	-1.000000	-1.000000	-1.000000	-1.000000	-1.000000	-1.000000	-1.000000	78.965517	0.000000	-1.000000	-1.000000	1454682.000000	1769636720.940677
-8785.845000	12960.405000	17094.420000	31248.720000	6954.570000	-8861.130000	-18139.725000	-14862.600000	23.617758	31.611410	28.382235	24.733263	21.766257	10.351216	-14.540984	10.717231	-35.662620	6.531280	1.434440	-0.954648	-0.091247	0.232055	-1.000000	-1.000000	-1.000000	-1.000000	-1.000000	-1.000000	-1.000000	78.965517	0.000000	-1.000000	-1.000000	1454683.000000	1769636720.954382
-8768.790000	12993.120000	17125.470000	31276.485000	6982.875000	-8826.210000	-18110.880000	-14851.755000	17.573095	17.832037	17.703884	19.002999	18.823066	12.293700	-5.082824	10.392410	-35.662620	6.531280	1.434440	-0.954648	-0.091247	0.232055	-1.000000	-1.000000	-1.000000	-1.000000	-1.000000	-1.000000	-1.000000	78.965517	0.000000	-1.000000	-1.000000	1454684.000000	1769636720.954395
-8819.460000	12962.205000	17097.615000	31249.260000	6955.830000	-8841.240000	-18103.905000	-14886.495000	13.016046	8.272211	10.792787	14.898760	17.056064	16.758977	8.825810	10.430189	-35.662620	6.531280	1.434440	-0.954648	-0.091247	0.232055	-1.000000	-1.000000	-1.000000	-1.000000	-1.000000	-1.000000	-1.000000	78.965517	0.000000	-1.000000	-1.000000	1454685.000000	1769636720.954410
-8829.495000	12944.835000	17079.525000	31232.025000	6940.260000	-8855.145000	-18104.490000	-14890.140000	6.305230	1.984771	5.255544	9.304856	12.245273	16.867332	19.485823	7.404219	-35.662620	6.531280	1.434440	-0.954648	-0.091247	0.232055	-1.000000	-1.000000	-1.000000	-1.000000	-1.000000	-1.000000	-1.000000	78.965517	0.000000	-1.000000	-1.000000	1454686.000000	1769636720.954415
-8811.495000	12962.430000	17095.770000	31245.795000	6950.205000	-8853.975000	-18110.070000	-14879.385000	-5.333434	-5.381385	-3.457952	-1.637269	0.521061	7.473368	20.589597	-0.348777	-8.316700	2.960440	-0.427280	-0.943845	-0.124756	0.226196	-1.000000	-1.000000	-1.000000	-1.000000	-1.000000	-1.000000	-1.000000	78.965517	0.000000	-1.000000	-1.000000	1454687.000000	1769636720.954421
-8796.060000	12983.265000	17106.705000	31248.450000	6950.475000	-8859.510000	-18123.255000	-14871.555000	-16.528225	-12.166749	-12.812348	-14.279257	-14.020807	-8.188223	10.747093	-8.753946	-8.316700	2.960440	-0.427280	-0.943845	-0.124756	0.226196	-1.000000	-1.000000	-1.000000	-1.000000	-1.000000	-1.000000	-1.000000	78.965517	0.000000	-1.000000	-1.000000	1454688.000000	1769636720.954426
-8811.540000	12960.495000	17080.965000	31222.485000	6927.300000	-8875.485000	-18122.580000	-14877.315000	-20.664605	-15.261250	-18.424754	-22.754567	-24.453043	-22.171870	-4.845533	-12.613736	-8.316700	2.960440	-0.427280	-0.943845	-0.124756	0.226196	-1.000000	-1.000000	-1.000000	-1.000000	-1.000000	-1.000000	-1.000000	78.965517	0.000000	-1.000000	-1.000000	1454689.000000	1769636720.957707
-8838.990000	12928.275000	17056.845000	31204.710000	6914.205000	-8878.770000	-18103.050000	-14890.050000	-17.740191	-16.296599	-20.650210	-25.573922	-27.764778	-28.338615	-17.119019	-10.966968	-8.316700	2.960440	-0.427280	-0.943845	-0.124756	0.226196	-1.000000	-1.000000	-1.000000	-1.000000	-1.000000	-1.000000	-1.000000	78.965517	0.000000	-1.000000	-1.000000	1454690.000000	1769636720.957720
-8840.970000	12940.965000	17071.110000	31216.500000	6922.260000	-8876.250000	-18103.230000	-14900.265000	-12.000459	-17.101873	-20.350376	-22.737170	-23.497972	-24.133141	-18.849166	-6.590828	-8.316700	2.960440	-0.427280	-0.943845	-0.124756	0.226196	-1.000000	-1.000000	-1.000000	-1.000000	-1.000000	-1.000000	-1.000000	78.965517	0.000000	-1.000000	-1.000000	1454691.000000	1769636720.960546
-8790.885000	12974.850000	17116.650000	31267.170000	6965.595000	-8854.740000	-18141.435000	-14876.550000	-5.105365	-14.538430	-14.440799	-12.428800	-11.390083	-11.055038	-11.211683	-2.012492	-8.316700	2.960440	-0.427280	-0.943845	-0.124756	0.226196	-1.000000	-1.000000	-1.000000	-1.000000	-1.000000	-1.000000	-1.000000	78.965517	0.000000	-1.000000	-1.000000	1454692.000000	1769636720.960554
-8802.405000	12962.295000	17101.305000	31247.955000	6949.530000	-8864.775000	-18132.570000	-14879.070000	4.225552	-5.218057	-1.066134	4.673127	6.001358	5.055489	-2.480356	2.518089	-8.316700	2.960440	-0.427280	-0.943845	-0.124756	0.226196	-1.000000	-1.000000	-1.000000	-1.000000	-1.000000	-1.000000	-1.000000	78.965517	0.000000	-1.000000	-1.000000	1454693.000000	1769636720.967316
-8799.615000	12976.335000	17100.765000	31246.515000	6946.515000	-8874.945000	-18151.380000	-14881.050000	14.567905	8.232133	14.520177	21.274393	21.390264	16.849963	1.638180	7.030631	-8.316700	2.960440	-0.427280	-0.943845	-0.124756	0.226196	-1.000000	-1.000000	-1.000000	-1.000000	-1.000000	-1.000000	-1.000000	78.965517	0.000000	-1.000000	-1.000000	1454694.000000	1769636720.967327
-8808.615000	12973.365000	17098.605000	31246.110000	6945.885000	-8877.105000	-18159.345000	-14881.365000	20.676494	19.361666	23.979147	28.593706	27.375196	19.982854	1.572788	9.853603	-8.316700	2.960440	-0.427280	-0.943845	-0.124756	0.226196	-1.000000	-1.000000	-1.000000	-1.000000	-1.000000	-1.000000	-1.000000	78.965517	0.000000	-1.000000	-1.000000	1454695.000000	1769636720.968546
-8809.065000	13002.210000	17126.865000	31247.100000	6945.750000	-8860.950000	-18113.040000	-14880.735000	18.016087	23.076590	23.235892	23.528093	21.891829	15.309443	0.903399	8.851517	-8.316700	2.960440	-0.427280	-0.943845	-0.124756	0.226196	-1.000000	-1.000000	-1.000000	-1.000000	-1.000000	-1.000000	-1.000000	78.965517	0.000000	-1.000000	-1.000000	1454696.000000	1769636720.968557
-8810.640000	13004.685000	17125.470000	31240.710000	6939.135000	-8860.905000	-18098.055000	-14882.400000	6.922040	17.996958	14.087116	9.470976	8.533457	7.229526	3.660073	3.877524	7.202720	4.471180	1.526000	-0.935056	-0.131286	0.232665	-1.000000	-1.000000	-1.000000	-1.000000	-1.000000	-1.000000	-1.000000	78.965517	0.000000	-1.000000	-1.000000	1454697.000000	1769636720.972553
-8808.390000	12953.520000	17091.045000	31248.540000	6949.935000	-8858.790000	-18120.420000	-14879.295000	-6.694742	6.175296	1.104169	-6.291532	-5.846805	0.072221	9.532784	-2.491131	7.202720	4.471180	1.526000	-0.935056	-0.131286	0.232665	-1.000000	-1.000000	-1.000000	-1.000000	-1.000000	-1.000000	-1.000000	78.965517	0.000000	-1.000000	-1.000000	1454698.000000	1769636720.972564
-8814.645000	12892.455000	17049.195000	31248.810000	6960.285000	-8844.795000	-18102.375000	-14875.245000	-15.345461	-8.899590	-11.642989	-16.297439	-14.395738	-3.877043	13.137799	-6.599541	7.202720	4.471180	1.526000	-0.935056	-0.131286	0.232665	-1.000000	-1.000000	-1.000000	-1.000000	-1.000000	-1.000000	-1.000000	78.965517	0.000000	-1.000000	-1.000000	1454699.000000	1769636720.976588
-8822.970000	12911.850000	17059.185000	31234.860000	6947.145000	-8855.280000	-18105.840000	-14884.650000	-15.888850	-22.549260	-21.004374	-17.721297	-14.702873	-4.716717	10.889316	-6.689790	7.202720	4.471180	1.526000	-0.935056	-0.131286	0.232665	-1.000000	-1.000000	-1.000000	-1.000000	-1.000000	-1.000000	-1.000000	78.965517	0.000000	-1.000000	-1.000000	1454700.000000	1769636720.976602
-8792.190000	12978.270000	17115.435000	31264.830000	6964.290000	-8862.120000	-18150.840000	-14880.420000	-10.615518	-27.527025	-23.088196	-13.153905	-9.979042	-4.772503	3.664985	-4.265049	7.202720	4.471180	1.526000	-0.935056	-0.131286	0.232665	-1.000000	-1.000000	-1.000000	-1.000000	-1.000000	-1.000000	-1.000000	78.965517	0.000000	-1.000000	-1.000000	1454701.000000	1769636720.981846
-8797.680000	12976.695000	17108.685000	31255.155000	6954.435000	-8873.415000	-18162.540000	-14881.635000	-2.835330	-18.127148	-14.681696	-5.868435	-4.258157	-5.893719	-6.124610	-1.609661	7.202720	4.471180	1.526000	-0.935056	-0.131286	0.232665	-1.000000	-1.000000	-1.000000	-1.000000	-1.000000	-1.000000	-1.000000	78.965517	0.000000	-1.000000	-1.000000	1454702.000000	1769636720.981867
-8812.170000	12958.020000	17091.180000	31245.075000	6951.105000	-8856.090000	-18119.520000	-14880.870000	4.766522	1.594664	1.220891	1.873224	0.674883	-6.803928	-14.053583	0.511065	7.202720	4.471180	1.526000	-0.935056	-0.131286	0.232665	-1.000000	-1.000000	-1.000000	-1.000000	-1.000000	-1.000000	-1.000000	78.965517	0.000000	-1.000000	-1.000000	1454703.000000	1769636720.985428
-8813.250000	12955.455000	17096.760000	31246.020000	6952.185000	-8839.530000	-18063.990000	-14878.800000	9.039160	19.033329	15.321809	7.240846	3.848291	-4.922858	-13.943758	1.963721	7.202720	4.471180	1.526000	-0.935056	-0.131286	0.232665	-1.000000	-1.000000	-1.000000	-1.000000	-1.000000	-1.000000	-1.000000	78.965517	0.000000	-1.000000	-1.000000	1454704.000000	1769636720.985441
-8809.605000	12953.745000	17095.230000	31246.110000	6953.715000	-8843.220000	-18070.830000	-14879.115000	8.338603	23.918407	19.751656	8.347552	4.751746	-0.153489	-4.769827	2.445666	7.202720	4.471180	1.526000	-0.935056	-0.131286	0.232665	-1.000000	-1.000000	-1.000000	-1.000000	-1.000000	-1.000000	-1.000000	78.965517	0.000000	-1.000000	-1.000000	1454705.000000	1769636720.988761
-8786.430000	12957.750000	17100.045000	31268.205000	6969.645000	-8860.590000	-18148.950000	-14873.265000	4.484268	15.855124	13.990997	6.214657	4.118820	4.348560	5.306787	2.016779	7.202720	4.471180	1.526000	-0.935056	-0.131286	0.232665	-1.000000	-1.000000	-1.000000	-1.000000	-1.000000	-1.000000	-1.000000	78.965517	0.000000	-1.000000	-1.000000	1454706.000000	1769636720.988775
-8795.160000	12960.180000	17095.545000	31252.860000	6955.110000	-8867.520000	-18138.780000	-14877.900000	0.948541	3.479255	4.269652	3.318989	2.992214	5.249479	6.963485	1.179503	2.517900	6.989080	-2.578940	-0.928892	-0.116455	0.239318	-1.000000	-1.000000	-1.000000	-1.000000	-1.000000	-1.000000	-1.000000	78.965517	0.000000	-1.000000	-1.000000	1454707.000000	1769636720.992458
