Channel1	Channel2	Channel3	Channel4	Channel5	Channel6	Channel7	Channel8	FilteredChannel1	FilteredChannel2	FilteredChannel3	FilteredChannel4	FilteredChannel5	FilteredChannel6	FilteredChannel7	FilteredChannel8	GyroX	GyroY	GyroZ	AccX	AccY	AccZ	PPG1	PPG2	rawPPG1	rawPPG2	rawPPG3	Hr	Hrv	Battery	Trigger	PhysicalTrigger	AutoTrigger	NumMeasurements	Timestamp
783.675000	11862.405000	18404.505000	6318.270000	-19714.635000	3135.195000	-5525.100000	-3257.775000	-4.496110	-7.110639	-8.070998	-8.497181	-6.840888	-6.425525	-2.868803	-5.748535	-5.203660	4.776380	-1.159760	0.912656	-0.168457	0.386901	-1.000000	-1.000000	-1.000000	-1.000000	-1.000000	-1.000000	-1.000000	70.275862	0.000000	-1.000000	-1.000000	1181601.000000	1773689920.013837
778.275000	11856.060000	18392.940000	6299.685000	-19739.880000	3096.990000	-5518.575000	-3253.725000	-3.427587	-1.677036	-3.386178	-5.663694	-7.129091	-8.937503	-6.221785	-6.323056	-5.203660	4.776380	-1.159760	0.912656	-0.168457	0.386901	-1.000000	-1.000000	-1.000000	-1.000000	-1.000000	-1.000000	-1.000000	70.275862	0.000000	-1.000000	-1.000000	1181602.000000	1773689920.013848
777.105000	11846.295000	18380.925000	6282.990000	-19756.980000	3079.035000	-5509.170000	-3245.355000	-0.905938	4.400583	2.287744	-1.206802	-4.944355	-8.128064	-5.846138	-4.945009	-5.203660	4.776380	-1.159760	0.912656	-0.168457	0.386901	-1.000000	-1.000000	-1.000000	-1.000000	-1.000000	-1.000000	-1.000000	70.275862	0.000000	-1.000000	-1.000000	1181603.000000	1773689920.019404
770.985000	11832.255000	18367.110000	6273.090000	-19757.610000	3087.810000	-5503.095000	-3249.450000	0.785358	8.260262	6.212607	2.453511	-2.202823	-5.959591	-1.871934	-1.877298	-5.203660	4.776380	-1.159760	0.912656	-0.168457	0.386901	-1.000000	-1.000000	-1.000000	-1.000000	-1.000000	-1.000000	-1.000000	70.275862	0.000000	-1.000000	-1.000000	1181604.000000	1773689920.019414
773.910000	11833.785000	18371.205000	6282.045000	-19745.415000	3101.175000	-5500.710000	-3246.300000	0.402983	7.894098	6.678080	4.117971	0.315505	-2.805963	3.052853	1.558815	-5.203660	4.776380	-1.159760	0.912656	-0.168457	0.386901	-1.000000	-1.000000	-1.000000	-1.000000	-1.000000	-1.000000	-1.000000	70.275862	0.000000	-1.000000	-1.000000	1181605.000000	1773689920.021552
767.610000	11840.850000	18383.850000	6300.810000	-19725.165000	3123.135000	-5499.990000	-3240.675000	-1.249864	3.920721	4.412467	4.586194	3.349615	2.095360	5.858776	3.791615	-5.203660	4.776380	-1.159760	0.912656	-0.168457	0.386901	-1.000000	-1.000000	-1.000000	-1.000000	-1.000000	-1.000000	-1.000000	70.275862	0.000000	-1.000000	-1.000000	1181606.000000	1773689920.021564
758.475000	11845.305000	18393.075000	6313.680000	-19709.730000	3142.260000	-5501.655000	-3253.320000	-2.089308	-0.423661	2.078789	5.399700	7.243735	8.165953	5.390285	4.620740	-5.203660	4.776380	-1.159760	0.912656	-0.168457	0.386901	-1.000000	-1.000000	-1.000000	-1.000000	-1.000000	-1.000000	-1.000000	70.275862	0.000000	-1.000000	-1.000000	1181607.000000	1773689920.033570
780.120000	11869.605000	18412.560000	6325.965000	-19702.080000	3147.120000	-5504.130000	-3282.435000	-0.843676	-2.157588	1.502457	6.546522	10.230358	12.438650	2.571413	3.918385	-5.203660	4.776380	-1.159760	0.912656	-0.168457	0.386901	-1.000000	-1.000000	-1.000000	-1.000000	-1.000000	-1.000000	-1.000000	70.275862	0.000000	-1.000000	-1.000000	1181608.000000	1773689920.033582
793.350000	11858.175000	18398.160000	6312.960000	-19710.720000	3139.875000	-5507.370000	-3256.740000	2.331775	-1.126855	1.824273	5.970013	9.333419	11.322053	-0.998995	1.365493	-5.203660	4.776380	-1.159760	0.912656	-0.168457	0.386901	-1.000000	-1.000000	-1.000000	-1.000000	-1.000000	-1.000000	-1.000000	70.275862	0.000000	-1.000000	-1.000000	1181609.000000	1773689920.034585
777.735000	11815.380000	18355.185000	6270.480000	-19750.050000	3103.110000	-5519.430000	-3215.115000	5.688532	-0.400846	0.199086	1.497684	3.283551	4.249200	-4.113808	-0.988796	-5.203660	4.776380	-1.159760	0.912656	-0.168457	0.386901	-1.000000	-1.000000	-1.000000	-1.000000	-1.000000	-1.000000	-1.000000	70.275862	0.000000	-1.000000	-1.000000	1181610.000000	1773689920.034595
780.165000	11845.080000	18382.005000	6289.515000	-19739.745000	3102.435000	-5514.615000	-3233.880000	6.509382	-2.321982	-4.184633	-5.752173	-5.299509	-4.902910	-6.076952	-0.578540	-3.662400	4.318580	-0.061040	0.908994	-0.167724	0.387633	-1.000000	-1.000000	-1.000000	-1.000000	-1.000000	-1.000000	-1.000000	70.275862	0.000000	-1.000000	-1.000000	1181611.000000	1773689920.034607
784.800000	11853.540000	18391.185000	6299.100000	-19733.535000	3106.755000	-5505.435000	-3254.130000	3.871582	-4.171313	-7.200821	-10.353705	-10.902361	-10.621938	-6.143392	1.053187	-3.662400	4.318580	-0.061040	0.908994	-0.167724	0.387633	-1.000000	-1.000000	-1.000000	-1.000000	-1.000000	-1.000000	-1.000000	70.275862	0.000000	-1.000000	-1.000000	1181612.000000	1773689920.034612
779.535000	11835.360000	18377.325000	6293.655000	-19732.455000	3113.955000	-5500.530000	-3242.970000	-0.582594	-2.431190	-4.953099	-8.141981	-9.975689	-10.197622	-3.782911	0.501525	-3.662400	4.318580	-0.061040	0.908994	-0.167724	0.387633	-1.000000	-1.000000	-1.000000	-1.000000	-1.000000	-1.000000	-1.000000	70.275862	0.000000	-1.000000	-1.000000	1181613.000000	1773689920.037580
771.570000	11828.520000	18372.105000	6290.235000	-19735.155000	3114.720000	-5504.175000	-3238.965000	-4.744309	1.336631	0.499409	-1.409596	-4.390349	-5.425179	0.196991	-2.240696	-3.662400	4.318580	-0.061040	0.908994	-0.167724	0.387633	-1.000000	-1.000000	-1.000000	-1.000000	-1.000000	-1.000000	-1.000000	70.275862	0.000000	-1.000000	-1.000000	1181614.000000	1773689920.037592
779.985000	11845.935000	18387.000000	6300.450000	-19731.915000	3113.505000	-5512.140000	-3250.305000	-6.840017	3.540880	4.406853	4.191303	1.064123	-0.382651	3.765091	-4.509641	-3.662400	4.318580	-0.061040	0.908994	-0.167724	0.387633	-1.000000	-1.000000	-1.000000	-1.000000	-1.000000	-1.000000	-1.000000	70.275862	0.000000	-1.000000	-1.000000	1181615.000000	1773689920.041495
781.785000	11854.935000	18389.925000	6299.370000	-19737.180000	3109.545000	-5517.360000	-3275.505000	-5.663682	3.343102	4.714332	5.382787	3.082411	1.771809	5.166581	-4.644930	-3.662400	4.318580	-0.061040	0.908994	-0.167724	0.387633	-1.000000	-1.000000	-1.000000	-1.000000	-1.000000	-1.000000	-1.000000	70.275862	0.000000	-1.000000	-1.000000	1181616.000000	1773689920.041502
776.025000	11843.775000	18381.015000	6296.040000	-19731.645000	3120.210000	-5517.990000	-3277.440000	-2.261244	1.581577	2.080630	2.573705	1.634537	0.837933	4.150016	-2.948902	-3.662400	4.318580	-0.061040	0.908994	-0.167724	0.387633	-1.000000	-1.000000	-1.000000	-1.000000	-1.000000	-1.000000	-1.000000	70.275862	0.000000	-1.000000	-1.000000	1181617.000000	1773689920.046963
771.930000	11837.295000	18373.635000	6284.340000	-19744.380000	3102.525000	-5524.065000	-3245.940000	0.536604	-0.910313	-1.573028	-1.474064	-0.623029	-0.558084	1.884218	-0.539530	-3.662400	4.318580	-0.061040	0.908994	-0.167724	0.387633	-1.000000	-1.000000	-1.000000	-1.000000	-1.000000	-1.000000	-1.000000	70.275862	0.000000	-1.000000	-1.000000	1181618.000000	1773689920.046974
777.960000	11840.085000	18378.360000	6291.855000	-19732.590000	3115.710000	-5510.340000	-3223.755000	1.505173	-2.527311	-3.443158	-3.244531	-0.449725	0.627987	0.022515	1.914592	-3.662400	4.318580	-0.061040	0.908994	-0.167724	0.387633	-1.000000	-1.000000	-1.000000	-1.000000	-1.000000	-1.000000	-1.000000	70.275862	0.000000	-1.000000	-1.000000	1181619.000000	1773689920.049636
781.290000	11837.700000	18371.295000	6281.730000	-19744.605000	3103.920000	-5503.140000	-3217.095000	1.752075	-2.169028	-2.250943	-1.397624	2.803522	4.766427	-0.347592	4.640435	-3.662400	4.318580	-0.061040	0.908994	-0.167724	0.387633	-1.000000	-1.000000	-1.000000	-1.000000	-1.000000	-1.000000	-1.000000	70.275862	0.000000	-1.000000	-1.000000	1181620.000000	1773689920.049647
761.670000	11831.355000	18364.635000	6272.595000	-19750.635000	3099.735000	-5506.470000	-3248.370000	1.947295	-0.819230	0.175278	1.677642	6.009364	8.417683	0.314390	7.019619	-2.105880	5.890360	-0.473060	0.904844	-0.165161	0.385497	-1.000000	-1.000000	-1.000000	-1.000000	-1.000000	-1.000000	-1.000000	70.275862	0.000000	-1.000000	-1.000000	1181621.000000	1773689920.053600
750.285000	11824.695000	18366.165000	6279.975000	-19737.180000	3111.210000	-5518.395000	-3269.115000	1.312747	0.255254	1.711234	3.042758	5.906490	7.779262	0.334834	6.121455	-2.105880	5.890360	-0.473060	0.904844	-0.165161	0.385497	-1.000000	-1.000000	-1.000000	-1.000000	-1.000000	-1.000000	-1.000000	70.275862	0.000000	-1.000000	-1.000000	1181622.000000	1773689920.053610
769.905000	11833.515000	18376.245000	6293.475000	-19733.265000	3113.190000	-5521.455000	-3258.315000	-0.071198	0.859763	2.113848	2.440602	2.710703	2.875250	-1.153070	0.476782	-2.105880	5.890360	-0.473060	0.904844	-0.165161	0.385497	-1.000000	-1.000000	-1.000000	-1.000000	-1.000000	-1.000000	-1.000000	70.275862	0.000000	-1.000000	-1.000000	1181623.000000	1773689920.057533
771.570000	11834.820000	18375.705000	6291.180000	-19744.560000	3098.070000	-5524.515000	-3258.315000	-0.479265	0.994910	1.758229	1.120980	-1.416215	-3.412122	-3.026352	-5.997099	-2.105880	5.890360	-0.473060	0.904844	-0.165161	0.385497	-1.000000	-1.000000	-1.000000	-1.000000	-1.000000	-1.000000	-1.000000	70.275862	0.000000	-1.000000	-1.000000	1181624.000000	1773689920.057540
774.405000	11834.370000	18374.085000	6290.550000	-19740.285000	3109.095000	-5517.270000	-3260.565000	0.806396	0.406569	0.604141	-0.302770	-4.884871	-8.287474	-3.397306	-7.715744	-2.105880	5.890360	-0.473060	0.904844	-0.165161	0.385497	-1.000000	-1.000000	-1.000000	-1.000000	-1.000000	-1.000000	-1.000000	70.275862	0.000000	-1.000000	-1.000000	1181625.000000	1773689920.063037
762.075000	11825.325000	18369.270000	6288.480000	-19735.290000	3116.205000	-5514.030000	-3275.100000	2.303627	-0.655447	-0.970474	-1.525173	-6.398781	-9.548951	-1.451608	-4.058157	-2.105880	5.890360	-0.473060	0.904844	-0.165161	0.385497	-1.000000	-1.000000	-1.000000	-1.000000	-1.000000	-1.000000	-1.000000	70.275862	0.000000	-1.000000	-1.000000	1181626.000000	1773689920.063046
757.485000	11822.850000	18367.335000	6283.170000	-19740.465000	3109.050000	-5514.300000	-3267.855000	2.240841	-1.188219	-1.781369	-1.799319	-4.847393	-6.096292	1.834464	0.149968	-2.105880	5.890360	-0.473060	0.904844	-0.165161	0.385497	-1.000000	-1.000000	-1.000000	-1.000000	-1.000000	-1.000000	-1.000000	70.275862	0.000000	-1.000000	-1.000000	1181627.000000	1773689920.065632
753.120000	11832.795000	18377.955000	6292.035000	-19732.815000	3113.235000	-5510.070000	-3258.810000	0.259925	-0.494847	-1.050482	-0.781846	-0.783586	0.436174	4.223153	0.965159	-2.105880	5.890360	-0.473060	0.904844	-0.165161	0.385497	-1.000000	-1.000000	-1.000000	-1.000000	-1.000000	-1.000000	-1.000000	70.275862	0.000000	-1.000000	-1.000000	1181628.000000	1773689920.065642
753.030000	11840.580000	18383.670000	6295.095000	-19731.600000	3115.170000	-5503.365000	-3270.060000	-2.411589	1.215145	0.879212	0.989763	3.601587	6.412504	4.031896	-0.473796	-2.105880	5.890360	-0.473060	0.904844	-0.165161	0.385497	-1.000000	-1.000000	-1.000000	-1.000000	-1.000000	-1.000000	-1.000000	70.275862	0.000000	-1.000000	-1.000000	1181629.000000	1773689920.072374
761.805000	11874.555000	18410.220000	6310.890000	-19726.740000	3109.320000	-5512.455000	-3272.040000	-3.537865	3.697017	3.352895	2.823927	6.147978	8.763161	1.602840	-0.802813	-2.105880	5.890360	-0.473060	0.904844	-0.165161	0.385497	-1.000000	-1.000000	-1.000000	-1.000000	-1.000000	-1.000000	-1.000000	70.275862	0.000000	-1.000000	-1.000000	1181630.000000	1773689920.072384
774.810000	11884.455000	18418.275000	6316.470000	-19724.715000	3109.500000	-5513.895000	-3264.975000	-1.507814	6.698442	5.621073	3.923582	5.592070	6.299095	-1.347851	1.493471	-4.684820	5.447820	-0.228900	0.901548	-0.162170	0.383666	-1.000000	-1.000000	-1.000000	-1.000000	-1.000000	-1.000000	-1.000000	70.275862	0.000000	-1.000000	-1.000000	1181631.000000	1773689920.073635
783.855000	11845.845000	18386.865000	6302.025000	-19719.270000	3133.485000	-5508.045000	-3248.865000	2.614446	7.763310	5.584358	2.920705	2.197244	0.786110	-3.055649	5.257851	-4.684820	5.447820	-0.228900	0.901548	-0.162170	0.383666	-1.000000	-1.000000	-1.000000	-1.000000	-1.000000	-1.000000	-1.000000	70.275862	0.000000	-1.000000	-1.000000	1181632.000000	1773689920.073645
790.515000	11831.580000	18376.830000	6298.650000	-19709.820000	3145.680000	-5515.965000	-3240.090000	5.745971	3.111909	0.870318	-0.937329	-1.855236	-3.502257	-2.765180	8.296648	-4.684820	5.447820	-0.228900	0.901548	-0.162170	0.383666	-1.000000	-1.000000	-1.000000	-1.000000	-1.000000	-1.000000	-1.000000	70.275862	0.000000	-1.000000	-1.000000	1181633.000000	1773689920.077760
785.250000	11822.760000	18366.435000	6285.645000	-19729.710000	3129.120000	-5516.505000	-3247.470000	5.640377	-6.700306	-7.226380	-6.071697	-4.429120	-4.196523	-1.381073	8.817823	-4.684820	5.447820	-0.228900	0.901548	-0.162170	0.383666	-1.000000	-1.000000	-1.000000	-1.000000	-1.000000	-1.000000	-1.000000	70.275862	0.000000	-1.000000	-1.000000	1181634.000000	1773689920.077770
777.060000	11830.005000	18373.500000	6288.615000	-19742.490000	3112.470000	-5507.010000	-3245.130000	2.319700	-15.255047	-13.376746	-9.266928	-5.464054	-3.178675	-0.190143	5.650309	-4.684820	5.447820	-0.228900	0.901548	-0.162170	0.383666	-1.000000	-1.000000	-1.000000	-1.000000	-1.000000	-1.000000	-1.000000	70.275862	0.000000	-1.000000	-1.000000	1181635.000000	1773689920.094457
777.960000	11833.875000	18376.695000	6290.505000	-19741.050000	3106.080000	-5506.155000	-3237.255000	-2.404642	-16.155726	-12.895673	-8.099811	-5.578769	-2.952586	0.562970	-0.873177	-4.684820	5.447820	-0.228900	0.901548	-0.162170	0.383666	-1.000000	-1.000000	-1.000000	-1.000000	-1.000000	-1.000000	-1.000000	70.275862	0.000000	-1.000000	-1.000000	1181636.000000	1773689920.094468
772.965000	11832.885000	18376.380000	6288.750000	-19742.130000	3101.805000	-5506.200000	-3238.560000	-6.182074	-8.814693	-5.888972	-2.968188	-4.484807	-3.608483	0.874837	-8.037904	-4.684820	5.447820	-0.228900	0.901548	-0.162170	0.383666	-1.000000	-1.000000	-1.000000	-1.000000	-1.000000	-1.000000	-1.000000	70.275862	0.000000	-1.000000	-1.000000	1181637.000000	1773689920.094481
766.935000	11834.460000	18377.595000	6287.895000	-19746.315000	3095.145000	-5512.590000	-3248.460000	-7.490030	1.760472	3.209912	3.110249	-1.965383	-3.809895	0.426808	-12.148118	-4.684820	5.447820	-0.228900	0.901548	-0.162170	0.383666	-1.000000	-1.000000	-1.000000	-1.000000	-1.000000	-1.000000	-1.000000	70.275862	0.000000	-1.000000	-1.000000	1181638.000000	1773689920.094487
775.485000	11851.785000	18394.650000	6304.275000	-19728.495000	3116.475000	-5517.000000	-3251.340000	-6.161861	9.636330	9.515195	7.024819	1.356766	-2.304249	-0.552724	-11.279591	-4.684820	5.447820	-0.228900	0.901548	-0.162170	0.383666	-1.000000	-1.000000	-1.000000	-1.000000	-1.000000	-1.000000	-1.000000	70.275862	0.000000	-1.000000	-1.000000	1181639.000000	1773689920.094493
791.595000	11870.550000	18410.805000	6317.910000	-19717.830000	3123.675000	-5532.345000	-3258.720000	-2.907868	12.392325	11.216490	7.844645	4.659557	1.251377	-1.410762	-6.695978	-4.684820	5.447820	-0.228900	0.901548	-0.162170	0.383666	-1.000000	-1.000000	-1.000000	-1.000000	-1.000000	-1.000000	-1.000000	70.275862	0.000000	-1.000000	-1.000000	1181640.000000	1773689920.094498
786.465000	11866.095000	18404.280000	6313.860000	-19720.755000	3125.610000	-5535.540000	-3262.815000	0.979423	11.585408	9.778208	6.623259	6.964320	5.266557	-1.920077	-1.561324	-3.815000	4.990020	-0.198380	0.896726	-0.164978	0.382506	-1.000000	-1.000000	-1.000000	-1.000000	-1.000000	-1.000000	-1.000000	70.275862	0.000000	-1.000000	-1.000000	1181641.000000	1773689920.094504
779.715000	11843.235000	18383.535000	6298.830000	-19728.540000	3124.440000	-5524.740000	-3251.115000	3.699377	8.905459	6.720223	4.258686	6.888981	7.033310	-1.711838	2.064319	-3.815000	4.990020	-0.198380	0.896726	-0.164978	0.382506	-1.000000	-1.000000	-1.000000	-1.000000	-1.000000	-1.000000	-1.000000	70.275862	0.000000	-1.000000	-1.000000	1181642.000000	1773689920.094508
783.405000	11839.185000	18379.485000	6296.130000	-19730.295000	3116.160000	-5504.040000	-3237.570000	4.252745	4.102265	2.065952	0.872261	4.119841	5.564039	0.127858	4.630548	-3.815000	4.990020	-0.198380	0.896726	-0.164978	0.382506	-1.000000	-1.000000	-1.000000	-1.000000	-1.000000	-1.000000	-1.000000	70.275862	0.000000	-1.000000	-1.000000	1181643.000000	1773689920.097728
774.135000	11835.630000	18372.375000	6281.910000	-19746.675000	3096.540000	-5500.170000	-3244.095000	3.340164	-2.529544	-3.675924	-3.006110	0.171224	2.162145	3.506416	6.778869	-3.815000	4.990020	-0.198380	0.896726	-0.164978	0.382506	-1.000000	-1.000000	-1.000000	-1.000000	-1.000000	-1.000000	-1.000000	70.275862	0.000000	-1.000000	-1.000000	1181644.000000	1773689920.097741
773.055000	11841.615000	18377.595000	6283.485000	-19748.610000	3088.665000	-5505.930000	-3246.255000	1.981626	-8.627274	-8.520459	-6.252594	-3.384067	-1.571955	6.261262	7.273627	-3.815000	4.990020	-0.198380	0.896726	-0.164978	0.382506	-1.000000	-1.000000	-1.000000	-1.000000	-1.000000	-1.000000	-1.000000	70.275862	0.000000	-1.000000	-1.000000	1181645.000000	1773689920.111966
756.630000	11830.185000	18366.255000	6272.685000	-19762.605000	3074.490000	-5515.335000	-3265.245000	0.497777	-11.494119	-10.347495	-7.651166	-5.777104	-4.577489	5.811811	4.870148	-3.815000	4.990020	-0.198380	0.896726	-0.164978	0.382506	-1.000000	-1.000000	-1.000000	-1.000000	-1.000000	-1.000000	-1.000000	70.275862	0.000000	-1.000000	-1.000000	1181646.000000	1773689920.111979
746.595000	11813.085000	18349.920000	6261.165000	-19768.410000	3078.585000	-5521.590000	-3266.955000	-1.149625	-10.613930	-8.900020	-6.800669	-6.634786	-5.975104	1.805897	0.515892	-3.815000	4.990020	-0.198380	0.896726	-0.164978	0.382506	-1.000000	-1.000000	-1.000000	-1.000000	-1.000000	-1.000000	-1.000000	70.275862	0.000000	-1.000000	-1.000000	1181647.000000	1773689920.111993
742.095000	11806.470000	18351.360000	6271.380000	-19750.680000	3102.345000	-5519.070000	-3269.700000	-3.019442	-7.904109	-5.971051	-4.559792	-5.827103	-5.064011	-3.261106	-3.333248	-3.815000	4.990020	-0.198380	0.896726	-0.164978	0.382506	-1.000000	-1.000000	-1.000000	-1.000000	-1.000000	-1.000000	-1.000000	70.275862	0.000000	-1.000000	-1.000000	1181648.000000	1773689920.111998
752.670000	11818.440000	18364.365000	6285.555000	-19733.580000	3122.730000	-5514.480000	-3270.420000	-4.536561	-4.693184	-2.644892	-1.461957	-2.986383	-1.573690	-5.996453	-4.743200	-3.815000	4.990020	-0.198380	0.896726	-0.164978	0.382506	-1.000000	-1.000000	-1.000000	-1.000000	-1.000000	-1.000000	-1.000000	70.275862	0.000000	-1.000000	-1.000000	1181649.000000	1773689920.112005
769.320000	11834.730000	18379.035000	6298.560000	-19723.005000	3134.925000	-5508.855000	-3257.595000	-3.972182	0.173097	2.095172	3.004094	2.010608	3.628772	-4.821785	-3.370181	-3.815000	4.990020	-0.198380	0.896726	-0.164978	0.382506	-1.000000	-1.000000	-1.000000	-1.000000	-1.000000	-1.000000	-1.000000	70.275862	0.000000	-1.000000	-1.000000	1181650.000000	1773689920.112009
763.155000	11840.040000	18382.095000	6299.460000	-19723.545000	3130.785000	-5506.515000	-3257.820000	-0.176405	7.659348	8.722824	8.496325	7.646003	8.162559	-1.239784	-0.344541	-1.815940	4.593260	-1.113980	0.897215	-0.167846	0.382079	-1.000000	-1.000000	-1.000000	-1.000000	-1.000000	-1.000000	-1.000000	70.275862	0.000000	-1.000000	-1.000000	1181651.000000	1773689920.113713
767.295000	11839.545000	18378.990000	6292.710000	-19730.205000	3117.420000	-5509.620000	-3278.430000	5.148052	15.186190	14.582354	12.487297	11.033154	9.399081	1.516051	1.987711	-1.815940	4.593260	-1.113980	0.897215	-0.167846	0.382079	-1.000000	-1.000000	-1.000000	-1.000000	-1.000000	-1.000000	-1.000000	70.275862	0.000000	-1.000000	-1.000000	1181652.000000	1773689920.113722
778.500000	11842.245000	18375.570000	6284.610000	-19738.575000	3116.970000	-5506.965000	-3284.640000	8.872028	17.875603	15.446313	11.877832	9.905859	6.468062	1.506677	1.544530	-1.815940	4.593260	-1.113980	0.897215	-0.167846	0.382079	-1.000000	-1.000000	-1.000000	-1.000000	-1.000000	-1.000000	-1.000000	70.275862	0.000000	-1.000000	-1.000000	1181653.000000	1773689920.117673
760.320000	11825.955000	18360.450000	6271.650000	-19742.355000	3121.920000	-5508.720000	-3280.185000	9.059836	12.912363	9.380797	5.799819	4.357792	1.083856	-0.284467	-0.958989	-1.815940	4.593260	-1.113980	0.897215	-0.167846	0.382079	-1.000000	-1.000000	-1.000000	-1.000000	-1.000000	-1.000000	-1.000000	70.275862	0.000000	-1.000000	-1.000000	1181654.000000	1773689920.117685
751.365000	11822.895000	18360.270000	6271.740000	-19744.155000	3115.080000	-5515.020000	-3258.315000	5.388590	2.070894	-1.196411	-3.184753	-2.914946	-3.884001	-1.572351	-2.068268	-1.815940	4.593260	-1.113980	0.897215	-0.167846	0.382079	-1.000000	-1.000000	-1.000000	-1.000000	-1.000000	-1.000000	-1.000000	70.275862	0.000000	-1.000000	-1.000000	1181655.000000	1773689920.121851
760.455000	11839.230000	18375.210000	6283.395000	-19758.240000	3075.390000	-5526.405000	-3254.355000	-0.596221	-9.034107	-10.682021	-10.424652	-8.675896	-7.480574	-1.331886	0.647684	-1.815940	4.593260	-1.113980	0.897215	-0.167846	0.382079	-1.000000	-1.000000	-1.000000	-1.000000	-1.000000	-1.000000	-1.000000	70.275862	0.000000	-1.000000	-1.000000	1181656.000000	1773689920.121861
764.865000	11833.605000	18371.475000	6283.485000	-19761.210000	3078.360000	-5525.955000	-3266.055000	-5.910284	-14.756240	-14.327373	-12.544914	-11.618322	-10.954799	-0.239187	5.308559	-1.815940	4.593260	-1.113980	0.897215	-0.167846	0.382079	-1.000000	-1.000000	-1.000000	-1.000000	-1.000000	-1.000000	-1.000000	70.275862	0.000000	-1.000000	-1.000000	1181657.000000	1773689920.125743
764.235000	11827.980000	18366.210000	6280.335000	-19752.570000	3093.345000	-5536.980000	-3268.440000	-8.451905	-13.753231	-11.841127	-9.805748	-11.692574	-13.642263	0.585214	7.392703	-1.815940	4.593260	-1.113980	0.897215	-0.167846	0.382079	-1.000000	-1.000000	-1.000000	-1.000000	-1.000000	-1.000000	-1.000000	70.275862	0.000000	-1.000000	-1.000000	1181658.000000	1773689920.125753
745.920000	11814.885000	18357.435000	6276.600000	-19745.145000	3110.310000	-5535.180000	-3262.275000	-8.370367	-8.931822	-6.451769	-4.851356	-8.416568	-11.890159	0.491907	4.454830	-1.815940	4.593260	-1.113980	0.897215	-0.167846	0.382079	-1.000000	-1.000000	-1.000000	-1.000000	-1.000000	-1.000000	-1.000000	70.275862	0.000000	-1.000000	-1.000000	1181659.000000	1773689920.129696
760.815000	11847.060000	18385.380000	6294.330000	-19744.020000	3093.795000	-5538.330000	-3263.580000	-6.602744	-3.286537	-0.925058	0.237246	-1.791887	-3.828592	-0.347076	-1.663235	-1.815940	4.593260	-1.113980	0.897215	-0.167846	0.382079	-1.000000	-1.000000	-1.000000	-1.000000	-1.000000	-1.000000	-1.000000	70.275862	0.000000	-1.000000	-1.000000	1181660.000000	1773689920.129708
765.765000	11852.370000	18382.725000	6281.505000	-19773.135000	3057.570000	-5534.640000	-3260.115000	-3.251291	2.422136	4.092378	4.744731	5.857069	6.953927	-1.012553	-6.699730	-1.358140	4.272800	-2.350040	0.896665	-0.167541	0.379394	-1.000000	-1.000000	-1.000000	-1.000000	-1.000000	-1.000000	-1.000000	70.275862	0.000000	-1.000000	-1.000000	1181661.000000	1773689920.134200
761.985000	11833.605000	18370.170000	6281.685000	-19754.190000	3093.750000	-5508.045000	-3262.320000	1.316299	7.307752	7.837090	7.795026	10.882822	14.452364	-0.246977	-7.601443	-1.358140	4.272800	-2.350040	0.896665	-0.167541	0.379394	-1.000000	-1.000000	-1.000000	-1.000000	-1.000000	-1.000000	-1.000000	70.275862	0.000000	-1.000000	-1.000000	1181662.000000	1773689920.134210
771.345000	11846.520000	18387.315000	6305.130000	-19722.015000	3128.805000	-5492.295000	-3257.235000	5.744841	9.331346	8.867908	8.627682	12.098964	16.617137	2.830872	-4.685188	-1.358140	4.272800	-2.350040	0.896665	-0.167541	0.379394	-1.000000	-1.000000	-1.000000	-1.000000	-1.000000	-1.000000	-1.000000	70.275862	0.000000	-1.000000	-1.000000	1181663.000000	1773689920.137546
770.400000	11848.770000	18389.700000	6306.705000	-19729.395000	3117.960000	-5493.510000	-3254.040000	8.714967	7.911452	7.135592	7.626144	11.000462	15.339179	7.222396	-0.633057	-1.358140	4.272800	-2.350040	0.896665	-0.167541	0.379394	-1.000000	-1.000000	-1.000000	-1.000000	-1.000000	-1.000000	-1.000000	70.275862	0.000000	-1.000000	-1.000000	1181664.000000	1773689920.137556
764.190000	11830.680000	18372.645000	6292.305000	-19742.040000	3109.185000	-5510.025000	-3270.780000	8.782371	3.908303	3.313493	4.694858	7.912599	11.419620	9.585766	1.916098	-1.358140	4.272800	-2.350040	0.896665	-0.167541	0.379394	-1.000000	-1.000000	-1.000000	-1.000000	-1.000000	-1.000000	-1.000000	70.275862	0.000000	-1.000000	-1.000000	1181665.000000	1773689920.145060
779.220000	11835.045000	18371.880000	6290.055000	-19744.155000	3111.210000	-5514.390000	-3263.175000	5.120935	-1.568419	-2.076891	-0.741802	1.866525	4.055259	6.842247	2.121441	-1.358140	4.272800	-2.350040	0.896665	-0.167541	0.379394	-1.000000	-1.000000	-1.000000	-1.000000	-1.000000	-1.000000	-1.000000	70.275862	0.000000	-1.000000	-1.000000	1181666.000000	1773689920.145071
775.395000	11840.175000	18375.435000	6292.170000	-19744.695000	3110.760000	-5513.445000	-3242.970000	-0.534955	-6.114037	-7.023235	-7.035060	-6.192776	-6.043003	-0.450197	1.332090	-1.358140	4.272800	-2.350040	0.896665	-0.167541	0.379394	-1.000000	-1.000000	-1.000000	-1.000000	-1.000000	-1.000000	-1.000000	70.275862	0.000000	-1.000000	-1.000000	1181667.000000	1773689920.145980
765.000000	11829.555000	18367.830000	6287.220000	-19746.090000	3110.130000	-5514.570000	-3241.170000	-5.179661	-7.297787	-8.858401	-10.818706	-12.922978	-15.392418	-8.285027	1.319570	-1.358140	4.272800	-2.350040	0.896665	-0.167541	0.379394	-1.000000	-1.000000	-1.000000	-1.000000	-1.000000	-1.000000	-1.000000	70.275862	0.000000	-1.000000	-1.000000	1181668.000000	1773689920.145991
772.650000	11836.170000	18375.570000	6293.205000	-19740.375000	3112.200000	-5511.735000	-3243.465000	-7.286493	-5.527065	-7.129564	-10.158247	-14.669099	-19.061030	-12.536436	2.162225	-1.358140	4.272800	-2.350040	0.896665	-0.167541	0.379394	-1.000000	-1.000000	-1.000000	-1.000000	-1.000000	-1.000000	-1.000000	70.275862	0.000000	-1.000000	-1.000000	1181669.000000	1773689920.152376
771.120000	11849.760000	18386.370000	6297.570000	-19739.070000	3111.435000	-5522.355000	-3259.980000	-6.875722	-2.557622	-3.029554	-5.345684	-9.829467	-14.296534	-11.756361	2.385662	-1.358140	4.272800	-2.350040	0.896665	-0.167541	0.379394	-1.000000	-1.000000	-1.000000	-1.000000	-1.000000	-1.000000	-1.000000	70.275862	0.000000	-1.000000	-1.000000	1181670.000000	1773689920.152387
769.185000	11857.635000	18392.130000	6301.440000	-19731.105000	3117.375000	-5533.470000	-3275.505000	-4.464270	1.227270	2.347367	1.615160	-0.889626	-4.188925	-7.838575	0.543427	-1.113980	5.127360	-2.746800	0.896970	-0.167724	0.374328	-1.000000	-1.000000	-1.000000	-1.000000	-1.000000	-1.000000	-1.000000	70.413793	0.000000	-1.000000	-1.000000	1181671.000000	1773689920.153594
779.445000	11868.975000	18404.685000	6315.525000	-19711.665000	3140.640000	-5531.580000	-3269.970000	-0.873916	5.415952	7.254300	7.429808	6.966242	4.855457	-3.608123	-3.138658	-1.113980	5.127360	-2.746800	0.896970	-0.167724	0.374328	-1.000000	-1.000000	-1.000000	-1.000000	-1.000000	-1.000000	-1.000000	70.413793	0.000000	-1.000000	-1.000000	1181672.000000	1773689920.153602
786.105000	11876.040000	18412.830000	6325.785000	-19715.040000	3136.185000	-5519.295000	-3244.410000	2.875778	8.199945	9.475536	9.646129	10.426685	9.507257	0.423487	-5.881086	-1.113980	5.127360	-2.746800	0.896970	-0.167724	0.374328	-1.000000	-1.000000	-1.000000	-1.000000	-1.000000	-1.000000	-1.000000	70.413793	0.000000	-1.000000	-1.000000	1181673.000000	1773689920.157542
772.110000	11863.440000	18398.340000	6315.300000	-19732.320000	3111.885000	-5497.425000	-3245.580000	5.376276	7.899675	8.036639	8.144182	9.246709	9.777803	5.599267	-4.371850	-1.113980	5.127360	-2.746800	0.896970	-0.167724	0.374328	-1.000000	-1.000000	-1.000000	-1.000000	-1.000000	-1.000000	-1.000000	70.413793	0.000000	-1.000000	-1.000000	1181674.000000	1773689920.157552
772.560000	11854.395000	18388.755000	6308.910000	-19731.870000	3119.265000	-5488.785000	-3264.885000	4.985531	3.998670	3.301634	3.928654	4.413287	6.041691	11.781818	0.693804	-1.113980	5.127360	-2.746800	0.896970	-0.167724	0.374328	-1.000000	-1.000000	-1.000000	-1.000000	-1.000000	-1.000000	-1.000000	70.413793	0.000000	-1.000000	-1.000000	1181675.000000	1773689920.161831
763.290000	11845.485000	18386.460000	6307.380000	-19729.170000	3122.820000	-5496.345000	-3294.540000	1.744773	-2.451892	-3.181192	-1.583189	-1.889778	0.060481	15.748917	4.040668	-1.113980	5.127360	-2.746800	0.896970	-0.167724	0.374328	-1.000000	-1.000000	-1.000000	-1.000000	-1.000000	-1.000000	-1.000000	70.413793	0.000000	-1.000000	-1.000000	1181676.000000	1773689920.161842
730.620000	11828.970000	18373.185000	6291.945000	-19740.780000	3113.370000	-5497.335000	-3302.865000	-2.473954	-8.821233	-8.772493	-6.460193	-6.642110	-4.696441	13.733494	1.876785	-1.113980	5.127360	-2.746800	0.896970	-0.167724	0.374328	-1.000000	-1.000000	-1.000000	-1.000000	-1.000000	-1.000000	-1.000000	70.413793	0.000000	-1.000000	-1.000000	1181677.000000	1773689920.166920
792.405000	11841.570000	18382.500000	6300.720000	-19729.440000	3120.705000	-5494.230000	-3236.940000	-5.290232	-12.280556	-11.157688	-8.941150	-7.806195	-5.714537	5.533982	-2.567771	-1.113980	5.127360	-2.746800	0.896970	-0.167724	0.374328	-1.000000	-1.000000	-1.000000	-1.000000	-1.000000	-1.000000	-1.000000	70.413793	0.000000	-1.000000	-1.000000	1181678.000000	1773689920.166932
821.430000	11847.915000	18381.555000	6296.445000	-19735.425000	3111.030000	-5498.235000	-3183.165000	-3.505995	-10.918139	-9.332935	-8.007576	-5.279627	-3.215817	-4.853195	-1.479615	-1.113980	5.127360	-2.746800	0.896970	-0.167724	0.374328	-1.000000	-1.000000	-1.000000	-1.000000	-1.000000	-1.000000	-1.000000	70.413793	0.000000	-1.000000	-1.000000	1181679.000000	1773689920.169852
835.920000	11848.905000	18379.935000	6294.960000	-19738.980000	3109.365000	-5503.050000	-3186.000000	3.777004	-4.886074	-4.139861	-4.228756	-1.243069	-0.050073	-12.531733	7.775755	-1.113980	5.127360	-2.746800	0.896970	-0.167724	0.374328	-1.000000	-1.000000	-1.000000	-1.000000	-1.000000	-1.000000	-1.000000	70.413793	0.000000	-1.000000	-1.000000	1181680.000000	1773689920.169862
778.905000	11825.010000	18359.730000	6277.230000	-19754.865000	3098.610000	-5515.020000	-3236.445000	10.849183	2.494461	1.458431	-0.115608	1.170257	0.872669	-14.961906	16.796792	-1.297100	5.768280	-3.402980	0.901121	-0.168579	0.370910	-1.000000	-1.000000	-1.000000	-1.000000	-1.000000	-1.000000	-1.000000	70.413793	0.000000	-1.000000	-1.000000	1181681.000000	1773689920.173474
743.715000	11829.420000	18368.730000	6288.210000	-19742.220000	3114.405000	-5515.425000	-3256.515000	9.455917	7.065689	4.657987	2.168956	1.200866	-0.106438	-12.638136	14.153741	-1.297100	5.768280	-3.402980	0.901121	-0.168579	0.370910	-1.000000	-1.000000	-1.000000	-1.000000	-1.000000	-1.000000	-1.000000	70.413793	0.000000	-1.000000	-1.000000	1181682.000000	1773689920.173483
765.585000	11845.935000	18383.985000	6305.040000	-19724.580000	3132.405000	-5515.470000	-3255.840000	-1.391353	8.055771	5.826004	3.369787	1.377538	0.191096	-7.617497	-1.210897	-1.297100	5.768280	-3.402980	0.901121	-0.168579	0.370910	-1.000000	-1.000000	-1.000000	-1.000000	-1.000000	-1.000000	-1.000000	70.413793	0.000000	-1.000000	-1.000000	1181683.000000	1773689920.177681
776.835000	11839.590000	18372.510000	6289.020000	-19739.115000	3119.355000	-5524.335000	-3248.145000	-12.939874	7.646495	6.902744	5.221358	3.581824	3.121956	-1.927685	-18.269977	-1.297100	5.768280	-3.402980	0.901121	-0.168579	0.370910	-1.000000	-1.000000	-1.000000	-1.000000	-1.000000	-1.000000	-1.000000	70.413793	0.000000	-1.000000	-1.000000	1181684.000000	1773689920.177692
792.495000	11857.365000	18390.060000	6304.005000	-19725.795000	3128.445000	-5511.555000	-3230.595000	-15.420122	7.281697	7.940643	7.201122	6.193153	6.085860	3.245937	-24.517531	-1.297100	5.768280	-3.402980	0.901121	-0.168579	0.370910	-1.000000	-1.000000	-1.000000	-1.000000	-1.000000	-1.000000	-1.000000	70.413793	0.000000	-1.000000	-1.000000	1181685.000000	1773689920.187256
786.555000	11854.710000	18388.935000	6301.710000	-19735.695000	3106.980000	-5501.115000	-3231.495000	-7.146558	6.668878	7.676131	7.689344	6.713281	6.101157	7.611711	-16.470141	-1.297100	5.768280	-3.402980	0.901121	-0.168579	0.370910	-1.000000	-1.000000	-1.000000	-1.000000	-1.000000	-1.000000	-1.000000	70.413793	0.000000	-1.000000	-1.000000	1181686.000000	1773689920.187267
782.145000	11853.045000	18385.920000	6295.590000	-19743.390000	3101.580000	-5504.445000	-3238.830000	4.316976	4.434055	5.104243	5.744231	4.158825	2.509464	10.622196	-1.953804	-1.297100	5.768280	-3.402980	0.901121	-0.168579	0.370910	-1.000000	-1.000000	-1.000000	-1.000000	-1.000000	-1.000000	-1.000000	70.413793	0.000000	-1.000000	-1.000000	1181687.000000	1773689920.187592
783.360000	11848.635000	18381.195000	6292.710000	-19741.230000	3107.520000	-5502.240000	-3240.945000	9.646544	-0.467669	0.056483	1.273234	-0.810247	-2.985309	11.002589	7.848827	-1.297100	5.768280	-3.402980	0.901121	-0.168579	0.370910	-1.000000	-1.000000	-1.000000	-1.000000	-1.000000	-1.000000	-1.000000	70.413793	0.000000	-1.000000	-1.000000	1181688.000000	1773689920.187603
784.035000	11844.360000	18379.305000	6297.120000	-19730.520000	3123.630000	-5497.650000	-3234.870000	6.749052	-6.711217	-5.857595	-4.152874	-5.596773	-6.901540	8.301403	9.115754	-1.297100	5.768280	-3.402980	0.901121	-0.168579	0.370910	-1.000000	-1.000000	-1.000000	-1.000000	-1.000000	-1.000000	-1.000000	70.413793	0.000000	-1.000000	-1.000000	1181689.000000	1773689920.193880
781.695000	11849.220000	18385.245000	6305.580000	-19725.345000	3130.920000	-5502.915000	-3242.655000	1.289315	-10.882265	-9.666780	-7.645852	-7.072845	-6.396253	3.626233	6.473597	-1.297100	5.768280	-3.402980	0.901121	-0.168579	0.370910	-1.000000	-1.000000	-1.000000	-1.000000	-1.000000	-1.000000	-1.000000	70.413793	0.000000	-1.000000	-1.000000	1181690.000000	1773689920.193894
784.980000	11859.165000	18395.010000	6314.625000	-19717.470000	3142.125000	-5502.915000	-3244.365000	-0.581560	-10.278594	-9.252762	-7.372475	-4.514577	-1.923825	-1.556957	5.126019	-0.518840	5.798800	-3.738700	0.902158	-0.169860	0.370055	-1.000000	-1.000000	-1.000000	-1.000000	-1.000000	-1.000000	-1.000000	70.413793	0.000000	-1.000000	-1.000000	1181691.000000	1773689920.193908
783.630000	11857.005000	18394.380000	6314.760000	-19712.565000	3150.405000	-5498.055000	-3245.220000	1.474813	-5.365225	-5.102794	-4.081652	-0.174580	3.225876	-5.909510	5.633051	-0.518840	5.798800	-3.738700	0.902158	-0.169860	0.370055	-1.000000	-1.000000	-1.000000	-1.000000	-1.000000	-1.000000	-1.000000	70.413793	0.000000	-1.000000	-1.000000	1181692.000000	1773689920.193913
789.795000	11872.755000	18410.670000	6329.880000	-19695.195000	3166.155000	-5484.105000	-3236.580000	3.428951	0.956173	0.438189	0.161312	3.365525	6.133564	-7.816074	5.767043	-0.518840	5.798800	-3.738700	0.902158	-0.169860	0.370055	-1.000000	-1.000000	-1.000000	-1.000000	-1.000000	-1.000000	-1.000000	70.413793	0.000000	-1.000000	-1.000000	1181693.000000	1773689920.209517
799.965000	11892.915000	18432.045000	6349.230000	-19677.465000	3180.735000	-5473.755000	-3262.140000	2.747516	6.080588	5.200874	3.845009	5.226946	6.324278	-6.402778	3.628218	-0.518840	5.798800	-3.738700	0.902158	-0.169860	0.370055	-1.000000	-1.000000	-1.000000	-1.000000	-1.000000	-1.000000	-1.000000	70.413793	0.000000	-1.000000	-1.000000	1181694.000000	1773689920.209529
797.130000	11906.460000	18446.805000	6362.055000	-19656.315000	3205.485000	-5465.205000	-3269.205000	0.082894	8.802109	7.985260	6.199518	5.800144	5.171173	-2.752843	-1.430862	-0.518840	5.798800	-3.738700	0.902158	-0.169860	0.370055	-1.000000	-1.000000	-1.000000	-1.000000	-1.000000	-1.000000	-1.000000	70.413793	0.000000	-1.000000	-1.000000	1181695.000000	1773689920.209544
800.055000	11874.015000	18408.870000	6323.985000	-19696.275000	3161.115000	-5480.145000	-3223.665000	-3.058360	8.195906	7.657663	6.110166	4.864335	3.256819	0.786064	-7.223723	-0.518840	5.798800	-3.738700	0.902158	-0.169860	0.370055	-1.000000	-1.000000	-1.000000	-1.000000	-1.000000	-1.000000	-1.000000	70.413793	0.000000	-1.000000	-1.000000	1181696.000000	1773689920.209549
813.690000	11836.890000	18363.285000	6274.890000	-19766.430000	3072.690000	-5501.610000	-3187.665000	-5.235938	3.012290	2.551104	1.571081	-0.039256	-2.243396	1.857089	-8.555838	-0.518840	5.798800	-3.738700	0.902158	-0.169860	0.370055	-1.000000	-1.000000	-1.000000	-1.000000	-1.000000	-1.000000	-1.000000	70.413793	0.000000	-1.000000	-1.000000	1181697.000000	1773689920.209555
780.300000	11843.775000	18370.260000	6278.265000	-19768.140000	3072.195000	-5523.030000	-3226.770000	-5.343478	-5.673601	-6.633706	-7.314175	-10.095305	-13.389618	-0.577544	-3.170771	-0.518840	5.798800	-3.738700	0.902158	-0.169860	0.370055	-1.000000	-1.000000	-1.000000	-1.000000	-1.000000	-1.000000	-1.000000	70.413793	0.000000	-1.000000	-1.000000	1181698.000000	1773689920.209560
783.000000	11850.615000	18382.005000	6292.710000	-19745.055000	3104.100000	-5523.750000	-3231.180000	-3.680430	-12.721532	-14.368300	-15.258817	-19.654077	-23.973350	-4.811146	4.156259	-0.518840	5.798800	-3.738700	0.902158	-0.169860	0.370055	-1.000000	-1.000000	-1.000000	-1.000000	-1.000000	-1.000000	-1.000000	70.413793	0.000000	-1.000000	-1.000000	1181699.000000	1773689920.211310
792.855000	11861.370000	18399.285000	6318.270000	-19703.745000	3152.700000	-5502.465000	-3239.955000	-1.256146	-13.032555	-14.492398	-15.435332	-19.589992	-23.109500	-6.905685	7.154176	-0.518840	5.798800	-3.738700	0.902158	-0.169860	0.370055	-1.000000	-1.000000	-1.000000	-1.000000	-1.000000	-1.000000	-1.000000	70.413793	0.000000	-1.000000	-1.000000	1181700.000000	1773689920.211322
799.875000	11868.255000	18406.080000	6321.330000	-19711.755000	3143.250000	-5496.705000	-3232.080000	1.375694	-6.122963	-6.025587	-6.067772	-7.104433	-7.499665	-3.915355	4.328744	4.135460	6.989080	-3.845520	0.903074	-0.173217	0.372191	-1.000000	-1.000000	-1.000000	-1.000000	-1.000000	-1.000000	-1.000000	70.413793	0.000000	-1.000000	-1.000000	1181701.000000	1773689920.217547
790.155000	11858.355000	18396.630000	6314.310000	-19726.560000	3118.680000	-5504.850000	-3237.345000	3.420025	3.630036	5.799530	7.366724	10.209704	13.556702	2.728360	-1.339169	4.135460	6.989080	-3.845520	0.903074	-0.173217	0.372191	-1.000000	-1.000000	-1.000000	-1.000000	-1.000000	-1.000000	-1.000000	70.413793	0.000000	-1.000000	-1.000000	1181702.000000	1773689920.217559
791.010000	11858.580000	18397.035000	6313.095000	-19720.305000	3125.700000	-5506.920000	-3239.055000	3.620837	10.022433	13.340777	16.228373	20.974143	26.419346	8.101764	-5.669047	4.135460	6.989080	-3.845520	0.903074	-0.173217	0.372191	-1.000000	-1.000000	-1.000000	-1.000000	-1.000000	-1.000000	-1.000000	70.413793	0.000000	-1.000000	-1.000000	1181703.000000	1773689920.217872
776.745000	11845.710000	18381.195000	6293.430000	-19738.710000	3118.185000	-5500.890000	-3249.630000	1.606191	9.824597	12.636556	15.720514	19.862730	25.010163	8.846774	-6.597146	4.135460	6.989080	-3.845520	0.903074	-0.173217	0.372191	-1.000000	-1.000000	-1.000000	-1.000000	-1.000000	-1.000000	-1.000000	70.413793	0.000000	-1.000000	-1.000000	1181704.000000	1773689920.217883
771.930000	11837.520000	18371.835000	6284.610000	-19744.965000	3114.180000	-5498.145000	-3250.800000	-1.655715	5.176790	6.271017	8.191230	10.521596	14.058178	6.081639	-5.668305	4.135460	6.989080	-3.845520	0.903074	-0.173217	0.372191	-1.000000	-1.000000	-1.000000	-1.000000	-1.000000	-1.000000	-1.000000	70.413793	0.000000	-1.000000	-1.000000	1181705.000000	1773689920.224068
787.725000	11859.165000	18394.515000	6306.930000	-19729.755000	3111.300000	-5506.065000	-3247.740000	-4.083397	1.149978	0.463449	0.424565	1.249770	3.025408	3.009892	-4.920206	4.135460	6.989080	-3.845520	0.903074	-0.173217	0.372191	-1.000000	-1.000000	-1.000000	-1.000000	-1.000000	-1.000000	-1.000000	70.413793	0.000000	-1.000000	-1.000000	1181706.000000	1773689920.224079
792.180000	11859.660000	18394.470000	6307.830000	-19733.220000	3107.115000	-5507.280000	-3245.445000	-2.916258	0.845055	-0.836955	-2.604516	-2.513204	-2.817348	1.334928	-3.111726	4.135460	6.989080	-3.845520	0.903074	-0.173217	0.372191	-1.000000	-1.000000	-1.000000	-1.000000	-1.000000	-1.000000	-1.000000	70.413793	0.000000	-1.000000	-1.000000	1181707.000000	1773689920.227557
770.445000	11830.590000	18370.710000	6293.745000	-19734.480000	3119.625000	-5501.880000	-3250.170000	1.885110	2.218394	0.354252	-2.114198	-2.614130	-5.475925	0.484978	1.730846	4.135460	6.989080	-3.845520	0.903074	-0.173217	0.372191	-1.000000	-1.000000	-1.000000	-1.000000	-1.000000	-1.000000	-1.000000	70.413793	0.000000	-1.000000	-1.000000	1181708.000000	1773689920.227567
746.010000	11834.010000	18375.345000	6296.940000	-19731.645000	3124.800000	-5500.980000	-3256.425000	5.608715	0.980126	-0.573907	-2.540434	-3.877562	-8.535285	-0.979431	7.835590	4.135460	6.989080	-3.845520	0.903074	-0.173217	0.372191	-1.000000	-1.000000	-1.000000	-1.000000	-1.000000	-1.000000	-1.000000	70.413793	0.000000	-1.000000	-1.000000	1181709.000000	1773689920.229645
748.080000	11850.390000	18390.060000	6308.505000	-19723.320000	3131.055000	-5496.750000	-3263.670000	4.050836	-3.281963	-4.286826	-5.091400	-7.087562	-11.473074	-3.498972	10.958583	4.135460	6.989080	-3.845520	0.903074	-0.173217	0.372191	-1.000000	-1.000000	-1.000000	-1.000000	-1.000000	-1.000000	-1.000000	70.413793	0.000000	-1.000000	-1.000000	1181710.000000	1773689920.229656
765.810000	11847.780000	18387.900000	6305.085000	-19726.245000	3123.540000	-5501.520000	-3276.945000	-1.000999	-6.758486	-7.201430	-7.041210	-8.973379	-11.138548	-5.835910	8.756662	3.067260	6.668620	-3.464020	0.904172	-0.172241	0.374511	-1.000000	-1.000000	-1.000000	-1.000000	-1.000000	-1.000000	-1.000000	70.413793	0.000000	-1.000000	-1.000000	1181711.000000	1773689920.239098
784.260000	11851.785000	18389.430000	6304.455000	-19725.570000	3125.430000	-5499.855000	-3270.330000	-4.007411	-6.504675	-6.531705	-6.052006	-7.282634	-6.701200	-6.468340	2.764273	3.067260	6.668620	-3.464020	0.904172	-0.172241	0.374511	-1.000000	-1.000000	-1.000000	-1.000000	-1.000000	-1.000000	-1.000000	70.413793	0.000000	-1.000000	-1.000000	1181712.000000	1773689920.239113
794.250000	11844.225000	18379.350000	6293.745000	-19734.615000	3121.785000	-5504.265000	-3243.015000	-1.697896	-2.711650	-2.475504	-2.149069	-2.612210	-0.362086	-5.007048	-2.916417	3.067260	6.668620	-3.464020	0.904172	-0.172241	0.374511	-1.000000	-1.000000	-1.000000	-1.000000	-1.000000	-1.000000	-1.000000	70.413793	0.000000	-1.000000	-1.000000	1181713.000000	1773689920.239126
811.620000	11846.115000	18382.725000	6298.920000	-19728.540000	3127.230000	-5505.615000	-3229.695000	4.192578	2.462910	2.922656	3.035538	3.189048	5.645577	-2.065839	-4.784066	3.067260	6.668620	-3.464020	0.904172	-0.172241	0.374511	-1.000000	-1.000000	-1.000000	-1.000000	-1.000000	-1.000000	-1.000000	70.413793	0.000000	-1.000000	-1.000000	1181714.000000	1773689920.239132
778.590000	11850.030000	18389.385000	6307.785000	-19718.190000	3136.860000	-5507.145000	-3247.110000	8.557435	6.069145	6.827868	6.971392	7.873996	9.935126	1.463343	-2.759204	3.067260	6.668620	-3.464020	0.904172	-0.172241	0.374511	-1.000000	-1.000000	-1.000000	-1.000000	-1.000000	-1.000000	-1.000000	70.413793	0.000000	-1.000000	-1.000000	1181715.000000	1773689920.241603
778.680000	11867.130000	18402.030000	6315.210000	-19726.875000	3119.445000	-5510.205000	-3259.890000	7.024099	6.421766	7.394361	7.699804	9.196150	10.663304	4.457077	-0.014655	3.067260	6.668620	-3.464020	0.904172	-0.172241	0.374511	-1.000000	-1.000000	-1.000000	-1.000000	-1.000000	-1.000000	-1.000000	70.413793	0.000000	-1.000000	-1.000000	1181716.000000	1773689920.241615
801.765000	11895.390000	18433.395000	6343.695000	-19710.405000	3131.055000	-5510.205000	-3292.965000	0.572097	4.964725	5.644539	5.645865	6.221596	6.148360	5.466397	0.075329	3.067260	6.668620	-3.464020	0.904172	-0.172241	0.374511	-1.000000	-1.000000	-1.000000	-1.000000	-1.000000	-1.000000	-1.000000	70.413793	0.000000	-1.000000	-1.000000	1181717.000000	1773689920.245552
794.880000	11879.865000	18412.380000	6319.035000	-19734.795000	3107.880000	-5517.810000	-3270.285000	-5.258254	3.608494	3.412484	2.452559	0.256704	-2.372810	3.720276	-2.800700	3.067260	6.668620	-3.464020	0.904172	-0.172241	0.374511	-1.000000	-1.000000	-1.000000	-1.000000	-1.000000	-1.000000	-1.000000	70.413793	0.000000	-1.000000	-1.000000	1181718.000000	1773689920.245560
761.985000	11826.900000	18361.305000	6275.295000	-19765.485000	3085.200000	-5515.965000	-3228.390000	-7.480422	0.689259	-0.441163	-2.108569	-6.503540	-10.815777	0.173357	-4.700660	3.067260	6.668620	-3.464020	0.904172	-0.172241	0.374511	-1.000000	-1.000000	-1.000000	-1.000000	-1.000000	-1.000000	-1.000000	70.413793	0.000000	-1.000000	-1.000000	1181719.000000	1773689920.249895
768.645000	11815.470000	18350.820000	6265.935000	-19761.930000	3099.015000	-5505.255000	-3215.970000	-8.013848	-6.250715	-7.676105	-8.685414	-11.850227	-14.886261	-2.780745	-1.286365	3.067260	6.668620	-3.464020	0.904172	-0.172241	0.374511	-1.000000	-1.000000	-1.000000	-1.000000	-1.000000	-1.000000	-1.000000	70.413793	0.000000	-1.000000	-1.000000	1181720.000000	1773689920.249905
781.245000	11836.710000	18372.105000	6285.420000	-19743.930000	3115.620000	-5498.640000	-3232.080000	-8.236464	-14.118393	-14.844174	-13.907532	-12.553145	-11.700314	-2.992131	5.703612	-0.305200	6.867000	-5.829320	0.904783	-0.167663	0.376830	-1.000000	-1.000000	-1.000000	-1.000000	-1.000000	-1.000000	-1.000000	70.413793	0.000000	-1.000000	-1.000000	1181721.000000	1773689920.253627
785.205000	11845.935000	18379.575000	6290.460000	-19748.565000	3106.980000	-5504.130000	-3228.570000	-6.711705	-15.625662	-14.987950	-12.195173	-6.324508	-1.825169	-0.480950	9.169537	-0.305200	6.867000	-5.829320	0.904783	-0.167663	0.376830	-1.000000	-1.000000	-1.000000	-1.000000	-1.000000	-1.000000	-1.000000	70.413793	0.000000	-1.000000	-1.000000	1181722.000000	1773689920.253637
779.760000	11842.200000	18378.720000	6293.970000	-19743.120000	3116.430000	-5502.735000	-3228.525000	-2.556963	-7.815369	-6.012040	-2.812766	4.224697	9.627146	2.639111	5.117648	-0.305200	6.867000	-5.829320	0.904783	-0.167663	0.376830	-1.000000	-1.000000	-1.000000	-1.000000	-1.000000	-1.000000	-1.000000	70.413793	0.000000	-1.000000	-1.000000	1181723.000000	1773689920.257856
780.390000	11845.620000	18382.410000	6298.920000	-19739.160000	3122.325000	-5505.030000	-3233.610000	3.173491	4.358268	6.430443	8.458547	12.871702	16.461695	4.173782	-3.041912	-0.305200	6.867000	-5.829320	0.904783	-0.167663	0.376830	-1.000000	-1.000000	-1.000000	-1.000000	-1.000000	-1.000000	-1.000000	70.413793	0.000000	-1.000000	-1.000000	1181724.000000	1773689920.257866
780.210000	11846.295000	18382.140000	6299.955000	-19740.555000	3120.660000	-5510.250000	-3239.955000	8.406255	13.226394	14.585078	14.782529	15.017009	15.718941	3.183414	-8.926257	-0.305200	6.867000	-5.829320	0.904783	-0.167663	0.376830	-1.000000	-1.000000	-1.000000	-1.000000	-1.000000	-1.000000	-1.000000	70.413793	0.000000	-1.000000	-1.000000	1181725.000000	1773689920.262908
781.560000	11850.885000	18388.530000	6306.570000	-19731.780000	3128.985000	-5506.020000	-3243.960000	10.650329	14.459989	14.538793	13.279948	10.358901	8.565160	0.192911	-8.989741	-0.305200	6.867000	-5.829320	0.904783	-0.167663	0.376830	-1.000000	-1.000000	-1.000000	-1.000000	-1.000000	-1.000000	-1.000000	70.413793	0.000000	-1.000000	-1.000000	1181726.000000	1773689920.262918
778.995000	11847.150000	18384.480000	6300.045000	-19737.945000	3120.930000	-5507.730000	-3249.630000	8.880618	9.285580	8.219823	6.374216	2.493588	-0.749560	-2.996342	-4.777258	-0.305200	6.867000	-5.829320	0.904783	-0.167663	0.376830	-1.000000	-1.000000	-1.000000	-1.000000	-1.000000	-1.000000	-1.000000	70.413793	0.000000	-1.000000	-1.000000	1181727.000000	1773689920.267310
774.720000	11841.210000	18382.320000	6297.570000	-19739.205000	3120.210000	-5502.960000	-3247.065000	4.613085	2.747255	1.265001	-0.543082	-3.817390	-7.506257	-4.575377	-0.798550	-0.305200	6.867000	-5.829320	0.904783	-0.167663	0.376830	-1.000000	-1.000000	-1.000000	-1.000000	-1.000000	-1.000000	-1.000000	70.413793	0.000000	-1.000000	-1.000000	1181728.000000	1773689920.267320
780.930000	11850.300000	18392.130000	6306.210000	-19730.565000	3127.500000	-5496.390000	-3251.295000	-0.095815	-1.126550	-2.212141	-3.817999	-6.301591	-9.768985	-4.034943	0.397902	-0.305200	6.867000	-5.829320	0.904783	-0.167663	0.376830	-1.000000	-1.000000	-1.000000	-1.000000	-1.000000	-1.000000	-1.000000	70.413793	0.000000	-1.000000	-1.000000	1181729.000000	1773689920.269833
792.630000	11871.630000	18412.695000	6324.570000	-19713.555000	3143.385000	-5489.100000	-3272.850000	-4.003697	-1.990454	-2.236170	-3.531470	-5.537667	-8.269984	-1.909293	-0.297877	-0.305200	6.867000	-5.829320	0.904783	-0.167663	0.376830	-1.000000	-1.000000	-1.000000	-1.000000	-1.000000	-1.000000	-1.000000	70.413793	0.000000	-1.000000	-1.000000	1181730.000000	1773689920.269843
787.095000	11884.635000	18425.205000	6334.245000	-19708.785000	3149.055000	-5488.515000	-3265.200000	-6.213337	-1.287513	-0.823194	-1.618862	-2.940903	-4.294420	0.943719	-1.107703	-3.296160	5.829320	-6.607580	0.906248	-0.167724	0.379333	-1.000000	-1.000000	-1.000000	-1.000000	-1.000000	-1.000000	-1.000000	70.413793	0.000000	-1.000000	-1.000000	1181731.000000	1773689920.283979
782.325000	11881.755000	18422.190000	6330.780000	-19716.795000	3142.350000	-5499.405000	-3245.265000	-6.225745	-0.477296	0.091611	-0.194950	-0.386459	0.203483	3.231974	-0.238146	-3.296160	5.829320	-6.607580	0.906248	-0.167724	0.379333	-1.000000	-1.000000	-1.000000	-1.000000	-1.000000	-1.000000	-1.000000	70.413793	0.000000	-1.000000	-1.000000	1181732.000000	1773689920.283993
772.425000	11861.055000	18401.715000	6314.355000	-19728.225000	3135.420000	-5512.320000	-3250.080000	-4.441351	-1.197196	-1.147451	-1.037612	0.007124	2.529498	3.395789	3.527000	-3.296160	5.829320	-6.607580	0.906248	-0.167724	0.379333	-1.000000	-1.000000	-1.000000	-1.000000	-1.000000	-1.000000	-1.000000	70.413793	0.000000	-1.000000	-1.000000	1181733.000000	1773689920.284008
778.500000	11832.300000	18371.655000	6288.750000	-19747.395000	3120.840000	-5520.105000	-3236.310000	-2.035353	-4.784890	-5.443069	-4.803004	-2.531779	1.293334	0.950491	8.878130	-3.296160	5.829320	-6.607580	0.906248	-0.167724	0.379333	-1.000000	-1.000000	-1.000000	-1.000000	-1.000000	-1.000000	-1.000000	70.413793	0.000000	-1.000000	-1.000000	1181734.000000	1773689920.284013
798.660000	11851.245000	18386.910000	6301.215000	-19736.145000	3130.155000	-5501.340000	-3219.480000	0.375395	-9.945861	-11.072895	-9.615139	-6.237271	-2.118268	-2.390945	12.692183	-3.296160	5.829320	-6.607580	0.906248	-0.167724	0.379333	-1.000000	-1.000000	-1.000000	-1.000000	-1.000000	-1.000000	-1.000000	70.413793	0.000000	-1.000000	-1.000000	1181735.000000	1773689920.284019
793.620000	11848.005000	18384.030000	6298.605000	-19737.045000	3126.645000	-5493.690000	-3233.925000	3.119118	-11.928387	-13.129885	-11.001682	-7.375216	-4.253805	-3.674566	12.073013	-3.296160	5.829320	-6.607580	0.906248	-0.167724	0.379333	-1.000000	-1.000000	-1.000000	-1.000000	-1.000000	-1.000000	-1.000000	70.413793	0.000000	-1.000000	-1.000000	1181736.000000	1773689920.284024
786.555000	11830.635000	18368.460000	6283.350000	-19752.525000	3106.845000	-5499.495000	-3238.380000	5.425047	-7.453485	-8.320264	-6.265898	-3.939646	-3.102199	-1.812105	5.645415	-3.296160	5.829320	-6.607580	0.906248	-0.167724	0.379333	-1.000000	-1.000000	-1.000000	-1.000000	-1.000000	-1.000000	-1.000000	70.413793	0.000000	-1.000000	-1.000000	1181737.000000	1773689920.285801
773.730000	11831.220000	18371.115000	6285.780000	-19749.780000	3111.480000	-5506.965000	-3242.295000	4.974763	0.747204	0.628884	1.814657	1.659611	-0.310272	1.007850	-4.449393	-3.296160	5.829320	-6.607580	0.906248	-0.167724	0.379333	-1.000000	-1.000000	-1.000000	-1.000000	-1.000000	-1.000000	-1.000000	70.413793	0.000000	-1.000000	-1.000000	1181738.000000	1773689920.285814
776.475000	11845.260000	18387.405000	6303.915000	-19732.230000	3130.065000	-5500.845000	-3233.295000	0.822387	7.326971	8.281739	8.321747	5.849606	1.976594	2.167376	-12.819956	-3.296160	5.829320	-6.607580	0.906248	-0.167724	0.379333	-1.000000	-1.000000	-1.000000	-1.000000	-1.000000	-1.000000	-1.000000	70.413793	0.000000	-1.000000	-1.000000	1181739.000000	1773689920.290377
778.320000	11847.195000	18388.935000	6305.535000	-19734.705000	3127.005000	-5497.740000	-3234.780000	-4.444876	9.700181	11.661547	10.859355	7.475488	3.615134	1.568278	-15.172339	-3.296160	5.829320	-6.607580	0.906248	-0.167724	0.379333	-1.000000	-1.000000	-1.000000	-1.000000	-1.000000	-1.000000	-1.000000	70.413793	0.000000	-1.000000	-1.000000	1181740.000000	1773689920.290391
781.605000	11856.960000	18398.025000	6313.140000	-19731.240000	3124.755000	-5499.990000	-3237.570000	-6.682469	8.735872	11.028841	9.844920	7.086172	4.775016	0.881461	-11.574008	-2.289000	6.210820	-6.485500	0.906797	-0.168029	0.380126	-1.000000	-1.000000	-1.000000	-1.000000	-1.000000	-1.000000	-1.000000	70.413793	0.000000	-1.000000	-1.000000	1181741.000000	1773689920.296065
788.895000	11857.005000	18397.080000	6313.905000	-19723.905000	3138.930000	-5503.680000	-3238.155000	-4.098261	6.776487	8.399418	7.037286	5.660137	5.210458	1.158213	-5.007769	-2.289000	6.210820	-6.485500	0.906797	-0.168029	0.380126	-1.000000	-1.000000	-1.000000	-1.000000	-1.000000	-1.000000	-1.000000	70.413793	0.000000	-1.000000	-1.000000	1181742.000000	1773689920.296075
782.055000	11837.655000	18377.505000	6297.165000	-19732.545000	3137.580000	-5507.325000	-3244.590000	1.150904	5.012166	5.275383	3.824732	3.926541	4.968899	1.785595	1.239969	-2.289000	6.210820	-6.485500	0.906797	-0.168029	0.380126	-1.000000	-1.000000	-1.000000	-1.000000	-1.000000	-1.000000	-1.000000	70.413793	0.000000	-1.000000	-1.000000	1181743.000000	1773689920.298736
770.130000	11838.240000	18375.750000	6290.280000	-19741.635000	3124.485000	-5507.640000	-3252.690000	4.785407	2.388928	1.331357	0.087170	1.485594	3.658772	1.256088	4.639536	-2.289000	6.210820	-6.485500	0.906797	-0.168029	0.380126	-1.000000	-1.000000	-1.000000	-1.000000	-1.000000	-1.000000	-1.000000	70.413793	0.000000	-1.000000	-1.000000	1181744.000000	1773689920.298746
780.975000	11849.895000	18385.380000	6296.220000	-19743.390000	3108.015000	-5502.690000	-3239.820000	4.463617	-1.433775	-3.254152	-4.023539	-2.067703	0.498367	-0.899431	4.877431	-2.289000	6.210820	-6.485500	0.906797	-0.168029	0.380126	-1.000000	-1.000000	-1.000000	-1.000000	-1.000000	-1.000000	-1.000000	70.413793	0.000000	-1.000000	-1.000000	1181745.000000	1773689920.302350
783.360000	11849.400000	18381.645000	6291.315000	-19747.395000	3106.485000	-5497.605000	-3237.570000	1.847826	-4.339513	-6.360058	-6.708221	-5.509843	-3.904928	-3.095951	4.154426	-2.289000	6.210820	-6.485500	0.906797	-0.168029	0.380126	-1.000000	-1.000000	-1.000000	-1.000000	-1.000000	-1.000000	-1.000000	70.413793	0.000000	-1.000000	-1.000000	1181746.000000	1773689920.302361
788.895000	11857.275000	18391.950000	6303.015000	-19735.155000	3120.480000	-5498.955000	-3236.895000	-0.116336	-4.867862	-6.667635	-6.701618	-7.084843	-7.314564	-3.389192	4.303736	-2.289000	6.210820	-6.485500	0.906797	-0.168029	0.380126	-1.000000	-1.000000	-1.000000	-1.000000	-1.000000	-1.000000	-1.000000	70.413793	0.000000	-1.000000	-1.000000	1181747.000000	1773689920.307808
783.000000	11858.940000	18395.100000	6307.155000	-19734.300000	3114.045000	-5503.590000	-3253.455000	-0.450905	-3.987116	-5.095779	-4.701633	-6.212732	-7.884188	-1.767258	4.538702	-2.289000	6.210820	-6.485500	0.906797	-0.168029	0.380126	-1.000000	-1.000000	-1.000000	-1.000000	-1.000000	-1.000000	-1.000000	70.413793	0.000000	-1.000000	-1.000000	1181748.000000	1773689920.307819
770.310000	11861.145000	18397.305000	6309.945000	-19735.245000	3114.090000	-5511.285000	-3283.515000	-0.282988	-3.135354	-3.086792	-2.097071	-3.533071	-5.570679	0.114860	2.568673	-2.289000	6.210820	-6.485500	0.906797	-0.168029	0.380126	-1.000000	-1.000000	-1.000000	-1.000000	-1.000000	-1.000000	-1.000000	70.413793	0.000000	-1.000000	-1.000000	1181749.000000	1773689920.309614
769.815000	11859.075000	18393.255000	6305.805000	-19740.735000	3113.145000	-5510.205000	-3271.095000	-0.970285	-2.644647	-1.359612	0.135263	-0.310027	-1.596780	1.066162	-2.017127	-2.289000	6.210820	-6.485500	0.906797	-0.168029	0.380126	-1.000000	-1.000000	-1.000000	-1.000000	-1.000000	-1.000000	-1.000000	70.413793	0.000000	-1.000000	-1.000000	1181750.000000	1773689920.309621
762.885000	11833.830000	18370.305000	6290.460000	-19741.905000	3123.090000	-5502.600000	-3244.860000	-2.533968	-2.203467	-0.155676	1.457798	2.160378	2.465557	1.413110	-5.763025	1.068200	5.539380	-4.471180	0.907041	-0.169128	0.382262	-1.000000	-1.000000	-1.000000	-1.000000	-1.000000	-1.000000	-1.000000	70.413793	0.000000	-1.000000	-1.000000	1181751.000000	1773689920.313598
737.955000	11838.330000	18374.850000	6290.820000	-19740.735000	3122.055000	-5502.240000	-3247.380000	-4.073109	-1.587552	0.521544	1.830294	3.369911	5.371734	1.888783	-4.783677	1.068200	5.539380	-4.471180	0.907041	-0.169128	0.382262	-1.000000	-1.000000	-1.000000	-1.000000	-1.000000	-1.000000	-1.000000	70.413793	0.000000	-1.000000	-1.000000	1181752.000000	1773689920.313613
751.590000	11848.905000	18385.335000	6299.190000	-19730.520000	3129.615000	-5502.060000	-3251.520000	-4.569013	-0.374742	1.239449	1.926436	3.864817	6.776169	2.244763	0.302473	1.068200	5.539380	-4.471180	0.907041	-0.169128	0.382262	-1.000000	-1.000000	-1.000000	-1.000000	-1.000000	-1.000000	-1.000000	70.413793	0.000000	-1.000000	-1.000000	1181753.000000	1773689920.325871
773.010000	11832.975000	18368.460000	6283.530000	-19739.295000	3124.845000	-5506.695000	-3258.180000	-2.713031	1.532686	2.326593	2.240710	4.180931	6.919688	1.610367	5.011726	1.068200	5.539380	-4.471180	0.907041	-0.169128	0.382262	-1.000000	-1.000000	-1.000000	-1.000000	-1.000000	-1.000000	-1.000000	70.413793	0.000000	-1.000000	-1.000000	1181754.000000	1773689920.325894
789.300000	11836.530000	18371.250000	6286.635000	-19737.180000	3121.785000	-5515.065000	-3258.540000	2.055689	2.972578	2.826328	2.110700	3.748393	5.458688	-0.314626	5.703966	1.068200	5.539380	-4.471180	0.907041	-0.169128	0.382262	-1.000000	-1.000000	-1.000000	-1.000000	-1.000000	-1.000000	-1.000000	70.413793	0.000000	-1.000000	-1.000000	1181755.000000	1773689920.325908
797.715000	11836.080000	18369.090000	6284.970000	-19745.370000	3117.195000	-5511.825000	-3247.650000	7.910411	2.781578	1.726764	0.705843	1.518896	1.565645	-2.690457	2.665290	1.068200	5.539380	-4.471180	0.907041	-0.169128	0.382262	-1.000000	-1.000000	-1.000000	-1.000000	-1.000000	-1.000000	-1.000000	70.413793	0.000000	-1.000000	-1.000000	1181756.000000	1773689920.325913
786.960000	11843.010000	18378.000000	6295.095000	-19737.630000	3123.405000	-5513.670000	-3252.015000	11.351424	1.316712	-0.446108	-1.496372	-2.212906	-3.906991	-3.876791	-0.832692	1.068200	5.539380	-4.471180	0.907041	-0.169128	0.382262	-1.000000	-1.000000	-1.000000	-1.000000	-1.000000	-1.000000	-1.000000	70.413793	0.000000	-1.000000	-1.000000	1181757.000000	1773689920.325918
787.995000	11862.720000	18395.955000	6310.440000	-19727.910000	3131.190000	-5526.270000	-3258.450000	9.830991	0.196097	-1.764968	-2.679080	-5.110565	-7.856808	-2.933945	-2.105346	1.068200	5.539380	-4.471180	0.907041	-0.169128	0.382262	-1.000000	-1.000000	-1.000000	-1.000000	-1.000000	-1.000000	-1.000000	70.413793	0.000000	-1.000000	-1.000000	1181758.000000	1773689920.325923
789.075000	11881.800000	18414.900000	6324.480000	-19726.470000	3121.380000	-5531.355000	-3260.385000	3.760234	1.217372	-0.248511	-1.094905	-4.838600	-7.999482	-0.770736	-1.621536	1.068200	5.539380	-4.471180	0.907041	-0.169128	0.382262	-1.000000	-1.000000	-1.000000	-1.000000	-1.000000	-1.000000	-1.000000	70.413793	0.000000	-1.000000	-1.000000	1181759.000000	1773689920.329625
782.280000	11862.360000	18395.415000	6305.580000	-19743.795000	3114.045000	-5516.640000	-3242.970000	-3.748467	4.392293	3.885727	2.802988	-1.823125	-5.273537	1.133800	-1.472239	1.068200	5.539380	-4.471180	0.907041	-0.169128	0.382262	-1.000000	-1.000000	-1.000000	-1.000000	-1.000000	-1.000000	-1.000000	70.413793	0.000000	-1.000000	-1.000000	1181760.000000	1773689920.329635
769.050000	11829.825000	18364.320000	6283.755000	-19747.170000	3113.775000	-5510.790000	-3240.720000	-9.164071	6.172733	6.666474	5.511516	1.067595	-2.032397	2.471924	-1.950960	2.655240	4.547480	-3.525060	0.907468	-0.166748	0.383788	-1.000000	-1.000000	-1.000000	-1.000000	-1.000000	-1.000000	-1.000000	70.413793	0.000000	-1.000000	-1.000000	1181761.000000	1773689920.333581
775.215000	11847.015000	18382.905000	6300.720000	-19724.085000	3136.140000	-5515.245000	-3255.570000	-10.949898	2.827004	4.073726	3.887143	2.027245	0.900597	3.411480	-1.950757	2.655240	4.547480	-3.525060	0.907468	-0.166748	0.383788	-1.000000	-1.000000	-1.000000	-1.000000	-1.000000	-1.000000	-1.000000	70.413793	0.000000	-1.000000	-1.000000	1181762.000000	1773689920.333596
776.295000	11838.195000	18376.245000	6297.345000	-19731.870000	3127.545000	-5506.065000	-3263.895000	-9.748834	-4.001275	-2.352221	-0.706193	1.957987	3.926331	3.646309	-1.514908	2.655240	4.547480	-3.525060	0.907468	-0.166748	0.383788	-1.000000	-1.000000	-1.000000	-1.000000	-1.000000	-1.000000	-1.000000	70.413793	0.000000	-1.000000	-1.000000	1181763.000000	1773689920.337639
764.010000	11818.710000	18357.120000	6279.570000	-19760.310000	3102.435000	-5499.855000	-3260.205000	-6.972672	-9.546392	-7.886388	-4.787810	1.492041	5.943299	3.145288	-1.342421	2.655240	4.547480	-3.525060	0.907468	-0.166748	0.383788	-1.000000	-1.000000	-1.000000	-1.000000	-1.000000	-1.000000	-1.000000	70.413793	0.000000	-1.000000	-1.000000	1181764.000000	1773689920.337655
761.310000	11838.285000	18380.610000	6302.520000	-19744.335000	3115.710000	-5501.115000	-3276.000000	-3.715137	-11.059313	-9.796214	-6.643944	-0.109753	4.934463	2.167355	-1.450447	2.655240	4.547480	-3.525060	0.907468	-0.166748	0.383788	-1.000000	-1.000000	-1.000000	-1.000000	-1.000000	-1.000000	-1.000000	70.413793	0.000000	-1.000000	-1.000000	1181765.000000	1773689920.341610
785.565000	11863.620000	18408.330000	6331.860000	-19716.525000	3137.805000	-5500.035000	-3287.430000	0.262894	-7.687692	-7.098352	-5.383533	-1.822668	1.704916	0.725553	-1.464200	2.655240	4.547480	-3.525060	0.907468	-0.166748	0.383788	-1.000000	-1.000000	-1.000000	-1.000000	-1.000000	-1.000000	-1.000000	70.413793	0.000000	-1.000000	-1.000000	1181766.000000	1773689920.341617
798.750000	11859.255000	18397.215000	6318.180000	-19730.025000	3127.410000	-5503.770000	-3257.325000	5.776989	-0.558448	-0.755062	-1.171552	-1.526066	-0.825723	-0.929734	-0.550473	2.655240	4.547480	-3.525060	0.907468	-0.166748	0.383788	-1.000000	-1.000000	-1.000000	-1.000000	-1.000000	-1.000000	-1.000000	70.413793	0.000000	-1.000000	-1.000000	1181767.000000	1773689920.347012
766.215000	11831.445000	18359.010000	6272.730000	-19779.075000	3078.045000	-5523.030000	-3222.360000	11.114955	6.160267	4.934605	2.665281	-0.182596	-2.116822	-2.663619	2.469768	2.655240	4.547480	-3.525060	0.907468	-0.166748	0.383788	-1.000000	-1.000000	-1.000000	-1.000000	-1.000000	-1.000000	-1.000000	70.413793	0.000000	-1.000000	-1.000000	1181768.000000	1773689920.347023
767.790000	11849.220000	18370.845000	6271.515000	-19790.505000	3051.045000	-5539.095000	-3237.930000	12.450346	8.849875	6.219897	2.678251	-0.754636	-4.258672	-5.129353	6.789174	2.655240	4.547480	-3.525060	0.907468	-0.166748	0.383788	-1.000000	-1.000000	-1.000000	-1.000000	-1.000000	-1.000000	-1.000000	70.413793	0.000000	-1.000000	-1.000000	1181769.000000	1773689920.350707
777.870000	11865.960000	18387.315000	6288.345000	-19770.165000	3071.925000	-5525.640000	-3253.230000	8.616150	8.264714	4.423825	0.100429	-3.185903	-7.411056	-7.920470	8.682625	2.655240	4.547480	-3.525060	0.907468	-0.166748	0.383788	-1.000000	-1.000000	-1.000000	-1.000000	-1.000000	-1.000000	-1.000000	70.413793	0.000000	-1.000000	-1.000000	1181770.000000	1773689920.350717
768.960000	11841.705000	18372.330000	6289.560000	-19750.365000	3106.035000	-5516.820000	-3260.565000	1.998420	6.465897	2.791010	-1.159672	-4.014475	-7.849585	-8.257963	5.494511	-1.449700	4.532220	-3.250380	0.909238	-0.159362	0.384643	-1.000000	-1.000000	-1.000000	-1.000000	-1.000000	-1.000000	-1.000000	70.413793	0.000000	-1.000000	-1.000000	1181771.000000	1773689920.353632
766.980000	11822.535000	18360.855000	6286.995000	-19743.615000	3120.480000	-5512.905000	-3251.115000	-4.597772	3.075683	1.724785	0.387532	-0.578384	-2.016725	-4.126447	-0.962692	-1.449700	4.532220	-3.250380	0.909238	-0.159362	0.384643	-1.000000	-1.000000	-1.000000	-1.000000	-1.000000	-1.000000	-1.000000	70.413793	0.000000	-1.000000	-1.000000	1181772.000000	1773689920.353639
763.560000	11827.980000	18367.830000	6292.440000	-19742.355000	3120.660000	-5511.510000	-3252.015000	-8.900680	-2.178039	0.251768	3.224428	6.027236	8.486955	2.745707	-6.430696	-1.449700	4.532220	-3.250380	0.909238	-0.159362	0.384643	-1.000000	-1.000000	-1.000000	-1.000000	-1.000000	-1.000000	-1.000000	70.413793	0.000000	-1.000000	-1.000000	1181773.000000	1773689920.363182
759.375000	11826.000000	18366.120000	6289.245000	-19749.510000	3112.695000	-5509.305000	-3262.500000	-9.466838	-7.309888	-1.761376	4.676026	11.081420	16.699482	8.565700	-7.985166	-1.449700	4.532220	-3.250380	0.909238	-0.159362	0.384643	-1.000000	-1.000000	-1.000000	-1.000000	-1.000000	-1.000000	-1.000000	70.413793	0.000000	-1.000000	-1.000000	1181774.000000	1773689920.363196
769.005000	11837.745000	18376.695000	6298.380000	-19740.375000	3124.395000	-5502.600000	-3281.265000	-6.833784	-10.061804	-3.974901	2.805885	9.915583	16.076580	10.744913	-5.948299	-1.449700	4.532220	-3.250380	0.909238	-0.159362	0.384643	-1.000000	-1.000000	-1.000000	-1.000000	-1.000000	-1.000000	-1.000000	70.413793	0.000000	-1.000000	-1.000000	1181775.000000	1773689920.363562
775.170000	11843.595000	18381.330000	6301.170000	-19736.235000	3128.310000	-5496.705000	-3264.345000	-2.570485	-8.843081	-4.912356	-0.992753	3.205877	7.168067	9.214486	-3.211769	-1.449700	4.532220	-3.250380	0.909238	-0.159362	0.384643	-1.000000	-1.000000	-1.000000	-1.000000	-1.000000	-1.000000	-1.000000	70.413793	0.000000	-1.000000	-1.000000	1181776.000000	1773689920.363573
755.460000	11821.410000	18358.335000	6276.555000	-19757.790000	3107.250000	-5504.355000	-3238.920000	2.188466	-3.386769	-2.744181	-2.973076	-3.521522	-3.220718	5.489835	-1.651500	-1.449700	4.532220	-3.250380	0.909238	-0.159362	0.384643	-1.000000	-1.000000	-1.000000	-1.000000	-1.000000	-1.000000	-1.000000	70.413793	0.000000	-1.000000	-1.000000	1181777.000000	1773689920.365665
756.720000	11824.020000	18361.350000	6278.220000	-19754.865000	3108.510000	-5506.515000	-3243.690000	5.923102	3.420261	1.416658	-1.929801	-6.450402	-9.398499	0.949041	-0.017822	-1.449700	4.532220	-3.250380	0.909238	-0.159362	0.384643	-1.000000	-1.000000	-1.000000	-1.000000	-1.000000	-1.000000	-1.000000	70.413793	0.000000	-1.000000	-1.000000	1181778.000000	1773689920.365679
783.990000	11847.780000	18382.725000	6297.795000	-19737.765000	3121.155000	-5509.890000	-3254.850000	7.123009	7.762478	4.488200	0.088556	-6.253251	-10.793089	-3.742328	3.010218	-1.449700	4.532220	-3.250380	0.909238	-0.159362	0.384643	-1.000000	-1.000000	-1.000000	-1.000000	-1.000000	-1.000000	-1.000000	70.413793	0.000000	-1.000000	-1.000000	1181779.000000	1773689920.369789
786.060000	11853.270000	18387.450000	6302.295000	-19736.145000	3118.230000	-5517.090000	-3260.115000	6.187245	9.113372	5.527162	1.468060	-4.970085	-9.748677	-7.954425	6.004914	-1.449700	4.532220	-3.250380	0.909238	-0.159362	0.384643	-1.000000	-1.000000	-1.000000	-1.000000	-1.000000	-1.000000	-1.000000	70.413793	0.000000	-1.000000	-1.000000	1181780.000000	1773689920.369800
781.290000	11861.145000	18394.155000	6307.200000	-19737.495000	3109.320000	-5520.600000	-3249.720000	4.279523	9.060211	5.492287	2.094438	-3.540310	-8.134504	-10.540544	6.604253	-7.691040	3.952340	-3.036740	0.910886	-0.154663	0.384032	-1.000000	-1.000000	-1.000000	-1.000000	-1.000000	-1.000000	-1.000000	70.413793	0.000000	-1.000000	-1.000000	1181781.000000	1773689920.373844
779.040000	11859.120000	18393.075000	6305.985000	-19738.710000	3115.260000	-5512.455000	-3242.070000	1.621232	7.607359	4.392938	1.824776	-2.063368	-6.022842	-10.061725	4.589556	-7.691040	3.952340	-3.036740	0.910886	-0.154663	0.384032	-1.000000	-1.000000	-1.000000	-1.000000	-1.000000	-1.000000	-1.000000	70.413793	0.000000	-1.000000	-1.000000	1181782.000000	1773689920.373855
771.345000	11844.720000	18379.305000	6296.490000	-19738.305000	3128.535000	-5503.365000	-3243.330000	-1.828146	3.161639	1.063126	0.016742	-0.699513	-2.535961	-5.787485	1.977180	-7.691040	3.952340	-3.036740	0.910886	-0.154663	0.384032	-1.000000	-1.000000	-1.000000	-1.000000	-1.000000	-1.000000	-1.000000	70.413793	0.000000	-1.000000	-1.000000	1181783.000000	1773689920.377712
780.300000	11861.370000	18393.750000	6308.280000	-19729.170000	3136.905000	-5495.130000	-3247.020000	-5.497729	-4.249287	-4.376414	-3.110279	0.364308	2.410664	1.115951	0.162640	-7.691040	3.952340	-3.036740	0.910886	-0.154663	0.384032	-1.000000	-1.000000	-1.000000	-1.000000	-1.000000	-1.000000	-1.000000	70.413793	0.000000	-1.000000	-1.000000	1181784.000000	1773689920.377723
789.615000	11896.515000	18422.955000	6327.270000	-19719.720000	3134.070000	-5500.440000	-3259.800000	-7.553009	-10.461528	-8.393452	-4.955778	1.783439	7.555518	7.681196	-1.994112	-7.691040	3.952340	-3.036740	0.910886	-0.154663	0.384032	-1.000000	-1.000000	-1.000000	-1.000000	-1.000000	-1.000000	-1.000000	70.413793	0.000000	-1.000000	-1.000000	1181785.000000	1773689920.381775
782.910000	11866.860000	18395.190000	6304.455000	-19732.005000	3131.955000	-5499.405000	-3254.310000	-5.931320	-10.657762	-7.140155	-2.870925	4.239517	11.138671	10.939289	-5.805795	-7.691040	3.952340	-3.036740	0.910886	-0.154663	0.384032	-1.000000	-1.000000	-1.000000	-1.000000	-1.000000	-1.000000	-1.000000	70.413793	0.000000	-1.000000	-1.000000	1181786.000000	1773689920.381785
789.345000	11837.070000	18368.280000	6284.655000	-19747.485000	3111.345000	-5503.185000	-3240.990000	-1.397668	-6.237479	-2.491618	1.180887	5.930594	11.034846	9.675032	-9.050686	-7.691040	3.952340	-3.036740	0.910886	-0.154663	0.384032	-1.000000	-1.000000	-1.000000	-1.000000	-1.000000	-1.000000	-1.000000	70.413793	0.000000	-1.000000	-1.000000	1181787.000000	1773689920.385718
783.810000	11839.050000	18373.005000	6290.685000	-19743.660000	3114.135000	-5496.930000	-3241.530000	2.482430	-2.994041	-0.005206	2.433336	3.811658	5.598570	4.879573	-7.719930	-7.691040	3.952340	-3.036740	0.910886	-0.154663	0.384032	-1.000000	-1.000000	-1.000000	-1.000000	-1.000000	-1.000000	-1.000000	70.413793	0.000000	-1.000000	-1.000000	1181788.000000	1773689920.385730
782.055000	11836.980000	18371.700000	6291.900000	-19736.595000	3129.210000	-5495.895000	-3242.970000	3.141455	-2.895172	-1.200232	-0.171104	-1.649359	-3.058461	-0.816859	-1.525322	-7.691040	3.952340	-3.036740	0.910886	-0.154663	0.384032	-1.000000	-1.000000	-1.000000	-1.000000	-1.000000	-1.000000	-1.000000	70.413793	0.000000	-1.000000	-1.000000	1181789.000000	1773689920.389789
767.340000	11837.655000	18373.230000	6292.215000	-19741.095000	3115.845000	-5502.195000	-3257.145000	1.086154	-3.206879	-2.982970	-3.421503	-6.308943	-9.491427	-4.897435	5.099031	-7.691040	3.952340	-3.036740	0.910886	-0.154663	0.384032	-1.000000	-1.000000	-1.000000	-1.000000	-1.000000	-1.000000	-1.000000	70.413793	0.000000	-1.000000	-1.000000	1181790.000000	1773689920.389800
757.935000	11855.520000	18394.785000	6312.420000	-19727.595000	3125.025000	-5506.245000	-3303.360000	-1.614152	-1.122982	-2.188138	-3.960015	-6.853392	-10.401124	-6.659979	6.993905	-4.074420	5.524120	0.000000	0.909849	-0.159607	0.384215	-1.000000	-1.000000	-1.000000	-1.000000	-1.000000	-1.000000	-1.000000	70.413793	0.000000	-1.000000	-1.000000	1181791.000000	1773689920.393669
785.880000	11878.155000	18416.970000	6331.095000	-19716.390000	3129.795000	-5514.705000	-3293.820000	-2.866558	4.083512	2.282482	-0.505507	-3.117042	-6.742266	-6.848706	2.796049	-4.074420	5.524120	0.000000	0.909849	-0.159607	0.384215	-1.000000	-1.000000	-1.000000	-1.000000	-1.000000	-1.000000	-1.000000	70.413793	0.000000	-1.000000	-1.000000	1181792.000000	1773689920.393678
812.610000	11859.345000	18394.470000	6312.960000	-19723.815000	3130.920000	-5506.740000	-3234.105000	-0.948278	9.911632	8.080919	4.951273	2.374533	-1.257865	-5.987887	-2.677031	-4.074420	5.524120	0.000000	0.909849	-0.159607	0.384215	-1.000000	-1.000000	-1.000000	-1.000000	-1.000000	-1.000000	-1.000000	70.413793	0.000000	-1.000000	-1.000000	1181793.000000	1773689920.400503
770.985000	11835.405000	18368.235000	6285.510000	-19745.145000	3114.585000	-5503.275000	-3232.350000	3.424967	11.336519	9.972634	7.719971	5.891666	3.517282	-3.566313	-2.706307	-4.074420	5.524120	0.000000	0.909849	-0.159607	0.384215	-1.000000	-1.000000	-1.000000	-1.000000	-1.000000	-1.000000	-1.000000	70.413793	0.000000	-1.000000	-1.000000	1181794.000000	1773689920.400515
762.075000	11847.690000	18376.020000	6284.385000	-19752.075000	3100.905000	-5515.560000	-3264.750000	6.088567	6.549610	5.667740	5.150379	5.225531	5.747666	0.470925	2.692357	-4.074420	5.524120	0.000000	0.909849	-0.159607	0.384215	-1.000000	-1.000000	-1.000000	-1.000000	-1.000000	-1.000000	-1.000000	70.413793	0.000000	-1.000000	-1.000000	1181795.000000	1773689920.401613
771.030000	11854.170000	18383.580000	6292.170000	-19745.235000	3105.405000	-5510.925000	-3263.220000	3.977720	-0.097627	-0.900439	-0.283524	1.501858	4.919901	4.385646	6.845681	-4.074420	5.524120	0.000000	0.909849	-0.159607	0.384215	-1.000000	-1.000000	-1.000000	-1.000000	-1.000000	-1.000000	-1.000000	70.413793	0.000000	-1.000000	-1.000000	1181796.000000	1773689920.401622
764.955000	11838.735000	18373.320000	6290.235000	-19741.095000	3117.330000	-5508.360000	-3268.665000	-1.070444	-3.862977	-4.823846	-4.334509	-2.209790	2.385605	6.287879	5.374524	-4.074420	5.524120	0.000000	0.909849	-0.159607	0.384215	-1.000000	-1.000000	-1.000000	-1.000000	-1.000000	-1.000000	-1.000000	70.413793	0.000000	-1.000000	-1.000000	1181797.000000	1773689920.407518
769.275000	11837.970000	18369.225000	6286.905000	-19747.485000	3112.785000	-5519.655000	-3256.020000	-4.875203	-4.466908	-5.240834	-5.204338	-3.761247	0.145256	5.680261	0.148939	-4.074420	5.524120	0.000000	0.909849	-0.159607	0.384215	-1.000000	-1.000000	-1.000000	-1.000000	-1.000000	-1.000000	-1.000000	70.413793	0.000000	-1.000000	-1.000000	1181798.000000	1773689920.407525
765.315000	11832.705000	18362.205000	6277.545000	-19760.490000	3103.380000	-5532.795000	-3246.255000	-4.776153	-3.947590	-4.077315	-3.864994	-3.259486	-0.955457	2.962565	-3.885146	-4.074420	5.524120	0.000000	0.909849	-0.159607	0.384215	-1.000000	-1.000000	-1.000000	-1.000000	-1.000000	-1.000000	-1.000000	70.413793	0.000000	-1.000000	-1.000000	1181799.000000	1773689920.409670
765.135000	11832.345000	18367.380000	6287.580000	-19746.450000	3116.655000	-5535.855000	-3255.390000	-1.272283	-3.748464	-3.161232	-2.190709	-2.030260	-1.300092	-0.813107	-3.244194	-4.074420	5.524120	0.000000	0.909849	-0.159607	0.384215	-1.000000	-1.000000	-1.000000	-1.000000	-1.000000	-1.000000	-1.000000	70.413793	0.000000	-1.000000	-1.000000	1181800.000000	1773689920.409681
769.185000	11848.725000	18382.230000	6297.660000	-19739.565000	3114.810000	-5528.115000	-3259.800000	2.324445	-3.885232	-2.671890	-0.929901	-0.678311	-1.300338	-3.748364	0.339582	1.938020	5.356260	0.625660	0.908140	-0.169982	0.384643	-1.000000	-1.000000	-1.000000	-1.000000	-1.000000	-1.000000	-1.000000	70.413793	0.000000	-1.000000	-1.000000	1181801.000000	1773689920.413911
768.510000	11840.085000	18373.635000	6290.280000	-19743.210000	3115.665000	-5509.080000	-3248.820000	3.087129	-2.934425	-1.158167	0.762373	1.198645	-0.844912	-3.923982	1.585859	1.938020	5.356260	0.625660	0.908140	-0.169982	0.384643	-1.000000	-1.000000	-1.000000	-1.000000	-1.000000	-1.000000	-1.000000	70.413793	0.000000	-1.000000	-1.000000	1181802.000000	1773689920.413958
766.980000	11831.895000	18363.420000	6280.155000	-19754.055000	3100.590000	-5503.545000	-3243.015000	1.732939	0.095034	2.173697	3.474787	3.578990	0.207963	-0.868652	-1.274572	1.938020	5.356260	0.625660	0.908140	-0.169982	0.384643	-1.000000	-1.000000	-1.000000	-1.000000	-1.000000	-1.000000	-1.000000	70.413793	0.000000	-1.000000	-1.000000	1181803.000000	1773689920.417814
760.815000	11824.560000	18356.085000	6272.460000	-19759.815000	3098.295000	-5500.035000	-3247.290000	0.709713	3.754318	5.544832	5.844268	5.173818	1.384367	3.705432	-4.505660	1.938020	5.356260	0.625660	0.908140	-0.169982	0.384643	-1.000000	-1.000000	-1.000000	-1.000000	-1.000000	-1.000000	-1.000000	70.413793	0.000000	-1.000000	-1.000000	1181804.000000	1773689920.417824
750.375000	11825.415000	18359.505000	6278.355000	-19752.165000	3108.870000	-5501.070000	-3253.230000	0.304130	5.499926	6.303964	5.690320	4.463854	1.818811	6.695765	-4.599037	1.938020	5.356260	0.625660	0.908140	-0.169982	0.384643	-1.000000	-1.000000	-1.000000	-1.000000	-1.000000	-1.000000	-1.000000	70.413793	0.000000	-1.000000	-1.000000	1181805.000000	1773689920.421659
761.310000	11838.735000	18372.870000	6290.730000	-19741.815000	3120.255000	-5502.150000	-3252.465000	-0.425419	4.804115	4.219589	2.860960	1.658427	1.277563	5.812400	-1.959784	1.938020	5.356260	0.625660	0.908140	-0.169982	0.384643	-1.000000	-1.000000	-1.000000	-1.000000	-1.000000	-1.000000	-1.000000	70.413793	0.000000	-1.000000	-1.000000	1181806.000000	1773689920.421679
779.760000	11838.915000	18370.665000	6286.185000	-19746.180000	3118.320000	-5506.830000	-3246.930000	-0.824814	3.239235	1.448024	-0.494235	-1.227726	0.487241	1.531333	1.076629	1.938020	5.356260	0.625660	0.908140	-0.169982	0.384643	-1.000000	-1.000000	-1.000000	-1.000000	-1.000000	-1.000000	-1.000000	70.413793	0.000000	-1.000000	-1.000000	1181807.000000	1773689920.427932
769.770000	11830.140000	18363.555000	6279.570000	-19755.135000	3108.780000	-5514.255000	-3252.195000	0.268654	1.689779	-0.624463	-2.748472	-2.766848	-0.076530	-3.492711	2.982505	1.938020	5.356260	0.625660	0.908140	-0.169982	0.384643	-1.000000	-1.000000	-1.000000	-1.000000	-1.000000	-1.000000	-1.000000	70.413793	0.000000	-1.000000	-1.000000	1181808.000000	1773689920.427956
769.230000	11834.055000	18368.730000	6286.320000	-19750.185000	3112.875000	-5510.565000	-3257.190000	1.817735	-0.444767	-2.462995	-4.071709	-3.429088	-0.989316	-6.752757	3.467964	1.938020	5.356260	0.625660	0.908140	-0.169982	0.384643	-1.000000	-1.000000	-1.000000	-1.000000	-1.000000	-1.000000	-1.000000	70.413793	0.000000	-1.000000	-1.000000	1181809.000000	1773689920.433025
764.820000	11839.680000	18373.680000	6289.785000	-19747.620000	3113.235000	-5510.565000	-3271.455000	1.501954	-3.212145	-4.274766	-4.680496	-3.837550	-2.403813	-7.329616	2.215254	1.938020	5.356260	0.625660	0.908140	-0.169982	0.384643	-1.000000	-1.000000	-1.000000	-1.000000	-1.000000	-1.000000	-1.000000	70.413793	0.000000	-1.000000	-1.000000	1181810.000000	1773689920.433037
774.045000	11849.625000	18383.580000	6297.705000	-19736.910000	3120.570000	-5505.120000	-3261.555000	-0.828006	-4.801741	-4.591582	-3.601550	-3.134223	-2.986401	-5.808531	-0.899548	3.937080	4.776380	1.236060	0.906065	-0.170288	0.385009	-1.000000	-1.000000	-1.000000	-1.000000	-1.000000	-1.000000	-1.000000	70.413793	0.000000	-1.000000	-1.000000	1181811.000000	1773689920.434399
773.415000	11842.650000	18376.830000	6290.910000	-19740.780000	3119.310000	-5504.355000	-3260.340000	-2.767919	-3.437204	-2.108566	-0.236049	-0.335663	-1.379950	-3.153515	-3.967086	3.937080	4.776380	1.236060	0.906065	-0.170288	0.385009	-1.000000	-1.000000	-1.000000	-1.000000	-1.000000	-1.000000	-1.000000	70.413793	0.000000	-1.000000	-1.000000	1181812.000000	1773689920.434410
786.960000	11855.160000	18385.470000	6297.795000	-19732.275000	3130.020000	-5499.765000	-3261.195000	-2.357016	0.139974	1.930299	3.795005	3.494841	1.886856	0.002121	-4.212333	3.937080	4.776380	1.236060	0.906065	-0.170288	0.385009	-1.000000	-1.000000	-1.000000	-1.000000	-1.000000	-1.000000	-1.000000	70.413793	0.000000	-1.000000	-1.000000	1181813.000000	1773689920.438435
788.445000	11871.945000	18404.730000	6316.830000	-19713.690000	3148.200000	-5490.720000	-3276.720000	0.212431	3.674615	4.956206	5.979805	5.948175	4.621138	3.103629	-1.345461	3.937080	4.776380	1.236060	0.906065	-0.170288	0.385009	-1.000000	-1.000000	-1.000000	-1.000000	-1.000000	-1.000000	-1.000000	70.413793	0.000000	-1.000000	-1.000000	1181814.000000	1773689920.438446
766.890000	11873.295000	18412.020000	6325.650000	-19708.560000	3155.445000	-5493.915000	-3278.430000	2.559049	5.369889	5.580370	5.401970	5.707853	5.099225	5.496534	2.089763	3.937080	4.776380	1.236060	0.906065	-0.170288	0.385009	-1.000000	-1.000000	-1.000000	-1.000000	-1.000000	-1.000000	-1.000000	70.413793	0.000000	-1.000000	-1.000000	1181815.000000	1773689920.449756
766.620000	11854.755000	18393.165000	6309.810000	-19726.830000	3141.720000	-5508.810000	-3259.350000	1.784188	4.039975	3.581428	2.663100	2.999069	3.129254	6.276183	3.887720	3.937080	4.776380	1.236060	0.906065	-0.170288	0.385009	-1.000000	-1.000000	-1.000000	-1.000000	-1.000000	-1.000000	-1.000000	70.413793	0.000000	-1.000000	-1.000000	1181816.000000	1773689920.449790
796.185000	11839.860000	18371.925000	6289.020000	-19744.920000	3127.860000	-5527.395000	-3229.920000	-1.508395	-0.497880	-0.960725	-1.668584	-1.584207	-0.749266	4.451761	4.718380	3.937080	4.776380	1.236060	0.906065	-0.170288	0.385009	-1.000000	-1.000000	-1.000000	-1.000000	-1.000000	-1.000000	-1.000000	70.413793	0.000000	-1.000000	-1.000000	1181817.000000	1773689920.449804
770.535000	11839.860000	18375.660000	6292.845000	-19742.580000	3120.930000	-5519.790000	-3243.150000	-3.714276	-6.528662	-6.918858	-6.809691	-6.911066	-5.515132	0.204885	5.950039	3.937080	4.776380	1.236060	0.906065	-0.170288	0.385009	-1.000000	-1.000000	-1.000000	-1.000000	-1.000000	-1.000000	-1.000000	70.413793	0.000000	-1.000000	-1.000000	1181818.000000	1773689920.449809
767.070000	11849.040000	18385.290000	6300.810000	-19729.170000	3128.535000	-5513.400000	-3265.155000	-3.491959	-10.625775	-11.084831	-10.276516	-10.278322	-9.013992	-4.212390	5.981603	3.937080	4.776380	1.236060	0.906065	-0.170288	0.385009	-1.000000	-1.000000	-1.000000	-1.000000	-1.000000	-1.000000	-1.000000	70.413793	0.000000	-1.000000	-1.000000	1181819.000000	1773689920.449936
764.820000	11840.895000	18377.685000	6292.395000	-19746.630000	3113.235000	-5503.680000	-3263.805000	-2.165940	-9.820485	-10.181059	-9.270051	-9.135281	-8.966120	-5.951411	2.131814	3.937080	4.776380	1.236060	0.906065	-0.170288	0.385009	-1.000000	-1.000000	-1.000000	-1.000000	-1.000000	-1.000000	-1.000000	70.413793	0.000000	-1.000000	-1.000000	1181820.000000	1773689920.449946
774.585000	11851.155000	18380.295000	6284.160000	-19779.930000	3057.525000	-5515.560000	-3253.320000	-0.607142	-4.133154	-4.219916	-3.953208	-4.480989	-5.958199	-4.168957	-4.485677	1.358140	5.539380	0.228900	0.904478	-0.165893	0.384887	-1.000000	-1.000000	-1.000000	-1.000000	-1.000000	-1.000000	-1.000000	70.413793	0.000000	-1.000000	-1.000000	1181821.000000	1773689920.453783
773.145000	11848.095000	18375.930000	6280.920000	-19775.565000	3072.600000	-5521.140000	-3254.130000	1.092436	3.368095	3.331446	2.346015	-0.072855	-3.159998	-0.822059	-9.263326	1.358140	5.539380	0.228900	0.904478	-0.165893	0.384887	-1.000000	-1.000000	-1.000000	-1.000000	-1.000000	-1.000000	-1.000000	70.413793	0.000000	-1.000000	-1.000000	1181822.000000	1773689920.453792
756.135000	11822.490000	18358.335000	6275.520000	-19761.390000	3100.680000	-5521.590000	-3261.915000	2.434582	8.225697	7.921588	5.917612	2.128838	-1.316321	1.473593	-8.993275	1.358140	5.539380	0.228900	0.904478	-0.165893	0.384887	-1.000000	-1.000000	-1.000000	-1.000000	-1.000000	-1.000000	-1.000000	70.413793	0.000000	-1.000000	-1.000000	1181823.000000	1773689920.459481
747.180000	11813.760000	18344.070000	6260.580000	-19772.280000	3096.945000	-5524.245000	-3271.500000	2.585565	7.501030	7.007609	5.362673	3.331567	2.047973	2.066159	-4.796721	1.358140	5.539380	0.228900	0.904478	-0.165893	0.384887	-1.000000	-1.000000	-1.000000	-1.000000	-1.000000	-1.000000	-1.000000	70.413793	0.000000	-1.000000	-1.000000	1181824.000000	1773689920.459491
751.545000	11818.980000	18350.910000	6268.320000	-19773.045000	3092.895000	-5528.880000	-3270.150000	1.406193	2.944417	2.591149	2.622200	5.133310	7.654341	2.164309	-0.490194	1.358140	5.539380	0.228900	0.904478	-0.165893	0.384887	-1.000000	-1.000000	-1.000000	-1.000000	-1.000000	-1.000000	-1.000000	70.413793	0.000000	-1.000000	-1.000000	1181825.000000	1773689920.461709
764.235000	11833.695000	18366.930000	6284.655000	-19757.655000	3103.200000	-5518.395000	-3259.935000	-0.143969	-0.472001	-0.354771	1.360682	7.708393	12.958610	2.888990	1.398898	1.358140	5.539380	0.228900	0.904478	-0.165893	0.384887	-1.000000	-1.000000	-1.000000	-1.000000	-1.000000	-1.000000	-1.000000	70.413793	0.000000	-1.000000	-1.000000	1181826.000000	1773689920.461719
758.385000	11827.170000	18361.935000	6280.020000	-19756.260000	3103.560000	-5509.755000	-3261.330000	-0.506055	-0.041254	0.766815	3.100699	9.766205	14.886442	4.014909	1.756756	1.358140	5.539380	0.228900	0.904478	-0.165893	0.384887	-1.000000	-1.000000	-1.000000	-1.000000	-1.000000	-1.000000	-1.000000	70.413793	0.000000	-1.000000	-1.000000	1181827.000000	1773689920.465951
748.620000	11811.915000	18346.545000	6264.585000	-19766.385000	3096.045000	-5504.130000	-3267.630000	0.799907	2.232831	3.576124	5.336083	9.047817	11.712760	4.228126	2.664324	1.358140	5.539380	0.228900	0.904478	-0.165893	0.384887	-1.000000	-1.000000	-1.000000	-1.000000	-1.000000	-1.000000	-1.000000	70.413793	0.000000	-1.000000	-1.000000	1181828.000000	1773689920.465961
762.570000	11823.165000	18358.335000	6273.540000	-19761.930000	3095.685000	-5498.370000	-3262.140000	2.380000	3.032905	4.412035	4.946416	4.764114	4.430386	2.621145	4.208699	1.358140	5.539380	0.228900	0.904478	-0.165893	0.384887	-1.000000	-1.000000	-1.000000	-1.000000	-1.000000	-1.000000	-1.000000	70.413793	0.000000	-1.000000	-1.000000	1181829.000000	1773689920.469584
773.370000	11838.015000	18371.520000	6285.240000	-19754.280000	3103.200000	-5501.295000	-3255.435000	2.927631	1.768915	2.756378	2.144947	-0.650414	-3.009280	-0.201837	4.938776	1.358140	5.539380	0.228900	0.904478	-0.165893	0.384887	-1.000000	-1.000000	-1.000000	-1.000000	-1.000000	-1.000000	-1.000000	70.413793	0.000000	-1.000000	-1.000000	1181830.000000	1773689920.469596
771.885000	11845.035000	18379.305000	6292.305000	-19745.685000	3118.455000	-5498.415000	-3251.430000	2.448585	0.215037	0.579671	-0.727060	-4.391369	-7.348637	-2.842226	4.236150	-0.579880	4.913720	-0.183120	0.904417	-0.166687	0.385192	-1.000000	-1.000000	-1.000000	-1.000000	-1.000000	-1.000000	-1.000000	70.413793	0.000000	-1.000000	-1.000000	1181831.000000	1773689920.475880
769.050000	11847.465000	18383.310000	6296.535000	-19740.330000	3128.985000	-5503.320000	-3270.375000	1.505867	-0.043089	-0.501150	-2.238426	-6.032452	-8.690341	-4.360157	2.467403	-0.579880	4.913720	-0.183120	0.904417	-0.166687	0.385192	-1.000000	-1.000000	-1.000000	-1.000000	-1.000000	-1.000000	-1.000000	70.413793	0.000000	-1.000000	-1.000000	1181832.000000	1773689920.475890
774.405000	11854.395000	18392.670000	6309.585000	-19727.505000	3136.095000	-5507.190000	-3275.415000	0.509360	1.040782	-0.182915	-2.153900	-5.930929	-8.105661	-4.510840	-0.256841	-0.579880	4.913720	-0.183120	0.904417	-0.166687	0.385192	-1.000000	-1.000000	-1.000000	-1.000000	-1.000000	-1.000000	-1.000000	70.413793	0.000000	-1.000000	-1.000000	1181833.000000	1773689920.477790
761.175000	11842.470000	18379.800000	6297.030000	-19737.045000	3128.580000	-5510.205000	-3280.185000	-0.910799	1.820304	0.382992	-1.224757	-4.257564	-5.995911	-3.499365	-3.789068	-0.579880	4.913720	-0.183120	0.904417	-0.166687	0.385192	-1.000000	-1.000000	-1.000000	-1.000000	-1.000000	-1.000000	-1.000000	70.413793	0.000000	-1.000000	-1.000000	1181834.000000	1773689920.477803
751.230000	11827.755000	18362.520000	6274.260000	-19766.520000	3093.300000	-5513.130000	-3261.375000	-3.516945	0.027655	-1.053448	-1.619893	-2.783761	-3.823476	-2.082910	-6.675612	-0.579880	4.913720	-0.183120	0.904417	-0.166687	0.385192	-1.000000	-1.000000	-1.000000	-1.000000	-1.000000	-1.000000	-1.000000	70.413793	0.000000	-1.000000	-1.000000	1181835.000000	1773689920.484783
750.645000	11824.335000	18357.435000	6266.160000	-19782.270000	3066.210000	-5517.540000	-3261.105000	-6.469980	-4.529323	-5.187408	-4.672318	-3.884122	-3.944558	-1.316687	-6.485453	-0.579880	4.913720	-0.183120	0.904417	-0.166687	0.385192	-1.000000	-1.000000	-1.000000	-1.000000	-1.000000	-1.000000	-1.000000	70.413793	0.000000	-1.000000	-1.000000	1181836.000000	1773689920.484794
764.685000	11848.860000	18374.535000	6273.675000	-19781.685000	3060.315000	-5525.640000	-3267.270000	-7.167336	-8.424933	-8.994643	-8.065525	-6.673021	-6.172778	-1.597454	-2.607041	-0.579880	4.913720	-0.183120	0.904417	-0.166687	0.385192	-1.000000	-1.000000	-1.000000	-1.000000	-1.000000	-1.000000	-1.000000	70.413793	0.000000	-1.000000	-1.000000	1181837.000000	1773689920.487337
757.305000	11827.980000	18357.705000	6265.935000	-19776.870000	3080.430000	-5515.965000	-3265.920000	-4.375075	-8.174409	-8.886166	-8.166660	-7.203374	-6.590890	-2.018901	2.278938	-0.579880	4.913720	-0.183120	0.904417	-0.166687	0.385192	-1.000000	-1.000000	-1.000000	-1.000000	-1.000000	-1.000000	-1.000000	70.413793	0.000000	-1.000000	-1.000000	1181838.000000	1773689920.487347
749.970000	11817.270000	18354.285000	6273.315000	-19758.105000	3109.995000	-5513.670000	-3267.765000	-0.085325	-4.738208	-5.162040	-4.322348	-2.991177	-1.589171	-0.950789	4.874823	-0.579880	4.913720	-0.183120	0.904417	-0.166687	0.385192	-1.000000	-1.000000	-1.000000	-1.000000	-1.000000	-1.000000	-1.000000	70.413793	0.000000	-1.000000	-1.000000	1181839.000000	1773689920.498659
756.180000	11839.860000	18374.895000	6286.500000	-19753.965000	3107.610000	-5524.785000	-3271.410000	3.112905	-1.024816	-0.338867	1.443299	4.406741	7.337762	1.925156	4.258549	-0.579880	4.913720	-0.183120	0.904417	-0.166687	0.385192	-1.000000	-1.000000	-1.000000	-1.000000	-1.000000	-1.000000	-1.000000	70.413793	0.000000	-1.000000	-1.000000	1181840.000000	1773689920.498672
761.670000	11856.240000	18387.045000	6290.595000	-19757.970000	3097.305000	-5523.255000	-3273.120000	4.775172	2.632455	4.500768	6.883866	10.780804	14.171479	4.903739	1.974890	-1.190280	3.479280	-1.693860	0.904539	-0.169311	0.385680	-1.000000	-1.000000	-1.000000	-1.000000	-1.000000	-1.000000	-1.000000	70.413793	0.000000	-1.000000	-1.000000	1181841.000000	1773689920.498687
760.680000	11834.100000	18373.410000	6293.160000	-19738.980000	3126.510000	-5491.755000	-3258.225000	5.427685	6.429877	8.564408	10.055653	12.706011	14.480277	6.726227	0.253629	-1.190280	3.479280	-1.693860	0.904539	-0.169311	0.385680	-1.000000	-1.000000	-1.000000	-1.000000	-1.000000	-1.000000	-1.000000	70.413793	0.000000	-1.000000	-1.000000	1181842.000000	1773689920.498692
764.235000	11849.580000	18391.005000	6310.935000	-19721.430000	3141.630000	-5489.100000	-3255.210000	5.093153	8.606446	10.172378	10.056209	10.382802	9.792884	7.647971	0.103271	-1.190280	3.479280	-1.693860	0.904539	-0.169311	0.385680	-1.000000	-1.000000	-1.000000	-1.000000	-1.000000	-1.000000	-1.000000	70.413793	0.000000	-1.000000	-1.000000	1181843.000000	1773689920.498698
779.985000	11847.735000	18381.645000	6295.905000	-19739.700000	3116.835000	-5506.470000	-3257.280000	4.102725	8.027276	8.770889	7.698734	6.382724	4.411525	7.032567	0.590009	-1.190280	3.479280	-1.693860	0.904539	-0.169311	0.385680	-1.000000	-1.000000	-1.000000	-1.000000	-1.000000	-1.000000	-1.000000	70.413793	0.000000	-1.000000	-1.000000	1181844.000000	1773689920.498703
790.785000	11862.225000	18386.595000	6290.280000	-19752.570000	3096.900000	-5512.680000	-3254.400000	3.181323	5.433752	5.131184	3.835423	1.935656	-0.061244	3.213908	0.307874	-1.190280	3.479280	-1.693860	0.904539	-0.169311	0.385680	-1.000000	-1.000000	-1.000000	-1.000000	-1.000000	-1.000000	-1.000000	70.413793	0.000000	-1.000000	-1.000000	1181845.000000	1773689920.504249
771.480000	11844.585000	18373.860000	6281.820000	-19757.205000	3097.035000	-5508.945000	-3256.965000	1.816417	1.539934	-0.002578	-1.369037	-3.262263	-4.516617	-3.260689	-0.835224	-1.190280	3.479280	-1.693860	0.904539	-0.169311	0.385680	-1.000000	-1.000000	-1.000000	-1.000000	-1.000000	-1.000000	-1.000000	70.413793	0.000000	-1.000000	-1.000000	1181846.000000	1773689920.504260
770.130000	11829.960000	18358.875000	6268.635000	-19768.770000	3088.755000	-5512.995000	-3259.800000	-1.339930	-3.326950	-5.650662	-7.076009	-8.790666	-9.290862	-9.170638	-2.122209	-1.190280	3.479280	-1.693860	0.904539	-0.169311	0.385680	-1.000000	-1.000000	-1.000000	-1.000000	-1.000000	-1.000000	-1.000000	70.413793	0.000000	-1.000000	-1.000000	1181847.000000	1773689920.505734
750.780000	11832.255000	18365.985000	6279.930000	-19754.595000	3101.265000	-5522.040000	-3292.065000	-5.901750	-7.900974	-10.018917	-11.339877	-12.948493	-13.298929	-11.595726	-3.378351	-1.190280	3.479280	-1.693860	0.904539	-0.169311	0.385680	-1.000000	-1.000000	-1.000000	-1.000000	-1.000000	-1.000000	-1.000000	70.413793	0.000000	-1.000000	-1.000000	1181848.000000	1773689920.505745
741.780000	11833.560000	18369.045000	6285.915000	-19750.005000	3109.905000	-5518.620000	-3290.580000	-9.767631	-10.243104	-11.209457	-11.945507	-13.313811	-14.024109	-9.588719	-4.640415	-1.190280	3.479280	-1.693860	0.904539	-0.169311	0.385680	-1.000000	-1.000000	-1.000000	-1.000000	-1.000000	-1.000000	-1.000000	70.413793	0.000000	-1.000000	-1.000000	1181849.000000	1773689920.511099
741.735000	11823.750000	18360.900000	6278.625000	-19758.690000	3100.005000	-5516.505000	-3285.045000	-10.937822	-9.346649	-8.642356	-8.140678	-8.752803	-9.501905	-4.158944	-4.864284	-1.190280	3.479280	-1.693860	0.904539	-0.169311	0.385680	-1.000000	-1.000000	-1.000000	-1.000000	-1.000000	-1.000000	-1.000000	70.413793	0.000000	-1.000000	-1.000000	1181850.000000	1773689920.511111
759.420000	11833.560000	18368.505000	6283.305000	-19751.850000	3106.035000	-5509.080000	-3259.980000	-8.014999	-5.311605	-3.324907	-1.739419	-1.432060	-1.575579	1.949227	-2.554872	-1.678600	4.379620	-2.899400	0.904417	-0.166198	0.381652	-1.000000	-1.000000	-1.000000	-1.000000	-1.000000	-1.000000	-1.000000	70.413793	0.000000	-1.000000	-1.000000	1181851.000000	1773689920.513789
760.680000	11829.465000	18364.140000	6278.355000	-19754.415000	3102.435000	-5509.260000	-3253.590000	-1.099598	0.824898	2.861625	4.330848	5.135176	5.773213	6.038130	2.265828	-1.678600	4.379620	-2.899400	0.904417	-0.166198	0.381652	-1.000000	-1.000000	-1.000000	-1.000000	-1.000000	-1.000000	-1.000000	70.413793	0.000000	-1.000000	-1.000000	1181852.000000	1773689920.513800
772.380000	11844.765000	18379.260000	6291.450000	-19742.445000	3111.705000	-5501.115000	-3246.525000	6.948633	6.793740	7.896641	8.333351	9.386444	10.706482	7.556093	7.491100	-1.678600	4.379620	-2.899400	0.904417	-0.166198	0.381652	-1.000000	-1.000000	-1.000000	-1.000000	-1.000000	-1.000000	-1.000000	70.413793	0.000000	-1.000000	-1.000000	1181853.000000	1773689920.517835
772.155000	11853.720000	18385.380000	6292.440000	-19746.360000	3103.290000	-5501.970000	-3253.050000	12.070001	10.280385	10.473251	10.097495	11.488046	13.295491	7.353007	10.129500	-1.678600	4.379620	-2.899400	0.904417	-0.166198	0.381652	-1.000000	-1.000000	-1.000000	-1.000000	-1.000000	-1.000000	-1.000000	70.413793	0.000000	-1.000000	-1.000000	1181854.000000	1773689920.517845
763.695000	11852.820000	18380.970000	6285.555000	-19759.095000	3088.530000	-5513.535000	-3258.945000	12.083019	10.495371	10.192012	9.594438	10.982368	12.565697	5.575361	8.235518	-1.678600	4.379620	-2.899400	0.904417	-0.166198	0.381652	-1.000000	-1.000000	-1.000000	-1.000000	-1.000000	-1.000000	-1.000000	70.413793	0.000000	-1.000000	-1.000000	1181855.000000	1773689920.521807
757.395000	11848.905000	18382.635000	6295.050000	-19742.985000	3112.605000	-5510.880000	-3260.340000	7.607012	7.986283	7.258135	6.604380	7.055328	7.372254	1.997912	2.574434	-1.678600	4.379620	-2.899400	0.904417	-0.166198	0.381652	-1.000000	-1.000000	-1.000000	-1.000000	-1.000000	-1.000000	-1.000000	70.413793	0.000000	-1.000000	-1.000000	1181856.000000	1773689920.521819
763.470000	11852.370000	18389.880000	6307.155000	-19729.845000	3126.690000	-5510.745000	-3268.350000	1.316565	3.473970	2.370058	1.786867	0.856734	-0.353492	-2.120747	-3.500443	-1.678600	4.379620	-2.899400	0.904417	-0.166198	0.381652	-1.000000	-1.000000	-1.000000	-1.000000	-1.000000	-1.000000	-1.000000	70.413793	0.000000	-1.000000	-1.000000	1181857.000000	1773689920.528710
784.305000	11854.845000	18386.145000	6302.925000	-19728.720000	3133.215000	-5507.910000	-3258.900000	-3.319668	-2.056482	-3.190776	-3.255290	-4.733027	-6.517823	-4.707104	-6.780724	-1.678600	4.379620	-2.899400	0.904417	-0.166198	0.381652	-1.000000	-1.000000	-1.000000	-1.000000	-1.000000	-1.000000	-1.000000	70.413793	0.000000	-1.000000	-1.000000	1181858.000000	1773689920.528721
790.605000	11858.895000	18386.280000	6302.160000	-19724.715000	3138.120000	-5505.075000	-3248.955000	-4.324275	-6.603700	-7.579348	-6.934023	-7.542373	-8.590063	-5.053853	-6.576697	-1.678600	4.379620	-2.899400	0.904417	-0.166198	0.381652	-1.000000	-1.000000	-1.000000	-1.000000	-1.000000	-1.000000	-1.000000	70.413793	0.000000	-1.000000	-1.000000	1181859.000000	1773689920.529738
786.195000	11862.945000	18393.075000	6308.550000	-19722.780000	3132.810000	-5506.515000	-3247.065000	-2.926843	-8.257625	-9.153705	-8.236276	-7.343844	-7.093446	-3.969443	-4.433166	-1.678600	4.379620	-2.899400	0.904417	-0.166198	0.381652	-1.000000	-1.000000	-1.000000	-1.000000	-1.000000	-1.000000	-1.000000	70.413793	0.000000	-1.000000	-1.000000	1181860.000000	1773689920.529748
780.615000	11857.455000	18391.455000	6305.760000	-19728.450000	3122.595000	-5498.145000	-3259.035000	-2.129519	-6.954336	-7.500893	-6.876198	-5.240312	-4.266372	-2.293933	-2.499187	-2.945180	3.525060	-3.296160	0.901975	-0.163208	0.380614	-1.000000	-1.000000	-1.000000	-1.000000	-1.000000	-1.000000	-1.000000	70.413793	0.000000	-1.000000	-1.000000	1181861.000000	1773689920.535386
792.630000	11862.765000	18397.980000	6312.735000	-19717.155000	3136.995000	-5482.575000	-3273.660000	-3.352993	-4.361221	-3.816791	-3.607072	-2.493352	-1.735145	-0.098883	-2.027330	-2.945180	3.525060	-3.296160	0.901975	-0.163208	0.380614	-1.000000	-1.000000	-1.000000	-1.000000	-1.000000	-1.000000	-1.000000	70.413793	0.000000	-1.000000	-1.000000	1181862.000000	1773689920.535396
799.740000	11866.590000	18399.375000	6313.320000	-19715.490000	3140.460000	-5482.980000	-3245.850000	-4.930856	-2.011018	0.029156	0.141730	0.293251	0.551782	2.559743	-2.168731	-2.945180	3.525060	-3.296160	0.901975	-0.163208	0.380614	-1.000000	-1.000000	-1.000000	-1.000000	-1.000000	-1.000000	-1.000000	70.413793	0.000000	-1.000000	-1.000000	1181863.000000	1773689920.537773
774.135000	11838.735000	18369.900000	6285.195000	-19744.875000	3113.370000	-5497.245000	-3217.230000	-4.544762	-0.325192	2.533395	2.778787	2.393693	2.447507	4.544126	-0.137732	-2.945180	3.525060	-3.296160	0.901975	-0.163208	0.380614	-1.000000	-1.000000	-1.000000	-1.000000	-1.000000	-1.000000	-1.000000	70.413793	0.000000	-1.000000	-1.000000	1181864.000000	1773689920.537785
765.630000	11837.160000	18370.080000	6285.285000	-19746.225000	3116.385000	-5500.215000	-3225.915000	-2.376632	0.455529	2.595682	2.657129	2.024581	2.042027	4.180774	5.263493	-2.945180	3.525060	-3.296160	0.901975	-0.163208	0.380614	-1.000000	-1.000000	-1.000000	-1.000000	-1.000000	-1.000000	-1.000000	70.413793	0.000000	-1.000000	-1.000000	1181865.000000	1773689920.544566
773.460000	11845.080000	18377.820000	6293.520000	-19739.520000	3123.180000	-5500.665000	-3240.135000	-0.161166	0.461980	0.598355	-0.111163	-1.188357	-1.326289	1.238935	10.568283	-2.945180	3.525060	-3.296160	0.901975	-0.163208	0.380614	-1.000000	-1.000000	-1.000000	-1.000000	-1.000000	-1.000000	-1.000000	70.413793	0.000000	-1.000000	-1.000000	1181866.000000	1773689920.544577
773.505000	11848.500000	18381.060000	6298.515000	-19734.840000	3124.530000	-5503.005000	-3245.895000	1.176836	0.860955	-1.004133	-2.581105	-4.289587	-4.820473	-2.599826	10.488878	-2.945180	3.525060	-3.296160	0.901975	-0.163208	0.380614	-1.000000	-1.000000	-1.000000	-1.000000	-1.000000	-1.000000	-1.000000	70.413793	0.000000	-1.000000	-1.000000	1181867.000000	1773689920.547731
779.490000	11856.150000	18388.980000	6305.760000	-19726.965000	3129.345000	-5499.585000	-3245.220000	1.718506	2.446086	-0.181932	-1.945768	-4.040483	-5.159039	-5.242127	3.500217	-2.945180	3.525060	-3.296160	0.901975	-0.163208	0.380614	-1.000000	-1.000000	-1.000000	-1.000000	-1.000000	-1.000000	-1.000000	70.413793	0.000000	-1.000000	-1.000000	1181868.000000	1773689920.547740
783.270000	11860.200000	18393.210000	6309.090000	-19724.445000	3130.785000	-5496.030000	-3246.750000	2.163586	4.567603	2.600614	1.594946	-0.108561	-1.559188	-5.331836	-6.413453	-2.945180	3.525060	-3.296160	0.901975	-0.163208	0.380614	-1.000000	-1.000000	-1.000000	-1.000000	-1.000000	-1.000000	-1.000000	70.413793	0.000000	-1.000000	-1.000000	1181869.000000	1773689920.549669
788.580000	11867.760000	18399.240000	6314.265000	-19717.875000	3138.075000	-5492.700000	-3249.855000	3.060212	5.905971	5.245587	5.531301	5.197380	4.251433	-2.923877	-12.997760	-2.945180	3.525060	-3.296160	0.901975	-0.163208	0.380614	-1.000000	-1.000000	-1.000000	-1.000000	-1.000000	-1.000000	-1.000000	70.413793	0.000000	-1.000000	-1.000000	1181870.000000	1773689920.549678
787.725000	11866.770000	18397.080000	6310.620000	-19717.470000	3140.865000	-5492.070000	-3256.920000	3.798185	5.335547	5.741282	7.171293	8.703845	9.042326	0.387565	-12.636877	0.350980	5.188400	-3.235120	0.901792	-0.163818	0.382079	-1.000000	-1.000000	-1.000000	-1.000000	-1.000000	-1.000000	-1.000000	70.413793	0.000000	-1.000000	-1.000000	1181871.000000	1773689920.559920
791.775000	11865.240000	18397.215000	6312.645000	-19714.905000	3141.450000	-5499.045000	-3258.720000	3.488600	2.696131	3.608157	5.517283	8.545987	10.136103	2.850261	-6.932918	0.350980	5.188400	-3.235120	0.901792	-0.163818	0.382079	-1.000000	-1.000000	-1.000000	-1.000000	-1.000000	-1.000000	-1.000000	70.413793	0.000000	-1.000000	-1.000000	1181872.000000	1773689920.559930
790.155000	11859.885000	18388.845000	6303.690000	-19719.495000	3138.930000	-5504.220000	-3240.990000	2.561900	-0.647346	0.318759	1.873148	5.346009	7.241430	3.822209	-0.134425	0.350980	5.188400	-3.235120	0.901792	-0.163818	0.382079	-1.000000	-1.000000	-1.000000	-1.000000	-1.000000	-1.000000	-1.000000	70.413793	0.000000	-1.000000	-1.000000	1181873.000000	1773689920.559941
779.715000	11856.870000	18385.560000	6301.800000	-19718.190000	3138.480000	-5513.355000	-3233.340000	1.710870	-3.163842	-2.550538	-1.992909	0.773544	1.769163	3.384436	5.506867	0.350980	5.188400	-3.235120	0.901792	-0.163818	0.382079	-1.000000	-1.000000	-1.000000	-1.000000	-1.000000	-1.000000	-1.000000	70.413793	0.000000	-1.000000	-1.000000	1181874.000000	1773689920.559946
790.560000	11869.020000	18397.710000	6314.310000	-19704.870000	3150.720000	-5500.710000	-3231.540000	0.377662	-4.442746	-4.453824	-5.025856	-3.692732	-4.215830	1.951892	9.759516	0.350980	5.188400	-3.235120	0.901792	-0.163818	0.382079	-1.000000	-1.000000	-1.000000	-1.000000	-1.000000	-1.000000	-1.000000	70.413793	0.000000	-1.000000	-1.000000	1181875.000000	1773689920.561923
788.175000	11865.150000	18395.820000	6314.085000	-19705.455000	3147.570000	-5489.640000	-3235.545000	-1.859040	-4.523458	-4.957981	-6.217056	-6.573967	-8.269903	0.634082	11.522714	0.350980	5.188400	-3.235120	0.901792	-0.163818	0.382079	-1.000000	-1.000000	-1.000000	-1.000000	-1.000000	-1.000000	-1.000000	70.413793	0.000000	-1.000000	-1.000000	1181876.000000	1773689920.561933
782.820000	11861.280000	18389.970000	6304.050000	-19725.840000	3120.075000	-5492.610000	-3240.720000	-4.247924	-3.746546	-4.077651	-5.328646	-7.372039	-9.250150	0.343023	9.132889	0.350980	5.188400	-3.235120	0.901792	-0.163818	0.382079	-1.000000	-1.000000	-1.000000	-1.000000	-1.000000	-1.000000	-1.000000	70.413793	0.000000	-1.000000	-1.000000	1181877.000000	1773689920.565829
779.670000	11857.230000	18384.345000	6295.455000	-19734.255000	3115.980000	-5495.625000	-3244.140000	-5.798434	-2.836797	-2.774428	-3.553074	-7.014218	-8.088519	0.460335	2.939946	0.350980	5.188400	-3.235120	0.901792	-0.163818	0.382079	-1.000000	-1.000000	-1.000000	-1.000000	-1.000000	-1.000000	-1.000000	70.413793	0.000000	-1.000000	-1.000000	1181878.000000	1773689920.565841
786.285000	11863.755000	18393.300000	6306.345000	-19718.955000	3131.100000	-5494.860000	-3238.965000	-5.762296	-2.044825	-1.685955	-1.899538	-5.912749	-5.622732	-0.258945	-3.975421	0.350980	5.188400	-3.235120	0.901792	-0.163818	0.382079	-1.000000	-1.000000	-1.000000	-1.000000	-1.000000	-1.000000	-1.000000	70.413793	0.000000	-1.000000	-1.000000	1181879.000000	1773689920.571674
785.385000	11865.015000	18392.895000	6305.490000	-19721.655000	3129.435000	-5492.520000	-3238.875000	-3.740241	-0.853875	-0.373574	-0.058823	-3.208846	-1.641689	-1.784373	-8.043137	0.350980	5.188400	-3.235120	0.901792	-0.163818	0.382079	-1.000000	-1.000000	-1.000000	-1.000000	-1.000000	-1.000000	-1.000000	70.413793	0.000000	-1.000000	-1.000000	1181880.000000	1773689920.571686
783.135000	11871.360000	18400.545000	6312.150000	-19725.030000	3112.875000	-5497.425000	-3242.970000	-0.163179	1.372295	1.842889	2.544135	1.255974	3.197949	-2.754171	-8.175698	3.357200	6.332900	-1.052940	0.903318	-0.164795	0.383910	-1.000000	-1.000000	-1.000000	-1.000000	-1.000000	-1.000000	-1.000000	70.413793	0.000000	-1.000000	-1.000000	1181881.000000	1773689920.574149
796.095000	11885.535000	18414.135000	6324.570000	-19717.965000	3119.130000	-5500.755000	-3232.620000	3.872609	4.584922	4.911039	5.615064	5.905684	6.783541	-2.180703	-5.838924	3.357200	6.332900	-1.052940	0.903318	-0.164795	0.383910	-1.000000	-1.000000	-1.000000	-1.000000	-1.000000	-1.000000	-1.000000	70.413793	0.000000	-1.000000	-1.000000	1181882.000000	1773689920.574160
801.720000	11892.150000	18424.620000	6339.645000	-19696.815000	3147.570000	-5491.080000	-3225.465000	7.172072	7.527930	7.659443	7.994402	8.881549	7.936277	-0.364247	-2.543082	3.357200	6.332900	-1.052940	0.903318	-0.164795	0.383910	-1.000000	-1.000000	-1.000000	-1.000000	-1.000000	-1.000000	-1.000000	70.413793	0.000000	-1.000000	-1.000000	1181883.000000	1773689920.577816
774.450000	11886.525000	18419.445000	6333.345000	-19697.940000	3150.135000	-5490.495000	-3249.405000	7.920079	8.009553	8.048248	8.006392	9.160286	7.365337	1.533503	0.672924	3.357200	6.332900	-1.052940	0.903318	-0.164795	0.383910	-1.000000	-1.000000	-1.000000	-1.000000	-1.000000	-1.000000	-1.000000	70.413793	0.000000	-1.000000	-1.000000	1181884.000000	1773689920.577826
776.160000	11863.620000	18393.030000	6306.120000	-19717.965000	3136.770000	-5502.465000	-3264.255000	4.493652	4.380635	4.372363	4.199911	6.280154	5.678312	2.017198	2.209392	3.357200	6.332900	-1.052940	0.903318	-0.164795	0.383910	-1.000000	-1.000000	-1.000000	-1.000000	-1.000000	-1.000000	-1.000000	70.413793	0.000000	-1.000000	-1.000000	1181885.000000	1773689920.585576
789.480000	11855.835000	18382.455000	6297.480000	-19715.805000	3148.560000	-5507.145000	-3258.180000	-1.471255	-2.639867	-2.912827	-2.934389	0.954556	3.073996	0.380349	1.450007	3.357200	6.332900	-1.052940	0.903318	-0.164795	0.383910	-1.000000	-1.000000	-1.000000	-1.000000	-1.000000	-1.000000	-1.000000	70.413793	0.000000	-1.000000	-1.000000	1181886.000000	1773689920.585615
805.050000	11872.620000	18394.920000	6301.710000	-19708.605000	3157.200000	-5513.670000	-3267.450000	-5.558657	-9.394179	-10.229256	-9.946964	-4.263427	0.397807	-2.321201	0.040725	3.357200	6.332900	-1.052940	0.903318	-0.164795	0.383910	-1.000000	-1.000000	-1.000000	-1.000000	-1.000000	-1.000000	-1.000000	70.413793	0.000000	-1.000000	-1.000000	1181887.000000	1773689920.585682
813.330000	11874.735000	18396.360000	6303.510000	-19710.720000	3154.230000	-5515.200000	-3249.585000	-5.070957	-11.532691	-12.968912	-12.655734	-6.954947	-1.899655	-4.172612	-0.070141	3.357200	6.332900	-1.052940	0.903318	-0.164795	0.383910	-1.000000	-1.000000	-1.000000	-1.000000	-1.000000	-1.000000	-1.000000	70.413793	0.000000	-1.000000	-1.000000	1181888.000000	1773689920.585689
780.930000	11861.370000	18387.180000	6298.470000	-19743.705000	3088.305000	-5506.830000	-3248.955000	-1.589030	-7.915925	-9.486560	-9.577691	-7.053624	-4.884316	-3.709700	1.663136	3.357200	6.332900	-1.052940	0.903318	-0.164795	0.383910	-1.000000	-1.000000	-1.000000	-1.000000	-1.000000	-1.000000	-1.000000	70.413793	0.000000	-1.000000	-1.000000	1181889.000000	1773689920.591299
728.190000	11838.555000	18366.165000	6281.505000	-19759.815000	3075.480000	-5503.365000	-3262.680000	0.228838	-1.793709	-2.595250	-2.982571	-6.255395	-9.542438	-0.507456	3.895054	3.357200	6.332900	-1.052940	0.903318	-0.164795	0.383910	-1.000000	-1.000000	-1.000000	-1.000000	-1.000000	-1.000000	-1.000000	70.413793	0.000000	-1.000000	-1.000000	1181890.000000	1773689920.591309
725.265000	11835.000000	18364.995000	6284.160000	-19744.605000	3107.655000	-5501.655000	-3264.210000	-2.860093	2.360043	3.047359	2.978814	-5.492056	-13.591665	4.130174	4.113255	4.745860	7.095900	-0.549360	0.902769	-0.162780	0.383910	-1.000000	-1.000000	-1.000000	-1.000000	-1.000000	-1.000000	-1.000000	70.413793	0.000000	-1.000000	-1.000000	1181891.000000	1773689920.593717
764.010000	11841.750000	18372.735000	6290.775000	-19738.665000	3115.575000	-5495.220000	-3247.965000	-7.723662	3.053809	5.118127	5.720512	-3.822094	-12.471873	7.438828	1.742024	4.745860	7.095900	-0.549360	0.902769	-0.162780	0.383910	-1.000000	-1.000000	-1.000000	-1.000000	-1.000000	-1.000000	-1.000000	70.413793	0.000000	-1.000000	-1.000000	1181892.000000	1773689920.593728
787.095000	11843.055000	18375.030000	6293.340000	-19733.265000	3118.680000	-5496.705000	-3242.880000	-6.928757	2.512310	5.044574	5.960309	-0.077058	-4.671181	7.297148	-0.495090	4.745860	7.095900	-0.549360	0.902769	-0.162780	0.383910	-1.000000	-1.000000	-1.000000	-1.000000	-1.000000	-1.000000	-1.000000	70.413793	0.000000	-1.000000	-1.000000	1181893.000000	1773689920.598421
793.125000	11845.710000	18375.930000	6292.755000	-19734.210000	3110.535000	-5502.510000	-3243.690000	2.159716	3.522952	5.456673	5.980525	5.469516	6.419428	3.890840	-0.147560	4.745860	7.095900	-0.549360	0.902769	-0.162780	0.383910	-1.000000	-1.000000	-1.000000	-1.000000	-1.000000	-1.000000	-1.000000	70.413793	0.000000	-1.000000	-1.000000	1181894.000000	1773689920.598431
789.840000	11854.755000	18383.715000	6298.245000	-19726.875000	3118.185000	-5493.555000	-3241.620000	13.280290	6.331745	7.033614	6.716547	10.679526	15.138730	-0.679932	1.826516	4.745860	7.095900	-0.549360	0.902769	-0.162780	0.383910	-1.000000	-1.000000	-1.000000	-1.000000	-1.000000	-1.000000	-1.000000	70.413793	0.000000	-1.000000	-1.000000	1181895.000000	1773689920.602323
786.870000	11856.195000	18381.870000	6294.555000	-19728.945000	3119.580000	-5493.420000	-3243.645000	17.567499	8.442516	7.849049	6.786310	12.444832	17.129265	-3.947250	2.715059	4.745860	7.095900	-0.549360	0.902769	-0.162780	0.383910	-1.000000	-1.000000	-1.000000	-1.000000	-1.000000	-1.000000	-1.000000	70.413793	0.000000	-1.000000	-1.000000	1181896.000000	1773689920.602331
786.195000	11857.635000	18383.085000	6295.590000	-19730.790000	3116.655000	-5499.090000	-3247.740000	11.870373	7.299828	5.720495	4.395789	9.294285	12.351041	-4.853727	0.844209	4.745860	7.095900	-0.549360	0.902769	-0.162780	0.383910	-1.000000	-1.000000	-1.000000	-1.000000	-1.000000	-1.000000	-1.000000	70.413793	0.000000	-1.000000	-1.000000	1181897.000000	1773689920.605763
784.215000	11859.120000	18386.775000	6301.260000	-19727.595000	3118.230000	-5502.240000	-3255.885000	0.990407	3.123353	1.050472	-0.078592	3.262495	5.180778	-4.248082	-3.281509	4.745860	7.095900	-0.549360	0.902769	-0.162780	0.383910	-1.000000	-1.000000	-1.000000	-1.000000	-1.000000	-1.000000	-1.000000	70.413793	0.000000	-1.000000	-1.000000	1181898.000000	1773689920.605774
785.610000	11864.295000	18393.570000	6310.440000	-19716.615000	3129.975000	-5501.565000	-3254.310000	-7.222752	-1.491103	-3.431786	-4.123913	-2.025653	-0.000004	-3.321615	-7.130158	4.745860	7.095900	-0.549360	0.902769	-0.162780	0.383910	-1.000000	-1.000000	-1.000000	-1.000000	-1.000000	-1.000000	-1.000000	70.413793	0.000000	-1.000000	-1.000000	1181899.000000	1773689920.610096
782.730000	11880.495000	18410.535000	6327.585000	-19702.125000	3143.790000	-5496.210000	-3281.670000	-9.184854	-4.247928	-5.449639	-5.625803	-4.841300	-2.925623	-2.340928	-8.458001	4.745860	7.095900	-0.549360	0.902769	-0.162780	0.383910	-1.000000	-1.000000	-1.000000	-1.000000	-1.000000	-1.000000	-1.000000	70.413793	0.000000	-1.000000	-1.000000	1181900.000000	1773689920.610109
788.085000	11895.750000	18421.335000	6332.895000	-19699.830000	3146.355000	-5492.745000	-3293.865000	-7.462739	-4.516762	-4.748442	-4.513753	-5.753962	-5.495510	-1.066880	-7.477622	-1.159760	6.638100	-0.152600	0.902647	-0.157287	0.384398	-1.000000	-1.000000	-1.000000	-1.000000	-1.000000	-1.000000	-1.000000	70.413793	0.000000	-1.000000	-1.000000	1181901.000000	1773689920.613704
795.195000	11880.405000	18402.795000	6313.050000	-19718.865000	3123.360000	-5506.245000	-3260.745000	-5.806513	-3.211355	-2.791509	-2.441165	-5.946059	-8.211811	0.430620	-4.766271	-1.159760	6.638100	-0.152600	0.902647	-0.157287	0.384398	-1.000000	-1.000000	-1.000000	-1.000000	-1.000000	-1.000000	-1.000000	70.413793	0.000000	-1.000000	-1.000000	1181902.000000	1773689920.613712
788.760000	11858.220000	18383.715000	6295.860000	-19731.645000	3110.850000	-5504.310000	-3216.150000	-5.118153	-2.552580	-1.940195	-1.664005	-6.381551	-10.360484	1.617658	1.036220	-1.159760	6.638100	-0.152600	0.902647	-0.157287	0.384398	-1.000000	-1.000000	-1.000000	-1.000000	-1.000000	-1.000000	-1.000000	70.413793	0.000000	-1.000000	-1.000000	1181903.000000	1773689920.617732
771.165000	11845.170000	18375.885000	6291.855000	-19729.440000	3121.695000	-5489.370000	-3221.280000	-4.594120	-4.498295	-3.663653	-3.182306	-7.102923	-10.911869	2.251916	9.885599	-1.159760	6.638100	-0.152600	0.902647	-0.157287	0.384398	-1.000000	-1.000000	-1.000000	-1.000000	-1.000000	-1.000000	-1.000000	70.413793	0.000000	-1.000000	-1.000000	1181904.000000	1773689920.617743
793.575000	11862.900000	18392.040000	6307.155000	-19716.030000	3136.005000	-5487.615000	-3226.725000	-3.322055	-7.894743	-6.414224	-5.220247	-6.536082	-8.336412	2.789853	16.910850	-1.159760	6.638100	-0.152600	0.902647	-0.157287	0.384398	-1.000000	-1.000000	-1.000000	-1.000000	-1.000000	-1.000000	-1.000000	70.413793	0.000000	-1.000000	-1.000000	1181905.000000	1773689920.627376
811.215000	11879.505000	18404.460000	6316.245000	-19712.565000	3134.835000	-5500.260000	-3229.470000	0.095755	-8.465804	-6.426695	-4.604081	-2.777040	-1.740091	3.223453	16.395078	-1.159760	6.638100	-0.152600	0.902647	-0.157287	0.384398	-1.000000	-1.000000	-1.000000	-1.000000	-1.000000	-1.000000	-1.000000	70.413793	0.000000	-1.000000	-1.000000	1181906.000000	1773689920.627385
800.955000	11875.860000	18398.520000	6306.795000	-19727.955000	3117.465000	-5506.875000	-3226.590000	5.988027	-3.465307	-1.913779	-0.489245	3.392541	6.602241	2.521731	7.904803	-1.159760	6.638100	-0.152600	0.902647	-0.157287	0.384398	-1.000000	-1.000000	-1.000000	-1.000000	-1.000000	-1.000000	-1.000000	70.413793	0.000000	-1.000000	-1.000000	1181907.000000	1773689920.629159
782.010000	11856.510000	18383.130000	6301.350000	-19721.520000	3134.745000	-5501.565000	-3239.325000	11.079411	4.342487	4.256749	4.189601	8.063550	11.679661	0.236140	-3.756437	-1.159760	6.638100	-0.152600	0.902647	-0.157287	0.384398	-1.000000	-1.000000	-1.000000	-1.000000	-1.000000	-1.000000	-1.000000	70.413793	0.000000	-1.000000	-1.000000	1181908.000000	1773689920.629169
782.595000	11854.170000	18384.435000	6305.445000	-19714.590000	3137.625000	-5506.065000	-3249.990000	10.812557	9.024528	7.274418	5.832899	8.186556	10.498336	-2.575811	-12.845062	-1.159760	6.638100	-0.152600	0.902647	-0.157287	0.384398	-1.000000	-1.000000	-1.000000	-1.000000	-1.000000	-1.000000	-1.000000	70.413793	0.000000	-1.000000	-1.000000	1181909.000000	1773689920.630324
783.000000	11849.805000	18377.865000	6294.465000	-19725.390000	3126.780000	-5497.740000	-3247.920000	4.412129	7.608752	5.416638	3.863875	4.525440	4.724947	-4.253213	-15.964594	-1.159760	6.638100	-0.152600	0.902647	-0.157287	0.384398	-1.000000	-1.000000	-1.000000	-1.000000	-1.000000	-1.000000	-1.000000	70.413793	0.000000	-1.000000	-1.000000	1181910.000000	1773689920.630335
786.375000	11868.615000	18394.650000	6305.220000	-19717.335000	3127.185000	-5491.935000	-3246.165000	-4.230912	2.920679	1.650184	0.948037	0.335264	-1.433574	-3.396490	-13.481215	-4.120200	7.919940	0.000000	0.900083	-0.155700	0.385985	-1.000000	-1.000000	-1.000000	-1.000000	-1.000000	-1.000000	-1.000000	70.413793	0.000000	-1.000000	-1.000000	1181911.000000	1773689920.636716
784.935000	11883.555000	18405.855000	6310.125000	-19721.115000	3113.865000	-5491.980000	-3240.045000	-9.855878	0.382926	0.389879	0.251759	-1.565527	-4.709653	-0.192046	-8.352085	-4.120200	7.919940	0.000000	0.900083	-0.155700	0.385985	-1.000000	-1.000000	-1.000000	-1.000000	-1.000000	-1.000000	-1.000000	70.413793	0.000000	-1.000000	-1.000000	1181912.000000	1773689920.636734
750.015000	11868.840000	18397.845000	6308.055000	-19718.190000	3124.080000	-5484.465000	-3245.040000	-10.003257	1.975655	2.620703	2.162936	-1.003832	-4.878761	3.030749	-2.827567	-4.120200	7.919940	0.000000	0.900083	-0.155700	0.385985	-1.000000	-1.000000	-1.000000	-1.000000	-1.000000	-1.000000	-1.000000	70.413793	0.000000	-1.000000	-1.000000	1181913.000000	1773689920.637722
739.710000	11847.915000	18381.330000	6299.730000	-19720.665000	3129.570000	-5492.610000	-3272.940000	-6.890663	3.897995	4.621106	3.767947	0.046026	-3.320965	4.069896	2.174342	-4.120200	7.919940	0.000000	0.900083	-0.155700	0.385985	-1.000000	-1.000000	-1.000000	-1.000000	-1.000000	-1.000000	-1.000000	70.413793	0.000000	-1.000000	-1.000000	1181914.000000	1773689920.637728
774.855000	11846.475000	18375.165000	6291.315000	-19729.980000	3123.585000	-5504.355000	-3260.340000	-3.304214	1.589797	2.426600	2.189916	-0.016843	-0.841822	2.631999	5.704900	-4.120200	7.919940	0.000000	0.900083	-0.155700	0.385985	-1.000000	-1.000000	-1.000000	-1.000000	-1.000000	-1.000000	-1.000000	70.413793	0.000000	-1.000000	-1.000000	1181915.000000	1773689920.641756
785.880000	11860.515000	18388.980000	6303.915000	-19721.655000	3130.200000	-5509.215000	-3257.235000	1.536104	-3.999206	-3.077588	-1.953954	-1.073826	1.817106	-0.275615	7.606737	-4.120200	7.919940	0.000000	0.900083	-0.155700	0.385985	-1.000000	-1.000000	-1.000000	-1.000000	-1.000000	-1.000000	-1.000000	70.413793	0.000000	-1.000000	-1.000000	1181916.000000	1773689920.641767
800.595000	11857.140000	18383.805000	6299.955000	-19725.615000	3126.600000	-5502.195000	-3232.890000	8.536525	-7.677517	-7.219839	-5.361188	-2.127086	3.168400	-3.112109	9.056496	-4.120200	7.919940	0.000000	0.900083	-0.155700	0.385985	-1.000000	-1.000000	-1.000000	-1.000000	-1.000000	-1.000000	-1.000000	70.413793	0.000000	-1.000000	-1.000000	1181917.000000	1773689920.645692
