Channel1	Channel2	Channel3	Channel4	Channel5	Channel6	Channel7	Channel8	FilteredChannel1	FilteredChannel2	FilteredChannel3	FilteredChannel4	FilteredChannel5	FilteredChannel6	FilteredChannel7	FilteredChannel8	GyroX	GyroY	GyroZ	AccX	AccY	AccZ	PPG1	PPG2	rawPPG1	rawPPG2	rawPPG3	Hr	Hrv	Battery	Trigger	PhysicalTrigger	AutoTrigger	NumMeasurements	Timestamp
-27723.825000	-46207.845000	7376.985000	2354.805000	6515.685000	5209.605000	2143.485000	2088.990000	-8.678681	-11.368794	-11.055673	-9.625175	-7.285215	-4.177725	-4.209122	-9.241293	7.172200	8.759240	2.807840	0.882444	0.208007	0.398009	-1.000000	-1.000000	-1.000000	-1.000000	-1.000000	-1.000000	-1.000000	74.965517	0.000000	-1.000000	-1.000000	1402846.000000	1772660694.310452
-27699.615000	-46180.215000	7406.055000	2383.155000	6541.425000	5227.695000	2154.420000	2117.610000	2.637042	0.438924	0.497972	1.173578	2.379353	4.512982	2.643875	3.750552	7.172200	8.759240	2.807840	0.882444	0.208007	0.398009	-1.000000	-1.000000	-1.000000	-1.000000	-1.000000	-1.000000	-1.000000	74.965517	0.000000	-1.000000	-1.000000	1402847.000000	1772660694.310457
-27675.045000	-46149.345000	7438.005000	2414.385000	6567.570000	5244.345000	2157.840000	2132.685000	10.275970	10.146643	9.803023	9.225315	8.860620	9.176398	5.892690	10.180252	7.172200	8.759240	2.807840	0.882444	0.208007	0.398009	-1.000000	-1.000000	-1.000000	-1.000000	-1.000000	-1.000000	-1.000000	74.965517	0.000000	-1.000000	-1.000000	1402848.000000	1772660694.310460
-27717.390000	-46184.355000	7403.580000	2380.140000	6533.145000	5214.645000	2142.045000	2072.880000	13.931344	15.720529	15.004372	13.300094	11.482082	10.025859	6.566497	11.324676	7.172200	8.759240	2.807840	0.882444	0.208007	0.398009	-1.000000	-1.000000	-1.000000	-1.000000	-1.000000	-1.000000	-1.000000	74.965517	0.000000	-1.000000	-1.000000	1402849.000000	1772660694.310465
-27723.735000	-46204.290000	7381.530000	2361.645000	6520.455000	5208.660000	2142.000000	2081.385000	14.441627	16.617453	15.624662	13.420581	10.677183	8.352683	6.722189	10.836331	7.172200	8.759240	2.807840	0.882444	0.208007	0.398009	-1.000000	-1.000000	-1.000000	-1.000000	-1.000000	-1.000000	-1.000000	74.965517	0.000000	-1.000000	-1.000000	1402850.000000	1772660694.310467
-27705.330000	-46185.795000	7404.210000	2389.050000	6549.300000	5235.795000	2153.970000	2099.880000	11.709561	12.652964	11.594488	9.816740	7.073055	5.188054	6.794349	9.786703	4.516960	9.094960	3.525060	0.884641	0.211914	0.394957	-1.000000	-1.000000	-1.000000	-1.000000	-1.000000	-1.000000	-1.000000	74.965517	0.000000	-1.000000	-1.000000	1402851.000000	1772660694.316050
-27704.295000	-46185.705000	7405.110000	2389.770000	6550.470000	5237.055000	2152.800000	2107.170000	5.833621	5.152535	4.501210	4.039012	2.290499	1.598667	5.406084	6.732965	4.516960	9.094960	3.525060	0.884641	0.211914	0.394957	-1.000000	-1.000000	-1.000000	-1.000000	-1.000000	-1.000000	-1.000000	74.965517	0.000000	-1.000000	-1.000000	1402852.000000	1772660694.316057
-27708.930000	-46188.990000	7398.360000	2381.760000	6540.300000	5226.885000	2153.430000	2109.465000	-2.015425	-3.363089	-3.211100	-2.182417	-2.493607	-2.193331	1.377898	0.882518	4.516960	9.094960	3.525060	0.884641	0.211914	0.394957	-1.000000	-1.000000	-1.000000	-1.000000	-1.000000	-1.000000	-1.000000	74.965517	0.000000	-1.000000	-1.000000	1402853.000000	1772660694.318742
-27710.145000	-46189.035000	7393.905000	2376.045000	6530.535000	5215.230000	2148.480000	2108.475000	-9.471584	-10.089112	-9.238575	-7.463787	-6.673271	-6.177286	-4.264560	-5.836081	4.516960	9.094960	3.525060	0.884641	0.211914	0.394957	-1.000000	-1.000000	-1.000000	-1.000000	-1.000000	-1.000000	-1.000000	74.965517	0.000000	-1.000000	-1.000000	1402854.000000	1772660694.318747
-27676.215000	-46150.245000	7430.940000	2413.440000	6564.510000	5244.570000	2163.195000	2132.685000	-12.782281	-11.964669	-10.953187	-9.461657	-8.347002	-8.484085	-8.417608	-9.390423	4.516960	9.094960	3.525060	0.884641	0.211914	0.394957	-1.000000	-1.000000	-1.000000	-1.000000	-1.000000	-1.000000	-1.000000	74.965517	0.000000	-1.000000	-1.000000	1402855.000000	1772660694.321340
-27648.180000	-46105.965000	7482.825000	2470.005000	6619.005000	5290.425000	2170.305000	2126.025000	-9.368870	-7.453615	-6.767464	-6.117656	-5.295615	-6.298911	-8.421465	-7.778037	4.516960	9.094960	3.525060	0.884641	0.211914	0.394957	-1.000000	-1.000000	-1.000000	-1.000000	-1.000000	-1.000000	-1.000000	74.965517	0.000000	-1.000000	-1.000000	1402856.000000	1772660694.321347
-27707.805000	-46163.700000	7429.005000	2418.165000	6571.485000	5254.020000	2153.205000	2066.175000	-1.919453	0.200697	0.581874	0.555478	1.132737	0.056032	-4.571287	-3.991029	4.516960	9.094960	3.525060	0.884641	0.211914	0.394957	-1.000000	-1.000000	-1.000000	-1.000000	-1.000000	-1.000000	-1.000000	74.965517	0.000000	-1.000000	-1.000000	1402857.000000	1772660694.325386
-27706.500000	-46189.170000	7393.635000	2376.495000	6527.070000	5223.195000	2183.445000	2127.330000	3.915258	4.766662	5.053456	4.711575	5.497856	5.834276	1.004428	-0.542248	4.516960	9.094960	3.525060	0.884641	0.211914	0.394957	-1.000000	-1.000000	-1.000000	-1.000000	-1.000000	-1.000000	-1.000000	74.965517	0.000000	-1.000000	-1.000000	1402858.000000	1772660694.325394
-27705.195000	-46202.040000	7378.290000	2359.845000	6511.320000	5210.595000	2173.410000	2136.105000	5.538878	3.302008	3.212126	2.425303	3.437404	6.145637	6.280338	4.007895	4.516960	9.094960	3.525060	0.884641	0.211914	0.394957	-1.000000	-1.000000	-1.000000	-1.000000	-1.000000	-1.000000	-1.000000	74.965517	0.000000	-1.000000	-1.000000	1402859.000000	1772660694.329460
-27719.145000	-46207.350000	7378.560000	2363.535000	6518.745000	5201.820000	2124.630000	2104.560000	3.421926	-2.198663	-3.127175	-4.669849	-3.932506	0.255657	7.901382	8.244779	4.516960	9.094960	3.525060	0.884641	0.211914	0.394957	-1.000000	-1.000000	-1.000000	-1.000000	-1.000000	-1.000000	-1.000000	74.965517	0.000000	-1.000000	-1.000000	1402860.000000	1772660694.329469
-27732.465000	-46211.670000	7379.055000	2368.620000	6528.015000	5211.810000	2134.215000	2100.465000	-1.290905	-7.668023	-9.127728	-11.030682	-10.816596	-7.777034	2.926578	6.851249	1.709120	7.599480	3.769220	0.881895	0.213256	0.397277	-1.000000	-1.000000	-1.000000	-1.000000	-1.000000	-1.000000	-1.000000	74.965517	0.000000	-1.000000	-1.000000	1402861.000000	1772660694.333729
-27726.885000	-46201.185000	7388.460000	2376.225000	6531.480000	5225.805000	2167.200000	2110.725000	-6.120357	-9.148724	-10.001099	-11.155942	-11.184895	-11.441907	-5.309767	-0.841925	1.709120	7.599480	3.769220	0.881895	0.213256	0.397277	-1.000000	-1.000000	-1.000000	-1.000000	-1.000000	-1.000000	-1.000000	74.965517	0.000000	-1.000000	-1.000000	1402862.000000	1772660694.333740
-27723.780000	-46197.945000	7385.895000	2368.260000	6518.385000	5215.905000	2168.595000	2107.485000	-7.652487	-4.963378	-4.316332	-3.952333	-3.957138	-7.107939	-9.234286	-8.909755	1.709120	7.599480	3.769220	0.881895	0.213256	0.397277	-1.000000	-1.000000	-1.000000	-1.000000	-1.000000	-1.000000	-1.000000	74.965517	0.000000	-1.000000	-1.000000	1402863.000000	1772660694.338086
-27715.545000	-46189.305000	7394.670000	2377.980000	6527.475000	5207.130000	2145.150000	2109.195000	-4.859075	2.179047	3.977991	5.508257	5.421663	1.603606	-6.257476	-11.831716	1.709120	7.599480	3.769220	0.881895	0.213256	0.397277	-1.000000	-1.000000	-1.000000	-1.000000	-1.000000	-1.000000	-1.000000	74.965517	0.000000	-1.000000	-1.000000	1402864.000000	1772660694.338195
-27688.680000	-46176.840000	7406.640000	2390.085000	6539.310000	5213.160000	2140.920000	2128.095000	0.449378	7.426143	8.983094	10.592175	10.244784	7.470542	-0.644568	-8.220470	1.709120	7.599480	3.769220	0.881895	0.213256	0.397277	-1.000000	-1.000000	-1.000000	-1.000000	-1.000000	-1.000000	-1.000000	74.965517	0.000000	-1.000000	-1.000000	1402865.000000	1772660694.341305
-27690.300000	-46176.975000	7407.810000	2391.840000	6542.460000	5222.205000	2152.485000	2129.265000	7.159859	9.624660	9.693022	10.515138	9.933560	8.378141	3.454122	0.990973	1.709120	7.599480	3.769220	0.881895	0.213256	0.397277	-1.000000	-1.000000	-1.000000	-1.000000	-1.000000	-1.000000	-1.000000	74.965517	0.000000	-1.000000	-1.000000	1402866.000000	1772660694.341313
-27695.115000	-46175.265000	7409.970000	2395.080000	6546.285000	5231.430000	2158.155000	2119.950000	13.816532	11.085123	9.712607	9.694857	9.049996	8.137285	5.370241	11.185604	1.709120	7.599480	3.769220	0.881895	0.213256	0.397277	-1.000000	-1.000000	-1.000000	-1.000000	-1.000000	-1.000000	-1.000000	74.965517	0.000000	-1.000000	-1.000000	1402867.000000	1772660694.345574
-27691.155000	-46168.155000	7416.270000	2403.720000	6556.005000	5238.405000	2147.580000	2110.545000	16.073602	11.896234	10.284767	10.024191	9.503990	9.060463	5.662601	14.736491	1.709120	7.599480	3.769220	0.881895	0.213256	0.397277	-1.000000	-1.000000	-1.000000	-1.000000	-1.000000	-1.000000	-1.000000	74.965517	0.000000	-1.000000	-1.000000	1402868.000000	1772660694.345581
-27675.450000	-46150.740000	7437.420000	2427.750000	6581.430000	5257.710000	2155.455000	2127.600000	11.285166	9.818288	9.026671	9.082637	8.755809	9.276298	5.104522	9.325174	1.709120	7.599480	3.769220	0.881895	0.213256	0.397277	-1.000000	-1.000000	-1.000000	-1.000000	-1.000000	-1.000000	-1.000000	74.965517	0.000000	-1.000000	-1.000000	1402869.000000	1772660694.349379
-27680.895000	-46157.895000	7429.365000	2416.950000	6568.785000	5253.435000	2169.720000	2131.605000	2.018102	4.020932	4.217587	4.612226	4.404422	6.304698	4.216122	0.246048	1.709120	7.599480	3.769220	0.881895	0.213256	0.397277	-1.000000	-1.000000	-1.000000	-1.000000	-1.000000	-1.000000	-1.000000	74.965517	0.000000	-1.000000	-1.000000	1402870.000000	1772660694.349388
-27703.755000	-46173.420000	7412.535000	2399.130000	6550.155000	5237.415000	2159.460000	2097.540000	-7.644908	-4.453725	-3.648278	-3.304836	-3.395210	-0.473685	2.183660	-7.002274	4.593260	7.034860	2.762060	0.879087	0.210510	0.401366	-1.000000	-1.000000	-1.000000	-1.000000	-1.000000	-1.000000	-1.000000	74.965517	0.000000	-1.000000	-1.000000	1402871.000000	1772660694.355175
-27700.740000	-46172.340000	7411.185000	2397.960000	6549.795000	5235.525000	2149.830000	2100.195000	-15.161214	-13.437512	-12.456653	-12.457759	-12.185806	-9.165553	-1.799439	-10.861186	4.593260	7.034860	2.762060	0.879087	0.210510	0.401366	-1.000000	-1.000000	-1.000000	-1.000000	-1.000000	-1.000000	-1.000000	74.965517	0.000000	-1.000000	-1.000000	1402872.000000	1772660694.355179
-27690.930000	-46167.030000	7414.830000	2399.895000	6549.705000	5236.245000	2150.235000	2114.955000	-18.644864	-19.671757	-18.935956	-19.283856	-18.414246	-15.922395	-6.199913	-11.088902	4.593260	7.034860	2.762060	0.879087	0.210510	0.401366	-1.000000	-1.000000	-1.000000	-1.000000	-1.000000	-1.000000	-1.000000	74.965517	0.000000	-1.000000	-1.000000	1402873.000000	1772660694.357537
-27698.040000	-46181.340000	7398.585000	2383.965000	6534.945000	5223.060000	2155.320000	2120.805000	-16.465177	-19.938563	-19.903870	-20.524546	-19.270857	-17.390167	-7.978610	-6.967324	4.593260	7.034860	2.762060	0.879087	0.210510	0.401366	-1.000000	-1.000000	-1.000000	-1.000000	-1.000000	-1.000000	-1.000000	74.965517	0.000000	-1.000000	-1.000000	1402874.000000	1772660694.357545
-27676.440000	-46169.280000	7409.970000	2394.630000	6545.745000	5227.425000	2156.310000	2150.055000	-8.378557	-12.926069	-13.783263	-14.568289	-13.560757	-12.753414	-5.942841	0.920461	4.593260	7.034860	2.762060	0.879087	0.210510	0.401366	-1.000000	-1.000000	-1.000000	-1.000000	-1.000000	-1.000000	-1.000000	74.965517	0.000000	-1.000000	-1.000000	1402875.000000	1772660694.361491
-27684.135000	-46169.235000	7415.595000	2400.840000	6552.585000	5232.735000	2150.505000	2136.195000	3.194278	-0.679708	-1.957691	-2.681458	-2.486462	-3.890746	-1.849867	9.256400	4.593260	7.034860	2.762060	0.879087	0.210510	0.401366	-1.000000	-1.000000	-1.000000	-1.000000	-1.000000	-1.000000	-1.000000	74.965517	0.000000	-1.000000	-1.000000	1402876.000000	1772660694.361499
-27698.895000	-46176.750000	7410.915000	2395.485000	6545.430000	5225.175000	2147.445000	2118.285000	12.878993	11.312614	10.574114	10.105492	9.312224	5.359765	1.983429	13.224908	4.593260	7.034860	2.762060	0.879087	0.210510	0.401366	-1.000000	-1.000000	-1.000000	-1.000000	-1.000000	-1.000000	-1.000000	74.965517	0.000000	-1.000000	-1.000000	1402877.000000	1772660694.366648
-27687.555000	-46174.410000	7409.745000	2391.165000	6536.295000	5214.870000	2152.845000	2131.605000	15.678186	17.183019	17.574184	17.328024	15.706315	10.712577	4.235950	9.999968	4.593260	7.034860	2.762060	0.879087	0.210510	0.401366	-1.000000	-1.000000	-1.000000	-1.000000	-1.000000	-1.000000	-1.000000	74.965517	0.000000	-1.000000	-1.000000	1402878.000000	1772660694.366655
-27688.635000	-46172.655000	7411.320000	2391.750000	6537.240000	5219.415000	2161.260000	2132.640000	11.538760	15.212909	16.390554	16.232649	14.227969	10.389741	4.287886	1.805757	4.593260	7.034860	2.762060	0.879087	0.210510	0.401366	-1.000000	-1.000000	-1.000000	-1.000000	-1.000000	-1.000000	-1.000000	74.965517	0.000000	-1.000000	-1.000000	1402879.000000	1772660694.369478
-27663.255000	-46148.850000	7432.920000	2414.970000	6561.180000	5242.950000	2176.650000	2171.205000	4.992573	8.783478	9.942518	9.971909	8.392378	7.019077	2.917479	-5.076536	4.593260	7.034860	2.762060	0.879087	0.210510	0.401366	-1.000000	-1.000000	-1.000000	-1.000000	-1.000000	-1.000000	-1.000000	74.965517	0.000000	-1.000000	-1.000000	1402880.000000	1772660694.369485
-27658.440000	-46142.145000	7440.705000	2428.650000	6579.360000	5260.275000	2186.415000	2173.320000	0.352158	2.565521	3.169315	3.782001	3.552362	4.802885	2.204854	-5.877964	6.836480	6.928040	4.043900	0.879209	0.210998	0.402038	-1.000000	-1.000000	-1.000000	-1.000000	-1.000000	-1.000000	-1.000000	74.965517	0.000000	-1.000000	-1.000000	1402881.000000	1772660694.386996
-27751.860000	-46215.630000	7374.240000	2366.550000	6525.180000	5211.315000	2138.805000	2044.035000	-2.915559	-2.290892	-2.207115	-0.633659	1.034750	4.319633	2.304828	-3.715771	6.836480	6.928040	4.043900	0.879209	0.210998	0.402038	-1.000000	-1.000000	-1.000000	-1.000000	-1.000000	-1.000000	-1.000000	74.965517	0.000000	-1.000000	-1.000000	1402882.000000	1772660694.387006
-27726.615000	-46197.360000	7388.010000	2377.395000	6533.550000	5219.820000	2143.620000	2073.510000	-8.006797	-7.316582	-7.313746	-4.926362	-1.640752	2.562083	0.560755	-6.145545	6.836480	6.928040	4.043900	0.879209	0.210998	0.402038	-1.000000	-1.000000	-1.000000	-1.000000	-1.000000	-1.000000	-1.000000	74.965517	0.000000	-1.000000	-1.000000	1402883.000000	1772660694.387017
-27681.570000	-46166.580000	7416.540000	2404.980000	6558.930000	5241.465000	2164.815000	2141.235000	-12.775248	-10.916242	-10.811375	-8.558279	-5.020490	-1.370584	-3.468248	-12.038992	6.836480	6.928040	4.043900	0.879209	0.210998	0.402038	-1.000000	-1.000000	-1.000000	-1.000000	-1.000000	-1.000000	-1.000000	74.965517	0.000000	-1.000000	-1.000000	1402884.000000	1772660694.387020
-27644.310000	-46134.090000	7446.195000	2433.240000	6584.535000	5267.025000	2191.545000	2196.945000	-10.303921	-8.693947	-8.971514	-8.127797	-6.231215	-4.438712	-5.654601	-10.638037	6.836480	6.928040	4.043900	0.879209	0.210998	0.402038	-1.000000	-1.000000	-1.000000	-1.000000	-1.000000	-1.000000	-1.000000	74.965517	0.000000	-1.000000	-1.000000	1402885.000000	1772660694.387024
-27720.540000	-46188.180000	7398.270000	2388.105000	6539.310000	5225.985000	2153.430000	2085.885000	0.103917	-0.816879	-2.016456	-3.218256	-4.098594	-4.532253	-3.238896	1.615256	6.836480	6.928040	4.043900	0.879209	0.210998	0.402038	-1.000000	-1.000000	-1.000000	-1.000000	-1.000000	-1.000000	-1.000000	74.965517	0.000000	-1.000000	-1.000000	1402886.000000	1772660694.387028
-27736.650000	-46199.520000	7393.050000	2386.890000	6536.925000	5223.375000	2150.955000	2056.995000	9.283150	5.957070	4.258265	1.647120	-1.539170	-3.480333	0.543546	13.095103	6.836480	6.928040	4.043900	0.879209	0.210998	0.402038	-1.000000	-1.000000	-1.000000	-1.000000	-1.000000	-1.000000	-1.000000	74.965517	0.000000	-1.000000	-1.000000	1402887.000000	1772660694.387033
-27708.390000	-46184.355000	7402.770000	2393.010000	6541.155000	5223.105000	2149.560000	2099.385000	9.675391	6.205771	5.259977	2.730175	-1.090646	-3.573322	1.244085	12.947360	6.836480	6.928040	4.043900	0.879209	0.210998	0.402038	-1.000000	-1.000000	-1.000000	-1.000000	-1.000000	-1.000000	-1.000000	74.965517	0.000000	-1.000000	-1.000000	1402888.000000	1772660694.387036
-27710.955000	-46182.555000	7403.130000	2392.605000	6536.520000	5212.350000	2131.785000	2099.835000	3.554987	1.440728	1.977944	0.598612	-2.247551	-4.764518	-1.437902	4.260101	6.836480	6.928040	4.043900	0.879209	0.210998	0.402038	-1.000000	-1.000000	-1.000000	-1.000000	-1.000000	-1.000000	-1.000000	74.965517	0.000000	-1.000000	-1.000000	1402889.000000	1772660694.401932
-27715.185000	-46189.530000	7392.735000	2382.795000	6529.905000	5211.675000	2140.155000	2095.920000	-2.430261	-3.335269	-1.885674	-2.189166	-3.414844	-5.651751	-4.513176	-3.348558	6.836480	6.928040	4.043900	0.879209	0.210998	0.402038	-1.000000	-1.000000	-1.000000	-1.000000	-1.000000	-1.000000	-1.000000	74.965517	0.000000	-1.000000	-1.000000	1402890.000000	1772660694.401943
-27697.365000	-46178.325000	7400.610000	2389.995000	6537.645000	5221.980000	2146.365000	2113.965000	-3.093070	-3.715598	-2.692739	-2.629317	-2.444672	-3.836041	-4.080772	-3.050477	4.944240	6.851740	4.516960	0.879392	0.212829	0.400695	-1.000000	-1.000000	-1.000000	-1.000000	-1.000000	-1.000000	-1.000000	74.965517	0.000000	-1.000000	-1.000000	1402891.000000	1772660694.401954
-27693.450000	-46160.640000	7421.130000	2410.110000	6552.720000	5233.635000	2149.965000	2105.100000	1.929157	1.150362	0.854900	0.820891	1.888662	1.900038	1.070803	4.203363	4.944240	6.851740	4.516960	0.879392	0.212829	0.400695	-1.000000	-1.000000	-1.000000	-1.000000	-1.000000	-1.000000	-1.000000	74.965517	0.000000	-1.000000	-1.000000	1402892.000000	1772660694.401958
-27709.290000	-46181.610000	7397.010000	2383.830000	6525.810000	5212.170000	2147.400000	2103.885000	6.380068	6.497948	5.224539	5.173150	6.599985	8.104866	7.060083	9.031713	4.944240	6.851740	4.516960	0.879392	0.212829	0.400695	-1.000000	-1.000000	-1.000000	-1.000000	-1.000000	-1.000000	-1.000000	74.965517	0.000000	-1.000000	-1.000000	1402893.000000	1772660694.401962
-27708.705000	-46184.895000	7389.630000	2377.755000	6519.555000	5211.945000	2159.055000	2113.920000	4.371198	6.476463	5.197910	5.425169	6.861999	9.532130	9.172603	4.824934	4.944240	6.851740	4.516960	0.879392	0.212829	0.400695	-1.000000	-1.000000	-1.000000	-1.000000	-1.000000	-1.000000	-1.000000	74.965517	0.000000	-1.000000	-1.000000	1402894.000000	1772660694.401965
-27702.495000	-46181.250000	7393.815000	2384.910000	6529.770000	5220.045000	2163.420000	2122.650000	-1.643593	1.391059	0.639255	1.315665	2.702566	5.848518	7.090035	-3.125327	4.944240	6.851740	4.516960	0.879392	0.212829	0.400695	-1.000000	-1.000000	-1.000000	-1.000000	-1.000000	-1.000000	-1.000000	74.965517	0.000000	-1.000000	-1.000000	1402895.000000	1772660694.401970
-27695.565000	-46169.145000	7410.465000	2402.685000	6546.105000	5230.395000	2157.795000	2123.010000	-4.982526	-3.302858	-3.483070	-2.373689	-0.934753	1.473913	3.373678	-5.982022	4.944240	6.851740	4.516960	0.879392	0.212829	0.400695	-1.000000	-1.000000	-1.000000	-1.000000	-1.000000	-1.000000	-1.000000	74.965517	0.000000	-1.000000	-1.000000	1402896.000000	1772660694.401973
-27696.015000	-46160.505000	7423.155000	2413.530000	6553.710000	5234.355000	2146.545000	2103.885000	-3.853581	-4.250272	-3.628685	-2.277835	-0.877503	-0.464255	-0.553247	-3.629717	4.944240	6.851740	4.516960	0.879392	0.212829	0.400695	-1.000000	-1.000000	-1.000000	-1.000000	-1.000000	-1.000000	-1.000000	74.965517	0.000000	-1.000000	-1.000000	1402897.000000	1772660694.405533
-27687.555000	-46154.745000	7429.815000	2422.575000	6567.030000	5243.265000	2154.285000	2120.850000	-1.324212	-2.391516	-0.544435	0.674466	1.647138	-0.280402	-4.139641	-1.869289	4.944240	6.851740	4.516960	0.879392	0.212829	0.400695	-1.000000	-1.000000	-1.000000	-1.000000	-1.000000	-1.000000	-1.000000	74.965517	0.000000	-1.000000	-1.000000	1402898.000000	1772660694.405543
-27689.040000	-46162.800000	7418.295000	2408.805000	6554.430000	5234.445000	2176.155000	2137.365000	0.534836	0.219240	3.095646	3.724231	3.889569	0.409253	-5.828514	-2.011210	4.944240	6.851740	4.516960	0.879392	0.212829	0.400695	-1.000000	-1.000000	-1.000000	-1.000000	-1.000000	-1.000000	-1.000000	74.965517	0.000000	-1.000000	-1.000000	1402899.000000	1772660694.409600
-27655.605000	-46142.505000	7434.765000	2423.835000	6569.460000	5250.285000	2191.320000	2196.045000	1.828638	2.073654	4.787491	4.502036	3.776937	0.203318	-4.175348	-0.547052	4.944240	6.851740	4.516960	0.879392	0.212829	0.400695	-1.000000	-1.000000	-1.000000	-1.000000	-1.000000	-1.000000	-1.000000	74.965517	0.000000	-1.000000	-1.000000	1402900.000000	1772660694.409607
-27648.090000	-46132.470000	7448.130000	2437.110000	6581.745000	5260.860000	2183.220000	2189.520000	2.685658	2.238172	3.354315	2.212492	0.907670	-1.237218	-0.380121	3.622459	2.670500	7.233240	4.822160	0.879331	0.214904	0.400390	-1.000000	-1.000000	-1.000000	-1.000000	-1.000000	-1.000000	-1.000000	74.965517	0.000000	-1.000000	-1.000000	1402901.000000	1772660694.414669
-27729.765000	-46188.270000	7399.350000	2392.155000	6539.940000	5213.520000	2118.960000	2049.345000	1.603388	0.232829	-0.667903	-2.105996	-3.402912	-3.449050	1.314439	4.865092	2.670500	7.233240	4.822160	0.879331	0.214904	0.400390	-1.000000	-1.000000	-1.000000	-1.000000	-1.000000	-1.000000	-1.000000	74.965517	0.000000	-1.000000	-1.000000	1402902.000000	1772660694.414677
-27714.555000	-46175.265000	7409.745000	2399.310000	6548.400000	5223.555000	2133.315000	2077.335000	-3.160370	-3.708811	-5.691191	-6.696456	-7.453170	-6.060523	-2.301473	-3.061247	2.670500	7.233240	4.822160	0.879331	0.214904	0.400390	-1.000000	-1.000000	-1.000000	-1.000000	-1.000000	-1.000000	-1.000000	74.965517	0.000000	-1.000000	-1.000000	1402903.000000	1772660694.417342
-27669.780000	-46128.060000	7454.205000	2439.990000	6585.660000	5264.820000	2191.545000	2143.485000	-8.440622	-6.575355	-8.508936	-8.878333	-8.990938	-7.233547	-7.547099	-14.477565	2.670500	7.233240	4.822160	0.879331	0.214904	0.400390	-1.000000	-1.000000	-1.000000	-1.000000	-1.000000	-1.000000	-1.000000	74.965517	0.000000	-1.000000	-1.000000	1402904.000000	1772660694.417348
-27718.290000	-46173.870000	7406.730000	2394.495000	6542.820000	5225.040000	2162.070000	2080.755000	-8.728112	-5.122211	-6.736501	-6.857783	-6.667235	-4.834426	-7.134496	-16.973014	2.670500	7.233240	4.822160	0.879331	0.214904	0.400390	-1.000000	-1.000000	-1.000000	-1.000000	-1.000000	-1.000000	-1.000000	74.965517	0.000000	-1.000000	-1.000000	1402905.000000	1772660694.421494
-27747.405000	-46214.145000	7363.710000	2351.205000	6503.085000	5188.410000	2134.935000	2067.435000	-4.830514	-1.924033	-3.536216	-3.677301	-3.462868	-1.119414	-0.544025	-8.713809	2.670500	7.233240	4.822160	0.879331	0.214904	0.400390	-1.000000	-1.000000	-1.000000	-1.000000	-1.000000	-1.000000	-1.000000	74.965517	0.000000	-1.000000	-1.000000	1402906.000000	1772660694.421503
-27731.115000	-46202.715000	7375.410000	2365.380000	6517.170000	5202.855000	2142.045000	2095.515000	-1.183834	-1.406042	-3.115380	-3.109463	-2.893842	0.088710	5.838127	2.864773	2.670500	7.233240	4.822160	0.879331	0.214904	0.400390	-1.000000	-1.000000	-1.000000	-1.000000	-1.000000	-1.000000	-1.000000	74.965517	0.000000	-1.000000	-1.000000	1402907.000000	1772660694.428365
-27702.090000	-46180.665000	7396.290000	2388.555000	6541.110000	5226.930000	2162.205000	2141.145000	1.756781	-2.173370	-3.456267	-2.959546	-2.848325	-0.131914	7.563460	12.379010	2.670500	7.233240	4.822160	0.879331	0.214904	0.400390	-1.000000	-1.000000	-1.000000	-1.000000	-1.000000	-1.000000	-1.000000	74.965517	0.000000	-1.000000	-1.000000	1402908.000000	1772660694.428374
-27680.490000	-46154.385000	7425.360000	2414.340000	6565.770000	5247.720000	2174.085000	2154.375000	5.567870	-0.101304	-0.118590	1.040646	0.864256	1.818419	5.509093	17.507312	2.670500	7.233240	4.822160	0.879331	0.214904	0.400390	-1.000000	-1.000000	-1.000000	-1.000000	-1.000000	-1.000000	-1.000000	74.965517	0.000000	-1.000000	-1.000000	1402909.000000	1772660694.429608
-27734.220000	-46196.595000	7384.860000	2373.705000	6527.520000	5215.545000	2146.815000	2081.070000	9.182163	4.964700	6.587513	8.060128	7.629868	6.022322	2.699077	16.510840	2.670500	7.233240	4.822160	0.879331	0.214904	0.400390	-1.000000	-1.000000	-1.000000	-1.000000	-1.000000	-1.000000	-1.000000	74.965517	0.000000	-1.000000	-1.000000	1402910.000000	1772660694.429617
-27715.950000	-46194.615000	7381.575000	2368.395000	6521.310000	5211.270000	2150.145000	2107.620000	10.430052	9.528731	12.161478	13.151676	12.682120	9.246810	1.207295	10.461081	1.022420	7.156940	4.532220	0.880369	0.214965	0.402770	-1.000000	-1.000000	-1.000000	-1.000000	-1.000000	-1.000000	-1.000000	74.965517	0.000000	-1.000000	-1.000000	1402911.000000	1772660694.433526
-27691.470000	-46163.700000	7414.335000	2401.290000	6552.585000	5238.135000	2168.235000	2132.460000	9.065011	10.718405	13.061625	12.958416	12.585276	8.949754	1.039785	3.451506	1.022420	7.156940	4.532220	0.880369	0.214965	0.402770	-1.000000	-1.000000	-1.000000	-1.000000	-1.000000	-1.000000	-1.000000	74.965517	0.000000	-1.000000	-1.000000	1402912.000000	1772660694.433533
-27705.645000	-46164.510000	7415.280000	2402.730000	6551.370000	5232.645000	2157.480000	2099.160000	5.531421	8.041825	9.171000	8.089660	7.795060	5.069198	0.362246	-2.576397	1.022420	7.156940	4.532220	0.880369	0.214965	0.402770	-1.000000	-1.000000	-1.000000	-1.000000	-1.000000	-1.000000	-1.000000	74.965517	0.000000	-1.000000	-1.000000	1402913.000000	1772660694.437380
-27699.435000	-46164.195000	7414.110000	2400.795000	6547.680000	5229.045000	2157.975000	2109.735000	0.521558	3.183094	3.121699	1.761000	1.452919	-0.216501	-1.671157	-7.763428	1.022420	7.156940	4.532220	0.880369	0.214965	0.402770	-1.000000	-1.000000	-1.000000	-1.000000	-1.000000	-1.000000	-1.000000	74.965517	0.000000	-1.000000	-1.000000	1402914.000000	1772660694.437388
-27682.515000	-46142.055000	7438.455000	2424.330000	6567.120000	5240.655000	2158.380000	2118.960000	-3.479469	-0.649707	-1.302847	-2.293251	-2.774242	-3.666184	-3.147352	-10.284584	1.022420	7.156940	4.532220	0.880369	0.214965	0.402770	-1.000000	-1.000000	-1.000000	-1.000000	-1.000000	-1.000000	-1.000000	74.965517	0.000000	-1.000000	-1.000000	1402915.000000	1772660694.443046
-27692.910000	-46148.940000	7435.305000	2423.070000	6569.370000	5245.650000	2160.855000	2109.420000	-4.934795	-1.877114	-2.437143	-2.836699	-3.559698	-3.937307	-2.714203	-9.334785	1.022420	7.156940	4.532220	0.880369	0.214965	0.402770	-1.000000	-1.000000	-1.000000	-1.000000	-1.000000	-1.000000	-1.000000	74.965517	0.000000	-1.000000	-1.000000	1402916.000000	1772660694.443053
-27695.070000	-46160.730000	7420.410000	2408.040000	6556.680000	5243.670000	2176.380000	2121.300000	-6.035670	-3.014274	-3.043756	-2.920805	-3.492543	-3.163786	-1.637213	-7.872894	1.022420	7.156940	4.532220	0.880369	0.214965	0.402770	-1.000000	-1.000000	-1.000000	-1.000000	-1.000000	-1.000000	-1.000000	74.965517	0.000000	-1.000000	-1.000000	1402917.000000	1772660694.445575
-27680.355000	-46149.570000	7430.535000	2416.995000	6564.690000	5244.840000	2166.885000	2132.280000	-8.414824	-6.657890	-6.364878	-5.845078	-5.548022	-3.863609	-1.136986	-7.160625	1.022420	7.156940	4.532220	0.880369	0.214965	0.402770	-1.000000	-1.000000	-1.000000	-1.000000	-1.000000	-1.000000	-1.000000	74.965517	0.000000	-1.000000	-1.000000	1402918.000000	1772660694.445584
-27683.505000	-46147.635000	7436.070000	2422.665000	6570.405000	5244.840000	2153.295000	2118.105000	-8.890543	-10.097237	-10.159140	-9.417855	-7.979691	-5.033881	-0.731169	-3.621660	1.022420	7.156940	4.532220	0.880369	0.214965	0.402770	-1.000000	-1.000000	-1.000000	-1.000000	-1.000000	-1.000000	-1.000000	74.965517	0.000000	-1.000000	-1.000000	1402919.000000	1772660694.449581
-27692.055000	-46153.350000	7430.670000	2416.680000	6565.770000	5246.145000	2165.940000	2111.895000	-4.747230	-9.076916	-9.779848	-9.057633	-6.980606	-4.092323	0.150344	3.897079	1.022420	7.156940	4.532220	0.880369	0.214965	0.402770	-1.000000	-1.000000	-1.000000	-1.000000	-1.000000	-1.000000	-1.000000	74.965517	0.000000	-1.000000	-1.000000	1402920.000000	1772660694.449588
-27669.645000	-46133.190000	7449.300000	2434.320000	6582.510000	5263.245000	2193.930000	2156.670000	1.130542	-4.379365	-5.370273	-4.888233	-2.968562	-1.290998	1.172274	10.463891	2.289000	6.073480	4.837420	0.879026	0.212280	0.404540	-1.000000	-1.000000	-1.000000	-1.000000	-1.000000	-1.000000	-1.000000	74.965517	0.000000	-1.000000	-1.000000	1402921.000000	1772660694.453549
-27621.540000	-46092.060000	7486.605000	2469.735000	6619.725000	5300.595000	2229.840000	2238.120000	5.805578	1.226333	0.321412	0.397087	1.604163	2.038576	2.777844	13.773809	2.289000	6.073480	4.837420	0.879026	0.212280	0.404540	-1.000000	-1.000000	-1.000000	-1.000000	-1.000000	-1.000000	-1.000000	74.965517	0.000000	-1.000000	-1.000000	1402922.000000	1772660694.453556
-27718.290000	-46186.920000	7393.500000	2379.330000	6531.435000	5213.790000	2150.145000	2085.570000	8.422030	5.774558	5.048867	4.688857	5.057915	4.847042	4.786154	14.148183	2.289000	6.073480	4.837420	0.879026	0.212280	0.404540	-1.000000	-1.000000	-1.000000	-1.000000	-1.000000	-1.000000	-1.000000	74.965517	0.000000	-1.000000	-1.000000	1402923.000000	1772660694.457430
-27750.420000	-46227.060000	7354.620000	2342.520000	6495.570000	5179.005000	2122.335000	2049.885000	5.379750	4.908891	4.432298	3.892769	3.630732	3.358452	3.223562	6.300040	2.289000	6.073480	4.837420	0.879026	0.212280	0.404540	-1.000000	-1.000000	-1.000000	-1.000000	-1.000000	-1.000000	-1.000000	74.965517	0.000000	-1.000000	-1.000000	1402924.000000	1772660694.457438
-27709.200000	-46190.655000	7391.520000	2377.665000	6529.860000	5208.660000	2145.780000	2111.760000	-4.140830	-2.737584	-2.794306	-3.144247	-3.839837	-4.080608	-4.108772	-10.899055	2.289000	6.073480	4.837420	0.879026	0.212280	0.404540	-1.000000	-1.000000	-1.000000	-1.000000	-1.000000	-1.000000	-1.000000	74.965517	0.000000	-1.000000	-1.000000	1402925.000000	1772660694.461811
-27698.220000	-46177.605000	7404.975000	2389.455000	6541.695000	5223.195000	2163.870000	2125.935000	-12.272828	-9.621304	-9.116162	-9.170841	-10.311027	-11.066176	-11.716630	-25.195688	2.289000	6.073480	4.837420	0.879026	0.212280	0.404540	-1.000000	-1.000000	-1.000000	-1.000000	-1.000000	-1.000000	-1.000000	74.965517	0.000000	-1.000000	-1.000000	1402926.000000	1772660694.461824
-27704.565000	-46185.840000	7394.625000	2378.295000	6532.335000	5215.905000	2157.975000	2113.605000	-11.305655	-8.006856	-7.034036	-6.976949	-8.510388	-10.097742	-12.100893	-24.438565	2.289000	6.073480	4.837420	0.879026	0.212280	0.404540	-1.000000	-1.000000	-1.000000	-1.000000	-1.000000	-1.000000	-1.000000	74.965517	0.000000	-1.000000	-1.000000	1402927.000000	1772660694.468432
-27702.495000	-46182.015000	7398.090000	2380.770000	6532.155000	5212.890000	2145.915000	2102.265000	-1.889397	1.330830	2.321408	2.277293	0.688950	-1.133347	-4.109792	-9.264469	2.289000	6.073480	4.837420	0.879026	0.212280	0.404540	-1.000000	-1.000000	-1.000000	-1.000000	-1.000000	-1.000000	-1.000000	74.965517	0.000000	-1.000000	-1.000000	1402928.000000	1772660694.468443
-27705.285000	-46169.640000	7412.085000	2394.945000	6543.720000	5221.440000	2149.110000	2092.950000	9.155319	11.690011	12.201875	12.010060	10.746065	9.456882	6.139820	9.347589	2.289000	6.073480	4.837420	0.879026	0.212280	0.404540	-1.000000	-1.000000	-1.000000	-1.000000	-1.000000	-1.000000	-1.000000	74.965517	0.000000	-1.000000	-1.000000	1402929.000000	1772660694.469663
-27702.225000	-46168.200000	7411.095000	2394.180000	6541.605000	5220.405000	2159.685000	2108.880000	14.500698	16.370425	16.308664	16.131397	15.367692	14.800459	11.364354	19.433344	2.289000	6.073480	4.837420	0.879026	0.212280	0.404540	-1.000000	-1.000000	-1.000000	-1.000000	-1.000000	-1.000000	-1.000000	74.965517	0.000000	-1.000000	-1.000000	1402930.000000	1772660694.469673
-27693.360000	-46169.730000	7408.845000	2392.695000	6537.285000	5217.390000	2163.420000	2126.700000	11.698500	12.998377	12.649878	12.726447	12.451480	12.498190	9.746307	17.432258	5.279960	4.944240	4.623780	0.877134	0.206970	0.406615	-1.000000	-1.000000	-1.000000	-1.000000	-1.000000	-1.000000	-1.000000	74.965517	0.000000	-1.000000	-1.000000	1402931.000000	1772660694.475141
-27699.345000	-46169.055000	7412.355000	2397.555000	6541.065000	5228.010000	2173.995000	2124.495000	5.278006	5.551554	5.259252	5.667907	5.743382	6.445398	5.811739	10.557227	5.279960	4.944240	4.623780	0.877134	0.206970	0.406615	-1.000000	-1.000000	-1.000000	-1.000000	-1.000000	-1.000000	-1.000000	74.965517	0.000000	-1.000000	-1.000000	1402932.000000	1772660694.475151
-27701.505000	-46168.245000	7415.640000	2403.045000	6547.905000	5238.945000	2177.505000	2120.130000	1.030984	0.025110	0.004104	0.579575	0.889785	2.440306	4.417320	6.821321	5.279960	4.944240	4.623780	0.877134	0.206970	0.406615	-1.000000	-1.000000	-1.000000	-1.000000	-1.000000	-1.000000	-1.000000	74.965517	0.000000	-1.000000	-1.000000	1402933.000000	1772660694.477600
-27696.510000	-46171.935000	7405.560000	2395.395000	6545.115000	5231.520000	2154.645000	2102.490000	-0.898502	-2.638721	-2.411069	-1.849658	-1.179108	1.078174	4.292191	4.580055	5.279960	4.944240	4.623780	0.877134	0.206970	0.406615	-1.000000	-1.000000	-1.000000	-1.000000	-1.000000	-1.000000	-1.000000	74.965517	0.000000	-1.000000	-1.000000	1402934.000000	1772660694.477607
-27686.520000	-46173.870000	7397.955000	2388.240000	6541.740000	5227.830000	2140.965000	2100.915000	-3.318835	-5.398814	-5.337161	-4.795678	-3.438223	-1.387603	0.639992	-1.751544	5.279960	4.944240	4.623780	0.877134	0.206970	0.406615	-1.000000	-1.000000	-1.000000	-1.000000	-1.000000	-1.000000	-1.000000	74.965517	0.000000	-1.000000	-1.000000	1402935.000000	1772660694.482889
-27681.930000	-46161.270000	7415.460000	2406.060000	6559.695000	5241.105000	2153.565000	2124.675000	-6.026382	-8.679087	-9.250898	-8.723268	-6.592609	-5.971188	-6.601788	-10.359745	5.279960	4.944240	4.623780	0.877134	0.206970	0.406615	-1.000000	-1.000000	-1.000000	-1.000000	-1.000000	-1.000000	-1.000000	74.965517	0.000000	-1.000000	-1.000000	1402936.000000	1772660694.482900
-27688.590000	-46164.555000	7414.650000	2403.810000	6555.510000	5237.955000	2159.505000	2129.220000	-6.963280	-10.011226	-11.004279	-10.681037	-8.311133	-9.658502	-11.911628	-14.051485	5.279960	4.944240	4.623780	0.877134	0.206970	0.406615	-1.000000	-1.000000	-1.000000	-1.000000	-1.000000	-1.000000	-1.000000	74.965517	0.000000	-1.000000	-1.000000	1402937.000000	1772660694.485523
-27709.695000	-46185.345000	7394.445000	2380.590000	6529.905000	5226.030000	2167.020000	2109.060000	-6.164661	-8.696548	-9.270516	-9.498860	-7.850233	-10.349173	-11.234953	-10.411834	5.279960	4.944240	4.623780	0.877134	0.206970	0.406615	-1.000000	-1.000000	-1.000000	-1.000000	-1.000000	-1.000000	-1.000000	74.965517	0.000000	-1.000000	-1.000000	1402938.000000	1772660694.485530
-27701.055000	-46176.210000	7402.050000	2383.830000	6531.345000	5228.460000	2183.535000	2118.510000	-5.275520	-6.343481	-5.859495	-6.947306	-6.822928	-8.620180	-5.572936	-4.182123	5.279960	4.944240	4.623780	0.877134	0.206970	0.406615	-1.000000	-1.000000	-1.000000	-1.000000	-1.000000	-1.000000	-1.000000	74.965517	0.000000	-1.000000	-1.000000	1402939.000000	1772660694.489687
-27699.480000	-46167.570000	7410.555000	2393.730000	6546.105000	5225.130000	2170.845000	2110.635000	-4.171544	-3.048128	-1.634605	-3.567783	-5.038093	-5.067840	1.646679	0.049791	5.279960	4.944240	4.623780	0.877134	0.206970	0.406615	-1.000000	-1.000000	-1.000000	-1.000000	-1.000000	-1.000000	-1.000000	74.965517	0.000000	-1.000000	-1.000000	1402940.000000	1772660694.489698
-27702.090000	-46175.040000	7402.905000	2389.500000	6545.970000	5218.335000	2138.580000	2105.010000	-1.051387	2.316500	3.825608	1.635548	-0.564610	-0.027431	6.620565	2.295726	5.691980	4.516960	4.394880	0.876035	0.206542	0.407164	-1.000000	-1.000000	-1.000000	-1.000000	-1.000000	-1.000000	-1.000000	74.965517	0.000000	-1.000000	-1.000000	1402941.000000	1772660694.493447
-27707.670000	-46176.030000	7407.495000	2398.005000	6556.455000	5236.290000	2155.050000	2097.135000	3.665326	8.109102	8.855363	7.441933	5.731329	4.838783	6.653050	3.592061	5.691980	4.516960	4.394880	0.876035	0.206542	0.407164	-1.000000	-1.000000	-1.000000	-1.000000	-1.000000	-1.000000	-1.000000	74.965517	0.000000	-1.000000	-1.000000	1402942.000000	1772660694.493458
-27698.175000	-46171.485000	7407.945000	2394.720000	6550.785000	5235.795000	2157.885000	2106.270000	6.903452	10.752558	10.627278	10.790528	10.135834	7.761001	3.154390	3.815304	5.691980	4.516960	4.394880	0.876035	0.206542	0.407164	-1.000000	-1.000000	-1.000000	-1.000000	-1.000000	-1.000000	-1.000000	74.965517	0.000000	-1.000000	-1.000000	1402943.000000	1772660694.497655
-27690.210000	-46173.150000	7401.780000	2384.730000	6539.130000	5226.345000	2155.050000	2120.310000	6.858888	8.842496	8.293625	9.872658	9.810114	8.058920	0.222290	3.538279	5.691980	4.516960	4.394880	0.876035	0.206542	0.407164	-1.000000	-1.000000	-1.000000	-1.000000	-1.000000	-1.000000	-1.000000	74.965517	0.000000	-1.000000	-1.000000	1402944.000000	1772660694.497665
-27683.055000	-46167.345000	7407.810000	2391.255000	6547.410000	5236.515000	2171.835000	2140.155000	4.572542	3.814337	3.040171	5.017039	4.759743	5.709956	-0.168134	3.762332	5.691980	4.516960	4.394880	0.876035	0.206542	0.407164	-1.000000	-1.000000	-1.000000	-1.000000	-1.000000	-1.000000	-1.000000	74.965517	0.000000	-1.000000	-1.000000	1402945.000000	1772660694.501642
-27695.250000	-46165.230000	7413.165000	2396.295000	6550.605000	5233.995000	2166.210000	2114.145000	1.920431	-1.615853	-2.701063	-1.288036	-1.918155	1.819554	0.924317	4.045375	5.691980	4.516960	4.394880	0.876035	0.206542	0.407164	-1.000000	-1.000000	-1.000000	-1.000000	-1.000000	-1.000000	-1.000000	74.965517	0.000000	-1.000000	-1.000000	1402946.000000	1772660694.501651
-27697.590000	-46167.930000	7408.260000	2389.545000	6542.145000	5224.185000	2155.005000	2108.025000	-0.222155	-4.920543	-6.132180	-5.546757	-6.074494	-1.769544	1.095073	2.603466	5.691980	4.516960	4.394880	0.876035	0.206542	0.407164	-1.000000	-1.000000	-1.000000	-1.000000	-1.000000	-1.000000	-1.000000	74.965517	0.000000	-1.000000	-1.000000	1402947.000000	1772660694.505564
-27642.915000	-46123.785000	7451.280000	2431.935000	6581.295000	5259.780000	2185.560000	2182.950000	-1.229196	-4.753811	-5.605771	-5.563551	-5.546558	-3.449478	-0.748855	-0.284535	5.691980	4.516960	4.394880	0.876035	0.206542	0.407164	-1.000000	-1.000000	-1.000000	-1.000000	-1.000000	-1.000000	-1.000000	74.965517	0.000000	-1.000000	-1.000000	1402948.000000	1772660694.505574
-27628.740000	-46104.750000	7474.770000	2457.360000	6606.045000	5280.615000	2198.835000	2196.810000	0.337052	-0.880534	-0.972251	-1.120878	-0.666337	-1.726403	-2.043909	-0.610608	5.691980	4.516960	4.394880	0.876035	0.206542	0.407164	-1.000000	-1.000000	-1.000000	-1.000000	-1.000000	-1.000000	-1.000000	74.965517	0.000000	-1.000000	-1.000000	1402949.000000	1772660694.509399
-27682.380000	-46145.295000	7436.430000	2420.685000	6574.320000	5255.415000	2184.705000	2113.470000	3.347855	4.311927	5.091316	4.880491	5.318071	2.465296	-0.103012	2.164768	5.691980	4.516960	4.394880	0.876035	0.206542	0.407164	-1.000000	-1.000000	-1.000000	-1.000000	-1.000000	-1.000000	-1.000000	74.965517	0.000000	-1.000000	-1.000000	1402950.000000	1772660694.509411
-27714.870000	-46176.795000	7401.960000	2384.325000	6536.160000	5216.805000	2149.380000	2066.985000	2.427550	5.276584	6.646110	6.300958	6.505923	3.994097	2.620593	1.193884	2.136400	4.761120	4.120200	0.877500	0.209228	0.405517	-1.000000	-1.000000	-1.000000	-1.000000	-1.000000	-1.000000	-1.000000	74.965517	0.000000	-1.000000	-1.000000	1402951.000000	1772660694.516719
-27722.970000	-46190.700000	7390.350000	2373.660000	6528.285000	5214.780000	2149.110000	2074.680000	-5.238043	-1.066788	0.353109	-0.144127	0.025617	-0.865508	1.583666	-7.397099	2.136400	4.761120	4.120200	0.877500	0.209228	0.405517	-1.000000	-1.000000	-1.000000	-1.000000	-1.000000	-1.000000	-1.000000	74.965517	0.000000	-1.000000	-1.000000	1402952.000000	1772660694.516730
-27709.290000	-46181.115000	7399.530000	2383.560000	6540.120000	5227.470000	2163.420000	2096.145000	-14.720738	-10.618570	-9.532834	-9.922517	-9.420948	-8.638710	-3.023866	-17.236922	2.136400	4.761120	4.120200	0.877500	0.209228	0.405517	-1.000000	-1.000000	-1.000000	-1.000000	-1.000000	-1.000000	-1.000000	74.965517	0.000000	-1.000000	-1.000000	1402953.000000	1772660694.522942
-27702.810000	-46167.210000	7414.920000	2398.680000	6554.025000	5236.560000	2167.965000	2105.235000	-17.803535	-15.585816	-15.015259	-14.959115	-13.937142	-12.257897	-6.780957	-18.858644	2.136400	4.761120	4.120200	0.877500	0.209228	0.405517	-1.000000	-1.000000	-1.000000	-1.000000	-1.000000	-1.000000	-1.000000	74.965517	0.000000	-1.000000	-1.000000	1402954.000000	1772660694.522951
-27700.155000	-46162.665000	7420.230000	2403.315000	6555.105000	5231.070000	2156.220000	2103.030000	-10.550231	-11.384172	-11.486886	-10.956411	-9.692875	-8.360131	-6.576401	-8.957149	2.136400	4.761120	4.120200	0.877500	0.209228	0.405517	-1.000000	-1.000000	-1.000000	-1.000000	-1.000000	-1.000000	-1.000000	74.965517	0.000000	-1.000000	-1.000000	1402955.000000	1772660694.522960
-27670.860000	-46135.890000	7447.230000	2429.820000	6580.620000	5255.415000	2183.445000	2143.305000	3.586250	0.012848	-0.743867	-0.036773	0.850356	0.731263	-2.709377	7.464365	2.136400	4.761120	4.120200	0.877500	0.209228	0.405517	-1.000000	-1.000000	-1.000000	-1.000000	-1.000000	-1.000000	-1.000000	74.965517	0.000000	-1.000000	-1.000000	1402956.000000	1772660694.522964
-27618.975000	-46101.915000	7474.230000	2455.155000	6606.450000	5282.145000	2214.585000	2215.350000	17.001842	12.178008	10.983525	11.455750	11.509304	9.925456	2.969844	21.734592	2.136400	4.761120	4.120200	0.877500	0.209228	0.405517	-1.000000	-1.000000	-1.000000	-1.000000	-1.000000	-1.000000	-1.000000	74.965517	0.000000	-1.000000	-1.000000	1402957.000000	1772660694.526595
-27682.920000	-46161.135000	7417.845000	2399.535000	6549.975000	5224.680000	2158.560000	2132.235000	22.984972	18.340533	16.818863	16.668565	15.859241	14.038494	7.682668	27.122341	2.136400	4.761120	4.120200	0.877500	0.209228	0.405517	-1.000000	-1.000000	-1.000000	-1.000000	-1.000000	-1.000000	-1.000000	74.965517	0.000000	-1.000000	-1.000000	1402958.000000	1772660694.526603
-27732.420000	-46199.520000	7383.645000	2368.305000	6520.050000	5202.720000	2140.470000	2074.050000	18.037603	14.609127	12.956642	12.074365	10.659638	9.953733	7.811602	20.489458	2.136400	4.761120	4.120200	0.877500	0.209228	0.405517	-1.000000	-1.000000	-1.000000	-1.000000	-1.000000	-1.000000	-1.000000	74.965517	0.000000	-1.000000	-1.000000	1402959.000000	1772660694.529474
-27733.455000	-46197.630000	7384.950000	2372.805000	6529.095000	5217.075000	2152.845000	2072.970000	4.159069	3.182779	2.076699	0.935006	-0.582484	0.358983	3.049064	4.253244	2.136400	4.761120	4.120200	0.877500	0.209228	0.405517	-1.000000	-1.000000	-1.000000	-1.000000	-1.000000	-1.000000	-1.000000	74.965517	0.000000	-1.000000	-1.000000	1402960.000000	1772660694.529482
-27716.670000	-46183.860000	7394.985000	2382.075000	6538.185000	5220.000000	2156.310000	2098.170000	-10.616154	-8.113833	-7.997350	-8.585015	-9.512289	-7.425395	-2.212137	-13.006982	0.991900	5.524120	4.364360	0.876890	0.208862	0.406310	-1.000000	-1.000000	-1.000000	-1.000000	-1.000000	-1.000000	-1.000000	74.965517	0.000000	-1.000000	-1.000000	1402961.000000	1772660694.533527
-27692.640000	-46162.620000	7414.425000	2399.490000	6551.415000	5230.980000	2167.920000	2122.830000	-17.723241	-12.263098	-11.054321	-10.700699	-10.687208	-8.814717	-4.336970	-22.183937	0.991900	5.524120	4.364360	0.876890	0.208862	0.406310	-1.000000	-1.000000	-1.000000	-1.000000	-1.000000	-1.000000	-1.000000	74.965517	0.000000	-1.000000	-1.000000	1402962.000000	1772660694.533531
-27696.870000	-46165.365000	7412.310000	2396.295000	6547.455000	5229.270000	2167.200000	2116.980000	-14.251813	-8.310400	-6.867071	-5.970081	-5.330941	-4.861029	-3.200242	-19.647606	0.991900	5.524120	4.364360	0.876890	0.208862	0.406310	-1.000000	-1.000000	-1.000000	-1.000000	-1.000000	-1.000000	-1.000000	74.965517	0.000000	-1.000000	-1.000000	1402963.000000	1772660694.537476
-27702.270000	-46173.330000	7402.455000	2385.360000	6533.235000	5211.045000	2155.905000	2116.755000	-4.330093	-0.878440	-0.019368	0.690941	1.405256	0.482056	-0.610751	-8.867303	0.991900	5.524120	4.364360	0.876890	0.208862	0.406310	-1.000000	-1.000000	-1.000000	-1.000000	-1.000000	-1.000000	-1.000000	74.965517	0.000000	-1.000000	-1.000000	1402964.000000	1772660694.537483
-27699.165000	-46171.395000	7405.920000	2389.455000	6535.980000	5211.180000	2154.285000	2117.430000	4.081316	3.764435	3.849933	3.943569	4.387312	2.922523	0.620060	1.763409	0.991900	5.524120	4.364360	0.876890	0.208862	0.406310	-1.000000	-1.000000	-1.000000	-1.000000	-1.000000	-1.000000	-1.000000	74.965517	0.000000	-1.000000	-1.000000	1402965.000000	1772660694.541496
-27706.320000	-46178.640000	7401.195000	2388.240000	6542.730000	5222.790000	2160.045000	2111.310000	5.563391	2.683365	2.497873	2.099927	2.277381	1.128169	-0.914575	5.387532	0.991900	5.524120	4.364360	0.876890	0.208862	0.406310	-1.000000	-1.000000	-1.000000	-1.000000	-1.000000	-1.000000	-1.000000	74.965517	0.000000	-1.000000	-1.000000	1402966.000000	1772660694.541503
-27702.900000	-46166.940000	7413.840000	2401.290000	6557.985000	5238.495000	2168.595000	2116.935000	2.521284	-0.591436	-0.405138	-0.835032	-0.539895	-0.862015	-2.304803	3.998232	0.991900	5.524120	4.364360	0.876890	0.208862	0.406310	-1.000000	-1.000000	-1.000000	-1.000000	-1.000000	-1.000000	-1.000000	74.965517	0.000000	-1.000000	-1.000000	1402967.000000	1772660694.551756
-27704.880000	-46156.140000	7424.640000	2410.920000	6566.355000	5247.315000	2166.975000	2105.820000	1.835646	0.181273	0.835123	0.655023	1.378957	1.752992	0.231080	5.165296	0.991900	5.524120	4.364360	0.876890	0.208862	0.406310	-1.000000	-1.000000	-1.000000	-1.000000	-1.000000	-1.000000	-1.000000	74.965517	0.000000	-1.000000	-1.000000	1402968.000000	1772660694.551764
-27704.430000	-46148.310000	7439.085000	2429.055000	6583.365000	5259.870000	2166.615000	2101.320000	5.479234	5.949368	6.733063	6.715676	7.528766	7.820248	5.400635	10.187144	0.991900	5.524120	4.364360	0.876890	0.208862	0.406310	-1.000000	-1.000000	-1.000000	-1.000000	-1.000000	-1.000000	-1.000000	74.965517	0.000000	-1.000000	-1.000000	1402969.000000	1772660694.551772
-27689.670000	-46145.520000	7444.260000	2433.195000	6582.420000	5256.495000	2165.895000	2111.040000	8.712883	10.988139	11.766750	11.789443	11.901914	11.414789	8.128891	12.511522	0.991900	5.524120	4.364360	0.876890	0.208862	0.406310	-1.000000	-1.000000	-1.000000	-1.000000	-1.000000	-1.000000	-1.000000	74.965517	0.000000	-1.000000	-1.000000	1402970.000000	1772660694.551776
-27678.465000	-46140.840000	7444.170000	2428.020000	6573.825000	5249.835000	2174.985000	2142.225000	7.124092	9.512934	10.281816	10.322456	9.245316	8.114250	5.527348	7.847384	0.473060	5.630940	3.341940	0.872495	0.207031	0.407897	-1.000000	-1.000000	-1.000000	-1.000000	-1.000000	-1.000000	-1.000000	74.965517	0.000000	-1.000000	-1.000000	1402971.000000	1772660694.557443
-27654.390000	-46120.995000	7460.145000	2442.465000	6586.065000	5260.995000	2195.235000	2182.860000	1.592849	1.724782	2.023255	1.958986	-0.016977	-0.909049	-0.217856	-0.094671	0.473060	5.630940	3.341940	0.872495	0.207031	0.407897	-1.000000	-1.000000	-1.000000	-1.000000	-1.000000	-1.000000	-1.000000	74.965517	0.000000	-1.000000	-1.000000	1402972.000000	1772660694.557453
-27703.845000	-46169.505000	7415.820000	2402.145000	6546.735000	5230.260000	2181.330000	2138.760000	-4.551686	-7.686853	-8.503400	-8.756811	-10.660069	-10.315840	-4.759398	-5.767186	0.473060	5.630940	3.341940	0.872495	0.207031	0.407897	-1.000000	-1.000000	-1.000000	-1.000000	-1.000000	-1.000000	-1.000000	74.965517	0.000000	-1.000000	-1.000000	1402973.000000	1772660694.557625
-27735.030000	-46207.890000	7369.020000	2357.550000	6511.320000	5203.035000	2169.135000	2102.580000	-10.585808	-15.584865	-17.569632	-17.765601	-18.439331	-16.239051	-6.610904	-9.595965	0.473060	5.630940	3.341940	0.872495	0.207031	0.407897	-1.000000	-1.000000	-1.000000	-1.000000	-1.000000	-1.000000	-1.000000	74.965517	0.000000	-1.000000	-1.000000	1402974.000000	1772660694.557633
-27707.715000	-46192.095000	7372.935000	2359.620000	6515.325000	5193.945000	2140.020000	2096.955000	-15.513190	-19.970621	-22.777587	-22.616566	-21.422056	-17.829714	-7.230960	-13.734446	0.473060	5.630940	3.341940	0.872495	0.207031	0.407897	-1.000000	-1.000000	-1.000000	-1.000000	-1.000000	-1.000000	-1.000000	74.965517	0.000000	-1.000000	-1.000000	1402975.000000	1772660694.561622
-27713.340000	-46189.935000	7376.715000	2361.780000	6517.395000	5198.580000	2144.610000	2109.825000	-14.564954	-17.101308	-20.395414	-19.998538	-17.384983	-14.389051	-7.364660	-14.929663	0.473060	5.630940	3.341940	0.872495	0.207031	0.407897	-1.000000	-1.000000	-1.000000	-1.000000	-1.000000	-1.000000	-1.000000	74.965517	0.000000	-1.000000	-1.000000	1402976.000000	1772660694.561630
-27713.385000	-46181.115000	7392.465000	2378.520000	6533.460000	5217.615000	2164.860000	2122.650000	-5.547996	-5.924235	-8.838725	-8.629405	-5.938696	-5.630793	-5.619479	-8.678644	0.473060	5.630940	3.341940	0.872495	0.207031	0.407897	-1.000000	-1.000000	-1.000000	-1.000000	-1.000000	-1.000000	-1.000000	74.965517	0.000000	-1.000000	-1.000000	1402977.000000	1772660694.565535
-27687.510000	-46161.090000	7418.880000	2407.905000	6561.540000	5237.460000	2168.370000	2138.355000	6.926963	8.716282	7.760085	7.565316	9.003516	6.311021	-0.652398	3.570764	0.473060	5.630940	3.341940	0.872495	0.207031	0.407897	-1.000000	-1.000000	-1.000000	-1.000000	-1.000000	-1.000000	-1.000000	74.965517	0.000000	-1.000000	-1.000000	1402978.000000	1772660694.565544
-27650.655000	-46134.945000	7440.705000	2427.660000	6577.380000	5248.305000	2172.735000	2180.970000	16.461021	20.130489	22.254864	21.896511	21.559481	17.218240	5.937834	15.252198	0.473060	5.630940	3.341940	0.872495	0.207031	0.407897	-1.000000	-1.000000	-1.000000	-1.000000	-1.000000	-1.000000	-1.000000	74.965517	0.000000	-1.000000	-1.000000	1402979.000000	1772660694.569604
-27639.090000	-46128.780000	7440.795000	2424.555000	6572.970000	5249.745000	2193.255000	2203.470000	19.383385	23.863457	28.518269	28.433743	26.740865	22.608944	10.526891	20.310719	0.473060	5.630940	3.341940	0.872495	0.207031	0.407897	-1.000000	-1.000000	-1.000000	-1.000000	-1.000000	-1.000000	-1.000000	74.965517	0.000000	-1.000000	-1.000000	1402980.000000	1772660694.569611
-27704.925000	-46184.040000	7394.085000	2382.840000	6533.370000	5212.980000	2160.135000	2097.495000	14.247240	18.168047	23.402808	23.816975	21.758964	19.529705	10.431918	15.194451	1.922760	7.691040	2.777320	0.872739	0.206603	0.406737	-1.000000	-1.000000	-1.000000	-1.000000	-1.000000	-1.000000	-1.000000	74.965517	0.000000	-1.000000	-1.000000	1402981.000000	1772660694.577650
-27709.020000	-46187.370000	7389.315000	2377.575000	6526.350000	5205.285000	2147.445000	2087.505000	2.133934	4.899683	8.796660	9.580869	8.097527	8.580800	5.104222	0.048976	1.922760	7.691040	2.777320	0.872739	0.206603	0.406737	-1.000000	-1.000000	-1.000000	-1.000000	-1.000000	-1.000000	-1.000000	74.965517	0.000000	-1.000000	-1.000000	1402982.000000	1772660694.577657
-27718.695000	-46186.740000	7385.040000	2368.665000	6517.845000	5199.570000	2141.010000	2071.035000	-11.147783	-9.116051	-7.490395	-6.832909	-7.525060	-4.941238	-2.823924	-17.220888	1.922760	7.691040	2.777320	0.872739	0.206603	0.406737	-1.000000	-1.000000	-1.000000	-1.000000	-1.000000	-1.000000	-1.000000	74.965517	0.000000	-1.000000	-1.000000	1402983.000000	1772660694.577666
-27718.515000	-46189.080000	7384.185000	2368.755000	6519.960000	5199.660000	2148.255000	2082.690000	-18.402963	-16.524514	-17.083193	-17.165741	-17.510560	-14.197058	-8.164501	-24.929997	1.922760	7.691040	2.777320	0.872739	0.206603	0.406737	-1.000000	-1.000000	-1.000000	-1.000000	-1.000000	-1.000000	-1.000000	74.965517	0.000000	-1.000000	-1.000000	1402984.000000	1772660694.577670
-27688.365000	-46164.510000	7413.615000	2402.505000	6555.735000	5232.420000	2171.115000	2128.095000	-16.281521	-15.140108	-17.113180	-18.002148	-18.267312	-15.522049	-7.406129	-17.684565	1.922760	7.691040	2.777320	0.872739	0.206603	0.406737	-1.000000	-1.000000	-1.000000	-1.000000	-1.000000	-1.000000	-1.000000	74.965517	0.000000	-1.000000	-1.000000	1402985.000000	1772660694.587422
-27698.580000	-46176.885000	7400.700000	2389.770000	6543.945000	5231.925000	2176.470000	2122.290000	-6.393470	-7.802101	-10.352139	-11.395094	-11.296282	-9.931909	-1.743838	0.135300	1.922760	7.691040	2.777320	0.872739	0.206603	0.406737	-1.000000	-1.000000	-1.000000	-1.000000	-1.000000	-1.000000	-1.000000	74.965517	0.000000	-1.000000	-1.000000	1402986.000000	1772660694.587433
-27733.860000	-46205.595000	7375.905000	2366.145000	6518.205000	5206.995000	2162.205000	2083.455000	4.322426	-0.416076	-3.050063	-3.540258	-2.679527	-2.411406	4.151560	16.693006	1.922760	7.691040	2.777320	0.872739	0.206603	0.406737	-1.000000	-1.000000	-1.000000	-1.000000	-1.000000	-1.000000	-1.000000	74.965517	0.000000	-1.000000	-1.000000	1402987.000000	1772660694.587444
-27707.580000	-46168.920000	7408.260000	2403.270000	6554.700000	5226.930000	2162.835000	2109.465000	8.026174	2.122995	-0.159921	0.246531	1.881576	1.856096	5.767252	20.531832	1.922760	7.691040	2.777320	0.872739	0.206603	0.406737	-1.000000	-1.000000	-1.000000	-1.000000	-1.000000	-1.000000	-1.000000	74.965517	0.000000	-1.000000	-1.000000	1402988.000000	1772660694.587448
-27693.180000	-46142.910000	7408.845000	2397.780000	6547.590000	5221.170000	2154.015000	2106.990000	4.741355	1.468253	-0.254636	0.997654	2.905984	2.378653	2.158221	11.209877	1.922760	7.691040	2.777320	0.872739	0.206603	0.406737	-1.000000	-1.000000	-1.000000	-1.000000	-1.000000	-1.000000	-1.000000	74.965517	0.000000	-1.000000	-1.000000	1402989.000000	1772660694.589629
-27695.745000	-46155.240000	7379.370000	2364.975000	6516.675000	5200.605000	2150.955000	2101.545000	1.846065	3.197143	1.133605	2.483109	3.885031	2.128695	-3.294080	-0.580244	1.922760	7.691040	2.777320	0.872739	0.206603	0.406737	-1.000000	-1.000000	-1.000000	-1.000000	-1.000000	-1.000000	-1.000000	74.965517	0.000000	-1.000000	-1.000000	1402990.000000	1772660694.589638
-27697.410000	-46155.465000	7395.885000	2393.505000	6546.510000	5224.410000	2151.675000	2087.235000	4.093401	8.382062	5.069595	5.506378	5.810281	3.124099	-5.858521	-5.078536	-1.251320	8.606640	2.960440	0.873472	0.209350	0.403014	-1.000000	-1.000000	-1.000000	-1.000000	-1.000000	-1.000000	-1.000000	74.965517	0.000000	-1.000000	-1.000000	1402991.000000	1772660694.593678
-27696.555000	-46169.415000	7422.030000	2415.285000	6565.545000	5242.050000	2156.220000	2087.460000	8.783598	12.134916	9.590507	9.035694	8.115653	5.613978	-3.526669	-2.015894	-1.251320	8.606640	2.960440	0.873472	0.209350	0.403014	-1.000000	-1.000000	-1.000000	-1.000000	-1.000000	-1.000000	-1.000000	74.965517	0.000000	-1.000000	-1.000000	1402992.000000	1772660694.593685
-27690.480000	-46172.835000	7429.185000	2414.070000	6562.395000	5243.625000	2173.680000	2131.020000	10.367915	9.569250	12.261699	11.307997	9.399957	8.098977	1.799594	3.004179	-1.251320	8.606640	2.960440	0.873472	0.209350	0.403014	-1.000000	-1.000000	-1.000000	-1.000000	-1.000000	-1.000000	-1.000000	74.965517	0.000000	-1.000000	-1.000000	1402993.000000	1772660694.597517
-27643.500000	-46135.755000	7445.925000	2432.025000	6579.855000	5261.220000	2203.020000	2210.175000	6.701056	1.133955	10.687265	9.473478	7.066207	7.515926	6.507230	6.225164	-1.251320	8.606640	2.960440	0.873472	0.209350	0.403014	-1.000000	-1.000000	-1.000000	-1.000000	-1.000000	-1.000000	-1.000000	74.965517	0.000000	-1.000000	-1.000000	1402994.000000	1772660694.597524
-27664.875000	-46146.330000	7434.585000	2423.250000	6571.710000	5249.835000	2185.335000	2162.430000	0.333348	-7.507472	4.345740	2.796242	0.657610	2.527894	7.931764	7.089320	-1.251320	8.606640	2.960440	0.873472	0.209350	0.403014	-1.000000	-1.000000	-1.000000	-1.000000	-1.000000	-1.000000	-1.000000	74.965517	0.000000	-1.000000	-1.000000	1402995.000000	1772660694.603077
-27722.340000	-46191.735000	7390.620000	2380.410000	6528.375000	5206.275000	2142.000000	2081.070000	-6.369502	-11.963190	-4.979610	-6.402438	-7.371334	-5.153919	4.669578	3.164755	-1.251320	8.606640	2.960440	0.873472	0.209350	0.403014	-1.000000	-1.000000	-1.000000	-1.000000	-1.000000	-1.000000	-1.000000	74.965517	0.000000	-1.000000	-1.000000	1402996.000000	1772660694.603082
-27716.175000	-46182.870000	7396.605000	2383.650000	6528.690000	5207.670000	2148.345000	2082.330000	-13.644053	-13.229459	-14.838906	-15.385052	-14.662487	-12.865666	-2.908241	-8.536407	-1.251320	8.606640	2.960440	0.873472	0.209350	0.403014	-1.000000	-1.000000	-1.000000	-1.000000	-1.000000	-1.000000	-1.000000	74.965517	0.000000	-1.000000	-1.000000	1402997.000000	1772660694.605673
-27714.960000	-46179.000000	7401.600000	2389.725000	6535.350000	5215.590000	2168.235000	2097.810000	-19.292929	-12.599075	-20.765146	-20.036292	-17.945513	-16.692480	-10.309355	-22.355573	-1.251320	8.606640	2.960440	0.873472	0.209350	0.403014	-1.000000	-1.000000	-1.000000	-1.000000	-1.000000	-1.000000	-1.000000	74.965517	0.000000	-1.000000	-1.000000	1402998.000000	1772660694.605681
-27710.055000	-46184.400000	7393.185000	2380.995000	6525.945000	5199.390000	2145.960000	2103.570000	-17.914319	-8.263712	-17.584458	-15.795599	-13.358417	-12.898201	-11.693178	-26.028630	-1.251320	8.606640	2.960440	0.873472	0.209350	0.403014	-1.000000	-1.000000	-1.000000	-1.000000	-1.000000	-1.000000	-1.000000	74.965517	0.000000	-1.000000	-1.000000	1402999.000000	1772660694.613525
-27704.880000	-46177.920000	7400.250000	2389.140000	6536.610000	5209.065000	2142.450000	2105.865000	-7.642336	0.381892	-5.879401	-3.837124	-2.119085	-2.953232	-6.458848	-14.273308	-1.251320	8.606640	2.960440	0.873472	0.209350	0.403014	-1.000000	-1.000000	-1.000000	-1.000000	-1.000000	-1.000000	-1.000000	74.965517	0.000000	-1.000000	-1.000000	1403000.000000	1772660694.613532
-27682.965000	-46158.480000	7416.945000	2405.430000	6556.005000	5233.410000	2167.155000	2132.190000	7.128485	10.494755	7.540896	8.959857	9.538478	7.549202	1.257313	6.111466	-3.204600	7.156940	1.785420	0.870298	0.206665	0.406066	-1.000000	-1.000000	-1.000000	-1.000000	-1.000000	-1.000000	-1.000000	74.965517	0.000000	-1.000000	-1.000000	1403001.000000	1772660694.613675
-27641.025000	-46122.210000	7447.455000	2432.655000	6580.170000	5255.865000	2174.445000	2160.270000	19.475877	18.087273	16.203473	16.707210	16.471072	14.349943	7.308258	22.629669	-3.204600	7.156940	1.785420	0.870298	0.206665	0.406066	-1.000000	-1.000000	-1.000000	-1.000000	-1.000000	-1.000000	-1.000000	74.965517	0.000000	-1.000000	-1.000000	1403002.000000	1772660694.613682
-27637.695000	-46110.375000	7461.000000	2445.750000	6593.085000	5269.185000	2185.200000	2155.680000	23.992756	19.906037	17.972647	17.711665	17.131289	15.910986	9.213839	25.937758	-3.204600	7.156940	1.785420	0.870298	0.206665	0.406066	-1.000000	-1.000000	-1.000000	-1.000000	-1.000000	-1.000000	-1.000000	74.965517	0.000000	-1.000000	-1.000000	1403003.000000	1772660694.617729
-27706.905000	-46163.070000	7416.810000	2406.555000	6556.500000	5234.895000	2172.600000	2088.945000	18.549463	14.402809	13.773966	12.968938	12.298511	12.412882	7.185143	15.853630	-3.204600	7.156940	1.785420	0.870298	0.206665	0.406066	-1.000000	-1.000000	-1.000000	-1.000000	-1.000000	-1.000000	-1.000000	74.965517	0.000000	-1.000000	-1.000000	1403004.000000	1772660694.617739
-27709.560000	-46175.220000	7398.720000	2387.205000	6534.855000	5213.745000	2171.475000	2109.510000	5.094958	2.590232	5.193805	4.206808	3.636448	5.041804	3.764799	0.412612	-3.204600	7.156940	1.785420	0.870298	0.206665	0.406066	-1.000000	-1.000000	-1.000000	-1.000000	-1.000000	-1.000000	-1.000000	74.965517	0.000000	-1.000000	-1.000000	1403005.000000	1772660694.623122
-27706.590000	-46177.020000	7393.455000	2378.835000	6525.405000	5203.080000	2169.540000	2118.420000	-10.121513	-11.295916	-5.284773	-6.026570	-6.370682	-4.176551	0.729395	-10.698166	-3.204600	7.156940	1.785420	0.870298	0.206665	0.406066	-1.000000	-1.000000	-1.000000	-1.000000	-1.000000	-1.000000	-1.000000	74.965517	0.000000	-1.000000	-1.000000	1403006.000000	1772660694.623130
-27721.170000	-46175.715000	7401.105000	2390.670000	6539.265000	5216.940000	2163.555000	2078.550000	-19.671727	-20.781609	-13.200910	-13.478298	-13.648334	-11.671618	-1.973047	-13.240238	-3.204600	7.156940	1.785420	0.870298	0.206665	0.406066	-1.000000	-1.000000	-1.000000	-1.000000	-1.000000	-1.000000	-1.000000	74.965517	0.000000	-1.000000	-1.000000	1403007.000000	1772660694.625670
-27708.165000	-46174.365000	7397.820000	2386.890000	6538.365000	5225.220000	2177.595000	2107.395000	-19.787488	-20.976346	-14.430488	-14.276457	-14.373782	-13.405644	-3.984349	-9.646434	-3.204600	7.156940	1.785420	0.870298	0.206665	0.406066	-1.000000	-1.000000	-1.000000	-1.000000	-1.000000	-1.000000	-1.000000	74.965517	0.000000	-1.000000	-1.000000	1403008.000000	1772660694.625678
-27684.090000	-46157.355000	7415.640000	2403.135000	6553.080000	5227.560000	2167.560000	2137.905000	-11.441429	-12.041330	-8.929069	-8.585042	-8.667541	-8.719108	-4.227036	-3.262588	-3.204600	7.156940	1.785420	0.870298	0.206665	0.406066	-1.000000	-1.000000	-1.000000	-1.000000	-1.000000	-1.000000	-1.000000	74.965517	0.000000	-1.000000	-1.000000	1403009.000000	1772660694.629710
-27700.830000	-46169.010000	7406.820000	2394.360000	6543.765000	5213.520000	2146.365000	2108.520000	0.451502	0.666934	-0.885300	-0.635209	-0.814061	-1.868430	-3.719720	2.977386	-3.204600	7.156940	1.785420	0.870298	0.206665	0.406066	-1.000000	-1.000000	-1.000000	-1.000000	-1.000000	-1.000000	-1.000000	74.965517	0.000000	-1.000000	-1.000000	1403010.000000	1772660694.629717
-27668.340000	-46141.020000	7433.595000	2417.940000	6563.745000	5235.975000	2179.485000	2157.030000	8.916161	9.901488	4.723002	4.779715	4.383422	2.106808	-4.402659	5.028154	-1.907500	5.997180	-0.137340	0.868345	0.199768	0.409911	-1.000000	-1.000000	-1.000000	-1.000000	-1.000000	-1.000000	-1.000000	74.965517	0.000000	-1.000000	-1.000000	1403011.000000	1772660694.635039
-27645.255000	-46116.585000	7456.455000	2440.485000	6589.080000	5263.470000	2205.360000	2177.235000	11.347411	12.713581	6.636481	6.477795	5.908545	2.927277	-4.586896	3.448126	-1.907500	5.997180	-0.137340	0.868345	0.199768	0.409911	-1.000000	-1.000000	-1.000000	-1.000000	-1.000000	-1.000000	-1.000000	74.965517	0.000000	-1.000000	-1.000000	1403012.000000	1772660694.635046
-27734.670000	-46204.965000	7363.845000	2350.035000	6505.920000	5188.635000	2142.135000	2064.645000	10.492890	11.196317	6.580011	6.140031	5.763768	3.568875	-1.647630	2.524254	-1.907500	5.997180	-0.137340	0.868345	0.199768	0.409911	-1.000000	-1.000000	-1.000000	-1.000000	-1.000000	-1.000000	-1.000000	74.965517	0.000000	-1.000000	-1.000000	1403013.000000	1772660694.637553
-27713.745000	-46178.505000	7393.590000	2381.625000	6533.055000	5211.000000	2155.725000	2096.820000	7.302745	6.739745	4.633193	4.079207	4.456698	4.458573	2.428960	1.464800	-1.907500	5.997180	-0.137340	0.868345	0.199768	0.409911	-1.000000	-1.000000	-1.000000	-1.000000	-1.000000	-1.000000	-1.000000	74.965517	0.000000	-1.000000	-1.000000	1403014.000000	1772660694.637561
-27666.450000	-46140.120000	7428.555000	2416.140000	6568.245000	5247.720000	2190.285000	2152.620000	2.204762	1.017479	1.557784	1.379842	2.630060	4.938918	4.849690	-1.010309	-1.907500	5.997180	-0.137340	0.868345	0.199768	0.409911	-1.000000	-1.000000	-1.000000	-1.000000	-1.000000	-1.000000	-1.000000	74.965517	0.000000	-1.000000	-1.000000	1403015.000000	1772660694.641663
-27620.730000	-46108.170000	7437.015000	2422.260000	6578.595000	5252.670000	2199.915000	2223.495000	-0.427981	-1.545348	0.654823	1.097556	2.608820	5.826399	6.427782	0.095257	-1.907500	5.997180	-0.137340	0.868345	0.199768	0.409911	-1.000000	-1.000000	-1.000000	-1.000000	-1.000000	-1.000000	-1.000000	74.965517	0.000000	-1.000000	-1.000000	1403016.000000	1772660694.641670
-27706.860000	-46159.335000	7382.790000	2375.010000	6538.905000	5215.725000	2157.795000	2096.865000	0.625731	0.040406	1.662323	2.439996	3.507852	5.753102	7.247942	5.559554	-1.907500	5.997180	-0.137340	0.868345	0.199768	0.409911	-1.000000	-1.000000	-1.000000	-1.000000	-1.000000	-1.000000	-1.000000	74.965517	0.000000	-1.000000	-1.000000	1403017.000000	1772660694.646934
-27784.890000	-46224.990000	7319.205000	2316.555000	6483.330000	5169.510000	2117.520000	1992.420000	-1.746830	-0.160189	-0.855864	0.038210	0.510220	0.994980	4.218369	4.458383	-1.907500	5.997180	-0.137340	0.868345	0.199768	0.409911	-1.000000	-1.000000	-1.000000	-1.000000	-1.000000	-1.000000	-1.000000	74.965517	0.000000	-1.000000	-1.000000	1403018.000000	1772660694.646943
-27729.990000	-46204.290000	7355.655000	2350.080000	6510.195000	5195.295000	2149.605000	2064.150000	-11.871415	-6.939241	-9.182655	-8.075229	-8.017027	-8.417031	-3.320724	-9.691955	-1.907500	5.997180	-0.137340	0.868345	0.199768	0.409911	-1.000000	-1.000000	-1.000000	-1.000000	-1.000000	-1.000000	-1.000000	74.965517	0.000000	-1.000000	-1.000000	1403019.000000	1772660694.649724
-27726.615000	-46211.400000	7386.705000	2370.960000	6523.695000	5208.885000	2163.645000	2080.530000	-21.926594	-16.287732	-16.728597	-15.689786	-16.199900	-16.323021	-10.473435	-25.308478	-1.907500	5.997180	-0.137340	0.868345	0.199768	0.409911	-1.000000	-1.000000	-1.000000	-1.000000	-1.000000	-1.000000	-1.000000	74.965517	0.000000	-1.000000	-1.000000	1403020.000000	1772660694.649732
-27719.145000	-46192.680000	7394.535000	2374.425000	6523.470000	5208.210000	2171.835000	2087.505000	-20.688083	-19.085431	-14.372600	-14.416033	-16.085840	-15.908192	-11.527872	-25.726876	0.473060	3.753960	-1.800680	0.868223	0.198059	0.410827	-1.000000	-1.000000	-1.000000	-1.000000	-1.000000	-1.000000	-1.000000	74.965517	0.000000	-1.000000	-1.000000	1403021.000000	1772660694.656304
-27696.960000	-46165.455000	7411.185000	2393.370000	6541.650000	5216.130000	2163.870000	2098.080000	-4.853802	-9.087317	0.186703	-1.776023	-4.875940	-5.388659	-4.820577	-6.462671	0.473060	3.753960	-1.800680	0.868223	0.198059	0.410827	-1.000000	-1.000000	-1.000000	-1.000000	-1.000000	-1.000000	-1.000000	74.965517	0.000000	-1.000000	-1.000000	1403022.000000	1772660694.656312
-27696.735000	-46162.710000	7413.975000	2397.735000	6545.880000	5214.600000	2143.530000	2097.675000	17.745841	10.377933	19.107265	15.744236	12.078265	9.883664	5.257283	21.079056	0.473060	3.753960	-1.800680	0.868223	0.198059	0.410827	-1.000000	-1.000000	-1.000000	-1.000000	-1.000000	-1.000000	-1.000000	74.965517	0.000000	-1.000000	-1.000000	1403023.000000	1772660694.657497
-27716.220000	-46181.970000	7398.675000	2388.150000	6544.935000	5221.080000	2160.135000	2093.580000	31.958183	26.065991	28.990759	26.047830	23.640679	19.955381	10.929604	37.685451	0.473060	3.753960	-1.800680	0.868223	0.198059	0.410827	-1.000000	-1.000000	-1.000000	-1.000000	-1.000000	-1.000000	-1.000000	74.965517	0.000000	-1.000000	-1.000000	1403024.000000	1772660694.657504
-27709.515000	-46181.205000	7398.180000	2388.870000	6544.845000	5220.180000	2157.075000	2100.060000	27.766931	26.477964	22.436146	21.754303	22.120783	18.697956	8.939227	32.480761	0.473060	3.753960	-1.800680	0.868223	0.198059	0.410827	-1.000000	-1.000000	-1.000000	-1.000000	-1.000000	-1.000000	-1.000000	74.965517	0.000000	-1.000000	-1.000000	1403025.000000	1772660694.666557
-27701.595000	-46175.940000	7397.820000	2383.020000	6535.395000	5210.820000	2146.320000	2100.825000	10.588254	13.348169	5.129964	7.088094	10.087314	8.939658	3.170305	12.839704	0.473060	3.753960	-1.800680	0.868223	0.198059	0.410827	-1.000000	-1.000000	-1.000000	-1.000000	-1.000000	-1.000000	-1.000000	74.965517	0.000000	-1.000000	-1.000000	1403026.000000	1772660694.666568
-27697.770000	-46168.155000	7405.470000	2388.960000	6542.055000	5221.080000	2161.845000	2106.315000	-5.354998	-1.781411	-10.540972	-7.425790	-3.530140	-1.768894	-0.893271	-4.829204	0.473060	3.753960	-1.800680	0.868223	0.198059	0.410827	-1.000000	-1.000000	-1.000000	-1.000000	-1.000000	-1.000000	-1.000000	74.965517	0.000000	-1.000000	-1.000000	1403027.000000	1772660694.666578
-27684.360000	-46165.995000	7406.730000	2391.255000	6546.825000	5230.215000	2176.560000	2131.695000	-12.548845	-10.378660	-17.559135	-15.224280	-12.129844	-8.328578	-1.573046	-12.721303	0.473060	3.753960	-1.800680	0.868223	0.198059	0.410827	-1.000000	-1.000000	-1.000000	-1.000000	-1.000000	-1.000000	-1.000000	74.965517	0.000000	-1.000000	-1.000000	1403028.000000	1772660694.666582
-27652.590000	-46139.895000	7432.785000	2418.210000	6574.680000	5254.605000	2187.585000	2172.195000	-12.713555	-11.828166	-17.105190	-16.217360	-14.357828	-10.069749	-0.959762	-13.533368	0.473060	3.753960	-1.800680	0.868223	0.198059	0.410827	-1.000000	-1.000000	-1.000000	-1.000000	-1.000000	-1.000000	-1.000000	74.965517	0.000000	-1.000000	-1.000000	1403029.000000	1772660694.669611
-27703.575000	-46159.290000	7420.680000	2409.030000	6568.830000	5249.610000	2173.680000	2099.025000	-9.428581	-8.921346	-12.138384	-12.021844	-10.972182	-7.778271	-1.002718	-11.285722	0.473060	3.753960	-1.800680	0.868223	0.198059	0.410827	-1.000000	-1.000000	-1.000000	-1.000000	-1.000000	-1.000000	-1.000000	74.965517	0.000000	-1.000000	-1.000000	1403030.000000	1772660694.669620
-27744.570000	-46194.165000	7383.780000	2371.320000	6529.905000	5212.620000	2165.130000	2062.395000	-6.951554	-5.770978	-5.572309	-5.421879	-4.831073	-3.572407	-1.854899	-10.079628	-1.693860	2.868880	-1.983800	0.871030	0.201965	0.406737	-1.000000	-1.000000	-1.000000	-1.000000	-1.000000	-1.000000	-1.000000	74.965517	0.000000	-1.000000	-1.000000	1403031.000000	1772660694.673530
-27694.935000	-46167.030000	7405.245000	2387.205000	6540.390000	5221.170000	2185.650000	2134.035000	-7.922142	-5.688716	-1.037301	-0.881602	-0.974781	-1.381245	-2.821081	-11.784499	-1.693860	2.868880	-1.983800	0.871030	0.201965	0.406737	-1.000000	-1.000000	-1.000000	-1.000000	-1.000000	-1.000000	-1.000000	74.965517	0.000000	-1.000000	-1.000000	1403032.000000	1772660694.673537
-27643.815000	-46135.530000	7433.415000	2412.270000	6564.510000	5242.095000	2193.570000	2180.340000	-7.986370	-6.426921	1.349516	0.696383	-0.813541	-2.285411	-2.922223	-11.147627	-1.693860	2.868880	-1.983800	0.871030	0.201965	0.406737	-1.000000	-1.000000	-1.000000	-1.000000	-1.000000	-1.000000	-1.000000	74.965517	0.000000	-1.000000	-1.000000	1403033.000000	1772660694.677642
-27707.895000	-46187.865000	7385.895000	2369.295000	6526.620000	5205.645000	2148.480000	2093.130000	-2.162378	-3.792480	4.131173	2.110016	-1.118975	-3.346900	-2.122940	-3.753796	-1.693860	2.868880	-1.983800	0.871030	0.201965	0.406737	-1.000000	-1.000000	-1.000000	-1.000000	-1.000000	-1.000000	-1.000000	74.965517	0.000000	-1.000000	-1.000000	1403034.000000	1772660694.677647
-27715.230000	-46189.395000	7384.410000	2366.910000	6526.170000	5213.115000	2160.090000	2092.275000	6.161166	1.178698	6.731852	4.019635	0.150604	-2.380263	-1.537539	5.806966	-1.693860	2.868880	-1.983800	0.871030	0.201965	0.406737	-1.000000	-1.000000	-1.000000	-1.000000	-1.000000	-1.000000	-1.000000	74.965517	0.000000	-1.000000	-1.000000	1403035.000000	1772660694.687226
-27714.780000	-46201.680000	7364.970000	2343.915000	6502.905000	5202.405000	2168.325000	2102.760000	10.098314	4.517881	6.474067	4.545889	1.943574	0.117324	-1.516994	10.613384	-1.693860	2.868880	-1.983800	0.871030	0.201965	0.406737	-1.000000	-1.000000	-1.000000	-1.000000	-1.000000	-1.000000	-1.000000	74.965517	0.000000	-1.000000	-1.000000	1403036.000000	1772660694.687235
-27718.155000	-46202.535000	7373.430000	2355.210000	6514.110000	5196.060000	2148.075000	2096.640000	7.263396	4.413152	2.580055	2.463757	2.358885	2.069499	-1.878145	8.510272	-1.693860	2.868880	-1.983800	0.871030	0.201965	0.406737	-1.000000	-1.000000	-1.000000	-1.000000	-1.000000	-1.000000	-1.000000	74.965517	0.000000	-1.000000	-1.000000	1403037.000000	1772660694.687244
-27691.605000	-46169.325000	7412.265000	2399.715000	6556.500000	5227.470000	2160.945000	2124.225000	0.959442	2.376240	-2.162942	-0.374095	1.748619	2.371169	-2.493502	2.505218	-1.693860	2.868880	-1.983800	0.871030	0.201965	0.406737	-1.000000	-1.000000	-1.000000	-1.000000	-1.000000	-1.000000	-1.000000	74.965517	0.000000	-1.000000	-1.000000	1403038.000000	1772660694.687248
-27685.890000	-46146.690000	7427.340000	2416.590000	6570.720000	5249.070000	2188.755000	2121.930000	-2.237361	2.352249	-2.651722	0.394355	3.276810	3.241525	-1.429684	-0.656324	-1.693860	2.868880	-1.983800	0.871030	0.201965	0.406737	-1.000000	-1.000000	-1.000000	-1.000000	-1.000000	-1.000000	-1.000000	74.965517	0.000000	-1.000000	-1.000000	1403039.000000	1772660694.689634
-27724.095000	-46172.655000	7400.520000	2388.015000	6540.210000	5222.700000	2167.335000	2072.745000	0.594055	5.984275	2.503630	5.659696	7.679050	6.587937	2.941664	1.977313	-1.693860	2.868880	-1.983800	0.871030	0.201965	0.406737	-1.000000	-1.000000	-1.000000	-1.000000	-1.000000	-1.000000	-1.000000	74.965517	0.000000	-1.000000	-1.000000	1403040.000000	1772660694.689643
-27723.915000	-46183.680000	7385.265000	2366.910000	6519.420000	5206.410000	2158.380000	2078.055000	4.013487	8.730006	7.537463	9.520616	9.922792	9.086426	7.404046	4.113949	-2.426340	3.494540	-2.380560	0.872190	0.201782	0.404784	-1.000000	-1.000000	-1.000000	-1.000000	-1.000000	-1.000000	-1.000000	74.965517	0.000000	-1.000000	-1.000000	1403041.000000	1772660694.693635
-27684.990000	-46156.140000	7407.855000	2384.775000	6540.120000	5220.315000	2161.890000	2108.385000	2.414676	5.797522	6.534741	6.378098	5.515851	6.331259	7.517953	0.439772	-2.426340	3.494540	-2.380560	0.872190	0.201782	0.404784	-1.000000	-1.000000	-1.000000	-1.000000	-1.000000	-1.000000	-1.000000	74.965517	0.000000	-1.000000	-1.000000	1403042.000000	1772660694.693642
-27681.930000	-46147.905000	7429.995000	2409.345000	6568.245000	5240.610000	2163.330000	2118.330000	-1.022515	-0.195117	1.539344	-0.928901	-2.098508	0.168573	4.116820	-3.663252	-2.426340	3.494540	-2.380560	0.872190	0.201782	0.404784	-1.000000	-1.000000	-1.000000	-1.000000	-1.000000	-1.000000	-1.000000	74.965517	0.000000	-1.000000	-1.000000	1403043.000000	1772660694.697670
-27698.715000	-46176.930000	7397.730000	2377.935000	6540.840000	5221.755000	2166.795000	2123.910000	-0.889285	-3.865913	-1.817812	-5.562831	-6.107723	-4.160514	0.765145	-1.240557	-2.426340	3.494540	-2.380560	0.872190	0.201782	0.404784	-1.000000	-1.000000	-1.000000	-1.000000	-1.000000	-1.000000	-1.000000	74.965517	0.000000	-1.000000	-1.000000	1403044.000000	1772660694.697677
-27661.995000	-46142.955000	7425.630000	2402.595000	6560.640000	5240.025000	2185.335000	2158.065000	1.962023	-4.348183	-2.440315	-5.616458	-5.128356	-5.038413	-1.198533	5.610253	-2.426340	3.494540	-2.380560	0.872190	0.201782	0.404784	-1.000000	-1.000000	-1.000000	-1.000000	-1.000000	-1.000000	-1.000000	74.965517	0.000000	-1.000000	-1.000000	1403045.000000	1772660694.703104
-27685.260000	-46150.290000	7422.570000	2400.570000	6556.860000	5228.325000	2159.730000	2095.650000	3.584121	-3.418081	-2.495462	-3.723617	-2.617700	-4.169566	-2.156645	9.305154	-2.426340	3.494540	-2.380560	0.872190	0.201782	0.404784	-1.000000	-1.000000	-1.000000	-1.000000	-1.000000	-1.000000	-1.000000	74.965517	0.000000	-1.000000	-1.000000	1403046.000000	1772660694.703111
-27690.255000	-46153.035000	7421.715000	2400.120000	6554.610000	5229.180000	2172.195000	2093.535000	1.474189	-3.034596	-3.762391	-2.980327	-2.174990	-3.779210	-3.009305	4.610022	-2.426340	3.494540	-2.380560	0.872190	0.201782	0.404784	-1.000000	-1.000000	-1.000000	-1.000000	-1.000000	-1.000000	-1.000000	74.965517	0.000000	-1.000000	-1.000000	1403047.000000	1772660694.707299
-27664.605000	-46135.530000	7436.835000	2415.195000	6571.485000	5245.335000	2190.780000	2133.630000	-3.231276	-4.093425	-5.961596	-4.093725	-4.174049	-4.444397	-3.920744	-5.358451	-2.426340	3.494540	-2.380560	0.872190	0.201782	0.404784	-1.000000	-1.000000	-1.000000	-1.000000	-1.000000	-1.000000	-1.000000	74.965517	0.000000	-1.000000	-1.000000	1403048.000000	1772660694.707306
-27711.090000	-46182.960000	7389.360000	2366.505000	6525.945000	5202.135000	2149.065000	2090.475000	-6.556499	-5.167245	-6.808889	-4.856509	-5.570910	-4.421823	-3.942618	-11.805741	-2.426340	3.494540	-2.380560	0.872190	0.201782	0.404784	-1.000000	-1.000000	-1.000000	-1.000000	-1.000000	-1.000000	-1.000000	74.965517	0.000000	-1.000000	-1.000000	1403049.000000	1772660694.709831
-27700.695000	-46176.615000	7392.915000	2365.560000	6520.365000	5195.385000	2152.620000	2117.430000	-7.317152	-5.265313	-5.548468	-4.029418	-4.704284	-3.065193	-3.233444	-11.209994	-2.426340	3.494540	-2.380560	0.872190	0.201782	0.404784	-1.000000	-1.000000	-1.000000	-1.000000	-1.000000	-1.000000	-1.000000	74.965517	0.000000	-1.000000	-1.000000	1403050.000000	1772660694.709841
-27649.080000	-46114.380000	7459.785000	2433.825000	6587.685000	5260.635000	2204.910000	2170.620000	-6.314508	-3.712451	-2.470658	-1.510400	-1.925128	-0.704397	-1.611364	-5.597770	-2.533160	3.769220	-1.724380	0.875547	0.201660	0.403197	-1.000000	-1.000000	-1.000000	-1.000000	-1.000000	-1.000000	-1.000000	74.965517	0.000000	-1.000000	-1.000000	1403051.000000	1772660694.713474
-27687.375000	-46148.580000	7428.465000	2406.645000	6562.980000	5237.415000	2175.255000	2104.740000	-2.618542	1.100983	3.026986	3.481946	2.974187	3.426003	2.178500	2.295231	-2.533160	3.769220	-1.724380	0.875547	0.201660	0.403197	-1.000000	-1.000000	-1.000000	-1.000000	-1.000000	-1.000000	-1.000000	74.965517	0.000000	-1.000000	-1.000000	1403052.000000	1772660694.713483
-27722.340000	-46187.730000	7391.070000	2372.715000	6533.955000	5209.830000	2145.645000	2064.555000	2.141044	6.960203	8.472105	8.682634	7.940301	7.576722	5.569387	6.485872	-2.533160	3.769220	-1.724380	0.875547	0.201660	0.403197	-1.000000	-1.000000	-1.000000	-1.000000	-1.000000	-1.000000	-1.000000	74.965517	0.000000	-1.000000	-1.000000	1403053.000000	1772660694.720414
-27707.130000	-46177.965000	7397.550000	2377.080000	6539.805000	5217.345000	2155.680000	2080.710000	3.532543	8.210415	8.711053	9.002579	8.594951	7.625156	4.187324	2.344139	-2.533160	3.769220	-1.724380	0.875547	0.201660	0.403197	-1.000000	-1.000000	-1.000000	-1.000000	-1.000000	-1.000000	-1.000000	74.965517	0.000000	-1.000000	-1.000000	1403054.000000	1772660694.720425
-27708.120000	-46176.390000	7399.260000	2379.555000	6542.010000	5220.315000	2158.020000	2090.340000	1.416312	3.588848	2.896711	3.206716	3.887604	3.081670	-0.781502	-4.814207	-2.533160	3.769220	-1.724380	0.875547	0.201660	0.403197	-1.000000	-1.000000	-1.000000	-1.000000	-1.000000	-1.000000	-1.000000	74.965517	0.000000	-1.000000	-1.000000	1403055.000000	1772660694.724795
-27700.560000	-46166.715000	7412.265000	2395.260000	6554.205000	5228.100000	2166.255000	2105.820000	-0.204295	-2.435169	-4.156348	-4.284945	-2.508897	-2.430663	-4.552440	-5.988747	-2.533160	3.769220	-1.724380	0.875547	0.201660	0.403197	-1.000000	-1.000000	-1.000000	-1.000000	-1.000000	-1.000000	-1.000000	74.965517	0.000000	-1.000000	-1.000000	1403056.000000	1772660694.724802
-27690.030000	-46168.380000	7403.940000	2383.605000	6538.905000	5218.155000	2176.650000	2126.295000	1.222037	-5.019657	-7.052822	-7.922236	-6.068780	-5.340085	-4.455215	0.734680	-2.533160	3.769220	-1.724380	0.875547	0.201660	0.403197	-1.000000	-1.000000	-1.000000	-1.000000	-1.000000	-1.000000	-1.000000	74.965517	0.000000	-1.000000	-1.000000	1403057.000000	1772660694.727919
-27680.085000	-46158.480000	7399.485000	2374.830000	6528.780000	5213.205000	2181.330000	2143.260000	5.380288	-2.247266	-3.898776	-5.385464	-4.793671	-4.161896	-0.309982	10.594001	-2.533160	3.769220	-1.724380	0.875547	0.201660	0.403197	-1.000000	-1.000000	-1.000000	-1.000000	-1.000000	-1.000000	-1.000000	74.965517	0.000000	-1.000000	-1.000000	1403058.000000	1772660694.727924
-27669.465000	-46136.475000	7404.795000	2378.655000	6535.395000	5217.300000	2178.675000	2152.440000	9.368340	3.855921	2.393738	0.710507	-0.469833	-0.285144	5.428408	16.793807	-2.533160	3.769220	-1.724380	0.875547	0.201660	0.403197	-1.000000	-1.000000	-1.000000	-1.000000	-1.000000	-1.000000	-1.000000	74.965517	0.000000	-1.000000	-1.000000	1403059.000000	1772660694.729737
-27706.320000	-46156.635000	7390.125000	2375.370000	6535.170000	5216.265000	2164.950000	2089.485000	8.638705	8.021170	6.015439	4.769075	2.621951	2.425743	7.811472	13.539949	-2.533160	3.769220	-1.724380	0.875547	0.201660	0.403197	-1.000000	-1.000000	-1.000000	-1.000000	-1.000000	-1.000000	-1.000000	74.965517	0.000000	-1.000000	-1.000000	1403060.000000	1772660694.729744
-27696.465000	-46174.365000	7390.935000	2381.760000	6541.470000	5221.350000	2163.960000	2097.585000	1.997593	6.528964	4.350964	4.283755	2.521620	1.945554	4.414167	1.152939	-2.014320	2.777320	-2.029580	0.875120	0.202392	0.406127	-1.000000	-1.000000	-1.000000	-1.000000	-1.000000	-1.000000	-1.000000	74.965517	0.000000	-1.000000	-1.000000	1403061.000000	1772660694.733656
-27686.295000	-46174.905000	7425.405000	2408.220000	6565.635000	5241.870000	2162.880000	2096.460000	-5.642809	0.962670	1.166064	2.527427	1.903238	0.749550	-1.580575	-12.107891	-2.014320	2.777320	-2.029580	0.875120	0.202392	0.406127	-1.000000	-1.000000	-1.000000	-1.000000	-1.000000	-1.000000	-1.000000	74.965517	0.000000	-1.000000	-1.000000	1403062.000000	1772660694.733664
-27673.740000	-46146.870000	7445.790000	2424.825000	6579.315000	5256.945000	2180.700000	2129.760000	-8.723403	-4.259053	1.155957	3.063768	3.380487	1.688183	-5.387701	-17.308811	-2.014320	2.777320	-2.029580	0.875120	0.202392	0.406127	-1.000000	-1.000000	-1.000000	-1.000000	-1.000000	-1.000000	-1.000000	74.965517	0.000000	-1.000000	-1.000000	1403063.000000	1772660694.737535
-27674.055000	-46137.015000	7441.830000	2421.540000	6572.745000	5247.045000	2184.480000	2140.020000	-6.428828	-5.884112	3.899064	4.864935	5.461711	3.822758	-5.052851	-12.099682	-2.014320	2.777320	-2.029580	0.875120	0.202392	0.406127	-1.000000	-1.000000	-1.000000	-1.000000	-1.000000	-1.000000	-1.000000	74.965517	0.000000	-1.000000	-1.000000	1403064.000000	1772660694.737541
-27733.770000	-46176.120000	7406.955000	2389.905000	6539.805000	5212.485000	2152.845000	2041.020000	-2.669502	-4.293350	4.686679	3.967243	4.371595	3.508341	-2.523228	-2.649209	-2.014320	2.777320	-2.029580	0.875120	0.202392	0.406127	-1.000000	-1.000000	-1.000000	-1.000000	-1.000000	-1.000000	-1.000000	74.965517	0.000000	-1.000000	-1.000000	1403065.000000	1772660694.741676
-27710.370000	-46169.055000	7412.670000	2397.240000	6549.075000	5228.775000	2179.260000	2086.830000	-1.944441	-2.588867	0.472696	-1.232464	-0.978726	-0.762094	-0.928622	1.792583	-2.014320	2.777320	-2.029580	0.875120	0.202392	0.406127	-1.000000	-1.000000	-1.000000	-1.000000	-1.000000	-1.000000	-1.000000	74.965517	0.000000	-1.000000	-1.000000	1403066.000000	1772660694.741683
-27692.415000	-46180.665000	7394.940000	2381.580000	6538.590000	5225.580000	2187.450000	2125.755000	-3.738358	-2.532265	-6.427144	-7.538376	-6.985224	-5.713580	-0.380301	0.146047	-2.014320	2.777320	-2.029580	0.875120	0.202392	0.406127	-1.000000	-1.000000	-1.000000	-1.000000	-1.000000	-1.000000	-1.000000	74.965517	0.000000	-1.000000	-1.000000	1403067.000000	1772660694.752962
-27680.220000	-46174.500000	7399.620000	2387.115000	6543.945000	5230.395000	2190.645000	2149.920000	-3.726567	-3.626934	-11.657205	-11.071113	-9.861108	-7.613080	0.788259	-0.429691	-2.014320	2.777320	-2.029580	0.875120	0.202392	0.406127	-1.000000	-1.000000	-1.000000	-1.000000	-1.000000	-1.000000	-1.000000	74.965517	0.000000	-1.000000	-1.000000	1403068.000000	1772660694.752970
-27706.140000	-46178.820000	7399.665000	2390.670000	6548.760000	5230.440000	2173.905000	2098.395000	0.171158	-3.917092	-12.213666	-10.333924	-8.750571	-5.990478	2.468010	4.307327	-2.014320	2.777320	-2.029580	0.875120	0.202392	0.406127	-1.000000	-1.000000	-1.000000	-1.000000	-1.000000	-1.000000	-1.000000	74.965517	0.000000	-1.000000	-1.000000	1403069.000000	1772660694.752980
-27731.070000	-46210.050000	7365.825000	2357.055000	6515.325000	5200.020000	2144.655000	2063.205000	5.294824	-1.388302	-7.630147	-5.943264	-4.791556	-2.603920	2.884668	10.155195	-2.014320	2.777320	-2.029580	0.875120	0.202392	0.406127	-1.000000	-1.000000	-1.000000	-1.000000	-1.000000	-1.000000	-1.000000	74.965517	0.000000	-1.000000	-1.000000	1403070.000000	1772660694.752984
-27730.395000	-46207.350000	7368.030000	2358.855000	6513.030000	5197.905000	2146.545000	2070.180000	6.924481	2.732189	-1.408803	-1.001980	-0.939255	-0.260571	0.642187	10.020524	-3.097780	2.334780	-1.739640	0.874265	0.204284	0.407103	-1.000000	-1.000000	-1.000000	-1.000000	-1.000000	-1.000000	-1.000000	74.965517	0.000000	-1.000000	-1.000000	1403071.000000	1772660694.763009
-27726.165000	-46198.080000	7375.545000	2365.560000	6516.585000	5201.370000	2160.270000	2086.155000	3.698929	5.147610	2.520094	1.719970	0.581038	-0.313869	-3.153556	2.815691	-3.097780	2.334780	-1.739640	0.874265	0.204284	0.407103	-1.000000	-1.000000	-1.000000	-1.000000	-1.000000	-1.000000	-1.000000	74.965517	0.000000	-1.000000	-1.000000	1403072.000000	1772660694.763019
-27707.265000	-46182.510000	7387.470000	2376.495000	6522.660000	5204.655000	2162.610000	2102.895000	-0.560247	5.108678	4.528832	3.190293	1.247044	-0.607528	-5.182671	-5.230073	-3.097780	2.334780	-1.739640	0.874265	0.204284	0.407103	-1.000000	-1.000000	-1.000000	-1.000000	-1.000000	-1.000000	-1.000000	74.965517	0.000000	-1.000000	-1.000000	1403073.000000	1772660694.763030
-27703.980000	-46176.480000	7395.705000	2387.925000	6534.000000	5213.745000	2163.555000	2100.195000	-0.902662	4.902068	7.380370	6.069327	4.003808	1.886027	-3.170896	-6.920019	-3.097780	2.334780	-1.739640	0.874265	0.204284	0.407103	-1.000000	-1.000000	-1.000000	-1.000000	-1.000000	-1.000000	-1.000000	74.965517	0.000000	-1.000000	-1.000000	1403074.000000	1772660694.763033
-27676.305000	-46145.655000	7429.860000	2423.925000	6571.035000	5247.495000	2179.935000	2128.905000	3.228839	6.312414	11.926834	11.064296	9.558668	7.432478	1.734356	-1.659316	-3.097780	2.334780	-1.739640	0.874265	0.204284	0.407103	-1.000000	-1.000000	-1.000000	-1.000000	-1.000000	-1.000000	-1.000000	74.965517	0.000000	-1.000000	-1.000000	1403075.000000	1772660694.763038
-27655.605000	-46126.845000	7444.620000	2434.995000	6580.485000	5262.840000	2199.195000	2150.280000	7.555220	8.362638	15.993260	15.838915	15.278761	13.124727	6.343815	4.297541	-3.097780	2.334780	-1.739640	0.874265	0.204284	0.407103	-1.000000	-1.000000	-1.000000	-1.000000	-1.000000	-1.000000	-1.000000	74.965517	0.000000	-1.000000	-1.000000	1403076.000000	1772660694.763041
-27709.065000	-46178.190000	7391.340000	2380.545000	6526.080000	5216.355000	2176.965000	2094.525000	7.434627	7.758249	15.207122	15.504746	15.820124	14.236908	8.142163	5.306984	-3.097780	2.334780	-1.739640	0.874265	0.204284	0.407103	-1.000000	-1.000000	-1.000000	-1.000000	-1.000000	-1.000000	-1.000000	74.965517	0.000000	-1.000000	-1.000000	1403077.000000	1772660694.765617
-27652.095000	-46126.890000	7443.585000	2434.770000	6578.010000	5258.070000	2213.460000	2179.800000	2.307005	2.509280	7.011974	7.092789	7.905939	8.018372	6.848540	2.300235	-3.097780	2.334780	-1.739640	0.874265	0.204284	0.407103	-1.000000	-1.000000	-1.000000	-1.000000	-1.000000	-1.000000	-1.000000	74.965517	0.000000	-1.000000	-1.000000	1403078.000000	1772660694.765624
-27675.180000	-46136.385000	7440.030000	2434.455000	6576.885000	5245.110000	2179.485000	2125.935000	-3.524698	-4.192066	-4.478564	-4.874771	-3.947865	-2.075263	4.128986	0.592671	-3.097780	2.334780	-1.739640	0.874265	0.204284	0.407103	-1.000000	-1.000000	-1.000000	-1.000000	-1.000000	-1.000000	-1.000000	74.965517	0.000000	-1.000000	-1.000000	1403079.000000	1772660694.769800
-27728.640000	-46181.205000	7391.610000	2384.730000	6528.555000	5207.130000	2151.720000	2048.670000	-7.297580	-8.853433	-13.502305	-13.830713	-12.889817	-10.643813	0.147111	-0.230013	-3.097780	2.334780	-1.739640	0.874265	0.204284	0.407103	-1.000000	-1.000000	-1.000000	-1.000000	-1.000000	-1.000000	-1.000000	74.965517	0.000000	-1.000000	-1.000000	1403080.000000	1772660694.769807
-27710.910000	-46171.620000	7392.330000	2384.910000	6530.985000	5220.990000	2177.280000	2075.895000	-10.582115	-12.393902	-19.008868	-18.593507	-17.366239	-15.711851	-5.988244	-5.775365	-3.662400	3.189340	-2.258480	0.876768	0.203063	0.405089	-1.000000	-1.000000	-1.000000	-1.000000	-1.000000	-1.000000	-1.000000	74.965517	0.000000	-1.000000	-1.000000	1403081.000000	1772660694.773693
-27695.340000	-46165.275000	7397.505000	2389.770000	6536.340000	5221.620000	2180.700000	2105.640000	-12.654509	-14.769116	-20.611180	-19.419175	-17.614523	-16.109365	-11.373267	-13.623668	-3.662400	3.189340	-2.258480	0.876768	0.203063	0.405089	-1.000000	-1.000000	-1.000000	-1.000000	-1.000000	-1.000000	-1.000000	74.965517	0.000000	-1.000000	-1.000000	1403082.000000	1772660694.773700
-27709.470000	-46185.390000	7380.360000	2375.640000	6525.360000	5204.070000	2158.605000	2105.820000	-10.297594	-13.364832	-16.620429	-15.240914	-13.073125	-11.316796	-11.998773	-14.817337	-3.662400	3.189340	-2.258480	0.876768	0.203063	0.405089	-1.000000	-1.000000	-1.000000	-1.000000	-1.000000	-1.000000	-1.000000	74.965517	0.000000	-1.000000	-1.000000	1403083.000000	1772660694.777741
-27712.890000	-46195.965000	7368.255000	2363.580000	6514.380000	5195.520000	2155.905000	2108.835000	-4.353615	-8.287820	-8.333480	-7.404075	-5.669745	-4.427161	-8.481116	-7.434797	-3.662400	3.189340	-2.258480	0.876768	0.203063	0.405089	-1.000000	-1.000000	-1.000000	-1.000000	-1.000000	-1.000000	-1.000000	74.965517	0.000000	-1.000000	-1.000000	1403084.000000	1772660694.777748
-27680.940000	-46158.030000	7407.765000	2401.470000	6548.175000	5228.100000	2184.705000	2128.725000	1.936133	-1.486853	1.240027	1.454361	1.815845	1.412848	-3.420069	3.000031	-3.662400	3.189340	-2.258480	0.876768	0.203063	0.405089	-1.000000	-1.000000	-1.000000	-1.000000	-1.000000	-1.000000	-1.000000	74.965517	0.000000	-1.000000	-1.000000	1403085.000000	1772660694.781641
-27641.430000	-46121.580000	7440.435000	2431.395000	6576.975000	5260.185000	2223.495000	2172.465000	8.565611	7.438744	11.588162	11.096862	9.541654	7.224074	3.142554	12.488832	-3.662400	3.189340	-2.258480	0.876768	0.203063	0.405089	-1.000000	-1.000000	-1.000000	-1.000000	-1.000000	-1.000000	-1.000000	74.965517	0.000000	-1.000000	-1.000000	1403086.000000	1772660694.781650
-27661.545000	-46130.760000	7433.370000	2426.985000	6572.025000	5251.770000	2198.295000	2141.370000	15.346825	17.524967	21.179014	20.078203	16.893190	13.765528	10.840624	18.708581	-3.662400	3.189340	-2.258480	0.876768	0.203063	0.405089	-1.000000	-1.000000	-1.000000	-1.000000	-1.000000	-1.000000	-1.000000	74.965517	0.000000	-1.000000	-1.000000	1403087.000000	1772660694.785745
-27732.690000	-46192.455000	7376.805000	2375.595000	6523.650000	5198.310000	2127.960000	2050.110000	17.227159	22.379245	23.983014	22.660670	19.048259	16.867053	14.953507	17.373576	-3.662400	3.189340	-2.258480	0.876768	0.203063	0.405089	-1.000000	-1.000000	-1.000000	-1.000000	-1.000000	-1.000000	-1.000000	74.965517	0.000000	-1.000000	-1.000000	1403088.000000	1772660694.785752
-27732.825000	-46190.925000	7380.315000	2380.185000	6523.470000	5196.465000	2138.760000	2059.110000	10.043768	16.484417	15.977331	15.211931	12.646949	12.168944	10.656080	6.805060	-3.662400	3.189340	-2.258480	0.876768	0.203063	0.405089	-1.000000	-1.000000	-1.000000	-1.000000	-1.000000	-1.000000	-1.000000	74.965517	0.000000	-1.000000	-1.000000	1403089.000000	1772660694.789622
-27705.150000	-46170.855000	7398.720000	2397.195000	6537.960000	5210.235000	2166.120000	2108.385000	-2.672412	2.679647	1.456884	1.844607	1.070896	1.507768	0.146719	-7.031810	-3.662400	3.189340	-2.258480	0.876768	0.203063	0.405089	-1.000000	-1.000000	-1.000000	-1.000000	-1.000000	-1.000000	-1.000000	74.965517	0.000000	-1.000000	-1.000000	1403090.000000	1772660694.789629
-27689.040000	-46166.175000	7397.415000	2391.300000	6534.495000	5215.320000	2185.380000	2134.485000	-12.469458	-10.207452	-10.835981	-9.586495	-8.847472	-8.389724	-8.432767	-14.821067	-1.724380	4.959500	-2.609460	0.883054	0.198730	0.401061	-1.000000	-1.000000	-1.000000	-1.000000	-1.000000	-1.000000	-1.000000	74.965517	0.000000	-1.000000	-1.000000	1403091.000000	1772660694.793508
-27714.915000	-46183.455000	7383.465000	2377.980000	6524.370000	5208.795000	2170.620000	2090.160000	-14.059658	-15.491535	-15.493809	-14.464911	-12.929565	-12.148582	-9.262977	-13.160576	-1.724380	4.959500	-2.609460	0.883054	0.198730	0.401061	-1.000000	-1.000000	-1.000000	-1.000000	-1.000000	-1.000000	-1.000000	74.965517	0.000000	-1.000000	-1.000000	1403092.000000	1772660694.793516
-27709.020000	-46178.775000	7389.045000	2386.530000	6535.980000	5217.435000	2167.335000	2097.225000	-9.209042	-12.993198	-13.053798	-13.098047	-11.307934	-9.489480	-4.074908	-6.964021	-1.724380	4.959500	-2.609460	0.883054	0.198730	0.401061	-1.000000	-1.000000	-1.000000	-1.000000	-1.000000	-1.000000	-1.000000	74.965517	0.000000	-1.000000	-1.000000	1403093.000000	1772660694.800604
-27708.705000	-46175.130000	7391.880000	2390.130000	6539.535000	5218.605000	2164.320000	2090.520000	-3.014148	-6.869831	-7.373759	-8.281217	-6.447391	-3.978695	0.905612	-2.115303	-1.724380	4.959500	-2.609460	0.883054	0.198730	0.401061	-1.000000	-1.000000	-1.000000	-1.000000	-1.000000	-1.000000	-1.000000	74.965517	0.000000	-1.000000	-1.000000	1403094.000000	1772660694.800611
-27718.380000	-46179.810000	7388.460000	2385.450000	6533.100000	5209.470000	2156.040000	2075.310000	0.790620	-1.532673	-2.408426	-3.284611	-1.572981	0.146238	1.363888	-0.592307	-1.724380	4.959500	-2.609460	0.883054	0.198730	0.401061	-1.000000	-1.000000	-1.000000	-1.000000	-1.000000	-1.000000	-1.000000	74.965517	0.000000	-1.000000	-1.000000	1403095.000000	1772660694.801641
-27699.075000	-46158.120000	7412.085000	2407.230000	6552.135000	5227.065000	2174.895000	2100.060000	2.269576	1.747786	0.736782	0.440021	1.581309	1.548466	-0.988781	-0.176873	-1.724380	4.959500	-2.609460	0.883054	0.198730	0.401061	-1.000000	-1.000000	-1.000000	-1.000000	-1.000000	-1.000000	-1.000000	74.965517	0.000000	-1.000000	-1.000000	1403096.000000	1772660694.801645
-27669.645000	-46134.135000	7433.280000	2426.130000	6568.020000	5247.585000	2201.805000	2146.185000	5.586647	5.796911	4.809916	4.838026	4.806824	3.307220	-0.003567	4.993110	-1.724380	4.959500	-2.609460	0.883054	0.198730	0.401061	-1.000000	-1.000000	-1.000000	-1.000000	-1.000000	-1.000000	-1.000000	74.965517	0.000000	-1.000000	-1.000000	1403097.000000	1772660694.807115
-27679.140000	-46140.255000	7428.195000	2419.155000	6558.705000	5240.385000	2198.970000	2135.430000	12.276598	11.796989	10.956676	10.729061	9.314855	7.529622	6.272184	15.831414	-1.724380	4.959500	-2.609460	0.883054	0.198730	0.401061	-1.000000	-1.000000	-1.000000	-1.000000	-1.000000	-1.000000	-1.000000	74.965517	0.000000	-1.000000	-1.000000	1403098.000000	1772660694.807121
-27740.520000	-46202.040000	7368.075000	2359.980000	6501.330000	5185.125000	2151.945000	2063.340000	15.319351	14.068319	13.727914	13.105412	10.869817	9.868706	10.826231	21.429952	-1.724380	4.959500	-2.609460	0.883054	0.198730	0.401061	-1.000000	-1.000000	-1.000000	-1.000000	-1.000000	-1.000000	-1.000000	74.965517	0.000000	-1.000000	-1.000000	1403099.000000	1772660694.809591
-27715.770000	-46180.305000	7387.830000	2382.975000	6525.810000	5206.320000	2159.460000	2077.245000	7.609436	6.962471	7.570823	7.115334	5.093004	5.061714	6.302008	11.319255	-1.724380	4.959500	-2.609460	0.883054	0.198730	0.401061	-1.000000	-1.000000	-1.000000	-1.000000	-1.000000	-1.000000	-1.000000	74.965517	0.000000	-1.000000	-1.000000	1403100.000000	1772660694.809595
-27696.465000	-46164.780000	7406.505000	2401.110000	6544.260000	5220.945000	2157.075000	2076.660000	-6.489256	-5.494681	-3.957655	-3.517370	-4.536192	-4.357858	-4.979647	-9.128374	-5.035800	4.791640	-2.594200	0.882627	0.200683	0.401244	-1.000000	-1.000000	-1.000000	-1.000000	-1.000000	-1.000000	-1.000000	74.965517	0.000000	-1.000000	-1.000000	1403101.000000	1772660694.813676
-27695.115000	-46172.340000	7404.210000	2398.995000	6540.165000	5215.905000	2162.880000	2101.680000	-15.985617	-13.972600	-12.061885	-10.627703	-10.520640	-11.032873	-14.112915	-24.290869	-5.035800	4.791640	-2.594200	0.882627	0.200683	0.401244	-1.000000	-1.000000	-1.000000	-1.000000	-1.000000	-1.000000	-1.000000	74.965517	0.000000	-1.000000	-1.000000	1403102.000000	1772660694.813683
-27704.970000	-46183.725000	7387.020000	2388.195000	6531.345000	5213.790000	2176.785000	2115.045000	-15.816883	-14.515558	-12.916658	-11.067076	-10.200524	-11.398702	-14.952798	-24.204652	-5.035800	4.791640	-2.594200	0.882627	0.200683	0.401244	-1.000000	-1.000000	-1.000000	-1.000000	-1.000000	-1.000000	-1.000000	74.965517	0.000000	-1.000000	-1.000000	1403103.000000	1772660694.817750
-27706.995000	-46172.070000	7395.165000	2396.835000	6541.650000	5221.395000	2172.240000	2094.660000	-8.866552	-9.372116	-8.834109	-7.184194	-5.925384	-6.761577	-7.620389	-10.839832	-5.035800	4.791640	-2.594200	0.882627	0.200683	0.401244	-1.000000	-1.000000	-1.000000	-1.000000	-1.000000	-1.000000	-1.000000	74.965517	0.000000	-1.000000	-1.000000	1403104.000000	1772660694.817756
-27705.870000	-46160.190000	7406.280000	2404.260000	6549.480000	5222.160000	2159.955000	2086.155000	-0.265176	-1.786224	-2.934474	-1.915873	-0.423311	0.019590	2.924067	5.755257	-5.035800	4.791640	-2.594200	0.882627	0.200683	0.401244	-1.000000	-1.000000	-1.000000	-1.000000	-1.000000	-1.000000	-1.000000	74.965517	0.000000	-1.000000	-1.000000	1403105.000000	1772660694.821706
-27697.950000	-46152.045000	7411.860000	2405.745000	6552.270000	5225.580000	2170.395000	2100.150000	6.138251	5.605758	2.942307	2.888561	4.494638	5.862615	10.252114	15.527619	-5.035800	4.791640	-2.594200	0.882627	0.200683	0.401244	-1.000000	-1.000000	-1.000000	-1.000000	-1.000000	-1.000000	-1.000000	74.965517	0.000000	-1.000000	-1.000000	1403106.000000	1772660694.821713
-27692.505000	-46148.940000	7419.690000	2411.505000	6555.870000	5231.880000	2178.405000	2104.830000	8.901419	10.564544	7.582921	6.186191	7.623969	8.763487	11.320852	15.346262	-5.035800	4.791640	-2.594200	0.882627	0.200683	0.401244	-1.000000	-1.000000	-1.000000	-1.000000	-1.000000	-1.000000	-1.000000	74.965517	0.000000	-1.000000	-1.000000	1403107.000000	1772660694.825758
-27692.370000	-46156.590000	7412.805000	2407.770000	6554.790000	5234.535000	2189.610000	2117.880000	9.064513	12.167224	10.468457	8.053483	8.821514	9.091021	8.344204	9.564698	-5.035800	4.791640	-2.594200	0.882627	0.200683	0.401244	-1.000000	-1.000000	-1.000000	-1.000000	-1.000000	-1.000000	-1.000000	74.965517	0.000000	-1.000000	-1.000000	1403108.000000	1772660694.825765
-27682.380000	-46165.320000	7397.505000	2391.120000	6537.690000	5220.495000	2196.495000	2148.255000	7.648090	9.950214	10.437521	7.929018	7.541521	7.310691	4.947422	4.271868	-5.035800	4.791640	-2.594200	0.882627	0.200683	0.401244	-1.000000	-1.000000	-1.000000	-1.000000	-1.000000	-1.000000	-1.000000	74.965517	0.000000	-1.000000	-1.000000	1403109.000000	1772660694.829753
-27703.935000	-46174.590000	7385.670000	2378.610000	6524.595000	5206.455000	2179.935000	2119.680000	3.885853	3.387710	5.441153	3.807315	2.196794	2.312882	2.020725	1.364488	-5.035800	4.791640	-2.594200	0.882627	0.200683	0.401244	-1.000000	-1.000000	-1.000000	-1.000000	-1.000000	-1.000000	-1.000000	74.965517	0.000000	-1.000000	-1.000000	1403110.000000	1772660694.829758
-27722.970000	-46162.305000	7384.770000	2378.970000	6527.340000	5206.095000	2162.565000	2095.785000	-2.715176	-5.355973	-3.524836	-3.827425	-6.121284	-5.303955	-1.936459	-2.138486	-5.722500	3.616620	-3.219860	0.880735	0.200622	0.403014	-1.000000	-1.000000	-1.000000	-1.000000	-1.000000	-1.000000	-1.000000	74.965517	0.000000	-1.000000	-1.000000	1403111.000000	1772660694.833829
-27684.540000	-46127.295000	7405.515000	2401.605000	6551.955000	5230.170000	2174.040000	2128.230000	-9.316508	-10.862465	-10.974198	-10.112696	-12.136745	-11.223187	-7.284586	-8.047662	-5.722500	3.616620	-3.219860	0.880735	0.200622	0.403014	-1.000000	-1.000000	-1.000000	-1.000000	-1.000000	-1.000000	-1.000000	74.965517	0.000000	-1.000000	-1.000000	1403112.000000	1772660694.833837
-27659.115000	-46134.495000	7396.380000	2395.935000	6544.755000	5225.220000	2176.875000	2134.890000	-10.448099	-9.423182	-11.948158	-10.393847	-11.342795	-11.148605	-10.998838	-12.093230	-5.722500	3.616620	-3.219860	0.880735	0.200622	0.403014	-1.000000	-1.000000	-1.000000	-1.000000	-1.000000	-1.000000	-1.000000	74.965517	0.000000	-1.000000	-1.000000	1403113.000000	1772660694.837682
-27697.725000	-46182.735000	7386.795000	2385.180000	6529.275000	5208.570000	2176.020000	2093.985000	-4.622273	-3.986790	-7.081618	-5.201490	-4.981546	-5.568388	-9.746183	-10.221904	-5.722500	3.616620	-3.219860	0.880735	0.200622	0.403014	-1.000000	-1.000000	-1.000000	-1.000000	-1.000000	-1.000000	-1.000000	74.965517	0.000000	-1.000000	-1.000000	1403114.000000	1772660694.837689
-27716.400000	-46195.020000	7398.180000	2388.510000	6528.780000	5207.670000	2180.205000	2092.500000	2.216188	-1.149739	-0.760636	1.093196	1.836953	0.959361	-4.139110	-5.201300	-5.722500	3.616620	-3.219860	0.880735	0.200622	0.403014	-1.000000	-1.000000	-1.000000	-1.000000	-1.000000	-1.000000	-1.000000	74.965517	0.000000	-1.000000	-1.000000	1403115.000000	1772660694.841676
-27728.100000	-46192.365000	7381.305000	2375.505000	6520.185000	5201.595000	2168.010000	2079.360000	3.899056	-2.682661	3.919002	5.144086	5.670801	4.828429	2.144704	-1.434699	-5.722500	3.616620	-3.219860	0.880735	0.200622	0.403014	-1.000000	-1.000000	-1.000000	-1.000000	-1.000000	-1.000000	-1.000000	74.965517	0.000000	-1.000000	-1.000000	1403116.000000	1772660694.841683
-27713.655000	-46179.135000	7386.840000	2381.625000	6526.350000	5209.425000	2170.305000	2091.780000	0.790583	-4.006746	6.205184	6.296500	6.425190	5.677482	5.740621	0.373298	-5.722500	3.616620	-3.219860	0.880735	0.200622	0.403014	-1.000000	-1.000000	-1.000000	-1.000000	-1.000000	-1.000000	-1.000000	74.965517	0.000000	-1.000000	-1.000000	1403117.000000	1772660694.846889
-27704.385000	-46169.865000	7395.570000	2392.155000	6535.980000	5218.920000	2175.210000	2101.230000	-2.494204	-0.900791	6.560027	5.615464	5.655079	5.059125	5.764776	1.675529	-5.722500	3.616620	-3.219860	0.880735	0.200622	0.403014	-1.000000	-1.000000	-1.000000	-1.000000	-1.000000	-1.000000	-1.000000	74.965517	0.000000	-1.000000	-1.000000	1403118.000000	1772660694.846895
-27680.895000	-46153.260000	7413.255000	2410.695000	6552.810000	5233.005000	2191.275000	2142.630000	-1.808813	6.083207	6.167327	4.824362	5.068565	4.754279	4.257182	4.624980	-5.722500	3.616620	-3.219860	0.880735	0.200622	0.403014	-1.000000	-1.000000	-1.000000	-1.000000	-1.000000	-1.000000	-1.000000	74.965517	0.000000	-1.000000	-1.000000	1403119.000000	1772660694.849792
-27607.050000	-46093.185000	7471.080000	2466.135000	6602.985000	5278.635000	2232.180000	2244.105000	4.409744	13.322881	6.372242	5.250114	5.611924	5.597809	4.231718	11.427505	-5.722500	3.616620	-3.219860	0.880735	0.200622	0.403014	-1.000000	-1.000000	-1.000000	-1.000000	-1.000000	-1.000000	-1.000000	74.965517	0.000000	-1.000000	-1.000000	1403120.000000	1772660694.849801
-27564.480000	-46037.340000	7525.710000	2518.650000	6653.565000	5326.020000	2260.665000	2260.620000	13.839685	17.713210	8.048292	7.243735	7.282500	7.334942	6.749887	20.869801	-4.608520	3.769220	-3.448760	0.884885	0.198852	0.398986	-1.000000	-1.000000	-1.000000	-1.000000	-1.000000	-1.000000	-1.000000	74.965517	0.000000	-1.000000	-1.000000	1403121.000000	1772660694.853709
-27737.145000	-46170.270000	7399.440000	2395.665000	6535.530000	5213.610000	2152.575000	1999.845000	17.949443	16.068630	8.474168	7.755746	7.298032	7.236770	8.132994	22.635712	-4.608520	3.769220	-3.448760	0.884885	0.198852	0.398986	-1.000000	-1.000000	-1.000000	-1.000000	-1.000000	-1.000000	-1.000000	74.965517	0.000000	-1.000000	-1.000000	1403122.000000	1772660694.853716
-27777.285000	-46228.905000	7336.170000	2331.855000	6476.625000	5165.685000	2131.245000	1998.360000	6.819898	4.137771	0.494125	-0.028943	-0.288421	-0.052304	1.805849	4.360249	-4.608520	3.769220	-3.448760	0.884885	0.198852	0.398986	-1.000000	-1.000000	-1.000000	-1.000000	-1.000000	-1.000000	-1.000000	74.965517	0.000000	-1.000000	-1.000000	1403123.000000	1772660694.861993
-27739.215000	-46201.815000	7361.370000	2356.335000	6498.810000	5187.960000	2167.110000	2067.345000	-15.909302	-15.587691	-16.729932	-16.525649	-15.583256	-14.276346	-11.541016	-26.558567	-4.608520	3.769220	-3.448760	0.884885	0.198852	0.398986	-1.000000	-1.000000	-1.000000	-1.000000	-1.000000	-1.000000	-1.000000	74.965517	0.000000	-1.000000	-1.000000	1403124.000000	1772660694.862000
-27727.830000	-46190.385000	7376.535000	2376.135000	6519.825000	5199.390000	2160.900000	2078.685000	-32.143409	-30.361906	-30.760579	-29.548136	-27.384125	-25.122159	-21.207339	-44.557811	-4.608520	3.769220	-3.448760	0.884885	0.198852	0.398986	-1.000000	-1.000000	-1.000000	-1.000000	-1.000000	-1.000000	-1.000000	74.965517	0.000000	-1.000000	-1.000000	1403125.000000	1772660694.862008
-27728.685000	-46192.005000	7380.810000	2385.180000	6535.395000	5212.170000	2156.310000	2082.960000	-29.099159	-29.445827	-28.663698	-26.773347	-24.488660	-22.820555	-19.003265	-35.080184	-4.608520	3.769220	-3.448760	0.884885	0.198852	0.398986	-1.000000	-1.000000	-1.000000	-1.000000	-1.000000	-1.000000	-1.000000	74.965517	0.000000	-1.000000	-1.000000	1403126.000000	1772660694.862012
-27714.735000	-46171.170000	7400.790000	2403.990000	6551.955000	5227.470000	2166.930000	2088.855000	-10.210094	-13.903036	-10.511652	-8.627192	-7.331540	-7.857268	-6.918694	-6.694689	-4.608520	3.769220	-3.448760	0.884885	0.198852	0.398986	-1.000000	-1.000000	-1.000000	-1.000000	-1.000000	-1.000000	-1.000000	74.965517	0.000000	-1.000000	-1.000000	1403127.000000	1772660694.865844
-27719.820000	-46188.405000	7374.060000	2373.030000	6523.830000	5212.215000	2167.335000	2077.020000	11.708621	6.308198	12.157411	13.213396	13.107213	10.566924	7.340590	21.018437	-4.608520	3.769220	-3.448760	0.884885	0.198852	0.398986	-1.000000	-1.000000	-1.000000	-1.000000	-1.000000	-1.000000	-1.000000	74.965517	0.000000	-1.000000	-1.000000	1403128.000000	1772660694.865853
-27713.880000	-46181.430000	7381.710000	2380.545000	6531.300000	5217.255000	2173.320000	2083.950000	23.762183	19.113405	25.251129	24.807153	23.578306	21.092321	15.980201	31.768334	-4.608520	3.769220	-3.448760	0.884885	0.198852	0.398986	-1.000000	-1.000000	-1.000000	-1.000000	-1.000000	-1.000000	-1.000000	74.965517	0.000000	-1.000000	-1.000000	1403129.000000	1772660694.869790
-27684.000000	-46150.740000	7408.980000	2405.745000	6551.955000	5229.945000	2182.185000	2120.085000	21.751897	19.325194	23.191652	21.231786	19.468328	18.951558	15.989636	24.528011	-4.608520	3.769220	-3.448760	0.884885	0.198852	0.398986	-1.000000	-1.000000	-1.000000	-1.000000	-1.000000	-1.000000	-1.000000	74.965517	0.000000	-1.000000	-1.000000	1403130.000000	1772660694.869798
-27696.330000	-46155.195000	7403.130000	2397.510000	6537.420000	5217.435000	2175.705000	2092.230000	14.234764	14.018397	14.015212	11.241733	9.193448	10.477611	11.569390	14.227545	-4.745860	3.921820	-4.150720	0.887876	0.197814	0.395812	-1.000000	-1.000000	-1.000000	-1.000000	-1.000000	-1.000000	-1.000000	74.965517	0.000000	-1.000000	-1.000000	1403131.000000	1772660694.873788
-27721.800000	-46174.230000	7391.430000	2387.205000	6524.730000	5207.040000	2168.235000	2062.080000	10.457508	12.081190	8.210167	5.694263	3.207110	4.552789	7.782340	11.171795	-4.745860	3.921820	-4.150720	0.887876	0.197814	0.395812	-1.000000	-1.000000	-1.000000	-1.000000	-1.000000	-1.000000	-1.000000	74.965517	0.000000	-1.000000	-1.000000	1403132.000000	1772660694.873793
-27687.105000	-46139.130000	7429.680000	2426.040000	6563.745000	5242.005000	2175.615000	2086.200000	8.674996	12.378322	6.702580	5.474113	2.720117	2.737371	4.212942	8.906460	-4.745860	3.921820	-4.150720	0.887876	0.197814	0.395812	-1.000000	-1.000000	-1.000000	-1.000000	-1.000000	-1.000000	-1.000000	74.965517	0.000000	-1.000000	-1.000000	1403133.000000	1772660694.877717
-27670.590000	-46114.515000	7456.770000	2455.065000	6592.680000	5262.705000	2166.525000	2081.655000	3.617918	9.307886	5.007322	5.481903	3.297798	1.925398	-1.215129	-0.396521	-4.745860	3.921820	-4.150720	0.887876	0.197814	0.395812	-1.000000	-1.000000	-1.000000	-1.000000	-1.000000	-1.000000	-1.000000	74.965517	0.000000	-1.000000	-1.000000	1403134.000000	1772660694.877725
-27685.890000	-46137.375000	7434.630000	2433.735000	6574.230000	5251.995000	2183.670000	2104.020000	-4.894398	1.270621	0.412968	2.129780	1.480568	-0.290298	-7.329178	-13.766706	-4.745860	3.921820	-4.150720	0.887876	0.197814	0.395812	-1.000000	-1.000000	-1.000000	-1.000000	-1.000000	-1.000000	-1.000000	74.965517	0.000000	-1.000000	-1.000000	1403135.000000	1772660694.881816
-27716.265000	-46188.630000	7378.335000	2377.845000	6521.445000	5206.680000	2175.660000	2118.375000	-14.381727	-10.570900	-8.212553	-6.127327	-4.714501	-5.463847	-11.204401	-22.785365	-4.745860	3.921820	-4.150720	0.887876	0.197814	0.395812	-1.000000	-1.000000	-1.000000	-1.000000	-1.000000	-1.000000	-1.000000	74.965517	0.000000	-1.000000	-1.000000	1403136.000000	1772660694.881823
-27713.970000	-46183.005000	7383.690000	2383.110000	6525.315000	5210.685000	2174.040000	2105.415000	-22.220757	-23.307925	-19.526894	-17.738820	-14.459981	-13.264864	-11.614748	-22.659819	-4.745860	3.921820	-4.150720	0.887876	0.197814	0.395812	-1.000000	-1.000000	-1.000000	-1.000000	-1.000000	-1.000000	-1.000000	74.965517	0.000000	-1.000000	-1.000000	1403137.000000	1772660694.889565
-27669.420000	-46148.445000	7410.105000	2405.205000	6543.450000	5232.375000	2198.070000	2156.580000	-24.603190	-30.609564	-27.458044	-26.305353	-22.226325	-19.367712	-9.154634	-14.896271	-4.745860	3.921820	-4.150720	0.887876	0.197814	0.395812	-1.000000	-1.000000	-1.000000	-1.000000	-1.000000	-1.000000	-1.000000	74.965517	0.000000	-1.000000	-1.000000	1403138.000000	1772660694.889573
-27670.455000	-46146.105000	7412.400000	2409.615000	6549.615000	5234.580000	2197.485000	2154.240000	-17.415822	-25.814266	-24.813007	-24.472404	-21.077775	-17.735056	-3.999656	-2.402838	-4.745860	3.921820	-4.150720	0.887876	0.197814	0.395812	-1.000000	-1.000000	-1.000000	-1.000000	-1.000000	-1.000000	-1.000000	74.965517	0.000000	-1.000000	-1.000000	1403139.000000	1772660694.894141
-27740.250000	-46196.415000	7368.390000	2369.655000	6514.920000	5198.805000	2162.925000	2068.470000	-1.873634	-9.052508	-10.600080	-10.934375	-9.122201	-6.847990	2.844563	10.843695	-4.745860	3.921820	-4.150720	0.887876	0.197814	0.395812	-1.000000	-1.000000	-1.000000	-1.000000	-1.000000	-1.000000	-1.000000	74.965517	0.000000	-1.000000	-1.000000	1403140.000000	1772660694.894150
-27737.415000	-46194.570000	7367.580000	2368.575000	6514.020000	5200.020000	2156.760000	2061.135000	13.046099	10.559898	7.422127	6.921746	7.277496	7.187876	7.484705	16.857886	-4.272800	3.296160	-4.745860	0.886472	0.200195	0.394347	-1.000000	-1.000000	-1.000000	-1.000000	-1.000000	-1.000000	-1.000000	74.965517	0.000000	-1.000000	-1.000000	1403141.000000	1772660694.894162
-27720.540000	-46186.470000	7375.005000	2375.460000	6522.525000	5204.205000	2151.855000	2073.510000	18.751487	22.214076	19.060683	18.734199	18.182877	15.706806	6.845478	11.138620	-4.272800	3.296160	-4.745860	0.886472	0.200195	0.394347	-1.000000	-1.000000	-1.000000	-1.000000	-1.000000	-1.000000	-1.000000	74.965517	0.000000	-1.000000	-1.000000	1403142.000000	1772660694.894166
-27710.505000	-46174.770000	7386.435000	2387.340000	6532.965000	5213.790000	2166.840000	2091.420000	14.868767	22.011727	20.049576	19.704760	18.520680	15.029373	2.580366	-0.648458	-4.272800	3.296160	-4.745860	0.886472	0.200195	0.394347	-1.000000	-1.000000	-1.000000	-1.000000	-1.000000	-1.000000	-1.000000	74.965517	0.000000	-1.000000	-1.000000	1403143.000000	1772660694.897717
-27704.790000	-46166.265000	7393.860000	2391.705000	6533.055000	5213.475000	2173.635000	2095.785000	7.306122	14.348306	14.079479	13.322341	11.396663	8.458250	-1.152424	-9.206988	-4.272800	3.296160	-4.745860	0.886472	0.200195	0.394347	-1.000000	-1.000000	-1.000000	-1.000000	-1.000000	-1.000000	-1.000000	74.965517	0.000000	-1.000000	-1.000000	1403144.000000	1772660694.897724
-27700.290000	-46151.145000	7413.660000	2408.760000	6549.165000	5228.010000	2180.250000	2087.595000	2.016343	6.798187	8.255307	6.945506	4.150748	2.418117	-1.774061	-10.197325	-4.272800	3.296160	-4.745860	0.886472	0.200195	0.394347	-1.000000	-1.000000	-1.000000	-1.000000	-1.000000	-1.000000	-1.000000	74.965517	0.000000	-1.000000	-1.000000	1403145.000000	1772660694.902332
-27694.665000	-46148.670000	7416.135000	2411.595000	6552.225000	5230.395000	2180.160000	2097.225000	0.347863	2.930358	5.896288	4.353216	1.124780	0.401947	0.165605	-5.401258	-4.272800	3.296160	-4.745860	0.886472	0.200195	0.394347	-1.000000	-1.000000	-1.000000	-1.000000	-1.000000	-1.000000	-1.000000	74.965517	0.000000	-1.000000	-1.000000	1403146.000000	1772660694.902339
-27697.230000	-46156.905000	7409.160000	2408.040000	6551.505000	5230.935000	2183.985000	2113.335000	-0.618210	0.194721	4.038078	3.024870	0.558203	0.603215	2.104494	1.046737	-4.272800	3.296160	-4.745860	0.886472	0.200195	0.394347	-1.000000	-1.000000	-1.000000	-1.000000	-1.000000	-1.000000	-1.000000	74.965517	0.000000	-1.000000	-1.000000	1403147.000000	1772660694.909415
-27713.070000	-46172.745000	7393.815000	2395.710000	6540.300000	5219.640000	2179.260000	2100.555000	-2.691939	-4.165949	-0.661477	-0.352330	-0.807502	0.098999	2.486013	6.836997	-4.272800	3.296160	-4.745860	0.886472	0.200195	0.394347	-1.000000	-1.000000	-1.000000	-1.000000	-1.000000	-1.000000	-1.000000	74.965517	0.000000	-1.000000	-1.000000	1403148.000000	1772660694.909457
-27720.135000	-46183.995000	7380.360000	2383.515000	6529.185000	5209.695000	2169.000000	2082.870000	-3.914283	-8.508170	-6.867814	-5.090213	-3.260036	-1.428808	1.943018	11.666278	-4.272800	3.296160	-4.745860	0.886472	0.200195	0.394347	-1.000000	-1.000000	-1.000000	-1.000000	-1.000000	-1.000000	-1.000000	74.965517	0.000000	-1.000000	-1.000000	1403149.000000	1772660694.909690
-27706.815000	-46170.135000	7388.910000	2393.685000	6540.525000	5221.935000	2168.730000	2087.730000	-2.665710	-9.953213	-11.228057	-8.698518	-5.518944	-3.087756	1.224464	13.850917	-4.272800	3.296160	-4.745860	0.886472	0.200195	0.394347	-1.000000	-1.000000	-1.000000	-1.000000	-1.000000	-1.000000	-1.000000	74.965517	0.000000	-1.000000	-1.000000	1403150.000000	1772660694.909697
-27695.430000	-46158.345000	7403.220000	2407.455000	6555.015000	5235.840000	2179.395000	2101.500000	-0.556002	-8.077510	-12.017159	-9.861712	-6.795588	-4.311370	0.301586	10.660275	-3.494540	1.785420	-3.708180	0.883787	0.201721	0.395507	-1.000000	-1.000000	-1.000000	-1.000000	-1.000000	-1.000000	-1.000000	74.965517	0.000000	-1.000000	-1.000000	1403151.000000	1772660694.913563
-27693.675000	-46154.475000	7411.185000	2413.755000	6560.595000	5240.340000	2187.945000	2111.355000	0.258714	-4.221684	-9.106462	-8.259737	-6.458178	-4.501459	-0.806102	2.303290	-3.494540	1.785420	-3.708180	0.883787	0.201721	0.395507	-1.000000	-1.000000	-1.000000	-1.000000	-1.000000	-1.000000	-1.000000	74.965517	0.000000	-1.000000	-1.000000	1403152.000000	1772660694.913570
-27705.645000	-46159.875000	7406.055000	2408.580000	6552.765000	5231.655000	2179.575000	2107.845000	-0.623084	-0.060708	-3.539796	-4.287292	-4.149874	-3.354541	-2.053957	-7.403091	-3.494540	1.785420	-3.708180	0.883787	0.201721	0.395507	-1.000000	-1.000000	-1.000000	-1.000000	-1.000000	-1.000000	-1.000000	74.965517	0.000000	-1.000000	-1.000000	1403153.000000	1772660694.920288
-27716.895000	-46170.900000	7392.195000	2394.405000	6538.860000	5218.785000	2167.830000	2097.270000	-2.662831	2.562665	1.960699	0.145062	-1.074289	-1.834550	-3.588820	-14.063174	-3.494540	1.785420	-3.708180	0.883787	0.201721	0.395507	-1.000000	-1.000000	-1.000000	-1.000000	-1.000000	-1.000000	-1.000000	74.965517	0.000000	-1.000000	-1.000000	1403154.000000	1772660694.920295
-27711.945000	-46166.130000	7378.470000	2377.845000	6521.535000	5206.455000	2175.930000	2098.755000	-5.067331	2.398109	4.147181	2.183998	0.332058	-1.629295	-5.115735	-15.665892	-3.494540	1.785420	-3.708180	0.883787	0.201721	0.395507	-1.000000	-1.000000	-1.000000	-1.000000	-1.000000	-1.000000	-1.000000	74.965517	0.000000	-1.000000	-1.000000	1403155.000000	1772660694.922290
-27652.545000	-46108.080000	7415.100000	2410.470000	6552.900000	5236.605000	2203.560000	2150.820000	-5.233785	1.377762	3.074947	1.537156	-0.203050	-2.334701	-4.929407	-11.851338	-3.494540	1.785420	-3.708180	0.883787	0.201721	0.395507	-1.000000	-1.000000	-1.000000	-1.000000	-1.000000	-1.000000	-1.000000	74.965517	0.000000	-1.000000	-1.000000	1403156.000000	1772660694.922296
-27656.685000	-46099.620000	7428.105000	2430.945000	6573.960000	5251.770000	2199.105000	2127.150000	0.372825	3.901927	3.069300	2.023036	0.821062	-0.630148	-1.126007	-2.421401	-3.494540	1.785420	-3.708180	0.883787	0.201721	0.395507	-1.000000	-1.000000	-1.000000	-1.000000	-1.000000	-1.000000	-1.000000	74.965517	0.000000	-1.000000	-1.000000	1403157.000000	1772660694.925632
-27717.570000	-46180.395000	7373.475000	2380.995000	6524.235000	5205.015000	2164.545000	2071.170000	9.221426	8.997782	5.973024	5.572466	5.019244	4.307901	4.685615	8.683932	-3.494540	1.785420	-3.708180	0.883787	0.201721	0.395507	-1.000000	-1.000000	-1.000000	-1.000000	-1.000000	-1.000000	-1.000000	74.965517	0.000000	-1.000000	-1.000000	1403158.000000	1772660694.925636
-27695.385000	-46177.515000	7411.320000	2408.490000	6546.420000	5222.970000	2179.530000	2122.470000	12.393418	8.626567	7.529055	8.036993	8.018511	7.699211	7.791871	13.867307	-3.494540	1.785420	-3.708180	0.883787	0.201721	0.395507	-1.000000	-1.000000	-1.000000	-1.000000	-1.000000	-1.000000	-1.000000	74.965517	0.000000	-1.000000	-1.000000	1403159.000000	1772660694.931523
-27693.765000	-46155.645000	7420.590000	2418.120000	6558.435000	5237.370000	2189.880000	2127.420000	5.972698	-0.463241	4.630730	5.727110	5.961917	5.860870	5.951911	10.744359	-3.494540	1.785420	-3.708180	0.883787	0.201721	0.395507	-1.000000	-1.000000	-1.000000	-1.000000	-1.000000	-1.000000	-1.000000	74.965517	0.000000	-1.000000	-1.000000	1403160.000000	1772660694.931531
-27735.480000	-46185.795000	7381.530000	2383.110000	6528.780000	5214.105000	2174.400000	2066.085000	-5.107623	-11.560517	-1.094166	-0.066189	0.372750	0.666208	1.007709	2.526129	-0.961380	1.815940	-2.533160	0.883054	0.202331	0.394469	-1.000000	-1.000000	-1.000000	-1.000000	-1.000000	-1.000000	-1.000000	74.965517	0.000000	-1.000000	-1.000000	1403161.000000	1772660694.933896
-27700.920000	-46178.010000	7383.285000	2383.020000	6528.915000	5216.580000	2183.670000	2105.145000	-13.545604	-16.796503	-7.092673	-6.320473	-5.285795	-4.218422	-3.902751	-6.841344	-0.961380	1.815940	-2.533160	0.883054	0.202331	0.394469	-1.000000	-1.000000	-1.000000	-1.000000	-1.000000	-1.000000	-1.000000	74.965517	0.000000	-1.000000	-1.000000	1403162.000000	1772660694.933903
-27649.170000	-46134.450000	7421.580000	2419.740000	6564.780000	5254.290000	2219.940000	2178.630000	-13.278133	-12.797563	-10.084388	-9.407279	-7.569729	-5.678962	-5.542293	-11.084066	-0.961380	1.815940	-2.533160	0.883054	0.202331	0.394469	-1.000000	-1.000000	-1.000000	-1.000000	-1.000000	-1.000000	-1.000000	74.965517	0.000000	-1.000000	-1.000000	1403163.000000	1772660694.937806
-27688.050000	-46153.350000	7403.760000	2401.965000	6546.240000	5237.370000	2208.555000	2125.980000	-3.813692	-1.424330	-7.125644	-6.502090	-4.409496	-2.356539	-2.643697	-6.077859	-0.961380	1.815940	-2.533160	0.883054	0.202331	0.394469	-1.000000	-1.000000	-1.000000	-1.000000	-1.000000	-1.000000	-1.000000	74.965517	0.000000	-1.000000	-1.000000	1403164.000000	1772660694.937815
