Channel1	Channel2	Channel3	Channel4	Channel5	Channel6	Channel7	Channel8	FilteredChannel1	FilteredChannel2	FilteredChannel3	FilteredChannel4	FilteredChannel5	FilteredChannel6	FilteredChannel7	FilteredChannel8	GyroX	GyroY	GyroZ	AccX	AccY	AccZ	PPG1	PPG2	rawPPG1	rawPPG2	rawPPG3	Hr	Hrv	Battery	Trigger	PhysicalTrigger	AutoTrigger	NumMeasurements	Timestamp
8369.370000	14473.710000	24766.380000	17868.240000	-7880.220000	-4551.345000	4247.640000	11641.995000	-11.092485	-6.272398	-5.398930	-6.337296	-12.221367	-7.907892	-4.785386	-4.901089	7.309540	2.777320	4.547480	0.952268	-0.178527	0.293090	-1.000000	-1.000000	-1.000000	-1.000000	-1.000000	-1.000000	-1.000000	84.137931	0.000000	-1.000000	-1.000000	826527.000000	1770063149.001159
8367.705000	14473.935000	24764.445000	17860.950000	-7895.655000	-4559.130000	4246.200000	11639.565000	-8.345495	2.410949	2.519926	0.569554	-7.050986	-4.057695	-0.863292	-4.220774	7.309540	2.777320	4.547480	0.952268	-0.178527	0.293090	-1.000000	-1.000000	-1.000000	-1.000000	-1.000000	-1.000000	-1.000000	84.137931	0.000000	-1.000000	-1.000000	826528.000000	1770063149.001178
8361.900000	14463.225000	24752.880000	17851.815000	-7896.195000	-4565.880000	4237.785000	11634.435000	-3.596726	7.202353	6.508713	4.243826	-2.741104	-0.510160	2.568829	-0.988161	7.309540	2.777320	4.547480	0.952268	-0.178527	0.293090	-1.000000	-1.000000	-1.000000	-1.000000	-1.000000	-1.000000	-1.000000	84.137931	0.000000	-1.000000	-1.000000	826529.000000	1770063149.001396
8359.380000	14470.155000	24763.455000	17865.990000	-7875.585000	-4556.970000	4235.535000	11632.230000	-0.607762	5.424366	4.550314	3.113777	-0.908826	1.045423	3.894900	2.493472	7.309540	2.777320	4.547480	0.952268	-0.178527	0.293090	-1.000000	-1.000000	-1.000000	-1.000000	-1.000000	-1.000000	-1.000000	84.137931	0.000000	-1.000000	-1.000000	826530.000000	1770063149.001405
8363.295000	14480.280000	24772.185000	17872.155000	-7865.370000	-4553.505000	4235.490000	11633.220000	-0.295911	0.531249	0.270262	0.536022	1.008806	1.648663	3.405255	4.263334	5.936140	1.968540	4.349100	0.949644	-0.177490	0.295654	-1.000000	-1.000000	-1.000000	-1.000000	-1.000000	-1.000000	-1.000000	84.137931	0.000000	-1.000000	-1.000000	826531.000000	1770063149.002994
8368.470000	14477.535000	24770.205000	17870.715000	-7872.480000	-4555.215000	4240.485000	11644.920000	-0.133918	-1.751408	-1.133949	0.546362	4.758399	2.883912	2.714116	4.507215	5.936140	1.968540	4.349100	0.949644	-0.177490	0.295654	-1.000000	-1.000000	-1.000000	-1.000000	-1.000000	-1.000000	-1.000000	84.137931	0.000000	-1.000000	-1.000000	826532.000000	1770063149.003003
8366.985000	14475.420000	24773.805000	17882.820000	-7867.305000	-4540.005000	4248.810000	11648.160000	2.362065	0.030407	1.203411	3.283973	8.299852	4.634419	2.747012	4.579115	5.936140	1.968540	4.349100	0.949644	-0.177490	0.295654	-1.000000	-1.000000	-1.000000	-1.000000	-1.000000	-1.000000	-1.000000	84.137931	0.000000	-1.000000	-1.000000	826533.000000	1770063149.020917
8374.860000	14488.830000	24782.085000	17890.830000	-7836.840000	-4529.880000	4245.885000	11636.370000	6.377478	2.756824	3.977100	5.849329	8.891338	5.721234	2.912631	4.654351	5.936140	1.968540	4.349100	0.949644	-0.177490	0.295654	-1.000000	-1.000000	-1.000000	-1.000000	-1.000000	-1.000000	-1.000000	84.137931	0.000000	-1.000000	-1.000000	826534.000000	1770063149.020930
8365.860000	14483.295000	24778.260000	17884.080000	-7856.100000	-4538.430000	4247.280000	11603.160000	8.688148	3.255598	4.033815	5.575727	6.242536	5.114781	2.108867	3.212658	5.936140	1.968540	4.349100	0.949644	-0.177490	0.295654	-1.000000	-1.000000	-1.000000	-1.000000	-1.000000	-1.000000	-1.000000	84.137931	0.000000	-1.000000	-1.000000	826535.000000	1770063149.021210
8353.800000	14474.430000	24770.205000	17869.815000	-7906.500000	-4554.855000	4252.095000	11607.570000	6.721690	0.500734	0.610901	1.541660	0.645507	2.085126	0.173203	-0.677615	5.936140	1.968540	4.349100	0.949644	-0.177490	0.295654	-1.000000	-1.000000	-1.000000	-1.000000	-1.000000	-1.000000	-1.000000	84.137931	0.000000	-1.000000	-1.000000	826536.000000	1770063149.021221
8344.710000	14479.020000	24774.975000	17873.685000	-7897.995000	-4544.775000	4264.920000	11651.445000	0.646181	-4.304110	-4.638115	-4.779850	-7.270920	-2.744476	-1.724360	-4.549915	5.936140	1.968540	4.349100	0.949644	-0.177490	0.295654	-1.000000	-1.000000	-1.000000	-1.000000	-1.000000	-1.000000	-1.000000	84.137931	0.000000	-1.000000	-1.000000	826537.000000	1770063149.021234
8358.930000	14491.935000	24787.980000	17888.040000	-7874.055000	-4535.595000	4265.415000	11654.460000	-6.317695	-7.985608	-8.382401	-9.685570	-13.477831	-6.634817	-2.231286	-4.290286	5.936140	1.968540	4.349100	0.949644	-0.177490	0.295654	-1.000000	-1.000000	-1.000000	-1.000000	-1.000000	-1.000000	-1.000000	84.137931	0.000000	-1.000000	-1.000000	826538.000000	1770063149.021239
8375.220000	14493.555000	24782.445000	17871.660000	-7900.605000	-4564.305000	4237.470000	11635.200000	-9.672098	-7.591092	-8.018781	-10.139390	-13.452270	-7.460833	-1.645109	0.023473	5.936140	1.968540	4.349100	0.949644	-0.177490	0.295654	-1.000000	-1.000000	-1.000000	-1.000000	-1.000000	-1.000000	-1.000000	84.137931	0.000000	-1.000000	-1.000000	826539.000000	1770063149.021245
8331.525000	14464.890000	24756.210000	17851.185000	-7918.380000	-4578.390000	4222.215000	11606.670000	-7.667130	-3.461037	-4.281312	-6.753990	-7.857926	-6.182399	-1.946333	3.279165	5.936140	1.968540	4.349100	0.949644	-0.177490	0.295654	-1.000000	-1.000000	-1.000000	-1.000000	-1.000000	-1.000000	-1.000000	84.137931	0.000000	-1.000000	-1.000000	826540.000000	1770063149.021250
8316.270000	14436.540000	24730.245000	17831.520000	-7930.215000	-4590.315000	4222.710000	11638.260000	-3.351670	0.721901	-0.614088	-2.661006	-0.896385	-4.731432	-4.061289	1.800199	6.836480	1.052940	3.952340	0.946775	-0.178222	0.298339	-1.000000	-1.000000	-1.000000	-1.000000	-1.000000	-1.000000	-1.000000	84.137931	0.000000	-1.000000	-1.000000	826541.000000	1770063149.023054
8352.855000	14448.240000	24736.635000	17835.885000	-7922.835000	-4583.745000	4234.410000	11644.920000	0.034944	1.934776	0.490750	-0.154669	4.305192	-3.504927	-6.090028	-2.111742	6.836480	1.052940	3.952340	0.946775	-0.178222	0.298339	-1.000000	-1.000000	-1.000000	-1.000000	-1.000000	-1.000000	-1.000000	84.137931	0.000000	-1.000000	-1.000000	826542.000000	1770063149.023060
8377.920000	14445.180000	24733.845000	17838.585000	-7905.195000	-4569.705000	4235.670000	11641.185000	3.225639	0.875033	-0.136519	1.047612	7.062990	-1.416008	-5.218076	-3.689683	6.836480	1.052940	3.952340	0.946775	-0.178222	0.298339	-1.000000	-1.000000	-1.000000	-1.000000	-1.000000	-1.000000	-1.000000	84.137931	0.000000	-1.000000	-1.000000	826543.000000	1770063149.027337
8375.625000	14448.915000	24738.795000	17844.390000	-7888.365000	-4571.010000	4223.430000	11637.135000	7.523980	0.201573	0.041648	2.786355	8.989716	2.701685	-1.063624	-1.256725	6.836480	1.052940	3.952340	0.946775	-0.178222	0.298339	-1.000000	-1.000000	-1.000000	-1.000000	-1.000000	-1.000000	-1.000000	84.137931	0.000000	-1.000000	-1.000000	826544.000000	1770063149.027347
8342.325000	14461.920000	24750.900000	17851.230000	-7868.610000	-4567.140000	4219.650000	11623.680000	10.625629	1.624832	2.500317	6.045486	12.153227	8.117356	3.617296	2.428609	6.836480	1.052940	3.952340	0.946775	-0.178222	0.298339	-1.000000	-1.000000	-1.000000	-1.000000	-1.000000	-1.000000	-1.000000	84.137931	0.000000	-1.000000	-1.000000	826545.000000	1770063149.031086
8341.830000	14449.545000	24739.785000	17844.030000	-7877.475000	-4563.720000	4227.030000	11622.825000	8.675471	4.529199	6.220707	9.350100	15.105054	11.902339	5.940825	2.875584	6.836480	1.052940	3.952340	0.946775	-0.178222	0.298339	-1.000000	-1.000000	-1.000000	-1.000000	-1.000000	-1.000000	-1.000000	84.137931	0.000000	-1.000000	-1.000000	826546.000000	1770063149.031092
8345.700000	14443.695000	24733.710000	17837.055000	-7913.430000	-4571.595000	4234.860000	11628.090000	1.261481	6.131040	8.108660	9.645625	12.493820	11.267722	5.809297	-0.938795	6.836480	1.052940	3.952340	0.946775	-0.178222	0.298339	-1.000000	-1.000000	-1.000000	-1.000000	-1.000000	-1.000000	-1.000000	84.137931	0.000000	-1.000000	-1.000000	826547.000000	1770063149.035185
8343.450000	14457.735000	24745.950000	17840.970000	-7949.745000	-4594.950000	4227.705000	11621.970000	-7.379144	4.741067	6.438149	5.864777	1.386875	5.991322	5.157318	-4.926000	6.836480	1.052940	3.952340	0.946775	-0.178222	0.298339	-1.000000	-1.000000	-1.000000	-1.000000	-1.000000	-1.000000	-1.000000	84.137931	0.000000	-1.000000	-1.000000	826548.000000	1770063149.035195
8340.435000	14470.830000	24759.180000	17856.180000	-7919.505000	-4573.890000	4237.110000	11614.635000	-11.564891	2.525670	3.449296	0.875964	-13.131477	-1.143445	5.041570	-5.087095	6.836480	1.052940	3.952340	0.946775	-0.178222	0.298339	-1.000000	-1.000000	-1.000000	-1.000000	-1.000000	-1.000000	-1.000000	84.137931	0.000000	-1.000000	-1.000000	826549.000000	1770063149.041620
8342.640000	14488.425000	24776.190000	17875.935000	-7883.055000	-4543.965000	4253.670000	11604.870000	-8.771522	2.592462	2.393454	-1.539461	-20.924665	-5.804858	4.738185	-2.195816	6.836480	1.052940	3.952340	0.946775	-0.178222	0.298339	-1.000000	-1.000000	-1.000000	-1.000000	-1.000000	-1.000000	-1.000000	84.137931	0.000000	-1.000000	-1.000000	826550.000000	1770063149.041631
8370.810000	14513.445000	24797.745000	17890.965000	-7875.585000	-4549.590000	4244.085000	11600.910000	-1.821062	4.704778	3.440177	-0.650742	-16.430625	-5.727286	2.971476	0.415612	5.783540	1.510740	3.402980	0.945371	-0.173950	0.297179	-1.000000	-1.000000	-1.000000	-1.000000	-1.000000	-1.000000	-1.000000	84.137931	0.000000	-1.000000	-1.000000	826551.000000	1770063149.043187
8364.195000	14472.450000	24766.875000	17871.615000	-7879.995000	-4551.705000	4236.975000	11626.875000	4.226921	5.272395	3.605124	0.769258	-4.103196	-3.135409	-0.901509	1.950337	5.783540	1.510740	3.402980	0.945371	-0.173950	0.297179	-1.000000	-1.000000	-1.000000	-1.000000	-1.000000	-1.000000	-1.000000	84.137931	0.000000	-1.000000	-1.000000	826552.000000	1770063149.043196
8350.740000	14443.380000	24743.880000	17852.805000	-7895.970000	-4556.520000	4238.010000	11642.985000	6.351831	0.373183	-0.585539	-0.888753	6.642490	-1.618147	-5.753442	4.349355	5.783540	1.510740	3.402980	0.945371	-0.173950	0.297179	-1.000000	-1.000000	-1.000000	-1.000000	-1.000000	-1.000000	-1.000000	84.137931	0.000000	-1.000000	-1.000000	826553.000000	1770063149.047133
8372.970000	14443.380000	24733.710000	17838.765000	-7918.740000	-4570.245000	4237.335000	11661.345000	5.155810	-9.772924	-9.300312	-6.513956	9.291847	-2.496020	-9.063202	8.103041	5.783540	1.510740	3.402980	0.945371	-0.173950	0.297179	-1.000000	-1.000000	-1.000000	-1.000000	-1.000000	-1.000000	-1.000000	84.137931	0.000000	-1.000000	-1.000000	826554.000000	1770063149.047143
8370.855000	14451.390000	24738.435000	17842.680000	-7913.250000	-4571.190000	4241.385000	11670.660000	3.198532	-18.803810	-17.534401	-12.743160	4.050261	-4.881953	-9.156732	10.726081	5.783540	1.510740	3.402980	0.945371	-0.173950	0.297179	-1.000000	-1.000000	-1.000000	-1.000000	-1.000000	-1.000000	-1.000000	84.137931	0.000000	-1.000000	-1.000000	826555.000000	1770063149.051006
8363.880000	14459.490000	24746.400000	17850.555000	-7903.620000	-4560.705000	4243.230000	11647.575000	1.421725	-19.403267	-18.813558	-14.335725	-2.480192	-6.136453	-6.063512	9.132286	5.783540	1.510740	3.402980	0.945371	-0.173950	0.297179	-1.000000	-1.000000	-1.000000	-1.000000	-1.000000	-1.000000	-1.000000	84.137931	0.000000	-1.000000	-1.000000	826556.000000	1770063149.051013
8364.510000	14469.390000	24755.805000	17860.770000	-7886.475000	-4550.040000	4245.525000	11643.255000	-0.715590	-10.109577	-10.975113	-8.657827	-3.140306	-3.374777	-0.910780	2.435877	5.783540	1.510740	3.402980	0.945371	-0.173950	0.297179	-1.000000	-1.000000	-1.000000	-1.000000	-1.000000	-1.000000	-1.000000	84.137931	0.000000	-1.000000	-1.000000	826557.000000	1770063149.056492
8361.045000	14471.730000	24757.740000	17857.530000	-7889.625000	-4558.905000	4238.280000	11636.145000	-2.706862	3.948126	2.077084	1.648237	2.203882	2.567722	3.983745	-6.768550	5.783540	1.510740	3.402980	0.945371	-0.173950	0.297179	-1.000000	-1.000000	-1.000000	-1.000000	-1.000000	-1.000000	-1.000000	84.137931	0.000000	-1.000000	-1.000000	826558.000000	1770063149.056502
8373.240000	14488.335000	24772.635000	17865.180000	-7901.370000	-4580.145000	4227.885000	11639.430000	-3.771128	15.184108	13.387990	10.485681	6.740832	6.542948	5.739103	-13.845851	5.783540	1.510740	3.402980	0.945371	-0.173950	0.297179	-1.000000	-1.000000	-1.000000	-1.000000	-1.000000	-1.000000	-1.000000	84.137931	0.000000	-1.000000	-1.000000	826559.000000	1770063149.059152
8355.285000	14456.925000	24747.615000	17856.135000	-7899.615000	-4563.990000	4239.180000	11638.575000	-4.428679	18.156628	17.466325	13.190553	4.915023	5.033936	3.770151	-15.249697	5.783540	1.510740	3.402980	0.945371	-0.173950	0.297179	-1.000000	-1.000000	-1.000000	-1.000000	-1.000000	-1.000000	-1.000000	84.137931	0.000000	-1.000000	-1.000000	826560.000000	1770063149.059161
8358.660000	14460.345000	24752.025000	17860.995000	-7893.270000	-4559.040000	4243.005000	11644.740000	-5.101514	12.734998	13.547057	9.863794	-1.614556	0.535226	0.896951	-10.874068	2.487380	1.083460	2.929920	0.942930	-0.171630	0.297424	-1.000000	-1.000000	-1.000000	-1.000000	-1.000000	-1.000000	-1.000000	84.137931	0.000000	-1.000000	-1.000000	826561.000000	1770063149.064122
8356.185000	14461.200000	24753.645000	17861.895000	-7896.960000	-4562.010000	4235.625000	11631.330000	-4.511307	3.892761	5.710269	4.333784	-6.798563	-2.173065	-0.158163	-3.914618	2.487380	1.083460	2.929920	0.942930	-0.171630	0.297424	-1.000000	-1.000000	-1.000000	-1.000000	-1.000000	-1.000000	-1.000000	84.137931	0.000000	-1.000000	-1.000000	826562.000000	1770063149.064131
8355.375000	14469.030000	24763.725000	17873.055000	-7885.530000	-4553.010000	4234.005000	11619.810000	-1.727924	-2.894370	-0.874699	0.381567	-6.563331	-1.237762	0.344409	1.540372	2.487380	1.083460	2.929920	0.942930	-0.171630	0.297424	-1.000000	-1.000000	-1.000000	-1.000000	-1.000000	-1.000000	-1.000000	84.137931	0.000000	-1.000000	-1.000000	826563.000000	1770063149.068621
8347.635000	14466.420000	24760.035000	17868.735000	-7887.645000	-4556.115000	4231.575000	11610.765000	1.872564	-5.685404	-3.927685	-0.997332	-1.504652	1.883087	0.710664	3.497314	2.487380	1.083460	2.929920	0.942930	-0.171630	0.297424	-1.000000	-1.000000	-1.000000	-1.000000	-1.000000	-1.000000	-1.000000	84.137931	0.000000	-1.000000	-1.000000	826564.000000	1770063149.068631
8350.605000	14463.945000	24753.870000	17860.455000	-7894.935000	-4563.360000	4232.835000	11628.180000	4.474907	-5.740232	-4.576295	-1.486408	4.365245	4.261318	0.242804	3.707636	2.487380	1.083460	2.929920	0.942930	-0.171630	0.297424	-1.000000	-1.000000	-1.000000	-1.000000	-1.000000	-1.000000	-1.000000	84.137931	0.000000	-1.000000	-1.000000	826565.000000	1770063149.071167
8356.905000	14465.160000	24752.385000	17859.330000	-7894.170000	-4561.605000	4243.005000	11628.900000	5.706327	-4.996190	-4.937178	-3.041094	6.647573	3.590060	-0.407365	5.330341	2.487380	1.083460	2.929920	0.942930	-0.171630	0.297424	-1.000000	-1.000000	-1.000000	-1.000000	-1.000000	-1.000000	-1.000000	84.137931	0.000000	-1.000000	-1.000000	826566.000000	1770063149.071173
8361.315000	14474.565000	24760.485000	17865.045000	-7883.730000	-4551.165000	4252.860000	11622.555000	5.860325	-4.249930	-5.629413	-5.499145	4.037898	0.328761	-0.177523	8.510649	2.487380	1.083460	2.929920	0.942930	-0.171630	0.297424	-1.000000	-1.000000	-1.000000	-1.000000	-1.000000	-1.000000	-1.000000	84.137931	0.000000	-1.000000	-1.000000	826567.000000	1770063149.074983
8360.640000	14483.205000	24768.450000	17869.770000	-7873.155000	-4553.730000	4244.670000	11625.840000	4.650019	-3.097221	-5.568520	-6.879946	-0.667192	-2.731371	1.089839	10.267137	2.487380	1.083460	2.929920	0.942930	-0.171630	0.297424	-1.000000	-1.000000	-1.000000	-1.000000	-1.000000	-1.000000	-1.000000	84.137931	0.000000	-1.000000	-1.000000	826568.000000	1770063149.074995
8355.690000	14475.330000	24765.435000	17867.205000	-7871.175000	-4563.405000	4234.635000	11643.165000	1.919278	-0.680194	-3.325027	-5.522657	-3.695718	-3.910610	1.885265	8.450330	2.487380	1.083460	2.929920	0.942930	-0.171630	0.297424	-1.000000	-1.000000	-1.000000	-1.000000	-1.000000	-1.000000	-1.000000	84.137931	0.000000	-1.000000	-1.000000	826569.000000	1770063149.079112
8361.405000	14461.380000	24754.905000	17861.265000	-7884.900000	-4561.155000	4241.520000	11655.045000	-1.212478	2.691066	0.894518	-1.691281	-3.873172	-3.823196	0.729013	3.872938	2.487380	1.083460	2.929920	0.942930	-0.171630	0.297424	-1.000000	-1.000000	-1.000000	-1.000000	-1.000000	-1.000000	-1.000000	84.137931	0.000000	-1.000000	-1.000000	826570.000000	1770063149.079118
8365.140000	14468.940000	24757.920000	17858.205000	-7928.100000	-4581.540000	4231.440000	11643.075000	-3.172331	4.879685	4.627369	2.482676	-3.106241	-3.333172	-1.682862	-1.210775	3.128300	1.480220	2.960440	0.944150	-0.172790	0.296386	-1.000000	-1.000000	-1.000000	-1.000000	-1.000000	-1.000000	-1.000000	84.137931	0.000000	-1.000000	-1.000000	826571.000000	1770063149.083127
8351.460000	14460.660000	24750.270000	17853.885000	-7915.275000	-4571.325000	4232.160000	11629.575000	-3.522989	4.256512	5.505461	4.699627	-3.624283	-2.656636	-3.534196	-5.396336	3.128300	1.480220	2.960440	0.944150	-0.172790	0.296386	-1.000000	-1.000000	-1.000000	-1.000000	-1.000000	-1.000000	-1.000000	84.137931	0.000000	-1.000000	-1.000000	826572.000000	1770063149.083133
8347.545000	14458.050000	24747.120000	17851.230000	-7907.355000	-4566.915000	4235.895000	11619.225000	-3.067679	1.283361	3.319603	4.245335	-4.420018	-1.287753	-3.672864	-8.327205	3.128300	1.480220	2.960440	0.944150	-0.172790	0.296386	-1.000000	-1.000000	-1.000000	-1.000000	-1.000000	-1.000000	-1.000000	84.137931	0.000000	-1.000000	-1.000000	826573.000000	1770063149.088554
8347.455000	14458.275000	24745.860000	17850.960000	-7906.860000	-4575.015000	4230.180000	11596.635000	-2.549076	-2.192630	-0.187952	2.239255	-2.604615	1.229638	-2.079342	-9.963714	3.128300	1.480220	2.960440	0.944150	-0.172790	0.296386	-1.000000	-1.000000	-1.000000	-1.000000	-1.000000	-1.000000	-1.000000	84.137931	0.000000	-1.000000	-1.000000	826574.000000	1770063149.088560
8354.790000	14469.390000	24757.200000	17865.405000	-7890.165000	-4563.495000	4232.745000	11598.210000	-1.931229	-4.093996	-2.669496	0.498203	2.117891	3.900735	0.025068	-10.089961	3.128300	1.480220	2.960440	0.944150	-0.172790	0.296386	-1.000000	-1.000000	-1.000000	-1.000000	-1.000000	-1.000000	-1.000000	84.137931	0.000000	-1.000000	-1.000000	826575.000000	1770063149.091184
8366.085000	14473.035000	24761.070000	17869.230000	-7885.170000	-4558.950000	4237.020000	11615.760000	-0.810932	-3.506531	-2.858552	0.114073	7.143118	5.316681	1.403519	-7.481123	3.128300	1.480220	2.960440	0.944150	-0.172790	0.296386	-1.000000	-1.000000	-1.000000	-1.000000	-1.000000	-1.000000	-1.000000	84.137931	0.000000	-1.000000	-1.000000	826576.000000	1770063149.091193
8354.700000	14463.810000	24754.050000	17864.010000	-7885.170000	-4556.790000	4241.700000	11639.880000	0.844270	-1.224853	-1.289905	0.690875	9.445771	5.096232	2.167668	-1.069968	3.128300	1.480220	2.960440	0.944150	-0.172790	0.296386	-1.000000	-1.000000	-1.000000	-1.000000	-1.000000	-1.000000	-1.000000	84.137931	0.000000	-1.000000	-1.000000	826577.000000	1770063149.095118
8338.230000	14447.700000	24740.820000	17851.950000	-7893.720000	-4569.930000	4231.530000	11656.845000	2.085378	1.198193	0.537880	0.917813	7.488207	3.368982	2.785815	7.384780	3.128300	1.480220	2.960440	0.944150	-0.172790	0.296386	-1.000000	-1.000000	-1.000000	-1.000000	-1.000000	-1.000000	-1.000000	84.137931	0.000000	-1.000000	-1.000000	826578.000000	1770063149.095139
8330.220000	14439.330000	24735.060000	17851.995000	-7884.090000	-4566.780000	4226.130000	11645.235000	1.556809	2.411464	1.359151	0.030758	2.737111	0.525069	2.722814	13.526270	3.128300	1.480220	2.960440	0.944150	-0.172790	0.296386	-1.000000	-1.000000	-1.000000	-1.000000	-1.000000	-1.000000	-1.000000	84.137931	0.000000	-1.000000	-1.000000	826579.000000	1770063149.100730
8343.045000	14446.395000	24738.480000	17849.475000	-7887.285000	-4567.320000	4227.840000	11639.880000	-0.473390	1.973431	0.938542	-1.444900	-1.220376	-2.222351	1.470782	13.765013	3.128300	1.480220	2.960440	0.944150	-0.172790	0.296386	-1.000000	-1.000000	-1.000000	-1.000000	-1.000000	-1.000000	-1.000000	84.137931	0.000000	-1.000000	-1.000000	826580.000000	1770063149.100740
8368.425000	14477.355000	24769.710000	17879.760000	-7856.595000	-4536.990000	4253.895000	11647.035000	-1.258326	1.245782	0.583302	-1.981629	-2.246150	-3.279014	0.048483	8.361047	3.219860	1.571780	2.639980	0.945615	-0.174560	0.293639	-1.000000	-1.000000	-1.000000	-1.000000	-1.000000	-1.000000	-1.000000	84.137931	0.000000	-1.000000	-1.000000	826581.000000	1770063149.103245
8371.800000	14484.555000	24779.610000	17892.585000	-7841.610000	-4522.365000	4263.795000	11643.705000	1.438181	2.276695	2.093334	-0.080182	-0.895009	-1.710265	0.125455	0.970628	3.219860	1.571780	2.639980	0.945615	-0.174560	0.293639	-1.000000	-1.000000	-1.000000	-1.000000	-1.000000	-1.000000	-1.000000	84.137931	0.000000	-1.000000	-1.000000	826582.000000	1770063149.103255
8352.855000	14456.520000	24746.940000	17852.400000	-7896.825000	-4566.195000	4236.705000	11632.410000	5.569621	4.266160	4.519024	3.032165	0.123563	1.068082	1.355536	-4.835839	3.219860	1.571780	2.639980	0.945615	-0.174560	0.293639	-1.000000	-1.000000	-1.000000	-1.000000	-1.000000	-1.000000	-1.000000	84.137931	0.000000	-1.000000	-1.000000	826583.000000	1770063149.107026
8321.085000	14429.160000	24719.310000	17825.715000	-7930.080000	-4590.540000	4218.210000	11621.970000	5.969817	3.187395	3.624840	2.819730	-3.224398	0.923778	0.862084	-8.007549	3.219860	1.571780	2.639980	0.945615	-0.174560	0.293639	-1.000000	-1.000000	-1.000000	-1.000000	-1.000000	-1.000000	-1.000000	84.137931	0.000000	-1.000000	-1.000000	826584.000000	1770063149.107034
8333.415000	14449.185000	24736.410000	17839.035000	-7919.550000	-4585.905000	4220.820000	11625.255000	0.297570	-2.554515	-2.376092	-2.675995	-11.134361	-3.997823	-2.875826	-9.378893	3.219860	1.571780	2.639980	0.945615	-0.174560	0.293639	-1.000000	-1.000000	-1.000000	-1.000000	-1.000000	-1.000000	-1.000000	84.137931	0.000000	-1.000000	-1.000000	826585.000000	1770063149.111220
8347.860000	14457.060000	24744.510000	17848.350000	-7919.820000	-4581.360000	4232.430000	11640.420000	-7.028399	-8.280341	-8.741138	-8.642951	-17.093556	-9.494590	-7.061132	-9.526297	3.219860	1.571780	2.639980	0.945615	-0.174560	0.293639	-1.000000	-1.000000	-1.000000	-1.000000	-1.000000	-1.000000	-1.000000	84.137931	0.000000	-1.000000	-1.000000	826586.000000	1770063149.111228
8343.765000	14452.875000	24741.855000	17852.625000	-7904.025000	-4571.595000	4235.085000	11630.385000	-9.231737	-8.178673	-9.318443	-8.764879	-14.226313	-9.642831	-7.383303	-7.965941	3.219860	1.571780	2.639980	0.945615	-0.174560	0.293639	-1.000000	-1.000000	-1.000000	-1.000000	-1.000000	-1.000000	-1.000000	84.137931	0.000000	-1.000000	-1.000000	826587.000000	1770063149.115177
8349.480000	14459.355000	24748.110000	17859.735000	-7884.360000	-4562.505000	4231.215000	11626.290000	-4.672364	-2.050639	-3.369852	-2.101751	-1.895758	-2.827722	-2.752427	-4.219038	3.219860	1.571780	2.639980	0.945615	-0.174560	0.293639	-1.000000	-1.000000	-1.000000	-1.000000	-1.000000	-1.000000	-1.000000	84.137931	0.000000	-1.000000	-1.000000	826588.000000	1770063149.115183
8351.460000	14459.985000	24748.785000	17858.160000	-7883.370000	-4563.180000	4226.760000	11620.980000	2.460648	5.185715	4.538491	6.667302	13.776540	6.946084	3.559212	1.144533	3.219860	1.571780	2.639980	0.945615	-0.174560	0.293639	-1.000000	-1.000000	-1.000000	-1.000000	-1.000000	-1.000000	-1.000000	84.137931	0.000000	-1.000000	-1.000000	826589.000000	1770063149.119031
8357.355000	14460.705000	24746.670000	17850.375000	-7904.790000	-4568.310000	4235.175000	11634.885000	6.926585	8.229925	8.808569	11.288423	23.215059	13.011449	7.003828	6.526986	3.219860	1.571780	2.639980	0.945615	-0.174560	0.293639	-1.000000	-1.000000	-1.000000	-1.000000	-1.000000	-1.000000	-1.000000	84.137931	0.000000	-1.000000	-1.000000	826590.000000	1770063149.119040
8348.580000	14457.465000	24745.230000	17849.610000	-7933.500000	-4569.975000	4245.570000	11643.435000	6.446311	5.462482	7.065437	8.786432	19.960001	11.532524	6.082131	10.442208	3.418240	0.595140	2.426340	0.944089	-0.175659	0.293395	-1.000000	-1.000000	-1.000000	-1.000000	-1.000000	-1.000000	-1.000000	84.137931	0.000000	-1.000000	-1.000000	826591.000000	1770063149.123171
8342.775000	14470.605000	24763.680000	17874.135000	-7892.910000	-4544.505000	4252.905000	11620.170000	2.566427	0.179696	2.215790	2.472976	7.336189	5.352870	3.422324	11.782310	3.418240	0.595140	2.426340	0.944089	-0.175659	0.293395	-1.000000	-1.000000	-1.000000	-1.000000	-1.000000	-1.000000	-1.000000	84.137931	0.000000	-1.000000	-1.000000	826592.000000	1770063149.123181
8356.635000	14486.850000	24779.970000	17893.935000	-7853.580000	-4524.840000	4254.210000	11598.570000	-1.225304	-2.647491	-0.607343	-1.338732	-3.624076	0.811817	2.107149	8.979348	3.418240	0.595140	2.426340	0.944089	-0.175659	0.293395	-1.000000	-1.000000	-1.000000	-1.000000	-1.000000	-1.000000	-1.000000	84.137931	0.000000	-1.000000	-1.000000	826593.000000	1770063149.127097
8356.770000	14502.060000	24789.735000	17895.060000	-7872.345000	-4548.240000	4236.435000	11599.605000	-2.559930	-1.260128	0.341946	-0.432811	-5.881150	0.203609	1.864417	1.507494	3.418240	0.595140	2.426340	0.944089	-0.175659	0.293395	-1.000000	-1.000000	-1.000000	-1.000000	-1.000000	-1.000000	-1.000000	84.137931	0.000000	-1.000000	-1.000000	826594.000000	1770063149.127107
8330.670000	14479.155000	24766.425000	17870.895000	-7900.020000	-4567.635000	4230.945000	11614.095000	-2.187154	1.712701	2.130752	1.469745	-3.091295	-0.162041	0.102240	-7.531643	3.418240	0.595140	2.426340	0.944089	-0.175659	0.293395	-1.000000	-1.000000	-1.000000	-1.000000	-1.000000	-1.000000	-1.000000	84.137931	0.000000	-1.000000	-1.000000	826595.000000	1770063149.131219
8354.070000	14456.655000	24743.835000	17845.200000	-7932.690000	-4582.620000	4235.625000	11657.745000	-2.041352	2.135464	0.811310	-0.420441	-3.143968	-4.073174	-3.761260	-12.010654	3.418240	0.595140	2.426340	0.944089	-0.175659	0.293395	-1.000000	-1.000000	-1.000000	-1.000000	-1.000000	-1.000000	-1.000000	84.137931	0.000000	-1.000000	-1.000000	826596.000000	1770063149.131226
8364.645000	14443.380000	24732.810000	17837.820000	-7934.445000	-4581.675000	4234.410000	11648.250000	-1.941520	-1.901817	-4.592298	-6.768195	-8.817794	-10.417487	-7.054476	-7.845100	3.418240	0.595140	2.426340	0.944089	-0.175659	0.293395	-1.000000	-1.000000	-1.000000	-1.000000	-1.000000	-1.000000	-1.000000	84.137931	0.000000	-1.000000	-1.000000	826597.000000	1770063149.135160
8368.740000	14439.285000	24730.515000	17842.635000	-7914.510000	-4573.035000	4230.675000	11649.555000	-0.762182	-8.266974	-11.014843	-13.234020	-15.241923	-14.396203	-7.313279	1.859221	3.418240	0.595140	2.426340	0.944089	-0.175659	0.293395	-1.000000	-1.000000	-1.000000	-1.000000	-1.000000	-1.000000	-1.000000	84.137931	0.000000	-1.000000	-1.000000	826598.000000	1770063149.135166
8366.040000	14458.995000	24749.640000	17860.230000	-7895.430000	-4559.625000	4239.045000	11644.920000	0.963241	-12.081498	-13.492744	-14.064393	-14.620017	-11.913297	-4.733956	9.270448	3.418240	0.595140	2.426340	0.944089	-0.175659	0.293395	-1.000000	-1.000000	-1.000000	-1.000000	-1.000000	-1.000000	-1.000000	84.137931	0.000000	-1.000000	-1.000000	826599.000000	1770063149.139206
8363.655000	14471.595000	24759.855000	17866.755000	-7887.240000	-4554.315000	4242.870000	11645.730000	2.016889	-9.181393	-8.781128	-6.936653	-3.937077	-2.931911	-0.842681	9.457217	3.418240	0.595140	2.426340	0.944089	-0.175659	0.293395	-1.000000	-1.000000	-1.000000	-1.000000	-1.000000	-1.000000	-1.000000	84.137931	0.000000	-1.000000	-1.000000	826600.000000	1770063149.139216
8370.180000	14468.220000	24756.030000	17864.775000	-7883.100000	-4543.740000	4252.770000	11657.025000	2.151958	-0.080222	1.390202	4.542371	10.957470	8.055797	3.115871	4.081386	2.197440	1.663340	1.541260	0.945127	-0.175537	0.291137	-1.000000	-1.000000	-1.000000	-1.000000	-1.000000	-1.000000	-1.000000	84.137931	0.000000	-1.000000	-1.000000	826601.000000	1770063149.143252
8384.760000	14489.685000	24776.955000	17879.940000	-7882.020000	-4546.395000	4251.375000	11661.345000	1.747135	9.708251	11.046893	13.473778	19.907535	15.055389	6.178738	-1.622444	2.197440	1.663340	1.541260	0.945127	-0.175537	0.291137	-1.000000	-1.000000	-1.000000	-1.000000	-1.000000	-1.000000	-1.000000	84.137931	0.000000	-1.000000	-1.000000	826602.000000	1770063149.143262
8388.810000	14498.505000	24789.510000	17896.095000	-7866.630000	-4535.820000	4253.400000	11651.670000	1.281142	14.782594	15.398926	15.827922	18.159326	15.264522	7.491733	-4.677508	2.197440	1.663340	1.541260	0.945127	-0.175537	0.291137	-1.000000	-1.000000	-1.000000	-1.000000	-1.000000	-1.000000	-1.000000	84.137931	0.000000	-1.000000	-1.000000	826603.000000	1770063149.147390
8375.355000	14486.580000	24777.495000	17886.960000	-7867.080000	-4532.940000	4252.320000	11631.510000	0.956045	13.824766	13.987485	12.717597	9.636721	10.515520	6.542720	-6.409373	2.197440	1.663340	1.541260	0.945127	-0.175537	0.291137	-1.000000	-1.000000	-1.000000	-1.000000	-1.000000	-1.000000	-1.000000	84.137931	0.000000	-1.000000	-1.000000	826604.000000	1770063149.147401
8362.080000	14465.475000	24753.690000	17863.740000	-7883.505000	-4539.015000	4254.480000	11631.735000	-0.296711	8.273620	8.418569	6.758034	0.575168	4.045888	3.451500	-8.841475	2.197440	1.663340	1.541260	0.945127	-0.175537	0.291137	-1.000000	-1.000000	-1.000000	-1.000000	-1.000000	-1.000000	-1.000000	84.137931	0.000000	-1.000000	-1.000000	826605.000000	1770063149.151457
8357.400000	14447.700000	24733.485000	17843.490000	-7905.960000	-4566.645000	4236.570000	11640.915000	-3.669315	0.045573	0.133006	-0.832227	-6.593664	-2.732288	-0.975999	-10.552021	2.197440	1.663340	1.541260	0.945127	-0.175537	0.291137	-1.000000	-1.000000	-1.000000	-1.000000	-1.000000	-1.000000	-1.000000	84.137931	0.000000	-1.000000	-1.000000	826606.000000	1770063149.151467
8354.385000	14449.095000	24738.705000	17849.520000	-7901.730000	-4576.275000	4222.800000	11640.285000	-7.762073	-8.430985	-8.719714	-8.833437	-12.222489	-9.704266	-5.712723	-8.122985	2.197440	1.663340	1.541260	0.945127	-0.175537	0.291137	-1.000000	-1.000000	-1.000000	-1.000000	-1.000000	-1.000000	-1.000000	84.137931	0.000000	-1.000000	-1.000000	826607.000000	1770063149.155604
8346.600000	14462.685000	24752.970000	17859.420000	-7895.295000	-4574.520000	4223.745000	11630.565000	-9.280204	-13.879744	-14.498541	-14.257869	-15.314221	-15.282941	-9.478222	-1.202381	2.197440	1.663340	1.541260	0.945127	-0.175537	0.291137	-1.000000	-1.000000	-1.000000	-1.000000	-1.000000	-1.000000	-1.000000	84.137931	0.000000	-1.000000	-1.000000	826608.000000	1770063149.155613
8345.115000	14455.755000	24746.580000	17858.970000	-7884.630000	-4562.370000	4228.110000	11630.475000	-6.331803	-13.758227	-14.221910	-14.092327	-13.544317	-16.160784	-10.384420	6.657094	2.197440	1.663340	1.541260	0.945127	-0.175537	0.291137	-1.000000	-1.000000	-1.000000	-1.000000	-1.000000	-1.000000	-1.000000	84.137931	0.000000	-1.000000	-1.000000	826609.000000	1770063149.165810
8349.165000	14456.070000	24746.895000	17861.625000	-7888.050000	-4557.510000	4233.285000	11626.290000	-0.130296	-8.496674	-8.409260	-8.377812	-6.875851	-10.584710	-7.135182	11.458427	2.197440	1.663340	1.541260	0.945127	-0.175537	0.291137	-1.000000	-1.000000	-1.000000	-1.000000	-1.000000	-1.000000	-1.000000	84.137931	0.000000	-1.000000	-1.000000	826610.000000	1770063149.165820
8363.205000	14471.370000	24760.755000	17870.580000	-7891.380000	-4555.170000	4237.605000	11633.355000	6.216076	-1.180541	-0.601215	-0.329892	1.508794	-0.521147	-0.518598	11.463150	0.167860	1.068200	0.610400	0.944822	-0.177490	0.287109	-1.000000	-1.000000	-1.000000	-1.000000	-1.000000	-1.000000	-1.000000	84.137931	0.000000	-1.000000	-1.000000	826611.000000	1770063149.165830
8365.770000	14473.485000	24763.860000	17875.035000	-7878.645000	-4539.330000	4248.810000	11642.400000	10.322020	5.280174	5.891719	6.434183	8.048533	9.719824	6.877881	7.917206	0.167860	1.068200	0.610400	0.944822	-0.177490	0.287109	-1.000000	-1.000000	-1.000000	-1.000000	-1.000000	-1.000000	-1.000000	84.137931	0.000000	-1.000000	-1.000000	826612.000000	1770063149.165835
8364.330000	14479.110000	24768.405000	17877.375000	-7868.340000	-4541.715000	4245.255000	11642.220000	11.381263	9.778024	9.936137	10.260678	11.441303	16.070706	11.893843	3.575695	0.167860	1.068200	0.610400	0.944822	-0.177490	0.287109	-1.000000	-1.000000	-1.000000	-1.000000	-1.000000	-1.000000	-1.000000	84.137931	0.000000	-1.000000	-1.000000	826613.000000	1770063149.167460
8364.015000	14483.745000	24773.355000	17884.035000	-7855.425000	-4539.150000	4247.100000	11637.405000	9.292366	12.216537	11.826771	11.455378	12.433057	16.455037	12.262581	0.014703	0.167860	1.068200	0.610400	0.944822	-0.177490	0.287109	-1.000000	-1.000000	-1.000000	-1.000000	-1.000000	-1.000000	-1.000000	84.137931	0.000000	-1.000000	-1.000000	826614.000000	1770063149.167466
8353.080000	14479.065000	24769.395000	17883.135000	-7852.770000	-4530.465000	4255.830000	11615.445000	4.453624	12.128197	11.518688	10.531322	11.630693	11.673515	8.311455	-3.156264	0.167860	1.068200	0.610400	0.944822	-0.177490	0.287109	-1.000000	-1.000000	-1.000000	-1.000000	-1.000000	-1.000000	-1.000000	84.137931	0.000000	-1.000000	-1.000000	826615.000000	1770063149.171177
8353.485000	14474.520000	24761.070000	17873.145000	-7891.065000	-4537.440000	4257.810000	11609.280000	-1.768398	8.313216	7.818568	6.843233	7.780335	4.398048	2.674889	-6.495920	0.167860	1.068200	0.610400	0.944822	-0.177490	0.287109	-1.000000	-1.000000	-1.000000	-1.000000	-1.000000	-1.000000	-1.000000	84.137931	0.000000	-1.000000	-1.000000	826616.000000	1770063149.171189
8365.680000	14487.120000	24772.095000	17884.530000	-7879.995000	-4526.145000	4258.530000	11626.020000	-6.769623	0.747782	0.353962	0.050674	-0.455385	-3.008483	-2.347328	-8.568616	0.167860	1.068200	0.610400	0.944822	-0.177490	0.287109	-1.000000	-1.000000	-1.000000	-1.000000	-1.000000	-1.000000	-1.000000	84.137931	0.000000	-1.000000	-1.000000	826617.000000	1770063149.175166
8380.530000	14490.630000	24778.845000	17891.145000	-7866.090000	-4531.860000	4249.395000	11656.935000	-7.940255	-7.452695	-7.877918	-7.398827	-10.363373	-9.015863	-6.151668	-6.561186	0.167860	1.068200	0.610400	0.944822	-0.177490	0.287109	-1.000000	-1.000000	-1.000000	-1.000000	-1.000000	-1.000000	-1.000000	84.137931	0.000000	-1.000000	-1.000000	826618.000000	1770063149.175176
8367.885000	14466.105000	24756.480000	17868.960000	-7887.645000	-4554.315000	4233.870000	11665.710000	-5.400070	-12.619637	-12.866977	-12.059930	-16.312380	-12.732137	-8.958858	0.123745	0.167860	1.068200	0.610400	0.944822	-0.177490	0.287109	-1.000000	-1.000000	-1.000000	-1.000000	-1.000000	-1.000000	-1.000000	84.137931	0.000000	-1.000000	-1.000000	826619.000000	1770063149.179264
8360.370000	14455.395000	24744.915000	17856.135000	-7897.590000	-4563.900000	4225.050000	11642.445000	-2.346849	-14.091148	-13.736801	-13.071598	-15.586198	-13.944491	-10.675158	7.448149	0.167860	1.068200	0.610400	0.944822	-0.177490	0.287109	-1.000000	-1.000000	-1.000000	-1.000000	-1.000000	-1.000000	-1.000000	84.137931	0.000000	-1.000000	-1.000000	826620.000000	1770063149.179273
8392.905000	14482.395000	24766.515000	17871.120000	-7884.180000	-4548.780000	4243.545000	11644.560000	-0.936257	-12.174712	-11.224589	-10.982459	-9.674894	-12.242523	-10.213362	9.640456	0.915600	0.412020	1.800680	0.943052	-0.179687	0.286010	-1.000000	-1.000000	-1.000000	-1.000000	-1.000000	-1.000000	-1.000000	84.137931	0.000000	-1.000000	-1.000000	826621.000000	1770063149.184970
8363.655000	14471.370000	24760.800000	17871.750000	-7875.630000	-4536.900000	4254.930000	11657.970000	-0.278086	-6.208865	-5.211560	-5.542561	-1.233704	-6.653426	-5.990941	5.294654	0.915600	0.412020	1.800680	0.943052	-0.179687	0.286010	-1.000000	-1.000000	-1.000000	-1.000000	-1.000000	-1.000000	-1.000000	84.137931	0.000000	-1.000000	-1.000000	826622.000000	1770063149.184979
8325.720000	14478.795000	24775.020000	17888.355000	-7861.590000	-4527.405000	4257.360000	11634.300000	-0.179117	2.586895	3.280010	2.634987	7.192498	2.438210	1.715149	-1.712920	0.915600	0.412020	1.800680	0.943052	-0.179687	0.286010	-1.000000	-1.000000	-1.000000	-1.000000	-1.000000	-1.000000	-1.000000	84.137931	0.000000	-1.000000	-1.000000	826623.000000	1770063149.187098
8343.900000	14491.260000	24781.005000	17887.410000	-7869.375000	-4534.785000	4250.745000	11636.055000	-1.500398	10.638981	11.157070	10.695817	13.065484	11.582691	9.375801	-6.902020	0.915600	0.412020	1.800680	0.943052	-0.179687	0.286010	-1.000000	-1.000000	-1.000000	-1.000000	-1.000000	-1.000000	-1.000000	84.137931	0.000000	-1.000000	-1.000000	826624.000000	1770063149.187107
8356.950000	14502.510000	24789.285000	17893.710000	-7865.820000	-4537.530000	4242.420000	11640.870000	-2.488821	14.825752	15.149790	14.986611	14.621855	16.006912	12.543863	-7.960901	0.915600	0.412020	1.800680	0.943052	-0.179687	0.286010	-1.000000	-1.000000	-1.000000	-1.000000	-1.000000	-1.000000	-1.000000	84.137931	0.000000	-1.000000	-1.000000	826625.000000	1770063149.191590
8376.165000	14486.085000	24772.950000	17885.250000	-7862.445000	-4531.095000	4248.180000	11645.235000	-0.531793	13.418482	13.173459	13.162241	11.379691	13.354757	9.653186	-5.241921	0.915600	0.412020	1.800680	0.943052	-0.179687	0.286010	-1.000000	-1.000000	-1.000000	-1.000000	-1.000000	-1.000000	-1.000000	84.137931	0.000000	-1.000000	-1.000000	826626.000000	1770063149.191598
8380.260000	14468.085000	24751.980000	17863.650000	-7881.750000	-4544.145000	4251.060000	11651.760000	3.876893	6.368800	5.282127	5.535625	4.085737	5.506798	3.332988	-1.373102	0.915600	0.412020	1.800680	0.943052	-0.179687	0.286010	-1.000000	-1.000000	-1.000000	-1.000000	-1.000000	-1.000000	-1.000000	84.137931	0.000000	-1.000000	-1.000000	826627.000000	1770063149.195062
8369.685000	14459.580000	24742.800000	17850.780000	-7894.755000	-4556.385000	4242.555000	11649.285000	7.651294	-3.491139	-5.294774	-4.594025	-4.773223	-3.120739	-2.189833	1.313073	0.915600	0.412020	1.800680	0.943052	-0.179687	0.286010	-1.000000	-1.000000	-1.000000	-1.000000	-1.000000	-1.000000	-1.000000	84.137931	0.000000	-1.000000	-1.000000	826628.000000	1770063149.195072
8384.985000	14477.895000	24759.585000	17865.720000	-7880.040000	-4548.735000	4246.020000	11659.590000	8.012358	-11.046988	-12.988703	-12.058590	-11.244629	-8.690471	-4.726514	2.758558	0.915600	0.412020	1.800680	0.943052	-0.179687	0.286010	-1.000000	-1.000000	-1.000000	-1.000000	-1.000000	-1.000000	-1.000000	84.137931	0.000000	-1.000000	-1.000000	826629.000000	1770063149.199048
8378.955000	14469.660000	24755.895000	17869.500000	-7863.435000	-4530.735000	4254.660000	11658.150000	4.484137	-12.529018	-13.687572	-12.906094	-12.135327	-9.508391	-4.762165	3.787076	0.915600	0.412020	1.800680	0.943052	-0.179687	0.286010	-1.000000	-1.000000	-1.000000	-1.000000	-1.000000	-1.000000	-1.000000	84.137931	0.000000	-1.000000	-1.000000	826630.000000	1770063149.199054
8373.420000	14469.435000	24761.160000	17882.010000	-7848.315000	-4519.710000	4258.080000	11657.835000	-0.738890	-8.242164	-7.833430	-7.229666	-7.273572	-5.996094	-3.590956	4.178053	3.525060	2.289000	-0.183120	0.942502	-0.177307	0.286132	-1.000000	-1.000000	-1.000000	-1.000000	-1.000000	-1.000000	-1.000000	84.137931	0.000000	-1.000000	-1.000000	826631.000000	1770063149.203118
8370.450000	14474.565000	24763.005000	17873.685000	-7881.660000	-4544.820000	4250.610000	11652.840000	-4.336119	-1.374670	0.589815	1.075599	-0.131392	-0.728754	-2.130350	3.511779	3.525060	2.289000	-0.183120	0.942502	-0.177307	0.286132	-1.000000	-1.000000	-1.000000	-1.000000	-1.000000	-1.000000	-1.000000	84.137931	0.000000	-1.000000	-1.000000	826632.000000	1770063149.203128
8378.910000	14493.285000	24775.920000	17876.160000	-7896.600000	-4560.030000	4243.320000	11652.570000	-4.899165	4.679551	7.238063	7.154856	4.342607	2.565782	-0.957114	2.098430	3.525060	2.289000	-0.183120	0.942502	-0.177307	0.286132	-1.000000	-1.000000	-1.000000	-1.000000	-1.000000	-1.000000	-1.000000	84.137931	0.000000	-1.000000	-1.000000	826633.000000	1770063149.207174
8383.545000	14502.645000	24785.505000	17885.700000	-7880.355000	-4550.265000	4248.405000	11656.395000	-3.811591	7.999746	9.875920	8.498327	4.092941	2.166267	-0.206818	0.200579	3.525060	2.289000	-0.183120	0.942502	-0.177307	0.286132	-1.000000	-1.000000	-1.000000	-1.000000	-1.000000	-1.000000	-1.000000	84.137931	0.000000	-1.000000	-1.000000	826634.000000	1770063149.207183
8365.365000	14472.675000	24765.120000	17884.440000	-7854.480000	-4518.045000	4261.725000	11644.020000	-3.258613	8.080974	8.639494	6.100348	1.772573	0.311654	0.593182	-2.245801	3.525060	2.289000	-0.183120	0.942502	-0.177307	0.286132	-1.000000	-1.000000	-1.000000	-1.000000	-1.000000	-1.000000	-1.000000	84.137931	0.000000	-1.000000	-1.000000	826635.000000	1770063149.211242
8363.610000	14470.245000	24759.180000	17876.925000	-7863.030000	-4529.655000	4250.610000	11630.745000	-4.105970	5.150491	4.781662	2.671668	1.444817	0.660218	1.817051	-5.149120	3.525060	2.289000	-0.183120	0.942502	-0.177307	0.286132	-1.000000	-1.000000	-1.000000	-1.000000	-1.000000	-1.000000	-1.000000	84.137931	0.000000	-1.000000	-1.000000	826636.000000	1770063149.211301
8370.945000	14474.070000	24759.405000	17873.955000	-7870.545000	-4534.830000	4252.725000	11646.855000	-4.819480	0.598306	-0.012578	0.057964	3.737011	3.578334	2.917953	-7.222873	3.525060	2.289000	-0.183120	0.942502	-0.177307	0.286132	-1.000000	-1.000000	-1.000000	-1.000000	-1.000000	-1.000000	-1.000000	84.137931	0.000000	-1.000000	-1.000000	826637.000000	1770063149.215054
8356.320000	14461.740000	24749.325000	17866.575000	-7872.660000	-4531.680000	4257.360000	11652.030000	-3.553770	-3.652574	-4.292262	-1.886731	5.206619	5.631630	2.921256	-6.215886	3.525060	2.289000	-0.183120	0.942502	-0.177307	0.286132	-1.000000	-1.000000	-1.000000	-1.000000	-1.000000	-1.000000	-1.000000	84.137931	0.000000	-1.000000	-1.000000	826638.000000	1770063149.215065
8359.065000	14466.825000	24754.410000	17868.510000	-7870.185000	-4530.375000	4257.855000	11648.295000	-0.483410	-6.308746	-7.131687	-3.997230	2.714456	3.833668	1.431616	-1.708990	3.525060	2.289000	-0.183120	0.942502	-0.177307	0.286132	-1.000000	-1.000000	-1.000000	-1.000000	-1.000000	-1.000000	-1.000000	84.137931	0.000000	-1.000000	-1.000000	826639.000000	1770063149.219148
8369.370000	14474.880000	24762.645000	17875.260000	-7871.040000	-4534.470000	4255.335000	11650.545000	3.636937	-6.270473	-7.467160	-5.802921	-2.861506	-1.267941	-0.982115	3.978028	3.525060	2.289000	-0.183120	0.942502	-0.177307	0.286132	-1.000000	-1.000000	-1.000000	-1.000000	-1.000000	-1.000000	-1.000000	84.137931	0.000000	-1.000000	-1.000000	826640.000000	1770063149.219160
8353.305000	14458.410000	24743.610000	17858.250000	-7875.045000	-4543.695000	4244.310000	11639.925000	7.705012	-3.670488	-5.131774	-5.950806	-7.256043	-6.160752	-3.064473	7.946920	-0.412020	1.266580	0.473060	0.938901	-0.172180	0.286254	-1.000000	-1.000000	-1.000000	-1.000000	-1.000000	-1.000000	-1.000000	84.137931	0.000000	-1.000000	-1.000000	826641.000000	1770063149.229349
8358.030000	14466.330000	24750.630000	17863.695000	-7854.795000	-4539.420000	4239.270000	11640.915000	9.089233	-0.839933	-1.955617	-4.154865	-6.697648	-7.429061	-3.800883	8.283316	-0.412020	1.266580	0.473060	0.938901	-0.172180	0.286254	-1.000000	-1.000000	-1.000000	-1.000000	-1.000000	-1.000000	-1.000000	84.137931	0.000000	-1.000000	-1.000000	826642.000000	1770063149.229360
8363.340000	14474.925000	24761.880000	17880.480000	-7824.465000	-4518.720000	4249.215000	11644.065000	6.283970	0.760355	0.634916	-1.067570	-1.323920	-4.579348	-3.044765	4.977889	-0.412020	1.266580	0.473060	0.938901	-0.172180	0.286254	-1.000000	-1.000000	-1.000000	-1.000000	-1.000000	-1.000000	-1.000000	84.137931	0.000000	-1.000000	-1.000000	826643.000000	1770063149.229372
8356.185000	14466.375000	24754.275000	17866.440000	-7874.730000	-4539.600000	4249.665000	11640.060000	1.208883	2.357783	3.265751	2.712047	4.573212	-0.105097	-1.194375	0.214222	-0.412020	1.266580	0.473060	0.938901	-0.172180	0.286254	-1.000000	-1.000000	-1.000000	-1.000000	-1.000000	-1.000000	-1.000000	84.137931	0.000000	-1.000000	-1.000000	826644.000000	1770063149.229378
8369.235000	14485.770000	24770.970000	17870.085000	-7932.105000	-4567.140000	4245.300000	11646.000000	-2.930315	4.960275	6.382374	6.077524	5.193941	2.609388	1.169366	-3.275046	-0.412020	1.266580	0.473060	0.938901	-0.172180	0.286254	-1.000000	-1.000000	-1.000000	-1.000000	-1.000000	-1.000000	-1.000000	84.137931	0.000000	-1.000000	-1.000000	826645.000000	1770063149.231113
8381.565000	14500.755000	24783.435000	17884.530000	-7898.490000	-4545.945000	4249.620000	11650.905000	-4.170591	7.569117	8.871251	7.709045	-0.937823	2.224204	3.162213	-4.267385	-0.412020	1.266580	0.473060	0.938901	-0.172180	0.286254	-1.000000	-1.000000	-1.000000	-1.000000	-1.000000	-1.000000	-1.000000	84.137931	0.000000	-1.000000	-1.000000	826646.000000	1770063149.231124
8386.830000	14512.095000	24799.005000	17901.540000	-7876.980000	-4543.830000	4245.165000	11649.015000	-2.392609	8.604908	9.329943	7.386516	-7.687957	0.555246	3.718747	-3.400450	-0.412020	1.266580	0.473060	0.938901	-0.172180	0.286254	-1.000000	-1.000000	-1.000000	-1.000000	-1.000000	-1.000000	-1.000000	84.137931	0.000000	-1.000000	-1.000000	826647.000000	1770063149.249747
8386.065000	14507.460000	24791.355000	17890.920000	-7891.335000	-4552.695000	4247.190000	11654.685000	0.772924	6.879210	6.858929	5.346553	-8.174608	-0.221601	2.437381	-1.809204	-0.412020	1.266580	0.473060	0.938901	-0.172180	0.286254	-1.000000	-1.000000	-1.000000	-1.000000	-1.000000	-1.000000	-1.000000	84.137931	0.000000	-1.000000	-1.000000	826648.000000	1770063149.249762
8361.675000	14462.595000	24754.590000	17874.090000	-7876.215000	-4528.980000	4267.080000	11661.885000	2.475683	1.354111	0.814880	1.211511	-2.085877	0.582201	0.559105	0.048235	-0.412020	1.266580	0.473060	0.938901	-0.172180	0.286254	-1.000000	-1.000000	-1.000000	-1.000000	-1.000000	-1.000000	-1.000000	84.137931	0.000000	-1.000000	-1.000000	826649.000000	1770063149.249777
8359.650000	14463.360000	24754.455000	17871.480000	-7876.890000	-4535.595000	4259.205000	11645.280000	0.677466	-7.525152	-7.893038	-4.532829	6.269427	3.001592	0.097908	1.770996	-0.412020	1.266580	0.473060	0.938901	-0.172180	0.286254	-1.000000	-1.000000	-1.000000	-1.000000	-1.000000	-1.000000	-1.000000	84.137931	0.000000	-1.000000	-1.000000	826650.000000	1770063149.249782
8372.160000	14479.335000	24767.145000	17872.920000	-7888.095000	-4554.225000	4244.490000	11635.965000	-3.484913	-15.603351	-15.215960	-9.515707	11.441858	5.189349	0.921114	2.056236	-0.518840	0.991900	0.946120	0.937742	-0.170532	0.286926	-1.000000	-1.000000	-1.000000	-1.000000	-1.000000	-1.000000	-1.000000	84.137931	0.000000	-1.000000	-1.000000	826651.000000	1770063149.249788
8377.785000	14486.580000	24774.210000	17877.015000	-7885.935000	-4553.145000	4243.095000	11651.985000	-6.406769	-17.026916	-16.233446	-11.172867	9.590480	3.842898	0.602375	0.323962	-0.518840	0.991900	0.946120	0.937742	-0.170532	0.286926	-1.000000	-1.000000	-1.000000	-1.000000	-1.000000	-1.000000	-1.000000	84.137931	0.000000	-1.000000	-1.000000	826652.000000	1770063149.249794
8370.585000	14473.890000	24763.635000	17873.460000	-7880.625000	-4545.135000	4250.070000	11660.310000	-5.593614	-9.961123	-9.685088	-8.319000	3.107656	-0.678787	-1.694531	-1.517851	-0.518840	0.991900	0.946120	0.937742	-0.170532	0.286926	-1.000000	-1.000000	-1.000000	-1.000000	-1.000000	-1.000000	-1.000000	84.137931	0.000000	-1.000000	-1.000000	826653.000000	1770063149.249802
8372.070000	14478.435000	24769.620000	17882.505000	-7870.680000	-4537.215000	4253.670000	11648.115000	-2.031413	1.053595	0.472772	-1.991141	-1.265643	-3.861853	-3.823499	-1.646711	-0.518840	0.991900	0.946120	0.937742	-0.170532	0.286926	-1.000000	-1.000000	-1.000000	-1.000000	-1.000000	-1.000000	-1.000000	84.137931	0.000000	-1.000000	-1.000000	826654.000000	1770063149.249807
8383.590000	14490.405000	24782.220000	17895.195000	-7858.620000	-4525.605000	4260.555000	11645.190000	1.558504	9.518986	8.596844	4.737054	-1.011486	-3.131807	-3.689631	-0.914941	-0.518840	0.991900	0.946120	0.937742	-0.170532	0.286926	-1.000000	-1.000000	-1.000000	-1.000000	-1.000000	-1.000000	-1.000000	84.137931	0.000000	-1.000000	-1.000000	826655.000000	1770063149.266347
8375.310000	14483.205000	24773.895000	17884.215000	-7869.015000	-4532.220000	4252.455000	11633.580000	3.630975	12.205403	11.539482	8.590766	0.270894	-0.291822	-1.472717	-0.887134	-0.518840	0.991900	0.946120	0.937742	-0.170532	0.286926	-1.000000	-1.000000	-1.000000	-1.000000	-1.000000	-1.000000	-1.000000	84.137931	0.000000	-1.000000	-1.000000	826656.000000	1770063149.266367
8364.510000	14486.535000	24775.065000	17884.395000	-7870.365000	-4541.085000	4243.500000	11637.090000	3.919937	9.872381	9.527891	8.106901	-0.974507	1.510922	0.817542	-1.659225	-0.518840	0.991900	0.946120	0.937742	-0.170532	0.286926	-1.000000	-1.000000	-1.000000	-1.000000	-1.000000	-1.000000	-1.000000	84.137931	0.000000	-1.000000	-1.000000	826657.000000	1770063149.266380
8358.345000	14475.420000	24763.320000	17874.855000	-7874.730000	-4539.645000	4248.945000	11637.135000	2.843667	5.613282	5.234709	4.551160	-4.506323	0.616162	1.329586	-2.064587	-0.518840	0.991900	0.946120	0.937742	-0.170532	0.286926	-1.000000	-1.000000	-1.000000	-1.000000	-1.000000	-1.000000	-1.000000	84.137931	0.000000	-1.000000	-1.000000	826658.000000	1770063149.266385
8368.245000	14479.695000	24770.610000	17887.320000	-7855.110000	-4515.480000	4267.395000	11630.205000	1.406589	1.917274	1.313970	0.565563	-7.547269	-1.652167	0.732876	-0.877298	-0.518840	0.991900	0.946120	0.937742	-0.170532	0.286926	-1.000000	-1.000000	-1.000000	-1.000000	-1.000000	-1.000000	-1.000000	84.137931	0.000000	-1.000000	-1.000000	826659.000000	1770063149.266392
8366.805000	14496.705000	24791.400000	17908.920000	-7837.425000	-4499.775000	4277.745000	11631.285000	0.267494	-0.869916	-1.276692	-1.741370	-7.183832	-2.018359	1.424257	1.683924	-0.518840	0.991900	0.946120	0.937742	-0.170532	0.286926	-1.000000	-1.000000	-1.000000	-1.000000	-1.000000	-1.000000	-1.000000	84.137931	0.000000	-1.000000	-1.000000	826660.000000	1770063149.266396
8359.290000	14483.250000	24776.010000	17891.505000	-7856.775000	-4523.895000	4265.100000	11653.245000	-0.648823	-2.843955	-2.425020	-1.740366	-2.852278	0.420537	3.647721	4.114985	-2.304260	0.259420	0.900340	0.937742	-0.168029	0.286926	-1.000000	-1.000000	-1.000000	-1.000000	-1.000000	-1.000000	-1.000000	84.137931	0.000000	-1.000000	-1.000000	826661.000000	1770063149.266402
8355.915000	14472.630000	24760.935000	17872.560000	-7880.265000	-4548.015000	4249.440000	11663.910000	-1.482104	-4.054606	-2.844432	-1.061679	2.414492	2.374641	4.481771	5.437673	-2.304260	0.259420	0.900340	0.937742	-0.168029	0.286926	-1.000000	-1.000000	-1.000000	-1.000000	-1.000000	-1.000000	-1.000000	84.137931	0.000000	-1.000000	-1.000000	826662.000000	1770063149.266406
8371.800000	14476.770000	24765.930000	17878.635000	-7874.235000	-4540.995000	4249.935000	11662.020000	-1.926272	-4.978710	-3.793850	-2.048288	4.473296	0.552210	1.551993	5.509437	-2.304260	0.259420	0.900340	0.937742	-0.168029	0.286926	-1.000000	-1.000000	-1.000000	-1.000000	-1.000000	-1.000000	-1.000000	84.137931	0.000000	-1.000000	-1.000000	826663.000000	1770063149.282000
8367.300000	14463.360000	24751.440000	17866.530000	-7882.470000	-4544.325000	4242.195000	11650.635000	-1.469637	-5.700021	-5.359384	-4.733800	2.113160	-4.046761	-3.846268	4.003061	-2.304260	0.259420	0.900340	0.937742	-0.168029	0.286926	-1.000000	-1.000000	-1.000000	-1.000000	-1.000000	-1.000000	-1.000000	84.137931	0.000000	-1.000000	-1.000000	826664.000000	1770063149.282058
8361.045000	14466.150000	24753.330000	17866.395000	-7883.460000	-4543.515000	4245.435000	11646.630000	-0.177872	-5.535799	-6.189255	-6.767390	-1.997121	-7.269843	-7.914300	0.657441	-2.304260	0.259420	0.900340	0.937742	-0.168029	0.286926	-1.000000	-1.000000	-1.000000	-1.000000	-1.000000	-1.000000	-1.000000	84.137931	0.000000	-1.000000	-1.000000	826665.000000	1770063149.282113
8367.570000	14469.120000	24759.855000	17873.820000	-7878.645000	-4547.835000	4241.970000	11650.185000	1.472081	-3.342406	-4.430164	-5.569679	-4.011321	-6.100321	-7.756827	-3.622219	-2.304260	0.259420	0.900340	0.937742	-0.168029	0.286926	-1.000000	-1.000000	-1.000000	-1.000000	-1.000000	-1.000000	-1.000000	84.137931	0.000000	-1.000000	-1.000000	826666.000000	1770063149.282144
8372.970000	14476.455000	24765.210000	17873.865000	-7883.370000	-4550.130000	4245.255000	11649.285000	3.139413	1.331751	0.632578	-0.548044	-2.324739	-1.269865	-3.631692	-6.752665	-2.304260	0.259420	0.900340	0.937742	-0.168029	0.286926	-1.000000	-1.000000	-1.000000	-1.000000	-1.000000	-1.000000	-1.000000	84.137931	0.000000	-1.000000	-1.000000	826667.000000	1770063149.282179
8363.160000	14471.775000	24758.280000	17864.505000	-7894.215000	-4555.710000	4248.405000	11645.055000	3.826777	6.492920	6.565833	5.437989	1.064168	3.678946	1.687439	-6.992115	-2.304260	0.259420	0.900340	0.937742	-0.168029	0.286926	-1.000000	-1.000000	-1.000000	-1.000000	-1.000000	-1.000000	-1.000000	84.137931	0.000000	-1.000000	-1.000000	826668.000000	1770063149.282210
8368.875000	14483.070000	24771.150000	17881.560000	-7875.585000	-4541.445000	4259.700000	11638.080000	2.344824	8.830638	9.342852	8.349420	3.235785	5.935487	5.543133	-4.737755	-2.304260	0.259420	0.900340	0.937742	-0.168029	0.286926	-1.000000	-1.000000	-1.000000	-1.000000	-1.000000	-1.000000	-1.000000	84.137931	0.000000	-1.000000	-1.000000	826669.000000	1770063149.282244
8366.895000	14470.110000	24762.960000	17882.865000	-7860.915000	-4522.275000	4270.320000	11633.130000	-0.595948	7.217313	7.741954	7.514848	4.414044	6.353989	7.336669	-2.309775	-2.304260	0.259420	0.900340	0.937742	-0.168029	0.286926	-1.000000	-1.000000	-1.000000	-1.000000	-1.000000	-1.000000	-1.000000	84.137931	0.000000	-1.000000	-1.000000	826670.000000	1770063149.282316
8377.065000	14474.655000	24765.075000	17881.020000	-7865.370000	-4529.520000	4257.720000	11653.020000	-2.957787	3.156552	3.739307	5.149464	6.369822	7.197215	7.541630	-1.049881	-3.509800	0.640920	0.656180	0.938901	-0.169250	0.285827	-1.000000	-1.000000	-1.000000	-1.000000	-1.000000	-1.000000	-1.000000	84.137931	0.000000	-1.000000	-1.000000	826671.000000	1770063149.291058
8388.360000	14486.265000	24772.860000	17884.125000	-7868.745000	-4535.640000	4254.705000	11689.695000	-3.537807	-1.099895	-0.377377	2.504334	7.831494	7.552471	5.741246	0.796041	-3.509800	0.640920	0.656180	0.938901	-0.169250	0.285827	-1.000000	-1.000000	-1.000000	-1.000000	-1.000000	-1.000000	-1.000000	84.137931	0.000000	-1.000000	-1.000000	826672.000000	1770063149.291067
8389.305000	14494.455000	24783.480000	17896.230000	-7856.505000	-4523.400000	4267.620000	11698.020000	-2.284807	-3.442871	-2.913614	-0.111302	6.166258	4.942523	1.850489	5.439552	-3.509800	0.640920	0.656180	0.938901	-0.169250	0.285827	-1.000000	-1.000000	-1.000000	-1.000000	-1.000000	-1.000000	-1.000000	84.137931	0.000000	-1.000000	-1.000000	826673.000000	1770063149.291077
8381.520000	14502.600000	24793.695000	17906.895000	-7845.165000	-4512.915000	4275.000000	11651.265000	-0.028280	-2.974008	-2.956290	-1.817743	1.723418	-0.046222	-2.224214	10.513399	-3.509800	0.640920	0.656180	0.938901	-0.169250	0.285827	-1.000000	-1.000000	-1.000000	-1.000000	-1.000000	-1.000000	-1.000000	84.137931	0.000000	-1.000000	-1.000000	826674.000000	1770063149.291082
8388.180000	14505.795000	24796.395000	17910.585000	-7840.575000	-4507.965000	4277.610000	11633.220000	1.707030	-0.802352	-1.230300	-2.150167	-2.948173	-4.454218	-4.419730	9.947487	-3.509800	0.640920	0.656180	0.938901	-0.169250	0.285827	-1.000000	-1.000000	-1.000000	-1.000000	-1.000000	-1.000000	-1.000000	84.137931	0.000000	-1.000000	-1.000000	826675.000000	1770063149.291127
8379.360000	14488.470000	24775.515000	17887.455000	-7865.325000	-4530.645000	4261.140000	11639.610000	1.731318	0.646492	-0.008926	-2.186387	-6.303348	-6.736393	-4.797397	1.915395	-3.509800	0.640920	0.656180	0.938901	-0.169250	0.285827	-1.000000	-1.000000	-1.000000	-1.000000	-1.000000	-1.000000	-1.000000	84.137931	0.000000	-1.000000	-1.000000	826676.000000	1770063149.291132
8377.470000	14466.240000	24750.945000	17860.995000	-7886.115000	-4538.520000	4259.475000	11669.760000	0.066216	-0.899572	-1.682191	-3.892785	-8.775063	-7.795282	-4.970150	-7.560229	-3.509800	0.640920	0.656180	0.938901	-0.169250	0.285827	-1.000000	-1.000000	-1.000000	-1.000000	-1.000000	-1.000000	-1.000000	84.137931	0.000000	-1.000000	-1.000000	826677.000000	1770063149.296942
8382.555000	14475.240000	24765.345000	17875.440000	-7875.720000	-4534.155000	4262.355000	11675.340000	-2.022056	-5.138584	-5.992977	-7.487324	-10.717642	-8.489684	-5.599110	-10.933288	-3.509800	0.640920	0.656180	0.938901	-0.169250	0.285827	-1.000000	-1.000000	-1.000000	-1.000000	-1.000000	-1.000000	-1.000000	84.137931	0.000000	-1.000000	-1.000000	826678.000000	1770063149.296954
8389.260000	14495.130000	24786.855000	17896.185000	-7863.030000	-4534.605000	4257.225000	11666.880000	-2.842670	-8.036864	-8.677060	-9.456171	-10.274712	-7.855162	-5.496262	-6.811520	-3.509800	0.640920	0.656180	0.938901	-0.169250	0.285827	-1.000000	-1.000000	-1.000000	-1.000000	-1.000000	-1.000000	-1.000000	84.137931	0.000000	-1.000000	-1.000000	826679.000000	1770063149.302992
8383.140000	14488.965000	24777.810000	17887.185000	-7868.745000	-4534.110000	4257.765000	11658.870000	-1.984433	-5.876892	-5.867769	-6.160137	-5.497195	-4.619870	-3.315952	-0.413985	-3.509800	0.640920	0.656180	0.938901	-0.169250	0.285827	-1.000000	-1.000000	-1.000000	-1.000000	-1.000000	-1.000000	-1.000000	84.137931	0.000000	-1.000000	-1.000000	826680.000000	1770063149.303002
8380.170000	14486.895000	24775.920000	17884.980000	-7873.380000	-4538.070000	4255.335000	11656.530000	-0.742798	0.051805	0.839540	1.083031	2.132960	0.737205	0.746496	2.375264	-1.526000	1.663340	1.175020	0.940916	-0.173156	0.284484	-1.000000	-1.000000	-1.000000	-1.000000	-1.000000	-1.000000	-1.000000	84.137931	0.000000	-1.000000	-1.000000	826681.000000	1770063149.304739
8388.045000	14502.870000	24789.690000	17894.070000	-7874.955000	-4546.665000	4250.385000	11659.050000	0.017979	5.528167	6.688163	7.548696	8.464397	5.723831	4.676612	0.742583	-1.526000	1.663340	1.175020	0.940916	-0.173156	0.284484	-1.000000	-1.000000	-1.000000	-1.000000	-1.000000	-1.000000	-1.000000	84.137931	0.000000	-1.000000	-1.000000	826682.000000	1770063149.304753
8372.340000	14477.985000	24768.225000	17883.315000	-7867.305000	-4530.330000	4261.500000	11658.780000	0.707275	7.639242	8.484128	9.749628	10.367872	7.849527	6.329535	-1.077012	-1.526000	1.663340	1.175020	0.940916	-0.173156	0.284484	-1.000000	-1.000000	-1.000000	-1.000000	-1.000000	-1.000000	-1.000000	84.137931	0.000000	-1.000000	-1.000000	826683.000000	1770063149.307167
8368.740000	14472.990000	24764.445000	17884.395000	-7861.365000	-4523.130000	4265.820000	11658.060000	1.246006	5.566664	5.731503	7.282488	8.138547	7.205169	5.635148	0.585380	-1.526000	1.663340	1.175020	0.940916	-0.173156	0.284484	-1.000000	-1.000000	-1.000000	-1.000000	-1.000000	-1.000000	-1.000000	84.137931	0.000000	-1.000000	-1.000000	826684.000000	1770063149.307176
8380.305000	14487.570000	24778.575000	17895.645000	-7856.730000	-4525.245000	4263.120000	11656.395000	1.332623	1.223213	0.986810	2.909205	4.792604	5.789423	4.075291	4.428137	-1.526000	1.663340	1.175020	0.940916	-0.173156	0.284484	-1.000000	-1.000000	-1.000000	-1.000000	-1.000000	-1.000000	-1.000000	84.137931	0.000000	-1.000000	-1.000000	826685.000000	1770063149.315873
8378.550000	14484.555000	24775.245000	17892.360000	-7859.610000	-4523.580000	4264.155000	11647.260000	1.589103	-1.538681	-1.699506	0.237688	2.765938	4.557640	2.480174	6.043549	-1.526000	1.663340	1.175020	0.940916	-0.173156	0.284484	-1.000000	-1.000000	-1.000000	-1.000000	-1.000000	-1.000000	-1.000000	84.137931	0.000000	-1.000000	-1.000000	826686.000000	1770063149.315882
8370.765000	14478.165000	24767.685000	17884.440000	-7867.980000	-4529.700000	4258.575000	11642.085000	2.035548	-1.297367	-1.350142	-0.338748	1.421773	2.681815	0.615393	3.046023	-1.526000	1.663340	1.175020	0.940916	-0.173156	0.284484	-1.000000	-1.000000	-1.000000	-1.000000	-1.000000	-1.000000	-1.000000	84.137931	0.000000	-1.000000	-1.000000	826687.000000	1770063149.315892
8372.835000	14475.555000	24762.555000	17878.455000	-7874.370000	-4535.505000	4255.245000	11649.285000	1.593653	-0.280007	-0.628339	-1.321279	-1.287992	-0.640317	-1.590487	-2.386706	-1.526000	1.663340	1.175020	0.940916	-0.173156	0.284484	-1.000000	-1.000000	-1.000000	-1.000000	-1.000000	-1.000000	-1.000000	84.137931	0.000000	-1.000000	-1.000000	826688.000000	1770063149.315897
8359.065000	14463.540000	24749.820000	17863.785000	-7888.500000	-4545.855000	4248.855000	11643.480000	-0.123337	-0.669371	-1.547573	-3.894837	-5.450313	-4.750254	-3.520828	-6.089806	-1.526000	1.663340	1.175020	0.940916	-0.173156	0.284484	-1.000000	-1.000000	-1.000000	-1.000000	-1.000000	-1.000000	-1.000000	84.137931	0.000000	-1.000000	-1.000000	826689.000000	1770063149.327352
8356.860000	14475.555000	24761.655000	17870.220000	-7891.290000	-4554.630000	4243.095000	11641.005000	-2.310134	-2.235661	-3.338032	-6.523730	-8.878873	-7.939087	-4.521015	-6.006811	-1.526000	1.663340	1.175020	0.940916	-0.173156	0.284484	-1.000000	-1.000000	-1.000000	-1.000000	-1.000000	-1.000000	-1.000000	84.137931	0.000000	-1.000000	-1.000000	826690.000000	1770063149.327363
8364.555000	14485.275000	24772.815000	17883.360000	-7877.070000	-4541.715000	4255.695000	11649.285000	-3.533048	-3.080600	-3.812185	-6.785213	-9.175466	-8.547067	-4.210692	-2.693310	0.824040	1.815940	1.785420	0.939817	-0.177307	0.284484	-1.000000	-1.000000	-1.000000	-1.000000	-1.000000	-1.000000	-1.000000	84.137931	0.000000	-1.000000	-1.000000	826691.000000	1770063149.327375
8365.455000	14476.680000	24765.930000	17883.630000	-7868.970000	-4533.705000	4258.665000	11644.335000	-2.413325	-1.590264	-1.531821	-3.421468	-5.430493	-5.867894	-2.445251	2.201055	0.824040	1.815940	1.785420	0.939817	-0.177307	0.284484	-1.000000	-1.000000	-1.000000	-1.000000	-1.000000	-1.000000	-1.000000	84.137931	0.000000	-1.000000	-1.000000	826692.000000	1770063149.327379
8383.230000	14481.180000	24767.505000	17881.785000	-7873.290000	-4539.330000	4252.815000	11650.815000	1.072491	1.741138	2.565860	2.257281	0.901361	-0.884783	0.173771	6.332592	0.824040	1.815940	1.785420	0.939817	-0.177307	0.284484	-1.000000	-1.000000	-1.000000	-1.000000	-1.000000	-1.000000	-1.000000	84.137931	0.000000	-1.000000	-1.000000	826693.000000	1770063149.327385
8369.910000	14468.940000	24755.220000	17869.860000	-7882.515000	-4544.685000	4249.755000	11644.785000	4.884770	4.450495	5.611221	6.860680	6.550111	4.010984	2.328408	7.449369	0.824040	1.815940	1.785420	0.939817	-0.177307	0.284484	-1.000000	-1.000000	-1.000000	-1.000000	-1.000000	-1.000000	-1.000000	84.137931	0.000000	-1.000000	-1.000000	826694.000000	1770063149.327390
8365.410000	14469.030000	24756.795000	17872.785000	-7880.175000	-4541.985000	4250.025000	11642.535000	6.088976	4.385511	5.349215	7.624999	8.670870	6.580654	3.044730	4.931780	0.824040	1.815940	1.785420	0.939817	-0.177307	0.284484	-1.000000	-1.000000	-1.000000	-1.000000	-1.000000	-1.000000	-1.000000	84.137931	0.000000	-1.000000	-1.000000	826695.000000	1770063149.332621
8363.835000	14472.720000	24762.870000	17878.410000	-7877.565000	-4539.825000	4251.420000	11641.005000	3.491150	1.729050	2.244030	4.755917	6.932606	6.296426	2.499733	0.253893	0.824040	1.815940	1.785420	0.939817	-0.177307	0.284484	-1.000000	-1.000000	-1.000000	-1.000000	-1.000000	-1.000000	-1.000000	84.137931	0.000000	-1.000000	-1.000000	826696.000000	1770063149.332631
8363.385000	14487.885000	24779.880000	17893.980000	-7863.615000	-4529.070000	4263.030000	11644.920000	-1.146042	-1.153698	-0.896720	1.089857	3.505835	4.452648	1.795291	-4.096133	0.824040	1.815940	1.785420	0.939817	-0.177307	0.284484	-1.000000	-1.000000	-1.000000	-1.000000	-1.000000	-1.000000	-1.000000	84.137931	0.000000	-1.000000	-1.000000	826697.000000	1770063149.345031
8373.375000	14508.810000	24803.010000	17918.595000	-7839.315000	-4507.515000	4279.410000	11639.340000	-4.619248	-1.687105	-1.306358	-0.288399	1.340800	3.040639	2.064765	-6.162935	0.824040	1.815940	1.785420	0.939817	-0.177307	0.284484	-1.000000	-1.000000	-1.000000	-1.000000	-1.000000	-1.000000	-1.000000	84.137931	0.000000	-1.000000	-1.000000	826698.000000	1770063149.345042
8395.110000	14516.640000	24806.790000	17921.700000	-7834.635000	-4501.035000	4281.345000	11647.350000	-4.520487	0.427124	0.993059	1.117156	1.626590	3.069060	3.287769	-5.341995	0.824040	1.815940	1.785420	0.939817	-0.177307	0.284484	-1.000000	-1.000000	-1.000000	-1.000000	-1.000000	-1.000000	-1.000000	84.137931	0.000000	-1.000000	-1.000000	826699.000000	1770063149.345054
8383.905000	14497.290000	24782.895000	17897.445000	-7856.100000	-4518.585000	4269.690000	11666.700000	-1.139416	2.555023	2.736154	2.235597	2.001972	2.882760	3.519114	-2.088598	0.824040	1.815940	1.785420	0.939817	-0.177307	0.284484	-1.000000	-1.000000	-1.000000	-1.000000	-1.000000	-1.000000	-1.000000	84.137931	0.000000	-1.000000	-1.000000	826700.000000	1770063149.345058
8365.995000	14484.915000	24770.790000	17881.920000	-7875.450000	-4538.925000	4256.235000	11672.100000	2.135907	1.743488	0.770100	-0.398419	-1.122450	-0.509306	0.574088	2.444581	4.776380	2.395820	1.083460	0.940610	-0.180114	0.281738	-1.000000	-1.000000	-1.000000	-1.000000	-1.000000	-1.000000	-1.000000	84.137931	0.000000	-1.000000	-1.000000	826701.000000	1770063149.359962
8381.430000	14474.835000	24759.810000	17872.065000	-7885.035000	-4546.530000	4245.795000	11657.520000	2.030507	-2.324622	-4.485555	-6.389541	-7.689074	-7.106872	-4.979522	5.891005	4.776380	2.395820	1.083460	0.940610	-0.180114	0.281738	-1.000000	-1.000000	-1.000000	-1.000000	-1.000000	-1.000000	-1.000000	84.137931	0.000000	-1.000000	-1.000000	826702.000000	1770063149.359975
8372.205000	14466.375000	24754.005000	17869.860000	-7883.910000	-4543.650000	4244.265000	11631.780000	-0.836272	-7.071990	-9.448397	-11.522182	-13.208356	-12.761326	-9.799517	5.361079	4.776380	2.395820	1.083460	0.940610	-0.180114	0.281738	-1.000000	-1.000000	-1.000000	-1.000000	-1.000000	-1.000000	-1.000000	84.137931	0.000000	-1.000000	-1.000000	826703.000000	1770063149.359987
8380.395000	14472.765000	24759.045000	17874.135000	-7881.615000	-4541.445000	4248.900000	11641.680000	-3.239764	-9.113576	-10.490523	-11.724274	-13.110148	-13.070615	-10.540899	0.490183	4.776380	2.395820	1.083460	0.940610	-0.180114	0.281738	-1.000000	-1.000000	-1.000000	-1.000000	-1.000000	-1.000000	-1.000000	84.137931	0.000000	-1.000000	-1.000000	826704.000000	1770063149.359992
8373.105000	14471.460000	24756.930000	17870.760000	-7886.520000	-4546.440000	4247.100000	11647.845000	-3.207404	-6.833703	-6.657738	-6.436632	-6.838819	-7.328937	-6.334804	-5.185359	4.776380	2.395820	1.083460	0.940610	-0.180114	0.281738	-1.000000	-1.000000	-1.000000	-1.000000	-1.000000	-1.000000	-1.000000	84.137931	0.000000	-1.000000	-1.000000	826705.000000	1770063149.359998
8373.645000	14480.235000	24762.780000	17870.220000	-7894.215000	-4556.475000	4239.720000	11644.155000	-1.226280	-1.481264	-0.143564	1.236962	1.867868	0.987178	0.379914	-7.494632	4.776380	2.395820	1.083460	0.940610	-0.180114	0.281738	-1.000000	-1.000000	-1.000000	-1.000000	-1.000000	-1.000000	-1.000000	84.137931	0.000000	-1.000000	-1.000000	826706.000000	1770063149.360003
8371.530000	14490.720000	24770.970000	17870.895000	-7899.795000	-4566.420000	4229.955000	11633.445000	0.848229	4.037548	5.590869	7.052286	7.995165	6.961931	5.526076	-5.485299	4.776380	2.395820	1.083460	0.940610	-0.180114	0.281738	-1.000000	-1.000000	-1.000000	-1.000000	-1.000000	-1.000000	-1.000000	84.137931	0.000000	-1.000000	-1.000000	826707.000000	1770063149.360008
8368.155000	14477.040000	24761.340000	17869.950000	-7890.390000	-4557.285000	4238.010000	11635.065000	1.383983	7.227022	8.290641	8.804149	9.247991	8.198587	6.827517	-1.447898	4.776380	2.395820	1.083460	0.940610	-0.180114	0.281738	-1.000000	-1.000000	-1.000000	-1.000000	-1.000000	-1.000000	-1.000000	84.137931	0.000000	-1.000000	-1.000000	826708.000000	1770063149.360013
8357.670000	14463.045000	24750.180000	17869.860000	-7875.990000	-4541.445000	4243.590000	11629.710000	0.384369	7.217565	7.898749	7.602808	7.670284	6.661048	5.547906	1.682763	4.776380	2.395820	1.083460	0.940610	-0.180114	0.281738	-1.000000	-1.000000	-1.000000	-1.000000	-1.000000	-1.000000	-1.000000	84.137931	0.000000	-1.000000	-1.000000	826709.000000	1770063149.362615
8359.515000	14471.550000	24753.735000	17865.315000	-7878.420000	-4541.625000	4243.410000	11629.710000	-0.707630	4.982955	5.780148	5.847934	6.661929	5.927241	4.403887	2.641663	4.776380	2.395820	1.083460	0.940610	-0.180114	0.281738	-1.000000	-1.000000	-1.000000	-1.000000	-1.000000	-1.000000	-1.000000	84.137931	0.000000	-1.000000	-1.000000	826710.000000	1770063149.362624
8367.255000	14484.780000	24771.645000	17881.875000	-7863.795000	-4533.120000	4253.310000	11645.595000	-0.649061	2.745377	3.720422	4.754975	7.017658	6.869283	4.533367	2.707809	5.493600	4.791640	1.480220	0.945188	-0.181213	0.273254	-1.000000	-1.000000	-1.000000	-1.000000	-1.000000	-1.000000	-1.000000	84.137931	0.000000	-1.000000	-1.000000	826711.000000	1770063149.364397
8374.995000	14482.485000	24778.035000	17897.940000	-7844.310000	-4509.270000	4273.560000	11657.205000	0.906191	2.061861	2.916524	4.293111	7.139622	7.546746	5.204226	4.188313	5.493600	4.791640	1.480220	0.945188	-0.181213	0.273254	-1.000000	-1.000000	-1.000000	-1.000000	-1.000000	-1.000000	-1.000000	84.137931	0.000000	-1.000000	-1.000000	826712.000000	1770063149.364403
8372.385000	14463.945000	24756.660000	17875.845000	-7882.740000	-4528.755000	4263.210000	11646.135000	3.256323	1.829768	2.412676	3.345277	4.899741	5.888503	4.936406	6.790229	5.493600	4.791640	1.480220	0.945188	-0.181213	0.273254	-1.000000	-1.000000	-1.000000	-1.000000	-1.000000	-1.000000	-1.000000	84.137931	0.000000	-1.000000	-1.000000	826713.000000	1770063149.374460
8351.775000	14444.910000	24732.810000	17849.430000	-7909.290000	-4560.480000	4233.285000	11631.420000	4.495147	-0.551462	-0.422829	-0.188054	-1.472498	0.597628	1.905812	6.985832	5.493600	4.791640	1.480220	0.945188	-0.181213	0.273254	-1.000000	-1.000000	-1.000000	-1.000000	-1.000000	-1.000000	-1.000000	84.137931	0.000000	-1.000000	-1.000000	826714.000000	1770063149.374473
8354.205000	14458.635000	24746.310000	17861.670000	-7896.015000	-4558.950000	4228.335000	11631.105000	2.964955	-5.504682	-6.232498	-6.616070	-10.627770	-7.626755	-4.417358	2.660617	5.493600	4.791640	1.480220	0.945188	-0.181213	0.273254	-1.000000	-1.000000	-1.000000	-1.000000	-1.000000	-1.000000	-1.000000	84.137931	0.000000	-1.000000	-1.000000	826715.000000	1770063149.377454
8356.320000	14466.420000	24756.885000	17873.910000	-7879.815000	-4544.010000	4238.820000	11631.645000	-0.724936	-9.798747	-11.473537	-12.218576	-16.877319	-14.527091	-11.033243	-3.821776	5.493600	4.791640	1.480220	0.945188	-0.181213	0.273254	-1.000000	-1.000000	-1.000000	-1.000000	-1.000000	-1.000000	-1.000000	84.137931	0.000000	-1.000000	-1.000000	826716.000000	1770063149.377464
8348.310000	14467.230000	24756.660000	17874.045000	-7878.915000	-4543.335000	4242.420000	11623.230000	-4.040457	-9.289146	-11.375984	-12.343976	-15.314930	-15.339755	-13.314732	-8.489398	5.493600	4.791640	1.480220	0.945188	-0.181213	0.273254	-1.000000	-1.000000	-1.000000	-1.000000	-1.000000	-1.000000	-1.000000	84.137931	0.000000	-1.000000	-1.000000	826717.000000	1770063149.377473
8342.595000	14466.105000	24754.185000	17871.435000	-7880.040000	-4542.390000	4251.195000	11624.580000	-4.914880	-3.081707	-4.856257	-6.239526	-6.804081	-9.503860	-9.342983	-9.325309	5.493600	4.791640	1.480220	0.945188	-0.181213	0.273254	-1.000000	-1.000000	-1.000000	-1.000000	-1.000000	-1.000000	-1.000000	84.137931	0.000000	-1.000000	-1.000000	826718.000000	1770063149.377478
8357.895000	14461.200000	24748.155000	17866.350000	-7865.820000	-4532.940000	4253.445000	11643.120000	-3.152908	5.071184	4.094282	2.351841	3.692688	-0.420243	-1.154774	-6.289307	5.493600	4.791640	1.480220	0.945188	-0.181213	0.273254	-1.000000	-1.000000	-1.000000	-1.000000	-1.000000	-1.000000	-1.000000	84.137931	0.000000	-1.000000	-1.000000	826719.000000	1770063149.379287
8371.080000	14444.685000	24731.955000	17855.820000	-7838.325000	-4522.500000	4248.990000	11666.385000	0.225629	9.654720	9.534406	8.162082	11.537478	7.643966	6.727395	-0.353825	5.493600	4.791640	1.480220	0.945188	-0.181213	0.273254	-1.000000	-1.000000	-1.000000	-1.000000	-1.000000	-1.000000	-1.000000	84.137931	0.000000	-1.000000	-1.000000	826720.000000	1770063149.379297
8366.760000	14468.490000	24760.035000	17892.180000	-7775.415000	-4492.170000	4251.915000	11646.045000	3.627972	8.341063	8.738125	8.593946	15.240382	11.861403	10.011167	5.926440	5.310480	2.182180	2.578940	0.944028	-0.178344	0.278564	-1.000000	-1.000000	-1.000000	-1.000000	-1.000000	-1.000000	-1.000000	84.137931	0.000000	-1.000000	-1.000000	826721.000000	1770063149.390366
8364.420000	14478.795000	24765.660000	17888.445000	-7804.395000	-4501.755000	4249.485000	11626.290000	5.263756	4.125335	4.739170	6.046178	15.903143	12.103164	7.980699	8.651129	5.310480	2.182180	2.578940	0.944028	-0.178344	0.278564	-1.000000	-1.000000	-1.000000	-1.000000	-1.000000	-1.000000	-1.000000	84.137931	0.000000	-1.000000	-1.000000	826722.000000	1770063149.390376
8380.035000	14480.730000	24762.600000	17879.985000	-7900.290000	-4550.175000	4245.705000	11641.140000	4.685681	1.227858	1.986374	3.969918	11.999235	9.020297	3.675442	6.148752	5.310480	2.182180	2.578940	0.944028	-0.178344	0.278564	-1.000000	-1.000000	-1.000000	-1.000000	-1.000000	-1.000000	-1.000000	84.137931	0.000000	-1.000000	-1.000000	826723.000000	1770063149.390388
8396.505000	14479.695000	24756.120000	17868.015000	-7941.555000	-4575.690000	4240.935000	11648.520000	3.143495	0.078415	0.785266	2.084819	-0.826617	1.878897	0.140226	1.184466	5.310480	2.182180	2.578940	0.944028	-0.178344	0.278564	-1.000000	-1.000000	-1.000000	-1.000000	-1.000000	-1.000000	-1.000000	84.137931	0.000000	-1.000000	-1.000000	826724.000000	1770063149.390392
8385.480000	14454.765000	24740.235000	17862.885000	-7957.305000	-4572.765000	4250.205000	11652.705000	1.539769	-1.702316	-1.339246	-1.565718	-20.369908	-8.385480	-1.933996	-2.338950	5.310480	2.182180	2.578940	0.944028	-0.178344	0.278564	-1.000000	-1.000000	-1.000000	-1.000000	-1.000000	-1.000000	-1.000000	84.137931	0.000000	-1.000000	-1.000000	826725.000000	1770063149.392676
8368.155000	14465.610000	24756.885000	17869.275000	-7941.645000	-4561.695000	4255.245000	11655.675000	-0.598809	-4.969351	-4.719172	-6.195930	-34.774966	-16.407437	-2.915613	-2.941564	5.310480	2.182180	2.578940	0.944028	-0.178344	0.278564	-1.000000	-1.000000	-1.000000	-1.000000	-1.000000	-1.000000	-1.000000	84.137931	0.000000	-1.000000	-1.000000	826726.000000	1770063149.392687
8366.310000	14472.495000	24766.560000	17874.180000	-7912.620000	-4550.130000	4257.225000	11652.120000	-3.795595	-7.449123	-6.526605	-8.450985	-32.269096	-16.291644	-2.950221	-1.699566	5.310480	2.182180	2.578940	0.944028	-0.178344	0.278564	-1.000000	-1.000000	-1.000000	-1.000000	-1.000000	-1.000000	-1.000000	84.137931	0.000000	-1.000000	-1.000000	826727.000000	1770063149.395106
8365.500000	14473.845000	24765.930000	17879.400000	-7898.895000	-4544.955000	4257.765000	11653.245000	-7.327712	-6.432876	-4.482877	-6.131913	-11.877728	-7.426092	-2.264685	-0.948814	5.310480	2.182180	2.578940	0.944028	-0.178344	0.278564	-1.000000	-1.000000	-1.000000	-1.000000	-1.000000	-1.000000	-1.000000	84.137931	0.000000	-1.000000	-1.000000	826728.000000	1770063149.395116
8378.505000	14482.215000	24768.990000	17880.660000	-7891.965000	-4539.015000	4260.780000	11660.085000	-9.289454	-1.905303	0.165231	-0.647124	14.788509	4.660731	-1.318597	-2.016591	5.310480	2.182180	2.578940	0.944028	-0.178344	0.278564	-1.000000	-1.000000	-1.000000	-1.000000	-1.000000	-1.000000	-1.000000	84.137931	0.000000	-1.000000	-1.000000	826729.000000	1770063149.406994
8374.230000	14481.180000	24767.775000	17880.660000	-7884.765000	-4534.830000	4260.285000	11652.660000	-7.728989	3.335905	3.879932	4.116386	32.527190	12.970204	-0.453281	-3.460622	5.310480	2.182180	2.578940	0.944028	-0.178344	0.278564	-1.000000	-1.000000	-1.000000	-1.000000	-1.000000	-1.000000	-1.000000	84.137931	0.000000	-1.000000	-1.000000	826730.000000	1770063149.407006
8378.055000	14485.005000	24771.465000	17886.285000	-7873.515000	-4530.240000	4261.095000	11650.545000	-2.548726	6.033669	4.274308	5.580897	34.918069	14.724880	0.381778	-2.942680	6.317640	-1.022420	1.739640	0.934934	-0.176452	0.292297	-1.000000	-1.000000	-1.000000	-1.000000	-1.000000	-1.000000	-1.000000	84.137931	0.000000	-1.000000	-1.000000	826731.000000	1770063149.407019
8388.855000	14490.360000	24775.830000	17892.135000	-7855.290000	-4520.520000	4262.445000	11654.820000	3.788035	5.076515	1.980339	4.511062	27.130137	12.392774	1.394684	-0.391758	6.317640	-1.022420	1.739640	0.934934	-0.176452	0.292297	-1.000000	-1.000000	-1.000000	-1.000000	-1.000000	-1.000000	-1.000000	84.137931	0.000000	-1.000000	-1.000000	826732.000000	1770063149.407024
8389.260000	14497.020000	24782.085000	17896.680000	-7844.265000	-4513.140000	4263.660000	11655.675000	8.065106	2.057372	-0.579962	2.928601	16.938379	9.220750	2.266148	2.216005	6.317640	-1.022420	1.739640	0.934934	-0.176452	0.292297	-1.000000	-1.000000	-1.000000	-1.000000	-1.000000	-1.000000	-1.000000	84.137931	0.000000	-1.000000	-1.000000	826733.000000	1770063149.408658
8383.275000	14505.435000	24792.660000	17900.730000	-7862.895000	-4524.840000	4262.985000	11651.670000	8.759057	-0.258406	-1.350598	1.783354	6.564272	5.279061	2.092778	3.217271	6.317640	-1.022420	1.739640	0.934934	-0.176452	0.292297	-1.000000	-1.000000	-1.000000	-1.000000	-1.000000	-1.000000	-1.000000	84.137931	0.000000	-1.000000	-1.000000	826734.000000	1770063149.408668
8388.495000	14507.865000	24791.760000	17894.790000	-7898.895000	-4544.820000	4259.070000	11653.020000	6.696106	-0.517497	-0.273329	0.682779	-6.308726	-1.368366	0.358992	2.402837	6.317640	-1.022420	1.739640	0.934934	-0.176452	0.292297	-1.000000	-1.000000	-1.000000	-1.000000	-1.000000	-1.000000	-1.000000	84.137931	0.000000	-1.000000	-1.000000	826735.000000	1770063149.411211
8397.180000	14502.645000	24787.035000	17894.880000	-7887.465000	-4535.370000	4265.460000	11663.685000	3.621585	0.029598	0.710124	-1.147213	-21.942123	-10.443513	-2.137224	0.811854	6.317640	-1.022420	1.739640	0.934934	-0.176452	0.292297	-1.000000	-1.000000	-1.000000	-1.000000	-1.000000	-1.000000	-1.000000	84.137931	0.000000	-1.000000	-1.000000	826736.000000	1770063149.411221
8382.915000	14479.785000	24770.880000	17889.075000	-7872.930000	-4527.180000	4267.800000	11662.155000	0.377798	-0.729715	-0.151769	-3.634151	-34.405782	-17.711452	-3.659908	-0.364881	6.317640	-1.022420	1.739640	0.934934	-0.176452	0.292297	-1.000000	-1.000000	-1.000000	-1.000000	-1.000000	-1.000000	-1.000000	84.137931	0.000000	-1.000000	-1.000000	826737.000000	1770063149.415139
8364.600000	14462.865000	24753.960000	17874.585000	-7880.130000	-4527.900000	4265.100000	11649.105000	-3.415800	-3.778154	-3.010816	-5.984008	-36.094447	-18.588664	-3.165926	-0.934950	6.317640	-1.022420	1.739640	0.934934	-0.176452	0.292297	-1.000000	-1.000000	-1.000000	-1.000000	-1.000000	-1.000000	-1.000000	84.137931	0.000000	-1.000000	-1.000000	826738.000000	1770063149.415148
8364.150000	14462.055000	24752.610000	17876.745000	-7875.090000	-4531.050000	4258.575000	11644.200000	-7.452976	-7.839322	-6.411476	-7.243912	-24.985712	-12.358573	-1.221293	-1.237162	6.317640	-1.022420	1.739640	0.934934	-0.176452	0.292297	-1.000000	-1.000000	-1.000000	-1.000000	-1.000000	-1.000000	-1.000000	84.137931	0.000000	-1.000000	-1.000000	826739.000000	1770063149.419162
8372.565000	14471.955000	24760.440000	17880.795000	-7872.030000	-4530.240000	4258.350000	11645.595000	-9.565134	-9.570499	-7.661600	-6.204232	-5.418213	-1.992401	0.861218	-1.231050	6.317640	-1.022420	1.739640	0.934934	-0.176452	0.292297	-1.000000	-1.000000	-1.000000	-1.000000	-1.000000	-1.000000	-1.000000	84.137931	0.000000	-1.000000	-1.000000	826740.000000	1770063149.419172
8382.690000	14485.725000	24776.370000	17894.880000	-7860.240000	-4520.835000	4266.765000	11653.785000	-7.769367	-6.281463	-4.647737	-2.224592	14.927165	8.235653	2.276895	-0.715748	-4.639040	-3.952340	-1.190280	0.934202	-0.162841	0.297546	-1.000000	-1.000000	-1.000000	-1.000000	-1.000000	-1.000000	-1.000000	84.137931	0.000000	-1.000000	-1.000000	826741.000000	1770063149.423503
8383.050000	14489.775000	24779.475000	17896.095000	-7860.105000	-4522.995000	4268.250000	11656.710000	-2.302105	1.414932	2.022885	3.576267	28.253804	14.536878	2.933227	0.361486	-4.639040	-3.952340	-1.190280	0.934202	-0.162841	0.297546	-1.000000	-1.000000	-1.000000	-1.000000	-1.000000	-1.000000	-1.000000	84.137931	0.000000	-1.000000	-1.000000	826742.000000	1770063149.423515
8398.260000	14499.540000	24786.315000	17900.820000	-7854.165000	-4518.405000	4273.335000	11674.395000	4.752921	9.740195	8.904083	8.567708	30.500121	15.133779	2.902728	1.963257	-4.639040	-3.952340	-1.190280	0.934202	-0.162841	0.297546	-1.000000	-1.000000	-1.000000	-1.000000	-1.000000	-1.000000	-1.000000	84.137931	0.000000	-1.000000	-1.000000	826743.000000	1770063149.434150
8393.805000	14484.285000	24772.770000	17894.655000	-7851.330000	-4508.325000	4279.860000	11669.580000	10.364637	14.102126	11.948790	10.225592	22.912476	11.061271	2.311813	3.577637	-4.639040	-3.952340	-1.190280	0.934202	-0.162841	0.297546	-1.000000	-1.000000	-1.000000	-1.000000	-1.000000	-1.000000	-1.000000	84.137931	0.000000	-1.000000	-1.000000	826744.000000	1770063149.434162
8380.170000	14483.835000	24772.140000	17891.280000	-7860.960000	-4515.120000	4273.785000	11648.520000	11.379295	12.161768	9.480217	7.690060	9.428053	4.634739	1.246528	3.511137	-4.639040	-3.952340	-1.190280	0.934202	-0.162841	0.297546	-1.000000	-1.000000	-1.000000	-1.000000	-1.000000	-1.000000	-1.000000	84.137931	0.000000	-1.000000	-1.000000	826745.000000	1770063149.434174
8374.950000	14492.295000	24779.340000	17893.710000	-7865.190000	-4520.520000	4270.320000	11630.025000	6.810298	5.774710	3.565063	2.330703	-5.787782	-2.480481	-0.455603	0.186760	-4.639040	-3.952340	-1.190280	0.934202	-0.162841	0.297546	-1.000000	-1.000000	-1.000000	-1.000000	-1.000000	-1.000000	-1.000000	84.137931	0.000000	-1.000000	-1.000000	826746.000000	1770063149.434179
8384.625000	14494.455000	24778.035000	17893.530000	-7865.370000	-4527.135000	4263.840000	11638.800000	-0.364341	-0.708452	-1.850262	-2.934747	-17.914772	-8.716654	-2.542564	-4.828924	-4.639040	-3.952340	-1.190280	0.934202	-0.162841	0.297546	-1.000000	-1.000000	-1.000000	-1.000000	-1.000000	-1.000000	-1.000000	84.137931	0.000000	-1.000000	-1.000000	826747.000000	1770063149.437176
8374.410000	14474.430000	24756.570000	17875.575000	-7878.870000	-4542.030000	4245.885000	11647.620000	-5.767822	-4.785554	-4.780549	-5.973259	-22.458584	-12.030628	-4.178638	-7.262676	-4.639040	-3.952340	-1.190280	0.934202	-0.162841	0.297546	-1.000000	-1.000000	-1.000000	-1.000000	-1.000000	-1.000000	-1.000000	84.137931	0.000000	-1.000000	-1.000000	826748.000000	1770063149.437194
8376.795000	14476.455000	24762.060000	17879.265000	-7878.150000	-4538.655000	4254.525000	11664.315000	-7.714631	-7.187624	-6.194447	-6.881155	-18.426694	-11.225575	-4.686048	-4.570153	-4.639040	-3.952340	-1.190280	0.934202	-0.162841	0.297546	-1.000000	-1.000000	-1.000000	-1.000000	-1.000000	-1.000000	-1.000000	84.137931	0.000000	-1.000000	-1.000000	826749.000000	1770063149.445371
8392.635000	14498.685000	24782.670000	17895.645000	-7868.430000	-4533.570000	4256.055000	11654.010000	-6.841948	-8.547101	-6.802282	-6.201502	-8.704695	-6.740357	-3.640754	1.414383	-4.639040	-3.952340	-1.190280	0.934202	-0.162841	0.297546	-1.000000	-1.000000	-1.000000	-1.000000	-1.000000	-1.000000	-1.000000	84.137931	0.000000	-1.000000	-1.000000	826750.000000	1770063149.445382
8379.855000	14486.580000	24772.230000	17891.685000	-7862.715000	-4523.400000	4264.650000	11662.110000	-3.962100	-7.799730	-5.733713	-3.729341	2.503437	-0.099899	-1.006942	6.294567	-10.743040	-2.792580	-1.480220	0.939512	-0.166137	0.288696	-1.000000	-1.000000	-1.000000	-1.000000	-1.000000	-1.000000	-1.000000	84.137931	0.000000	-1.000000	-1.000000	826751.000000	1770063149.445395
8380.845000	14498.820000	24789.060000	17915.130000	-7831.935000	-4491.765000	4291.380000	11683.035000	-0.525242	-4.602099	-2.707671	0.311369	11.773984	6.879164	2.696689	7.243264	-10.743040	-2.792580	-1.480220	0.939512	-0.166137	0.288696	-1.000000	-1.000000	-1.000000	-1.000000	-1.000000	-1.000000	-1.000000	84.137931	0.000000	-1.000000	-1.000000	826752.000000	1770063149.445400
8388.945000	14494.185000	24784.830000	17907.120000	-7841.430000	-4497.075000	4289.085000	11684.610000	1.948055	0.017968	1.457129	4.748226	16.750720	12.092686	6.415480	5.050905	-10.743040	-2.792580	-1.480220	0.939512	-0.166137	0.288696	-1.000000	-1.000000	-1.000000	-1.000000	-1.000000	-1.000000	-1.000000	84.137931	0.000000	-1.000000	-1.000000	826753.000000	1770063149.452078
8394.570000	14465.115000	24753.240000	17872.335000	-7878.015000	-4532.040000	4264.065000	11677.815000	3.611205	4.156744	4.900219	7.153648	15.224028	12.580499	7.978975	2.093344	-10.743040	-2.792580	-1.480220	0.939512	-0.166137	0.288696	-1.000000	-1.000000	-1.000000	-1.000000	-1.000000	-1.000000	-1.000000	84.137931	0.000000	-1.000000	-1.000000	826754.000000	1770063149.452084
8411.985000	14485.995000	24769.035000	17881.830000	-7879.680000	-4543.875000	4250.520000	11678.310000	5.291479	5.588427	5.267267	5.164895	6.591258	6.448277	5.204975	-0.194876	-10.743040	-2.792580	-1.480220	0.939512	-0.166137	0.288696	-1.000000	-1.000000	-1.000000	-1.000000	-1.000000	-1.000000	-1.000000	84.137931	0.000000	-1.000000	-1.000000	826755.000000	1770063149.452091
8415.540000	14510.295000	24786.810000	17891.820000	-7877.880000	-4545.405000	4241.565000	11657.880000	6.667736	4.722467	3.101289	0.193799	-5.019163	-3.570154	-1.095992	-2.050274	-10.743040	-2.792580	-1.480220	0.939512	-0.166137	0.288696	-1.000000	-1.000000	-1.000000	-1.000000	-1.000000	-1.000000	-1.000000	84.137931	0.000000	-1.000000	-1.000000	826756.000000	1770063149.452096
8393.130000	14511.735000	24790.050000	17898.390000	-7867.755000	-4532.490000	4246.785000	11629.980000	6.046492	4.275538	1.628397	-3.297570	-12.560835	-11.003555	-6.893854	-4.970421	-10.743040	-2.792580	-1.480220	0.939512	-0.166137	0.288696	-1.000000	-1.000000	-1.000000	-1.000000	-1.000000	-1.000000	-1.000000	84.137931	0.000000	-1.000000	-1.000000	826757.000000	1770063149.455213
8385.030000	14474.430000	24757.650000	17877.870000	-7872.840000	-4535.370000	4259.520000	11648.340000	1.720303	4.125239	1.404983	-3.351257	-12.151668	-11.344662	-8.405376	-9.077935	-10.743040	-2.792580	-1.480220	0.939512	-0.166137	0.288696	-1.000000	-1.000000	-1.000000	-1.000000	-1.000000	-1.000000	-1.000000	84.137931	0.000000	-1.000000	-1.000000	826758.000000	1770063149.455224
8376.525000	14463.360000	24750.945000	17879.580000	-7857.810000	-4517.235000	4271.670000	11658.060000	-5.532018	0.975843	-0.474794	-2.141916	-5.691304	-5.482152	-4.918002	-10.941705	-10.743040	-2.792580	-1.480220	0.939512	-0.166137	0.288696	-1.000000	-1.000000	-1.000000	-1.000000	-1.000000	-1.000000	-1.000000	84.137931	0.000000	-1.000000	-1.000000	826759.000000	1770063149.459159
8395.290000	14490.315000	24772.455000	17886.600000	-7868.565000	-4532.715000	4262.355000	11662.245000	-11.524110	-5.199609	-4.565674	-1.780579	1.837675	1.961095	0.874749	-7.337721	-10.743040	-2.792580	-1.480220	0.939512	-0.166137	0.288696	-1.000000	-1.000000	-1.000000	-1.000000	-1.000000	-1.000000	-1.000000	84.137931	0.000000	-1.000000	-1.000000	826760.000000	1770063149.459165
8387.685000	14471.415000	24757.605000	17880.435000	-7871.490000	-4525.515000	4266.585000	11660.130000	-11.880169	-9.621796	-7.403409	-1.990937	5.794391	5.992542	4.670126	0.134168	-3.921820	1.129240	-0.701960	0.949033	-0.183349	0.274413	-1.000000	-1.000000	-1.000000	-1.000000	-1.000000	-1.000000	-1.000000	84.137931	0.000000	-1.000000	-1.000000	826761.000000	1770063149.463220
8384.760000	14476.455000	24764.985000	17887.635000	-7870.860000	-4524.750000	4263.480000	11660.130000	-6.395052	-8.643677	-6.162976	-1.455311	4.911572	5.128297	4.432311	7.115496	-3.921820	1.129240	-0.701960	0.949033	-0.183349	0.274413	-1.000000	-1.000000	-1.000000	-1.000000	-1.000000	-1.000000	-1.000000	84.137931	0.000000	-1.000000	-1.000000	826762.000000	1770063149.463231
8392.230000	14493.600000	24779.835000	17896.635000	-7864.605000	-4517.055000	4271.760000	11661.480000	1.222715	-2.517767	-0.785868	1.101367	2.289565	2.580150	2.233181	10.818416	-3.921820	1.129240	-0.701960	0.949033	-0.183349	0.274413	-1.000000	-1.000000	-1.000000	-1.000000	-1.000000	-1.000000	-1.000000	84.137931	0.000000	-1.000000	-1.000000	826763.000000	1770063149.472609
8390.835000	14490.180000	24776.910000	17896.230000	-7859.295000	-4513.545000	4274.235000	11656.350000	6.929787	5.432109	6.167228	5.118990	1.419146	1.938695	1.268796	10.756443	-3.921820	1.129240	-0.701960	0.949033	-0.183349	0.274413	-1.000000	-1.000000	-1.000000	-1.000000	-1.000000	-1.000000	-1.000000	84.137931	0.000000	-1.000000	-1.000000	826764.000000	1770063149.472620
8401.770000	14503.185000	24786.135000	17899.110000	-7865.235000	-4530.465000	4263.975000	11663.145000	8.865239	10.293763	10.302933	7.573008	2.322944	2.972987	2.159846	7.895586	-3.921820	1.129240	-0.701960	0.949033	-0.183349	0.274413	-1.000000	-1.000000	-1.000000	-1.000000	-1.000000	-1.000000	-1.000000	84.137931	0.000000	-1.000000	-1.000000	826765.000000	1770063149.472631
8386.020000	14480.370000	24768.495000	17886.870000	-7868.025000	-4527.045000	4264.785000	11663.505000	7.715900	9.357332	8.933387	6.021304	2.619245	2.718751	2.685305	3.992485	-3.921820	1.129240	-0.701960	0.949033	-0.183349	0.274413	-1.000000	-1.000000	-1.000000	-1.000000	-1.000000	-1.000000	-1.000000	84.137931	0.000000	-1.000000	-1.000000	826766.000000	1770063149.472636
8383.635000	14481.720000	24769.575000	17885.835000	-7869.780000	-4535.955000	4257.315000	11657.385000	4.847896	4.091931	3.288952	1.023775	0.698348	-0.449978	0.592226	-0.035934	-3.921820	1.129240	-0.701960	0.949033	-0.183349	0.274413	-1.000000	-1.000000	-1.000000	-1.000000	-1.000000	-1.000000	-1.000000	84.137931	0.000000	-1.000000	-1.000000	826767.000000	1770063149.475170
8379.090000	14476.320000	24766.200000	17890.245000	-7843.320000	-4520.655000	4263.210000	11650.680000	1.092899	-1.984797	-3.164478	-4.556130	-2.466566	-4.975585	-3.767928	-4.470911	-3.921820	1.129240	-0.701960	0.949033	-0.183349	0.274413	-1.000000	-1.000000	-1.000000	-1.000000	-1.000000	-1.000000	-1.000000	84.137931	0.000000	-1.000000	-1.000000	826768.000000	1770063149.475175
8368.785000	14462.550000	24753.780000	17885.520000	-7817.355000	-4504.680000	4268.340000	11648.070000	-2.833659	-6.441434	-7.749424	-7.890774	-3.904683	-7.479074	-7.490439	-8.842143	-3.921820	1.129240	-0.701960	0.949033	-0.183349	0.274413	-1.000000	-1.000000	-1.000000	-1.000000	-1.000000	-1.000000	-1.000000	84.137931	0.000000	-1.000000	-1.000000	826769.000000	1770063149.479713
8375.580000	14470.110000	24759.360000	17887.725000	-7809.390000	-4496.850000	4273.380000	11655.405000	-5.836326	-8.286632	-9.331533	-7.807071	-1.644822	-5.649836	-7.665633	-11.030589	-3.921820	1.129240	-0.701960	0.949033	-0.183349	0.274413	-1.000000	-1.000000	-1.000000	-1.000000	-1.000000	-1.000000	-1.000000	84.137931	0.000000	-1.000000	-1.000000	826770.000000	1770063149.479722
8385.390000	14480.415000	24767.370000	17890.515000	-7853.490000	-4509.180000	4272.480000	11660.220000	-6.274858	-6.606386	-7.256775	-4.638369	2.195856	-0.581817	-3.794741	-8.878883	-0.686700	2.655240	-1.083460	0.951475	-0.188842	0.269347	-1.000000	-1.000000	-1.000000	-1.000000	-1.000000	-1.000000	-1.000000	84.137931	0.000000	-1.000000	-1.000000	826771.000000	1770063149.499038
8382.420000	14476.005000	24761.655000	17880.570000	-7883.190000	-4523.715000	4265.415000	11657.655000	-3.611267	-1.943542	-2.296241	-0.090907	2.514012	3.902235	1.856611	-2.662774	-0.686700	2.655240	-1.083460	0.951475	-0.188842	0.269347	-1.000000	-1.000000	-1.000000	-1.000000	-1.000000	-1.000000	-1.000000	84.137931	0.000000	-1.000000	-1.000000	826772.000000	1770063149.499051
8391.150000	14494.275000	24780.060000	17888.310000	-7912.890000	-4548.195000	4259.070000	11658.960000	0.406869	2.955068	2.945306	3.377383	-3.219282	4.413062	5.956788	4.567724	-0.686700	2.655240	-1.083460	0.951475	-0.188842	0.269347	-1.000000	-1.000000	-1.000000	-1.000000	-1.000000	-1.000000	-1.000000	84.137931	0.000000	-1.000000	-1.000000	826773.000000	1770063149.499064
8383.095000	14481.135000	24763.995000	17874.135000	-7913.205000	-4552.695000	4258.440000	11651.985000	3.513315	5.683552	6.168885	4.407854	-11.336085	0.841360	6.647586	9.198356	-0.686700	2.655240	-1.083460	0.951475	-0.188842	0.269347	-1.000000	-1.000000	-1.000000	-1.000000	-1.000000	-1.000000	-1.000000	84.137931	0.000000	-1.000000	-1.000000	826774.000000	1770063149.499070
8383.770000	14485.635000	24768.720000	17882.550000	-7889.625000	-4542.570000	4258.440000	11648.475000	4.639266	5.802298	6.620347	3.493634	-14.613078	-3.509045	4.391115	9.146185	-0.686700	2.655240	-1.083460	0.951475	-0.188842	0.269347	-1.000000	-1.000000	-1.000000	-1.000000	-1.000000	-1.000000	-1.000000	84.137931	0.000000	-1.000000	-1.000000	826775.000000	1770063149.499077
8376.075000	14478.525000	24761.700000	17877.555000	-7897.590000	-4545.495000	4256.865000	11646.000000	3.848341	4.189724	4.847572	2.030922	-8.877894	-4.923766	0.872929	4.906175	-0.686700	2.655240	-1.083460	0.951475	-0.188842	0.269347	-1.000000	-1.000000	-1.000000	-1.000000	-1.000000	-1.000000	-1.000000	84.137931	0.000000	-1.000000	-1.000000	826776.000000	1770063149.499082
8362.485000	14458.185000	24745.185000	17868.060000	-7890.480000	-4534.110000	4263.435000	11647.620000	1.558602	1.475160	1.695849	0.705594	2.577583	-2.582885	-2.154684	-0.744654	-0.686700	2.655240	-1.083460	0.951475	-0.188842	0.269347	-1.000000	-1.000000	-1.000000	-1.000000	-1.000000	-1.000000	-1.000000	84.137931	0.000000	-1.000000	-1.000000	826777.000000	1770063149.499087
8380.080000	14484.105000	24771.870000	17891.820000	-7870.545000	-4524.300000	4267.125000	11654.730000	-1.299580	-1.666770	-1.651360	-0.354903	12.545456	1.512032	-3.522319	-4.636858	-0.686700	2.655240	-1.083460	0.951475	-0.188842	0.269347	-1.000000	-1.000000	-1.000000	-1.000000	-1.000000	-1.000000	-1.000000	84.137931	0.000000	-1.000000	-1.000000	826778.000000	1770063149.499092
8390.160000	14500.890000	24786.810000	17904.420000	-7863.030000	-4522.680000	4264.605000	11656.620000	-2.894868	-3.195157	-2.980510	-0.198794	16.936434	5.029164	-3.004178	-5.189679	-0.686700	2.655240	-1.083460	0.951475	-0.188842	0.269347	-1.000000	-1.000000	-1.000000	-1.000000	-1.000000	-1.000000	-1.000000	84.137931	0.000000	-1.000000	-1.000000	826779.000000	1770063149.514462
8401.455000	14517.855000	24796.755000	17904.015000	-7874.370000	-4539.195000	4252.275000	11656.125000	-2.099848	-1.697867	-1.218614	1.584029	16.243690	6.558335	-1.414852	-3.047311	-0.686700	2.655240	-1.083460	0.951475	-0.188842	0.269347	-1.000000	-1.000000	-1.000000	-1.000000	-1.000000	-1.000000	-1.000000	84.137931	0.000000	-1.000000	-1.000000	826780.000000	1770063149.514485
8402.715000	14514.120000	24793.740000	17901.855000	-7874.820000	-4533.660000	4260.375000	11656.755000	0.176963	1.312659	1.689511	3.297860	12.315659	5.755493	0.174623	-0.072688	-0.015260	2.426340	-1.022420	0.947202	-0.181945	0.274535	-1.000000	-1.000000	-1.000000	-1.000000	-1.000000	-1.000000	-1.000000	84.137931	0.000000	-1.000000	-1.000000	826781.000000	1770063149.514499
8404.110000	14507.685000	24782.895000	17888.715000	-7885.620000	-4543.965000	4260.060000	11665.035000	1.998459	2.670352	2.567366	2.729155	6.350916	3.537379	1.514560	2.246631	-0.015260	2.426340	-1.022420	0.947202	-0.181945	0.274535	-1.000000	-1.000000	-1.000000	-1.000000	-1.000000	-1.000000	-1.000000	84.137931	0.000000	-1.000000	-1.000000	826782.000000	1770063149.514504
8375.580000	14468.355000	24753.465000	17878.905000	-7875.045000	-4526.910000	4272.030000	11663.280000	1.794083	0.326987	-0.171128	-0.634674	-0.885352	1.166670	2.741057	3.358238	-0.015260	2.426340	-1.022420	0.947202	-0.181945	0.274535	-1.000000	-1.000000	-1.000000	-1.000000	-1.000000	-1.000000	-1.000000	84.137931	0.000000	-1.000000	-1.000000	826783.000000	1770063149.514510
8365.725000	14462.055000	24752.520000	17883.540000	-7868.520000	-4527.405000	4261.005000	11648.385000	-0.888095	-4.968426	-5.190088	-5.004576	-8.125802	-0.808426	3.366993	2.938376	-0.015260	2.426340	-1.022420	0.947202	-0.181945	0.274535	-1.000000	-1.000000	-1.000000	-1.000000	-1.000000	-1.000000	-1.000000	84.137931	0.000000	-1.000000	-1.000000	826784.000000	1770063149.514515
8398.215000	14499.945000	24780.960000	17894.610000	-7876.170000	-4541.670000	4248.900000	11650.140000	-4.083348	-9.119696	-8.502513	-7.340181	-13.369768	-2.696295	2.306551	0.791223	-0.015260	2.426340	-1.022420	0.947202	-0.181945	0.274535	-1.000000	-1.000000	-1.000000	-1.000000	-1.000000	-1.000000	-1.000000	84.137931	0.000000	-1.000000	-1.000000	826785.000000	1770063149.514520
8376.795000	14454.090000	24740.730000	17867.745000	-7882.155000	-4533.795000	4260.780000	11649.690000	-4.436347	-7.818550	-6.802488	-6.043577	-15.327049	-5.086209	-0.750289	-2.198086	-0.015260	2.426340	-1.022420	0.947202	-0.181945	0.274535	-1.000000	-1.000000	-1.000000	-1.000000	-1.000000	-1.000000	-1.000000	84.137931	0.000000	-1.000000	-1.000000	826786.000000	1770063149.514525
8362.485000	14447.070000	24736.995000	17863.605000	-7884.855000	-4529.295000	4271.490000	11649.555000	-1.997576	-2.492679	-1.989398	-3.023099	-14.153326	-7.303222	-3.913773	-4.386763	-0.015260	2.426340	-1.022420	0.947202	-0.181945	0.274535	-1.000000	-1.000000	-1.000000	-1.000000	-1.000000	-1.000000	-1.000000	84.137931	0.000000	-1.000000	-1.000000	826787.000000	1770063149.515213
8346.510000	14448.060000	24739.065000	17863.155000	-7887.690000	-4526.325000	4271.760000	11641.635000	-0.417577	1.590805	1.387730	-1.071436	-10.061875	-7.247402	-4.492827	-4.788807	-0.015260	2.426340	-1.022420	0.947202	-0.181945	0.274535	-1.000000	-1.000000	-1.000000	-1.000000	-1.000000	-1.000000	-1.000000	84.137931	0.000000	-1.000000	-1.000000	826788.000000	1770063149.515223
8357.355000	14464.530000	24756.210000	17873.910000	-7888.005000	-4542.750000	4258.710000	11640.780000	-1.404648	2.642351	2.313692	-0.099428	-2.968286	-3.837047	-2.065640	-3.463341	-0.015260	2.426340	-1.022420	0.947202	-0.181945	0.274535	-1.000000	-1.000000	-1.000000	-1.000000	-1.000000	-1.000000	-1.000000	84.137931	0.000000	-1.000000	-1.000000	826789.000000	1770063149.519274
8369.820000	14470.245000	24764.805000	17886.690000	-7872.885000	-4532.490000	4261.275000	11646.720000	-2.580036	2.984920	3.128677	1.942915	6.062277	1.483716	1.108498	-0.969059	-0.015260	2.426340	-1.022420	0.947202	-0.181945	0.274535	-1.000000	-1.000000	-1.000000	-1.000000	-1.000000	-1.000000	-1.000000	84.137931	0.000000	-1.000000	-1.000000	826790.000000	1770063149.519284
8378.820000	14486.400000	24776.820000	17895.960000	-7869.240000	-4529.205000	4266.540000	11656.170000	-0.683964	5.102649	5.711302	5.972185	14.204124	6.227704	2.742984	2.027679	-8.545600	1.342880	-2.868880	0.945432	-0.178710	0.276611	-1.000000	-1.000000	-1.000000	-1.000000	-1.000000	-1.000000	-1.000000	84.137931	0.000000	-1.000000	-1.000000	826791.000000	1770063149.523237
8366.130000	14466.330000	24756.570000	17885.205000	-7869.015000	-4514.400000	4280.535000	11657.790000	4.660539	9.049005	9.300019	10.160747	17.618439	8.465782	2.559663	4.810534	-8.545600	1.342880	-2.868880	0.945432	-0.178710	0.276611	-1.000000	-1.000000	-1.000000	-1.000000	-1.000000	-1.000000	-1.000000	84.137931	0.000000	-1.000000	-1.000000	826792.000000	1770063149.523244
8351.910000	14449.860000	24734.880000	17859.735000	-7896.150000	-4524.885000	4280.175000	11637.450000	9.795356	11.327738	10.163655	10.522903	13.546378	7.374050	1.837476	6.293850	-8.545600	1.342880	-2.868880	0.945432	-0.178710	0.276611	-1.000000	-1.000000	-1.000000	-1.000000	-1.000000	-1.000000	-1.000000	84.137931	0.000000	-1.000000	-1.000000	826793.000000	1770063149.527234
8359.245000	14467.230000	24753.240000	17870.220000	-7905.465000	-4528.620000	4283.460000	11624.175000	10.093601	8.113041	5.378561	4.881810	2.979717	3.454490	1.540395	4.954482	-8.545600	1.342880	-2.868880	0.945432	-0.178710	0.276611	-1.000000	-1.000000	-1.000000	-1.000000	-1.000000	-1.000000	-1.000000	84.137931	0.000000	-1.000000	-1.000000	826794.000000	1770063149.527240
8370.360000	14469.210000	24753.105000	17867.070000	-7914.105000	-4528.440000	4294.035000	11629.080000	5.222829	0.898821	-2.357994	-3.559006	-9.040912	-1.853620	1.245175	0.589060	-8.545600	1.342880	-2.868880	0.945432	-0.178710	0.276611	-1.000000	-1.000000	-1.000000	-1.000000	-1.000000	-1.000000	-1.000000	84.137931	0.000000	-1.000000	-1.000000	826795.000000	1770063149.531405
8373.870000	14463.900000	24754.545000	17879.760000	-7886.610000	-4512.780000	4296.645000	11648.790000	-0.646494	-5.441219	-7.724902	-9.184329	-15.994837	-6.290107	0.217276	-4.003718	-8.545600	1.342880	-2.868880	0.945432	-0.178710	0.276611	-1.000000	-1.000000	-1.000000	-1.000000	-1.000000	-1.000000	-1.000000	84.137931	0.000000	-1.000000	-1.000000	826796.000000	1770063149.531410
8389.530000	14491.575000	24787.260000	17913.555000	-7857.630000	-4534.245000	4243.005000	11664.855000	-3.779397	-8.350205	-8.387349	-8.845475	-13.312350	-7.570091	-1.965177	-4.943783	-8.545600	1.342880	-2.868880	0.945432	-0.178710	0.276611	-1.000000	-1.000000	-1.000000	-1.000000	-1.000000	-1.000000	-1.000000	84.137931	0.000000	-1.000000	-1.000000	826797.000000	1770063149.541179
8365.950000	14470.470000	24758.100000	17875.170000	-7882.740000	-4558.815000	4230.450000	11651.130000	-4.147850	-8.181111	-5.600348	-3.809251	-2.386128	-5.718028	-5.600206	-1.516098	-8.545600	1.342880	-2.868880	0.945432	-0.178710	0.276611	-1.000000	-1.000000	-1.000000	-1.000000	-1.000000	-1.000000	-1.000000	84.137931	0.000000	-1.000000	-1.000000	826798.000000	1770063149.541190
8358.030000	14465.070000	24756.255000	17872.200000	-7876.215000	-4531.590000	4260.645000	11644.380000	-4.539604	-6.829910	-2.746294	0.823242	8.918478	-2.669249	-8.861578	2.542498	-8.545600	1.342880	-2.868880	0.945432	-0.178710	0.276611	-1.000000	-1.000000	-1.000000	-1.000000	-1.000000	-1.000000	-1.000000	84.137931	0.000000	-1.000000	-1.000000	826799.000000	1770063149.541396
8377.650000	14494.680000	24797.700000	17911.620000	-7856.055000	-4520.745000	4265.820000	11651.355000	-6.071609	-5.204706	-1.366563	1.826456	13.360358	0.622476	-7.977134	3.251655	-8.545600	1.342880	-2.868880	0.945432	-0.178710	0.276611	-1.000000	-1.000000	-1.000000	-1.000000	-1.000000	-1.000000	-1.000000	84.137931	0.000000	-1.000000	-1.000000	826800.000000	1770063149.541402
8369.955000	14464.980000	24776.955000	17901.765000	-7862.085000	-4530.195000	4261.455000	11651.130000	-6.165498	-2.065234	0.651388	1.451171	10.229333	3.716751	-2.088183	0.728330	-14.329140	-1.175020	0.732480	0.948240	-0.180786	0.277221	-1.000000	-1.000000	-1.000000	-1.000000	-1.000000	-1.000000	-1.000000	84.137931	0.000000	-1.000000	-1.000000	826801.000000	1770063149.543417
8354.925000	14446.665000	24753.420000	17880.750000	-7879.005000	-4532.805000	4273.020000	11638.980000	-3.189089	1.939382	3.606724	1.984354	3.155128	5.342804	5.445338	-2.017262	-14.329140	-1.175020	0.732480	0.948240	-0.180786	0.277221	-1.000000	-1.000000	-1.000000	-1.000000	-1.000000	-1.000000	-1.000000	84.137931	0.000000	-1.000000	-1.000000	826802.000000	1770063149.543428
8363.115000	14451.570000	24748.155000	17869.275000	-7894.395000	-4523.625000	4287.555000	11632.230000	0.790862	3.788271	4.217288	2.000034	-4.157156	4.877342	10.799439	-3.004413	-14.329140	-1.175020	0.732480	0.948240	-0.180786	0.277221	-1.000000	-1.000000	-1.000000	-1.000000	-1.000000	-1.000000	-1.000000	84.137931	0.000000	-1.000000	-1.000000	826803.000000	1770063149.547344
8362.260000	14447.115000	24741.720000	17866.755000	-7912.260000	-4509.405000	4290.120000	11621.745000	3.311497	2.768737	1.044028	-0.132834	-9.598453	3.131797	11.858690	-2.740622	-14.329140	-1.175020	0.732480	0.948240	-0.180786	0.277221	-1.000000	-1.000000	-1.000000	-1.000000	-1.000000	-1.000000	-1.000000	84.137931	0.000000	-1.000000	-1.000000	826804.000000	1770063149.547352
8308.395000	14378.310000	24676.335000	17808.660000	-8017.290000	-4517.955000	4351.275000	11598.165000	3.032718	-0.182843	-4.528950	-4.375925	-13.800708	1.182551	9.450335	-3.023524	-14.329140	-1.175020	0.732480	0.948240	-0.180786	0.277221	-1.000000	-1.000000	-1.000000	-1.000000	-1.000000	-1.000000	-1.000000	84.137931	0.000000	-1.000000	-1.000000	826805.000000	1770063149.557452
8296.425000	14368.005000	24670.485000	17812.620000	-8033.985000	-4492.305000	4403.835000	11616.255000	-0.803389	-5.155968	-10.903148	-9.747871	-18.554716	0.126097	8.094576	-4.339355	-14.329140	-1.175020	0.732480	0.948240	-0.180786	0.277221	-1.000000	-1.000000	-1.000000	-1.000000	-1.000000	-1.000000	-1.000000	84.137931	0.000000	-1.000000	-1.000000	826806.000000	1770063149.557462
8351.820000	14475.105000	24825.870000	17995.185000	-7930.440000	-4484.430000	4372.830000	11642.895000	-5.192620	-8.506329	-12.451139	-10.109024	-19.461456	1.051225	9.730592	-3.957251	-14.329140	-1.175020	0.732480	0.948240	-0.180786	0.277221	-1.000000	-1.000000	-1.000000	-1.000000	-1.000000	-1.000000	-1.000000	84.137931	0.000000	-1.000000	-1.000000	826807.000000	1770063149.557473
8467.785000	14596.245000	24930.855000	18083.385000	-7805.880000	-4476.915000	4316.580000	11717.685000	-2.588259	-1.480543	-0.092619	3.715121	-6.466644	2.810256	7.667984	1.771068	-14.329140	-1.175020	0.732480	0.948240	-0.180786	0.277221	-1.000000	-1.000000	-1.000000	-1.000000	-1.000000	-1.000000	-1.000000	84.137931	0.000000	-1.000000	-1.000000	826808.000000	1770063149.557478
8506.080000	14581.620000	24833.430000	17953.155000	-7749.180000	-4444.560000	4270.050000	11764.620000	10.711824	17.334602	22.910974	26.220675	21.605127	2.724749	-5.312943	12.825157	-14.329140	-1.175020	0.732480	0.948240	-0.180786	0.277221	-1.000000	-1.000000	-1.000000	-1.000000	-1.000000	-1.000000	-1.000000	84.137931	0.000000	-1.000000	-1.000000	826809.000000	1770063149.562666
8464.635000	14522.220000	24764.895000	17883.135000	-7812.765000	-4508.145000	4226.130000	11727.045000	26.391337	33.980105	36.231012	34.788893	48.834985	-0.215585	-25.672192	22.949115	-14.329140	-1.175020	0.732480	0.948240	-0.180786	0.277221	-1.000000	-1.000000	-1.000000	-1.000000	-1.000000	-1.000000	-1.000000	84.137931	0.000000	-1.000000	-1.000000	826810.000000	1770063149.562678
8395.650000	14490.630000	24731.955000	17837.820000	-7895.880000	-4590.540000	4172.895000	11660.355000	28.887681	31.512898	24.405937	15.965346	53.096490	-6.801754	-41.737827	22.169567	-11.582340	-5.707240	9.339120	0.953489	-0.199768	0.280151	-1.000000	-1.000000	-1.000000	-1.000000	-1.000000	-1.000000	-1.000000	84.137931	0.000000	-1.000000	-1.000000	826811.000000	1770063149.563413
8350.020000	14479.695000	24745.770000	17854.740000	-7950.330000	-4611.870000	4177.485000	11631.735000	10.006193	7.410075	-5.793957	-18.356221	25.587225	-17.083776	-43.464522	5.721433	-11.582340	-5.707240	9.339120	0.953489	-0.199768	0.280151	-1.000000	-1.000000	-1.000000	-1.000000	-1.000000	-1.000000	-1.000000	84.137931	0.000000	-1.000000	-1.000000	826812.000000	1770063149.563422
8362.485000	14452.785000	24737.355000	17852.400000	-8025.165000	-4585.410000	4233.105000	11659.770000	-21.212536	-24.222491	-33.257665	-43.705062	-20.143841	-25.201027	-27.019414	-18.384242	-11.582340	-5.707240	9.339120	0.953489	-0.199768	0.280151	-1.000000	-1.000000	-1.000000	-1.000000	-1.000000	-1.000000	-1.000000	84.137931	0.000000	-1.000000	-1.000000	826813.000000	1770063149.570388
8354.160000	14448.825000	24777.045000	17928.945000	-8118.630000	-4601.070000	4247.595000	11650.905000	-44.079283	-44.424197	-40.260634	-42.749368	-58.698907	-22.278496	3.177278	-34.446590	-11.582340	-5.707240	9.339120	0.953489	-0.199768	0.280151	-1.000000	-1.000000	-1.000000	-1.000000	-1.000000	-1.000000	-1.000000	84.137931	0.000000	-1.000000	-1.000000	826814.000000	1770063149.570398
8354.610000	14459.625000	24816.510000	18031.365000	-8079.615000	-4589.370000	4240.260000	11648.520000	-43.935142	-42.977148	-24.041785	-15.386140	-70.674204	-6.571965	33.959068	-33.198274	-11.582340	-5.707240	9.339120	0.953489	-0.199768	0.280151	-1.000000	-1.000000	-1.000000	-1.000000	-1.000000	-1.000000	-1.000000	84.137931	0.000000	-1.000000	-1.000000	826815.000000	1770063149.572123
8368.695000	14503.950000	24873.345000	18079.245000	-8001.495000	-4596.570000	4226.040000	11642.985000	-23.831557	-24.401480	2.059837	20.796502	-51.917908	14.012558	50.995222	-18.383346	-11.582340	-5.707240	9.339120	0.953489	-0.199768	0.280151	-1.000000	-1.000000	-1.000000	-1.000000	-1.000000	-1.000000	-1.000000	84.137931	0.000000	-1.000000	-1.000000	826816.000000	1770063149.572133
8426.340000	14547.645000	24837.165000	17951.715000	-7895.520000	-4535.415000	4269.420000	11679.030000	1.621521	-1.402705	19.841475	40.904486	-12.307914	29.306413	49.401439	-0.580415	-11.582340	-5.707240	9.339120	0.953489	-0.199768	0.280151	-1.000000	-1.000000	-1.000000	-1.000000	-1.000000	-1.000000	-1.000000	84.137931	0.000000	-1.000000	-1.000000	826817.000000	1770063149.581975
8440.830000	14536.620000	24793.155000	17904.195000	-7795.845000	-4504.140000	4264.380000	11684.970000	20.637152	16.978155	21.511530	32.398946	32.243432	34.557443	34.898374	12.369261	-11.582340	-5.707240	9.339120	0.953489	-0.199768	0.280151	-1.000000	-1.000000	-1.000000	-1.000000	-1.000000	-1.000000	-1.000000	84.137931	0.000000	-1.000000	-1.000000	826818.000000	1770063149.581985
8432.055000	14505.885000	24722.280000	17802.495000	-7766.820000	-4495.815000	4266.450000	11692.980000	30.231197	27.941774	11.949770	4.454612	67.573041	31.490687	15.835832	19.499319	-11.582340	-5.707240	9.339120	0.953489	-0.199768	0.280151	-1.000000	-1.000000	-1.000000	-1.000000	-1.000000	-1.000000	-1.000000	84.137931	0.000000	-1.000000	-1.000000	826819.000000	1770063149.581995
8384.040000	14461.695000	24675.345000	17727.885000	-7781.670000	-4482.585000	4285.035000	11664.180000	31.289385	29.597178	-1.175873	-24.575097	82.198871	23.753010	-2.115217	23.018405	-11.582340	-5.707240	9.339120	0.953489	-0.199768	0.280151	-1.000000	-1.000000	-1.000000	-1.000000	-1.000000	-1.000000	-1.000000	84.137931	0.000000	-1.000000	-1.000000	826820.000000	1770063149.582000
8394.300000	14494.050000	24730.110000	17779.635000	-7804.305000	-4494.375000	4283.280000	11651.535000	24.263193	21.321681	-11.672503	-40.259440	68.616461	12.362535	-16.306053	22.401949	28.597240	1.358140	5.417300	0.971799	-0.230651	0.267516	-1.000000	-1.000000	-1.000000	-1.000000	-1.000000	-1.000000	-1.000000	84.137931	0.000000	-1.000000	-1.000000	826821.000000	1770063149.583393
8397.495000	14501.565000	24745.365000	17835.480000	-7802.100000	-4473.315000	4303.260000	11671.515000	11.155079	8.375181	-13.162658	-33.961475	30.835451	-3.330840	-26.710078	15.319534	28.597240	1.358140	5.417300	0.971799	-0.230651	0.267516	-1.000000	-1.000000	-1.000000	-1.000000	-1.000000	-1.000000	-1.000000	84.137931	0.000000	-1.000000	-1.000000	826822.000000	1770063149.583404
8402.580000	14518.485000	24770.295000	17858.970000	-7873.065000	-4510.215000	4261.275000	11671.470000	-3.077596	-1.659488	-4.046321	-8.021940	-15.375447	-20.949496	-33.511188	3.225620	28.597240	1.358140	5.417300	0.971799	-0.230651	0.267516	-1.000000	-1.000000	-1.000000	-1.000000	-1.000000	-1.000000	-1.000000	84.137931	0.000000	-1.000000	-1.000000	826823.000000	1770063149.587948
8392.230000	14501.610000	24767.460000	17858.970000	-7989.120000	-4599.810000	4217.355000	11652.615000	-13.853308	-7.056629	7.710561	20.360993	-56.386257	-36.066678	-35.361413	-8.966217	28.597240	1.358140	5.417300	0.971799	-0.230651	0.267516	-1.000000	-1.000000	-1.000000	-1.000000	-1.000000	-1.000000	-1.000000	84.137931	0.000000	-1.000000	-1.000000	826824.000000	1770063149.587958
8388.135000	14496.480000	24787.755000	17928.900000	-7999.785000	-4620.285000	4230.945000	11653.470000	-20.328528	-12.223780	11.741289	33.921263	-86.694219	-45.568036	-30.150201	-17.655080	28.597240	1.358140	5.417300	0.971799	-0.230651	0.267516	-1.000000	-1.000000	-1.000000	-1.000000	-1.000000	-1.000000	-1.000000	84.137931	0.000000	-1.000000	-1.000000	826825.000000	1770063149.593112
8372.970000	14468.085000	24741.495000	17899.335000	-7984.215000	-4585.410000	4256.100000	11671.830000	-23.997003	-19.744678	6.509566	32.621434	-99.159208	-45.588260	-16.448348	-21.368904	28.597240	1.358140	5.417300	0.971799	-0.230651	0.267516	-1.000000	-1.000000	-1.000000	-1.000000	-1.000000	-1.000000	-1.000000	84.137931	0.000000	-1.000000	-1.000000	826826.000000	1770063149.593121
8372.700000	14461.740000	24726.960000	17893.485000	-7937.820000	-4558.590000	4263.390000	11677.140000	-24.087707	-24.852857	-0.507311	26.647452	-83.034367	-31.232403	3.911670	-18.753024	28.597240	1.358140	5.417300	0.971799	-0.230651	0.267516	-1.000000	-1.000000	-1.000000	-1.000000	-1.000000	-1.000000	-1.000000	84.137931	0.000000	-1.000000	-1.000000	826827.000000	1770063149.595242
8401.860000	14517.450000	24794.865000	17977.545000	-7894.035000	-4576.590000	4235.805000	11667.195000	-16.311336	-19.120181	-0.911241	22.326319	-35.134861	-3.089253	23.925857	-9.329074	28.597240	1.358140	5.417300	0.971799	-0.230651	0.267516	-1.000000	-1.000000	-1.000000	-1.000000	-1.000000	-1.000000	-1.000000	84.137931	0.000000	-1.000000	-1.000000	826828.000000	1770063149.595251
8430.030000	14514.075000	24755.580000	17877.105000	-7879.545000	-4524.075000	4253.490000	11674.890000	1.770212	0.017803	6.970806	18.647621	31.409709	28.987950	34.365377	4.229844	28.597240	1.358140	5.417300	0.971799	-0.230651	0.267516	-1.000000	-1.000000	-1.000000	-1.000000	-1.000000	-1.000000	-1.000000	84.137931	0.000000	-1.000000	-1.000000	826829.000000	1770063149.599176
8440.110000	14519.835000	24758.685000	17823.285000	-7855.110000	-4540.140000	4245.930000	11668.545000	24.169701	23.160852	14.332981	6.360653	90.395965	51.397270	30.544237	16.203991	28.597240	1.358140	5.417300	0.971799	-0.230651	0.267516	-1.000000	-1.000000	-1.000000	-1.000000	-1.000000	-1.000000	-1.000000	84.137931	0.000000	-1.000000	-1.000000	826830.000000	1770063149.599186
8447.850000	14501.925000	24724.845000	17734.905000	-7893.180000	-4536.945000	4266.630000	11691.630000	38.454524	35.404041	10.368707	-22.035875	116.624688	54.492606	15.764536	20.792895	42.361760	1.907500	4.745860	0.963621	-0.232360	0.272643	-1.000000	-1.000000	-1.000000	-1.000000	-1.000000	-1.000000	-1.000000	84.137931	0.000000	-1.000000	-1.000000	826831.000000	1770063149.603188
8425.395000	14450.805000	24673.320000	17722.530000	-7933.590000	-4507.380000	4281.300000	11686.995000	35.543845	28.363111	-6.392404	-57.910934	99.731788	38.738548	-0.444041	16.417093	42.361760	1.907500	4.745860	0.963621	-0.232360	0.272643	-1.000000	-1.000000	-1.000000	-1.000000	-1.000000	-1.000000	-1.000000	84.137931	0.000000	-1.000000	-1.000000	826832.000000	1770063149.603198
8370.765000	14440.005000	24690.870000	17803.485000	-7921.890000	-4505.895000	4278.645000	11658.555000	15.456134	5.225590	-27.436118	-78.903343	49.287359	15.153599	-8.798413	6.091680	42.361760	1.907500	4.745860	0.963621	-0.232360	0.272643	-1.000000	-1.000000	-1.000000	-1.000000	-1.000000	-1.000000	-1.000000	84.137931	0.000000	-1.000000	-1.000000	826833.000000	1770063149.607288
8368.380000	14477.670000	24752.295000	17898.120000	-7896.060000	-4530.510000	4247.730000	11622.240000	-13.367921	-20.488480	-38.163808	-64.533034	-11.299851	-5.740518	-8.681402	-6.599789	42.361760	1.907500	4.745860	0.963621	-0.232360	0.272643	-1.000000	-1.000000	-1.000000	-1.000000	-1.000000	-1.000000	-1.000000	84.137931	0.000000	-1.000000	-1.000000	826834.000000	1770063149.607299
8329.185000	14484.195000	24781.410000	17945.190000	-7834.680000	-4520.925000	4243.995000	11616.795000	-37.315039	-32.377101	-26.251678	-12.963344	-57.782436	-21.707040	-7.082239	-18.387535	42.361760	1.907500	4.745860	0.963621	-0.232360	0.272643	-1.000000	-1.000000	-1.000000	-1.000000	-1.000000	-1.000000	-1.000000	84.137931	0.000000	-1.000000	-1.000000	826835.000000	1770063149.612632
8343.225000	14449.680000	24749.505000	17905.590000	-7835.265000	-4507.695000	4265.685000	11642.805000	-44.597019	-24.345544	4.874253	51.563799	-75.769611	-32.309603	-7.984006	-23.850541	42.361760	1.907500	4.745860	0.963621	-0.232360	0.272643	-1.000000	-1.000000	-1.000000	-1.000000	-1.000000	-1.000000	-1.000000	84.137931	0.000000	-1.000000	-1.000000	826836.000000	1770063149.612644
8335.935000	14439.060000	24740.280000	17888.310000	-7865.640000	-4497.120000	4272.930000	11638.440000	-32.260730	-5.657853	34.752414	92.075825	-65.713334	-34.079047	-8.462619	-17.833876	42.361760	1.907500	4.745860	0.963621	-0.232360	0.272643	-1.000000	-1.000000	-1.000000	-1.000000	-1.000000	-1.000000	-1.000000	84.137931	0.000000	-1.000000	-1.000000	826837.000000	1770063149.615282
8334.855000	14456.970000	24776.730000	17932.500000	-7933.680000	-4519.980000	4266.675000	11641.545000	-7.625615	10.180052	44.620460	88.129832	-40.244514	-26.090136	-5.677629	-2.039032	42.361760	1.907500	4.745860	0.963621	-0.232360	0.272643	-1.000000	-1.000000	-1.000000	-1.000000	-1.000000	-1.000000	-1.000000	84.137931	0.000000	-1.000000	-1.000000	826838.000000	1770063149.615292
8336.970000	14469.795000	24798.465000	17950.365000	-7909.830000	-4555.890000	4248.270000	11640.420000	16.708363	17.237501	32.888830	49.754441	-13.475938	-13.292063	-1.609541	14.592900	42.361760	1.907500	4.745860	0.963621	-0.232360	0.272643	-1.000000	-1.000000	-1.000000	-1.000000	-1.000000	-1.000000	-1.000000	84.137931	0.000000	-1.000000	-1.000000	826839.000000	1770063149.623879
8366.535000	14492.970000	24766.200000	17850.195000	-7845.390000	-4534.155000	4260.330000	11657.835000	31.234120	17.302662	10.283393	0.729922	9.602079	-1.439761	0.548449	23.085012	42.361760	1.907500	4.745860	0.963621	-0.232360	0.272643	-1.000000	-1.000000	-1.000000	-1.000000	-1.000000	-1.000000	-1.000000	84.137931	0.000000	-1.000000	-1.000000	826840.000000	1770063149.623890
8344.575000	14480.010000	24740.820000	17878.095000	-7809.840000	-4474.215000	4285.710000	11650.005000	33.681882	14.287529	-12.150786	-41.332917	30.872132	8.455098	1.216908	20.769089	11.811240	1.281840	-3.860780	0.949766	-0.181701	0.274352	-1.000000	-1.000000	-1.000000	-1.000000	-1.000000	-1.000000	-1.000000	84.137931	0.000000	-1.000000	-1.000000	826841.000000	1770063149.628484
8324.010000	14435.010000	24696.945000	17857.710000	-7881.795000	-4468.995000	4303.260000	11641.860000	26.160896	8.861394	-28.682294	-67.252898	45.894205	18.190003	3.441191	11.287016	11.811240	1.281840	-3.860780	0.949766	-0.181701	0.274352	-1.000000	-1.000000	-1.000000	-1.000000	-1.000000	-1.000000	-1.000000	84.137931	0.000000	-1.000000	-1.000000	826842.000000	1770063149.628495
8340.930000	14417.145000	24703.245000	17834.220000	-7951.320000	-4484.430000	4326.570000	11666.115000	12.474951	-1.225239	-37.216885	-72.888511	41.689258	25.553421	8.288073	0.709284	11.811240	1.281840	-3.860780	0.949766	-0.181701	0.274352	-1.000000	-1.000000	-1.000000	-1.000000	-1.000000	-1.000000	-1.000000	84.137931	0.000000	-1.000000	-1.000000	826843.000000	1770063149.628507
