Channel1	Channel2	Channel3	Channel4	Channel5	Channel6	Channel7	Channel8	FilteredChannel1	FilteredChannel2	FilteredChannel3	FilteredChannel4	FilteredChannel5	FilteredChannel6	FilteredChannel7	FilteredChannel8	GyroX	GyroY	GyroZ	AccX	AccY	AccZ	PPG1	PPG2	rawPPG1	rawPPG2	rawPPG3	Hr	Hrv	Battery	Trigger	PhysicalTrigger	AutoTrigger	NumMeasurements	Timestamp
3610.485000	-16480.215000	-21081.915000	605.070000	-7105.410000	-3685.095000	377487.315000	21640.905000	6.128049	-8.941658	-10.248250	-10.662349	-9.909139	-9.322663	0.000000	19.031680	-12.558980	4.272800	-8.713460	0.969785	-0.101074	0.218017	-1.000000	-1.000000	-1.000000	-1.000000	-1.000000	-1.000000	-1.000000	62.137931	0.000000	-1.000000	-1.000000	749151.000000	1772738895.869481
3597.030000	-16486.200000	-21076.605000	612.720000	-7098.165000	-3668.490000	377487.315000	21630.195000	10.334776	-1.246337	-4.544571	-5.557647	-5.244069	-4.905927	0.000000	21.419948	-12.558980	4.272800	-8.713460	0.969785	-0.101074	0.218017	-1.000000	-1.000000	-1.000000	-1.000000	-1.000000	-1.000000	-1.000000	62.137931	0.000000	-1.000000	-1.000000	749152.000000	1772738895.869485
3564.180000	-16497.945000	-21081.465000	606.735000	-7107.480000	-3686.895000	377487.315000	21602.655000	12.125438	5.179331	-0.503521	-2.002130	-1.963129	-1.347147	0.000000	16.053654	-12.558980	4.272800	-8.713460	0.969785	-0.101074	0.218017	-1.000000	-1.000000	-1.000000	-1.000000	-1.000000	-1.000000	-1.000000	62.137931	0.000000	-1.000000	-1.000000	749153.000000	1772738895.869489
3570.660000	-16504.290000	-21090.015000	596.835000	-7116.390000	-3702.645000	377487.315000	21614.580000	7.904563	7.933986	2.193680	0.830358	0.539353	1.211633	0.000000	3.238924	-12.558980	4.272800	-8.713460	0.969785	-0.101074	0.218017	-1.000000	-1.000000	-1.000000	-1.000000	-1.000000	-1.000000	-1.000000	62.137931	0.000000	-1.000000	-1.000000	749154.000000	1772738895.869492
3588.345000	-16487.865000	-21079.530000	604.125000	-7110.945000	-3713.535000	377487.315000	21626.685000	-1.840964	6.697758	4.103718	3.625812	2.938954	3.082096	0.000000	-11.599323	-12.558980	4.272800	-8.713460	0.969785	-0.101074	0.218017	-1.000000	-1.000000	-1.000000	-1.000000	-1.000000	-1.000000	-1.000000	62.137931	0.000000	-1.000000	-1.000000	749155.000000	1772738895.877584
3579.300000	-16470.405000	-21066.525000	613.215000	-7103.745000	-3724.605000	377487.315000	21594.150000	-11.080432	3.992773	5.847379	6.533958	5.505116	4.717308	0.000000	-20.967627	-12.558980	4.272800	-8.713460	0.969785	-0.101074	0.218017	-1.000000	-1.000000	-1.000000	-1.000000	-1.000000	-1.000000	-1.000000	62.137931	0.000000	-1.000000	-1.000000	749156.000000	1772738895.877594
3555.000000	-16495.920000	-21083.355000	606.645000	-7104.465000	-3716.955000	377487.315000	21568.005000	-14.153627	2.541002	7.535884	9.079968	7.950312	6.229853	-0.000000	-21.932903	-12.558980	4.272800	-8.713460	0.969785	-0.101074	0.218017	-1.000000	-1.000000	-1.000000	-1.000000	-1.000000	-1.000000	-1.000000	62.137931	0.000000	-1.000000	-1.000000	749157.000000	1772738895.919347
3597.480000	-16493.310000	-21079.125000	613.215000	-7097.040000	-3698.550000	377487.315000	21604.995000	-10.205973	1.766240	7.372003	9.317036	8.589878	6.575097	-0.000000	-16.887024	-12.558980	4.272800	-8.713460	0.969785	-0.101074	0.218017	-1.000000	-1.000000	-1.000000	-1.000000	-1.000000	-1.000000	-1.000000	62.137931	0.000000	-1.000000	-1.000000	749158.000000	1772738895.919357
3603.870000	-16505.865000	-21090.555000	605.430000	-7103.745000	-3691.080000	377487.315000	21633.660000	-1.787177	-0.417154	3.824013	5.809763	5.883036	4.586246	-0.000000	-7.900834	-12.558980	4.272800	-8.713460	0.969785	-0.101074	0.218017	-1.000000	-1.000000	-1.000000	-1.000000	-1.000000	-1.000000	-1.000000	62.137931	0.000000	-1.000000	-1.000000	749159.000000	1772738895.919368
3547.620000	-16501.185000	-21081.420000	616.950000	-7093.125000	-3665.070000	377487.315000	21601.035000	6.129393	-3.657403	-1.441641	0.188227	0.863709	0.777281	-0.000000	3.967582	-12.558980	4.272800	-8.713460	0.969785	-0.101074	0.218017	-1.000000	-1.000000	-1.000000	-1.000000	-1.000000	-1.000000	-1.000000	62.137931	0.000000	-1.000000	-1.000000	749160.000000	1772738895.919372
3573.810000	-16477.290000	-21064.365000	625.590000	-7089.300000	-3663.990000	377487.315000	21623.715000	8.663567	-4.973529	-4.791284	-4.122087	-3.499547	-2.691234	-0.000000	15.079316	-14.466480	4.471180	-6.439720	0.968259	-0.099975	0.216979	-1.000000	-1.000000	-1.000000	-1.000000	-1.000000	-1.000000	-1.000000	62.137931	0.000000	-1.000000	-1.000000	749161.000000	1772738895.919376
3601.620000	-16471.080000	-21053.520000	628.290000	-7090.335000	-3674.115000	377487.315000	21652.020000	6.774291	-1.947751	-3.903228	-4.966631	-4.976688	-3.881080	-0.000000	21.397260	-14.466480	4.471180	-6.439720	0.968259	-0.099975	0.216979	-1.000000	-1.000000	-1.000000	-1.000000	-1.000000	-1.000000	-1.000000	62.137931	0.000000	-1.000000	-1.000000	749162.000000	1772738895.919380
3607.065000	-16463.340000	-21049.380000	628.785000	-7089.930000	-3687.975000	377487.315000	21623.895000	4.770346	3.958461	0.295732	-2.819655	-3.581710	-2.715795	-0.000000	20.760895	-14.466480	4.471180	-6.439720	0.968259	-0.099975	0.216979	-1.000000	-1.000000	-1.000000	-1.000000	-1.000000	-1.000000	-1.000000	62.137931	0.000000	-1.000000	-1.000000	749163.000000	1772738895.927558
3554.370000	-16493.085000	-21080.565000	602.505000	-7109.505000	-3721.635000	377487.315000	21603.195000	2.751810	7.641150	3.784884	-0.409239	-1.382177	-1.004677	-0.000000	11.991694	-14.466480	4.471180	-6.439720	0.968259	-0.099975	0.216979	-1.000000	-1.000000	-1.000000	-1.000000	-1.000000	-1.000000	-1.000000	62.137931	0.000000	-1.000000	-1.000000	749164.000000	1772738895.927567
3529.125000	-16484.670000	-21075.120000	611.280000	-7101.360000	-3716.190000	377487.315000	21607.200000	-1.963533	5.163867	2.741015	-0.425922	-0.650074	-0.628392	-0.000000	-1.992005	-14.466480	4.471180	-6.439720	0.968259	-0.099975	0.216979	-1.000000	-1.000000	-1.000000	-1.000000	-1.000000	-1.000000	-1.000000	62.137931	0.000000	-1.000000	-1.000000	749165.000000	1772738895.927902
3525.660000	-16464.420000	-21052.215000	638.010000	-7074.720000	-3682.755000	377487.315000	21578.985000	-8.593099	-1.328864	-1.831237	-2.252087	-1.261197	-1.363084	-0.000000	-14.252865	-14.466480	4.471180	-6.439720	0.968259	-0.099975	0.216979	-1.000000	-1.000000	-1.000000	-1.000000	-1.000000	-1.000000	-1.000000	62.137931	0.000000	-1.000000	-1.000000	749166.000000	1772738895.927910
3586.500000	-16433.010000	-21014.055000	676.755000	-7036.875000	-3640.545000	377487.315000	21490.605000	-12.375423	-5.562873	-4.690780	-2.337995	-0.716972	-1.068637	-0.000000	-21.741035	-14.466480	4.471180	-6.439720	0.968259	-0.099975	0.216979	-1.000000	-1.000000	-1.000000	-1.000000	-1.000000	-1.000000	-1.000000	62.137931	0.000000	-1.000000	-1.000000	749167.000000	1772738895.962754
3653.505000	-16431.930000	-21008.970000	682.560000	-7033.455000	-3621.195000	377487.315000	21472.605000	-7.888621	-3.944092	-2.234287	1.419306	2.554666	1.570105	0.000000	-25.954854	-14.466480	4.471180	-6.439720	0.968259	-0.099975	0.216979	-1.000000	-1.000000	-1.000000	-1.000000	-1.000000	-1.000000	-1.000000	62.137931	0.000000	-1.000000	-1.000000	749168.000000	1772738895.962764
3611.160000	-16498.305000	-21079.350000	613.485000	-7099.515000	-3676.185000	377487.315000	21603.240000	5.480002	0.303775	2.475390	5.595380	5.550829	4.014883	0.000000	-23.168321	-14.466480	4.471180	-6.439720	0.968259	-0.099975	0.216979	-1.000000	-1.000000	-1.000000	-1.000000	-1.000000	-1.000000	-1.000000	62.137931	0.000000	-1.000000	-1.000000	749169.000000	1772738896.053753
3560.085000	-16540.515000	-21128.535000	562.410000	-7146.855000	-3716.505000	377487.315000	21715.785000	18.092034	-0.150180	1.652572	3.207233	2.369219	1.450244	0.000000	-4.989676	-14.466480	4.471180	-6.439720	0.968259	-0.099975	0.216979	-1.000000	-1.000000	-1.000000	-1.000000	-1.000000	-1.000000	-1.000000	62.137931	0.000000	-1.000000	-1.000000	749170.000000	1772738896.053764
3574.035000	-16512.030000	-21105.180000	583.065000	-7128.405000	-3711.195000	377487.315000	21671.865000	17.558370	-7.306643	-7.000107	-6.868042	-7.379702	-6.119980	0.000000	25.320573	-14.664860	3.143560	-6.744920	0.967588	-0.101806	0.219665	-1.000000	-1.000000	-1.000000	-1.000000	-1.000000	-1.000000	-1.000000	62.137931	0.000000	-1.000000	-1.000000	749171.000000	1772738896.085674
3584.295000	-16483.815000	-21092.265000	584.280000	-7128.900000	-3736.260000	377487.315000	21634.830000	3.768003	-13.443005	-15.225330	-15.977462	-15.559640	-12.039848	0.000000	47.907595	-14.664860	3.143560	-6.744920	0.967588	-0.101806	0.219665	-1.000000	-1.000000	-1.000000	-1.000000	-1.000000	-1.000000	-1.000000	62.137931	0.000000	-1.000000	-1.000000	749172.000000	1772738896.085684
3597.795000	-16472.655000	-21078.585000	592.335000	-7123.590000	-3739.545000	377487.315000	21632.580000	-10.772912	-9.885441	-13.252827	-14.892314	-14.132790	-10.391371	0.000000	45.406020	-14.664860	3.143560	-6.744920	0.967588	-0.101806	0.219665	-1.000000	-1.000000	-1.000000	-1.000000	-1.000000	-1.000000	-1.000000	62.137931	0.000000	-1.000000	-1.000000	749173.000000	1772738896.090562
3584.970000	-16471.620000	-21065.805000	613.080000	-7110.765000	-3721.005000	377487.315000	21639.015000	-14.793998	2.880053	-0.337630	-3.091117	-3.194556	-1.705547	0.000000	19.630924	-14.664860	3.143560	-6.744920	0.967588	-0.101806	0.219665	-1.000000	-1.000000	-1.000000	-1.000000	-1.000000	-1.000000	-1.000000	62.137931	0.000000	-1.000000	-1.000000	749174.000000	1772738896.090576
3595.635000	-16492.095000	-21088.530000	604.845000	-7113.825000	-3713.715000	377487.315000	21646.530000	-8.431869	15.482279	14.562856	11.499223	9.851075	8.181501	-0.000000	-12.527595	-14.664860	3.143560	-6.744920	0.967588	-0.101806	0.219665	-1.000000	-1.000000	-1.000000	-1.000000	-1.000000	-1.000000	-1.000000	62.137931	0.000000	-1.000000	-1.000000	749175.000000	1772738896.090583
3578.085000	-16514.955000	-21105.495000	593.730000	-7111.035000	-3686.040000	377487.315000	21642.345000	-0.803176	18.134111	20.382102	18.993340	16.628027	13.060676	-0.000000	-32.977867	-14.664860	3.143560	-6.744920	0.967588	-0.101806	0.219665	-1.000000	-1.000000	-1.000000	-1.000000	-1.000000	-1.000000	-1.000000	62.137931	0.000000	-1.000000	-1.000000	749176.000000	1772738896.090587
3552.750000	-16512.705000	-21092.850000	606.555000	-7101.900000	-3668.040000	377487.315000	21604.860000	0.166497	9.510640	13.995582	15.746598	14.649243	11.571642	-0.000000	-35.006950	-14.664860	3.143560	-6.744920	0.967588	-0.101806	0.219665	-1.000000	-1.000000	-1.000000	-1.000000	-1.000000	-1.000000	-1.000000	62.137931	0.000000	-1.000000	-1.000000	749177.000000	1772738896.090591
3539.070000	-16516.755000	-21092.265000	604.620000	-7107.255000	-3683.295000	377487.315000	21576.240000	-4.493968	-2.029592	3.102694	7.375509	8.692654	7.531541	-0.000000	-27.386603	-14.664860	3.143560	-6.744920	0.967588	-0.101806	0.219665	-1.000000	-1.000000	-1.000000	-1.000000	-1.000000	-1.000000	-1.000000	62.137931	0.000000	-1.000000	-1.000000	749178.000000	1772738896.090595
3568.770000	-16487.415000	-21065.490000	627.615000	-7085.430000	-3672.135000	377487.315000	21592.170000	-6.970988	-6.977872	-2.583730	1.905076	4.728570	4.851580	-0.000000	-21.966407	-14.664860	3.143560	-6.744920	0.967588	-0.101806	0.219665	-1.000000	-1.000000	-1.000000	-1.000000	-1.000000	-1.000000	-1.000000	62.137931	0.000000	-1.000000	-1.000000	749179.000000	1772738896.090610
3589.560000	-16474.770000	-21059.280000	630.315000	-7083.855000	-3686.715000	377487.315000	21613.590000	-1.944998	-3.536169	-1.056684	1.347579	3.756890	3.734115	-0.000000	-17.776020	-14.664860	3.143560	-6.744920	0.967588	-0.101806	0.219665	-1.000000	-1.000000	-1.000000	-1.000000	-1.000000	-1.000000	-1.000000	62.137931	0.000000	-1.000000	-1.000000	749180.000000	1772738896.090614
3570.120000	-16486.020000	-21080.790000	602.640000	-7110.720000	-3724.290000	377487.315000	21610.485000	7.929685	2.382114	2.069740	1.462880	2.157424	1.627021	-0.000000	-5.689408	-16.740220	5.539380	-7.584220	0.966245	-0.101623	0.216674	-1.000000	-1.000000	-1.000000	-1.000000	-1.000000	-1.000000	-1.000000	62.137931	0.000000	-1.000000	-1.000000	749181.000000	1772738896.090618
3577.320000	-16489.935000	-21090.240000	592.020000	-7120.620000	-3725.415000	377487.315000	21627.360000	15.463564	4.107797	0.626679	-2.416816	-3.408684	-3.522093	-0.000000	15.007730	-16.740220	5.539380	-7.584220	0.966245	-0.101623	0.216674	-1.000000	-1.000000	-1.000000	-1.000000	-1.000000	-1.000000	-1.000000	62.137931	0.000000	-1.000000	-1.000000	749182.000000	1772738896.090621
3589.245000	-16498.620000	-21092.760000	594.945000	-7113.825000	-3710.160000	377487.315000	21638.475000	16.046550	0.077978	-6.151275	-10.351838	-11.926541	-10.613805	-0.000000	34.237115	-16.740220	5.539380	-7.584220	0.966245	-0.101623	0.216674	-1.000000	-1.000000	-1.000000	-1.000000	-1.000000	-1.000000	-1.000000	62.137931	0.000000	-1.000000	-1.000000	749183.000000	1772738896.092980
3594.735000	-16493.490000	-21081.240000	611.235000	-7096.050000	-3681.720000	377487.315000	21644.370000	10.000303	-6.002842	-13.145147	-17.186673	-18.181507	-15.548303	-0.000000	41.668763	-16.740220	5.539380	-7.584220	0.966245	-0.101623	0.216674	-1.000000	-1.000000	-1.000000	-1.000000	-1.000000	-1.000000	-1.000000	62.137931	0.000000	-1.000000	-1.000000	749184.000000	1772738896.092988
3576.105000	-16491.060000	-21067.560000	629.505000	-7078.860000	-3651.210000	377487.315000	21617.550000	0.288674	-8.947560	-14.072050	-16.774681	-17.001868	-14.459803	-0.000000	33.940509	-16.740220	5.539380	-7.584220	0.966245	-0.101623	0.216674	-1.000000	-1.000000	-1.000000	-1.000000	-1.000000	-1.000000	-1.000000	62.137931	0.000000	-1.000000	-1.000000	749185.000000	1772738896.093603
3549.150000	-16493.265000	-21065.040000	629.865000	-7080.930000	-3659.445000	377487.315000	21587.715000	-9.080319	-6.250861	-7.077630	-7.567251	-7.669393	-6.896178	0.000000	14.160892	-16.740220	5.539380	-7.584220	0.966245	-0.101623	0.216674	-1.000000	-1.000000	-1.000000	-1.000000	-1.000000	-1.000000	-1.000000	62.137931	0.000000	-1.000000	-1.000000	749186.000000	1772738896.093611
3577.410000	-16489.035000	-21070.440000	618.930000	-7092.540000	-3673.755000	377487.315000	21614.805000	-13.999422	0.264906	3.765919	5.594958	5.131886	3.574846	0.000000	-10.253541	-16.740220	5.539380	-7.584220	0.966245	-0.101623	0.216674	-1.000000	-1.000000	-1.000000	-1.000000	-1.000000	-1.000000	-1.000000	62.137931	0.000000	-1.000000	-1.000000	749187.000000	1772738896.093619
3600.945000	-16496.460000	-21086.865000	599.670000	-7111.080000	-3700.890000	377487.315000	21634.065000	-12.299919	5.790690	11.302217	14.567532	13.898466	11.128771	0.000000	-28.846982	-16.740220	5.539380	-7.584220	0.966245	-0.101623	0.216674	-1.000000	-1.000000	-1.000000	-1.000000	-1.000000	-1.000000	-1.000000	62.137931	0.000000	-1.000000	-1.000000	749188.000000	1772738896.093622
3591.900000	-16490.115000	-21085.695000	598.410000	-7113.105000	-3723.930000	377487.315000	21640.095000	-5.630946	6.252100	10.777414	14.157626	13.792704	11.748790	0.000000	-33.109011	-16.740220	5.539380	-7.584220	0.966245	-0.101623	0.216674	-1.000000	-1.000000	-1.000000	-1.000000	-1.000000	-1.000000	-1.000000	62.137931	0.000000	-1.000000	-1.000000	749189.000000	1772738896.095861
3583.035000	-16487.910000	-21084.030000	599.580000	-7113.150000	-3723.930000	377487.315000	21626.370000	1.650216	2.221840	4.161781	6.687513	6.949116	6.750197	0.000000	-22.960990	-16.740220	5.539380	-7.584220	0.966245	-0.101623	0.216674	-1.000000	-1.000000	-1.000000	-1.000000	-1.000000	-1.000000	-1.000000	62.137931	0.000000	-1.000000	-1.000000	749190.000000	1772738896.095865
3555.630000	-16515.585000	-21103.920000	582.975000	-7127.910000	-3727.980000	377487.315000	21609.720000	5.390153	-2.510658	-2.782337	-1.517444	-0.735833	0.560483	0.000000	-6.764840	-19.120780	5.753020	-5.432560	0.964780	-0.101257	0.215209	-1.000000	-1.000000	-1.000000	-1.000000	-1.000000	-1.000000	-1.000000	62.137931	0.000000	-1.000000	-1.000000	749191.000000	1772738896.095870
3558.870000	-16488.810000	-21069.900000	621.495000	-7089.480000	-3683.880000	377487.315000	21630.285000	3.698384	-4.980877	-6.041741	-6.138978	-5.233262	-3.565492	0.000000	6.025339	-19.120780	5.753020	-5.432560	0.964780	-0.101257	0.215209	-1.000000	-1.000000	-1.000000	-1.000000	-1.000000	-1.000000	-1.000000	62.137931	0.000000	-1.000000	-1.000000	749192.000000	1772738896.095873
3551.625000	-16454.655000	-21025.665000	670.410000	-7042.320000	-3624.345000	377487.315000	21602.745000	-1.493527	-3.309581	-3.903026	-5.229607	-4.727885	-3.810982	-0.000000	11.569382	-19.120780	5.753020	-5.432560	0.964780	-0.101257	0.215209	-1.000000	-1.000000	-1.000000	-1.000000	-1.000000	-1.000000	-1.000000	62.137931	0.000000	-1.000000	-1.000000	749193.000000	1772738896.095877
3547.305000	-16495.965000	-21068.415000	627.750000	-7082.010000	-3650.805000	377487.315000	21583.530000	-5.182383	2.067273	2.187675	0.139815	-0.079087	-0.385843	-0.000000	11.069274	-19.120780	5.753020	-5.432560	0.964780	-0.101257	0.215209	-1.000000	-1.000000	-1.000000	-1.000000	-1.000000	-1.000000	-1.000000	62.137931	0.000000	-1.000000	-1.000000	749194.000000	1772738896.095880
3583.665000	-16492.995000	-21075.120000	617.490000	-7093.350000	-3670.155000	377487.315000	21582.270000	-3.067852	6.657342	6.610469	4.632271	4.013397	3.117438	-0.000000	7.176453	-19.120780	5.753020	-5.432560	0.964780	-0.101257	0.215209	-1.000000	-1.000000	-1.000000	-1.000000	-1.000000	-1.000000	-1.000000	62.137931	0.000000	-1.000000	-1.000000	749195.000000	1772738896.095884
3626.145000	-16464.870000	-21060.225000	628.245000	-7085.880000	-3673.035000	377487.315000	21592.395000	4.735479	6.731286	5.367159	4.159847	3.783758	3.306458	-0.000000	2.254861	-19.120780	5.753020	-5.432560	0.964780	-0.101257	0.215209	-1.000000	-1.000000	-1.000000	-1.000000	-1.000000	-1.000000	-1.000000	62.137931	0.000000	-1.000000	-1.000000	749196.000000	1772738896.095887
3614.985000	-16484.895000	-21085.470000	598.995000	-7117.380000	-3719.070000	377487.315000	21647.520000	12.911804	3.086251	0.197629	0.015964	0.106073	0.369951	-0.000000	-1.181112	-19.120780	5.753020	-5.432560	0.964780	-0.101257	0.215209	-1.000000	-1.000000	-1.000000	-1.000000	-1.000000	-1.000000	-1.000000	62.137931	0.000000	-1.000000	-1.000000	749197.000000	1772738896.095891
3573.810000	-16499.250000	-21093.480000	591.750000	-7124.130000	-3731.580000	377487.315000	21615.255000	14.514138	-2.155179	-5.275012	-4.639013	-4.355845	-3.594591	-0.000000	-0.900121	-19.120780	5.753020	-5.432560	0.964780	-0.101257	0.215209	-1.000000	-1.000000	-1.000000	-1.000000	-1.000000	-1.000000	-1.000000	62.137931	0.000000	-1.000000	-1.000000	749198.000000	1772738896.095894
3529.755000	-16458.480000	-21041.235000	646.515000	-7072.785000	-3676.770000	377487.315000	21557.430000	6.401897	-6.569117	-7.743397	-6.673660	-6.526712	-5.692637	-0.000000	1.237578	-19.120780	5.753020	-5.432560	0.964780	-0.101257	0.215209	-1.000000	-1.000000	-1.000000	-1.000000	-1.000000	-1.000000	-1.000000	62.137931	0.000000	-1.000000	-1.000000	749199.000000	1772738896.095898
3485.025000	-16456.230000	-21031.830000	661.005000	-7059.330000	-3661.605000	377487.315000	21536.460000	-8.266676	-6.582239	-4.378728	-3.273814	-3.458413	-3.230587	-0.000000	0.161575	-19.120780	5.753020	-5.432560	0.964780	-0.101257	0.215209	-1.000000	-1.000000	-1.000000	-1.000000	-1.000000	-1.000000	-1.000000	62.137931	0.000000	-1.000000	-1.000000	749200.000000	1772738896.095901
3557.745000	-16480.800000	-21075.120000	618.750000	-7089.345000	-3670.020000	377487.315000	21624.795000	-20.854933	-2.293972	2.290755	2.996437	2.598987	1.734116	-0.000000	-3.993651	-16.099300	6.058220	-3.067260	0.968076	-0.105041	0.215515	-1.000000	-1.000000	-1.000000	-1.000000	-1.000000	-1.000000	-1.000000	62.137931	0.000000	-1.000000	-1.000000	749201.000000	1772738896.095905
3681.270000	-16467.750000	-21076.155000	612.585000	-7099.155000	-3671.505000	377487.315000	21659.400000	-19.931675	1.354489	4.738788	4.584153	4.570834	3.034044	-0.000000	-3.623914	-16.099300	6.058220	-3.067260	0.968076	-0.105041	0.215515	-1.000000	-1.000000	-1.000000	-1.000000	-1.000000	-1.000000	-1.000000	62.137931	0.000000	-1.000000	-1.000000	749202.000000	1772738896.095908
3645.765000	-16500.375000	-21090.375000	602.820000	-7107.075000	-3681.585000	377487.315000	21634.920000	-1.455885	1.651393	0.620262	-0.555206	0.280270	-0.971931	-0.000000	5.182934	-16.099300	6.058220	-3.067260	0.968076	-0.105041	0.215515	-1.000000	-1.000000	-1.000000	-1.000000	-1.000000	-1.000000	-1.000000	62.137931	0.000000	-1.000000	-1.000000	749203.000000	1772738896.095912
3560.805000	-16555.995000	-21113.055000	587.970000	-7116.615000	-3689.505000	377487.315000	21644.280000	20.134654	-1.006911	-5.112767	-6.522819	-5.029913	-5.240390	0.000000	14.945158	-16.099300	6.058220	-3.067260	0.968076	-0.105041	0.215515	-1.000000	-1.000000	-1.000000	-1.000000	-1.000000	-1.000000	-1.000000	62.137931	0.000000	-1.000000	-1.000000	749204.000000	1772738896.095916
3541.635000	-16551.720000	-21125.655000	568.035000	-7139.160000	-3726.855000	377487.315000	21621.195000	23.455372	-6.154231	-7.993104	-8.189652	-6.556787	-5.349967	0.000000	15.042836	-16.099300	6.058220	-3.067260	0.968076	-0.105041	0.215515	-1.000000	-1.000000	-1.000000	-1.000000	-1.000000	-1.000000	-1.000000	62.137931	0.000000	-1.000000	-1.000000	749205.000000	1772738896.097870
3523.275000	-16529.085000	-21123.360000	561.330000	-7147.350000	-3751.335000	377487.315000	21590.460000	4.972220	-10.032869	-6.453997	-4.936174	-3.782885	-1.520416	0.000000	2.247235	-16.099300	6.058220	-3.067260	0.968076	-0.105041	0.215515	-1.000000	-1.000000	-1.000000	-1.000000	-1.000000	-1.000000	-1.000000	62.137931	0.000000	-1.000000	-1.000000	749206.000000	1772738896.097876
3546.720000	-16504.650000	-21107.790000	577.980000	-7130.475000	-3731.130000	377487.315000	21604.860000	-17.827332	-6.711432	-0.643015	1.386442	1.437733	3.503716	0.000000	-15.904462	-16.099300	6.058220	-3.067260	0.968076	-0.105041	0.215515	-1.000000	-1.000000	-1.000000	-1.000000	-1.000000	-1.000000	-1.000000	62.137931	0.000000	-1.000000	-1.000000	749207.000000	1772738896.097884
3596.580000	-16492.770000	-21095.235000	593.415000	-7115.580000	-3710.340000	377487.315000	21633.525000	-24.711262	3.984897	6.641051	7.488408	6.248243	6.850125	0.000000	-25.218903	-16.099300	6.058220	-3.067260	0.968076	-0.105041	0.215515	-1.000000	-1.000000	-1.000000	-1.000000	-1.000000	-1.000000	-1.000000	62.137931	0.000000	-1.000000	-1.000000	749208.000000	1772738896.097887
3599.325000	-16492.185000	-21090.330000	600.255000	-7109.505000	-3692.250000	377487.315000	21632.625000	-9.991135	15.376287	11.437723	10.370899	8.204774	7.047978	0.000000	-18.050337	-16.099300	6.058220	-3.067260	0.968076	-0.105041	0.215515	-1.000000	-1.000000	-1.000000	-1.000000	-1.000000	-1.000000	-1.000000	62.137931	0.000000	-1.000000	-1.000000	749209.000000	1772738896.110529
3598.920000	-16472.295000	-21063.420000	629.010000	-7082.550000	-3651.975000	377487.315000	21586.365000	12.628682	20.565819	12.339474	9.954898	7.369472	5.122404	0.000000	-2.496172	-16.099300	6.058220	-3.067260	0.968076	-0.105041	0.215515	-1.000000	-1.000000	-1.000000	-1.000000	-1.000000	-1.000000	-1.000000	62.137931	0.000000	-1.000000	-1.000000	749210.000000	1772738896.110537
3605.220000	-16461.720000	-21048.570000	643.410000	-7068.555000	-3641.355000	377487.315000	21565.260000	23.195439	17.610327	10.861039	8.579229	6.082043	3.686328	-0.000000	7.100922	-12.955740	9.171260	-2.670500	0.977292	-0.109680	0.214843	-1.000000	-1.000000	-1.000000	-1.000000	-1.000000	-1.000000	-1.000000	62.137931	0.000000	-1.000000	-1.000000	749211.000000	1772738896.110546
3594.105000	-16478.280000	-21063.015000	626.985000	-7084.755000	-3665.205000	377487.315000	21622.410000	15.513166	9.330491	8.275070	7.300496	5.548200	3.665266	-0.000000	6.802377	-12.955740	9.171260	-2.670500	0.977292	-0.109680	0.214843	-1.000000	-1.000000	-1.000000	-1.000000	-1.000000	-1.000000	-1.000000	62.137931	0.000000	-1.000000	-1.000000	749212.000000	1772738896.110550
3596.535000	-16478.955000	-21069.495000	616.995000	-7095.105000	-3687.300000	377487.315000	21665.385000	-0.026419	-0.209827	3.927345	4.408220	3.985617	2.846340	-0.000000	4.558573	-12.955740	9.171260	-2.670500	0.977292	-0.109680	0.214843	-1.000000	-1.000000	-1.000000	-1.000000	-1.000000	-1.000000	-1.000000	62.137931	0.000000	-1.000000	-1.000000	749213.000000	1772738896.110554
3581.820000	-16477.830000	-21074.805000	611.055000	-7099.605000	-3707.820000	377487.315000	21635.730000	-10.681668	-8.376164	-2.581478	-1.230813	-0.112964	-0.456786	-0.000000	6.960262	-12.955740	9.171260	-2.670500	0.977292	-0.109680	0.214843	-1.000000	-1.000000	-1.000000	-1.000000	-1.000000	-1.000000	-1.000000	62.137931	0.000000	-1.000000	-1.000000	749214.000000	1772738896.110558
3582.855000	-16488.990000	-21093.660000	591.525000	-7118.640000	-3725.190000	377487.315000	21620.025000	-11.896916	-14.329164	-9.846138	-8.090114	-5.643735	-4.990915	-0.000000	11.364084	-12.955740	9.171260	-2.670500	0.977292	-0.109680	0.214843	-1.000000	-1.000000	-1.000000	-1.000000	-1.000000	-1.000000	-1.000000	62.137931	0.000000	-1.000000	-1.000000	749215.000000	1772738896.110563
3596.535000	-16473.240000	-21069.990000	615.735000	-7097.490000	-3698.820000	377487.315000	21614.760000	-6.571463	-17.837508	-15.689093	-13.841457	-10.757715	-8.921644	-0.000000	11.522836	-12.955740	9.171260	-2.670500	0.977292	-0.109680	0.214843	-1.000000	-1.000000	-1.000000	-1.000000	-1.000000	-1.000000	-1.000000	62.137931	0.000000	-1.000000	-1.000000	749216.000000	1772738896.110567
3601.620000	-16455.465000	-21045.555000	642.960000	-7071.120000	-3666.105000	377487.315000	21614.040000	-0.108509	-17.463288	-17.276603	-15.894721	-13.261968	-10.586898	-0.000000	5.148484	-12.955740	9.171260	-2.670500	0.977292	-0.109680	0.214843	-1.000000	-1.000000	-1.000000	-1.000000	-1.000000	-1.000000	-1.000000	62.137931	0.000000	-1.000000	-1.000000	749217.000000	1772738896.113765
3587.985000	-16486.965000	-21081.285000	609.885000	-7099.065000	-3669.615000	377487.315000	21595.410000	3.082641	-12.036726	-12.946396	-12.597801	-11.345854	-8.685294	-0.000000	-5.003884	-12.955740	9.171260	-2.670500	0.977292	-0.109680	0.214843	-1.000000	-1.000000	-1.000000	-1.000000	-1.000000	-1.000000	-1.000000	62.137931	0.000000	-1.000000	-1.000000	749218.000000	1772738896.113773
3568.185000	-16505.595000	-21095.910000	597.645000	-7110.270000	-3671.955000	377487.315000	21617.280000	0.862701	-4.201493	-5.617362	-6.329738	-6.571662	-4.569635	-0.000000	-13.054789	-12.955740	9.171260	-2.670500	0.977292	-0.109680	0.214843	-1.000000	-1.000000	-1.000000	-1.000000	-1.000000	-1.000000	-1.000000	62.137931	0.000000	-1.000000	-1.000000	749219.000000	1772738896.113782
3564.270000	-16497.945000	-21086.100000	609.570000	-7098.525000	-3671.280000	377487.315000	21617.595000	-5.186729	2.185478	0.441352	-0.735957	-1.823063	-0.660594	-0.000000	-13.658738	-12.955740	9.171260	-2.670500	0.977292	-0.109680	0.214843	-1.000000	-1.000000	-1.000000	-1.000000	-1.000000	-1.000000	-1.000000	62.137931	0.000000	-1.000000	-1.000000	749220.000000	1772738896.113786
3544.065000	-16501.590000	-21087.810000	609.120000	-7097.805000	-3679.200000	377487.315000	21600.765000	-9.663150	6.862339	4.867671	4.006256	2.795635	2.891388	-0.000000	-7.940928	-14.359660	9.964780	-4.165980	0.975950	-0.107727	0.213500	-1.000000	-1.000000	-1.000000	-1.000000	-1.000000	-1.000000	-1.000000	62.137931	0.000000	-1.000000	-1.000000	749221.000000	1772738896.113791
3553.290000	-16508.205000	-21097.485000	595.170000	-7115.445000	-3712.455000	377487.315000	21607.875000	-7.872665	10.832132	8.974158	8.867040	7.862052	6.596353	0.000000	-2.269382	-14.359660	9.964780	-4.165980	0.975950	-0.107727	0.213500	-1.000000	-1.000000	-1.000000	-1.000000	-1.000000	-1.000000	-1.000000	62.137931	0.000000	-1.000000	-1.000000	749222.000000	1772738896.113794
3590.730000	-16502.175000	-21093.750000	591.165000	-7123.230000	-3730.140000	377487.315000	21643.155000	0.778663	12.966192	12.125099	12.531388	11.624890	9.163826	0.000000	1.209346	-14.359660	9.964780	-4.165980	0.975950	-0.107727	0.213500	-1.000000	-1.000000	-1.000000	-1.000000	-1.000000	-1.000000	-1.000000	62.137931	0.000000	-1.000000	-1.000000	749223.000000	1772738896.113798
3596.805000	-16485.570000	-21080.790000	601.425000	-7111.710000	-3712.860000	377487.315000	21636.585000	12.833889	11.926063	12.774340	12.856029	11.802095	8.826879	0.000000	5.563640	-14.359660	9.964780	-4.165980	0.975950	-0.107727	0.213500	-1.000000	-1.000000	-1.000000	-1.000000	-1.000000	-1.000000	-1.000000	62.137931	0.000000	-1.000000	-1.000000	749224.000000	1772738896.113801
3588.255000	-16484.040000	-21079.080000	606.960000	-7102.305000	-3692.520000	377487.315000	21626.910000	21.136263	7.865720	9.831471	8.879897	7.864209	5.334964	0.000000	10.678959	-14.359660	9.964780	-4.165980	0.975950	-0.107727	0.213500	-1.000000	-1.000000	-1.000000	-1.000000	-1.000000	-1.000000	-1.000000	62.137931	0.000000	-1.000000	-1.000000	749225.000000	1772738896.113805
3584.430000	-16491.015000	-21077.640000	613.845000	-7091.280000	-3662.865000	377487.315000	21623.580000	19.222656	1.834027	3.421299	1.658293	1.375438	0.299569	0.000000	12.163648	-14.359660	9.964780	-4.165980	0.975950	-0.107727	0.213500	-1.000000	-1.000000	-1.000000	-1.000000	-1.000000	-1.000000	-1.000000	62.137931	0.000000	-1.000000	-1.000000	749226.000000	1772738896.113808
3596.985000	-16478.640000	-21060.990000	632.385000	-7075.935000	-3639.825000	377487.315000	21631.140000	7.697606	-3.861028	-3.483883	-4.987830	-4.123007	-3.378903	0.000000	7.991417	-14.359660	9.964780	-4.165980	0.975950	-0.107727	0.213500	-1.000000	-1.000000	-1.000000	-1.000000	-1.000000	-1.000000	-1.000000	62.137931	0.000000	-1.000000	-1.000000	749227.000000	1772738896.116423
3609.675000	-16464.645000	-21053.475000	636.345000	-7074.630000	-3646.530000	377487.315000	21642.660000	-6.027798	-6.149987	-6.704821	-6.997250	-5.497909	-3.726095	0.000000	0.814342	-14.359660	9.964780	-4.165980	0.975950	-0.107727	0.213500	-1.000000	-1.000000	-1.000000	-1.000000	-1.000000	-1.000000	-1.000000	62.137931	0.000000	-1.000000	-1.000000	749228.000000	1772738896.116431
3595.545000	-16475.130000	-21066.300000	621.270000	-7089.885000	-3666.645000	377487.315000	21620.160000	-14.244952	-4.290776	-5.470887	-4.556804	-3.476744	-1.929747	-0.000000	-5.824009	-14.359660	9.964780	-4.165980	0.975950	-0.107727	0.213500	-1.000000	-1.000000	-1.000000	-1.000000	-1.000000	-1.000000	-1.000000	62.137931	0.000000	-1.000000	-1.000000	749229.000000	1772738896.116440
3584.070000	-16473.870000	-21057.390000	631.305000	-7078.140000	-3669.705000	377487.315000	21599.280000	-14.552238	-0.952327	-2.614748	-1.240617	-1.218541	-0.527414	-0.000000	-10.577651	-14.359660	9.964780	-4.165980	0.975950	-0.107727	0.213500	-1.000000	-1.000000	-1.000000	-1.000000	-1.000000	-1.000000	-1.000000	62.137931	0.000000	-1.000000	-1.000000	749230.000000	1772738896.116444
3601.935000	-16427.700000	-21019.455000	664.695000	-7047.585000	-3658.950000	377487.315000	21613.230000	-9.699244	1.372395	-0.042520	1.186617	0.412108	0.318594	-0.000000	-12.960610	-18.693500	7.004340	-2.533160	0.969175	-0.103271	0.212646	-1.000000	-1.000000	-1.000000	-1.000000	-1.000000	-1.000000	-1.000000	62.137931	0.000000	-1.000000	-1.000000	749231.000000	1772738896.116448
3567.465000	-16429.140000	-21021.300000	660.735000	-7056.900000	-3668.580000	377487.315000	21566.520000	-4.290769	2.533944	2.344037	3.318844	2.449700	1.777899	-0.000000	-12.239199	-18.693500	7.004340	-2.533160	0.969175	-0.103271	0.212646	-1.000000	-1.000000	-1.000000	-1.000000	-1.000000	-1.000000	-1.000000	62.137931	0.000000	-1.000000	-1.000000	749232.000000	1772738896.116451
3535.515000	-16487.820000	-21078.855000	606.510000	-7104.690000	-3699.045000	377487.315000	21570.705000	-2.371361	1.311807	2.607487	3.408671	2.919907	2.004113	-0.000000	-8.675973	-18.693500	7.004340	-2.533160	0.969175	-0.103271	0.212646	-1.000000	-1.000000	-1.000000	-1.000000	-1.000000	-1.000000	-1.000000	62.137931	0.000000	-1.000000	-1.000000	749233.000000	1772738896.116455
3568.365000	-16516.575000	-21112.785000	581.355000	-7118.550000	-3690.405000	377487.315000	21617.460000	-3.966192	-4.907360	-2.896619	-2.230683	-2.036694	-2.329466	-0.000000	-2.154652	-18.693500	7.004340	-2.533160	0.969175	-0.103271	0.212646	-1.000000	-1.000000	-1.000000	-1.000000	-1.000000	-1.000000	-1.000000	62.137931	0.000000	-1.000000	-1.000000	749234.000000	1772738896.116458
3566.655000	-16493.895000	-21080.520000	615.735000	-7087.500000	-3647.700000	377487.315000	21585.465000	-4.282681	-13.688369	-12.292743	-11.785189	-10.688637	-9.488605	-0.000000	7.340806	-18.693500	7.004340	-2.533160	0.969175	-0.103271	0.212646	-1.000000	-1.000000	-1.000000	-1.000000	-1.000000	-1.000000	-1.000000	62.137931	0.000000	-1.000000	-1.000000	749235.000000	1772738896.116462
3538.395000	-16451.910000	-21038.355000	655.200000	-7054.245000	-3623.355000	377487.315000	21511.170000	-0.497330	-16.721998	-16.695841	-16.514556	-14.903992	-12.562430	-0.000000	14.623012	-18.693500	7.004340	-2.533160	0.969175	-0.103271	0.212646	-1.000000	-1.000000	-1.000000	-1.000000	-1.000000	-1.000000	-1.000000	62.137931	0.000000	-1.000000	-1.000000	749236.000000	1772738896.116466
3547.620000	-16466.310000	-21055.140000	635.400000	-7076.430000	-3654.900000	377487.315000	21513.195000	4.776756	-8.927693	-9.875695	-10.325098	-9.272944	-7.393033	-0.000000	12.621843	-18.693500	7.004340	-2.533160	0.969175	-0.103271	0.212646	-1.000000	-1.000000	-1.000000	-1.000000	-1.000000	-1.000000	-1.000000	62.137931	0.000000	-1.000000	-1.000000	749237.000000	1772738896.116470
3618.630000	-16499.610000	-21082.230000	608.805000	-7100.865000	-3689.595000	377487.315000	21644.280000	9.711009	5.003002	4.016334	2.796732	2.412145	2.368050	-0.000000	4.594974	-18.693500	7.004340	-2.533160	0.969175	-0.103271	0.212646	-1.000000	-1.000000	-1.000000	-1.000000	-1.000000	-1.000000	-1.000000	62.137931	0.000000	-1.000000	-1.000000	749238.000000	1772738896.116473
3628.035000	-16497.225000	-21089.070000	599.130000	-7106.490000	-3706.650000	377487.315000	21653.640000	15.305015	15.141584	14.766699	13.079605	11.431396	9.432875	-0.000000	2.428688	-18.693500	7.004340	-2.533160	0.969175	-0.103271	0.212646	-1.000000	-1.000000	-1.000000	-1.000000	-1.000000	-1.000000	-1.000000	62.137931	0.000000	-1.000000	-1.000000	749239.000000	1772738896.116477
3598.200000	-16507.035000	-21108.825000	583.335000	-7117.020000	-3712.320000	377487.315000	21642.435000	18.892817	15.294730	15.425734	14.016673	12.370724	9.997629	0.000000	9.125823	-18.693500	7.004340	-2.533160	0.969175	-0.103271	0.212646	-1.000000	-1.000000	-1.000000	-1.000000	-1.000000	-1.000000	-1.000000	62.137931	0.000000	-1.000000	-1.000000	749240.000000	1772738896.116481
3587.805000	-16529.580000	-21131.145000	562.770000	-7137.450000	-3726.315000	377487.315000	21678.750000	14.836131	6.944735	6.915854	6.644848	6.433890	5.640029	0.000000	15.804598	-18.144140	8.408260	-3.631880	0.974546	-0.107300	0.213622	-1.000000	-1.000000	-1.000000	-1.000000	-1.000000	-1.000000	-1.000000	62.137931	0.000000	-1.000000	-1.000000	749241.000000	1772738896.123682
3584.880000	-16535.070000	-21125.340000	566.685000	-7138.395000	-3719.430000	377487.315000	21664.935000	2.769666	-2.744273	-3.201685	-2.147022	-0.775165	0.430631	0.000000	14.396418	-18.144140	8.408260	-3.631880	0.974546	-0.107300	0.213622	-1.000000	-1.000000	-1.000000	-1.000000	-1.000000	-1.000000	-1.000000	62.137931	0.000000	-1.000000	-1.000000	749242.000000	1772738896.123689
3576.915000	-16516.845000	-21093.255000	598.995000	-7107.570000	-3672.315000	377487.315000	21619.080000	-11.748776	-6.474856	-6.540946	-5.157092	-3.790732	-2.157037	0.000000	2.439349	-18.144140	8.408260	-3.631880	0.974546	-0.107300	0.213622	-1.000000	-1.000000	-1.000000	-1.000000	-1.000000	-1.000000	-1.000000	62.137931	0.000000	-1.000000	-1.000000	749243.000000	1772738896.123696
3577.725000	-16493.985000	-21069.405000	622.530000	-7082.370000	-3643.830000	377487.315000	21593.880000	-22.147690	-2.638886	-1.229503	-0.893355	-1.234758	-0.995492	0.000000	-16.329345	-18.144140	8.408260	-3.631880	0.974546	-0.107300	0.213622	-1.000000	-1.000000	-1.000000	-1.000000	-1.000000	-1.000000	-1.000000	62.137931	0.000000	-1.000000	-1.000000	749244.000000	1772738896.123699
3575.655000	-16488.855000	-21072.195000	610.245000	-7093.440000	-3660.435000	377487.315000	21636.405000	-23.594039	4.092453	6.753707	5.529511	3.564364	2.167178	0.000000	-30.665150	-18.144140	8.408260	-3.631880	0.974546	-0.107300	0.213622	-1.000000	-1.000000	-1.000000	-1.000000	-1.000000	-1.000000	-1.000000	62.137931	0.000000	-1.000000	-1.000000	749245.000000	1772738896.123704
3575.160000	-16490.385000	-21083.985000	599.085000	-7105.275000	-3678.750000	377487.315000	21656.295000	-15.909527	8.276591	10.342459	8.151281	6.187474	4.444430	0.000000	-30.258470	-18.144140	8.408260	-3.631880	0.974546	-0.107300	0.213622	-1.000000	-1.000000	-1.000000	-1.000000	-1.000000	-1.000000	-1.000000	62.137931	0.000000	-1.000000	-1.000000	749246.000000	1772738896.123707
3589.380000	-16496.730000	-21106.305000	583.695000	-7125.930000	-3716.820000	377487.315000	21640.185000	-4.427800	8.073185	7.266748	5.420399	4.791495	4.075892	-0.000000	-17.310049	-18.144140	8.408260	-3.631880	0.974546	-0.107300	0.213622	-1.000000	-1.000000	-1.000000	-1.000000	-1.000000	-1.000000	-1.000000	62.137931	0.000000	-1.000000	-1.000000	749247.000000	1772738896.123711
3586.005000	-16499.925000	-21101.265000	587.295000	-7123.095000	-3722.310000	377487.315000	21611.070000	4.998513	4.013624	-0.336252	-0.404583	0.216367	0.809372	-0.000000	-3.068389	-18.144140	8.408260	-3.631880	0.974546	-0.107300	0.213622	-1.000000	-1.000000	-1.000000	-1.000000	-1.000000	-1.000000	-1.000000	62.137931	0.000000	-1.000000	-1.000000	749248.000000	1772738896.123714
3559.230000	-16487.775000	-21085.920000	602.235000	-7107.390000	-3699.225000	377487.315000	21612.465000	10.231459	-2.177020	-7.717978	-5.519591	-4.612856	-3.471442	-0.000000	5.251528	-18.144140	8.408260	-3.631880	0.974546	-0.107300	0.213622	-1.000000	-1.000000	-1.000000	-1.000000	-1.000000	-1.000000	-1.000000	62.137931	0.000000	-1.000000	-1.000000	749249.000000	1772738896.123719
3529.575000	-16476.165000	-21068.415000	621.855000	-7088.490000	-3672.405000	377487.315000	21629.835000	11.267441	-6.709195	-9.622233	-6.164239	-5.674620	-4.912578	-0.000000	8.405911	-18.144140	8.408260	-3.631880	0.974546	-0.107300	0.213622	-1.000000	-1.000000	-1.000000	-1.000000	-1.000000	-1.000000	-1.000000	62.137931	0.000000	-1.000000	-1.000000	749250.000000	1772738896.123722
3559.320000	-16479.630000	-21060.720000	631.485000	-7078.140000	-3650.130000	377487.315000	21632.940000	8.775925	-6.539431	-4.782537	-1.781144	-1.708014	-1.793507	-0.000000	10.188050	-14.481740	10.376800	-5.295220	0.982969	-0.114013	0.214050	-1.000000	-1.000000	-1.000000	-1.000000	-1.000000	-1.000000	-1.000000	62.137931	0.000000	-1.000000	-1.000000	749251.000000	1772738896.123726
3644.370000	-16460.595000	-21034.440000	653.895000	-7058.520000	-3620.655000	377487.315000	21684.600000	6.291836	-3.188431	2.205841	3.415705	3.462048	2.587849	-0.000000	13.917953	-14.481740	10.376800	-5.295220	0.982969	-0.114013	0.214050	-1.000000	-1.000000	-1.000000	-1.000000	-1.000000	-1.000000	-1.000000	62.137931	0.000000	-1.000000	-1.000000	749252.000000	1772738896.123729
3646.485000	-16457.130000	-21020.355000	668.745000	-7043.760000	-3610.980000	377487.315000	21663.405000	8.153887	-0.752516	5.533139	4.588451	4.910621	3.788575	-0.000000	19.871568	-14.481740	10.376800	-5.295220	0.982969	-0.114013	0.214050	-1.000000	-1.000000	-1.000000	-1.000000	-1.000000	-1.000000	-1.000000	62.137931	0.000000	-1.000000	-1.000000	749253.000000	1772738896.123733
3572.370000	-16484.490000	-21059.055000	627.345000	-7082.730000	-3652.695000	377487.315000	21591.180000	11.493542	-1.586133	3.131103	0.822116	1.473689	0.933375	-0.000000	21.278497	-14.481740	10.376800	-5.295220	0.982969	-0.114013	0.214050	-1.000000	-1.000000	-1.000000	-1.000000	-1.000000	-1.000000	-1.000000	62.137931	0.000000	-1.000000	-1.000000	749254.000000	1772738896.123736
3552.570000	-16480.665000	-21088.620000	590.805000	-7117.020000	-3701.295000	377487.315000	21549.195000	7.230200	-4.670647	-3.307376	-5.728537	-4.779372	-4.149175	-0.000000	9.042077	-14.481740	10.376800	-5.295220	0.982969	-0.114013	0.214050	-1.000000	-1.000000	-1.000000	-1.000000	-1.000000	-1.000000	-1.000000	62.137931	0.000000	-1.000000	-1.000000	749255.000000	1772738896.123740
3606.255000	-16469.055000	-21088.440000	585.450000	-7124.670000	-3724.875000	377487.315000	21555.540000	-6.496664	-6.513220	-9.889469	-11.858110	-10.685276	-9.049220	-0.000000	-14.333566	-14.481740	10.376800	-5.295220	0.982969	-0.114013	0.214050	-1.000000	-1.000000	-1.000000	-1.000000	-1.000000	-1.000000	-1.000000	62.137931	0.000000	-1.000000	-1.000000	749256.000000	1772738896.123743
3599.460000	-16451.325000	-21062.565000	611.730000	-7100.640000	-3696.795000	377487.315000	21572.550000	-19.367668	-4.192413	-11.969482	-13.600266	-12.562687	-10.813731	-0.000000	-32.678076	-14.481740	10.376800	-5.295220	0.982969	-0.114013	0.214050	-1.000000	-1.000000	-1.000000	-1.000000	-1.000000	-1.000000	-1.000000	62.137931	0.000000	-1.000000	-1.000000	749257.000000	1772738896.123747
3573.000000	-16485.705000	-21079.170000	609.570000	-7093.575000	-3676.995000	377487.315000	21590.370000	-21.074119	1.334149	-7.470014	-8.488345	-8.098362	-7.142142	0.000000	-31.979116	-14.481740	10.376800	-5.295220	0.982969	-0.114013	0.214050	-1.000000	-1.000000	-1.000000	-1.000000	-1.000000	-1.000000	-1.000000	62.137931	0.000000	-1.000000	-1.000000	749258.000000	1772738896.123750
3576.645000	-16511.355000	-21100.185000	591.345000	-7109.415000	-3675.915000	377487.315000	21621.285000	-11.663218	5.415943	0.398864	0.972030	0.679003	0.696478	0.000000	-12.876897	-14.481740	10.376800	-5.295220	0.982969	-0.114013	0.214050	-1.000000	-1.000000	-1.000000	-1.000000	-1.000000	-1.000000	-1.000000	62.137931	0.000000	-1.000000	-1.000000	749259.000000	1772738896.123754
3579.435000	-16504.470000	-21098.430000	589.995000	-7113.960000	-3666.375000	377487.315000	21639.645000	0.833496	4.566356	5.841856	8.517661	7.962321	7.612790	0.000000	12.666209	-14.481740	10.376800	-5.295220	0.982969	-0.114013	0.214050	-1.000000	-1.000000	-1.000000	-1.000000	-1.000000	-1.000000	-1.000000	62.137931	0.000000	-1.000000	-1.000000	749260.000000	1772738896.123757
3557.340000	-16502.175000	-21090.465000	599.175000	-7105.410000	-3660.705000	377487.315000	21633.480000	7.445402	0.109304	5.985723	9.828905	9.233586	9.044390	0.000000	30.708398	-11.368700	9.568020	-5.417300	0.977903	-0.113708	0.216613	-1.000000	-1.000000	-1.000000	-1.000000	-1.000000	-1.000000	-1.000000	62.137931	0.000000	-1.000000	-1.000000	749261.000000	1772738896.123761
3565.845000	-16507.665000	-21093.975000	595.800000	-7110.405000	-3673.530000	377487.315000	21619.845000	5.573999	-3.827491	2.812739	6.108479	5.333053	5.236121	0.000000	32.905961	-11.368700	9.568020	-5.417300	0.977903	-0.113708	0.216613	-1.000000	-1.000000	-1.000000	-1.000000	-1.000000	-1.000000	-1.000000	62.137931	0.000000	-1.000000	-1.000000	749262.000000	1772738896.123765
3586.680000	-16508.430000	-21097.170000	588.600000	-7120.485000	-3693.870000	377487.315000	21647.610000	1.793064	-3.832556	0.955900	2.420184	1.224815	0.729177	0.000000	21.215188	-11.368700	9.568020	-5.417300	0.977903	-0.113708	0.216613	-1.000000	-1.000000	-1.000000	-1.000000	-1.000000	-1.000000	-1.000000	62.137931	0.000000	-1.000000	-1.000000	749263.000000	1772738896.123768
3598.380000	-16480.845000	-21076.065000	604.710000	-7108.515000	-3702.735000	377487.315000	21621.870000	3.195732	0.788696	3.688017	2.932883	1.224148	-0.017364	0.000000	4.598914	-11.368700	9.568020	-5.417300	0.977903	-0.113708	0.216613	-1.000000	-1.000000	-1.000000	-1.000000	-1.000000	-1.000000	-1.000000	62.137931	0.000000	-1.000000	-1.000000	749264.000000	1772738896.123771
3608.730000	-16448.580000	-21039.255000	642.465000	-7075.710000	-3678.525000	377487.315000	21586.185000	8.305313	7.759583	9.942206	7.440278	5.466890	3.564596	-0.000000	-10.181345	-11.368700	9.568020	-5.417300	0.977903	-0.113708	0.216613	-1.000000	-1.000000	-1.000000	-1.000000	-1.000000	-1.000000	-1.000000	62.137931	0.000000	-1.000000	-1.000000	749265.000000	1772738896.123775
3589.785000	-16474.500000	-21064.950000	620.280000	-7088.175000	-3680.100000	377487.315000	21600.135000	11.053313	12.926605	14.537426	11.364361	9.800092	7.664943	-0.000000	-21.040849	-11.368700	9.568020	-5.417300	0.977903	-0.113708	0.216613	-1.000000	-1.000000	-1.000000	-1.000000	-1.000000	-1.000000	-1.000000	62.137931	0.000000	-1.000000	-1.000000	749266.000000	1772738896.123778
3574.935000	-16493.535000	-21088.305000	598.905000	-7102.395000	-3679.605000	377487.315000	21653.955000	8.503527	12.368770	11.873441	9.072918	8.860768	7.221791	-0.000000	-25.523215	-11.368700	9.568020	-5.417300	0.977903	-0.113708	0.216613	-1.000000	-1.000000	-1.000000	-1.000000	-1.000000	-1.000000	-1.000000	62.137931	0.000000	-1.000000	-1.000000	749267.000000	1772738896.123782
3589.200000	-16476.615000	-21073.500000	611.865000	-7092.855000	-3653.100000	377487.315000	21618.405000	1.762909	5.791180	1.528806	-0.364075	1.349199	1.051070	-0.000000	-21.256099	-11.368700	9.568020	-5.417300	0.977903	-0.113708	0.216613	-1.000000	-1.000000	-1.000000	-1.000000	-1.000000	-1.000000	-1.000000	62.137931	0.000000	-1.000000	-1.000000	749268.000000	1772738896.123785
3577.545000	-16488.630000	-21082.950000	602.955000	-7100.100000	-3652.200000	377487.315000	21616.875000	-6.230094	-3.232052	-10.897938	-11.687739	-8.487480	-6.975483	-0.000000	-11.101993	-11.368700	9.568020	-5.417300	0.977903	-0.113708	0.216613	-1.000000	-1.000000	-1.000000	-1.000000	-1.000000	-1.000000	-1.000000	62.137931	0.000000	-1.000000	-1.000000	749269.000000	1772738896.123789
3568.815000	-16491.915000	-21083.670000	604.440000	-7097.445000	-3657.420000	377487.315000	21621.735000	-12.233771	-10.903382	-19.180195	-18.746507	-15.280583	-12.212491	-0.000000	-0.448399	-11.368700	9.568020	-5.417300	0.977903	-0.113708	0.216613	-1.000000	-1.000000	-1.000000	-1.000000	-1.000000	-1.000000	-1.000000	62.137931	0.000000	-1.000000	-1.000000	749270.000000	1772738896.123792
3591.810000	-16461.270000	-21052.395000	634.905000	-7068.375000	-3639.240000	377487.315000	21617.055000	-13.362147	-14.124275	-19.429271	-17.803435	-15.336325	-11.777187	-0.000000	8.163710	-17.579520	6.149780	-4.547480	0.972654	-0.111572	0.215087	-1.000000	-1.000000	-1.000000	-1.000000	-1.000000	-1.000000	-1.000000	62.137931	0.000000	-1.000000	-1.000000	749271.000000	1772738896.123796
3594.915000	-16472.610000	-21068.010000	614.520000	-7092.540000	-3680.595000	377487.315000	21593.385000	-8.560658	-10.999033	-10.870924	-8.442012	-7.788905	-5.252161	-0.000000	13.377380	-17.579520	6.149780	-4.547480	0.972654	-0.111572	0.215087	-1.000000	-1.000000	-1.000000	-1.000000	-1.000000	-1.000000	-1.000000	62.137931	0.000000	-1.000000	-1.000000	749272.000000	1772738896.123799
3572.280000	-16511.625000	-21106.575000	569.700000	-7137.765000	-3730.545000	377487.315000	21630.510000	-1.030943	-4.679094	1.036748	3.444093	2.206649	2.789675	-0.000000	14.404362	-17.579520	6.149780	-4.547480	0.972654	-0.111572	0.215087	-1.000000	-1.000000	-1.000000	-1.000000	-1.000000	-1.000000	-1.000000	62.137931	0.000000	-1.000000	-1.000000	749273.000000	1772738896.123803
3554.235000	-16517.565000	-21107.655000	572.040000	-7130.745000	-3715.515000	377487.315000	21629.610000	3.766663	-1.405470	7.495552	8.890642	6.525211	5.515288	-0.000000	13.095318	-17.579520	6.149780	-4.547480	0.972654	-0.111572	0.215087	-1.000000	-1.000000	-1.000000	-1.000000	-1.000000	-1.000000	-1.000000	62.137931	0.000000	-1.000000	-1.000000	749274.000000	1772738896.123806
3579.930000	-16466.580000	-21051.765000	632.070000	-7072.425000	-3657.150000	377487.315000	21578.760000	4.504695	-1.350091	6.936711	6.763154	4.293875	2.595345	-0.000000	9.650550	-17.579520	6.149780	-4.547480	0.972654	-0.111572	0.215087	-1.000000	-1.000000	-1.000000	-1.000000	-1.000000	-1.000000	-1.000000	62.137931	0.000000	-1.000000	-1.000000	749275.000000	1772738896.126943
3597.390000	-16441.965000	-21022.740000	664.830000	-7039.710000	-3614.175000	377487.315000	21511.530000	4.834481	1.837938	6.432385	5.006187	2.923003	0.775129	0.000000	0.120222	-17.579520	6.149780	-4.547480	0.972654	-0.111572	0.215087	-1.000000	-1.000000	-1.000000	-1.000000	-1.000000	-1.000000	-1.000000	62.137931	0.000000	-1.000000	-1.000000	749276.000000	1772738896.126957
3542.445000	-16476.435000	-21055.365000	634.680000	-7067.115000	-3625.830000	377487.315000	21575.970000	6.116677	9.665293	9.635335	8.017595	6.472070	3.719467	0.000000	-14.176739	-17.579520	6.149780	-4.547480	0.972654	-0.111572	0.215087	-1.000000	-1.000000	-1.000000	-1.000000	-1.000000	-1.000000	-1.000000	62.137931	0.000000	-1.000000	-1.000000	749277.000000	1772738896.126969
3580.605000	-16424.865000	-21009.195000	671.760000	-7036.245000	-3605.940000	377487.315000	21612.960000	5.577217	15.837904	12.101745	11.255191	10.534267	7.676013	0.000000	-21.788095	-17.579520	6.149780	-4.547480	0.972654	-0.111572	0.215087	-1.000000	-1.000000	-1.000000	-1.000000	-1.000000	-1.000000	-1.000000	62.137931	0.000000	-1.000000	-1.000000	749278.000000	1772738896.126973
3640.635000	-16434.540000	-21014.595000	663.030000	-7047.360000	-3627.630000	377487.315000	21659.760000	3.623991	15.495581	9.749723	9.613046	9.793040	7.851224	0.000000	-13.391337	-17.579520	6.149780	-4.547480	0.972654	-0.111572	0.215087	-1.000000	-1.000000	-1.000000	-1.000000	-1.000000	-1.000000	-1.000000	62.137931	0.000000	-1.000000	-1.000000	749279.000000	1772738896.126977
3602.160000	-16497.405000	-21086.820000	593.325000	-7107.435000	-3694.860000	377487.315000	21634.650000	3.152192	7.716634	1.891972	1.761141	2.665925	2.470418	0.000000	6.648786	-17.579520	6.149780	-4.547480	0.972654	-0.111572	0.215087	-1.000000	-1.000000	-1.000000	-1.000000	-1.000000	-1.000000	-1.000000	62.137931	0.000000	-1.000000	-1.000000	749280.000000	1772738896.126981
3581.280000	-16510.140000	-21120.075000	557.370000	-7136.955000	-3733.920000	377487.315000	21596.265000	2.265254	-6.236262	-10.608459	-10.877621	-9.048011	-7.057849	0.000000	23.563783	-16.297680	8.774500	-5.753020	0.980466	-0.116089	0.215576	-1.000000	-1.000000	-1.000000	-1.000000	-1.000000	-1.000000	-1.000000	62.137931	0.000000	-1.000000	-1.000000	749281.000000	1772738896.126985
3586.815000	-16516.035000	-21126.735000	550.260000	-7146.855000	-3736.350000	377487.315000	21661.830000	-2.010046	-19.966712	-22.573294	-22.454189	-19.438788	-15.459738	0.000000	25.542916	-16.297680	8.774500	-5.753020	0.980466	-0.116089	0.215576	-1.000000	-1.000000	-1.000000	-1.000000	-1.000000	-1.000000	-1.000000	62.137931	0.000000	-1.000000	-1.000000	749282.000000	1772738896.126989
3580.830000	-16506.810000	-21104.190000	579.735000	-7116.975000	-3697.965000	377487.315000	21676.005000	-7.346009	-24.781767	-25.936337	-25.086608	-21.689819	-16.839028	-0.000000	14.157690	-16.297680	8.774500	-5.753020	0.980466	-0.116089	0.215576	-1.000000	-1.000000	-1.000000	-1.000000	-1.000000	-1.000000	-1.000000	62.137931	0.000000	-1.000000	-1.000000	749283.000000	1772738896.126993
3563.820000	-16496.145000	-21087.720000	598.410000	-7098.615000	-3667.995000	377487.315000	21623.670000	-10.128939	-17.878861	-17.274623	-15.955236	-13.937001	-9.868809	-0.000000	-0.768840	-16.297680	8.774500	-5.753020	0.980466	-0.116089	0.215576	-1.000000	-1.000000	-1.000000	-1.000000	-1.000000	-1.000000	-1.000000	62.137931	0.000000	-1.000000	-1.000000	749284.000000	1772738896.126997
3558.330000	-16519.230000	-21102.705000	587.655000	-7109.055000	-3658.005000	377487.315000	21613.185000	-9.755926	-4.081647	-1.038881	0.158313	-0.466275	1.481199	-0.000000	-12.479674	-16.297680	8.774500	-5.753020	0.980466	-0.116089	0.215576	-1.000000	-1.000000	-1.000000	-1.000000	-1.000000	-1.000000	-1.000000	62.137931	0.000000	-1.000000	-1.000000	749285.000000	1772738896.127000
3576.960000	-16503.390000	-21083.625000	606.420000	-7094.520000	-3650.715000	377487.315000	21619.215000	-6.167152	9.206940	14.595129	15.228080	12.136614	11.449540	-0.000000	-19.500084	-16.297680	8.774500	-5.753020	0.980466	-0.116089	0.215576	-1.000000	-1.000000	-1.000000	-1.000000	-1.000000	-1.000000	-1.000000	62.137931	0.000000	-1.000000	-1.000000	749286.000000	1772738896.127004
3575.205000	-16487.505000	-21064.545000	624.555000	-7079.310000	-3646.305000	377487.315000	21628.035000	0.119548	16.947803	23.359063	23.412726	19.209874	16.155018	-0.000000	-22.063129	-16.297680	8.774500	-5.753020	0.980466	-0.116089	0.215576	-1.000000	-1.000000	-1.000000	-1.000000	-1.000000	-1.000000	-1.000000	62.137931	0.000000	-1.000000	-1.000000	749287.000000	1772738896.129988
3587.805000	-16473.465000	-21049.875000	636.255000	-7066.755000	-3643.245000	377487.315000	21671.415000	5.645801	18.299999	23.671885	23.362824	19.754826	15.287206	-0.000000	-19.114773	-16.297680	8.774500	-5.753020	0.980466	-0.116089	0.215576	-1.000000	-1.000000	-1.000000	-1.000000	-1.000000	-1.000000	-1.000000	62.137931	0.000000	-1.000000	-1.000000	749288.000000	1772738896.129996
3611.295000	-16463.520000	-21059.370000	613.665000	-7094.115000	-3690.720000	377487.315000	21659.895000	8.183631	16.003671	18.487233	17.733535	15.819978	11.293547	-0.000000	-8.822109	-16.297680	8.774500	-5.753020	0.980466	-0.116089	0.215576	-1.000000	-1.000000	-1.000000	-1.000000	-1.000000	-1.000000	-1.000000	62.137931	0.000000	-1.000000	-1.000000	749289.000000	1772738896.135517
3582.585000	-16497.405000	-21103.605000	565.110000	-7140.285000	-3733.245000	377487.315000	21584.295000	9.027768	12.295862	10.958383	9.298392	9.113669	5.706581	-0.000000	5.376687	-16.297680	8.774500	-5.753020	0.980466	-0.116089	0.215576	-1.000000	-1.000000	-1.000000	-1.000000	-1.000000	-1.000000	-1.000000	62.137931	0.000000	-1.000000	-1.000000	749290.000000	1772738896.135525
3534.705000	-16516.755000	-21105.315000	576.540000	-7121.295000	-3703.005000	377487.315000	21552.345000	7.697359	5.780296	1.056061	-1.470864	-0.325946	-1.814573	-0.000000	13.013161	-12.055400	10.941420	-5.966660	0.982419	-0.119690	0.216186	-1.000000	-1.000000	-1.000000	-1.000000	-1.000000	-1.000000	-1.000000	62.137931	0.000000	-1.000000	-1.000000	749291.000000	1772738896.137999
3528.450000	-16506.270000	-21091.230000	593.145000	-7103.700000	-3675.555000	377487.315000	21581.280000	2.000768	-4.678385	-10.852937	-13.094630	-10.794015	-9.969153	-0.000000	8.915237	-12.055400	10.941420	-5.966660	0.982419	-0.119690	0.216186	-1.000000	-1.000000	-1.000000	-1.000000	-1.000000	-1.000000	-1.000000	62.137931	0.000000	-1.000000	-1.000000	749292.000000	1772738896.138006
3560.940000	-16491.375000	-21083.535000	592.695000	-7103.655000	-3658.230000	377487.315000	21601.485000	-5.623511	-15.273061	-20.597408	-21.315428	-18.150151	-15.318578	-0.000000	1.856376	-12.055400	10.941420	-5.966660	0.982419	-0.119690	0.216186	-1.000000	-1.000000	-1.000000	-1.000000	-1.000000	-1.000000	-1.000000	62.137931	0.000000	-1.000000	-1.000000	749293.000000	1772738896.147751
3599.010000	-16489.890000	-21082.995000	593.100000	-7103.430000	-3653.280000	377487.315000	21637.170000	-8.369215	-19.594645	-22.948672	-22.138005	-18.932835	-15.225007	0.000000	2.746608	-12.055400	10.941420	-5.966660	0.982419	-0.119690	0.216186	-1.000000	-1.000000	-1.000000	-1.000000	-1.000000	-1.000000	-1.000000	62.137931	0.000000	-1.000000	-1.000000	749294.000000	1772738896.147760
3586.410000	-16497.585000	-21090.690000	598.275000	-7100.415000	-3658.545000	377487.315000	21632.175000	-3.364415	-15.437487	-16.879064	-15.248988	-13.015346	-9.827779	0.000000	10.960086	-12.055400	10.941420	-5.966660	0.982419	-0.119690	0.216186	-1.000000	-1.000000	-1.000000	-1.000000	-1.000000	-1.000000	-1.000000	62.137931	0.000000	-1.000000	-1.000000	749295.000000	1772738896.155430
3553.695000	-16514.595000	-21095.280000	598.230000	-7104.105000	-3670.830000	377487.315000	21597.750000	3.579810	-7.159285	-6.832019	-4.496117	-3.895695	-2.100774	0.000000	16.378133	-12.055400	10.941420	-5.966660	0.982419	-0.119690	0.216186	-1.000000	-1.000000	-1.000000	-1.000000	-1.000000	-1.000000	-1.000000	62.137931	0.000000	-1.000000	-1.000000	749296.000000	1772738896.155439
3556.890000	-16510.905000	-21094.920000	582.435000	-7119.945000	-3702.915000	377487.315000	21609.360000	4.673723	-0.181717	2.255770	5.376216	4.205935	4.447431	0.000000	10.942547	-12.055400	10.941420	-5.966660	0.982419	-0.119690	0.216186	-1.000000	-1.000000	-1.000000	-1.000000	-1.000000	-1.000000	-1.000000	62.137931	0.000000	-1.000000	-1.000000	749297.000000	1772738896.155448
3585.645000	-16492.590000	-21087.855000	588.510000	-7114.635000	-3709.665000	377487.315000	21644.190000	-0.267141	4.398828	9.201063	12.234194	9.725251	8.636476	0.000000	-1.723460	-12.055400	10.941420	-5.966660	0.982419	-0.119690	0.216186	-1.000000	-1.000000	-1.000000	-1.000000	-1.000000	-1.000000	-1.000000	62.137931	0.000000	-1.000000	-1.000000	749298.000000	1772738896.155452
3599.325000	-16483.635000	-21080.925000	597.060000	-7105.230000	-3692.565000	377487.315000	21628.845000	-4.128685	8.711131	14.838956	16.376758	13.419000	11.309542	0.000000	-10.256325	-12.055400	10.941420	-5.966660	0.982419	-0.119690	0.216186	-1.000000	-1.000000	-1.000000	-1.000000	-1.000000	-1.000000	-1.000000	62.137931	0.000000	-1.000000	-1.000000	749299.000000	1772738896.155456
3604.680000	-16468.335000	-21061.665000	619.425000	-7081.020000	-3660.435000	377487.315000	21593.925000	-1.219821	13.419697	18.224635	17.371954	14.874737	12.185361	0.000000	-9.831523	-12.055400	10.941420	-5.966660	0.982419	-0.119690	0.216186	-1.000000	-1.000000	-1.000000	-1.000000	-1.000000	-1.000000	-1.000000	62.137931	0.000000	-1.000000	-1.000000	749300.000000	1772738896.155459
3606.750000	-16471.440000	-21057.660000	628.380000	-7070.805000	-3636.855000	377487.315000	21592.980000	6.325224	15.488434	16.463474	13.411411	12.000880	9.482314	-0.000000	-5.751375	-9.857960	8.209880	-4.242280	0.973630	-0.116516	0.220397	-1.000000	-1.000000	-1.000000	-1.000000	-1.000000	-1.000000	-1.000000	62.137931	0.000000	-1.000000	-1.000000	749301.000000	1772738896.158103
3587.985000	-16482.195000	-21062.205000	623.655000	-7076.475000	-3629.520000	377487.315000	21607.740000	10.550686	11.249124	8.324972	4.547687	4.516109	3.022603	-0.000000	-3.817741	-9.857960	8.209880	-4.242280	0.973630	-0.116516	0.220397	-1.000000	-1.000000	-1.000000	-1.000000	-1.000000	-1.000000	-1.000000	62.137931	0.000000	-1.000000	-1.000000	749302.000000	1772738896.158111
3568.905000	-16492.140000	-21070.125000	614.520000	-7086.060000	-3645.540000	377487.315000	21618.675000	5.372983	0.903982	-3.542698	-6.214724	-4.982863	-4.903916	-0.000000	-4.562004	-9.857960	8.209880	-4.242280	0.973630	-0.116516	0.220397	-1.000000	-1.000000	-1.000000	-1.000000	-1.000000	-1.000000	-1.000000	62.137931	0.000000	-1.000000	-1.000000	749303.000000	1772738896.170989
3569.985000	-16496.775000	-21077.820000	604.485000	-7097.490000	-3664.170000	377487.315000	21624.570000	-6.962013	-10.852039	-14.280794	-15.192436	-13.164945	-11.500108	-0.000000	-5.146278	-9.857960	8.209880	-4.242280	0.973630	-0.116516	0.220397	-1.000000	-1.000000	-1.000000	-1.000000	-1.000000	-1.000000	-1.000000	62.137931	0.000000	-1.000000	-1.000000	749304.000000	1772738896.171001
3589.155000	-16486.380000	-21078.045000	597.690000	-7105.680000	-3688.290000	377487.315000	21614.175000	-16.960752	-17.761413	-19.498089	-19.353143	-17.172828	-14.529646	-0.000000	-3.064488	-9.857960	8.209880	-4.242280	0.973630	-0.116516	0.220397	-1.000000	-1.000000	-1.000000	-1.000000	-1.000000	-1.000000	-1.000000	62.137931	0.000000	-1.000000	-1.000000	749305.000000	1772738896.171011
3583.215000	-16486.110000	-21080.565000	593.685000	-7108.335000	-3705.165000	377487.315000	21601.170000	-16.947910	-16.199036	-17.103898	-16.646562	-14.965925	-12.392864	-0.000000	0.822452	-9.857960	8.209880	-4.242280	0.973630	-0.116516	0.220397	-1.000000	-1.000000	-1.000000	-1.000000	-1.000000	-1.000000	-1.000000	62.137931	0.000000	-1.000000	-1.000000	749306.000000	1772738896.171015
3563.010000	-16485.930000	-21078.810000	598.860000	-7097.355000	-3688.560000	377487.315000	21576.780000	-8.325758	-7.869027	-8.376754	-7.501028	-6.676492	-5.093651	-0.000000	3.222706	-9.857960	8.209880	-4.242280	0.973630	-0.116516	0.220397	-1.000000	-1.000000	-1.000000	-1.000000	-1.000000	-1.000000	-1.000000	62.137931	0.000000	-1.000000	-1.000000	749307.000000	1772738896.171020
3565.665000	-16482.240000	-21076.245000	601.965000	-7095.240000	-3680.010000	377487.315000	21591.495000	1.898736	2.046000	2.407463	4.012254	4.047905	4.291136	-0.000000	3.081677	-9.857960	8.209880	-4.242280	0.973630	-0.116516	0.220397	-1.000000	-1.000000	-1.000000	-1.000000	-1.000000	-1.000000	-1.000000	62.137931	0.000000	-1.000000	-1.000000	749308.000000	1772738896.171024
3575.205000	-16466.265000	-21063.870000	616.770000	-7080.570000	-3654.450000	377487.315000	21608.415000	8.875101	8.919678	10.157006	12.106569	11.504872	10.584030	-0.000000	3.260666	-9.857960	8.209880	-4.242280	0.973630	-0.116516	0.220397	-1.000000	-1.000000	-1.000000	-1.000000	-1.000000	-1.000000	-1.000000	62.137931	0.000000	-1.000000	-1.000000	749309.000000	1772738896.173866
3594.105000	-16449.255000	-21049.335000	632.205000	-7065.270000	-3625.605000	377487.315000	21627.180000	11.889574	11.178008	12.278272	13.718266	12.541174	10.928780	-0.000000	6.034852	-9.857960	8.209880	-4.242280	0.973630	-0.116516	0.220397	-1.000000	-1.000000	-1.000000	-1.000000	-1.000000	-1.000000	-1.000000	62.137931	0.000000	-1.000000	-1.000000	749310.000000	1772738896.173871
3584.880000	-16491.375000	-21076.695000	607.320000	-7091.685000	-3649.005000	377487.315000	21626.055000	11.860289	9.486008	9.597431	10.027950	8.473721	6.792181	-0.000000	9.027644	-14.451220	6.607580	-5.035800	0.970212	-0.111023	0.222106	-1.000000	-1.000000	-1.000000	-1.000000	-1.000000	-1.000000	-1.000000	62.137931	0.000000	-1.000000	-1.000000	749311.000000	1772738896.181709
3585.330000	-16524.540000	-21085.695000	599.850000	-7098.030000	-3657.780000	377487.315000	21639.240000	9.402036	4.089916	4.011976	3.600443	2.130644	1.134706	0.000000	8.072984	-14.451220	6.607580	-5.035800	0.970212	-0.111023	0.222106	-1.000000	-1.000000	-1.000000	-1.000000	-1.000000	-1.000000	-1.000000	62.137931	0.000000	-1.000000	-1.000000	749312.000000	1772738896.181717
3588.300000	-16514.280000	-21082.770000	599.355000	-7097.445000	-3666.600000	377487.315000	21655.035000	4.947350	-3.880816	-2.172032	-2.921953	-3.709379	-3.358719	0.000000	2.796373	-14.451220	6.607580	-5.035800	0.970212	-0.111023	0.222106	-1.000000	-1.000000	-1.000000	-1.000000	-1.000000	-1.000000	-1.000000	62.137931	0.000000	-1.000000	-1.000000	749313.000000	1772738896.182143
3550.005000	-16494.570000	-21077.055000	598.050000	-7101.720000	-3692.700000	377487.315000	21624.120000	-1.106443	-9.920508	-5.896097	-6.560320	-6.308356	-4.676858	0.000000	-3.601269	-14.451220	6.607580	-5.035800	0.970212	-0.111023	0.222106	-1.000000	-1.000000	-1.000000	-1.000000	-1.000000	-1.000000	-1.000000	62.137931	0.000000	-1.000000	-1.000000	749314.000000	1772738896.182150
3556.170000	-16484.310000	-21067.785000	605.745000	-7099.830000	-3700.035000	377487.315000	21575.430000	-7.961948	-9.476393	-5.240339	-5.699092	-4.781693	-3.002726	0.000000	-9.077077	-14.451220	6.607580	-5.035800	0.970212	-0.111023	0.222106	-1.000000	-1.000000	-1.000000	-1.000000	-1.000000	-1.000000	-1.000000	62.137931	0.000000	-1.000000	-1.000000	749315.000000	1772738896.186153
3584.250000	-16483.365000	-21066.930000	610.245000	-7087.275000	-3677.400000	377487.315000	21554.505000	-12.215113	-2.732669	-1.126393	-1.550009	-0.889648	-0.476625	0.000000	-13.335654	-14.451220	6.607580	-5.035800	0.970212	-0.111023	0.222106	-1.000000	-1.000000	-1.000000	-1.000000	-1.000000	-1.000000	-1.000000	62.137931	0.000000	-1.000000	-1.000000	749316.000000	1772738896.186157
3600.090000	-16471.620000	-21061.710000	614.025000	-7082.280000	-3662.100000	377487.315000	21607.110000	-9.717615	5.583134	3.184698	2.599044	2.545268	1.037131	0.000000	-14.303965	-14.451220	6.607580	-5.035800	0.970212	-0.111023	0.222106	-1.000000	-1.000000	-1.000000	-1.000000	-1.000000	-1.000000	-1.000000	62.137931	0.000000	-1.000000	-1.000000	749317.000000	1772738896.225161
3567.240000	-16491.735000	-21060.225000	625.320000	-7070.355000	-3633.255000	377487.315000	21567.825000	-1.878331	9.823561	4.431315	3.774792	3.441225	0.967029	0.000000	-9.461826	-14.451220	6.607580	-5.035800	0.970212	-0.111023	0.222106	-1.000000	-1.000000	-1.000000	-1.000000	-1.000000	-1.000000	-1.000000	62.137931	0.000000	-1.000000	-1.000000	749318.000000	1772738896.225172
3534.705000	-16531.380000	-21091.590000	602.460000	-7087.905000	-3639.960000	377487.315000	21578.625000	4.141778	6.867783	1.584622	1.444791	1.556725	-0.222897	-0.000000	-0.979471	-14.451220	6.607580	-5.035800	0.970212	-0.111023	0.222106	-1.000000	-1.000000	-1.000000	-1.000000	-1.000000	-1.000000	-1.000000	62.137931	0.000000	-1.000000	-1.000000	749319.000000	1772738896.250112
3586.860000	-16524.315000	-21109.590000	568.620000	-7129.440000	-3687.480000	377487.315000	21673.665000	4.205271	-1.012439	-3.680341	-2.835267	-1.955155	-1.888534	-0.000000	7.444265	-14.451220	6.607580	-5.035800	0.970212	-0.111023	0.222106	-1.000000	-1.000000	-1.000000	-1.000000	-1.000000	-1.000000	-1.000000	62.137931	0.000000	-1.000000	-1.000000	749320.000000	1772738896.250130
3634.110000	-16480.170000	-21080.520000	588.870000	-7114.995000	-3685.230000	377487.315000	21693.870000	2.539434	-6.443332	-7.499027	-6.467243	-5.359479	-3.605291	-0.000000	15.498404	-15.855140	8.408260	-5.188400	0.974668	-0.108276	0.218688	-1.000000	-1.000000	-1.000000	-1.000000	-1.000000	-1.000000	-1.000000	62.137931	0.000000	-1.000000	-1.000000	749321.000000	1772738896.256106
3624.525000	-16469.955000	-21067.875000	609.525000	-7085.970000	-3673.710000	377487.315000	21686.310000	4.533898	-3.996639	-6.064376	-6.181709	-5.816603	-3.689330	-0.000000	21.446945	-15.855140	8.408260	-5.188400	0.974668	-0.108276	0.218688	-1.000000	-1.000000	-1.000000	-1.000000	-1.000000	-1.000000	-1.000000	62.137931	0.000000	-1.000000	-1.000000	749322.000000	1772738896.256116
3551.625000	-16483.095000	-21075.615000	601.830000	-7092.135000	-3685.590000	377487.315000	21663.585000	7.931362	3.265798	0.337778	-0.785163	-1.307099	-0.041628	-0.000000	20.497103	-15.855140	8.408260	-5.188400	0.974668	-0.108276	0.218688	-1.000000	-1.000000	-1.000000	-1.000000	-1.000000	-1.000000	-1.000000	62.137931	0.000000	-1.000000	-1.000000	749323.000000	1772738896.256129
3512.340000	-16498.080000	-21089.880000	585.540000	-7112.520000	-3699.090000	377487.315000	21583.125000	5.351389	7.413630	6.703825	5.997468	5.341219	5.582621	-0.000000	10.356412	-15.855140	8.408260	-5.188400	0.974668	-0.108276	0.218688	-1.000000	-1.000000	-1.000000	-1.000000	-1.000000	-1.000000	-1.000000	62.137931	0.000000	-1.000000	-1.000000	749324.000000	1772738896.256132
3543.750000	-16484.220000	-21074.175000	605.025000	-7090.155000	-3668.040000	377487.315000	21566.970000	-5.271103	4.461022	8.330544	8.875123	8.527680	8.277081	-0.000000	-6.868628	-15.855140	8.408260	-5.188400	0.974668	-0.108276	0.218688	-1.000000	-1.000000	-1.000000	-1.000000	-1.000000	-1.000000	-1.000000	62.137931	0.000000	-1.000000	-1.000000	749325.000000	1772738896.256137
3578.670000	-16477.380000	-21062.295000	617.445000	-7078.995000	-3641.895000	377487.315000	21597.930000	-15.780472	-2.610341	5.160837	6.573283	6.300607	5.951623	-0.000000	-24.346874	-15.855140	8.408260	-5.188400	0.974668	-0.108276	0.218688	-1.000000	-1.000000	-1.000000	-1.000000	-1.000000	-1.000000	-1.000000	62.137931	0.000000	-1.000000	-1.000000	749326.000000	1772738896.256140
3599.595000	-16474.545000	-21063.600000	611.955000	-7088.310000	-3640.185000	377487.315000	21607.740000	-15.512900	-7.727825	0.543850	1.674080	1.110101	0.685405	-0.000000	-31.771166	-15.855140	8.408260	-5.188400	0.974668	-0.108276	0.218688	-1.000000	-1.000000	-1.000000	-1.000000	-1.000000	-1.000000	-1.000000	62.137931	0.000000	-1.000000	-1.000000	749327.000000	1772738896.256144
3601.080000	-16476.030000	-21068.325000	609.480000	-7086.195000	-3644.280000	377487.315000	21590.955000	-2.744152	-6.778885	-2.170140	-2.464415	-3.392895	-4.111416	-0.000000	-24.376216	-15.855140	8.408260	-5.188400	0.974668	-0.108276	0.218688	-1.000000	-1.000000	-1.000000	-1.000000	-1.000000	-1.000000	-1.000000	62.137931	0.000000	-1.000000	-1.000000	749328.000000	1772738896.256148
3598.740000	-16486.335000	-21077.910000	601.155000	-7094.070000	-3661.740000	377487.315000	21610.215000	12.644936	-0.980666	-1.996542	-3.599367	-4.338288	-5.555607	-0.000000	-8.882078	-15.855140	8.408260	-5.188400	0.974668	-0.108276	0.218688	-1.000000	-1.000000	-1.000000	-1.000000	-1.000000	-1.000000	-1.000000	62.137931	0.000000	-1.000000	-1.000000	749329.000000	1772738896.307232
3563.505000	-16514.505000	-21104.325000	572.805000	-7122.015000	-3700.845000	377487.315000	21632.085000	17.916135	3.449966	-1.422177	-2.787315	-2.451286	-3.947366	0.000000	5.171621	-15.855140	8.408260	-5.188400	0.974668	-0.108276	0.218688	-1.000000	-1.000000	-1.000000	-1.000000	-1.000000	-1.000000	-1.000000	62.137931	0.000000	-1.000000	-1.000000	749330.000000	1772738896.307242
3553.560000	-16527.690000	-21118.770000	556.425000	-7136.370000	-3726.270000	377487.315000	21621.060000	9.614925	1.388652	-3.637950	-3.474379	-1.875774	-2.858547	0.000000	14.462479	-16.999640	8.774500	-5.249440	0.979978	-0.109436	0.218505	-1.000000	-1.000000	-1.000000	-1.000000	-1.000000	-1.000000	-1.000000	62.137931	0.000000	-1.000000	-1.000000	749331.000000	1772738896.311575
3562.470000	-16512.255000	-21111.750000	561.150000	-7133.670000	-3718.620000	377487.315000	21613.590000	-3.244593	-4.939364	-7.647872	-6.179747	-4.143664	-3.784495	0.000000	19.887558	-16.999640	8.774500	-5.249440	0.979978	-0.109436	0.218505	-1.000000	-1.000000	-1.000000	-1.000000	-1.000000	-1.000000	-1.000000	62.137931	0.000000	-1.000000	-1.000000	749332.000000	1772738896.311584
3586.185000	-16489.170000	-21089.340000	584.595000	-7111.215000	-3688.695000	377487.315000	21638.115000	-9.134592	-8.084837	-8.586615	-7.037073	-5.706026	-3.920296	0.000000	22.800642	-16.999640	8.774500	-5.249440	0.979978	-0.109436	0.218505	-1.000000	-1.000000	-1.000000	-1.000000	-1.000000	-1.000000	-1.000000	62.137931	0.000000	-1.000000	-1.000000	749333.000000	1772738896.311592
3605.040000	-16482.105000	-21081.105000	596.115000	-7100.595000	-3668.355000	377487.315000	21629.070000	-5.455359	-3.828347	-3.619965	-3.041881	-3.165681	-0.829992	0.000000	22.578071	-16.999640	8.774500	-5.249440	0.979978	-0.109436	0.218505	-1.000000	-1.000000	-1.000000	-1.000000	-1.000000	-1.000000	-1.000000	62.137931	0.000000	-1.000000	-1.000000	749334.000000	1772738896.311596
3580.425000	-16504.920000	-21090.330000	594.540000	-7098.930000	-3646.440000	377487.315000	21615.030000	1.239377	4.507302	4.413548	3.895410	2.400390	4.076318	0.000000	15.594161	-16.999640	8.774500	-5.249440	0.979978	-0.109436	0.218505	-1.000000	-1.000000	-1.000000	-1.000000	-1.000000	-1.000000	-1.000000	62.137931	0.000000	-1.000000	-1.000000	749335.000000	1772738896.311600
3575.880000	-16498.620000	-21082.590000	599.130000	-7095.330000	-3642.750000	377487.315000	21624.165000	3.535327	10.491747	10.335205	9.432318	7.484765	7.859118	0.000000	0.758611	-16.999640	8.774500	-5.249440	0.979978	-0.109436	0.218505	-1.000000	-1.000000	-1.000000	-1.000000	-1.000000	-1.000000	-1.000000	62.137931	0.000000	-1.000000	-1.000000	749336.000000	1772738896.311604
3550.455000	-16498.980000	-21075.165000	606.960000	-7089.345000	-3646.395000	377487.315000	21616.470000	-0.527507	11.038977	11.806311	11.253762	9.881248	9.107189	-0.000000	-16.342476	-16.999640	8.774500	-5.249440	0.979978	-0.109436	0.218505	-1.000000	-1.000000	-1.000000	-1.000000	-1.000000	-1.000000	-1.000000	62.137931	0.000000	-1.000000	-1.000000	749337.000000	1772738896.311608
3547.530000	-16487.190000	-21063.960000	617.175000	-7080.435000	-3648.195000	377487.315000	21575.835000	-7.525044	7.423881	9.765370	9.782412	9.402991	8.014798	-0.000000	-28.670914	-16.999640	8.774500	-5.249440	0.979978	-0.109436	0.218505	-1.000000	-1.000000	-1.000000	-1.000000	-1.000000	-1.000000	-1.000000	62.137931	0.000000	-1.000000	-1.000000	749338.000000	1772738896.311612
3589.560000	-16474.230000	-21064.185000	613.845000	-7083.585000	-3669.165000	377487.315000	21555.630000	-10.911845	2.818445	6.013580	6.366830	6.750300	5.272758	-0.000000	-32.714667	-16.999640	8.774500	-5.249440	0.979978	-0.109436	0.218505	-1.000000	-1.000000	-1.000000	-1.000000	-1.000000	-1.000000	-1.000000	62.137931	0.000000	-1.000000	-1.000000	749339.000000	1772738896.311616
3611.340000	-16487.010000	-21086.730000	588.510000	-7111.845000	-3700.530000	377487.315000	21632.895000	-4.948477	-0.434006	1.461152	1.677021	2.276412	1.016791	-0.000000	-25.902208	-16.999640	8.774500	-5.249440	0.979978	-0.109436	0.218505	-1.000000	-1.000000	-1.000000	-1.000000	-1.000000	-1.000000	-1.000000	62.137931	0.000000	-1.000000	-1.000000	749340.000000	1772738896.311619
3592.845000	-16497.135000	-21093.300000	583.020000	-7114.590000	-3693.150000	377487.315000	21691.170000	8.245988	-2.924408	-4.183522	-4.471437	-4.066030	-4.972170	-0.000000	-5.801451	-13.642440	8.331960	-6.241340	0.977781	-0.113220	0.221618	-1.000000	-1.000000	-1.000000	-1.000000	-1.000000	-1.000000	-1.000000	62.137931	0.000000	-1.000000	-1.000000	749341.000000	1772738896.319592
3576.375000	-16484.040000	-21073.365000	607.185000	-7091.190000	-3664.305000	377487.315000	21650.895000	17.915177	-6.326668	-10.311492	-11.028212	-10.785516	-11.198854	-0.000000	21.575891	-13.642440	8.331960	-6.241340	0.977781	-0.113220	0.221618	-1.000000	-1.000000	-1.000000	-1.000000	-1.000000	-1.000000	-1.000000	62.137931	0.000000	-1.000000	-1.000000	749342.000000	1772738896.319600
3583.845000	-16481.205000	-21064.005000	622.305000	-7076.925000	-3633.615000	377487.315000	21609.180000	15.305292	-9.587716	-13.857437	-14.542796	-14.222779	-14.078954	-0.000000	39.467550	-13.642440	8.331960	-6.241340	0.977781	-0.113220	0.221618	-1.000000	-1.000000	-1.000000	-1.000000	-1.000000	-1.000000	-1.000000	62.137931	0.000000	-1.000000	-1.000000	749343.000000	1772738896.319608
3576.060000	-16498.305000	-21080.880000	610.920000	-7082.415000	-3629.565000	377487.315000	21580.245000	2.739013	-9.781886	-12.071537	-12.210963	-11.694247	-11.111839	-0.000000	34.798860	-13.642440	8.331960	-6.241340	0.977781	-0.113220	0.221618	-1.000000	-1.000000	-1.000000	-1.000000	-1.000000	-1.000000	-1.000000	62.137931	0.000000	-1.000000	-1.000000	749344.000000	1772738896.319611
3586.365000	-16483.815000	-21073.095000	613.620000	-7078.095000	-3636.045000	377487.315000	21576.960000	-10.026397	-5.930120	-5.779483	-5.150319	-4.377709	-3.544436	-0.000000	10.733780	-13.642440	8.331960	-6.241340	0.977781	-0.113220	0.221618	-1.000000	-1.000000	-1.000000	-1.000000	-1.000000	-1.000000	-1.000000	62.137931	0.000000	-1.000000	-1.000000	749345.000000	1772738896.319616
3575.700000	-16471.845000	-21062.655000	617.580000	-7080.570000	-3651.795000	377487.315000	21625.425000	-15.133167	0.375823	1.789545	2.787382	3.749507	4.581073	-0.000000	-16.314538	-13.642440	8.331960	-6.241340	0.977781	-0.113220	0.221618	-1.000000	-1.000000	-1.000000	-1.000000	-1.000000	-1.000000	-1.000000	62.137931	0.000000	-1.000000	-1.000000	749346.000000	1772738896.319619
3558.780000	-16441.920000	-21031.740000	629.820000	-7073.280000	-3662.640000	377487.315000	21606.660000	-11.779586	6.781670	8.085777	8.346965	8.969838	9.437164	-0.000000	-29.165132	-13.642440	8.331960	-6.241340	0.977781	-0.113220	0.221618	-1.000000	-1.000000	-1.000000	-1.000000	-1.000000	-1.000000	-1.000000	62.137931	0.000000	-1.000000	-1.000000	749347.000000	1772738896.319623
3569.445000	-16438.770000	-21033.855000	621.855000	-7079.670000	-3675.690000	377487.315000	21572.730000	-4.830114	11.153734	12.082369	10.441671	9.997533	9.911519	0.000000	-23.404001	-13.642440	8.331960	-6.241340	0.977781	-0.113220	0.221618	-1.000000	-1.000000	-1.000000	-1.000000	-1.000000	-1.000000	-1.000000	62.137931	0.000000	-1.000000	-1.000000	749348.000000	1772738896.319627
3604.995000	-16465.545000	-21053.790000	618.930000	-7081.290000	-3669.570000	377487.315000	21626.505000	1.449881	11.462698	12.757334	9.477148	7.913054	7.543760	0.000000	-8.624735	-13.642440	8.331960	-6.241340	0.977781	-0.113220	0.221618	-1.000000	-1.000000	-1.000000	-1.000000	-1.000000	-1.000000	-1.000000	62.137931	0.000000	-1.000000	-1.000000	749349.000000	1772738896.319631
3608.370000	-16521.840000	-21098.295000	594.360000	-7106.040000	-3685.230000	377487.315000	21683.205000	6.620329	5.657932	8.046315	5.657823	3.805768	3.683622	0.000000	5.009707	-13.642440	8.331960	-6.241340	0.977781	-0.113220	0.221618	-1.000000	-1.000000	-1.000000	-1.000000	-1.000000	-1.000000	-1.000000	62.137931	0.000000	-1.000000	-1.000000	749350.000000	1772738896.319634
3591.630000	-16527.240000	-21106.800000	584.640000	-7106.040000	-3661.830000	377487.315000	21688.065000	10.231959	-5.988211	-2.758119	-1.324374	-2.346374	-1.731586	0.000000	14.919704	-14.176540	7.721560	-4.654300	0.973691	-0.113281	0.222778	-1.000000	-1.000000	-1.000000	-1.000000	-1.000000	-1.000000	-1.000000	62.137931	0.000000	-1.000000	-1.000000	749351.000000	1772738896.319638
3574.665000	-16508.520000	-21104.505000	580.005000	-7111.305000	-3653.865000	377487.315000	21635.955000	9.649414	-17.290876	-15.037064	-9.710324	-9.125939	-7.539808	0.000000	20.354079	-14.176540	7.721560	-4.654300	0.973691	-0.113281	0.222778	-1.000000	-1.000000	-1.000000	-1.000000	-1.000000	-1.000000	-1.000000	62.137931	0.000000	-1.000000	-1.000000	749352.000000	1772738896.319641
3568.635000	-16502.265000	-21100.860000	581.580000	-7111.755000	-3661.605000	377487.315000	21608.280000	3.834264	-19.342273	-20.507229	-14.623832	-12.673467	-10.581500	0.000000	17.697945	-14.176540	7.721560	-4.654300	0.973691	-0.113281	0.222778	-1.000000	-1.000000	-1.000000	-1.000000	-1.000000	-1.000000	-1.000000	62.137931	0.000000	-1.000000	-1.000000	749353.000000	1772738896.319646
3578.805000	-16485.795000	-21079.080000	603.495000	-7093.035000	-3654.495000	377487.315000	21610.575000	-3.999561	-9.544296	-14.632425	-11.907722	-9.921782	-8.489192	0.000000	5.404103	-14.176540	7.721560	-4.654300	0.973691	-0.113281	0.222778	-1.000000	-1.000000	-1.000000	-1.000000	-1.000000	-1.000000	-1.000000	62.137931	0.000000	-1.000000	-1.000000	749354.000000	1772738896.319649
3582.135000	-16483.500000	-21066.480000	614.115000	-7083.855000	-3661.470000	377487.315000	21615.930000	-8.603626	5.698810	-0.629001	-2.126383	-1.396948	-1.631786	-0.000000	-11.090122	-14.176540	7.721560	-4.654300	0.973691	-0.113281	0.222778	-1.000000	-1.000000	-1.000000	-1.000000	-1.000000	-1.000000	-1.000000	62.137931	0.000000	-1.000000	-1.000000	749355.000000	1772738896.319653
3594.285000	-16475.445000	-21070.710000	599.535000	-7099.695000	-3697.785000	377487.315000	21622.545000	-7.056720	16.917458	13.237449	9.300621	8.524039	6.430621	-0.000000	-21.921189	-14.176540	7.721560	-4.654300	0.973691	-0.113281	0.222778	-1.000000	-1.000000	-1.000000	-1.000000	-1.000000	-1.000000	-1.000000	62.137931	0.000000	-1.000000	-1.000000	749356.000000	1772738896.319656
3576.780000	-16457.400000	-21048.075000	628.830000	-7069.815000	-3665.205000	377487.315000	21601.485000	-1.631655	19.046844	20.027915	16.270373	14.639263	11.244875	-0.000000	-20.913270	-14.176540	7.721560	-4.654300	0.973691	-0.113281	0.222778	-1.000000	-1.000000	-1.000000	-1.000000	-1.000000	-1.000000	-1.000000	62.137931	0.000000	-1.000000	-1.000000	749357.000000	1772738896.319660
3602.610000	-16432.335000	-21020.085000	660.105000	-7039.440000	-3629.430000	377487.315000	21572.145000	2.556055	14.547503	19.209573	17.073061	15.460903	11.806885	-0.000000	-12.139465	-14.176540	7.721560	-4.654300	0.973691	-0.113281	0.222778	-1.000000	-1.000000	-1.000000	-1.000000	-1.000000	-1.000000	-1.000000	62.137931	0.000000	-1.000000	-1.000000	749358.000000	1772738896.319664
3634.785000	-16463.295000	-21058.425000	618.570000	-7078.995000	-3649.500000	377487.315000	21640.455000	3.729768	8.661510	13.989399	13.103915	12.098500	9.472229	-0.000000	-3.740644	-14.176540	7.721560	-4.654300	0.973691	-0.113281	0.222778	-1.000000	-1.000000	-1.000000	-1.000000	-1.000000	-1.000000	-1.000000	62.137931	0.000000	-1.000000	-1.000000	749359.000000	1772738896.327183
3573.045000	-16520.940000	-21111.030000	570.420000	-7121.565000	-3666.240000	377487.315000	21652.335000	3.532359	1.995486	4.949828	4.207370	3.984349	3.578620	-0.000000	3.472895	-14.176540	7.721560	-4.654300	0.973691	-0.113281	0.222778	-1.000000	-1.000000	-1.000000	-1.000000	-1.000000	-1.000000	-1.000000	62.137931	0.000000	-1.000000	-1.000000	749360.000000	1772738896.327193
3561.120000	-16501.545000	-21089.250000	592.875000	-7099.695000	-3647.520000	377487.315000	21631.950000	1.846801	-7.659804	-7.912060	-8.698376	-8.205626	-5.900831	-0.000000	12.703697	-15.443120	8.698200	-1.648080	0.976987	-0.111816	0.222045	-1.000000	-1.000000	-1.000000	-1.000000	-1.000000	-1.000000	-1.000000	62.137931	0.000000	-1.000000	-1.000000	749361.000000	1772738896.327204
3534.885000	-16478.865000	-21069.855000	608.805000	-7086.735000	-3645.315000	377487.315000	21593.925000	-2.293592	-17.351471	-19.252132	-19.232593	-18.244999	-14.042733	-0.000000	20.950143	-15.443120	8.698200	-1.648080	0.976987	-0.111816	0.222045	-1.000000	-1.000000	-1.000000	-1.000000	-1.000000	-1.000000	-1.000000	62.137931	0.000000	-1.000000	-1.000000	749362.000000	1772738896.327207
3523.455000	-16468.560000	-21058.965000	619.380000	-7076.835000	-3647.970000	377487.315000	21596.985000	-7.374816	-20.347809	-22.122456	-20.669434	-19.550010	-15.275609	-0.000000	20.839375	-15.443120	8.698200	-1.648080	0.976987	-0.111816	0.222045	-1.000000	-1.000000	-1.000000	-1.000000	-1.000000	-1.000000	-1.000000	62.137931	0.000000	-1.000000	-1.000000	749363.000000	1772738896.327212
3566.205000	-16491.870000	-21087.180000	586.845000	-7109.370000	-3701.115000	377487.315000	21635.910000	-9.648345	-14.642139	-15.803049	-13.121973	-12.187315	-9.585851	-0.000000	10.909251	-15.443120	8.698200	-1.648080	0.976987	-0.111816	0.222045	-1.000000	-1.000000	-1.000000	-1.000000	-1.000000	-1.000000	-1.000000	62.137931	0.000000	-1.000000	-1.000000	749364.000000	1772738896.327215
3631.545000	-16494.570000	-21109.995000	558.045000	-7140.015000	-3734.370000	377487.315000	21664.260000	-4.877857	-4.828675	-5.878779	-2.780379	-2.209929	-2.068822	-0.000000	-1.345927	-15.443120	8.698200	-1.648080	0.976987	-0.111816	0.222045	-1.000000	-1.000000	-1.000000	-1.000000	-1.000000	-1.000000	-1.000000	62.137931	0.000000	-1.000000	-1.000000	749365.000000	1772738896.327219
3613.230000	-16488.990000	-21099.825000	573.795000	-7119.090000	-3699.180000	377487.315000	21653.595000	6.770404	3.490687	1.814919	4.099106	4.233559	2.383353	0.000000	-8.067325	-15.443120	8.698200	-1.648080	0.976987	-0.111816	0.222045	-1.000000	-1.000000	-1.000000	-1.000000	-1.000000	-1.000000	-1.000000	62.137931	0.000000	-1.000000	-1.000000	749366.000000	1772738896.327222
3584.430000	-16504.470000	-21097.035000	583.830000	-7103.475000	-3671.775000	377487.315000	21640.320000	16.818349	8.053176	5.889710	6.284511	6.174213	3.719163	0.000000	-9.093035	-15.443120	8.698200	-1.648080	0.976987	-0.111816	0.222045	-1.000000	-1.000000	-1.000000	-1.000000	-1.000000	-1.000000	-1.000000	62.137931	0.000000	-1.000000	-1.000000	749367.000000	1772738896.327226
3580.245000	-16517.610000	-21098.115000	587.880000	-7099.200000	-3650.220000	377487.315000	21644.010000	15.887927	9.659842	8.838879	7.410646	7.381941	5.526554	0.000000	-9.504967	-15.443120	8.698200	-1.648080	0.976987	-0.111816	0.222045	-1.000000	-1.000000	-1.000000	-1.000000	-1.000000	-1.000000	-1.000000	62.137931	0.000000	-1.000000	-1.000000	749368.000000	1772738896.327229
3592.440000	-16488.000000	-21073.185000	609.840000	-7082.235000	-3633.390000	377487.315000	21635.595000	5.270664	10.452228	12.969671	10.863934	10.785421	9.577362	0.000000	-11.449225	-15.443120	8.698200	-1.648080	0.976987	-0.111816	0.222045	-1.000000	-1.000000	-1.000000	-1.000000	-1.000000	-1.000000	-1.000000	62.137931	0.000000	-1.000000	-1.000000	749369.000000	1772738896.327234
3587.535000	-16480.800000	-21066.345000	615.240000	-7077.105000	-3636.405000	377487.315000	21620.115000	-5.349809	11.310829	16.807681	15.115962	14.411766	13.168773	0.000000	-11.641941	-15.443120	8.698200	-1.648080	0.976987	-0.111816	0.222045	-1.000000	-1.000000	-1.000000	-1.000000	-1.000000	-1.000000	-1.000000	62.137931	0.000000	-1.000000	-1.000000	749370.000000	1772738896.327237
3572.415000	-16496.415000	-21080.205000	600.795000	-7091.910000	-3657.555000	377487.315000	21628.710000	-9.502737	9.807177	15.525013	14.663265	13.175543	11.779699	0.000000	-6.732215	-12.101180	10.010560	-4.440660	0.979062	-0.114258	0.223266	-1.000000	-1.000000	-1.000000	-1.000000	-1.000000	-1.000000	-1.000000	62.137931	0.000000	-1.000000	-1.000000	749371.000000	1772738896.327241
3566.790000	-16500.285000	-21090.825000	585.225000	-7106.940000	-3690.180000	377487.315000	21643.380000	-8.125828	3.394130	6.271084	6.153554	4.552236	3.820858	0.000000	2.102652	-12.101180	10.010560	-4.440660	0.979062	-0.114258	0.223266	-1.000000	-1.000000	-1.000000	-1.000000	-1.000000	-1.000000	-1.000000	62.137931	0.000000	-1.000000	-1.000000	749372.000000	1772738896.327244
3586.320000	-16491.690000	-21097.845000	574.560000	-7116.390000	-3708.180000	377487.315000	21642.075000	-5.723812	-5.656757	-7.192553	-6.850319	-7.617691	-6.806728	-0.000000	9.809384	-12.101180	10.010560	-4.440660	0.979062	-0.114258	0.223266	-1.000000	-1.000000	-1.000000	-1.000000	-1.000000	-1.000000	-1.000000	62.137931	0.000000	-1.000000	-1.000000	749373.000000	1772738896.327248
3579.660000	-16497.540000	-21104.280000	571.725000	-7118.595000	-3701.295000	377487.315000	21630.825000	-5.444923	-11.948400	-17.231579	-16.694071	-16.140798	-13.757046	-0.000000	11.538678	-12.101180	10.010560	-4.440660	0.979062	-0.114258	0.223266	-1.000000	-1.000000	-1.000000	-1.000000	-1.000000	-1.000000	-1.000000	62.137931	0.000000	-1.000000	-1.000000	749374.000000	1772738896.327251
3577.590000	-16495.740000	-21097.890000	579.960000	-7110.090000	-3686.085000	377487.315000	21621.555000	-6.396168	-12.503442	-19.135936	-18.685740	-17.165594	-14.210840	-0.000000	6.835449	-12.101180	10.010560	-4.440660	0.979062	-0.114258	0.223266	-1.000000	-1.000000	-1.000000	-1.000000	-1.000000	-1.000000	-1.000000	62.137931	0.000000	-1.000000	-1.000000	749375.000000	1772738896.328890
3581.370000	-16485.165000	-21081.465000	599.715000	-7091.055000	-3652.965000	377487.315000	21613.410000	-5.134406	-7.640564	-13.039450	-13.053135	-11.595254	-9.596327	-0.000000	-0.568321	-12.101180	10.010560	-4.440660	0.979062	-0.114258	0.223266	-1.000000	-1.000000	-1.000000	-1.000000	-1.000000	-1.000000	-1.000000	62.137931	0.000000	-1.000000	-1.000000	749376.000000	1772738896.328899
3585.915000	-16472.700000	-21061.440000	622.620000	-7069.005000	-3619.395000	377487.315000	21576.195000	0.229516	0.744947	-1.755971	-2.371733	-1.950168	-2.012773	-0.000000	-6.796255	-12.101180	10.010560	-4.440660	0.979062	-0.114258	0.223266	-1.000000	-1.000000	-1.000000	-1.000000	-1.000000	-1.000000	-1.000000	62.137931	0.000000	-1.000000	-1.000000	749377.000000	1772738896.328907
3586.095000	-16458.615000	-21044.790000	637.695000	-7055.190000	-3612.555000	377487.315000	21565.800000	7.724491	8.751624	9.829645	9.022439	8.246752	6.247049	-0.000000	-9.635521	-12.101180	10.010560	-4.440660	0.979062	-0.114258	0.223266	-1.000000	-1.000000	-1.000000	-1.000000	-1.000000	-1.000000	-1.000000	62.137931	0.000000	-1.000000	-1.000000	749378.000000	1772738896.328910
3579.795000	-16459.695000	-21049.650000	628.695000	-7064.550000	-3631.050000	377487.315000	21617.235000	13.115613	11.705757	15.937032	15.553815	14.288508	11.600318	-0.000000	-6.956507	-12.101180	10.010560	-4.440660	0.979062	-0.114258	0.223266	-1.000000	-1.000000	-1.000000	-1.000000	-1.000000	-1.000000	-1.000000	62.137931	0.000000	-1.000000	-1.000000	749379.000000	1772738896.328914
3544.650000	-16471.800000	-21070.935000	602.235000	-7091.775000	-3671.145000	377487.315000	21649.545000	13.018845	7.938445	13.416826	13.646979	12.826554	10.885927	-0.000000	2.295604	-12.101180	10.010560	-4.440660	0.979062	-0.114258	0.223266	-1.000000	-1.000000	-1.000000	-1.000000	-1.000000	-1.000000	-1.000000	62.137931	0.000000	-1.000000	-1.000000	749380.000000	1772738896.328918
3529.395000	-16466.940000	-21077.010000	592.965000	-7103.205000	-3700.530000	377487.315000	21636.135000	6.284516	0.010548	4.060927	4.617742	4.712053	4.317841	-0.000000	13.740599	-13.886600	7.553700	-3.326680	0.968870	-0.113159	0.224304	-1.000000	-1.000000	-1.000000	-1.000000	-1.000000	-1.000000	-1.000000	62.137931	0.000000	-1.000000	-1.000000	749381.000000	1772738896.328922
3575.430000	-16461.450000	-21057.525000	622.035000	-7069.815000	-3660.840000	377487.315000	21651.615000	-4.474074	-7.374075	-6.114297	-5.406762	-4.557861	-3.493463	-0.000000	19.166314	-13.886600	7.553700	-3.326680	0.968870	-0.113159	0.224304	-1.000000	-1.000000	-1.000000	-1.000000	-1.000000	-1.000000	-1.000000	62.137931	0.000000	-1.000000	-1.000000	749382.000000	1772738896.328925
3600.135000	-16466.040000	-21059.190000	622.305000	-7067.565000	-3649.905000	377487.315000	21628.035000	-12.038314	-10.482888	-11.003545	-9.985313	-8.804945	-7.005732	-0.000000	14.487949	-13.886600	7.553700	-3.326680	0.968870	-0.113159	0.224304	-1.000000	-1.000000	-1.000000	-1.000000	-1.000000	-1.000000	-1.000000	62.137931	0.000000	-1.000000	-1.000000	749383.000000	1772738896.328929
3577.635000	-16508.430000	-21108.150000	571.680000	-7115.670000	-3682.350000	377487.315000	21573.405000	-10.762941	-9.156093	-9.905803	-8.693026	-7.554184	-5.840105	0.000000	1.852347	-13.886600	7.553700	-3.326680	0.968870	-0.113159	0.224304	-1.000000	-1.000000	-1.000000	-1.000000	-1.000000	-1.000000	-1.000000	62.137931	0.000000	-1.000000	-1.000000	749384.000000	1772738896.328932
3580.785000	-16494.930000	-21086.640000	598.455000	-7088.040000	-3637.890000	377487.315000	21590.595000	-3.031617	-5.995644	-6.877475	-6.161522	-5.342480	-4.201557	0.000000	-13.027265	-13.886600	7.553700	-3.326680	0.968870	-0.113159	0.224304	-1.000000	-1.000000	-1.000000	-1.000000	-1.000000	-1.000000	-1.000000	62.137931	0.000000	-1.000000	-1.000000	749385.000000	1772738896.328936
3568.140000	-16475.085000	-21067.335000	615.195000	-7075.395000	-3628.215000	377487.315000	21567.060000	4.336182	-2.528261	-4.241301	-4.619596	-4.322962	-3.883096	0.000000	-22.062270	-13.886600	7.553700	-3.326680	0.968870	-0.113159	0.224304	-1.000000	-1.000000	-1.000000	-1.000000	-1.000000	-1.000000	-1.000000	62.137931	0.000000	-1.000000	-1.000000	749386.000000	1772738896.328939
3557.070000	-16492.500000	-21085.245000	595.350000	-7096.230000	-3652.020000	377487.315000	21566.655000	6.722657	1.167323	-1.407758	-2.792223	-3.162963	-3.301301	0.000000	-20.066518	-13.886600	7.553700	-3.326680	0.968870	-0.113159	0.224304	-1.000000	-1.000000	-1.000000	-1.000000	-1.000000	-1.000000	-1.000000	62.137931	0.000000	-1.000000	-1.000000	749387.000000	1772738896.334739
3556.980000	-16497.405000	-21090.420000	587.790000	-7107.840000	-3675.645000	377487.315000	21594.105000	4.203781	4.201603	1.665103	-0.040446	-1.101276	-1.497220	0.000000	-9.708324	-13.886600	7.553700	-3.326680	0.968870	-0.113159	0.224304	-1.000000	-1.000000	-1.000000	-1.000000	-1.000000	-1.000000	-1.000000	62.137931	0.000000	-1.000000	-1.000000	749388.000000	1772738896.334748
3581.460000	-16487.415000	-21094.020000	578.160000	-7114.590000	-3704.265000	377487.315000	21611.295000	0.875908	5.863336	4.544273	3.343567	1.850736	1.406393	0.000000	2.448979	-13.886600	7.553700	-3.326680	0.968870	-0.113159	0.224304	-1.000000	-1.000000	-1.000000	-1.000000	-1.000000	-1.000000	-1.000000	62.137931	0.000000	-1.000000	-1.000000	749389.000000	1772738896.334756
3575.970000	-16503.075000	-21116.745000	560.970000	-7123.005000	-3711.510000	377487.315000	21626.955000	0.157989	6.329724	6.704239	6.501548	5.277738	4.692056	0.000000	11.694509	-13.886600	7.553700	-3.326680	0.968870	-0.113159	0.224304	-1.000000	-1.000000	-1.000000	-1.000000	-1.000000	-1.000000	-1.000000	62.137931	0.000000	-1.000000	-1.000000	749390.000000	1772738896.334760
3545.280000	-16501.545000	-21107.700000	574.425000	-7113.780000	-3691.755000	377487.315000	21628.080000	0.013096	5.307137	6.741072	7.496003	7.329956	6.543462	-0.000000	15.986782	-14.252840	5.264700	-2.762060	0.958982	-0.110656	0.226867	-1.000000	-1.000000	-1.000000	-1.000000	-1.000000	-1.000000	-1.000000	62.137931	0.000000	-1.000000	-1.000000	749391.000000	1772738896.338042
3557.385000	-16473.825000	-21074.940000	600.480000	-7092.225000	-3662.145000	377487.315000	21607.110000	-3.178247	3.462027	5.004360	6.141885	6.968365	6.129645	-0.000000	15.004032	-14.252840	5.264700	-2.762060	0.958982	-0.110656	0.226867	-1.000000	-1.000000	-1.000000	-1.000000	-1.000000	-1.000000	-1.000000	62.137931	0.000000	-1.000000	-1.000000	749392.000000	1772738896.338052
3603.060000	-16460.010000	-21052.305000	626.760000	-7062.210000	-3618.315000	377487.315000	21615.705000	-6.934570	3.374014	4.753914	5.410898	6.229991	5.416668	-0.000000	10.074098	-14.252840	5.264700	-2.762060	0.958982	-0.110656	0.226867	-1.000000	-1.000000	-1.000000	-1.000000	-1.000000	-1.000000	-1.000000	62.137931	0.000000	-1.000000	-1.000000	749393.000000	1772738896.342355
3625.965000	-16473.330000	-21069.360000	616.590000	-7072.875000	-3620.205000	377487.315000	21662.145000	-5.036749	5.081339	6.477007	6.228937	6.270779	5.457745	-0.000000	4.231282	-14.252840	5.264700	-2.762060	0.958982	-0.110656	0.226867	-1.000000	-1.000000	-1.000000	-1.000000	-1.000000	-1.000000	-1.000000	62.137931	0.000000	-1.000000	-1.000000	749394.000000	1772738896.342364
3588.255000	-16488.315000	-21085.740000	609.615000	-7085.700000	-3640.905000	377487.315000	21629.385000	2.893781	4.245809	5.399494	4.898542	4.290755	3.697076	-0.000000	0.292260	-14.252840	5.264700	-2.762060	0.958982	-0.110656	0.226867	-1.000000	-1.000000	-1.000000	-1.000000	-1.000000	-1.000000	-1.000000	62.137931	0.000000	-1.000000	-1.000000	749395.000000	1772738896.349007
3555.495000	-16476.840000	-21059.640000	624.105000	-7073.325000	-3641.310000	377487.315000	21610.530000	9.547563	-1.411484	-0.926600	-0.550733	-1.265372	-1.317513	-0.000000	-2.922818	-14.252840	5.264700	-2.762060	0.958982	-0.110656	0.226867	-1.000000	-1.000000	-1.000000	-1.000000	-1.000000	-1.000000	-1.000000	62.137931	0.000000	-1.000000	-1.000000	749396.000000	1772738896.349013
3561.705000	-16482.960000	-21073.590000	602.550000	-7093.980000	-3674.205000	377487.315000	21625.110000	8.434506	-8.286067	-8.181731	-6.819570	-7.185664	-6.656076	-0.000000	-8.702653	-14.252840	5.264700	-2.762060	0.958982	-0.110656	0.226867	-1.000000	-1.000000	-1.000000	-1.000000	-1.000000	-1.000000	-1.000000	62.137931	0.000000	-1.000000	-1.000000	749397.000000	1772738896.352648
3626.370000	-16485.390000	-21099.015000	569.250000	-7129.530000	-3716.550000	377487.315000	21685.995000	1.405618	-11.720612	-11.551749	-10.453897	-10.295634	-9.204437	-0.000000	-15.104524	-14.252840	5.264700	-2.762060	0.958982	-0.110656	0.226867	-1.000000	-1.000000	-1.000000	-1.000000	-1.000000	-1.000000	-1.000000	62.137931	0.000000	-1.000000	-1.000000	749398.000000	1772738896.352652
3591.720000	-16506.765000	-21112.290000	565.920000	-7124.670000	-3702.465000	377487.315000	21640.815000	-4.547800	-10.463352	-10.679979	-11.181544	-10.674958	-9.042838	-0.000000	-16.352402	-14.252840	5.264700	-2.762060	0.958982	-0.110656	0.226867	-1.000000	-1.000000	-1.000000	-1.000000	-1.000000	-1.000000	-1.000000	62.137931	0.000000	-1.000000	-1.000000	749399.000000	1772738896.354402
3572.010000	-16483.590000	-21083.085000	595.395000	-7097.715000	-3668.490000	377487.315000	21633.660000	-6.284347	-5.958751	-7.274967	-9.443161	-8.758198	-7.021881	-0.000000	-11.257765	-14.252840	5.264700	-2.762060	0.958982	-0.110656	0.226867	-1.000000	-1.000000	-1.000000	-1.000000	-1.000000	-1.000000	-1.000000	62.137931	0.000000	-1.000000	-1.000000	749400.000000	1772738896.354410
3590.730000	-16460.415000	-21064.005000	617.175000	-7073.505000	-3630.105000	377487.315000	21604.635000	-5.780898	0.094483	-2.253417	-4.734875	-3.823995	-2.757918	-0.000000	-3.349298	-12.787880	4.303320	-4.745860	0.961179	-0.111389	0.228881	-1.000000	-1.000000	-1.000000	-1.000000	-1.000000	-1.000000	-1.000000	62.137931	0.000000	-1.000000	-1.000000	749401.000000	1772738896.358260
3582.720000	-16447.455000	-21053.475000	625.410000	-7070.940000	-3620.340000	377487.315000	21576.555000	-5.188930	6.353736	3.559880	2.299401	3.273890	3.076076	0.000000	3.100154	-12.787880	4.303320	-4.745860	0.961179	-0.111389	0.228881	-1.000000	-1.000000	-1.000000	-1.000000	-1.000000	-1.000000	-1.000000	62.137931	0.000000	-1.000000	-1.000000	749402.000000	1772738896.358270
3582.855000	-16459.785000	-21063.870000	613.485000	-7084.845000	-3641.490000	377487.315000	21631.995000	-4.795101	10.731401	8.218733	8.499543	8.987363	7.407216	0.000000	5.759825	-12.787880	4.303320	-4.745860	0.961179	-0.111389	0.228881	-1.000000	-1.000000	-1.000000	-1.000000	-1.000000	-1.000000	-1.000000	62.137931	0.000000	-1.000000	-1.000000	749403.000000	1772738896.365852
3582.675000	-16496.280000	-21082.815000	600.345000	-7092.585000	-3653.775000	377487.315000	21631.500000	-2.832094	10.460995	9.364732	10.412066	10.134768	7.691126	0.000000	7.219939	-12.787880	4.303320	-4.745860	0.961179	-0.111389	0.228881	-1.000000	-1.000000	-1.000000	-1.000000	-1.000000	-1.000000	-1.000000	62.137931	0.000000	-1.000000	-1.000000	749404.000000	1772738896.365860
3562.830000	-16507.890000	-21100.365000	583.650000	-7102.350000	-3673.575000	377487.315000	21596.940000	2.207001	4.262006	5.666087	7.003861	6.560721	4.447827	0.000000	9.902959	-12.787880	4.303320	-4.745860	0.961179	-0.111389	0.228881	-1.000000	-1.000000	-1.000000	-1.000000	-1.000000	-1.000000	-1.000000	62.137931	0.000000	-1.000000	-1.000000	749405.000000	1772738896.366531
3573.720000	-16501.275000	-21111.840000	562.995000	-7125.615000	-3709.845000	377487.315000	21613.545000	7.631978	-5.002614	-1.307604	0.573708	0.863607	0.330733	0.000000	10.376606	-12.787880	4.303320	-4.745860	0.961179	-0.111389	0.228881	-1.000000	-1.000000	-1.000000	-1.000000	-1.000000	-1.000000	-1.000000	62.137931	0.000000	-1.000000	-1.000000	749406.000000	1772738896.366538
3596.670000	-16478.595000	-21087.180000	582.975000	-7109.820000	-3690.405000	377487.315000	21647.295000	8.990183	-10.884969	-6.495090	-4.264646	-3.298332	-1.947588	0.000000	5.785186	-12.787880	4.303320	-4.745860	0.961179	-0.111389	0.228881	-1.000000	-1.000000	-1.000000	-1.000000	-1.000000	-1.000000	-1.000000	62.137931	0.000000	-1.000000	-1.000000	749407.000000	1772738896.370947
3583.530000	-16475.940000	-21072.015000	599.715000	-7090.785000	-3662.460000	377487.315000	21646.035000	6.130046	-8.710554	-5.378147	-4.065586	-3.602048	-1.271790	0.000000	-0.207038	-12.787880	4.303320	-4.745860	0.961179	-0.111389	0.228881	-1.000000	-1.000000	-1.000000	-1.000000	-1.000000	-1.000000	-1.000000	62.137931	0.000000	-1.000000	-1.000000	749408.000000	1772738896.370954
3558.870000	-16509.780000	-21100.095000	580.545000	-7106.625000	-3664.350000	377487.315000	21601.620000	1.998861	-1.119986	0.269360	-0.403440	-1.376068	0.617024	-0.000000	-2.916385	-12.787880	4.303320	-4.745860	0.961179	-0.111389	0.228881	-1.000000	-1.000000	-1.000000	-1.000000	-1.000000	-1.000000	-1.000000	62.137931	0.000000	-1.000000	-1.000000	749409.000000	1772738896.377391
3579.660000	-16499.115000	-21092.490000	588.060000	-7100.775000	-3641.670000	377487.315000	21609.630000	-2.028492	4.274943	3.817345	1.642249	-0.426027	0.477653	-0.000000	-2.390626	-12.787880	4.303320	-4.745860	0.961179	-0.111389	0.228881	-1.000000	-1.000000	-1.000000	-1.000000	-1.000000	-1.000000	-1.000000	62.137931	0.000000	-1.000000	-1.000000	749410.000000	1772738896.377399
3581.640000	-16484.580000	-21075.210000	605.880000	-7085.880000	-3629.880000	377487.315000	21619.710000	-5.091926	3.979769	2.255625	0.068058	-1.964978	-2.095819	-0.000000	-0.989250	-11.414480	4.410140	-7.156940	0.962888	-0.111999	0.226501	-1.000000	-1.000000	-1.000000	-1.000000	-1.000000	-1.000000	-1.000000	62.137931	0.000000	-1.000000	-1.000000	749411.000000	1772738896.384622
3574.575000	-16493.535000	-21081.015000	600.120000	-7091.100000	-3643.155000	377487.315000	21628.080000	-5.526903	1.422156	-0.952905	-2.061593	-3.089037	-3.847172	-0.000000	-0.471743	-11.414480	4.410140	-7.156940	0.962888	-0.111999	0.226501	-1.000000	-1.000000	-1.000000	-1.000000	-1.000000	-1.000000	-1.000000	62.137931	0.000000	-1.000000	-1.000000	749412.000000	1772738896.384629
3582.855000	-16478.550000	-21071.835000	605.610000	-7086.780000	-3652.515000	377487.315000	21612.510000	-2.768704	1.161933	-1.585141	-1.548645	-1.340129	-2.457314	-0.000000	-1.442479	-11.414480	4.410140	-7.156940	0.962888	-0.111999	0.226501	-1.000000	-1.000000	-1.000000	-1.000000	-1.000000	-1.000000	-1.000000	62.137931	0.000000	-1.000000	-1.000000	749413.000000	1772738896.384637
3584.430000	-16462.665000	-21068.055000	603.045000	-7091.415000	-3677.130000	377487.315000	21559.950000	1.892390	4.290397	1.189574	1.721982	2.574447	1.093679	-0.000000	-3.674409	-11.414480	4.410140	-7.156940	0.962888	-0.111999	0.226501	-1.000000	-1.000000	-1.000000	-1.000000	-1.000000	-1.000000	-1.000000	62.137931	0.000000	-1.000000	-1.000000	749414.000000	1772738896.384641
3591.810000	-16479.405000	-21093.570000	575.730000	-7117.065000	-3700.395000	377487.315000	21599.730000	5.388495	7.795148	4.897258	5.346630	6.057948	4.270973	-0.000000	-6.939242	-11.414480	4.410140	-7.156940	0.962888	-0.111999	0.226501	-1.000000	-1.000000	-1.000000	-1.000000	-1.000000	-1.000000	-1.000000	62.137931	0.000000	-1.000000	-1.000000	749415.000000	1772738896.390460
3575.295000	-16492.320000	-21098.430000	575.595000	-7115.895000	-3688.155000	377487.315000	21649.455000	4.672515	6.911622	5.324545	5.663352	6.017999	4.500227	-0.000000	-8.596717	-11.414480	4.410140	-7.156940	0.962888	-0.111999	0.226501	-1.000000	-1.000000	-1.000000	-1.000000	-1.000000	-1.000000	-1.000000	62.137931	0.000000	-1.000000	-1.000000	749416.000000	1772738896.390469
3545.190000	-16510.365000	-21107.835000	572.130000	-7115.040000	-3677.715000	377487.315000	21644.730000	-0.111918	0.005185	0.427169	0.963019	1.307450	0.916484	-0.000000	-4.071513	-11.414480	4.410140	-7.156940	0.962888	-0.111999	0.226501	-1.000000	-1.000000	-1.000000	-1.000000	-1.000000	-1.000000	-1.000000	62.137931	0.000000	-1.000000	-1.000000	749417.000000	1772738896.390478
3560.850000	-16495.020000	-21088.620000	593.235000	-7094.250000	-3640.410000	377487.315000	21608.910000	-5.651589	-8.901389	-6.552823	-5.683313	-4.996979	-3.917257	-0.000000	6.067366	-11.414480	4.410140	-7.156940	0.962888	-0.111999	0.226501	-1.000000	-1.000000	-1.000000	-1.000000	-1.000000	-1.000000	-1.000000	62.137931	0.000000	-1.000000	-1.000000	749418.000000	1772738896.390481
3564.855000	-16482.870000	-21069.225000	613.980000	-7074.090000	-3615.615000	377487.315000	21581.010000	-8.248467	-13.590912	-9.859883	-8.922344	-7.902332	-5.845624	-0.000000	14.036382	-11.414480	4.410140	-7.156940	0.962888	-0.111999	0.226501	-1.000000	-1.000000	-1.000000	-1.000000	-1.000000	-1.000000	-1.000000	62.137931	0.000000	-1.000000	-1.000000	749419.000000	1772738896.394150
3567.240000	-16476.570000	-21067.380000	612.630000	-7079.580000	-3632.580000	377487.315000	21595.185000	-6.237607	-11.053618	-6.870858	-6.350096	-5.343024	-3.269857	0.000000	12.617509	-11.414480	4.410140	-7.156940	0.962888	-0.111999	0.226501	-1.000000	-1.000000	-1.000000	-1.000000	-1.000000	-1.000000	-1.000000	62.137931	0.000000	-1.000000	-1.000000	749420.000000	1772738896.394159
3599.280000	-16461.585000	-21054.870000	620.910000	-7072.470000	-3636.315000	377487.315000	21659.670000	-0.269968	-2.828716	0.276154	-0.074763	0.387816	1.559342	0.000000	3.778209	-13.230420	3.830260	-7.568960	0.961179	-0.113281	0.223571	-1.000000	-1.000000	-1.000000	-1.000000	-1.000000	-1.000000	-1.000000	62.137931	0.000000	-1.000000	-1.000000	749421.000000	1772738896.398262
3583.845000	-16469.775000	-21067.650000	605.610000	-7087.005000	-3666.060000	377487.315000	21633.570000	7.152196	6.536662	7.097367	5.758684	5.262806	5.125738	0.000000	-3.364631	-13.230420	3.830260	-7.568960	0.961179	-0.113281	0.223571	-1.000000	-1.000000	-1.000000	-1.000000	-1.000000	-1.000000	-1.000000	62.137931	0.000000	-1.000000	-1.000000	749422.000000	1772738896.398266
3518.865000	-16493.895000	-21094.065000	580.500000	-7107.165000	-3691.305000	377487.315000	21551.535000	10.724937	11.317342	9.406464	7.701665	6.440515	5.402184	0.000000	-4.942696	-13.230420	3.830260	-7.568960	0.961179	-0.113281	0.223571	-1.000000	-1.000000	-1.000000	-1.000000	-1.000000	-1.000000	-1.000000	62.137931	0.000000	-1.000000	-1.000000	749423.000000	1772738896.402496
3563.280000	-16475.445000	-21078.540000	594.900000	-7094.430000	-3672.090000	377487.315000	21580.470000	6.175948	8.858961	6.138947	5.158546	3.925482	2.840904	0.000000	-6.280433	-13.230420	3.830260	-7.568960	0.961179	-0.113281	0.223571	-1.000000	-1.000000	-1.000000	-1.000000	-1.000000	-1.000000	-1.000000	62.137931	0.000000	-1.000000	-1.000000	749424.000000	1772738896.402503
3630.780000	-16467.030000	-21084.390000	581.220000	-7115.715000	-3686.220000	377487.315000	21678.345000	-1.495985	2.646210	0.316002	0.459446	-0.220354	-0.831767	0.000000	-9.391877	-13.230420	3.830260	-7.568960	0.961179	-0.113281	0.223571	-1.000000	-1.000000	-1.000000	-1.000000	-1.000000	-1.000000	-1.000000	62.137931	0.000000	-1.000000	-1.000000	749425.000000	1772738896.407647
3627.630000	-16446.105000	-21055.500000	614.835000	-7083.675000	-3643.605000	377487.315000	21657.780000	-2.525345	-1.516568	-3.879234	-3.428435	-3.912241	-4.162037	0.000000	-7.711188	-13.230420	3.830260	-7.568960	0.961179	-0.113281	0.223571	-1.000000	-1.000000	-1.000000	-1.000000	-1.000000	-1.000000	-1.000000	62.137931	0.000000	-1.000000	-1.000000	749426.000000	1772738896.407654
3565.800000	-16496.730000	-21083.355000	604.755000	-7078.050000	-3616.830000	377487.315000	21616.515000	2.758975	-2.233190	-4.840280	-4.802935	-5.461802	-5.616151	-0.000000	1.360834	-13.230420	3.830260	-7.568960	0.961179	-0.113281	0.223571	-1.000000	-1.000000	-1.000000	-1.000000	-1.000000	-1.000000	-1.000000	62.137931	0.000000	-1.000000	-1.000000	749427.000000	1772738896.410495
3571.335000	-16510.185000	-21097.665000	587.520000	-7094.700000	-3633.435000	377487.315000	21649.455000	4.634502	-3.405788	-4.722942	-4.515616	-4.615577	-4.394853	-0.000000	11.045944	-13.230420	3.830260	-7.568960	0.961179	-0.113281	0.223571	-1.000000	-1.000000	-1.000000	-1.000000	-1.000000	-1.000000	-1.000000	62.137931	0.000000	-1.000000	-1.000000	749428.000000	1772738896.410502
3614.310000	-16485.975000	-21086.055000	589.320000	-7098.795000	-3649.995000	377487.315000	21648.915000	-0.731629	-6.999736	-5.561375	-4.384069	-2.915935	-1.722165	-0.000000	14.029431	-13.230420	3.830260	-7.568960	0.961179	-0.113281	0.223571	-1.000000	-1.000000	-1.000000	-1.000000	-1.000000	-1.000000	-1.000000	62.137931	0.000000	-1.000000	-1.000000	749429.000000	1772738896.413989
3608.955000	-16465.635000	-21070.215000	601.605000	-7087.725000	-3658.230000	377487.315000	21643.290000	-7.595075	-9.031995	-5.593990	-3.895703	-1.207193	0.755181	-0.000000	8.132622	-13.230420	3.830260	-7.568960	0.961179	-0.113281	0.223571	-1.000000	-1.000000	-1.000000	-1.000000	-1.000000	-1.000000	-1.000000	62.137931	0.000000	-1.000000	-1.000000	749430.000000	1772738896.413996
3568.905000	-16441.695000	-21043.620000	628.605000	-7059.825000	-3648.240000	377487.315000	21653.865000	-10.261632	-5.044126	-1.666104	-0.610320	1.696104	3.105766	-0.000000	-2.315685	-10.315760	2.411080	-7.889420	0.961728	-0.115600	0.225585	-1.000000	-1.000000	-1.000000	-1.000000	-1.000000	-1.000000	-1.000000	62.137931	0.000000	-1.000000	-1.000000	749431.000000	1772738896.423124
3592.710000	-16424.865000	-21027.555000	644.355000	-7045.740000	-3627.945000	377487.315000	21588.075000	-7.789362	4.546164	6.637422	6.458079	6.911530	6.418148	-0.000000	-9.743957	-10.315760	2.411080	-7.889420	0.961728	-0.115600	0.225585	-1.000000	-1.000000	-1.000000	-1.000000	-1.000000	-1.000000	-1.000000	62.137931	0.000000	-1.000000	-1.000000	749432.000000	1772738896.423134
3602.835000	-16481.790000	-21094.515000	574.560000	-7115.310000	-3682.935000	377487.315000	21594.330000	-2.311378	13.493485	14.199209	13.051235	11.346028	8.922942	-0.000000	-12.561181	-10.315760	2.411080	-7.889420	0.961728	-0.115600	0.225585	-1.000000	-1.000000	-1.000000	-1.000000	-1.000000	-1.000000	-1.000000	62.137931	0.000000	-1.000000	-1.000000	749433.000000	1772738896.423145
3574.530000	-16516.755000	-21126.465000	546.345000	-7142.805000	-3696.030000	377487.315000	21670.245000	1.999656	13.272450	12.756840	11.354434	8.538578	5.743961	-0.000000	-13.282424	-10.315760	2.411080	-7.889420	0.961728	-0.115600	0.225585	-1.000000	-1.000000	-1.000000	-1.000000	-1.000000	-1.000000	-1.000000	62.137931	0.000000	-1.000000	-1.000000	749434.000000	1772738896.423149
3553.200000	-16489.215000	-21085.605000	592.650000	-7098.480000	-3638.250000	377487.315000	21621.285000	2.012544	2.342992	0.854335	-0.143540	-2.522532	-3.837074	-0.000000	-9.958542	-10.315760	2.411080	-7.889420	0.961728	-0.115600	0.225585	-1.000000	-1.000000	-1.000000	-1.000000	-1.000000	-1.000000	-1.000000	62.137931	0.000000	-1.000000	-1.000000	749435.000000	1772738896.426348
3535.425000	-16464.330000	-21058.110000	619.605000	-7075.845000	-3623.220000	377487.315000	21560.805000	-0.586899	-9.683088	-11.703475	-12.176542	-13.437366	-12.867852	-0.000000	-1.655130	-10.315760	2.411080	-7.889420	0.961728	-0.115600	0.225585	-1.000000	-1.000000	-1.000000	-1.000000	-1.000000	-1.000000	-1.000000	62.137931	0.000000	-1.000000	-1.000000	749436.000000	1772738896.426356
3524.985000	-16480.260000	-21071.205000	604.305000	-7083.990000	-3634.425000	377487.315000	21582.405000	-2.193841	-12.460104	-14.379873	-14.625927	-15.042715	-13.796234	-0.000000	5.923656	-10.315760	2.411080	-7.889420	0.961728	-0.115600	0.225585	-1.000000	-1.000000	-1.000000	-1.000000	-1.000000	-1.000000	-1.000000	62.137931	0.000000	-1.000000	-1.000000	749437.000000	1772738896.433438
3571.830000	-16473.420000	-21068.820000	596.880000	-7092.990000	-3652.515000	377487.315000	21626.010000	-1.510741	-6.193664	-7.118800	-7.255610	-6.900966	-6.092528	0.000000	8.832749	-10.315760	2.411080	-7.889420	0.961728	-0.115600	0.225585	-1.000000	-1.000000	-1.000000	-1.000000	-1.000000	-1.000000	-1.000000	62.137931	0.000000	-1.000000	-1.000000	749438.000000	1772738896.433445
3615.795000	-16461.945000	-21060.000000	609.975000	-7091.865000	-3679.065000	377487.315000	21627.360000	2.619936	1.715316	2.403131	2.543257	3.793356	4.134443	0.000000	9.579512	-10.315760	2.411080	-7.889420	0.961728	-0.115600	0.225585	-1.000000	-1.000000	-1.000000	-1.000000	-1.000000	-1.000000	-1.000000	62.137931	0.000000	-1.000000	-1.000000	749439.000000	1772738896.434107
3597.480000	-16497.360000	-21089.880000	595.260000	-7090.380000	-3674.340000	377487.315000	21602.610000	10.892703	5.321975	7.298389	8.125832	9.854573	10.050894	0.000000	10.815960	-10.315760	2.411080	-7.889420	0.961728	-0.115600	0.225585	-1.000000	-1.000000	-1.000000	-1.000000	-1.000000	-1.000000	-1.000000	62.137931	0.000000	-1.000000	-1.000000	749440.000000	1772738896.434112
3608.865000	-16507.530000	-21108.690000	573.210000	-7106.085000	-3673.440000	377487.315000	21675.105000	18.214258	3.024454	5.257601	7.287561	9.150562	9.404259	0.000000	12.373099	-9.919000	3.158820	-8.820280	0.961301	-0.115844	0.223449	-1.000000	-1.000000	-1.000000	-1.000000	-1.000000	-1.000000	-1.000000	62.137931	0.000000	-1.000000	-1.000000	749441.000000	1772738896.449667
3611.835000	-16475.715000	-21089.970000	583.965000	-7100.685000	-3659.760000	377487.315000	21692.430000	17.009979	-1.253755	-0.018176	2.877945	4.980742	5.474086	0.000000	12.753099	-9.919000	3.158820	-8.820280	0.961301	-0.115844	0.223449	-1.000000	-1.000000	-1.000000	-1.000000	-1.000000	-1.000000	-1.000000	62.137931	0.000000	-1.000000	-1.000000	749442.000000	1772738896.449675
3582.900000	-16480.845000	-21087.090000	589.995000	-7095.015000	-3635.190000	377487.315000	21643.290000	6.206038	-1.259259	-2.097999	-0.005210	1.962064	2.649515	0.000000	8.274496	-9.919000	3.158820	-8.820280	0.961301	-0.115844	0.223449	-1.000000	-1.000000	-1.000000	-1.000000	-1.000000	-1.000000	-1.000000	62.137931	0.000000	-1.000000	-1.000000	749443.000000	1772738896.449684
3555.810000	-16490.205000	-21082.455000	596.430000	-7090.110000	-3625.605000	377487.315000	21597.255000	-8.281392	3.207345	0.221515	-0.252240	0.540699	1.136780	0.000000	-3.171740	-9.919000	3.158820	-8.820280	0.961301	-0.115844	0.223449	-1.000000	-1.000000	-1.000000	-1.000000	-1.000000	-1.000000	-1.000000	62.137931	0.000000	-1.000000	-1.000000	749444.000000	1772738896.449688
3569.535000	-16485.345000	-21082.230000	593.685000	-7093.305000	-3638.790000	377487.315000	21596.355000	-18.874639	6.511783	2.763079	-0.555259	-1.696402	-1.478578	-0.000000	-16.619178	-9.919000	3.158820	-8.820280	0.961301	-0.115844	0.223449	-1.000000	-1.000000	-1.000000	-1.000000	-1.000000	-1.000000	-1.000000	62.137931	0.000000	-1.000000	-1.000000	749445.000000	1772738896.450335
3576.780000	-16484.805000	-21081.420000	596.070000	-7089.120000	-3642.615000	377487.315000	21604.905000	-20.822401	5.296245	2.755681	-1.803945	-4.666485	-5.066338	-0.000000	-24.378259	-9.919000	3.158820	-8.820280	0.961301	-0.115844	0.223449	-1.000000	-1.000000	-1.000000	-1.000000	-1.000000	-1.000000	-1.000000	62.275862	0.000000	-1.000000	-1.000000	749446.000000	1772738896.450342
3591.180000	-16470.945000	-21072.195000	602.145000	-7083.990000	-3657.105000	377487.315000	21618.495000	-14.985081	0.871829	0.824282	-2.453054	-5.832544	-6.877001	-0.000000	-22.927264	-9.919000	3.158820	-8.820280	0.961301	-0.115844	0.223449	-1.000000	-1.000000	-1.000000	-1.000000	-1.000000	-1.000000	-1.000000	62.275862	0.000000	-1.000000	-1.000000	749447.000000	1772738896.450350
3560.580000	-16485.750000	-21098.115000	570.555000	-7114.680000	-3696.210000	377487.315000	21614.535000	-6.224434	-3.844466	-1.602229	-2.092963	-4.420394	-5.671896	-0.000000	-13.129311	-9.919000	3.158820	-8.820280	0.961301	-0.115844	0.223449	-1.000000	-1.000000	-1.000000	-1.000000	-1.000000	-1.000000	-1.000000	62.275862	0.000000	-1.000000	-1.000000	749448.000000	1772738896.450353
3558.195000	-16484.265000	-21097.575000	573.210000	-7111.260000	-3683.700000	377487.315000	21601.845000	1.021311	-6.350478	-3.468603	-1.888316	-2.399587	-3.263338	-0.000000	1.096827	-9.919000	3.158820	-8.820280	0.961301	-0.115844	0.223449	-1.000000	-1.000000	-1.000000	-1.000000	-1.000000	-1.000000	-1.000000	62.275862	0.000000	-1.000000	-1.000000	749449.000000	1772738896.454057
3574.080000	-16484.490000	-21091.680000	584.280000	-7100.055000	-3664.530000	377487.315000	21614.355000	5.163658	-5.363294	-3.335791	-1.337379	-0.568515	-0.916516	-0.000000	12.715366	-9.919000	3.158820	-8.820280	0.961301	-0.115844	0.223449	-1.000000	-1.000000	-1.000000	-1.000000	-1.000000	-1.000000	-1.000000	62.275862	0.000000	-1.000000	-1.000000	749450.000000	1772738896.454066
3601.890000	-16469.685000	-21077.910000	598.860000	-7086.105000	-3637.035000	377487.315000	21632.265000	7.695076	-1.659720	-0.391991	1.345274	2.457357	2.294106	-0.000000	16.110964	-8.576120	5.066320	-8.103060	0.964475	-0.115967	0.219787	-1.000000	-1.000000	-1.000000	-1.000000	-1.000000	-1.000000	-1.000000	62.275862	0.000000	-1.000000	-1.000000	749451.000000	1772738896.458415
3592.845000	-16476.795000	-21082.410000	599.940000	-7080.975000	-3617.325000	377487.315000	21638.925000	11.094409	2.368887	3.453552	5.120811	6.174576	5.978529	-0.000000	13.459762	-8.576120	5.066320	-8.103060	0.964475	-0.115967	0.219787	-1.000000	-1.000000	-1.000000	-1.000000	-1.000000	-1.000000	-1.000000	62.275862	0.000000	-1.000000	-1.000000	749452.000000	1772738896.458424
3591.225000	-16477.830000	-21084.930000	594.765000	-7087.005000	-3627.945000	377487.315000	21652.470000	14.880646	4.393500	4.812305	6.400586	7.504314	7.519178	-0.000000	11.465545	-8.576120	5.066320	-8.103060	0.964475	-0.115967	0.219787	-1.000000	-1.000000	-1.000000	-1.000000	-1.000000	-1.000000	-1.000000	62.275862	0.000000	-1.000000	-1.000000	749453.000000	1772738896.462628
3589.470000	-16473.960000	-21077.865000	597.420000	-7090.515000	-3641.130000	377487.315000	21645.720000	15.043633	3.548577	2.517277	3.551889	4.687404	5.321880	-0.000000	11.781681	-8.576120	5.066320	-8.103060	0.964475	-0.115967	0.219787	-1.000000	-1.000000	-1.000000	-1.000000	-1.000000	-1.000000	-1.000000	62.275862	0.000000	-1.000000	-1.000000	749454.000000	1772738896.462639
3592.125000	-16477.425000	-21078.765000	588.060000	-7099.290000	-3660.435000	377487.315000	21648.285000	8.328936	0.642523	-1.429356	-1.555882	-0.889961	0.415621	-0.000000	9.525107	-8.576120	5.066320	-8.103060	0.964475	-0.115967	0.219787	-1.000000	-1.000000	-1.000000	-1.000000	-1.000000	-1.000000	-1.000000	62.275862	0.000000	-1.000000	-1.000000	749455.000000	1772738896.472436
3578.490000	-16486.425000	-21094.605000	573.660000	-7112.745000	-3687.390000	377487.315000	21635.820000	-3.796838	-2.907842	-4.573865	-6.097530	-6.305407	-4.613257	0.000000	1.031879	-8.576120	5.066320	-8.103060	0.964475	-0.115967	0.219787	-1.000000	-1.000000	-1.000000	-1.000000	-1.000000	-1.000000	-1.000000	62.275862	0.000000	-1.000000	-1.000000	749456.000000	1772738896.472445
3561.435000	-16489.890000	-21098.655000	572.895000	-7113.465000	-3684.645000	377487.315000	21620.520000	-15.423772	-5.442400	-5.585985	-7.924984	-8.794146	-7.150469	0.000000	-10.933327	-8.576120	5.066320	-8.103060	0.964475	-0.115967	0.219787	-1.000000	-1.000000	-1.000000	-1.000000	-1.000000	-1.000000	-1.000000	62.275862	0.000000	-1.000000	-1.000000	749457.000000	1772738896.478248
3539.295000	-16477.515000	-21082.590000	591.570000	-7095.015000	-3659.715000	377487.315000	21595.860000	-20.955854	-5.095970	-3.710214	-5.672599	-6.734083	-5.839796	0.000000	-20.454619	-8.576120	5.066320	-8.103060	0.964475	-0.115967	0.219787	-1.000000	-1.000000	-1.000000	-1.000000	-1.000000	-1.000000	-1.000000	62.275862	0.000000	-1.000000	-1.000000	749458.000000	1772738896.478270
3530.430000	-16462.665000	-21059.865000	618.795000	-7069.365000	-3625.695000	377487.315000	21587.985000	-19.341154	-1.337374	0.856163	0.298151	-0.583226	-1.171228	0.000000	-23.994313	-8.576120	5.066320	-8.103060	0.964475	-0.115967	0.219787	-1.000000	-1.000000	-1.000000	-1.000000	-1.000000	-1.000000	-1.000000	62.275862	0.000000	-1.000000	-1.000000	749459.000000	1772738896.478284
3574.800000	-16468.695000	-21057.570000	625.770000	-7060.635000	-3596.355000	377487.315000	21611.115000	-11.974267	3.772353	5.986393	7.107757	6.685352	4.556924	0.000000	-20.325311	-8.576120	5.066320	-8.103060	0.964475	-0.115967	0.219787	-1.000000	-1.000000	-1.000000	-1.000000	-1.000000	-1.000000	-1.000000	62.275862	0.000000	-1.000000	-1.000000	749460.000000	1772738896.478287
3606.840000	-16474.815000	-21063.600000	617.085000	-7071.210000	-3609.045000	377487.315000	21624.930000	0.672197	6.861622	8.364453	10.509146	10.646048	7.886224	0.000000	-8.751804	-8.148840	5.142620	-8.103060	0.968748	-0.115783	0.219238	-1.000000	-1.000000	-1.000000	-1.000000	-1.000000	-1.000000	-1.000000	62.275862	0.000000	-1.000000	-1.000000	749461.000000	1772738896.478292
3600.495000	-16455.915000	-21047.445000	628.335000	-7065.045000	-3613.860000	377487.315000	21618.135000	15.881078	6.253343	6.286908	8.178357	8.682147	6.542520	0.000000	7.787088	-8.148840	5.142620	-8.103060	0.968748	-0.115783	0.219238	-1.000000	-1.000000	-1.000000	-1.000000	-1.000000	-1.000000	-1.000000	62.275862	0.000000	-1.000000	-1.000000	749462.000000	1772738896.478295
3638.745000	-16418.295000	-21019.365000	646.065000	-7054.245000	-3620.565000	377487.315000	21610.980000	26.459819	3.618287	1.607405	2.100700	2.542800	1.677872	-0.000000	21.370735	-8.148840	5.142620	-8.103060	0.968748	-0.115783	0.219238	-1.000000	-1.000000	-1.000000	-1.000000	-1.000000	-1.000000	-1.000000	62.275862	0.000000	-1.000000	-1.000000	749463.000000	1772738896.482858
3614.535000	-16463.430000	-21082.860000	587.205000	-7100.460000	-3678.660000	377487.315000	21572.685000	26.170220	1.226147	-2.986493	-4.153399	-4.015631	-3.771372	-0.000000	24.440722	-8.148840	5.142620	-8.103060	0.968748	-0.115783	0.219238	-1.000000	-1.000000	-1.000000	-1.000000	-1.000000	-1.000000	-1.000000	62.275862	0.000000	-1.000000	-1.000000	749464.000000	1772738896.482866
