Channel1	Channel2	Channel3	Channel4	Channel5	Channel6	Channel7	Channel8	FilteredChannel1	FilteredChannel2	FilteredChannel3	FilteredChannel4	FilteredChannel5	FilteredChannel6	FilteredChannel7	FilteredChannel8	GyroX	GyroY	GyroZ	AccX	AccY	AccZ	PPG1	PPG2	rawPPG1	rawPPG2	rawPPG3	Hr	Hrv	Battery	Trigger	PhysicalTrigger	AutoTrigger	NumMeasurements	Timestamp
18749.475000	-17081.145000	11971.710000	22906.620000	10524.780000	-42493.095000	-35345.745000	-20354.535000	31.038712	33.489267	36.170289	35.109551	33.009335	33.316876	12.115737	21.037872	-2.914660	4.410140	-1.495480	0.844602	-0.253234	0.459838	-1.000000	-1.000000	-1.000000	-1.000000	-1.000000	-1.000000	-1.000000	81.310345	0.000000	-1.000000	-1.000000	781007.000000	1774905496.611461
18752.625000	-17073.360000	11982.735000	22915.440000	10531.260000	-42486.750000	-35339.445000	-20371.275000	23.846690	30.377827	31.105434	30.455781	28.634843	27.553726	10.869423	16.399115	-2.914660	4.410140	-1.495480	0.844602	-0.253234	0.459838	-1.000000	-1.000000	-1.000000	-1.000000	-1.000000	-1.000000	-1.000000	81.310345	0.000000	-1.000000	-1.000000	781008.000000	1774905496.611472
18766.755000	-17066.475000	11995.425000	22918.275000	10526.265000	-42487.380000	-35340.615000	-20367.000000	12.679446	20.003879	19.891759	19.249151	18.576109	16.909687	8.739458	7.567786	-2.914660	4.410140	-1.495480	0.844602	-0.253234	0.459838	-1.000000	-1.000000	-1.000000	-1.000000	-1.000000	-1.000000	-1.000000	81.310345	0.000000	-1.000000	-1.000000	781009.000000	1774905496.618004
18787.095000	-17053.200000	12011.760000	22933.755000	10538.820000	-42475.770000	-35336.565000	-20343.735000	5.827401	10.446851	9.958022	9.272231	9.663694	8.392192	6.892827	1.090069	-2.914660	4.410140	-1.495480	0.844602	-0.253234	0.459838	-1.000000	-1.000000	-1.000000	-1.000000	-1.000000	-1.000000	-1.000000	81.310345	0.000000	-1.000000	-1.000000	781010.000000	1774905496.618017
18803.610000	-17035.965000	12000.960000	22943.745000	10558.170000	-42449.220000	-35326.800000	-20310.120000	4.682032	3.934803	2.616381	2.442313	3.032469	2.730240	4.148260	0.077699	-2.670500	4.303320	-1.495480	0.841306	-0.252868	0.461547	-1.000000	-1.000000	-1.000000	-1.000000	-1.000000	-1.000000	-1.000000	81.310345	0.000000	-1.000000	-1.000000	781011.000000	1774905496.629054
18812.745000	-17020.440000	12004.020000	22953.285000	10565.685000	-42456.420000	-35305.650000	-20262.285000	4.071204	-2.119947	-5.309372	-3.842235	-3.760771	-3.371069	-0.408784	2.783250	-2.670500	4.303320	-1.495480	0.841306	-0.252868	0.461547	-1.000000	-1.000000	-1.000000	-1.000000	-1.000000	-1.000000	-1.000000	81.310345	0.000000	-1.000000	-1.000000	781012.000000	1774905496.629068
18836.280000	-17007.885000	12031.830000	22962.195000	10567.755000	-42476.490000	-35299.215000	-20241.270000	-1.402000	-9.980742	-14.865815	-11.310653	-11.829669	-12.044117	-5.241611	5.121040	-2.670500	4.303320	-1.495480	0.841306	-0.252868	0.461547	-1.000000	-1.000000	-1.000000	-1.000000	-1.000000	-1.000000	-1.000000	81.310345	0.000000	-1.000000	-1.000000	781013.000000	1774905496.630326
18806.175000	-17041.995000	12034.710000	22940.280000	10542.105000	-42490.440000	-35333.055000	-20299.905000	-11.984658	-18.962386	-22.500042	-18.854972	-19.680815	-21.787572	-8.809890	2.583450	-2.670500	4.303320	-1.495480	0.841306	-0.252868	0.461547	-1.000000	-1.000000	-1.000000	-1.000000	-1.000000	-1.000000	-1.000000	81.310345	0.000000	-1.000000	-1.000000	781014.000000	1774905496.630337
18736.965000	-17101.530000	11983.545000	22893.165000	10492.560000	-42537.960000	-35378.370000	-20368.710000	-23.718980	-26.685697	-24.762929	-24.615930	-25.493165	-28.929843	-12.226742	-7.809756	-2.670500	4.303320	-1.495480	0.841306	-0.252868	0.461547	-1.000000	-1.000000	-1.000000	-1.000000	-1.000000	-1.000000	-1.000000	81.310345	0.000000	-1.000000	-1.000000	781015.000000	1774905496.630349
18706.320000	-17136.405000	11934.945000	22855.275000	10461.870000	-42564.375000	-35403.570000	-20391.120000	-31.796768	-30.581844	-22.485786	-27.234657	-27.980309	-30.411770	-16.556621	-22.754120	-2.670500	4.303320	-1.495480	0.841306	-0.252868	0.461547	-1.000000	-1.000000	-1.000000	-1.000000	-1.000000	-1.000000	-1.000000	81.310345	0.000000	-1.000000	-1.000000	781016.000000	1774905496.630355
18737.100000	-17117.370000	11950.920000	22873.680000	10480.545000	-42548.850000	-35385.300000	-20374.200000	-30.909707	-27.149893	-17.530636	-24.219453	-24.242721	-23.696471	-18.633833	-31.730035	-2.670500	4.303320	-1.495480	0.841306	-0.252868	0.461547	-1.000000	-1.000000	-1.000000	-1.000000	-1.000000	-1.000000	-1.000000	81.310345	0.000000	-1.000000	-1.000000	781017.000000	1774905496.634175
18747.090000	-17105.310000	11955.510000	22880.385000	10487.295000	-42540.390000	-35367.390000	-20356.560000	-17.157005	-13.081092	-8.650130	-12.280560	-10.689331	-7.096033	-12.829695	-25.364517	-2.670500	4.303320	-1.495480	0.841306	-0.252868	0.461547	-1.000000	-1.000000	-1.000000	-1.000000	-1.000000	-1.000000	-1.000000	81.310345	0.000000	-1.000000	-1.000000	781018.000000	1774905496.634186
18766.215000	-17095.455000	11955.330000	22886.955000	10502.460000	-42520.950000	-35359.065000	-20340.810000	6.164866	9.129098	4.713570	7.064399	10.480270	15.512805	1.742125	-4.904861	-2.670500	4.303320	-1.495480	0.841306	-0.252868	0.461547	-1.000000	-1.000000	-1.000000	-1.000000	-1.000000	-1.000000	-1.000000	81.310345	0.000000	-1.000000	-1.000000	781019.000000	1774905496.640320
18772.605000	-17070.795000	11972.025000	22904.730000	10519.155000	-42507.540000	-35357.040000	-20338.110000	28.240241	29.884502	18.620214	25.614922	29.740753	34.118399	18.095807	17.922612	-2.670500	4.303320	-1.495480	0.841306	-0.252868	0.461547	-1.000000	-1.000000	-1.000000	-1.000000	-1.000000	-1.000000	-1.000000	81.310345	0.000000	-1.000000	-1.000000	781020.000000	1774905496.640332
18755.010000	-17037.720000	11997.045000	22921.560000	10525.680000	-42498.900000	-35352.585000	-20335.230000	37.783180	39.612541	27.590975	34.865746	37.670994	40.119768	26.938215	29.980552	-1.617560	3.631880	-1.175020	0.840025	-0.253112	0.463012	-1.000000	-1.000000	-1.000000	-1.000000	-1.000000	-1.000000	-1.000000	81.310345	0.000000	-1.000000	-1.000000	781021.000000	1774905496.640750
18742.455000	-17053.425000	12001.500000	22914.000000	10507.050000	-42508.845000	-35354.520000	-20343.645000	30.048331	34.892335	27.874554	31.475867	31.202872	32.072365	24.133015	26.260114	-1.617560	3.631880	-1.175020	0.840025	-0.253112	0.463012	-1.000000	-1.000000	-1.000000	-1.000000	-1.000000	-1.000000	-1.000000	81.310345	0.000000	-1.000000	-1.000000	781022.000000	1774905496.640761
18743.580000	-17101.755000	11976.885000	22898.880000	10499.580000	-42519.870000	-35358.390000	-20359.755000	10.800408	18.606331	18.909837	17.910650	14.340104	14.643527	12.992275	12.714687	-1.617560	3.631880	-1.175020	0.840025	-0.253112	0.463012	-1.000000	-1.000000	-1.000000	-1.000000	-1.000000	-1.000000	-1.000000	81.310345	0.000000	-1.000000	-1.000000	781023.000000	1774905496.644057
18757.935000	-17100.495000	11973.195000	22899.015000	10507.770000	-42519.870000	-35361.225000	-20348.370000	-6.640889	-1.781234	4.766966	1.077072	-3.974891	-4.411793	0.731840	0.486194	-1.617560	3.631880	-1.175020	0.840025	-0.253112	0.463012	-1.000000	-1.000000	-1.000000	-1.000000	-1.000000	-1.000000	-1.000000	81.310345	0.000000	-1.000000	-1.000000	781024.000000	1774905496.644476
18777.060000	-17082.090000	11976.390000	22895.145000	10508.670000	-42518.925000	-35358.795000	-20339.415000	-12.261502	-16.930794	-7.512363	-11.468973	-15.165320	-17.574994	-7.188938	-3.411824	-1.617560	3.631880	-1.175020	0.840025	-0.253112	0.463012	-1.000000	-1.000000	-1.000000	-1.000000	-1.000000	-1.000000	-1.000000	81.310345	0.000000	-1.000000	-1.000000	781025.000000	1774905496.647555
18789.345000	-17055.315000	12002.895000	22921.470000	10531.530000	-42496.380000	-35351.280000	-20337.030000	-7.093982	-20.919700	-12.999810	-16.041978	-16.468837	-21.214636	-9.925781	-0.748463	-1.617560	3.631880	-1.175020	0.840025	-0.253112	0.463012	-1.000000	-1.000000	-1.000000	-1.000000	-1.000000	-1.000000	-1.000000	81.310345	0.000000	-1.000000	-1.000000	781026.000000	1774905496.647567
18776.610000	-17040.465000	12022.830000	22943.655000	10547.730000	-42478.650000	-35329.860000	-20323.440000	0.091415	-14.845342	-11.462182	-13.418528	-10.892507	-16.542407	-9.450452	1.729286	-1.617560	3.631880	-1.175020	0.840025	-0.253112	0.463012	-1.000000	-1.000000	-1.000000	-1.000000	-1.000000	-1.000000	-1.000000	81.310345	0.000000	-1.000000	-1.000000	781027.000000	1774905496.653225
18768.870000	-17034.030000	12038.985000	22961.295000	10562.085000	-42469.020000	-35311.095000	-20309.040000	1.321990	-5.066332	-5.871188	-6.892721	-3.760367	-8.134018	-7.355177	-0.371587	-1.617560	3.631880	-1.175020	0.840025	-0.253112	0.463012	-1.000000	-1.000000	-1.000000	-1.000000	-1.000000	-1.000000	-1.000000	81.310345	0.000000	-1.000000	-1.000000	781028.000000	1774905496.653235
18783.270000	-17061.795000	12002.310000	22929.930000	10549.755000	-42477.750000	-35321.040000	-20314.080000	-4.474308	0.912312	-1.077614	-1.330863	0.146175	-1.376646	-4.573194	-6.338289	-1.617560	3.631880	-1.175020	0.840025	-0.253112	0.463012	-1.000000	-1.000000	-1.000000	-1.000000	-1.000000	-1.000000	-1.000000	81.310345	0.000000	-1.000000	-1.000000	781029.000000	1774905496.656254
18785.835000	-17081.505000	11946.060000	22890.780000	10523.925000	-42500.835000	-35347.770000	-20332.080000	-11.548301	-1.260453	-2.548152	-1.482057	-1.290086	0.583067	-2.867866	-12.870654	-1.617560	3.631880	-1.175020	0.840025	-0.253112	0.463012	-1.000000	-1.000000	-1.000000	-1.000000	-1.000000	-1.000000	-1.000000	81.310345	0.000000	-1.000000	-1.000000	781030.000000	1774905496.656265
18746.955000	-17089.380000	11920.005000	22880.205000	10509.075000	-42515.595000	-35356.995000	-20328.570000	-13.859424	-8.554994	-11.338536	-7.488594	-6.228427	-1.654844	-3.562955	-16.114112	-3.021480	3.265640	-0.213640	0.843260	-0.252380	0.463012	-1.000000	-1.000000	-1.000000	-1.000000	-1.000000	-1.000000	-1.000000	81.310345	0.000000	-1.000000	-1.000000	781031.000000	1774905496.664415
18845.685000	-16979.355000	12056.130000	22993.875000	10608.435000	-42419.745000	-35295.615000	-20221.245000	-9.005977	-10.581817	-18.232553	-11.506783	-8.550878	-3.198098	-4.194680	-11.260529	-3.021480	3.265640	-0.213640	0.843260	-0.252380	0.463012	-1.000000	-1.000000	-1.000000	-1.000000	-1.000000	-1.000000	-1.000000	81.310345	0.000000	-1.000000	-1.000000	781032.000000	1774905496.664426
18915.660000	-16920.450000	12154.185000	23057.730000	10663.335000	-42364.890000	-35262.675000	-20193.255000	3.571940	1.323715	-9.134439	-3.389335	-1.498281	2.505663	0.119271	3.988330	-3.021480	3.265640	-0.213640	0.843260	-0.252380	0.463012	-1.000000	-1.000000	-1.000000	-1.000000	-1.000000	-1.000000	-1.000000	81.310345	0.000000	-1.000000	-1.000000	781033.000000	1774905496.664439
18900.045000	-16954.245000	12114.585000	23015.520000	10620.945000	-42406.245000	-35298.225000	-20253.555000	19.447532	21.583926	16.258600	15.401179	12.910318	14.410527	8.918509	21.596166	-3.021480	3.265640	-0.213640	0.843260	-0.252380	0.463012	-1.000000	-1.000000	-1.000000	-1.000000	-1.000000	-1.000000	-1.000000	81.310345	0.000000	-1.000000	-1.000000	781034.000000	1774905496.664445
18765.810000	-17075.295000	11987.010000	22896.135000	10503.405000	-42524.010000	-35371.170000	-20358.000000	25.684923	30.943069	36.565950	27.496869	20.537690	19.633278	13.264907	25.323418	-3.021480	3.265640	-0.213640	0.843260	-0.252380	0.463012	-1.000000	-1.000000	-1.000000	-1.000000	-1.000000	-1.000000	-1.000000	81.310345	0.000000	-1.000000	-1.000000	781035.000000	1774905496.676429
18682.785000	-17162.055000	11900.790000	22813.245000	10429.155000	-42595.335000	-35404.740000	-20409.975000	10.895665	14.464395	28.692026	15.985335	8.244987	5.889763	4.914252	6.427040	-3.021480	3.265640	-0.213640	0.843260	-0.252380	0.463012	-1.000000	-1.000000	-1.000000	-1.000000	-1.000000	-1.000000	-1.000000	81.310345	0.000000	-1.000000	-1.000000	781036.000000	1774905496.676444
18692.370000	-17159.445000	11898.270000	22821.255000	10442.340000	-42578.370000	-35385.570000	-20393.190000	-19.456459	-21.062439	-6.267940	-15.450750	-19.365318	-21.829898	-12.462228	-24.666564	-3.021480	3.265640	-0.213640	0.843260	-0.252380	0.463012	-1.000000	-1.000000	-1.000000	-1.000000	-1.000000	-1.000000	-1.000000	81.310345	0.000000	-1.000000	-1.000000	781037.000000	1774905496.676459
18717.480000	-17124.615000	11921.760000	22838.760000	10456.380000	-42561.990000	-35385.570000	-20379.465000	-43.789806	-49.827884	-41.856764	-42.764080	-40.867039	-42.234715	-24.873826	-45.081960	-3.021480	3.265640	-0.213640	0.843260	-0.252380	0.463012	-1.000000	-1.000000	-1.000000	-1.000000	-1.000000	-1.000000	-1.000000	81.310345	0.000000	-1.000000	-1.000000	781038.000000	1774905496.676464
18734.760000	-17115.525000	11937.105000	22858.245000	10476.270000	-42540.615000	-35378.460000	-20370.870000	-42.806599	-48.923992	-50.105925	-43.081584	-37.214146	-37.104782	-21.219779	-38.695885	-3.021480	3.265640	-0.213640	0.843260	-0.252380	0.463012	-1.000000	-1.000000	-1.000000	-1.000000	-1.000000	-1.000000	-1.000000	81.310345	0.000000	-1.000000	-1.000000	781039.000000	1774905496.676471
18734.040000	-17114.355000	11944.530000	22881.285000	10498.815000	-42519.240000	-35366.445000	-20367.990000	-15.604777	-17.954457	-25.447058	-14.729930	-8.472264	-7.517242	-2.955017	-9.105136	-3.021480	3.265640	-0.213640	0.843260	-0.252380	0.463012	-1.000000	-1.000000	-1.000000	-1.000000	-1.000000	-1.000000	-1.000000	81.310345	0.000000	-1.000000	-1.000000	781040.000000	1774905496.676476
18750.375000	-17102.925000	11913.795000	22870.080000	10505.970000	-42509.070000	-35355.195000	-20353.815000	19.937248	21.727957	11.754025	22.175796	26.584459	27.456752	17.897280	24.248273	-4.547480	3.601360	-0.747740	0.844602	-0.253112	0.463866	-1.000000	-1.000000	-1.000000	-1.000000	-1.000000	-1.000000	-1.000000	81.310345	0.000000	-1.000000	-1.000000	781041.000000	1774905496.681217
18766.125000	-17089.695000	11899.530000	22858.335000	10510.335000	-42498.180000	-35351.640000	-20345.805000	41.974117	45.975181	34.376562	43.295409	46.199407	46.584776	28.785820	42.616689	-4.547480	3.601360	-0.747740	0.844602	-0.253112	0.463866	-1.000000	-1.000000	-1.000000	-1.000000	-1.000000	-1.000000	-1.000000	81.310345	0.000000	-1.000000	-1.000000	781042.000000	1774905496.681229
18770.130000	-17073.540000	11928.375000	22886.370000	10515.150000	-42516.225000	-35353.485000	-20340.720000	42.318147	46.673174	33.472058	40.557159	43.056448	42.834966	26.104624	41.778549	-4.547480	3.601360	-0.747740	0.844602	-0.253112	0.463866	-1.000000	-1.000000	-1.000000	-1.000000	-1.000000	-1.000000	-1.000000	81.310345	0.000000	-1.000000	-1.000000	781043.000000	1774905496.688445
18758.295000	-17071.470000	11984.445000	22914.630000	10519.605000	-42521.265000	-35358.435000	-20349.540000	29.281444	32.980766	22.612175	25.488462	26.459786	24.921788	15.375477	29.784901	-4.547480	3.601360	-0.747740	0.844602	-0.253112	0.463866	-1.000000	-1.000000	-1.000000	-1.000000	-1.000000	-1.000000	-1.000000	81.310345	0.000000	-1.000000	-1.000000	781044.000000	1774905496.688457
18753.705000	-17076.150000	12030.705000	22920.525000	10520.685000	-42509.430000	-35356.680000	-20349.270000	14.751908	17.249494	18.252297	12.749188	9.161315	5.722545	3.583551	14.974668	-4.547480	3.601360	-0.747740	0.844602	-0.253112	0.463866	-1.000000	-1.000000	-1.000000	-1.000000	-1.000000	-1.000000	-1.000000	81.310345	0.000000	-1.000000	-1.000000	781045.000000	1774905496.688468
18754.920000	-17079.795000	12010.095000	22915.125000	10519.920000	-42507.990000	-35352.180000	-20344.365000	2.677540	3.580522	21.124495	5.268671	-3.943975	-8.065882	-6.051752	0.118772	-4.547480	3.601360	-0.747740	0.844602	-0.253112	0.463866	-1.000000	-1.000000	-1.000000	-1.000000	-1.000000	-1.000000	-1.000000	81.310345	0.000000	-1.000000	-1.000000	781046.000000	1774905496.688473
18765.765000	-17077.185000	11988.675000	22901.310000	10515.510000	-42510.420000	-35349.750000	-20339.640000	-8.856613	-9.928763	18.739739	-2.845093	-14.292313	-16.584915	-12.634704	-13.934780	-4.547480	3.601360	-0.747740	0.844602	-0.253112	0.463866	-1.000000	-1.000000	-1.000000	-1.000000	-1.000000	-1.000000	-1.000000	81.310345	0.000000	-1.000000	-1.000000	781047.000000	1774905496.695774
18763.470000	-17085.375000	11952.720000	22882.275000	10511.640000	-42509.925000	-35349.615000	-20342.610000	-19.641810	-22.972047	2.058279	-15.264245	-22.776403	-21.543775	-15.395826	-24.444864	-4.547480	3.601360	-0.747740	0.844602	-0.253112	0.463866	-1.000000	-1.000000	-1.000000	-1.000000	-1.000000	-1.000000	-1.000000	81.310345	0.000000	-1.000000	-1.000000	781048.000000	1774905496.695787
18759.825000	-17088.120000	11939.085000	22875.570000	10510.515000	-42510.465000	-35350.380000	-20336.220000	-26.483126	-31.679323	-24.748964	-29.249089	-28.041683	-23.470620	-14.590890	-28.519761	-4.547480	3.601360	-0.747740	0.844602	-0.253112	0.463866	-1.000000	-1.000000	-1.000000	-1.000000	-1.000000	-1.000000	-1.000000	81.310345	0.000000	-1.000000	-1.000000	781049.000000	1774905496.695919
18760.905000	-17077.365000	11973.690000	22896.720000	10515.780000	-42507.990000	-35347.680000	-20336.445000	-27.455075	-32.759682	-47.446085	-37.642837	-28.152847	-22.156797	-11.748079	-25.678434	-4.547480	3.601360	-0.747740	0.844602	-0.253112	0.463866	-1.000000	-1.000000	-1.000000	-1.000000	-1.000000	-1.000000	-1.000000	81.310345	0.000000	-1.000000	-1.000000	781050.000000	1774905496.695929
18756.720000	-17054.460000	12022.560000	22918.860000	10528.245000	-42496.965000	-35340.480000	-20339.235000	-22.620875	-25.026940	-50.910734	-33.087693	-21.256888	-16.507687	-7.588977	-17.160981	-5.218920	3.494540	0.839300	0.842039	-0.256469	0.462218	-1.000000	-1.000000	-1.000000	-1.000000	-1.000000	-1.000000	-1.000000	81.310345	0.000000	-1.000000	-1.000000	781051.000000	1774905496.713056
18754.740000	-17040.465000	12030.435000	22925.475000	10532.745000	-42492.870000	-35333.730000	-20345.625000	-12.156478	-9.269339	-30.626569	-14.540406	-7.036409	-5.157527	-1.451486	-4.819032	-5.218920	3.494540	0.839300	0.842039	-0.256469	0.462218	-1.000000	-1.000000	-1.000000	-1.000000	-1.000000	-1.000000	-1.000000	81.310345	0.000000	-1.000000	-1.000000	781052.000000	1774905496.713073
18792.540000	-17025.120000	12009.195000	22923.720000	10534.005000	-42490.215000	-35323.740000	-20331.270000	3.364676	10.498192	1.544393	9.789159	10.766305	10.111678	6.382025	8.527168	-5.218920	3.494540	0.839300	0.842039	-0.256469	0.462218	-1.000000	-1.000000	-1.000000	-1.000000	-1.000000	-1.000000	-1.000000	81.310345	0.000000	-1.000000	-1.000000	781053.000000	1774905496.713089
18834.255000	-17044.740000	11983.095000	22926.510000	10543.680000	-42480.990000	-35320.095000	-20305.350000	20.740501	26.593731	25.994865	27.925157	24.822381	22.764608	13.008885	19.123806	-5.218920	3.494540	0.839300	0.842039	-0.256469	0.462218	-1.000000	-1.000000	-1.000000	-1.000000	-1.000000	-1.000000	-1.000000	81.310345	0.000000	-1.000000	-1.000000	781054.000000	1774905496.713094
18804.960000	-17049.465000	12000.330000	22930.560000	10549.980000	-42475.365000	-35325.630000	-20297.205000	32.593986	30.913961	31.628640	32.446774	28.885854	26.093980	14.621315	23.459784	-5.218920	3.494540	0.839300	0.842039	-0.256469	0.462218	-1.000000	-1.000000	-1.000000	-1.000000	-1.000000	-1.000000	-1.000000	81.310345	0.000000	-1.000000	-1.000000	781055.000000	1774905496.713100
18773.460000	-17068.185000	12017.970000	22919.895000	10535.175000	-42490.395000	-35348.940000	-20313.855000	30.429393	21.002152	22.780100	23.963079	21.767056	18.554428	9.573049	19.617734	-5.218920	3.494540	0.839300	0.842039	-0.256469	0.462218	-1.000000	-1.000000	-1.000000	-1.000000	-1.000000	-1.000000	-1.000000	81.310345	0.000000	-1.000000	-1.000000	781056.000000	1774905496.713106
18769.770000	-17075.205000	12016.035000	22919.940000	10532.160000	-42497.415000	-35365.815000	-20333.340000	12.802870	2.535007	10.743103	8.520940	7.075422	3.862762	-0.454929	8.240672	-5.218920	3.494540	0.839300	0.842039	-0.256469	0.462218	-1.000000	-1.000000	-1.000000	-1.000000	-1.000000	-1.000000	-1.000000	81.310345	0.000000	-1.000000	-1.000000	781057.000000	1774905496.713112
18808.695000	-17024.085000	12040.065000	22948.965000	10562.985000	-42465.015000	-35334.315000	-20302.245000	-10.606092	-14.196358	2.506433	-6.387430	-8.520879	-11.114250	-10.613937	-6.379806	-5.218920	3.494540	0.839300	0.842039	-0.256469	0.462218	-1.000000	-1.000000	-1.000000	-1.000000	-1.000000	-1.000000	-1.000000	81.310345	0.000000	-1.000000	-1.000000	781058.000000	1774905496.713117
18836.640000	-17005.230000	12050.055000	22961.655000	10579.680000	-42445.170000	-35310.555000	-20282.850000	-25.651174	-20.340676	-1.695587	-14.806385	-17.663230	-18.867291	-14.537190	-16.690657	-5.218920	3.494540	0.839300	0.842039	-0.256469	0.462218	-1.000000	-1.000000	-1.000000	-1.000000	-1.000000	-1.000000	-1.000000	81.310345	0.000000	-1.000000	-1.000000	781059.000000	1774905496.733006
18787.140000	-17062.155000	12001.410000	22914.045000	10533.465000	-42492.015000	-35341.110000	-20321.775000	-25.207930	-15.221706	-5.375547	-15.734823	-17.446450	-16.551106	-9.716766	-17.395097	-5.218920	3.494540	0.839300	0.842039	-0.256469	0.462218	-1.000000	-1.000000	-1.000000	-1.000000	-1.000000	-1.000000	-1.000000	81.310345	0.000000	-1.000000	-1.000000	781060.000000	1774905496.733020
18728.370000	-17120.610000	11949.210000	22862.970000	10482.750000	-42544.035000	-35373.195000	-20358.675000	-14.572815	-7.159772	-11.852048	-13.598987	-12.163371	-9.099806	-1.076043	-10.942905	-3.143560	4.242280	-1.037680	0.841612	-0.258300	0.460021	-1.000000	-1.000000	-1.000000	-1.000000	-1.000000	-1.000000	-1.000000	81.310345	0.000000	-1.000000	-1.000000	781061.000000	1774905496.733035
18683.820000	-17151.570000	11913.660000	22829.130000	10451.160000	-42575.985000	-35388.810000	-20383.515000	-5.319454	-4.195933	-19.897374	-12.742812	-8.151806	-4.013548	3.994454	-4.479011	-3.143560	4.242280	-1.037680	0.841612	-0.258300	0.460021	-1.000000	-1.000000	-1.000000	-1.000000	-1.000000	-1.000000	-1.000000	81.310345	0.000000	-1.000000	-1.000000	781062.000000	1774905496.733041
18707.850000	-17113.680000	11931.885000	22850.730000	10477.080000	-42549.705000	-35371.845000	-20382.840000	-3.352144	-5.264993	-23.126911	-12.192295	-6.736404	-3.367408	3.335336	-2.345970	-3.143560	4.242280	-1.037680	0.841612	-0.258300	0.460021	-1.000000	-1.000000	-1.000000	-1.000000	-1.000000	-1.000000	-1.000000	81.310345	0.000000	-1.000000	-1.000000	781063.000000	1774905496.733047
18725.985000	-17093.070000	11951.370000	22876.560000	10507.455000	-42516.405000	-35358.255000	-20371.725000	-3.460552	-2.756666	-15.578623	-6.978331	-3.525958	-2.294769	1.163327	-2.665011	-3.143560	4.242280	-1.037680	0.841612	-0.258300	0.460021	-1.000000	-1.000000	-1.000000	-1.000000	-1.000000	-1.000000	-1.000000	81.310345	0.000000	-1.000000	-1.000000	781064.000000	1774905496.733052
18762.480000	-17061.840000	11983.905000	22908.735000	10535.265000	-42491.115000	-35345.655000	-20361.645000	3.007113	7.562762	2.094844	5.630940	5.522631	4.506723	2.498656	-0.308840	-3.143560	4.242280	-1.037680	0.841612	-0.258300	0.460021	-1.000000	-1.000000	-1.000000	-1.000000	-1.000000	-1.000000	-1.000000	81.310345	0.000000	-1.000000	-1.000000	781065.000000	1774905496.733059
18784.395000	-17020.890000	12017.205000	22935.645000	10554.885000	-42474.960000	-35333.370000	-20339.550000	16.682924	21.512165	22.468900	21.569879	18.060839	15.657126	7.631792	6.950076	-3.143560	4.242280	-1.037680	0.841612	-0.258300	0.460021	-1.000000	-1.000000	-1.000000	-1.000000	-1.000000	-1.000000	-1.000000	81.172414	0.000000	-1.000000	-1.000000	781066.000000	1774905496.733064
18783.225000	-16983.450000	12062.520000	22969.305000	10580.535000	-42453.045000	-35317.080000	-20301.030000	28.364842	30.075245	36.042646	32.072119	26.372195	23.601927	11.954497	15.820770	-3.143560	4.242280	-1.037680	0.841612	-0.258300	0.460021	-1.000000	-1.000000	-1.000000	-1.000000	-1.000000	-1.000000	-1.000000	81.172414	0.000000	-1.000000	-1.000000	781067.000000	1774905496.733070
18788.355000	-17015.085000	12049.380000	22954.545000	10571.310000	-42458.310000	-35317.395000	-20276.415000	28.245899	26.325584	36.212466	30.360845	24.304632	21.940224	10.846299	21.214118	-3.143560	4.242280	-1.037680	0.841612	-0.258300	0.460021	-1.000000	-1.000000	-1.000000	-1.000000	-1.000000	-1.000000	-1.000000	81.172414	0.000000	-1.000000	-1.000000	781068.000000	1774905496.733075
18837.675000	-17029.305000	12023.055000	22930.335000	10553.040000	-42469.425000	-35326.215000	-20267.550000	16.812815	10.776664	22.564386	16.546900	12.498377	11.330052	4.344789	20.863240	-3.143560	4.242280	-1.037680	0.841612	-0.258300	0.460021	-1.000000	-1.000000	-1.000000	-1.000000	-1.000000	-1.000000	-1.000000	81.172414	0.000000	-1.000000	-1.000000	781069.000000	1774905496.744968
18834.570000	-17041.455000	12010.410000	22919.220000	10540.080000	-42484.320000	-35327.565000	-20272.185000	3.644084	-8.508569	1.405140	-2.641349	-2.714533	-1.959928	-3.468593	15.217535	-3.143560	4.242280	-1.037680	0.841612	-0.258300	0.460021	-1.000000	-1.000000	-1.000000	-1.000000	-1.000000	-1.000000	-1.000000	81.172414	0.000000	-1.000000	-1.000000	781070.000000	1774905496.744981
18789.885000	-17082.315000	11984.895000	22896.405000	10515.555000	-42505.065000	-35328.375000	-20307.240000	-5.438041	-22.742460	-18.032599	-18.809176	-14.939966	-12.391304	-8.762066	4.691822	-3.860780	4.639040	-1.831200	0.843748	-0.256408	0.456664	-1.000000	-1.000000	-1.000000	-1.000000	-1.000000	-1.000000	-1.000000	81.172414	0.000000	-1.000000	-1.000000	781071.000000	1774905496.744994
18740.880000	-17124.390000	11931.210000	22856.580000	10483.200000	-42534.405000	-35364.780000	-20386.665000	-13.656204	-29.452784	-30.178046	-27.840562	-22.246574	-19.051368	-11.080062	-10.931595	-3.860780	4.639040	-1.831200	0.843748	-0.256408	0.456664	-1.000000	-1.000000	-1.000000	-1.000000	-1.000000	-1.000000	-1.000000	81.172414	0.000000	-1.000000	-1.000000	781072.000000	1774905496.745000
18731.835000	-17120.880000	11901.780000	22845.600000	10474.245000	-42538.815000	-35390.070000	-20397.555000	-24.284538	-30.255683	-35.023329	-30.275818	-25.606231	-23.131095	-12.490595	-29.058044	-3.860780	4.639040	-1.831200	0.843748	-0.256408	0.456664	-1.000000	-1.000000	-1.000000	-1.000000	-1.000000	-1.000000	-1.000000	81.172414	0.000000	-1.000000	-1.000000	781073.000000	1774905496.745006
18704.070000	-17132.895000	11899.620000	22819.860000	10449.405000	-42562.215000	-35408.520000	-20413.710000	-33.620369	-25.290496	-33.349758	-27.220054	-24.862938	-23.872237	-13.832209	-41.478442	-3.860780	4.639040	-1.831200	0.843748	-0.256408	0.456664	-1.000000	-1.000000	-1.000000	-1.000000	-1.000000	-1.000000	-1.000000	81.172414	0.000000	-1.000000	-1.000000	781074.000000	1774905496.745011
18719.775000	-17103.195000	11962.710000	22852.305000	10485.180000	-42518.475000	-35381.745000	-20406.555000	-34.744680	-14.416952	-23.653003	-18.806105	-18.521203	-18.839626	-12.987573	-39.770311	-3.860780	4.639040	-1.831200	0.843748	-0.256408	0.456664	-1.000000	-1.000000	-1.000000	-1.000000	-1.000000	-1.000000	-1.000000	81.172414	0.000000	-1.000000	-1.000000	781075.000000	1774905496.758522
18745.335000	-17093.880000	11989.170000	22890.465000	10512.405000	-42503.490000	-35366.040000	-20382.165000	-23.261442	0.470115	-5.109049	-4.865656	-5.645313	-6.661915	-7.106140	-22.855550	-3.860780	4.639040	-1.831200	0.843748	-0.256408	0.456664	-1.000000	-1.000000	-1.000000	-1.000000	-1.000000	-1.000000	-1.000000	81.172414	0.000000	-1.000000	-1.000000	781076.000000	1774905496.758541
18751.185000	-17097.210000	11980.485000	22888.755000	10502.460000	-42551.235000	-35367.795000	-20362.140000	-0.817973	16.481691	18.082619	13.399314	11.906235	9.766874	3.903956	3.079590	-3.860780	4.639040	-1.831200	0.843748	-0.256408	0.456664	-1.000000	-1.000000	-1.000000	-1.000000	-1.000000	-1.000000	-1.000000	81.172414	0.000000	-1.000000	-1.000000	781077.000000	1774905496.758554
18749.745000	-17089.605000	11977.740000	22884.705000	10504.215000	-42534.630000	-35366.355000	-20352.465000	23.549168	29.920849	37.094770	30.854298	28.209232	23.482944	16.070425	28.568670	-3.860780	4.639040	-1.831200	0.843748	-0.256408	0.456664	-1.000000	-1.000000	-1.000000	-1.000000	-1.000000	-1.000000	-1.000000	81.172414	0.000000	-1.000000	-1.000000	781078.000000	1774905496.758560
18755.910000	-17078.895000	11986.110000	22893.390000	10517.445000	-42513.615000	-35350.515000	-20341.665000	38.860930	36.523473	43.918331	39.897873	36.378424	29.512479	23.806072	44.438479	-3.860780	4.639040	-1.831200	0.843748	-0.256408	0.456664	-1.000000	-1.000000	-1.000000	-1.000000	-1.000000	-1.000000	-1.000000	81.172414	0.000000	-1.000000	-1.000000	781079.000000	1774905496.758566
18758.790000	-17080.290000	11981.520000	22889.385000	10513.980000	-42513.975000	-35346.420000	-20345.355000	40.275017	33.620395	36.307749	35.917738	33.016232	27.569081	23.688072	45.794091	-3.860780	4.639040	-1.831200	0.843748	-0.256408	0.456664	-1.000000	-1.000000	-1.000000	-1.000000	-1.000000	-1.000000	-1.000000	81.172414	0.000000	-1.000000	-1.000000	781080.000000	1774905496.758571
18754.785000	-17084.295000	11972.430000	22879.080000	10504.980000	-42523.155000	-35352.945000	-20348.685000	30.035108	21.506534	18.251007	20.257159	19.291050	18.831697	16.207946	33.966759	-3.815000	4.898460	-2.731540	0.841306	-0.256896	0.455321	-1.000000	-1.000000	-1.000000	-1.000000	-1.000000	-1.000000	-1.000000	81.172414	0.000000	-1.000000	-1.000000	781081.000000	1774905496.759619
18751.905000	-17081.055000	11974.410000	22882.095000	10509.030000	-42518.520000	-35353.575000	-20347.110000	13.107640	3.289763	-3.019893	-0.970760	0.098919	5.177941	4.809676	14.242547	-3.815000	4.898460	-2.731540	0.841306	-0.256896	0.455321	-1.000000	-1.000000	-1.000000	-1.000000	-1.000000	-1.000000	-1.000000	81.172414	0.000000	-1.000000	-1.000000	781082.000000	1774905496.759630
18754.650000	-17072.325000	11981.070000	22887.585000	10508.670000	-42521.220000	-35347.545000	-20340.495000	-5.247817	-15.692593	-20.912061	-19.853115	-17.613492	-9.529345	-6.439617	-7.134012	-3.815000	4.898460	-2.731540	0.841306	-0.256896	0.455321	-1.000000	-1.000000	-1.000000	-1.000000	-1.000000	-1.000000	-1.000000	81.172414	0.000000	-1.000000	-1.000000	781083.000000	1774905496.764994
18763.605000	-17050.185000	12000.645000	22902.435000	10517.355000	-42505.920000	-35336.655000	-20325.645000	-20.024226	-29.416802	-31.833190	-30.561725	-28.383407	-20.951540	-14.798811	-24.356603	-3.815000	4.898460	-2.731540	0.841306	-0.256896	0.455321	-1.000000	-1.000000	-1.000000	-1.000000	-1.000000	-1.000000	-1.000000	81.172414	0.000000	-1.000000	-1.000000	781084.000000	1774905496.765018
18800.640000	-17036.145000	12030.255000	22940.820000	10554.030000	-42466.995000	-35312.580000	-20290.455000	-27.159914	-32.978784	-33.677059	-30.864151	-29.630961	-25.073279	-18.566523	-32.929061	-3.815000	4.898460	-2.731540	0.841306	-0.256896	0.455321	-1.000000	-1.000000	-1.000000	-1.000000	-1.000000	-1.000000	-1.000000	81.172414	0.000000	-1.000000	-1.000000	781085.000000	1774905496.767632
18816.660000	-17030.430000	12032.640000	22945.635000	10567.395000	-42457.365000	-35313.480000	-20296.755000	-24.471169	-24.728908	-24.670021	-20.887648	-20.492591	-18.549885	-16.355783	-30.937069	-3.815000	4.898460	-2.731540	0.841306	-0.256896	0.455321	-1.000000	-1.000000	-1.000000	-1.000000	-1.000000	-1.000000	-1.000000	81.172414	0.000000	-1.000000	-1.000000	781086.000000	1774905496.767643
18830.610000	-17031.510000	12019.725000	22936.365000	10563.300000	-42467.895000	-35329.365000	-20322.315000	-13.469508	-8.659833	-7.358512	-4.461155	-4.056521	-3.876591	-9.287333	-20.967709	-3.815000	4.898460	-2.731540	0.841306	-0.256896	0.455321	-1.000000	-1.000000	-1.000000	-1.000000	-1.000000	-1.000000	-1.000000	81.172414	0.000000	-1.000000	-1.000000	781087.000000	1774905496.779518
18787.230000	-17058.690000	11994.030000	22908.285000	10531.620000	-42506.820000	-35354.115000	-20362.905000	-0.181407	6.839765	9.722607	10.165439	11.088433	8.973519	-2.070007	-9.271704	-3.815000	4.898460	-2.731540	0.841306	-0.256896	0.455321	-1.000000	-1.000000	-1.000000	-1.000000	-1.000000	-1.000000	-1.000000	81.172414	0.000000	-1.000000	-1.000000	781088.000000	1774905496.779530
18710.910000	-17098.785000	11958.480000	22876.785000	10504.755000	-42528.645000	-35369.820000	-20393.415000	7.129015	14.087027	17.974696	15.486204	16.470290	11.219317	1.125904	-0.935474	-3.815000	4.898460	-2.731540	0.841306	-0.256896	0.455321	-1.000000	-1.000000	-1.000000	-1.000000	-1.000000	-1.000000	-1.000000	81.172414	0.000000	-1.000000	-1.000000	781089.000000	1774905496.779544
18729.855000	-17095.500000	11965.455000	22876.650000	10505.250000	-42526.710000	-35366.760000	-20359.935000	4.368240	11.030145	15.327686	10.573790	10.780920	3.419355	0.822514	3.879177	-3.815000	4.898460	-2.731540	0.841306	-0.256896	0.455321	-1.000000	-1.000000	-1.000000	-1.000000	-1.000000	-1.000000	-1.000000	81.172414	0.000000	-1.000000	-1.000000	781090.000000	1774905496.779549
18761.130000	-17092.215000	11968.470000	22871.790000	10496.610000	-42533.415000	-35369.190000	-20346.210000	-2.865849	2.452585	6.707099	1.085232	0.138226	-6.422399	0.629537	8.481158	-2.075360	5.554640	-2.258480	0.839781	-0.259277	0.455138	-1.000000	-1.000000	-1.000000	-1.000000	-1.000000	-1.000000	-1.000000	81.172414	0.000000	-1.000000	-1.000000	781091.000000	1774905496.781014
18793.845000	-17054.955000	12005.235000	22905.810000	10528.065000	-42503.805000	-35361.405000	-20339.955000	-4.747174	-4.215145	-1.089160	-5.801558	-7.609246	-10.600403	2.517382	14.142065	-2.075360	5.554640	-2.258480	0.839781	-0.259277	0.455138	-1.000000	-1.000000	-1.000000	-1.000000	-1.000000	-1.000000	-1.000000	81.172414	0.000000	-1.000000	-1.000000	781092.000000	1774905496.781032
18782.910000	-17053.740000	12007.755000	22916.430000	10542.060000	-42487.740000	-35338.230000	-20334.240000	1.492589	-4.617766	-4.309117	-6.338123	-8.130360	-6.715522	5.515635	17.554505	-2.075360	5.554640	-2.258480	0.839781	-0.259277	0.455138	-1.000000	-1.000000	-1.000000	-1.000000	-1.000000	-1.000000	-1.000000	81.172414	0.000000	-1.000000	-1.000000	781093.000000	1774905496.783738
18743.805000	-17081.955000	11973.105000	22891.905000	10521.270000	-42506.955000	-35335.530000	-20347.020000	8.888154	-0.126450	-3.773471	-2.188561	-2.880595	1.878852	7.866298	14.668469	-2.075360	5.554640	-2.258480	0.839781	-0.259277	0.455138	-1.000000	-1.000000	-1.000000	-1.000000	-1.000000	-1.000000	-1.000000	81.172414	0.000000	-1.000000	-1.000000	781094.000000	1774905496.783748
18722.520000	-17103.600000	11923.920000	22859.955000	10493.235000	-42533.595000	-35342.460000	-20360.520000	8.953945	4.088404	-3.128239	1.709447	2.533392	8.744876	8.320424	5.575853	-2.075360	5.554640	-2.258480	0.839781	-0.259277	0.455138	-1.000000	-1.000000	-1.000000	-1.000000	-1.000000	-1.000000	-1.000000	81.172414	0.000000	-1.000000	-1.000000	781095.000000	1774905496.787740
18774.810000	-17049.015000	11965.410000	22896.495000	10531.530000	-42494.265000	-35320.005000	-20316.555000	1.893847	5.286805	-3.681631	2.941510	4.583039	10.248389	6.820854	-3.997751	-2.075360	5.554640	-2.258480	0.839781	-0.259277	0.455138	-1.000000	-1.000000	-1.000000	-1.000000	-1.000000	-1.000000	-1.000000	81.172414	0.000000	-1.000000	-1.000000	781096.000000	1774905496.787751
18827.865000	-17005.545000	12038.085000	22940.235000	10569.780000	-42458.310000	-35305.065000	-20276.145000	-2.285543	6.825855	-0.851031	4.733828	5.952083	9.421223	5.026429	-6.033742	-2.075360	5.554640	-2.258480	0.839781	-0.259277	0.455138	-1.000000	-1.000000	-1.000000	-1.000000	-1.000000	-1.000000	-1.000000	81.172414	0.000000	-1.000000	-1.000000	781097.000000	1774905496.791817
18843.975000	-17009.415000	12074.715000	22961.835000	10582.740000	-42448.230000	-35304.705000	-20260.215000	4.655993	11.916447	9.923625	10.683973	10.345911	10.623855	4.231293	1.808587	-2.075360	5.554640	-2.258480	0.839781	-0.259277	0.455138	-1.000000	-1.000000	-1.000000	-1.000000	-1.000000	-1.000000	-1.000000	81.172414	0.000000	-1.000000	-1.000000	781098.000000	1774905496.791824
18811.485000	-17049.645000	12033.270000	22931.370000	10554.705000	-42473.925000	-35319.015000	-20290.365000	17.113385	15.884927	23.167065	17.363181	15.012968	12.037832	2.974350	11.325157	-2.075360	5.554640	-2.258480	0.839781	-0.259277	0.455138	-1.000000	-1.000000	-1.000000	-1.000000	-1.000000	-1.000000	-1.000000	81.172414	0.000000	-1.000000	-1.000000	781099.000000	1774905496.795667
18756.900000	-17081.865000	11987.100000	22889.070000	10514.610000	-42511.950000	-35350.200000	-20328.615000	19.609434	10.103577	25.060499	15.844385	12.474001	7.476152	-1.543528	10.603675	-2.075360	5.554640	-2.258480	0.839781	-0.259277	0.455138	-1.000000	-1.000000	-1.000000	-1.000000	-1.000000	-1.000000	-1.000000	81.172414	0.000000	-1.000000	-1.000000	781100.000000	1774905496.795676
18737.640000	-17076.915000	11985.030000	22886.775000	10509.615000	-42519.330000	-35366.715000	-20359.980000	3.733310	-6.986778	8.022589	1.470966	-0.800426	-5.703674	-10.015177	-3.959760	-0.900340	5.005280	-2.456860	0.840635	-0.259216	0.455565	-1.000000	-1.000000	-1.000000	-1.000000	-1.000000	-1.000000	-1.000000	81.172414	0.000000	-1.000000	-1.000000	781101.000000	1774905496.799514
18723.150000	-17096.130000	11965.185000	22867.470000	10489.545000	-42540.075000	-35378.055000	-20390.040000	-21.904258	-25.984255	-19.442164	-19.464224	-19.127276	-22.138421	-19.233449	-24.295928	-0.900340	5.005280	-2.456860	0.840635	-0.259216	0.455565	-1.000000	-1.000000	-1.000000	-1.000000	-1.000000	-1.000000	-1.000000	81.172414	0.000000	-1.000000	-1.000000	781102.000000	1774905496.799524
18707.985000	-17100.180000	11965.680000	22868.235000	10488.645000	-42542.595000	-35366.985000	-20384.775000	-39.321583	-34.062604	-39.126577	-33.637402	-31.044040	-31.515481	-23.175748	-36.981382	-0.900340	5.005280	-2.456860	0.840635	-0.259216	0.455565	-1.000000	-1.000000	-1.000000	-1.000000	-1.000000	-1.000000	-1.000000	81.172414	0.000000	-1.000000	-1.000000	781103.000000	1774905496.806297
18701.595000	-17097.795000	11939.670000	22857.345000	10488.780000	-42541.155000	-35369.235000	-20393.730000	-36.991115	-25.574861	-38.294022	-31.377471	-28.175487	-26.600194	-17.197698	-32.527779	-0.900340	5.005280	-2.456860	0.840635	-0.259216	0.455565	-1.000000	-1.000000	-1.000000	-1.000000	-1.000000	-1.000000	-1.000000	81.172414	0.000000	-1.000000	-1.000000	781104.000000	1774905496.806321
18756.360000	-17096.490000	11887.830000	22825.485000	10479.960000	-42542.730000	-35374.005000	-20375.595000	-17.065051	-6.102471	-20.212822	-14.904306	-12.147311	-9.496888	-2.912491	-12.321300	-0.900340	5.005280	-2.456860	0.840635	-0.259216	0.455565	-1.000000	-1.000000	-1.000000	-1.000000	-1.000000	-1.000000	-1.000000	81.172414	0.000000	-1.000000	-1.000000	781105.000000	1774905496.808985
18767.160000	-17119.305000	11879.055000	22819.950000	10479.105000	-42536.655000	-35370.000000	-20364.705000	9.730814	12.620908	0.221980	4.205981	7.055032	10.109068	12.447273	12.995947	-0.900340	5.005280	-2.456860	0.840635	-0.259216	0.455565	-1.000000	-1.000000	-1.000000	-1.000000	-1.000000	-1.000000	-1.000000	81.172414	0.000000	-1.000000	-1.000000	781106.000000	1774905496.808998
18748.980000	-17101.395000	11926.800000	22852.755000	10489.590000	-42531.570000	-35364.015000	-20366.190000	31.022018	22.309460	12.726571	16.727298	20.065586	23.090551	22.090224	31.600731	-0.900340	5.005280	-2.456860	0.840635	-0.259216	0.455565	-1.000000	-1.000000	-1.000000	-1.000000	-1.000000	-1.000000	-1.000000	81.172414	0.000000	-1.000000	-1.000000	781107.000000	1774905496.813011
18730.035000	-17089.740000	11959.470000	22868.280000	10502.055000	-42522.930000	-35351.865000	-20355.795000	37.816431	23.182376	19.588384	22.371780	24.462310	26.571758	23.806632	37.132651	-0.900340	5.005280	-2.456860	0.840635	-0.259216	0.455565	-1.000000	-1.000000	-1.000000	-1.000000	-1.000000	-1.000000	-1.000000	81.172414	0.000000	-1.000000	-1.000000	781108.000000	1774905496.813025
18811.530000	-17025.480000	12040.920000	22926.420000	10558.530000	-42468.120000	-35300.340000	-20284.065000	30.300024	20.291007	27.053767	24.987064	23.331623	23.339402	19.940662	31.561920	-0.900340	5.005280	-2.456860	0.840635	-0.259216	0.455565	-1.000000	-1.000000	-1.000000	-1.000000	-1.000000	-1.000000	-1.000000	81.172414	0.000000	-1.000000	-1.000000	781109.000000	1774905496.815584
18859.005000	-16987.050000	12082.230000	22982.625000	10608.525000	-42415.785000	-35273.070000	-20249.145000	17.598182	17.443689	35.234762	26.266260	20.442912	18.032948	14.480448	22.087449	-0.900340	5.005280	-2.456860	0.840635	-0.259216	0.455565	-1.000000	-1.000000	-1.000000	-1.000000	-1.000000	-1.000000	-1.000000	81.172414	0.000000	-1.000000	-1.000000	781110.000000	1774905496.815597
18825.705000	-17009.640000	12068.640000	22960.935000	10582.650000	-42444.135000	-35315.595000	-20302.560000	7.347234	14.281791	37.415527	24.162018	16.299490	12.608438	8.221007	12.423789	-1.724380	4.944240	-2.685760	0.840269	-0.254882	0.454711	-1.000000	-1.000000	-1.000000	-1.000000	-1.000000	-1.000000	-1.000000	81.172414	0.000000	-1.000000	-1.000000	781111.000000	1774905496.819486
18766.755000	-17072.595000	12003.120000	22897.080000	10511.460000	-42516.675000	-35373.465000	-20363.895000	-1.842313	6.512629	25.805990	13.994737	7.070251	3.858903	-2.258679	-0.796600	-1.724380	4.944240	-2.685760	0.840269	-0.254882	0.454711	-1.000000	-1.000000	-1.000000	-1.000000	-1.000000	-1.000000	-1.000000	81.172414	0.000000	-1.000000	-1.000000	781112.000000	1774905496.819497
18704.430000	-17141.355000	11927.205000	22824.990000	10446.705000	-42578.280000	-35407.890000	-20411.595000	-15.397626	-9.761142	-1.184341	-6.840930	-10.774328	-12.299984	-18.242269	-20.349998	-1.724380	4.944240	-2.685760	0.840269	-0.254882	0.454711	-1.000000	-1.000000	-1.000000	-1.000000	-1.000000	-1.000000	-1.000000	81.172414	0.000000	-1.000000	-1.000000	781113.000000	1774905496.823669
18698.085000	-17137.710000	11933.775000	22835.025000	10459.800000	-42560.505000	-35381.025000	-20401.290000	-33.255617	-30.838909	-34.146949	-32.182353	-32.579900	-32.207283	-33.006888	-40.412069	-1.724380	4.944240	-2.685760	0.840269	-0.254882	0.454711	-1.000000	-1.000000	-1.000000	-1.000000	-1.000000	-1.000000	-1.000000	81.172414	0.000000	-1.000000	-1.000000	781114.000000	1774905496.823681
18694.800000	-17108.640000	11959.155000	22861.665000	10487.295000	-42528.690000	-35360.730000	-20379.465000	-46.144583	-43.822783	-56.134720	-47.900249	-45.085552	-43.318719	-35.665724	-48.842706	-1.724380	4.944240	-2.685760	0.840269	-0.254882	0.454711	-1.000000	-1.000000	-1.000000	-1.000000	-1.000000	-1.000000	-1.000000	81.172414	0.000000	-1.000000	-1.000000	781115.000000	1774905496.828805
18728.595000	-17069.265000	11987.730000	22885.920000	10509.390000	-42514.605000	-35356.905000	-20367.270000	-41.814469	-36.761647	-54.722524	-43.062721	-37.470100	-35.103247	-21.732329	-37.271697	-1.724380	4.944240	-2.685760	0.840269	-0.254882	0.454711	-1.000000	-1.000000	-1.000000	-1.000000	-1.000000	-1.000000	-1.000000	81.172414	0.000000	-1.000000	-1.000000	781116.000000	1774905496.828815
18756.720000	-17064.495000	11989.980000	22887.270000	10510.965000	-42532.155000	-35359.470000	-20363.175000	-16.741695	-11.016705	-31.522029	-19.663988	-12.129787	-10.309529	1.638618	-9.545249	-1.724380	4.944240	-2.685760	0.840269	-0.254882	0.454711	-1.000000	-1.000000	-1.000000	-1.000000	-1.000000	-1.000000	-1.000000	81.172414	0.000000	-1.000000	-1.000000	781117.000000	1774905496.836231
18780.705000	-17076.780000	11978.370000	22880.430000	10509.210000	-42521.940000	-35359.110000	-20352.600000	17.743019	17.967452	-0.807964	8.457639	16.157429	16.210911	21.078980	19.749417	-1.724380	4.944240	-2.685760	0.840269	-0.254882	0.454711	-1.000000	-1.000000	-1.000000	-1.000000	-1.000000	-1.000000	-1.000000	81.172414	0.000000	-1.000000	-1.000000	781118.000000	1774905496.836241
18789.795000	-17083.530000	11975.220000	22874.715000	10502.055000	-42527.430000	-35360.415000	-20348.640000	43.188809	33.259825	21.488481	26.095945	31.834868	30.177367	27.343060	36.568148	-1.724380	4.944240	-2.685760	0.840269	-0.254882	0.454711	-1.000000	-1.000000	-1.000000	-1.000000	-1.000000	-1.000000	-1.000000	81.172414	0.000000	-1.000000	-1.000000	781119.000000	1774905496.841335
18788.580000	-17076.150000	11983.860000	22876.785000	10504.395000	-42526.080000	-35352.360000	-20342.520000	48.965131	30.488858	29.626661	28.350036	30.651710	28.889596	21.670062	37.579684	-1.724380	4.944240	-2.685760	0.840269	-0.254882	0.454711	-1.000000	-1.000000	-1.000000	-1.000000	-1.000000	-1.000000	-1.000000	81.172414	0.000000	-1.000000	-1.000000	781120.000000	1774905496.841347
18770.985000	-17065.845000	11996.910000	22885.740000	10514.385000	-42514.245000	-35343.990000	-20337.075000	37.336485	18.578686	29.066420	22.055124	20.527479	20.241304	12.517493	28.885390	-2.594200	4.654300	-2.472120	0.838316	-0.252319	0.455504	-1.000000	-1.000000	-1.000000	-1.000000	-1.000000	-1.000000	-1.000000	81.172414	0.000000	-1.000000	-1.000000	781121.000000	1774905496.841359
18783.585000	-17031.780000	12027.690000	22916.205000	10545.165000	-42481.845000	-35322.570000	-20308.365000	16.920193	8.764979	27.366280	16.514582	11.686542	13.141775	6.567191	17.567774	-2.594200	4.654300	-2.472120	0.838316	-0.252319	0.455504	-1.000000	-1.000000	-1.000000	-1.000000	-1.000000	-1.000000	-1.000000	81.172414	0.000000	-1.000000	-1.000000	781122.000000	1774905496.841364
18804.375000	-17019.405000	12041.415000	22933.125000	10560.240000	-42463.350000	-35319.690000	-20297.565000	-3.641055	5.003237	25.634149	14.357862	7.406145	9.583563	3.665795	6.496939	-2.594200	4.654300	-2.472120	0.838316	-0.252319	0.455504	-1.000000	-1.000000	-1.000000	-1.000000	-1.000000	-1.000000	-1.000000	81.172414	0.000000	-1.000000	-1.000000	781123.000000	1774905496.843461
18807.120000	-17036.730000	12020.670000	22934.250000	10559.925000	-42463.890000	-35333.730000	-20318.130000	-18.244083	2.684674	18.213574	10.765998	3.586652	5.146781	-0.487808	-5.046341	-2.594200	4.654300	-2.472120	0.838316	-0.252319	0.455504	-1.000000	-1.000000	-1.000000	-1.000000	-1.000000	-1.000000	-1.000000	81.172414	0.000000	-1.000000	-1.000000	781124.000000	1774905496.843487
18798.210000	-17046.180000	12009.825000	22922.280000	10547.460000	-42479.775000	-35341.515000	-20342.070000	-25.015001	-4.624771	0.799266	0.726576	-4.367830	-3.969866	-8.129810	-17.649961	-2.594200	4.654300	-2.472120	0.838316	-0.252319	0.455504	-1.000000	-1.000000	-1.000000	-1.000000	-1.000000	-1.000000	-1.000000	81.172414	0.000000	-1.000000	-1.000000	781125.000000	1774905496.847542
18760.005000	-17076.960000	11970.855000	22879.755000	10511.505000	-42514.965000	-35356.050000	-20361.690000	-26.513959	-17.328048	-22.563359	-14.919099	-16.260884	-16.525743	-16.803148	-29.013426	-2.594200	4.654300	-2.472120	0.838316	-0.252319	0.455504	-1.000000	-1.000000	-1.000000	-1.000000	-1.000000	-1.000000	-1.000000	81.172414	0.000000	-1.000000	-1.000000	781126.000000	1774905496.847554
18739.980000	-17093.070000	11954.790000	22856.310000	10485.540000	-42543.315000	-35361.990000	-20363.220000	-26.311956	-29.103011	-41.498078	-30.230314	-27.689575	-28.029370	-21.975558	-34.510611	-2.594200	4.654300	-2.472120	0.838316	-0.252319	0.455504	-1.000000	-1.000000	-1.000000	-1.000000	-1.000000	-1.000000	-1.000000	81.172414	0.000000	-1.000000	-1.000000	781127.000000	1774905496.854009
18753.930000	-17085.690000	11970.855000	22865.265000	10492.470000	-42536.565000	-35356.095000	-20353.545000	-23.736248	-31.845815	-45.768584	-37.153093	-32.225726	-32.787465	-20.056209	-29.572270	-2.594200	4.654300	-2.472120	0.838316	-0.252319	0.455504	-1.000000	-1.000000	-1.000000	-1.000000	-1.000000	-1.000000	-1.000000	81.172414	0.000000	-1.000000	-1.000000	781128.000000	1774905496.854020
18773.145000	-17080.605000	11978.415000	22877.820000	10510.335000	-42514.920000	-35352.405000	-20342.295000	-13.933397	-21.258108	-31.124973	-29.393431	-24.351048	-25.467128	-10.201477	-13.104924	-2.594200	4.654300	-2.472120	0.838316	-0.252319	0.455504	-1.000000	-1.000000	-1.000000	-1.000000	-1.000000	-1.000000	-1.000000	81.172414	0.000000	-1.000000	-1.000000	781129.000000	1774905496.855605
18777.555000	-17076.735000	11983.095000	22882.545000	10517.085000	-42506.505000	-35348.580000	-20338.695000	4.638991	-0.747817	-3.179590	-8.075783	-4.724493	-6.149562	4.142467	9.470288	-2.594200	4.654300	-2.472120	0.838316	-0.252319	0.455504	-1.000000	-1.000000	-1.000000	-1.000000	-1.000000	-1.000000	-1.000000	81.172414	0.000000	-1.000000	-1.000000	781130.000000	1774905496.855614
18748.935000	-17078.715000	11978.055000	22876.020000	10516.005000	-42502.365000	-35338.140000	-20360.880000	24.439739	19.641223	24.418162	16.517546	17.502108	16.386110	16.321315	27.382775	-3.036740	4.349100	-2.289000	0.838377	-0.251647	0.455992	-1.000000	-1.000000	-1.000000	-1.000000	-1.000000	-1.000000	-1.000000	81.172414	0.000000	-1.000000	-1.000000	781131.000000	1774905496.859553
18754.020000	-17053.155000	11959.560000	22879.800000	10522.710000	-42498.495000	-35334.090000	-20355.840000	33.768651	30.218807	38.082626	31.464840	30.598603	30.187204	20.915794	31.555987	-3.036740	4.349100	-2.289000	0.838377	-0.251647	0.455992	-1.000000	-1.000000	-1.000000	-1.000000	-1.000000	-1.000000	-1.000000	81.172414	0.000000	-1.000000	-1.000000	781132.000000	1774905496.859562
18775.755000	-17052.930000	11939.895000	22874.400000	10512.450000	-42516.675000	-35341.290000	-20345.895000	28.047167	28.293598	32.845400	30.623691	29.087305	29.239934	17.185844	22.303412	-3.036740	4.349100	-2.289000	0.838377	-0.251647	0.455992	-1.000000	-1.000000	-1.000000	-1.000000	-1.000000	-1.000000	-1.000000	81.172414	0.000000	-1.000000	-1.000000	781133.000000	1774905496.863655
18778.140000	-17045.820000	11988.405000	22897.980000	10526.175000	-42503.625000	-35346.915000	-20339.370000	13.208682	17.775178	15.374644	18.168054	16.632518	16.912491	8.272493	8.181208	-3.036740	4.349100	-2.289000	0.838377	-0.251647	0.455992	-1.000000	-1.000000	-1.000000	-1.000000	-1.000000	-1.000000	-1.000000	81.172414	0.000000	-1.000000	-1.000000	781134.000000	1774905496.863665
18804.195000	-17015.130000	12050.820000	22934.115000	10558.485000	-42471.540000	-35321.175000	-20292.030000	-1.098100	5.282545	-0.419075	4.503829	2.560973	2.724907	-1.098897	-2.042951	-3.036740	4.349100	-2.289000	0.838377	-0.251647	0.455992	-1.000000	-1.000000	-1.000000	-1.000000	-1.000000	-1.000000	-1.000000	81.172414	0.000000	-1.000000	-1.000000	781135.000000	1774905496.867606
18807.345000	-17039.430000	12058.380000	22941.405000	10569.600000	-42461.100000	-35307.360000	-20290.005000	-8.560305	-3.739061	-4.559824	-2.136091	-4.904815	-4.808517	-6.457742	-4.796068	-3.036740	4.349100	-2.289000	0.838377	-0.251647	0.455992	-1.000000	-1.000000	-1.000000	-1.000000	-1.000000	-1.000000	-1.000000	81.172414	0.000000	-1.000000	-1.000000	781136.000000	1774905496.867617
18792.045000	-17041.455000	12030.120000	22920.840000	10549.035000	-42483.105000	-35325.315000	-20335.320000	-9.385579	-8.576284	-0.104589	-2.269896	-5.084603	-4.925490	-6.606058	-3.355778	-3.036740	4.349100	-2.289000	0.838377	-0.251647	0.455992	-1.000000	-1.000000	-1.000000	-1.000000	-1.000000	-1.000000	-1.000000	81.172414	0.000000	-1.000000	-1.000000	781137.000000	1774905496.871505
18743.220000	-17081.280000	11966.985000	22858.920000	10485.135000	-42548.175000	-35372.205000	-20388.780000	-8.809313	-11.898732	1.392549	-3.191704	-4.667079	-4.457999	-5.145220	-4.931590	-3.036740	4.349100	-2.289000	0.838377	-0.251647	0.455992	-1.000000	-1.000000	-1.000000	-1.000000	-1.000000	-1.000000	-1.000000	81.172414	0.000000	-1.000000	-1.000000	781138.000000	1774905496.871516
18737.955000	-17079.165000	11974.185000	22855.860000	10485.090000	-42545.295000	-35378.640000	-20383.830000	-10.911315	-15.232455	-6.791965	-10.066084	-9.581898	-9.506400	-6.503026	-12.371097	-3.036740	4.349100	-2.289000	0.838377	-0.251647	0.455992	-1.000000	-1.000000	-1.000000	-1.000000	-1.000000	-1.000000	-1.000000	81.172414	0.000000	-1.000000	-1.000000	781139.000000	1774905496.878093
18781.065000	-17044.920000	12005.820000	22899.015000	10538.280000	-42487.380000	-35340.390000	-20326.995000	-13.276074	-16.594199	-19.124047	-19.021263	-16.874714	-16.972847	-9.933475	-19.110078	-3.036740	4.349100	-2.289000	0.838377	-0.251647	0.455992	-1.000000	-1.000000	-1.000000	-1.000000	-1.000000	-1.000000	-1.000000	81.172414	0.000000	-1.000000	-1.000000	781140.000000	1774905496.878105
18819.045000	-17026.605000	12047.670000	22951.350000	10588.455000	-42441.165000	-35298.945000	-20282.940000	-9.822802	-12.413544	-23.354067	-20.292517	-17.063347	-17.003561	-9.416175	-15.452417	-2.502640	4.730600	-2.136400	0.842405	-0.252807	0.455626	-1.000000	-1.000000	-1.000000	-1.000000	-1.000000	-1.000000	-1.000000	81.172414	0.000000	-1.000000	-1.000000	781141.000000	1774905496.879721
18818.730000	-17024.310000	12051.495000	22952.745000	10584.720000	-42445.620000	-35300.520000	-20295.990000	0.554677	-2.446066	-13.399275	-9.197772	-5.635907	-4.957523	-1.105648	-0.290503	-2.502640	4.730600	-2.136400	0.842405	-0.252807	0.455626	-1.000000	-1.000000	-1.000000	-1.000000	-1.000000	-1.000000	-1.000000	81.172414	0.000000	-1.000000	-1.000000	781142.000000	1774905496.879728
18788.940000	-17037.000000	12022.380000	22927.410000	10559.430000	-42468.930000	-35327.115000	-20322.540000	11.150609	8.445412	3.399598	7.388412	10.298814	11.723065	10.432024	15.825493	-2.502640	4.730600	-2.136400	0.842405	-0.252807	0.455626	-1.000000	-1.000000	-1.000000	-1.000000	-1.000000	-1.000000	-1.000000	81.172414	0.000000	-1.000000	-1.000000	781143.000000	1774905496.883770
18794.205000	-17015.445000	12017.205000	22937.490000	10567.890000	-42461.055000	-35313.210000	-20301.615000	14.085242	14.446599	13.386818	17.432473	18.837306	20.561756	16.130902	20.808283	-2.502640	4.730600	-2.136400	0.842405	-0.252807	0.455626	-1.000000	-1.000000	-1.000000	-1.000000	-1.000000	-1.000000	-1.000000	81.172414	0.000000	-1.000000	-1.000000	781144.000000	1774905496.883784
18776.565000	-17036.100000	11997.045000	22899.105000	10530.495000	-42496.155000	-35329.815000	-20320.335000	7.904628	13.772024	10.578868	15.149390	14.673730	15.930690	11.841755	12.675549	-2.502640	4.730600	-2.136400	0.842405	-0.252807	0.455626	-1.000000	-1.000000	-1.000000	-1.000000	-1.000000	-1.000000	-1.000000	81.172414	0.000000	-1.000000	-1.000000	781145.000000	1774905496.889146
18721.080000	-17115.930000	11970.765000	22849.785000	10476.495000	-42549.120000	-35368.605000	-20381.985000	-2.559747	7.516474	0.735681	3.809745	1.621696	1.866391	1.063241	-1.091671	-2.502640	4.730600	-2.136400	0.842405	-0.252807	0.455626	-1.000000	-1.000000	-1.000000	-1.000000	-1.000000	-1.000000	-1.000000	81.172414	0.000000	-1.000000	-1.000000	781146.000000	1774905496.889158
18667.170000	-17183.475000	11928.285000	22806.225000	10438.785000	-42584.760000	-35396.865000	-20415.780000	-11.673306	-3.359694	-6.849456	-9.005995	-12.202278	-13.012543	-9.642611	-12.472442	-2.502640	4.730600	-2.136400	0.842405	-0.252807	0.455626	-1.000000	-1.000000	-1.000000	-1.000000	-1.000000	-1.000000	-1.000000	81.172414	0.000000	-1.000000	-1.000000	781147.000000	1774905496.891627
18674.415000	-17149.320000	11929.725000	22816.620000	10451.655000	-42575.490000	-35396.865000	-20400.930000	-15.837350	-15.319241	-8.019656	-16.412477	-19.510805	-21.149139	-15.319644	-17.344754	-2.502640	4.730600	-2.136400	0.842405	-0.252807	0.455626	-1.000000	-1.000000	-1.000000	-1.000000	-1.000000	-1.000000	-1.000000	81.172414	0.000000	-1.000000	-1.000000	781148.000000	1774905496.891638
18734.355000	-17093.070000	11970.675000	22860.045000	10487.070000	-42540.390000	-35373.645000	-20374.740000	-12.880988	-20.354671	-3.933323	-15.070959	-17.201861	-19.439901	-14.414790	-14.894626	-2.502640	4.730600	-2.136400	0.842405	-0.252807	0.455626	-1.000000	-1.000000	-1.000000	-1.000000	-1.000000	-1.000000	-1.000000	81.172414	0.000000	-1.000000	-1.000000	781149.000000	1774905496.895578
18775.125000	-17096.895000	11963.205000	22854.105000	10489.770000	-42526.620000	-35356.725000	-20350.440000	-2.322198	-12.678975	2.860463	-6.027535	-6.913639	-9.106761	-7.889676	-6.509066	-2.502640	4.730600	-2.136400	0.842405	-0.252807	0.455626	-1.000000	-1.000000	-1.000000	-1.000000	-1.000000	-1.000000	-1.000000	81.172414	0.000000	-1.000000	-1.000000	781150.000000	1774905496.895590
18785.880000	-17073.315000	11992.545000	22882.455000	10521.405000	-42489.270000	-35338.230000	-20323.845000	12.648892	4.324308	9.536016	6.325599	6.990141	6.208493	2.315052	5.467868	-1.037680	5.005280	-1.388660	0.845823	-0.255615	0.455809	-1.000000	-1.000000	-1.000000	-1.000000	-1.000000	-1.000000	-1.000000	81.172414	0.000000	-1.000000	-1.000000	781151.000000	1774905496.900528
18779.580000	-17077.770000	11995.155000	22889.430000	10528.920000	-42492.645000	-35330.625000	-20323.080000	24.955651	20.763213	13.761001	17.105133	19.665283	21.141214	13.168177	17.322161	-1.037680	5.005280	-1.388660	0.845823	-0.255615	0.455809	-1.000000	-1.000000	-1.000000	-1.000000	-1.000000	-1.000000	-1.000000	81.172414	0.000000	-1.000000	-1.000000	781152.000000	1774905496.900538
18761.445000	-17091.720000	11981.430000	22874.715000	10506.780000	-42542.280000	-35341.110000	-20339.235000	27.087430	27.349983	14.020338	22.179696	25.971155	28.323536	19.811418	23.035632	-1.037680	5.005280	-1.388660	0.845823	-0.255615	0.455809	-1.000000	-1.000000	-1.000000	-1.000000	-1.000000	-1.000000	-1.000000	81.172414	0.000000	-1.000000	-1.000000	781153.000000	1774905496.903517
18745.245000	-17101.845000	11959.965000	22852.035000	10482.570000	-42554.880000	-35363.655000	-20370.195000	16.785868	21.182246	9.462139	19.129338	22.289557	22.665050	18.110817	18.465535	-1.037680	5.005280	-1.388660	0.845823	-0.255615	0.455809	-1.000000	-1.000000	-1.000000	-1.000000	-1.000000	-1.000000	-1.000000	81.172414	0.000000	-1.000000	-1.000000	781154.000000	1774905496.903527
18788.220000	-17065.395000	11987.370000	22884.255000	10516.815000	-42515.865000	-35354.610000	-20349.630000	0.888002	8.697228	2.264657	10.495110	11.309244	8.586892	9.298989	7.002946	-1.037680	5.005280	-1.388660	0.845823	-0.255615	0.455809	-1.000000	-1.000000	-1.000000	-1.000000	-1.000000	-1.000000	-1.000000	81.172414	0.000000	-1.000000	-1.000000	781155.000000	1774905496.907821
18828.810000	-17020.845000	12030.795000	22928.310000	10565.820000	-42464.565000	-35329.005000	-20309.445000	-9.133455	0.231324	-2.212269	2.898851	1.111255	-2.707536	-0.378767	-2.802268	-1.037680	5.005280	-1.388660	0.845823	-0.255615	0.455809	-1.000000	-1.000000	-1.000000	-1.000000	-1.000000	-1.000000	-1.000000	81.172414	0.000000	-1.000000	-1.000000	781156.000000	1774905496.907831
18814.140000	-17014.005000	12042.135000	22929.570000	10565.910000	-42464.970000	-35325.135000	-20309.805000	-9.237621	-1.467753	-1.517739	-0.624447	-3.844007	-5.735674	-6.066374	-6.410860	-1.037680	5.005280	-1.388660	0.845823	-0.255615	0.455809	-1.000000	-1.000000	-1.000000	-1.000000	-1.000000	-1.000000	-1.000000	81.172414	0.000000	-1.000000	-1.000000	781157.000000	1774905496.914267
18756.675000	-17072.730000	11988.630000	22873.545000	10508.220000	-42521.040000	-35354.565000	-20359.485000	-7.910681	-3.980702	-0.664033	-4.856838	-7.850006	-6.293618	-8.862824	-7.864954	-1.037680	5.005280	-1.388660	0.845823	-0.255615	0.455809	-1.000000	-1.000000	-1.000000	-1.000000	-1.000000	-1.000000	-1.000000	81.172414	0.000000	-1.000000	-1.000000	781158.000000	1774905496.914282
18702.090000	-17133.480000	11927.115000	22816.575000	10451.970000	-42575.895000	-35382.240000	-20393.820000	-15.109455	-14.652594	-6.909645	-15.494968	-17.103271	-12.919060	-12.649764	-13.424719	-1.037680	5.005280	-1.388660	0.845823	-0.255615	0.455809	-1.000000	-1.000000	-1.000000	-1.000000	-1.000000	-1.000000	-1.000000	81.172414	0.000000	-1.000000	-1.000000	781159.000000	1774905496.917211
18721.710000	-17112.600000	11943.945000	22835.970000	10475.190000	-42553.170000	-35367.615000	-20387.430000	-28.299547	-30.124199	-19.895313	-29.616242	-29.599491	-25.102018	-17.426417	-22.225883	-1.037680	5.005280	-1.388660	0.845823	-0.255615	0.455809	-1.000000	-1.000000	-1.000000	-1.000000	-1.000000	-1.000000	-1.000000	81.172414	0.000000	-1.000000	-1.000000	781160.000000	1774905496.917223
18745.110000	-17086.095000	11972.070000	22862.835000	10502.685000	-42525.090000	-35350.290000	-20378.070000	-33.567220	-37.604705	-29.163438	-35.872262	-34.559600	-31.617700	-18.115199	-25.977100	-0.778260	5.478340	-1.602300	0.847471	-0.256713	0.456969	-1.000000	-1.000000	-1.000000	-1.000000	-1.000000	-1.000000	-1.000000	81.172414	0.000000	-1.000000	-1.000000	781161.000000	1774905496.922275
18767.700000	-17076.690000	11982.285000	22873.680000	10512.360000	-42513.930000	-35347.455000	-20360.205000	-20.268231	-26.820890	-23.591775	-24.866246	-22.742069	-21.474286	-10.315793	-17.251623	-0.778260	5.478340	-1.602300	0.847471	-0.256713	0.456969	-1.000000	-1.000000	-1.000000	-1.000000	-1.000000	-1.000000	-1.000000	81.172414	0.000000	-1.000000	-1.000000	781162.000000	1774905496.922287
18778.005000	-17069.850000	11981.655000	22882.275000	10523.070000	-42500.700000	-35350.965000	-20344.500000	8.038104	-0.396284	-2.943963	1.145662	3.475083	3.813993	4.376021	3.469026	-0.778260	5.478340	-1.602300	0.847471	-0.256713	0.456969	-1.000000	-1.000000	-1.000000	-1.000000	-1.000000	-1.000000	-1.000000	81.172414	0.000000	-1.000000	-1.000000	781163.000000	1774905496.925140
18765.990000	-17065.035000	11960.460000	22873.365000	10523.160000	-42498.720000	-35354.385000	-20333.565000	35.617759	27.569077	20.715431	28.381652	30.251846	29.771918	18.593326	26.613826	-0.778260	5.478340	-1.602300	0.847471	-0.256713	0.456969	-1.000000	-1.000000	-1.000000	-1.000000	-1.000000	-1.000000	-1.000000	81.172414	0.000000	-1.000000	-1.000000	781164.000000	1774905496.925153
18787.275000	-17036.190000	11979.720000	22889.160000	10534.365000	-42497.910000	-35346.105000	-20313.045000	46.232288	41.807315	32.644815	41.160462	42.018352	40.186378	24.195559	38.976916	-0.778260	5.478340	-1.602300	0.847471	-0.256713	0.456969	-1.000000	-1.000000	-1.000000	-1.000000	-1.000000	-1.000000	-1.000000	81.172414	0.000000	-1.000000	-1.000000	781165.000000	1774905496.927646
18811.980000	-17032.095000	12014.370000	22902.300000	10538.550000	-42491.205000	-35330.040000	-20305.035000	35.807092	36.463291	27.875955	33.931357	33.319046	29.848613	18.652479	33.800614	-0.778260	5.478340	-1.602300	0.847471	-0.256713	0.456969	-1.000000	-1.000000	-1.000000	-1.000000	-1.000000	-1.000000	-1.000000	81.172414	0.000000	-1.000000	-1.000000	781166.000000	1774905496.927659
18780.300000	-17049.690000	12030.300000	22888.530000	10524.870000	-42501.420000	-35331.570000	-20337.570000	13.622388	17.943796	14.362238	14.579604	12.298745	7.892712	6.855006	15.324316	-0.778260	5.478340	-1.602300	0.847471	-0.256713	0.456969	-1.000000	-1.000000	-1.000000	-1.000000	-1.000000	-1.000000	-1.000000	81.172414	0.000000	-1.000000	-1.000000	781167.000000	1774905496.931781
18744.570000	-17066.880000	11998.035000	22870.035000	10514.475000	-42509.565000	-35339.400000	-20357.145000	-8.442680	-2.305906	2.537060	-4.597574	-7.917871	-11.633266	-4.104725	-6.772973	-0.778260	5.478340	-1.602300	0.847471	-0.256713	0.456969	-1.000000	-1.000000	-1.000000	-1.000000	-1.000000	-1.000000	-1.000000	81.172414	0.000000	-1.000000	-1.000000	781168.000000	1774905496.931790
18727.695000	-17090.235000	11945.880000	22833.630000	10494.135000	-42527.205000	-35346.690000	-20352.870000	-24.045306	-17.116613	-5.855084	-17.395727	-20.030074	-21.409820	-10.850209	-23.934999	-0.778260	5.478340	-1.602300	0.847471	-0.256713	0.456969	-1.000000	-1.000000	-1.000000	-1.000000	-1.000000	-1.000000	-1.000000	81.172414	0.000000	-1.000000	-1.000000	781169.000000	1774905496.941517
18750.600000	-17104.320000	11930.220000	22837.995000	10492.380000	-42530.940000	-35347.320000	-20343.780000	-30.867975	-25.139220	-14.815644	-23.898017	-23.947775	-22.229627	-13.667545	-30.642263	-0.778260	5.478340	-1.602300	0.847471	-0.256713	0.456969	-1.000000	-1.000000	-1.000000	-1.000000	-1.000000	-1.000000	-1.000000	81.172414	0.000000	-1.000000	-1.000000	781170.000000	1774905496.941530
18766.980000	-17084.070000	11975.985000	22882.680000	10522.305000	-42503.850000	-35343.765000	-20339.280000	-27.239106	-25.888420	-22.887898	-23.422433	-20.747286	-16.683914	-12.862149	-25.305039	-1.709120	5.844580	-1.770160	0.847105	-0.257018	0.458190	-1.000000	-1.000000	-1.000000	-1.000000	-1.000000	-1.000000	-1.000000	81.172414	0.000000	-1.000000	-1.000000	781171.000000	1774905496.942404
18776.340000	-17063.820000	12012.930000	22895.775000	10528.650000	-42498.540000	-35348.310000	-20343.285000	-13.937965	-18.064502	-22.090852	-13.873363	-10.862770	-6.641303	-8.204052	-11.555748	-1.709120	5.844580	-1.770160	0.847105	-0.257018	0.458190	-1.000000	-1.000000	-1.000000	-1.000000	-1.000000	-1.000000	-1.000000	81.172414	0.000000	-1.000000	-1.000000	781172.000000	1774905496.942414
18770.130000	-17064.495000	12014.820000	22896.765000	10522.170000	-42507.855000	-35344.440000	-20351.430000	3.172769	-3.788470	-8.969824	1.754330	2.008691	4.144656	-1.235934	2.908810	-1.709120	5.844580	-1.770160	0.847105	-0.257018	0.458190	-1.000000	-1.000000	-1.000000	-1.000000	-1.000000	-1.000000	-1.000000	81.172414	0.000000	-1.000000	-1.000000	781173.000000	1774905496.943478
18795.285000	-17038.350000	12033.855000	22918.095000	10552.230000	-42475.950000	-35317.080000	-20308.275000	15.868782	10.063920	8.928115	14.998887	11.598912	10.976843	5.036405	11.607736	-1.709120	5.844580	-1.770160	0.847105	-0.257018	0.458190	-1.000000	-1.000000	-1.000000	-1.000000	-1.000000	-1.000000	-1.000000	81.172414	0.000000	-1.000000	-1.000000	781174.000000	1774905496.943485
18853.245000	-16978.500000	12090.330000	22973.040000	10606.230000	-42424.290000	-35282.070000	-20243.970000	20.313955	18.502908	20.846791	20.200788	15.595118	13.269015	9.065192	14.902442	-1.709120	5.844580	-1.770160	0.847105	-0.257018	0.458190	-1.000000	-1.000000	-1.000000	-1.000000	-1.000000	-1.000000	-1.000000	81.172414	0.000000	-1.000000	-1.000000	781175.000000	1774905496.947636
18851.085000	-16979.355000	12087.720000	22972.410000	10608.165000	-42421.050000	-35286.480000	-20259.270000	19.393037	22.148254	22.739990	18.706188	16.561525	14.060973	11.072501	17.258582	-1.709120	5.844580	-1.770160	0.847105	-0.257018	0.458190	-1.000000	-1.000000	-1.000000	-1.000000	-1.000000	-1.000000	-1.000000	81.172414	0.000000	-1.000000	-1.000000	781176.000000	1774905496.947649
18797.130000	-17030.745000	12034.980000	22922.955000	10562.085000	-42463.710000	-35313.165000	-20319.165000	15.731332	20.950570	16.071840	12.942070	14.894890	13.277047	10.222759	17.856818	-1.709120	5.844580	-1.770160	0.847105	-0.257018	0.458190	-1.000000	-1.000000	-1.000000	-1.000000	-1.000000	-1.000000	-1.000000	81.172414	0.000000	-1.000000	-1.000000	781177.000000	1774905496.951647
18733.590000	-17089.380000	11977.065000	22862.340000	10499.850000	-42527.520000	-35343.000000	-20368.800000	6.571789	11.283172	2.892485	2.022423	6.685209	6.459941	4.458974	10.191996	-1.709120	5.844580	-1.770160	0.847105	-0.257018	0.458190	-1.000000	-1.000000	-1.000000	-1.000000	-1.000000	-1.000000	-1.000000	81.172414	0.000000	-1.000000	-1.000000	781178.000000	1774905496.951658
18761.445000	-17069.175000	11994.930000	22875.795000	10518.885000	-42508.440000	-35331.930000	-20347.425000	-9.415723	-6.383325	-13.051503	-13.361999	-8.614285	-7.469424	-5.325661	-6.700532	-1.709120	5.844580	-1.770160	0.847105	-0.257018	0.458190	-1.000000	-1.000000	-1.000000	-1.000000	-1.000000	-1.000000	-1.000000	81.172414	0.000000	-1.000000	-1.000000	781179.000000	1774905496.956846
18768.510000	-17077.545000	11968.695000	22862.655000	10509.660000	-42513.660000	-35343.945000	-20350.080000	-24.890956	-23.414682	-25.363303	-26.914524	-23.554421	-21.566673	-13.753283	-23.156735	-1.709120	5.844580	-1.770160	0.847105	-0.257018	0.458190	-1.000000	-1.000000	-1.000000	-1.000000	-1.000000	-1.000000	-1.000000	81.172414	0.000000	-1.000000	-1.000000	781180.000000	1774905496.956858
18716.760000	-17130.780000	11917.035000	22818.735000	10463.715000	-42557.085000	-35378.955000	-20378.025000	-30.249456	-31.112022	-29.576579	-31.579463	-29.562032	-27.431252	-16.116855	-28.507290	-2.945180	5.478340	-1.556520	0.846861	-0.257079	0.459349	-1.000000	-1.000000	-1.000000	-1.000000	-1.000000	-1.000000	-1.000000	81.172414	0.000000	-1.000000	-1.000000	781181.000000	1774905496.959590
18693.810000	-17137.755000	11935.080000	22813.470000	10445.985000	-42575.265000	-35393.220000	-20389.050000	-23.895480	-28.015613	-25.148690	-25.431064	-24.700399	-22.980171	-12.850527	-21.215147	-2.945180	5.478340	-1.556520	0.846861	-0.257079	0.459349	-1.000000	-1.000000	-1.000000	-1.000000	-1.000000	-1.000000	-1.000000	81.172414	0.000000	-1.000000	-1.000000	781182.000000	1774905496.959596
18704.970000	-17102.835000	11969.190000	22846.320000	10471.410000	-42548.130000	-35366.355000	-20372.220000	-11.247749	-16.928981	-12.790134	-11.062264	-12.434939	-11.516251	-6.987678	-7.614705	-2.945180	5.478340	-1.556520	0.846861	-0.257079	0.459349	-1.000000	-1.000000	-1.000000	-1.000000	-1.000000	-1.000000	-1.000000	81.172414	0.000000	-1.000000	-1.000000	781183.000000	1774905496.970148
18727.245000	-17086.320000	11968.695000	22862.205000	10494.855000	-42525.765000	-35360.415000	-20360.520000	2.432709	-0.862392	4.765514	7.103600	3.024597	2.864595	-0.106431	5.411967	-2.945180	5.478340	-1.556520	0.846861	-0.257079	0.459349	-1.000000	-1.000000	-1.000000	-1.000000	-1.000000	-1.000000	-1.000000	81.172414	0.000000	-1.000000	-1.000000	781184.000000	1774905496.970159
18791.145000	-17044.155000	11996.055000	22905.315000	10555.605000	-42468.345000	-35334.810000	-20310.570000	15.922248	16.947421	22.044423	24.391508	18.907034	17.530283	7.723041	15.765236	-2.945180	5.478340	-1.556520	0.846861	-0.257079	0.459349	-1.000000	-1.000000	-1.000000	-1.000000	-1.000000	-1.000000	-1.000000	81.172414	0.000000	-1.000000	-1.000000	781185.000000	1774905496.970171
18827.730000	-17011.350000	12038.130000	22945.995000	10599.435000	-42432.660000	-35315.370000	-20285.865000	30.234323	33.189278	35.118713	37.688678	33.705135	31.115562	16.191950	25.218237	-2.945180	5.478340	-1.556520	0.846861	-0.257079	0.459349	-1.000000	-1.000000	-1.000000	-1.000000	-1.000000	-1.000000	-1.000000	81.172414	0.000000	-1.000000	-1.000000	781186.000000	1774905496.970177
18813.780000	-17013.645000	12032.865000	22945.050000	10595.565000	-42441.705000	-35314.065000	-20307.690000	41.847376	43.300097	41.752103	44.044571	43.700754	40.187603	22.929142	32.330507	-2.945180	5.478340	-1.556520	0.846861	-0.257079	0.459349	-1.000000	-1.000000	-1.000000	-1.000000	-1.000000	-1.000000	-1.000000	81.172414	0.000000	-1.000000	-1.000000	781187.000000	1774905496.971940
18768.690000	-17065.890000	11997.270000	22886.730000	10524.240000	-42511.905000	-35350.785000	-20357.190000	40.296513	39.726858	36.876620	37.354860	40.152099	36.557885	22.864618	29.345674	-2.945180	5.478340	-1.556520	0.846861	-0.257079	0.459349	-1.000000	-1.000000	-1.000000	-1.000000	-1.000000	-1.000000	-1.000000	81.172414	0.000000	-1.000000	-1.000000	781188.000000	1774905496.971950
18727.380000	-17124.750000	11952.315000	22817.835000	10456.155000	-42574.320000	-35374.860000	-20384.955000	18.510112	17.592973	16.486628	13.107792	16.395262	14.060754	12.380477	11.017814	-2.945180	5.478340	-1.556520	0.846861	-0.257079	0.459349	-1.000000	-1.000000	-1.000000	-1.000000	-1.000000	-1.000000	-1.000000	81.172414	0.000000	-1.000000	-1.000000	781189.000000	1774905496.980135
18720.270000	-17107.110000	11959.155000	22835.610000	10473.660000	-42552.090000	-35352.720000	-20358.630000	-15.489790	-15.588362	-13.283220	-21.297283	-19.876026	-19.654392	-4.585022	-15.352651	-2.945180	5.478340	-1.556520	0.846861	-0.257079	0.459349	-1.000000	-1.000000	-1.000000	-1.000000	-1.000000	-1.000000	-1.000000	81.172414	0.000000	-1.000000	-1.000000	781190.000000	1774905496.980152
18744.030000	-17086.455000	11977.830000	22848.840000	10489.185000	-42534.405000	-35349.255000	-20345.220000	-42.743437	-41.984573	-38.102970	-47.825174	-48.365657	-45.128105	-18.441399	-34.268584	-2.365300	5.081580	-1.419180	0.846678	-0.258849	0.459777	-1.000000	-1.000000	-1.000000	-1.000000	-1.000000	-1.000000	-1.000000	81.172414	0.000000	-1.000000	-1.000000	781191.000000	1774905496.980163
18772.560000	-17071.605000	11977.380000	22850.640000	10492.740000	-42532.830000	-35357.175000	-20358.810000	-48.848015	-48.183155	-46.864176	-52.865340	-53.694395	-48.414517	-23.173679	-36.414965	-2.365300	5.081580	-1.419180	0.846678	-0.258849	0.459777	-1.000000	-1.000000	-1.000000	-1.000000	-1.000000	-1.000000	-1.000000	81.172414	0.000000	-1.000000	-1.000000	781192.000000	1774905496.980168
18761.400000	-17077.455000	11952.225000	22839.885000	10484.685000	-42539.310000	-35364.240000	-20384.505000	-33.783351	-34.490972	-38.355368	-37.128605	-36.913911	-31.701686	-19.849812	-25.004217	-2.365300	5.081580	-1.419180	0.846678	-0.258849	0.459777	-1.000000	-1.000000	-1.000000	-1.000000	-1.000000	-1.000000	-1.000000	81.172414	0.000000	-1.000000	-1.000000	781193.000000	1774905496.988497
18771.885000	-17080.425000	11949.480000	22847.085000	10493.460000	-42526.755000	-35354.385000	-20366.190000	-9.362851	-11.267144	-19.271069	-11.454751	-10.575070	-7.365166	-12.198332	-9.148573	-2.365300	5.081580	-1.419180	0.846678	-0.258849	0.459777	-1.000000	-1.000000	-1.000000	-1.000000	-1.000000	-1.000000	-1.000000	81.172414	0.000000	-1.000000	-1.000000	781194.000000	1774905496.988511
18745.245000	-17089.605000	11966.895000	22859.910000	10507.950000	-42508.215000	-35345.700000	-20355.795000	10.989228	9.672875	1.732993	12.450144	12.666513	13.352272	-3.009983	4.940421	-2.365300	5.081580	-1.419180	0.846678	-0.258849	0.459777	-1.000000	-1.000000	-1.000000	-1.000000	-1.000000	-1.000000	-1.000000	81.172414	0.000000	-1.000000	-1.000000	781195.000000	1774905496.988524
18730.485000	-17074.170000	12003.390000	22874.265000	10514.970000	-42502.275000	-35342.640000	-20355.345000	20.303296	21.715668	19.045684	27.877974	26.841624	25.814216	5.971468	15.655647	-2.365300	5.081580	-1.419180	0.846678	-0.258849	0.459777	-1.000000	-1.000000	-1.000000	-1.000000	-1.000000	-1.000000	-1.000000	81.172414	0.000000	-1.000000	-1.000000	781196.000000	1774905496.988530
18729.495000	-17081.865000	12000.870000	22868.325000	10501.560000	-42537.870000	-35347.320000	-20354.175000	19.607286	25.168775	30.511838	33.810140	32.082815	29.975410	13.290051	22.632162	-2.365300	5.081580	-1.419180	0.846678	-0.258849	0.459777	-1.000000	-1.000000	-1.000000	-1.000000	-1.000000	-1.000000	-1.000000	81.172414	0.000000	-1.000000	-1.000000	781197.000000	1774905496.993948
18738.945000	-17078.535000	11987.595000	22860.990000	10497.960000	-42539.220000	-35353.215000	-20354.535000	14.960845	23.504459	34.382765	31.883507	30.415956	26.720290	17.198411	24.584512	-2.365300	5.081580	-1.419180	0.846678	-0.258849	0.459777	-1.000000	-1.000000	-1.000000	-1.000000	-1.000000	-1.000000	-1.000000	81.172414	0.000000	-1.000000	-1.000000	781198.000000	1774905496.993958
18768.735000	-17063.190000	11991.375000	22874.895000	10517.085000	-42513.120000	-35354.520000	-20352.105000	11.626811	18.362987	28.159930	23.003175	22.672197	17.198236	15.574633	19.578680	-2.365300	5.081580	-1.419180	0.846678	-0.258849	0.459777	-1.000000	-1.000000	-1.000000	-1.000000	-1.000000	-1.000000	-1.000000	81.172414	0.000000	-1.000000	-1.000000	781199.000000	1774905496.995587
18787.500000	-17053.830000	11978.460000	22883.670000	10530.270000	-42500.610000	-35350.515000	-20342.655000	9.859967	9.168810	11.594663	8.039809	9.454560	3.920130	7.894322	7.649316	-2.365300	5.081580	-1.419180	0.846678	-0.258849	0.459777	-1.000000	-1.000000	-1.000000	-1.000000	-1.000000	-1.000000	-1.000000	81.172414	0.000000	-1.000000	-1.000000	781200.000000	1774905496.995598
18778.095000	-17063.055000	11962.845000	22869.675000	10519.065000	-42511.815000	-35345.115000	-20337.570000	6.306452	-3.363467	-10.004984	-9.315639	-6.344640	-9.316269	-2.545576	-6.533890	-1.464960	4.501700	-0.930860	0.847471	-0.260925	0.461730	-1.000000	-1.000000	-1.000000	-1.000000	-1.000000	-1.000000	-1.000000	81.172414	0.000000	-1.000000	-1.000000	781201.000000	1774905496.999512
18778.095000	-17066.295000	11979.990000	22864.500000	10514.205000	-42509.880000	-35343.765000	-20332.575000	-1.221087	-15.491702	-26.804553	-23.264913	-20.053397	-18.926540	-10.476204	-16.194251	-1.464960	4.501700	-0.930860	0.847471	-0.260925	0.461730	-1.000000	-1.000000	-1.000000	-1.000000	-1.000000	-1.000000	-1.000000	81.172414	0.000000	-1.000000	-1.000000	781202.000000	1774905496.999521
18805.950000	-17038.890000	12033.045000	22885.650000	10522.755000	-42505.110000	-35340.390000	-20320.155000	-10.256577	-21.884512	-29.980874	-28.871323	-27.399548	-22.619053	-12.878946	-17.973863	-1.464960	4.501700	-0.930860	0.847471	-0.260925	0.461730	-1.000000	-1.000000	-1.000000	-1.000000	-1.000000	-1.000000	-1.000000	81.172414	0.000000	-1.000000	-1.000000	781203.000000	1774905497.005085
18783.180000	-17054.820000	12026.340000	22886.685000	10523.430000	-42505.560000	-35343.900000	-20330.595000	-15.313812	-19.209327	-18.531080	-24.334091	-26.026157	-19.777654	-10.332998	-13.390205	-1.464960	4.501700	-0.930860	0.847471	-0.260925	0.461730	-1.000000	-1.000000	-1.000000	-1.000000	-1.000000	-1.000000	-1.000000	81.172414	0.000000	-1.000000	-1.000000	781204.000000	1774905497.005095
18757.170000	-17085.645000	11989.845000	22870.260000	10517.625000	-42505.605000	-35347.635000	-20345.805000	-13.844973	-9.891598	-1.531377	-12.343359	-16.483489	-11.308044	-5.148347	-6.316181	-1.464960	4.501700	-0.930860	0.847471	-0.260925	0.461730	-1.000000	-1.000000	-1.000000	-1.000000	-1.000000	-1.000000	-1.000000	81.172414	0.000000	-1.000000	-1.000000	781205.000000	1774905497.009424
18749.655000	-17093.835000	11981.205000	22864.860000	10514.385000	-42507.945000	-35352.540000	-20362.455000	-8.359297	-0.065059	9.622389	1.538615	-2.089207	0.845539	0.515578	-0.399308	-1.464960	4.501700	-0.930860	0.847471	-0.260925	0.461730	-1.000000	-1.000000	-1.000000	-1.000000	-1.000000	-1.000000	-1.000000	81.172414	0.000000	-1.000000	-1.000000	781206.000000	1774905497.009437
18742.185000	-17079.975000	11991.195000	22869.855000	10511.820000	-42515.865000	-35350.920000	-20363.940000	-2.711435	6.284368	11.225288	12.229145	11.722180	12.531809	4.958782	2.428576	-1.464960	4.501700	-0.930860	0.847471	-0.260925	0.461730	-1.000000	-1.000000	-1.000000	-1.000000	-1.000000	-1.000000	-1.000000	81.172414	0.000000	-1.000000	-1.000000	781207.000000	1774905497.023859
18763.245000	-17062.020000	12003.660000	22879.575000	10518.480000	-42509.520000	-35345.430000	-20344.995000	0.727577	8.662596	7.142010	16.544251	18.911831	17.641025	6.872694	2.605456	-1.464960	4.501700	-0.930860	0.847471	-0.260925	0.461730	-1.000000	-1.000000	-1.000000	-1.000000	-1.000000	-1.000000	-1.000000	81.172414	0.000000	-1.000000	-1.000000	781208.000000	1774905497.023872
18771.435000	-17066.565000	12000.960000	22878.360000	10521.135000	-42503.355000	-35341.065000	-20338.560000	1.918001	8.024323	2.636028	13.976152	16.766889	13.457072	5.973807	2.318855	-1.464960	4.501700	-0.930860	0.847471	-0.260925	0.461730	-1.000000	-1.000000	-1.000000	-1.000000	-1.000000	-1.000000	-1.000000	81.172414	0.000000	-1.000000	-1.000000	781209.000000	1774905497.023886
18785.520000	-17053.785000	12009.960000	22889.340000	10532.880000	-42491.970000	-35334.720000	-20328.660000	2.837284	5.833504	0.774232	7.367268	8.409684	3.994901	3.280602	3.341733	-1.464960	4.501700	-0.930860	0.847471	-0.260925	0.461730	-1.000000	-1.000000	-1.000000	-1.000000	-1.000000	-1.000000	-1.000000	81.172414	0.000000	-1.000000	-1.000000	781210.000000	1774905497.023891
18798.435000	-17037.630000	12023.955000	22903.785000	10549.845000	-42475.590000	-35313.255000	-20314.485000	4.976193	3.768709	1.338832	1.036503	-0.032235	-4.043924	0.559734	5.398678	-0.808780	4.028640	-0.763000	0.846739	-0.258788	0.462096	-1.000000	-1.000000	-1.000000	-1.000000	-1.000000	-1.000000	-1.000000	81.172414	0.000000	-1.000000	-1.000000	781211.000000	1774905497.023898
18777.240000	-17047.305000	12013.920000	22894.020000	10539.720000	-42488.865000	-35314.020000	-20329.065000	7.186201	2.429873	1.437239	-2.795575	-4.624399	-7.072412	-0.765050	6.542783	-0.808780	4.028640	-0.763000	0.846739	-0.258788	0.462096	-1.000000	-1.000000	-1.000000	-1.000000	-1.000000	-1.000000	-1.000000	81.172414	0.000000	-1.000000	-1.000000	781212.000000	1774905497.023902
18769.410000	-17045.325000	12011.670000	22895.460000	10544.085000	-42482.565000	-35314.020000	-20327.940000	7.288538	1.213325	-0.976400	-4.653552	-5.445205	-5.895025	-0.720914	5.150834	-0.808780	4.028640	-0.763000	0.846739	-0.258788	0.462096	-1.000000	-1.000000	-1.000000	-1.000000	-1.000000	-1.000000	-1.000000	81.172414	0.000000	-1.000000	-1.000000	781213.000000	1774905497.023908
18795.285000	-17017.470000	12038.760000	22920.705000	10569.375000	-42452.865000	-35305.290000	-20280.060000	5.525949	0.664306	-3.558645	-4.598348	-3.629296	-2.237014	-0.190579	2.574700	-0.808780	4.028640	-0.763000	0.846739	-0.258788	0.462096	-1.000000	-1.000000	-1.000000	-1.000000	-1.000000	-1.000000	-1.000000	81.172414	0.000000	-1.000000	-1.000000	781214.000000	1774905497.023914
18893.880000	-16927.785000	12136.725000	23004.855000	10648.170000	-42377.445000	-35258.760000	-20191.320000	5.314686	3.053995	-1.075694	-0.655089	1.266073	3.963101	0.899513	3.145352	-0.808780	4.028640	-0.763000	0.846739	-0.258788	0.462096	-1.000000	-1.000000	-1.000000	-1.000000	-1.000000	-1.000000	-1.000000	81.172414	0.000000	-1.000000	-1.000000	781215.000000	1774905497.040173
18975.960000	-16848.360000	12226.995000	23085.045000	10718.685000	-42313.230000	-35205.030000	-20138.085000	9.821058	9.326856	8.971961	8.255892	9.563072	12.562388	3.666485	9.113025	-0.808780	4.028640	-0.763000	0.846739	-0.258788	0.462096	-1.000000	-1.000000	-1.000000	-1.000000	-1.000000	-1.000000	-1.000000	81.172414	0.000000	-1.000000	-1.000000	781216.000000	1774905497.040187
18878.670000	-16958.655000	12107.295000	22975.245000	10621.260000	-42404.580000	-35269.155000	-20244.420000	14.865735	14.136608	19.899018	16.591580	16.239789	18.299877	6.660024	14.140020	-0.808780	4.028640	-0.763000	0.846739	-0.258788	0.462096	-1.000000	-1.000000	-1.000000	-1.000000	-1.000000	-1.000000	-1.000000	81.172414	0.000000	-1.000000	-1.000000	781217.000000	1774905497.040200
18738.360000	-17100.765000	11962.755000	22837.725000	10482.660000	-42545.835000	-35371.260000	-20377.980000	7.819161	5.990473	16.476949	11.757438	10.071816	10.513063	3.303946	5.519378	-0.808780	4.028640	-0.763000	0.846739	-0.258788	0.462096	-1.000000	-1.000000	-1.000000	-1.000000	-1.000000	-1.000000	-1.000000	81.172414	0.000000	-1.000000	-1.000000	781218.000000	1774905497.040205
18630.135000	-17213.670000	11854.710000	22745.295000	10389.870000	-42637.140000	-35422.560000	-20464.290000	-18.536610	-20.549407	-9.930786	-12.888668	-14.727291	-15.700089	-11.145769	-21.371702	-0.808780	4.028640	-0.763000	0.846739	-0.258788	0.462096	-1.000000	-1.000000	-1.000000	-1.000000	-1.000000	-1.000000	-1.000000	81.172414	0.000000	-1.000000	-1.000000	781219.000000	1774905497.040212
18643.905000	-17190.315000	11868.885000	22755.420000	10405.845000	-42617.205000	-35402.580000	-20454.345000	-51.931305	-52.571598	-46.743758	-45.030667	-45.993398	-47.535421	-29.714716	-52.306015	-0.808780	4.028640	-0.763000	0.846739	-0.258788	0.462096	-1.000000	-1.000000	-1.000000	-1.000000	-1.000000	-1.000000	-1.000000	81.172414	0.000000	-1.000000	-1.000000	781220.000000	1774905497.040218
18706.770000	-17123.445000	11926.305000	22814.055000	10461.015000	-42567.300000	-35373.780000	-20402.100000	-65.784152	-64.209831	-66.021713	-59.463801	-59.054202	-60.126764	-36.640775	-62.372536	-2.243220	3.860780	-0.122080	0.844480	-0.254455	0.461608	-1.000000	-1.000000	-1.000000	-1.000000	-1.000000	-1.000000	-1.000000	81.172414	0.000000	-1.000000	-1.000000	781221.000000	1774905497.040224
18746.910000	-17093.430000	11954.385000	22838.400000	10482.120000	-42547.590000	-35368.740000	-20375.415000	-42.085459	-38.908009	-47.841428	-39.656311	-38.226679	-38.409533	-22.251556	-37.510655	-2.243220	3.860780	-0.122080	0.844480	-0.254455	0.461608	-1.000000	-1.000000	-1.000000	-1.000000	-1.000000	-1.000000	-1.000000	81.172414	0.000000	-1.000000	-1.000000	781222.000000	1774905497.040228
18737.190000	-17089.245000	11959.245000	22836.195000	10481.760000	-42546.240000	-35368.200000	-20373.075000	9.223272	12.555138	0.434495	5.759786	7.127718	7.385131	6.940829	10.762907	-2.243220	3.860780	-0.122080	0.844480	-0.254455	0.461608	-1.000000	-1.000000	-1.000000	-1.000000	-1.000000	-1.000000	-1.000000	81.172414	0.000000	-1.000000	-1.000000	781223.000000	1774905497.043664
18724.095000	-17109.765000	11928.735000	22817.205000	10478.520000	-42544.440000	-35365.140000	-20376.090000	55.779848	58.386820	48.262408	48.291949	49.099892	49.364766	33.300024	53.302463	-2.243220	3.860780	-0.122080	0.844480	-0.254455	0.461608	-1.000000	-1.000000	-1.000000	-1.000000	-1.000000	-1.000000	-1.000000	81.172414	0.000000	-1.000000	-1.000000	781224.000000	1774905497.043688
18736.515000	-17129.790000	11914.425000	22822.605000	10496.205000	-42521.895000	-35353.620000	-20372.445000	70.134383	71.544529	66.989018	63.166017	64.350955	64.881208	42.452327	67.253221	-2.243220	3.860780	-0.122080	0.844480	-0.254455	0.461608	-1.000000	-1.000000	-1.000000	-1.000000	-1.000000	-1.000000	-1.000000	81.172414	0.000000	-1.000000	-1.000000	781225.000000	1774905497.050109
18743.625000	-17091.360000	11950.380000	22843.935000	10503.360000	-42517.395000	-35347.005000	-20370.285000	52.042213	51.861852	53.911166	49.647710	51.967649	53.104791	34.079376	52.883740	-2.243220	3.860780	-0.122080	0.844480	-0.254455	0.461608	-1.000000	-1.000000	-1.000000	-1.000000	-1.000000	-1.000000	-1.000000	81.172414	0.000000	-1.000000	-1.000000	781226.000000	1774905497.050122
18750.285000	-17057.970000	11995.830000	22868.820000	10513.935000	-42513.345000	-35348.265000	-20361.735000	23.065717	22.696695	30.284602	26.936786	28.867723	30.106742	19.013585	27.865831	-2.243220	3.860780	-0.122080	0.844480	-0.254455	0.461608	-1.000000	-1.000000	-1.000000	-1.000000	-1.000000	-1.000000	-1.000000	81.172414	0.000000	-1.000000	-1.000000	781227.000000	1774905497.051642
18736.245000	-17073.315000	12008.745000	22870.170000	10506.645000	-42518.790000	-35355.690000	-20358.045000	2.373795	4.617019	15.361395	11.292648	9.964551	10.173307	6.293986	7.818726	-2.243220	3.860780	-0.122080	0.844480	-0.254455	0.461608	-1.000000	-1.000000	-1.000000	-1.000000	-1.000000	-1.000000	-1.000000	81.172414	0.000000	-1.000000	-1.000000	781228.000000	1774905497.051651
18746.010000	-17079.570000	11997.270000	22865.535000	10506.285000	-42508.755000	-35353.620000	-20345.175000	-7.595245	-2.646747	8.525818	2.460293	-3.255429	-4.524385	-3.608708	-4.675214	-2.243220	3.860780	-0.122080	0.844480	-0.254455	0.461608	-1.000000	-1.000000	-1.000000	-1.000000	-1.000000	-1.000000	-1.000000	81.172414	0.000000	-1.000000	-1.000000	781229.000000	1774905497.055633
18751.320000	-17086.005000	11994.210000	22865.130000	10507.680000	-42505.065000	-35344.845000	-20336.220000	-14.599232	-11.105227	-2.369203	-8.558715	-16.389984	-18.104241	-13.306006	-14.866787	-2.243220	3.860780	-0.122080	0.844480	-0.254455	0.461608	-1.000000	-1.000000	-1.000000	-1.000000	-1.000000	-1.000000	-1.000000	81.172414	0.000000	-1.000000	-1.000000	781230.000000	1774905497.055642
18759.915000	-17097.390000	11987.910000	22864.860000	10512.135000	-42493.275000	-35344.170000	-20341.935000	-23.356877	-26.050493	-22.401036	-24.865782	-30.508179	-31.048640	-21.800573	-25.847841	-3.799740	3.113040	-0.381500	0.843260	-0.253051	0.461058	-1.000000	-1.000000	-1.000000	-1.000000	-1.000000	-1.000000	-1.000000	81.172414	0.000000	-1.000000	-1.000000	781231.000000	1774905497.062404
18759.870000	-17081.280000	12004.200000	22879.035000	10520.370000	-42503.310000	-35341.470000	-20342.790000	-31.080180	-40.864822	-43.451269	-39.579906	-39.878518	-38.809490	-25.481706	-35.138262	-3.799740	3.113040	-0.381500	0.843260	-0.253051	0.461058	-1.000000	-1.000000	-1.000000	-1.000000	-1.000000	-1.000000	-1.000000	81.172414	0.000000	-1.000000	-1.000000	781232.000000	1774905497.062416
18778.500000	-17045.415000	12014.685000	22885.605000	10519.875000	-42527.880000	-35340.480000	-20332.080000	-32.199854	-44.364839	-52.454591	-43.289630	-38.667908	-37.792052	-22.565651	-37.542134	-3.799740	3.113040	-0.381500	0.843260	-0.253051	0.461058	-1.000000	-1.000000	-1.000000	-1.000000	-1.000000	-1.000000	-1.000000	81.172414	0.000000	-1.000000	-1.000000	781233.000000	1774905497.064624
18815.670000	-17006.715000	12044.250000	22915.845000	10549.800000	-42488.775000	-35324.055000	-20297.655000	-23.265964	-29.903365	-41.734508	-31.790067	-25.728632	-27.693215	-13.923826	-28.684790	-3.799740	3.113040	-0.381500	0.843260	-0.253051	0.461058	-1.000000	-1.000000	-1.000000	-1.000000	-1.000000	-1.000000	-1.000000	81.172414	0.000000	-1.000000	-1.000000	781234.000000	1774905497.064633
18820.710000	-17009.685000	12042.990000	22909.905000	10551.690000	-42481.350000	-35316.810000	-20286.270000	-4.952195	-1.639442	-14.572329	-8.529895	-4.208185	-9.156274	-1.377243	-8.280824	-3.799740	3.113040	-0.381500	0.843260	-0.253051	0.461058	-1.000000	-1.000000	-1.000000	-1.000000	-1.000000	-1.000000	-1.000000	81.172414	0.000000	-1.000000	-1.000000	781235.000000	1774905497.067626
18790.560000	-17038.440000	12019.860000	22879.035000	10526.445000	-42502.770000	-35328.240000	-20310.705000	16.020228	25.991867	15.464766	16.027863	18.395089	13.777851	11.753093	16.353544	-3.799740	3.113040	-0.381500	0.843260	-0.253051	0.461058	-1.000000	-1.000000	-1.000000	-1.000000	-1.000000	-1.000000	-1.000000	81.172414	0.000000	-1.000000	-1.000000	781236.000000	1774905497.067633
18753.435000	-17079.120000	11979.585000	22845.960000	10495.665000	-42533.145000	-35351.505000	-20347.245000	28.516169	37.820180	32.665935	29.424618	31.576480	30.976735	19.747906	32.081945	-3.799740	3.113040	-0.381500	0.843260	-0.253051	0.461058	-1.000000	-1.000000	-1.000000	-1.000000	-1.000000	-1.000000	-1.000000	81.172414	0.000000	-1.000000	-1.000000	781237.000000	1774905497.078487
18741.870000	-17091.090000	11967.435000	22839.975000	10494.045000	-42533.190000	-35362.035000	-20360.340000	24.825065	28.544453	29.925095	25.863042	28.718271	32.949383	17.834694	29.463655	-3.799740	3.113040	-0.381500	0.843260	-0.253051	0.461058	-1.000000	-1.000000	-1.000000	-1.000000	-1.000000	-1.000000	-1.000000	81.172414	0.000000	-1.000000	-1.000000	781238.000000	1774905497.078500
18775.935000	-17053.290000	12005.505000	22874.310000	10522.395000	-42509.970000	-35345.295000	-20340.315000	8.011509	6.335378	13.465422	10.791642	13.315182	19.987511	7.282888	11.370001	-3.799740	3.113040	-0.381500	0.843260	-0.253051	0.461058	-1.000000	-1.000000	-1.000000	-1.000000	-1.000000	-1.000000	-1.000000	81.172414	0.000000	-1.000000	-1.000000	781239.000000	1774905497.078514
18800.235000	-17031.105000	12019.005000	22888.575000	10537.245000	-42494.490000	-35340.030000	-20335.545000	-9.593985	-13.113385	-2.878704	-3.777916	-3.571007	1.973987	-4.644339	-9.033558	-3.799740	3.113040	-0.381500	0.843260	-0.253051	0.461058	-1.000000	-1.000000	-1.000000	-1.000000	-1.000000	-1.000000	-1.000000	81.172414	0.000000	-1.000000	-1.000000	781240.000000	1774905497.078519
18785.025000	-17048.970000	11985.435000	22861.935000	10519.695000	-42505.020000	-35343.630000	-20345.355000	-17.203772	-19.547548	-9.980663	-9.890166	-12.946702	-10.498277	-11.032127	-19.625983	-2.609460	3.433500	-0.961380	0.841978	-0.253112	0.460448	-1.000000	-1.000000	-1.000000	-1.000000	-1.000000	-1.000000	-1.000000	81.172414	0.000000	-1.000000	-1.000000	781241.000000	1774905497.079691
18731.385000	-17079.705000	11931.975000	22834.260000	10504.260000	-42515.550000	-35349.840000	-20362.590000	-14.685613	-15.208635	-9.517000	-8.891268	-13.831406	-13.586944	-10.388264	-17.833785	-2.609460	3.433500	-0.961380	0.841978	-0.253112	0.460448	-1.000000	-1.000000	-1.000000	-1.000000	-1.000000	-1.000000	-1.000000	81.172414	0.000000	-1.000000	-1.000000	781242.000000	1774905497.079703
18730.575000	-17065.890000	11927.475000	22834.170000	10513.710000	-42506.370000	-35348.130000	-20358.135000	-9.099132	-7.993903	-7.603180	-5.953308	-9.918803	-10.015809	-5.461327	-8.709767	-2.609460	3.433500	-0.961380	0.841978	-0.253112	0.460448	-1.000000	-1.000000	-1.000000	-1.000000	-1.000000	-1.000000	-1.000000	81.172414	0.000000	-1.000000	-1.000000	781243.000000	1774905497.083656
18746.055000	-17058.015000	11967.750000	22847.130000	10520.145000	-42503.355000	-35348.355000	-20347.245000	-4.005489	-1.525990	-5.517037	-2.776758	-3.794620	-3.907692	0.479628	2.052960	-2.609460	3.433500	-0.961380	0.841978	-0.253112	0.460448	-1.000000	-1.000000	-1.000000	-1.000000	-1.000000	-1.000000	-1.000000	81.172414	0.000000	-1.000000	-1.000000	781244.000000	1774905497.083666
18765.000000	-17068.095000	12001.185000	22864.635000	10517.625000	-42507.540000	-35345.745000	-20334.375000	3.135030	5.300283	0.803495	2.620630	3.749511	2.436916	5.526450	11.677437	-2.609460	3.433500	-0.961380	0.841978	-0.253112	0.460448	-1.000000	-1.000000	-1.000000	-1.000000	-1.000000	-1.000000	-1.000000	81.172414	0.000000	-1.000000	-1.000000	781245.000000	1774905497.096006
18758.160000	-17082.855000	11997.585000	22866.030000	10517.895000	-42507.180000	-35335.170000	-20337.300000	13.473680	12.334166	12.608904	10.613253	10.898436	7.424118	8.924423	18.528445	-2.609460	3.433500	-0.961380	0.841978	-0.253112	0.460448	-1.000000	-1.000000	-1.000000	-1.000000	-1.000000	-1.000000	-1.000000	81.172414	0.000000	-1.000000	-1.000000	781246.000000	1774905497.096018
18786.780000	-17031.690000	12020.310000	22909.230000	10563.120000	-42463.710000	-35302.905000	-20308.545000	22.122578	16.611738	23.459767	17.291702	14.598379	9.440428	10.373460	20.160297	-2.609460	3.433500	-0.961380	0.841978	-0.253112	0.460448	-1.000000	-1.000000	-1.000000	-1.000000	-1.000000	-1.000000	-1.000000	81.172414	0.000000	-1.000000	-1.000000	781247.000000	1774905497.096030
18856.350000	-16966.485000	12044.925000	22954.185000	10616.535000	-42410.115000	-35270.415000	-20263.005000	23.286336	16.437635	24.820110	18.177541	13.569611	8.516894	9.796855	15.461934	-2.609460	3.433500	-0.961380	0.841978	-0.253112	0.460448	-1.000000	-1.000000	-1.000000	-1.000000	-1.000000	-1.000000	-1.000000	81.172414	0.000000	-1.000000	-1.000000	781248.000000	1774905497.096035
18869.445000	-16957.935000	12073.770000	22969.485000	10615.635000	-42418.215000	-35286.255000	-20256.840000	16.397929	12.668096	14.673073	12.404562	8.974038	5.974253	6.880333	6.638675	-2.609460	3.433500	-0.961380	0.841978	-0.253112	0.460448	-1.000000	-1.000000	-1.000000	-1.000000	-1.000000	-1.000000	-1.000000	81.172414	0.000000	-1.000000	-1.000000	781249.000000	1774905497.099316
18856.395000	-16982.370000	12111.255000	22947.120000	10589.130000	-42440.895000	-35317.665000	-20264.355000	4.880264	5.894507	-0.200583	2.318798	1.892079	1.884345	0.647163	-3.048483	-2.609460	3.433500	-0.961380	0.841978	-0.253112	0.460448	-1.000000	-1.000000	-1.000000	-1.000000	-1.000000	-1.000000	-1.000000	81.172414	0.000000	-1.000000	-1.000000	781250.000000	1774905497.099328
18824.580000	-17022.195000	12087.270000	22919.400000	10563.390000	-42463.305000	-35316.630000	-20284.605000	-7.613287	-4.178973	-10.825242	-9.113504	-7.269009	-4.624098	-8.486283	-11.641174	-3.860780	4.150720	-1.312360	0.841917	-0.252502	0.457946	-1.000000	-1.000000	-1.000000	-1.000000	-1.000000	-1.000000	-1.000000	81.172414	0.000000	-1.000000	-1.000000	781251.000000	1774905497.099570
18784.395000	-17057.070000	12030.120000	22883.850000	10534.905000	-42490.530000	-35311.005000	-20317.725000	-18.743883	-16.637151	-15.643801	-19.564582	-16.990829	-12.832024	-16.441579	-18.395251	-3.860780	4.150720	-1.312360	0.841917	-0.252502	0.457946	-1.000000	-1.000000	-1.000000	-1.000000	-1.000000	-1.000000	-1.000000	81.172414	0.000000	-1.000000	-1.000000	781252.000000	1774905497.099576
18728.595000	-17111.070000	11962.935000	22820.670000	10475.730000	-42549.795000	-35352.045000	-20372.805000	-27.345586	-27.849666	-20.607311	-27.231681	-24.295894	-19.978067	-18.615328	-23.065488	-3.860780	4.150720	-1.312360	0.841917	-0.252502	0.457946	-1.000000	-1.000000	-1.000000	-1.000000	-1.000000	-1.000000	-1.000000	81.172414	0.000000	-1.000000	-1.000000	781253.000000	1774905497.111102
18701.595000	-17129.655000	11942.370000	22801.905000	10456.290000	-42568.200000	-35379.855000	-20420.280000	-31.626280	-32.144067	-28.596358	-30.121251	-26.024883	-22.718390	-14.812108	-25.019806	-3.860780	4.150720	-1.312360	0.841917	-0.252502	0.457946	-1.000000	-1.000000	-1.000000	-1.000000	-1.000000	-1.000000	-1.000000	81.172414	0.000000	-1.000000	-1.000000	781254.000000	1774905497.111115
18681.300000	-17145.585000	11925.045000	22784.265000	10438.155000	-42586.695000	-35390.295000	-20423.520000	-28.535912	-25.471573	-33.511291	-25.780247	-20.321544	-18.765789	-8.356985	-22.391028	-3.860780	4.150720	-1.312360	0.841917	-0.252502	0.457946	-1.000000	-1.000000	-1.000000	-1.000000	-1.000000	-1.000000	-1.000000	81.172414	0.000000	-1.000000	-1.000000	781255.000000	1774905497.111128
18697.545000	-17130.330000	11938.185000	22800.195000	10453.860000	-42571.800000	-35377.200000	-20388.915000	-16.986066	-9.899873	-27.306190	-13.729644	-8.531208	-8.865199	-2.037777	-12.992897	-3.860780	4.150720	-1.312360	0.841917	-0.252502	0.457946	-1.000000	-1.000000	-1.000000	-1.000000	-1.000000	-1.000000	-1.000000	81.172414	0.000000	-1.000000	-1.000000	781256.000000	1774905497.111133
18721.035000	-17107.245000	11959.650000	22825.530000	10480.320000	-42547.095000	-35366.535000	-20375.280000	-0.183254	7.515013	-8.839244	2.945696	5.443230	3.696179	3.585417	2.705265	-3.860780	4.150720	-1.312360	0.841917	-0.252502	0.457946	-1.000000	-1.000000	-1.000000	-1.000000	-1.000000	-1.000000	-1.000000	81.172414	0.000000	-1.000000	-1.000000	781257.000000	1774905497.111675
18728.955000	-17091.900000	11975.760000	22839.660000	10493.505000	-42535.575000	-35361.540000	-20372.040000	16.905457	21.196458	15.386079	19.919640	18.551523	16.266758	9.495563	20.044842	-3.860780	4.150720	-1.312360	0.841917	-0.252502	0.457946	-1.000000	-1.000000	-1.000000	-1.000000	-1.000000	-1.000000	-1.000000	81.172414	0.000000	-1.000000	-1.000000	781258.000000	1774905497.111686
18733.140000	-17082.810000	11986.380000	22848.255000	10504.305000	-42524.460000	-35351.055000	-20369.250000	30.382666	29.755639	35.728737	33.343171	29.017081	26.983625	16.034765	32.530100	-3.860780	4.150720	-1.312360	0.841917	-0.252502	0.457946	-1.000000	-1.000000	-1.000000	-1.000000	-1.000000	-1.000000	-1.000000	81.172414	0.000000	-1.000000	-1.000000	781259.000000	1774905497.116248
18732.510000	-17078.040000	11987.550000	22845.105000	10503.135000	-42523.425000	-35349.840000	-20369.880000	37.345024	33.025735	44.922331	39.494056	34.149174	32.695897	20.805059	35.597578	-3.860780	4.150720	-1.312360	0.841917	-0.252502	0.457946	-1.000000	-1.000000	-1.000000	-1.000000	-1.000000	-1.000000	-1.000000	81.172414	0.000000	-1.000000	-1.000000	781260.000000	1774905497.116261
18748.170000	-17066.295000	11993.850000	22847.985000	10506.420000	-42518.070000	-35347.230000	-20362.050000	36.018632	30.236046	41.405311	35.814120	31.132987	30.338079	20.114097	28.945768	-3.052000	5.798800	-1.358140	0.842283	-0.252868	0.457091	-1.000000	-1.000000	-1.000000	-1.000000	-1.000000	-1.000000	-1.000000	81.172414	0.000000	-1.000000	-1.000000	781261.000000	1774905497.119632
18771.570000	-17058.870000	12001.005000	22854.330000	10512.360000	-42513.165000	-35340.345000	-20349.495000	27.275482	21.608400	28.448514	23.333531	20.332543	20.289270	13.353491	16.622765	-3.052000	5.798800	-1.358140	0.842283	-0.252868	0.457091	-1.000000	-1.000000	-1.000000	-1.000000	-1.000000	-1.000000	-1.000000	81.172414	0.000000	-1.000000	-1.000000	781262.000000	1774905497.119640
18759.645000	-17077.320000	11990.385000	22864.635000	10525.005000	-42501.960000	-35333.595000	-20353.005000	13.866555	8.678445	10.778275	6.406194	5.546098	6.170309	3.860858	3.876307	-3.052000	5.798800	-1.358140	0.842283	-0.252868	0.457091	-1.000000	-1.000000	-1.000000	-1.000000	-1.000000	-1.000000	-1.000000	81.172414	0.000000	-1.000000	-1.000000	781263.000000	1774905497.123573
18744.255000	-17084.385000	11985.975000	22867.470000	10528.245000	-42502.230000	-35340.930000	-20363.265000	-2.414409	-7.162102	-7.858793	-10.366310	-9.186713	-8.315378	-5.163527	-7.380587	-3.052000	5.798800	-1.358140	0.842283	-0.252868	0.457091	-1.000000	-1.000000	-1.000000	-1.000000	-1.000000	-1.000000	-1.000000	81.172414	0.000000	-1.000000	-1.000000	781264.000000	1774905497.123582
18762.165000	-17060.040000	12001.320000	22874.805000	10532.160000	-42500.835000	-35335.800000	-20339.550000	-20.110332	-23.473640	-24.162480	-24.026059	-21.607936	-21.012571	-12.888340	-18.053812	-3.052000	5.798800	-1.358140	0.842283	-0.252868	0.457091	-1.000000	-1.000000	-1.000000	-1.000000	-1.000000	-1.000000	-1.000000	81.172414	0.000000	-1.000000	-1.000000	781265.000000	1774905497.127741
18809.595000	-17019.405000	12037.995000	22904.685000	10561.680000	-42470.505000	-35308.890000	-20292.615000	-34.260883	-34.545225	-33.834341	-32.112786	-29.700744	-29.582998	-18.148563	-26.119960	-3.052000	5.798800	-1.358140	0.842283	-0.252868	0.457091	-1.000000	-1.000000	-1.000000	-1.000000	-1.000000	-1.000000	-1.000000	81.172414	0.000000	-1.000000	-1.000000	781266.000000	1774905497.127749
18806.805000	-17019.315000	12039.570000	22905.495000	10564.560000	-42467.085000	-35310.960000	-20301.885000	-37.513874	-34.175271	-33.193010	-31.720506	-30.241180	-30.305899	-18.185453	-26.481174	-3.052000	5.798800	-1.358140	0.842283	-0.252868	0.457091	-1.000000	-1.000000	-1.000000	-1.000000	-1.000000	-1.000000	-1.000000	81.172414	0.000000	-1.000000	-1.000000	781267.000000	1774905497.131661
18776.520000	-17049.465000	12008.070000	22871.880000	10533.915000	-42491.745000	-35336.790000	-20332.845000	-27.809429	-22.272653	-23.182426	-22.639780	-22.249491	-22.019720	-12.711262	-18.396978	-3.052000	5.798800	-1.358140	0.842283	-0.252868	0.457091	-1.000000	-1.000000	-1.000000	-1.000000	-1.000000	-1.000000	-1.000000	81.172414	0.000000	-1.000000	-1.000000	781268.000000	1774905497.131672
18737.595000	-17091.810000	11964.645000	22827.915000	10492.290000	-42525.180000	-35365.095000	-20355.255000	-11.670127	-6.326891	-9.818446	-9.760895	-10.083870	-9.223172	-5.809712	-7.449186	-3.052000	5.798800	-1.358140	0.842283	-0.252868	0.457091	-1.000000	-1.000000	-1.000000	-1.000000	-1.000000	-1.000000	-1.000000	81.172414	0.000000	-1.000000	-1.000000	781269.000000	1774905497.135734
18718.785000	-17097.435000	11963.070000	22827.015000	10493.460000	-42518.205000	-35364.915000	-20358.045000	1.827709	5.325086	0.833061	1.024230	0.533160	2.143024	-1.239799	0.848703	-3.052000	5.798800	-1.358140	0.842283	-0.252868	0.457091	-1.000000	-1.000000	-1.000000	-1.000000	-1.000000	-1.000000	-1.000000	81.172414	0.000000	-1.000000	-1.000000	781270.000000	1774905497.135742
18739.890000	-17077.590000	11984.670000	22847.085000	10510.380000	-42504.615000	-35355.915000	-20347.110000	8.658062	10.602350	7.505439	8.046963	7.812489	9.847742	1.419138	5.565204	-2.533160	5.600420	-2.090620	0.842222	-0.255309	0.456969	-1.000000	-1.000000	-1.000000	-1.000000	-1.000000	-1.000000	-1.000000	81.172414	0.000000	-1.000000	-1.000000	781271.000000	1774905497.139614
18761.895000	-17083.575000	11982.150000	22845.105000	10499.850000	-42546.600000	-35358.750000	-20341.845000	11.610790	12.826869	12.466498	12.746237	12.653130	13.797709	4.392132	8.686123	-2.533160	5.600420	-2.090620	0.842222	-0.255309	0.456969	-1.000000	-1.000000	-1.000000	-1.000000	-1.000000	-1.000000	-1.000000	81.172414	0.000000	-1.000000	-1.000000	781272.000000	1774905497.139621
18745.155000	-17103.015000	11966.580000	22835.295000	10496.520000	-42550.830000	-35357.625000	-20354.895000	14.294920	13.791476	16.021534	15.141273	14.644211	12.886445	7.861974	10.808448	-2.533160	5.600420	-2.090620	0.842222	-0.255309	0.456969	-1.000000	-1.000000	-1.000000	-1.000000	-1.000000	-1.000000	-1.000000	81.172414	0.000000	-1.000000	-1.000000	781273.000000	1774905497.143756
18723.870000	-17103.150000	11958.390000	22826.430000	10492.380000	-42544.170000	-35364.870000	-20358.540000	14.785360	11.230685	15.051962	13.257444	12.371331	7.284421	9.736002	9.675385	-2.533160	5.600420	-2.090620	0.842222	-0.255309	0.456969	-1.000000	-1.000000	-1.000000	-1.000000	-1.000000	-1.000000	-1.000000	81.172414	0.000000	-1.000000	-1.000000	781274.000000	1774905497.143767
18760.545000	-17075.565000	11963.565000	22833.630000	10501.380000	-42531.840000	-35360.415000	-20346.615000	9.552567	4.249742	7.765751	6.676857	6.292591	0.539589	8.121025	4.033035	-2.533160	5.600420	-2.090620	0.842222	-0.255309	0.456969	-1.000000	-1.000000	-1.000000	-1.000000	-1.000000	-1.000000	-1.000000	81.172414	0.000000	-1.000000	-1.000000	781275.000000	1774905497.155415
18757.980000	-17074.845000	11966.580000	22841.730000	10510.920000	-42520.995000	-35351.820000	-20352.870000	1.268448	-2.807812	-2.197188	-0.948077	-0.134382	-2.867799	3.939124	-2.699454	-2.533160	5.600420	-2.090620	0.842222	-0.255309	0.456969	-1.000000	-1.000000	-1.000000	-1.000000	-1.000000	-1.000000	-1.000000	81.172414	0.000000	-1.000000	-1.000000	781276.000000	1774905497.155428
18722.430000	-17086.095000	11972.025000	22840.470000	10509.120000	-42520.770000	-35346.105000	-20361.645000	-3.904292	-4.571490	-7.768674	-4.048792	-2.428133	-0.576340	0.715245	-5.220334	-2.533160	5.600420	-2.090620	0.842222	-0.255309	0.456969	-1.000000	-1.000000	-1.000000	-1.000000	-1.000000	-1.000000	-1.000000	81.172414	0.000000	-1.000000	-1.000000	781277.000000	1774905497.155442
18766.395000	-17050.365000	12008.655000	22859.730000	10520.910000	-42510.105000	-35334.045000	-20326.680000	-3.141450	0.221483	-4.309933	-0.116306	1.054886	6.022758	1.053121	-1.374921	-2.533160	5.600420	-2.090620	0.842222	-0.255309	0.456969	-1.000000	-1.000000	-1.000000	-1.000000	-1.000000	-1.000000	-1.000000	81.172414	0.000000	-1.000000	-1.000000	781278.000000	1774905497.155447
18796.635000	-17029.755000	12030.660000	22874.130000	10522.845000	-42506.280000	-35333.415000	-20306.250000	2.697926	8.433237	6.120630	7.657782	7.037062	12.075508	3.799026	6.672838	-2.533160	5.600420	-2.090620	0.842222	-0.255309	0.456969	-1.000000	-1.000000	-1.000000	-1.000000	-1.000000	-1.000000	-1.000000	81.172414	0.000000	-1.000000	-1.000000	781279.000000	1774905497.156941
18805.500000	-17024.265000	12034.035000	22880.475000	10524.330000	-42502.860000	-35338.140000	-20310.705000	9.588027	14.244039	15.510165	12.527263	9.611970	12.552951	5.008829	13.523775	-2.533160	5.600420	-2.090620	0.842222	-0.255309	0.456969	-1.000000	-1.000000	-1.000000	-1.000000	-1.000000	-1.000000	-1.000000	81.172414	0.000000	-1.000000	-1.000000	781280.000000	1774905497.156953
18779.040000	-17048.475000	12014.550000	22868.505000	10524.330000	-42507.720000	-35345.880000	-20344.275000	11.130810	12.368876	15.873338	9.537834	5.532426	6.523875	1.835982	13.099422	-1.800680	5.997180	-0.747740	0.841551	-0.258849	0.457885	-1.000000	-1.000000	-1.000000	-1.000000	-1.000000	-1.000000	-1.000000	81.172414	0.000000	-1.000000	-1.000000	781281.000000	1774905497.161357
18772.605000	-17065.080000	11993.130000	22857.885000	10535.760000	-42495.075000	-35342.505000	-20346.390000	3.888060	1.841837	5.265645	-0.748355	-3.020119	-2.659131	-4.698534	3.424410	-1.800680	5.997180	-0.747740	0.841551	-0.258849	0.457885	-1.000000	-1.000000	-1.000000	-1.000000	-1.000000	-1.000000	-1.000000	81.172414	0.000000	-1.000000	-1.000000	781282.000000	1774905497.161367
18802.980000	-17035.875000	12006.045000	22882.005000	10567.260000	-42465.060000	-35330.805000	-20314.755000	-8.435909	-12.698749	-11.052752	-12.783825	-10.635187	-10.528306	-10.585207	-10.332024	-1.800680	5.997180	-0.747740	0.841551	-0.258849	0.457885	-1.000000	-1.000000	-1.000000	-1.000000	-1.000000	-1.000000	-1.000000	81.172414	0.000000	-1.000000	-1.000000	781283.000000	1774905497.172101
18809.145000	-17023.770000	12016.845000	22895.550000	10570.410000	-42462.270000	-35324.235000	-20326.050000	-18.002466	-23.180842	-23.834493	-19.505612	-12.930344	-13.892053	-12.029051	-19.446271	-1.800680	5.997180	-0.747740	0.841551	-0.258849	0.457885	-1.000000	-1.000000	-1.000000	-1.000000	-1.000000	-1.000000	-1.000000	81.172414	0.000000	-1.000000	-1.000000	781284.000000	1774905497.172111
18786.105000	-17036.370000	12030.840000	22885.020000	10543.275000	-42494.940000	-35335.215000	-20354.535000	-19.346355	-23.460649	-25.526722	-17.220264	-9.889954	-12.652758	-8.373995	-19.147067	-1.800680	5.997180	-0.747740	0.841551	-0.258849	0.457885	-1.000000	-1.000000	-1.000000	-1.000000	-1.000000	-1.000000	-1.000000	81.172414	0.000000	-1.000000	-1.000000	781285.000000	1774905497.172122
18757.575000	-17047.305000	12022.875000	22873.095000	10532.430000	-42506.055000	-35326.665000	-20353.275000	-12.786967	-13.884024	-15.427377	-8.205543	-5.090613	-9.425797	-2.113173	-11.351686	-1.800680	5.997180	-0.747740	0.841551	-0.258849	0.457885	-1.000000	-1.000000	-1.000000	-1.000000	-1.000000	-1.000000	-1.000000	81.172414	0.000000	-1.000000	-1.000000	781286.000000	1774905497.172127
18765.270000	-17052.615000	12013.605000	22873.635000	10539.450000	-42494.715000	-35304.075000	-20331.225000	-3.451376	-0.818727	-0.546057	1.609068	-1.530162	-6.126948	3.891358	-1.104374	-1.800680	5.997180	-0.747740	0.841551	-0.258849	0.457885	-1.000000	-1.000000	-1.000000	-1.000000	-1.000000	-1.000000	-1.000000	81.172414	0.000000	-1.000000	-1.000000	781287.000000	1774905497.172134
18765.225000	-17045.055000	12017.655000	22877.145000	10547.055000	-42482.340000	-35315.370000	-20333.430000	3.186106	8.527487	9.974713	7.211402	0.503922	-2.382281	7.887882	7.252503	-1.800680	5.997180	-0.747740	0.841551	-0.258849	0.457885	-1.000000	-1.000000	-1.000000	-1.000000	-1.000000	-1.000000	-1.000000	81.172414	0.000000	-1.000000	-1.000000	781288.000000	1774905497.172138
18763.155000	-17061.525000	11998.845000	22858.560000	10531.395000	-42495.030000	-35347.545000	-20346.705000	5.584115	11.348911	12.149586	7.274127	1.869270	2.420855	8.223222	11.396360	-1.800680	5.997180	-0.747740	0.841551	-0.258849	0.457885	-1.000000	-1.000000	-1.000000	-1.000000	-1.000000	-1.000000	-1.000000	81.172414	0.000000	-1.000000	-1.000000	781289.000000	1774905497.180485
18741.825000	-17079.480000	11980.800000	22840.155000	10511.820000	-42515.145000	-35364.645000	-20362.995000	5.738248	9.416689	8.257685	3.663032	2.413375	6.806287	3.841833	11.077126	-1.800680	5.997180	-0.747740	0.841551	-0.258849	0.457885	-1.000000	-1.000000	-1.000000	-1.000000	-1.000000	-1.000000	-1.000000	81.172414	0.000000	-1.000000	-1.000000	781290.000000	1774905497.180499
18736.245000	-17068.005000	11991.870000	22850.910000	10521.720000	-42507.630000	-35360.505000	-20362.365000	5.475009	5.794624	3.043846	-0.428428	1.372148	7.947281	-3.367583	7.269704	-0.412020	6.195560	-0.473060	0.844480	-0.261535	0.459349	-1.000000	-1.000000	-1.000000	-1.000000	-1.000000	-1.000000	-1.000000	81.172414	0.000000	-1.000000	-1.000000	781291.000000	1774905497.180513
18721.485000	-17107.020000	11930.985000	22804.335000	10485.135000	-42544.755000	-35375.670000	-20375.415000	4.296156	1.865926	-0.735378	-3.024329	-1.213498	4.415205	-9.170065	1.234213	-0.412020	6.195560	-0.473060	0.844480	-0.261535	0.459349	-1.000000	-1.000000	-1.000000	-1.000000	-1.000000	-1.000000	-1.000000	81.172414	0.000000	-1.000000	-1.000000	781292.000000	1774905497.180519
18737.055000	-17114.040000	11902.905000	22788.315000	10479.735000	-42547.500000	-35367.930000	-20370.915000	1.875447	-2.623014	-4.182736	-4.661112	-4.145806	-2.057113	-10.235133	-4.544541	-0.412020	6.195560	-0.473060	0.844480	-0.261535	0.459349	-1.000000	-1.000000	-1.000000	-1.000000	-1.000000	-1.000000	-1.000000	81.172414	0.000000	-1.000000	-1.000000	781293.000000	1774905497.190539
18741.915000	-17093.385000	11946.240000	22821.525000	10502.415000	-42523.920000	-35350.425000	-20357.370000	1.032932	-5.766017	-7.326427	-4.760385	-4.285653	-6.166330	-5.486800	-6.095650	-0.412020	6.195560	-0.473060	0.844480	-0.261535	0.459349	-1.000000	-1.000000	-1.000000	-1.000000	-1.000000	-1.000000	-1.000000	81.172414	0.000000	-1.000000	-1.000000	781294.000000	1774905497.190554
18750.060000	-17064.225000	12007.485000	22860.405000	10523.655000	-42505.245000	-35331.300000	-20337.615000	4.285500	-3.502410	-5.234995	0.060097	1.464868	-2.863677	3.497209	-1.810981	-0.412020	6.195560	-0.473060	0.844480	-0.261535	0.459349	-1.000000	-1.000000	-1.000000	-1.000000	-1.000000	-1.000000	-1.000000	81.172414	0.000000	-1.000000	-1.000000	781295.000000	1774905497.190590
18753.345000	-17066.340000	11983.005000	22845.915000	10511.460000	-42517.305000	-35332.470000	-20330.010000	9.020336	4.319287	4.755884	9.746852	10.863692	6.102992	12.127617	4.786587	-0.412020	6.195560	-0.473060	0.844480	-0.261535	0.459349	-1.000000	-1.000000	-1.000000	-1.000000	-1.000000	-1.000000	-1.000000	81.172414	0.000000	-1.000000	-1.000000	781296.000000	1774905497.190597
18762.930000	-17072.280000	11959.920000	22833.405000	10503.180000	-42525.765000	-35350.965000	-20338.335000	10.160599	11.934030	15.867124	17.484901	16.715338	12.988950	15.426134	8.401634	-0.412020	6.195560	-0.473060	0.844480	-0.261535	0.459349	-1.000000	-1.000000	-1.000000	-1.000000	-1.000000	-1.000000	-1.000000	81.172414	0.000000	-1.000000	-1.000000	781297.000000	1774905497.193870
18747.630000	-17072.505000	11975.040000	22828.860000	10497.915000	-42531.750000	-35361.270000	-20360.430000	5.852734	13.579769	19.000780	16.738356	14.216713	12.322890	11.847599	6.593794	-0.412020	6.195560	-0.473060	0.844480	-0.261535	0.459349	-1.000000	-1.000000	-1.000000	-1.000000	-1.000000	-1.000000	-1.000000	81.172414	0.000000	-1.000000	-1.000000	781298.000000	1774905497.193952
18725.760000	-17083.305000	11989.980000	22826.205000	10489.860000	-42539.805000	-35367.165000	-20380.815000	-1.861744	8.468353	12.991267	7.861615	4.956066	5.111849	3.777989	0.414934	-0.412020	6.195560	-0.473060	0.844480	-0.261535	0.459349	-1.000000	-1.000000	-1.000000	-1.000000	-1.000000	-1.000000	-1.000000	81.172414	0.000000	-1.000000	-1.000000	781299.000000	1774905497.208113
18750.285000	-17067.600000	11988.630000	22840.110000	10514.295000	-42512.805000	-35348.220000	-20364.435000	-9.332308	-0.324981	3.052778	-3.617077	-5.625137	-3.747806	-4.600775	-6.947179	-0.412020	6.195560	-0.473060	0.844480	-0.261535	0.459349	-1.000000	-1.000000	-1.000000	-1.000000	-1.000000	-1.000000	-1.000000	81.172414	0.000000	-1.000000	-1.000000	781300.000000	1774905497.208125
18765.720000	-17068.140000	11974.680000	22844.160000	10522.890000	-42507.495000	-35344.395000	-20353.860000	-12.634349	-8.121810	-5.483069	-11.310248	-11.579259	-8.755187	-9.346210	-11.048476	-0.824040	5.524120	-0.961380	0.844175	-0.259521	0.461486	-1.000000	-1.000000	-1.000000	-1.000000	-1.000000	-1.000000	-1.000000	81.172414	0.000000	-1.000000	-1.000000	781301.000000	1774905497.208139
18760.230000	-17068.005000	11999.250000	22862.160000	10535.175000	-42495.615000	-35337.870000	-20350.890000	-9.940946	-11.153036	-9.767772	-11.652459	-9.940638	-7.272051	-8.962280	-8.855412	-0.824040	5.524120	-0.961380	0.844175	-0.259521	0.461486	-1.000000	-1.000000	-1.000000	-1.000000	-1.000000	-1.000000	-1.000000	81.172414	0.000000	-1.000000	-1.000000	781302.000000	1774905497.208144
18762.660000	-17070.255000	12030.660000	22871.700000	10535.760000	-42497.595000	-35340.795000	-20348.865000	-3.515738	-9.623311	-10.079709	-6.577942	-3.485309	-2.004879	-5.545390	-2.086914	-0.824040	5.524120	-0.961380	0.844175	-0.259521	0.461486	-1.000000	-1.000000	-1.000000	-1.000000	-1.000000	-1.000000	-1.000000	81.172414	0.000000	-1.000000	-1.000000	781303.000000	1774905497.208150
18768.105000	-17070.120000	12017.340000	22859.730000	10523.610000	-42510.915000	-35347.365000	-20345.805000	2.383067	-6.716234	-8.965715	-1.719908	1.662318	1.542831	-2.747803	4.047396	-0.824040	5.524120	-0.961380	0.844175	-0.259521	0.461486	-1.000000	-1.000000	-1.000000	-1.000000	-1.000000	-1.000000	-1.000000	81.172414	0.000000	-1.000000	-1.000000	781304.000000	1774905497.208155
18750.105000	-17084.160000	11992.365000	22844.295000	10513.665000	-42517.575000	-35352.810000	-20355.390000	4.588545	-4.700530	-8.510495	-1.009573	1.673964	0.360842	-2.211828	5.695498	-0.824040	5.524120	-0.961380	0.844175	-0.259521	0.461486	-1.000000	-1.000000	-1.000000	-1.000000	-1.000000	-1.000000	-1.000000	81.172414	0.000000	-1.000000	-1.000000	781305.000000	1774905497.208919
18755.820000	-17055.045000	11998.305000	22859.460000	10534.410000	-42492.060000	-35345.295000	-20333.700000	2.562864	-2.950293	-8.167110	-3.266475	-1.851828	-3.303853	-2.083251	3.605979	-0.824040	5.524120	-0.961380	0.844175	-0.259521	0.461486	-1.000000	-1.000000	-1.000000	-1.000000	-1.000000	-1.000000	-1.000000	81.172414	0.000000	-1.000000	-1.000000	781306.000000	1774905497.208925
18800.370000	-16990.155000	12036.555000	22895.145000	10569.420000	-42456.780000	-35320.680000	-20286.315000	-0.280418	1.489497	-5.544772	-3.806108	-3.726216	-4.171761	0.598839	2.473122	-0.824040	5.524120	-0.961380	0.844175	-0.259521	0.461486	-1.000000	-1.000000	-1.000000	-1.000000	-1.000000	-1.000000	-1.000000	81.172414	0.000000	-1.000000	-1.000000	781307.000000	1774905497.224258
18802.305000	-16986.330000	12050.955000	22894.380000	10569.285000	-42455.520000	-35310.240000	-20306.115000	0.729254	9.833399	0.586398	0.183850	-0.827621	0.147159	6.052665	5.303624	-0.824040	5.524120	-0.961380	0.844175	-0.259521	0.461486	-1.000000	-1.000000	-1.000000	-1.000000	-1.000000	-1.000000	-1.000000	81.172414	0.000000	-1.000000	-1.000000	781308.000000	1774905497.224268
18755.370000	-17072.820000	12003.390000	22843.710000	10516.050000	-42511.005000	-35347.635000	-20369.340000	4.296719	16.182917	7.727449	5.427146	3.441856	5.188724	10.164614	7.607239	-0.824040	5.524120	-0.961380	0.844175	-0.259521	0.461486	-1.000000	-1.000000	-1.000000	-1.000000	-1.000000	-1.000000	-1.000000	81.172414	0.000000	-1.000000	-1.000000	781309.000000	1774905497.224280
18678.375000	-17157.960000	11941.785000	22789.710000	10458.000000	-42572.070000	-35384.085000	-20403.045000	3.014870	10.837223	10.165340	5.204241	2.175830	3.469619	7.482819	2.013566	-0.824040	5.524120	-0.961380	0.844175	-0.259521	0.461486	-1.000000	-1.000000	-1.000000	-1.000000	-1.000000	-1.000000	-1.000000	81.172414	0.000000	-1.000000	-1.000000	781310.000000	1774905497.224285
18696.915000	-17114.490000	11955.735000	22814.640000	10480.680000	-42551.370000	-35372.205000	-20384.550000	-6.170774	-6.840562	4.021312	-2.598113	-6.196851	-6.331034	-2.426535	-10.693767	-4.471180	4.349100	-1.266580	0.840025	-0.252502	0.462767	-1.000000	-1.000000	-1.000000	-1.000000	-1.000000	-1.000000	-1.000000	81.172414	0.000000	-1.000000	-1.000000	781311.000000	1774905497.224291
18743.220000	-17083.080000	11973.195000	22823.775000	10489.095000	-42542.235000	-35361.270000	-20364.705000	-15.415679	-23.441503	-7.084022	-11.617984	-14.292223	-15.931302	-12.696191	-20.578940	-4.471180	4.349100	-1.266580	0.840025	-0.252502	0.462767	-1.000000	-1.000000	-1.000000	-1.000000	-1.000000	-1.000000	-1.000000	81.172414	0.000000	-1.000000	-1.000000	781312.000000	1774905497.224296
18763.200000	-17091.045000	11971.935000	22822.560000	10490.265000	-42537.645000	-35358.390000	-20354.895000	-14.030974	-24.782346	-13.752281	-13.158079	-13.343859	-15.590962	-15.282344	-18.840086	-4.471180	4.349100	-1.266580	0.840025	-0.252502	0.462767	-1.000000	-1.000000	-1.000000	-1.000000	-1.000000	-1.000000	-1.000000	81.172414	0.000000	-1.000000	-1.000000	781313.000000	1774905497.224301
18770.580000	-17083.170000	11979.180000	22834.080000	10502.775000	-42524.685000	-35355.780000	-20340.630000	-0.547114	-10.012233	-9.455829	-4.636511	-2.182234	-3.823472	-8.150126	-5.576597	-4.471180	4.349100	-1.266580	0.840025	-0.252502	0.462767	-1.000000	-1.000000	-1.000000	-1.000000	-1.000000	-1.000000	-1.000000	81.172414	0.000000	-1.000000	-1.000000	781314.000000	1774905497.224306
18833.985000	-17013.285000	12045.555000	22906.845000	10576.305000	-42451.245000	-35293.725000	-20251.305000	16.766686	10.662776	4.133212	9.591995	13.209798	12.829978	4.634680	12.298918	-4.471180	4.349100	-1.266580	0.840025	-0.252502	0.462767	-1.000000	-1.000000	-1.000000	-1.000000	-1.000000	-1.000000	-1.000000	81.172414	0.000000	-1.000000	-1.000000	781315.000000	1774905497.240663
