Channel1	Channel2	Channel3	Channel4	Channel5	Channel6	Channel7	Channel8	FilteredChannel1	FilteredChannel2	FilteredChannel3	FilteredChannel4	FilteredChannel5	FilteredChannel6	FilteredChannel7	FilteredChannel8	GyroX	GyroY	GyroZ	AccX	AccY	AccZ	PPG1	PPG2	rawPPG1	rawPPG2	rawPPG3	Hr	Hrv	Battery	Trigger	PhysicalTrigger	AutoTrigger	NumMeasurements	Timestamp
-21570.615000	-14552.280000	-20776.590000	-15897.375000	-22045.140000	-15631.515000	-3503.340000	-8762.175000	17.368441	3.087928	-0.619395	-2.467023	-3.788872	-2.681236	2.225990	15.749159	-2.365300	4.959500	-0.488320	0.895261	-0.270812	0.348022	-1.000000	-1.000000	-1.000000	-1.000000	-1.000000	-1.000000	-1.000000	68.206897	0.000000	-1.000000	-1.000000	2789060.000000	1770067075.751025
-21585.915000	-14563.845000	-20781.540000	-15892.740000	-22035.150000	-15622.020000	-3499.605000	-8790.885000	20.534022	8.718199	6.650669	3.606727	1.684634	2.271846	5.329168	17.092612	0.854560	8.347220	1.434440	0.895750	-0.271301	0.345153	-1.000000	-1.000000	-1.000000	-1.000000	-1.000000	-1.000000	-1.000000	68.206897	0.000000	-1.000000	-1.000000	2789061.000000	1770067075.755508
-21581.820000	-14585.400000	-20793.825000	-15893.460000	-22041.630000	-15630.930000	-3510.765000	-8797.545000	17.470265	10.921741	11.161657	8.033291	6.190321	6.065064	6.427804	10.973942	0.854560	8.347220	1.434440	0.895750	-0.271301	0.345153	-1.000000	-1.000000	-1.000000	-1.000000	-1.000000	-1.000000	-1.000000	68.206897	0.000000	-1.000000	-1.000000	2789062.000000	1770067075.755518
-21568.680000	-14577.975000	-20790.405000	-15894.855000	-22045.410000	-15634.530000	-3512.745000	-8783.505000	9.468805	8.115940	11.127803	9.972572	8.544926	7.622006	5.100667	1.104311	0.854560	8.347220	1.434440	0.895750	-0.271301	0.345153	-1.000000	-1.000000	-1.000000	-1.000000	-1.000000	-1.000000	-1.000000	68.206897	0.000000	-1.000000	-1.000000	2789063.000000	1770067075.761561
-21573.990000	-14569.335000	-20791.755000	-15910.470000	-22056.840000	-15642.810000	-3518.145000	-8776.080000	0.101770	2.671736	7.594509	9.173264	8.142273	6.595809	2.067041	-6.136906	0.854560	8.347220	1.434440	0.895750	-0.271301	0.345153	-1.000000	-1.000000	-1.000000	-1.000000	-1.000000	-1.000000	-1.000000	68.206897	0.000000	-1.000000	-1.000000	2789064.000000	1770067075.761572
-21588.300000	-14576.760000	-20784.195000	-15905.340000	-22050.495000	-15638.715000	-3516.300000	-8770.230000	-7.847415	-1.808210	2.877527	5.664637	5.106110	3.486257	-1.203118	-7.174092	0.854560	8.347220	1.434440	0.895750	-0.271301	0.345153	-1.000000	-1.000000	-1.000000	-1.000000	-1.000000	-1.000000	-1.000000	68.206897	0.000000	-1.000000	-1.000000	2789065.000000	1770067075.763146
-21587.940000	-14560.200000	-20803.005000	-15906.690000	-22050.720000	-15639.660000	-3513.375000	-8751.375000	-13.351355	-3.752547	-1.539814	0.524098	0.684908	-0.365037	-3.296953	-3.780992	0.854560	8.347220	1.434440	0.895750	-0.271301	0.345153	-1.000000	-1.000000	-1.000000	-1.000000	-1.000000	-1.000000	-1.000000	68.206897	0.000000	-1.000000	-1.000000	2789066.000000	1770067075.763157
-21586.590000	-14558.400000	-20806.245000	-15905.430000	-22050.540000	-15635.160000	-3505.770000	-8760.105000	-15.761657	-3.488143	-5.532012	-4.402947	-3.401964	-3.504050	-3.550348	-0.589808	0.854560	8.347220	1.434440	0.895750	-0.271301	0.345153	-1.000000	-1.000000	-1.000000	-1.000000	-1.000000	-1.000000	-1.000000	68.206897	0.000000	-1.000000	-1.000000	2789067.000000	1770067075.767087
-21610.980000	-14578.830000	-20806.290000	-15913.485000	-22062.600000	-15643.890000	-3508.695000	-8781.390000	-14.347445	-2.357238	-8.636773	-7.565677	-6.020187	-5.090519	-2.226531	-0.881871	0.854560	8.347220	1.434440	0.895750	-0.271301	0.345153	-1.000000	-1.000000	-1.000000	-1.000000	-1.000000	-1.000000	-1.000000	68.206897	0.000000	-1.000000	-1.000000	2789068.000000	1770067075.767098
-21605.535000	-14571.405000	-20800.215000	-15910.380000	-22061.520000	-15646.995000	-3515.355000	-8788.185000	-9.069873	-1.963201	-9.313518	-8.271891	-7.001642	-5.291261	-0.522600	-3.940948	0.854560	8.347220	1.434440	0.895750	-0.271301	0.345153	-1.000000	-1.000000	-1.000000	-1.000000	-1.000000	-1.000000	-1.000000	68.206897	0.000000	-1.000000	-1.000000	2789069.000000	1770067075.770922
-21592.620000	-14567.670000	-20798.190000	-15908.220000	-22056.480000	-15643.440000	-3510.990000	-8778.690000	-0.737405	-2.110448	-6.393640	-6.514261	-6.337377	-4.558033	0.340716	-5.813788	0.854560	8.347220	1.434440	0.895750	-0.271301	0.345153	-1.000000	-1.000000	-1.000000	-1.000000	-1.000000	-1.000000	-1.000000	68.206897	0.000000	-1.000000	-1.000000	2789070.000000	1770067075.770932
-21583.440000	-14569.920000	-20802.015000	-15910.920000	-22056.930000	-15642.180000	-3507.480000	-8770.320000	8.603642	-1.032586	-0.405138	-2.669224	-3.520617	-2.520233	0.577277	-3.347820	2.090620	9.049180	0.320460	0.893247	-0.270446	0.347289	-1.000000	-1.000000	-1.000000	-1.000000	-1.000000	-1.000000	-1.000000	68.206897	0.000000	-1.000000	-1.000000	2789071.000000	1770067075.775108
-21574.620000	-14568.840000	-20796.030000	-15903.225000	-22048.605000	-15632.955000	-3500.595000	-8764.065000	15.303472	1.398980	6.106729	2.282518	1.375573	1.204196	1.239263	2.419714	2.090620	9.049180	0.320460	0.893247	-0.270446	0.347289	-1.000000	-1.000000	-1.000000	-1.000000	-1.000000	-1.000000	-1.000000	68.206897	0.000000	-1.000000	-1.000000	2789072.000000	1770067075.775118
-21578.130000	-14566.590000	-20792.970000	-15901.020000	-22045.950000	-15630.930000	-3499.785000	-8767.530000	16.248140	3.240683	9.990074	6.851034	6.729822	5.589159	2.464535	7.390830	2.090620	9.049180	0.320460	0.893247	-0.270446	0.347289	-1.000000	-1.000000	-1.000000	-1.000000	-1.000000	-1.000000	-1.000000	68.206897	0.000000	-1.000000	-1.000000	2789073.000000	1770067075.780336
-21597.345000	-14573.565000	-20796.795000	-15903.495000	-22049.100000	-15634.935000	-3504.150000	-8780.130000	10.981220	2.980754	9.543399	9.211967	9.825755	8.279584	3.138362	7.825915	2.090620	9.049180	0.320460	0.893247	-0.270446	0.347289	-1.000000	-1.000000	-1.000000	-1.000000	-1.000000	-1.000000	-1.000000	68.206897	0.000000	-1.000000	-1.000000	2789074.000000	1770067075.780342
-21577.140000	-14566.770000	-20794.050000	-15903.855000	-22051.530000	-15636.780000	-3506.310000	-8769.690000	1.710786	0.608737	5.372993	7.791528	8.470340	7.162486	1.944275	2.855602	2.090620	9.049180	0.320460	0.893247	-0.270446	0.347289	-1.000000	-1.000000	-1.000000	-1.000000	-1.000000	-1.000000	-1.000000	68.206897	0.000000	-1.000000	-1.000000	2789075.000000	1770067075.784999
-21578.445000	-14559.975000	-20786.085000	-15900.570000	-22048.830000	-15631.740000	-3506.130000	-8766.180000	-7.117693	-2.296800	-0.026132	2.967352	3.127599	2.466037	-1.116732	-4.131877	2.090620	9.049180	0.320460	0.893247	-0.270446	0.347289	-1.000000	-1.000000	-1.000000	-1.000000	-1.000000	-1.000000	-1.000000	68.206897	0.000000	-1.000000	-1.000000	2789076.000000	1770067075.785009
-21606.390000	-14558.310000	-20786.445000	-15899.265000	-22040.055000	-15624.675000	-3505.680000	-8788.140000	-11.411376	-3.307184	-4.120315	-2.657682	-2.970351	-2.956357	-4.272929	-7.902621	2.090620	9.049180	0.320460	0.893247	-0.270446	0.347289	-1.000000	-1.000000	-1.000000	-1.000000	-1.000000	-1.000000	-1.000000	68.206897	0.000000	-1.000000	-1.000000	2789077.000000	1770067075.787099
-21648.105000	-14564.295000	-20792.295000	-15897.735000	-22040.370000	-15626.115000	-3508.380000	-8820.720000	-11.333387	-1.743808	-6.061790	-6.384239	-6.561296	-6.062259	-5.458793	-6.822895	2.090620	9.049180	0.320460	0.893247	-0.270446	0.347289	-1.000000	-1.000000	-1.000000	-1.000000	-1.000000	-1.000000	-1.000000	68.206897	0.000000	-1.000000	-1.000000	2789078.000000	1770067075.787108
-21670.425000	-14577.480000	-20799.720000	-15900.615000	-22044.870000	-15629.535000	-3510.135000	-8851.365000	-10.298450	0.496075	-6.266093	-7.091741	-6.773943	-5.998295	-4.087870	-4.018549	2.090620	9.049180	0.320460	0.893247	-0.270446	0.347289	-1.000000	-1.000000	-1.000000	-1.000000	-1.000000	-1.000000	-1.000000	68.206897	0.000000	-1.000000	-1.000000	2789079.000000	1770067075.792243
-21599.145000	-14566.995000	-20800.170000	-15905.070000	-22049.505000	-15631.830000	-3509.505000	-8817.300000	-8.923799	1.466987	-5.196123	-5.261207	-4.823667	-3.953435	-1.219931	-2.331554	2.090620	9.049180	0.320460	0.893247	-0.270446	0.347289	-1.000000	-1.000000	-1.000000	-1.000000	-1.000000	-1.000000	-1.000000	68.206897	0.000000	-1.000000	-1.000000	2789080.000000	1770067075.792254
-21543.930000	-14575.815000	-20796.255000	-15910.380000	-22056.615000	-15639.390000	-3509.640000	-8743.905000	-2.941555	0.961385	-3.153438	-2.366549	-2.457862	-1.695377	1.552320	0.297805	0.228900	6.546540	1.449700	0.889402	-0.267944	0.351195	-1.000000	-1.000000	-1.000000	-1.000000	-1.000000	-1.000000	-1.000000	68.206897	0.000000	-1.000000	-1.000000	2789081.000000	1770067075.797393
-21554.280000	-14568.345000	-20786.670000	-15905.250000	-22053.150000	-15635.925000	-3502.845000	-8726.985000	9.464925	-0.128926	-0.439412	0.178301	-0.767238	-0.315063	3.254154	7.473273	0.228900	6.546540	1.449700	0.889402	-0.267944	0.351195	-1.000000	-1.000000	-1.000000	-1.000000	-1.000000	-1.000000	-1.000000	68.206897	0.000000	-1.000000	-1.000000	2789082.000000	1770067075.797404
-21567.015000	-14551.740000	-20782.755000	-15898.140000	-22047.840000	-15631.155000	-3499.785000	-8744.940000	21.426481	-0.583493	2.591117	1.967659	0.394771	0.440949	3.875407	16.429122	0.228900	6.546540	1.449700	0.889402	-0.267944	0.351195	-1.000000	-1.000000	-1.000000	-1.000000	-1.000000	-1.000000	-1.000000	68.206897	0.000000	-1.000000	-1.000000	2789083.000000	1770067075.798962
-21584.070000	-14558.940000	-20791.620000	-15894.045000	-22044.510000	-15627.690000	-3503.205000	-8769.195000	23.009923	0.181143	4.956512	3.248810	1.742684	1.394511	3.618298	18.537911	0.228900	6.546540	1.449700	0.889402	-0.267944	0.351195	-1.000000	-1.000000	-1.000000	-1.000000	-1.000000	-1.000000	-1.000000	68.206897	0.000000	-1.000000	-1.000000	2789084.000000	1770067075.798970
-21585.240000	-14562.810000	-20788.830000	-15891.120000	-22040.190000	-15622.920000	-3502.710000	-8770.815000	11.648652	1.158242	5.129365	3.961538	3.288196	2.598100	2.392315	9.312239	0.228900	6.546540	1.449700	0.889402	-0.267944	0.351195	-1.000000	-1.000000	-1.000000	-1.000000	-1.000000	-1.000000	-1.000000	68.206897	0.000000	-1.000000	-1.000000	2789085.000000	1770067075.803115
-21569.805000	-14560.740000	-20787.435000	-15893.505000	-22041.720000	-15623.640000	-3503.295000	-8768.700000	-4.810963	1.070035	2.811279	3.611360	4.105025	3.286149	0.417298	-5.690818	0.228900	6.546540	1.449700	0.889402	-0.267944	0.351195	-1.000000	-1.000000	-1.000000	-1.000000	-1.000000	-1.000000	-1.000000	68.206897	0.000000	-1.000000	-1.000000	2789086.000000	1770067075.803125
-21568.995000	-14550.120000	-20777.490000	-15884.190000	-22032.360000	-15615.315000	-3501.405000	-8785.980000	-15.215880	0.303311	-0.148131	2.070766	3.479661	2.941447	-1.456378	-16.444068	0.228900	6.546540	1.449700	0.889402	-0.267944	0.351195	-1.000000	-1.000000	-1.000000	-1.000000	-1.000000	-1.000000	-1.000000	68.206897	0.000000	-1.000000	-1.000000	2789087.000000	1770067075.807429
-21570.570000	-14562.000000	-20794.005000	-15902.145000	-22049.865000	-15630.750000	-3508.740000	-8775.045000	-15.169015	0.090130	-1.693589	-0.055655	1.714541	1.733068	-2.483976	-17.584697	0.228900	6.546540	1.449700	0.889402	-0.267944	0.351195	-1.000000	-1.000000	-1.000000	-1.000000	-1.000000	-1.000000	-1.000000	68.206897	0.000000	-1.000000	-1.000000	2789088.000000	1770067075.807436
-21578.805000	-14577.030000	-20810.475000	-15918.570000	-22065.120000	-15644.295000	-3510.180000	-8747.100000	-9.979161	0.087850	-2.027410	-2.332118	-0.739622	-0.251834	-2.687784	-11.205615	0.228900	6.546540	1.449700	0.889402	-0.267944	0.351195	-1.000000	-1.000000	-1.000000	-1.000000	-1.000000	-1.000000	-1.000000	68.206897	0.000000	-1.000000	-1.000000	2789089.000000	1770067075.810973
-21576.285000	-14569.605000	-20804.265000	-15912.090000	-22058.415000	-15638.355000	-3508.200000	-8751.375000	-7.120121	-0.892318	-2.661976	-4.414782	-3.361999	-2.707878	-2.408127	-3.473340	0.228900	6.546540	1.449700	0.889402	-0.267944	0.351195	-1.000000	-1.000000	-1.000000	-1.000000	-1.000000	-1.000000	-1.000000	68.206897	0.000000	-1.000000	-1.000000	2789090.000000	1770067075.810985
-21574.350000	-14556.105000	-20790.720000	-15897.870000	-22043.610000	-15624.630000	-3501.180000	-8757.495000	-7.281978	-2.267902	-3.440221	-5.014789	-4.617643	-4.113897	-1.651175	0.719581	-2.609460	3.586100	0.076300	0.886228	-0.268066	0.354796	-1.000000	-1.000000	-1.000000	-1.000000	-1.000000	-1.000000	-1.000000	68.206897	0.000000	-1.000000	-1.000000	2789091.000000	1770067075.818598
-21567.735000	-14543.145000	-20775.195000	-15882.165000	-22029.030000	-15611.175000	-3496.455000	-8754.930000	-5.638702	-2.360815	-2.505236	-2.846190	-3.009364	-2.896809	-0.263190	1.410843	-2.609460	3.586100	0.076300	0.886228	-0.268066	0.354796	-1.000000	-1.000000	-1.000000	-1.000000	-1.000000	-1.000000	-1.000000	68.206897	0.000000	-1.000000	-1.000000	2789092.000000	1770067075.818612
-21577.050000	-14551.920000	-20776.995000	-15883.785000	-22030.065000	-15612.570000	-3499.515000	-8766.045000	0.476944	-0.652638	0.893510	1.440465	0.887572	0.503586	1.492524	1.823822	-2.609460	3.586100	0.076300	0.886228	-0.268066	0.354796	-1.000000	-1.000000	-1.000000	-1.000000	-1.000000	-1.000000	-1.000000	68.206897	0.000000	-1.000000	-1.000000	2789093.000000	1770067075.818897
-21605.040000	-14574.645000	-20800.755000	-15907.365000	-22052.880000	-15636.330000	-3515.715000	-8795.070000	8.194987	1.386322	4.489342	4.928580	4.100961	3.319729	2.547818	3.349799	-2.609460	3.586100	0.076300	0.886228	-0.268066	0.354796	-1.000000	-1.000000	-1.000000	-1.000000	-1.000000	-1.000000	-1.000000	68.206897	0.000000	-1.000000	-1.000000	2789094.000000	1770067075.818908
-21620.565000	-14583.960000	-20804.130000	-15911.595000	-22060.215000	-15646.860000	-3528.000000	-8814.285000	12.103567	1.430721	4.816759	4.630482	3.560662	2.663842	1.644468	4.359777	-2.609460	3.586100	0.076300	0.886228	-0.268066	0.354796	-1.000000	-1.000000	-1.000000	-1.000000	-1.000000	-1.000000	-1.000000	68.206897	0.000000	-1.000000	-1.000000	2789095.000000	1770067075.827806
-21625.515000	-14597.145000	-20800.350000	-15905.700000	-22052.295000	-15638.670000	-3521.790000	-8802.495000	9.731994	-1.054828	1.384193	0.788131	-0.446504	-1.155320	-0.930220	3.870661	-2.609460	3.586100	0.076300	0.886228	-0.268066	0.354796	-1.000000	-1.000000	-1.000000	-1.000000	-1.000000	-1.000000	-1.000000	68.206897	0.000000	-1.000000	-1.000000	2789096.000000	1770067075.827817
-21616.110000	-14584.815000	-20805.210000	-15907.320000	-22050.945000	-15631.965000	-3507.300000	-8784.090000	3.459360	-3.689634	-2.533690	-2.909348	-3.983411	-4.245434	-2.739053	2.978324	-2.609460	3.586100	0.076300	0.886228	-0.268066	0.354796	-1.000000	-1.000000	-1.000000	-1.000000	-1.000000	-1.000000	-1.000000	68.206897	0.000000	-1.000000	-1.000000	2789097.000000	1770067075.827993
-21598.875000	-14560.200000	-20795.805000	-15899.220000	-22042.980000	-15622.650000	-3500.280000	-8785.080000	-2.265340	-2.982032	-3.555272	-3.081957	-3.506194	-3.071204	-1.521268	2.095530	-2.609460	3.586100	0.076300	0.886228	-0.268066	0.354796	-1.000000	-1.000000	-1.000000	-1.000000	-1.000000	-1.000000	-1.000000	68.206897	0.000000	-1.000000	-1.000000	2789098.000000	1770067075.828004
-21548.295000	-14566.005000	-20793.465000	-15905.700000	-22052.745000	-15634.845000	-3509.280000	-8756.505000	-3.477152	1.862913	-1.352497	-0.047093	0.368039	1.548575	1.927793	0.891571	-2.609460	3.586100	0.076300	0.886228	-0.268066	0.354796	-1.000000	-1.000000	-1.000000	-1.000000	-1.000000	-1.000000	-1.000000	68.206897	0.000000	-1.000000	-1.000000	2789099.000000	1770067075.831085
-21517.020000	-14562.360000	-20790.855000	-15911.055000	-22052.160000	-15632.325000	-3502.035000	-8723.565000	1.465295	7.000390	1.573160	2.650540	3.629339	5.185380	4.427253	0.891180	-2.609460	3.586100	0.076300	0.886228	-0.268066	0.354796	-1.000000	-1.000000	-1.000000	-1.000000	-1.000000	-1.000000	-1.000000	68.206897	0.000000	-1.000000	-1.000000	2789100.000000	1770067075.831092
-21570.480000	-14550.345000	-20776.410000	-15882.345000	-22029.570000	-15611.940000	-3493.710000	-8745.930000	8.746494	8.080922	2.773603	2.431370	3.550237	4.864554	4.078417	3.286693	-1.983800	3.113040	-0.778260	0.887144	-0.271667	0.354430	-1.000000	-1.000000	-1.000000	-1.000000	-1.000000	-1.000000	-1.000000	68.206897	0.000000	-1.000000	-1.000000	2789101.000000	1770067075.836915
-21573.360000	-14534.280000	-20763.765000	-15865.830000	-22014.315000	-15600.420000	-3495.015000	-8774.640000	10.741395	5.287308	2.391560	0.877685	1.651133	2.139589	1.830192	5.334695	-1.983800	3.113040	-0.778260	0.887144	-0.271667	0.354430	-1.000000	-1.000000	-1.000000	-1.000000	-1.000000	-1.000000	-1.000000	68.206897	0.000000	-1.000000	-1.000000	2789102.000000	1770067075.836928
-21584.970000	-14535.990000	-20762.640000	-15869.070000	-22016.520000	-15601.095000	-3495.645000	-8790.750000	4.442221	1.967547	2.197115	1.019223	0.996586	0.379105	-0.334527	3.454111	-1.983800	3.113040	-0.778260	0.887144	-0.271667	0.354430	-1.000000	-1.000000	-1.000000	-1.000000	-1.000000	-1.000000	-1.000000	68.206897	0.000000	-1.000000	-1.000000	2789103.000000	1770067075.839189
-21595.680000	-14562.630000	-20794.815000	-15905.340000	-22051.350000	-15628.185000	-3504.465000	-8778.015000	-5.735425	-0.293806	2.163363	2.265564	1.515244	0.235758	-1.441364	-1.728957	-1.983800	3.113040	-0.778260	0.887144	-0.271667	0.354430	-1.000000	-1.000000	-1.000000	-1.000000	-1.000000	-1.000000	-1.000000	68.206897	0.000000	-1.000000	-1.000000	2789104.000000	1770067075.839199
-21573.585000	-14573.880000	-20815.470000	-15930.585000	-22077.990000	-15650.955000	-3513.510000	-8749.980000	-13.392449	-2.773988	-0.001931	0.864563	-0.031304	-0.900554	-2.161239	-6.245554	-1.983800	3.113040	-0.778260	0.887144	-0.271667	0.354430	-1.000000	-1.000000	-1.000000	-1.000000	-1.000000	-1.000000	-1.000000	68.206897	0.000000	-1.000000	-1.000000	2789105.000000	1770067075.843167
-21579.795000	-14568.705000	-20805.345000	-15917.895000	-22064.580000	-15640.560000	-3511.350000	-8768.340000	-14.857105	-6.320762	-4.650877	-4.166268	-4.725297	-4.518108	-3.548037	-7.674924	-1.983800	3.113040	-0.778260	0.887144	-0.271667	0.354430	-1.000000	-1.000000	-1.000000	-1.000000	-1.000000	-1.000000	-1.000000	68.206897	0.000000	-1.000000	-1.000000	2789106.000000	1770067075.843177
-21578.940000	-14561.190000	-20797.020000	-15908.580000	-22055.850000	-15632.505000	-3506.625000	-8759.745000	-10.996200	-9.375158	-8.354788	-8.678769	-8.770588	-7.948991	-5.047433	-7.025278	-1.983800	3.113040	-0.778260	0.887144	-0.271667	0.354430	-1.000000	-1.000000	-1.000000	-1.000000	-1.000000	-1.000000	-1.000000	68.206897	0.000000	-1.000000	-1.000000	2789107.000000	1770067075.848297
-21588.570000	-14567.670000	-20801.385000	-15912.540000	-22059.270000	-15635.970000	-3512.565000	-8769.510000	-5.894174	-9.600610	-7.908456	-8.291220	-7.964505	-7.511238	-4.933112	-6.109335	-1.983800	3.113040	-0.778260	0.887144	-0.271667	0.354430	-1.000000	-1.000000	-1.000000	-1.000000	-1.000000	-1.000000	-1.000000	68.206897	0.000000	-1.000000	-1.000000	2789108.000000	1770067075.848313
-21587.040000	-14567.445000	-20801.385000	-15912.495000	-22059.135000	-15636.690000	-3514.995000	-8770.770000	-2.400083	-6.399885	-3.732883	-3.180091	-2.587436	-3.045015	-2.759010	-5.414000	-1.983800	3.113040	-0.778260	0.887144	-0.271667	0.354430	-1.000000	-1.000000	-1.000000	-1.000000	-1.000000	-1.000000	-1.000000	68.206897	0.000000	-1.000000	-1.000000	2789109.000000	1770067075.852762
-21599.325000	-14567.985000	-20794.680000	-15902.100000	-22047.255000	-15624.855000	-3507.840000	-8786.295000	0.700728	-1.352806	1.358571	2.810536	3.509577	2.337017	0.291850	-3.749004	-1.983800	3.113040	-0.778260	0.887144	-0.271667	0.354430	-1.000000	-1.000000	-1.000000	-1.000000	-1.000000	-1.000000	-1.000000	68.206897	0.000000	-1.000000	-1.000000	2789110.000000	1770067075.852772
-21597.615000	-14573.880000	-20795.850000	-15902.415000	-22047.615000	-15626.295000	-3508.920000	-8789.625000	5.584689	3.315545	4.992318	6.297748	7.042644	5.844430	3.164380	0.586876	1.144500	6.348160	-1.098720	0.890012	-0.274169	0.351745	-1.000000	-1.000000	-1.000000	-1.000000	-1.000000	-1.000000	-1.000000	68.206897	0.000000	-1.000000	-1.000000	2789111.000000	1770067075.856388
-21592.890000	-14587.740000	-20792.205000	-15897.690000	-22043.745000	-15623.910000	-3506.490000	-8771.490000	11.439798	6.160842	6.555826	6.885948	7.543927	6.919831	5.376974	7.385917	1.144500	6.348160	-1.098720	0.890012	-0.274169	0.351745	-1.000000	-1.000000	-1.000000	-1.000000	-1.000000	-1.000000	-1.000000	68.206897	0.000000	-1.000000	-1.000000	2789112.000000	1770067075.856395
-21584.430000	-14582.205000	-20784.285000	-15889.095000	-22035.195000	-15615.360000	-3498.120000	-8759.430000	15.272474	7.248649	7.035231	6.511344	6.770264	6.700404	6.562531	13.592405	1.144500	6.348160	-1.098720	0.890012	-0.274169	0.351745	-1.000000	-1.000000	-1.000000	-1.000000	-1.000000	-1.000000	-1.000000	68.206897	0.000000	-1.000000	-1.000000	2789113.000000	1770067075.859171
-21587.985000	-14547.780000	-20784.285000	-15891.525000	-22037.895000	-15617.790000	-3501.630000	-8783.100000	14.175866	7.909120	7.407294	6.663313	6.269884	6.273969	6.338972	14.609163	1.144500	6.348160	-1.098720	0.890012	-0.274169	0.351745	-1.000000	-1.000000	-1.000000	-1.000000	-1.000000	-1.000000	-1.000000	68.206897	0.000000	-1.000000	-1.000000	2789114.000000	1770067075.859179
-21570.390000	-14545.440000	-20794.140000	-15902.370000	-22046.715000	-15624.990000	-3504.870000	-8775.405000	7.544902	8.705026	6.539211	5.924624	4.972313	4.817282	4.135590	8.214529	1.144500	6.348160	-1.098720	0.890012	-0.274169	0.351745	-1.000000	-1.000000	-1.000000	-1.000000	-1.000000	-1.000000	-1.000000	68.206897	0.000000	-1.000000	-1.000000	2789115.000000	1770067075.866744
-21570.390000	-14554.935000	-20794.275000	-15903.990000	-22049.550000	-15628.455000	-3508.965000	-8773.065000	-1.696024	7.837198	2.431918	1.834840	0.774375	0.792372	-0.053323	-2.277544	1.144500	6.348160	-1.098720	0.890012	-0.274169	0.351745	-1.000000	-1.000000	-1.000000	-1.000000	-1.000000	-1.000000	-1.000000	68.206897	0.000000	-1.000000	-1.000000	2789116.000000	1770067075.866756
-21575.970000	-14554.305000	-20792.520000	-15902.640000	-22047.885000	-15626.430000	-3507.255000	-8764.605000	-9.477948	3.373396	-4.149837	-4.873331	-5.574953	-4.941807	-4.650634	-10.673375	1.144500	6.348160	-1.098720	0.890012	-0.274169	0.351745	-1.000000	-1.000000	-1.000000	-1.000000	-1.000000	-1.000000	-1.000000	68.206897	0.000000	-1.000000	-1.000000	2789117.000000	1770067075.867066
-21580.425000	-14551.065000	-20787.705000	-15896.070000	-22040.370000	-15619.455000	-3504.420000	-8770.680000	-13.052909	-3.612788	-9.666792	-10.465701	-10.617883	-9.340391	-7.350907	-12.710435	1.144500	6.348160	-1.098720	0.890012	-0.274169	0.351745	-1.000000	-1.000000	-1.000000	-1.000000	-1.000000	-1.000000	-1.000000	68.206897	0.000000	-1.000000	-1.000000	2789118.000000	1770067075.867074
-21603.015000	-14552.190000	-20783.700000	-15891.435000	-22037.040000	-15618.285000	-3504.375000	-8790.840000	-11.657857	-9.690995	-11.140698	-11.894756	-11.573810	-10.080241	-6.956734	-8.299596	1.144500	6.348160	-1.098720	0.890012	-0.274169	0.351745	-1.000000	-1.000000	-1.000000	-1.000000	-1.000000	-1.000000	-1.000000	68.206897	0.000000	-1.000000	-1.000000	2789119.000000	1770067075.871069
-21600.315000	-14553.000000	-20782.755000	-15889.905000	-22037.040000	-15618.150000	-3504.915000	-8787.105000	-6.914515	-11.810851	-8.082304	-8.620484	-8.109197	-7.004123	-4.005445	-1.032262	1.144500	6.348160	-1.098720	0.890012	-0.274169	0.351745	-1.000000	-1.000000	-1.000000	-1.000000	-1.000000	-1.000000	-1.000000	68.206897	0.000000	-1.000000	-1.000000	2789120.000000	1770067075.871080
-21593.610000	-14573.880000	-20799.945000	-15904.935000	-22051.125000	-15631.875000	-3519.450000	-8790.525000	-1.370194	-9.228722	-2.448068	-2.481862	-2.120029	-1.831149	-0.320548	4.454034	-0.518840	6.332900	-1.602300	0.889402	-0.272643	0.350768	-1.000000	-1.000000	-1.000000	-1.000000	-1.000000	-1.000000	-1.000000	68.206897	0.000000	-1.000000	-1.000000	2789121.000000	1770067075.875119
-21597.615000	-14590.935000	-20817.675000	-15925.005000	-22070.430000	-15650.640000	-3537.270000	-8816.805000	3.095698	-4.376417	2.389562	3.095550	3.183432	2.601820	1.785346	5.094656	-0.518840	6.332900	-1.602300	0.889402	-0.272643	0.350768	-1.000000	-1.000000	-1.000000	-1.000000	-1.000000	-1.000000	-1.000000	68.206897	0.000000	-1.000000	-1.000000	2789122.000000	1770067075.875130
-21597.975000	-14575.455000	-20803.095000	-15911.055000	-22054.590000	-15634.710000	-3519.090000	-8798.040000	5.171504	-0.898971	4.248581	5.570326	5.538926	4.379382	1.519005	1.474301	-0.518840	6.332900	-1.602300	0.889402	-0.272643	0.350768	-1.000000	-1.000000	-1.000000	-1.000000	-1.000000	-1.000000	-1.000000	68.206897	0.000000	-1.000000	-1.000000	2789123.000000	1770067075.879056
-21594.375000	-14567.670000	-20795.220000	-15903.270000	-22045.590000	-15623.730000	-3504.645000	-8784.135000	4.496033	0.457435	4.074477	5.520549	5.616612	4.393938	0.941495	-2.139701	-0.518840	6.332900	-1.602300	0.889402	-0.272643	0.350768	-1.000000	-1.000000	-1.000000	-1.000000	-1.000000	-1.000000	-1.000000	68.206897	0.000000	-1.000000	-1.000000	2789124.000000	1770067075.879065
-21606.930000	-14564.205000	-20788.740000	-15894.495000	-22036.680000	-15615.405000	-3506.265000	-8828.550000	2.022873	1.940211	4.000155	5.090028	5.441223	4.683730	2.280821	-2.788686	-0.518840	6.332900	-1.602300	0.889402	-0.272643	0.350768	-1.000000	-1.000000	-1.000000	-1.000000	-1.000000	-1.000000	-1.000000	68.206897	0.000000	-1.000000	-1.000000	2789125.000000	1770067075.886528
-21613.770000	-14556.690000	-20775.060000	-15879.960000	-22024.620000	-15606.180000	-3511.845000	-8840.880000	-0.609777	4.806977	4.592706	5.132359	5.596321	5.524668	4.660078	-2.115831	-0.518840	6.332900	-1.602300	0.889402	-0.272643	0.350768	-1.000000	-1.000000	-1.000000	-1.000000	-1.000000	-1.000000	-1.000000	68.206897	0.000000	-1.000000	-1.000000	2789126.000000	1770067075.886536
-21605.805000	-14579.955000	-20787.390000	-15891.435000	-22037.625000	-15617.970000	-3510.900000	-8776.440000	-1.550413	7.392046	4.687874	4.639162	4.823009	5.235643	5.338654	-1.009442	-0.518840	6.332900	-1.602300	0.889402	-0.272643	0.350768	-1.000000	-1.000000	-1.000000	-1.000000	-1.000000	-1.000000	-1.000000	68.206897	0.000000	-1.000000	-1.000000	2789127.000000	1770067075.887040
-21567.015000	-14580.180000	-20803.905000	-15911.955000	-22059.315000	-15636.690000	-3505.680000	-8715.690000	0.901886	7.057011	2.556019	1.855334	1.433918	2.053595	3.211988	4.087472	-0.518840	6.332900	-1.602300	0.889402	-0.272643	0.350768	-1.000000	-1.000000	-1.000000	-1.000000	-1.000000	-1.000000	-1.000000	68.206897	0.000000	-1.000000	-1.000000	2789128.000000	1770067075.887051
-21559.050000	-14546.790000	-20801.475000	-15915.690000	-22061.835000	-15637.140000	-3507.570000	-8733.330000	6.445489	4.079612	-1.941506	-3.386660	-4.311202	-3.549557	-0.270537	13.643776	-0.518840	6.332900	-1.602300	0.889402	-0.272643	0.350768	-1.000000	-1.000000	-1.000000	-1.000000	-1.000000	-1.000000	-1.000000	68.206897	0.000000	-1.000000	-1.000000	2789129.000000	1770067075.891490
-21559.140000	-14556.645000	-20801.790000	-15912.180000	-22054.680000	-15629.895000	-3500.820000	-8733.465000	11.116380	1.850424	-5.965318	-8.038494	-8.919960	-8.069847	-2.770168	19.970997	-0.518840	6.332900	-1.602300	0.889402	-0.272643	0.350768	-1.000000	-1.000000	-1.000000	-1.000000	-1.000000	-1.000000	-1.000000	68.206897	0.000000	-1.000000	-1.000000	2789130.000000	1770067075.891499
-21567.330000	-14566.725000	-20797.245000	-15904.305000	-22046.040000	-15621.255000	-3494.295000	-8736.885000	10.092044	1.522575	-6.293283	-8.229296	-8.451025	-7.800010	-2.853187	15.728708	-1.464960	5.157880	-3.204600	0.890440	-0.273315	0.354064	-1.000000	-1.000000	-1.000000	-1.000000	-1.000000	-1.000000	-1.000000	68.206897	0.000000	-1.000000	-1.000000	2789131.000000	1770067075.894918
-21578.040000	-14559.300000	-20793.870000	-15902.280000	-22046.940000	-15622.290000	-3498.075000	-8748.990000	2.278167	0.476597	-2.934352	-3.549783	-2.968767	-2.908266	-1.329534	1.565711	-1.464960	5.157880	-3.204600	0.890440	-0.273315	0.354064	-1.000000	-1.000000	-1.000000	-1.000000	-1.000000	-1.000000	-1.000000	68.206897	0.000000	-1.000000	-1.000000	2789132.000000	1770067075.894925
-21570.615000	-14553.450000	-20789.865000	-15899.040000	-22044.105000	-15619.815000	-3498.750000	-8748.270000	-8.588135	-2.720059	1.249429	2.495584	3.359429	2.639682	-0.568790	-15.636181	-1.464960	5.157880	-3.204600	0.890440	-0.273315	0.354064	-1.000000	-1.000000	-1.000000	-1.000000	-1.000000	-1.000000	-1.000000	68.206897	0.000000	-1.000000	-1.000000	2789133.000000	1770067075.898974
-21573.225000	-14559.975000	-20787.255000	-15894.450000	-22038.930000	-15615.945000	-3499.380000	-8750.385000	-16.212919	-6.331751	3.525655	6.002351	6.476397	5.166334	-1.565397	-26.655331	-1.464960	5.157880	-3.204600	0.890440	-0.273315	0.354064	-1.000000	-1.000000	-1.000000	-1.000000	-1.000000	-1.000000	-1.000000	68.206897	0.000000	-1.000000	-1.000000	2789134.000000	1770067075.898983
-21574.215000	-14570.325000	-20789.100000	-15895.125000	-22039.200000	-15618.015000	-3502.935000	-8756.145000	-16.151153	-8.231832	2.988413	5.437605	5.335683	3.935709	-3.049460	-25.695220	-1.464960	5.157880	-3.204600	0.890440	-0.273315	0.354064	-1.000000	-1.000000	-1.000000	-1.000000	-1.000000	-1.000000	-1.000000	68.206897	0.000000	-1.000000	-1.000000	2789135.000000	1770067075.903400
-21588.210000	-14569.515000	-20791.575000	-15898.545000	-22042.125000	-15622.245000	-3507.930000	-8781.210000	-9.407516	-7.335057	0.704544	2.073970	1.754238	0.754953	-3.565741	-15.912841	-1.464960	5.157880	-3.204600	0.890440	-0.273315	0.354064	-1.000000	-1.000000	-1.000000	-1.000000	-1.000000	-1.000000	-1.000000	68.206897	0.000000	-1.000000	-1.000000	2789136.000000	1770067075.903410
-21587.805000	-14558.040000	-20793.555000	-15905.340000	-22050.450000	-15628.590000	-3508.965000	-8780.355000	-1.285088	-3.594856	-1.219787	-1.303611	-1.392154	-1.786023	-2.791711	-5.619148	-1.464960	5.157880	-3.204600	0.890440	-0.273315	0.354064	-1.000000	-1.000000	-1.000000	-1.000000	-1.000000	-1.000000	-1.000000	68.206897	0.000000	-1.000000	-1.000000	2789137.000000	1770067075.907030
-21615.930000	-14567.940000	-20787.030000	-15901.290000	-22044.150000	-15620.445000	-3500.595000	-8777.070000	3.362981	1.335270	-1.385485	-2.652119	-2.404578	-2.211482	-0.912522	1.225166	-1.464960	5.157880	-3.204600	0.890440	-0.273315	0.354064	-1.000000	-1.000000	-1.000000	-1.000000	-1.000000	-1.000000	-1.000000	68.206897	0.000000	-1.000000	-1.000000	2789138.000000	1770067075.907037
-21638.880000	-14578.245000	-20790.540000	-15901.605000	-22042.845000	-15618.870000	-3500.460000	-8782.065000	3.274595	4.869740	0.016103	-1.819266	-1.484020	-0.777929	1.749926	6.518397	-1.464960	5.157880	-3.204600	0.890440	-0.273315	0.354064	-1.000000	-1.000000	-1.000000	-1.000000	-1.000000	-1.000000	-1.000000	68.206897	0.000000	-1.000000	-1.000000	2789139.000000	1770067075.910967
-21606.570000	-14572.755000	-20799.045000	-15901.830000	-22041.450000	-15617.610000	-3500.370000	-8776.890000	1.170449	5.639310	1.399904	-0.164376	-0.004747	1.060928	4.110363	11.910331	-1.464960	5.157880	-3.204600	0.890440	-0.273315	0.354064	-1.000000	-1.000000	-1.000000	-1.000000	-1.000000	-1.000000	-1.000000	68.206897	0.000000	-1.000000	-1.000000	2789140.000000	1770067075.910977
-21557.475000	-14551.560000	-20792.115000	-15897.195000	-22040.325000	-15617.250000	-3498.930000	-8753.130000	2.204777	4.356916	1.122698	0.722621	0.644457	1.759579	4.788990	16.418323	-0.106820	4.974760	-4.654300	0.891599	-0.275817	0.353698	-1.000000	-1.000000	-1.000000	-1.000000	-1.000000	-1.000000	-1.000000	68.206897	0.000000	-1.000000	-1.000000	2789141.000000	1770067075.914994
-21544.740000	-14537.160000	-20775.150000	-15884.595000	-22029.795000	-15607.485000	-3494.115000	-8745.165000	8.849040	2.954691	-0.477896	0.505767	0.190434	0.979498	3.590379	18.529812	-0.106820	4.974760	-4.654300	0.891599	-0.275817	0.353698	-1.000000	-1.000000	-1.000000	-1.000000	-1.000000	-1.000000	-1.000000	68.206897	0.000000	-1.000000	-1.000000	2789142.000000	1770067075.915008
-21573.045000	-14547.780000	-20776.455000	-15887.385000	-22030.605000	-15608.745000	-3499.245000	-8767.350000	16.553952	2.563844	-1.564551	-0.109228	-0.672407	-0.416918	1.507842	16.735354	-0.106820	4.974760	-4.654300	0.891599	-0.275817	0.353698	-1.000000	-1.000000	-1.000000	-1.000000	-1.000000	-1.000000	-1.000000	68.206897	0.000000	-1.000000	-1.000000	2789143.000000	1770067075.918977
-21601.350000	-14566.140000	-20786.940000	-15902.370000	-22043.340000	-15621.345000	-3509.730000	-8797.455000	17.188468	2.230095	-1.369805	-0.799376	-1.409288	-1.588770	-0.589695	9.266378	-0.106820	4.974760	-4.654300	0.891599	-0.275817	0.353698	-1.000000	-1.000000	-1.000000	-1.000000	-1.000000	-1.000000	-1.000000	68.206897	0.000000	-1.000000	-1.000000	2789144.000000	1770067075.918984
-21593.385000	-14561.280000	-20785.140000	-15897.465000	-22039.515000	-15617.115000	-3506.220000	-8800.695000	7.499041	0.370963	-0.569265	-1.486820	-1.733349	-2.077668	-2.297343	-3.269172	-0.106820	4.974760	-4.654300	0.891599	-0.275817	0.353698	-1.000000	-1.000000	-1.000000	-1.000000	-1.000000	-1.000000	-1.000000	68.206897	0.000000	-1.000000	-1.000000	2789145.000000	1770067075.923023
-21591.855000	-14568.795000	-20798.280000	-15899.175000	-22044.015000	-15622.515000	-3510.180000	-8785.305000	-7.114204	-3.050329	0.022120	-1.475460	-1.175142	-1.532244	-3.158077	-15.488290	-0.106820	4.974760	-4.654300	0.891599	-0.275817	0.353698	-1.000000	-1.000000	-1.000000	-1.000000	-1.000000	-1.000000	-1.000000	68.206897	0.000000	-1.000000	-1.000000	2789146.000000	1770067075.923033
-21587.625000	-14582.565000	-20811.915000	-15909.840000	-22053.870000	-15630.480000	-3507.480000	-8749.530000	-17.332423	-6.339848	-0.279566	-0.496127	0.023513	-0.395505	-2.923389	-20.027735	-0.106820	4.974760	-4.654300	0.891599	-0.275817	0.353698	-1.000000	-1.000000	-1.000000	-1.000000	-1.000000	-1.000000	-1.000000	68.206897	0.000000	-1.000000	-1.000000	2789147.000000	1770067075.927092
-21595.635000	-14575.635000	-20805.885000	-15912.855000	-22055.175000	-15630.390000	-3505.680000	-8763.885000	-17.707610	-7.338086	-1.427891	0.444652	0.669265	0.190217	-1.816528	-13.904243	-0.106820	4.974760	-4.654300	0.891599	-0.275817	0.353698	-1.000000	-1.000000	-1.000000	-1.000000	-1.000000	-1.000000	-1.000000	68.206897	0.000000	-1.000000	-1.000000	2789148.000000	1770067075.927099
-21565.440000	-14541.300000	-20787.480000	-15901.515000	-22043.745000	-15619.005000	-3498.570000	-8770.950000	-10.264180	-4.728811	-1.803669	0.619527	0.400036	0.066299	-0.164923	-2.106782	-0.106820	4.974760	-4.654300	0.891599	-0.275817	0.353698	-1.000000	-1.000000	-1.000000	-1.000000	-1.000000	-1.000000	-1.000000	68.206897	0.000000	-1.000000	-1.000000	2789149.000000	1770067075.931208
-21577.095000	-14549.130000	-20788.155000	-15894.720000	-22036.410000	-15611.130000	-3497.355000	-8779.095000	-1.453788	0.592955	-0.074717	0.557612	0.249426	0.280932	1.613617	6.666025	-0.106820	4.974760	-4.654300	0.891599	-0.275817	0.353698	-1.000000	-1.000000	-1.000000	-1.000000	-1.000000	-1.000000	-1.000000	68.206897	0.000000	-1.000000	-1.000000	2789150.000000	1770067075.931219
-21585.105000	-14554.305000	-20781.945000	-15890.850000	-22037.400000	-15612.210000	-3503.070000	-8797.545000	3.529979	5.248713	2.557283	0.793480	0.825564	1.259176	2.746476	7.720945	-1.159760	7.019600	-3.250380	0.892942	-0.273498	0.355468	-1.000000	-1.000000	-1.000000	-1.000000	-1.000000	-1.000000	-1.000000	68.206897	0.000000	-1.000000	-1.000000	2789151.000000	1770067075.936518
-21594.780000	-14555.295000	-20781.540000	-15897.330000	-22046.535000	-15622.740000	-3513.555000	-8814.780000	4.219630	6.511107	3.989577	1.132154	1.424998	2.076238	2.483839	2.928914	-1.159760	7.019600	-3.250380	0.892942	-0.273498	0.355468	-1.000000	-1.000000	-1.000000	-1.000000	-1.000000	-1.000000	-1.000000	68.206897	0.000000	-1.000000	-1.000000	2789152.000000	1770067075.936525
-21626.010000	-14564.385000	-20784.645000	-15895.710000	-22044.015000	-15621.570000	-3508.785000	-8807.805000	3.131759	4.797584	3.658537	1.356207	1.395026	1.902456	1.010712	-2.273141	-1.159760	7.019600	-3.250380	0.892942	-0.273498	0.355468	-1.000000	-1.000000	-1.000000	-1.000000	-1.000000	-1.000000	-1.000000	68.206897	0.000000	-1.000000	-1.000000	2789153.000000	1770067075.939270
-21634.020000	-14560.740000	-20780.505000	-15880.410000	-22028.895000	-15608.430000	-3493.890000	-8789.220000	1.510050	1.783643	2.215610	1.640394	1.199455	1.176428	-0.341618	-3.342453	-1.159760	7.019600	-3.250380	0.892942	-0.273498	0.355468	-1.000000	-1.000000	-1.000000	-1.000000	-1.000000	-1.000000	-1.000000	68.206897	0.000000	-1.000000	-1.000000	2789154.000000	1770067075.939280
-21605.940000	-14559.390000	-20782.440000	-15887.205000	-22037.175000	-15617.880000	-3504.825000	-8787.285000	-0.037000	-1.039073	0.604755	2.078588	1.513463	0.778634	-0.489757	-0.013030	-1.159760	7.019600	-3.250380	0.892942	-0.273498	0.355468	-1.000000	-1.000000	-1.000000	-1.000000	-1.000000	-1.000000	-1.000000	68.206897	0.000000	-1.000000	-1.000000	2789155.000000	1770067075.947022
-21571.695000	-14559.255000	-20801.790000	-15911.685000	-22060.305000	-15637.365000	-3517.335000	-8769.150000	0.971590	-2.211548	-0.696722	1.829481	1.612404	0.389977	-0.193419	4.243523	-1.159760	7.019600	-3.250380	0.892942	-0.273498	0.355468	-1.000000	-1.000000	-1.000000	-1.000000	-1.000000	-1.000000	-1.000000	68.206897	0.000000	-1.000000	-1.000000	2789156.000000	1770067075.947034
-21542.580000	-14563.440000	-20805.165000	-15911.865000	-22057.740000	-15630.480000	-3506.265000	-8735.580000	5.907567	-1.813678	-2.308433	-0.340612	-0.013326	-1.044933	-0.821556	6.874017	-1.159760	7.019600	-3.250380	0.892942	-0.273498	0.355468	-1.000000	-1.000000	-1.000000	-1.000000	-1.000000	-1.000000	-1.000000	68.206897	0.000000	-1.000000	-1.000000	2789157.000000	1770067075.947349
-21565.665000	-14596.110000	-20807.280000	-15909.525000	-22054.320000	-15627.375000	-3506.535000	-8741.340000	10.908043	-2.290103	-4.699076	-4.002897	-3.163764	-3.225796	-2.050958	7.863206	-1.159760	7.019600	-3.250380	0.892942	-0.273498	0.355468	-1.000000	-1.000000	-1.000000	-1.000000	-1.000000	-1.000000	-1.000000	68.206897	0.000000	-1.000000	-1.000000	2789158.000000	1770067075.947355
-21565.035000	-14592.735000	-20805.210000	-15905.115000	-22051.530000	-15625.530000	-3510.540000	-8749.170000	9.989177	-5.175420	-6.733673	-6.862057	-5.696885	-4.571376	-2.590970	6.729002	-1.159760	7.019600	-3.250380	0.892942	-0.273498	0.355468	-1.000000	-1.000000	-1.000000	-1.000000	-1.000000	-1.000000	-1.000000	68.206897	0.000000	-1.000000	-1.000000	2789159.000000	1770067075.950945
-21554.370000	-14553.225000	-20803.635000	-15910.785000	-22058.820000	-15633.720000	-3514.680000	-8757.315000	2.578497	-7.318371	-6.528132	-6.843446	-5.709537	-3.986878	-1.859179	2.688293	-1.159760	7.019600	-3.250380	0.892942	-0.273498	0.355468	-1.000000	-1.000000	-1.000000	-1.000000	-1.000000	-1.000000	-1.000000	68.206897	0.000000	-1.000000	-1.000000	2789160.000000	1770067075.950951
-21577.860000	-14553.810000	-20795.850000	-15904.710000	-22052.970000	-15628.140000	-3504.870000	-8754.345000	-5.961481	-3.879500	-3.152988	-3.505963	-2.836346	-1.442098	0.086599	-2.875428	-1.739640	8.805020	-1.785420	0.895383	-0.271545	0.352782	-1.000000	-1.000000	-1.000000	-1.000000	-1.000000	-1.000000	-1.000000	68.206897	0.000000	-1.000000	-1.000000	2789161.000000	1770067075.955059
-21591.270000	-14572.215000	-20795.670000	-15902.415000	-22049.640000	-15624.315000	-3504.465000	-8763.030000	-10.839900	4.417762	2.470996	1.794881	1.710845	2.169109	2.562287	-7.607095	-1.739640	8.805020	-1.785420	0.895383	-0.271545	0.352782	-1.000000	-1.000000	-1.000000	-1.000000	-1.000000	-1.000000	-1.000000	68.206897	0.000000	-1.000000	-1.000000	2789162.000000	1770067075.955069
-21576.915000	-14564.655000	-20797.605000	-15904.170000	-22050.495000	-15625.350000	-3504.915000	-8754.255000	-11.012228	11.249286	7.693284	6.346722	5.577924	5.100755	4.032558	-10.392423	-1.739640	8.805020	-1.785420	0.895383	-0.271545	0.352782	-1.000000	-1.000000	-1.000000	-1.000000	-1.000000	-1.000000	-1.000000	68.206897	0.000000	-1.000000	-1.000000	2789163.000000	1770067075.960848
-21570.120000	-14545.845000	-20795.670000	-15904.170000	-22050.135000	-15624.900000	-3504.780000	-8749.305000	-7.828055	12.215065	9.936840	8.009598	6.963250	5.967335	3.526511	-10.831950	-1.739640	8.805020	-1.785420	0.895383	-0.271545	0.352782	-1.000000	-1.000000	-1.000000	-1.000000	-1.000000	-1.000000	-1.000000	68.206897	0.000000	-1.000000	-1.000000	2789164.000000	1770067075.960858
-21575.655000	-14549.895000	-20792.565000	-15900.120000	-22046.310000	-15622.515000	-3504.195000	-8758.575000	-3.920654	8.102343	8.687420	6.980337	6.059958	4.924916	1.696720	-8.870368	-1.739640	8.805020	-1.785420	0.895383	-0.271545	0.352782	-1.000000	-1.000000	-1.000000	-1.000000	-1.000000	-1.000000	-1.000000	68.206897	0.000000	-1.000000	-1.000000	2789165.000000	1770067075.963520
-21580.155000	-14556.735000	-20792.205000	-15899.445000	-22045.050000	-15622.065000	-3504.105000	-8765.055000	-1.791741	1.604601	5.014749	4.527892	3.853532	2.685971	-0.442890	-5.571944	-1.739640	8.805020	-1.785420	0.895383	-0.271545	0.352782	-1.000000	-1.000000	-1.000000	-1.000000	-1.000000	-1.000000	-1.000000	68.206897	0.000000	-1.000000	-1.000000	2789166.000000	1770067075.964191
-21588.030000	-14565.825000	-20782.620000	-15883.200000	-22026.870000	-15604.290000	-3496.365000	-8769.645000	-1.405887	-4.756042	0.291293	1.393277	0.941195	-0.191411	-2.233867	-1.965045	-1.739640	8.805020	-1.785420	0.895383	-0.271545	0.352782	-1.000000	-1.000000	-1.000000	-1.000000	-1.000000	-1.000000	-1.000000	68.206897	0.000000	-1.000000	-1.000000	2789167.000000	1770067075.989467
-21581.460000	-14558.895000	-20773.170000	-15873.885000	-22018.050000	-15595.335000	-3489.750000	-8758.440000	-0.482264	-8.920984	-3.866305	-1.574579	-1.693394	-2.477241	-2.757083	2.375628	-1.739640	8.805020	-1.785420	0.895383	-0.271545	0.352782	-1.000000	-1.000000	-1.000000	-1.000000	-1.000000	-1.000000	-1.000000	68.206897	0.000000	-1.000000	-1.000000	2789168.000000	1770067075.989480
-21592.080000	-14535.900000	-20767.230000	-15871.905000	-22018.005000	-15596.595000	-3493.215000	-8778.960000	2.402487	-9.898399	-5.991871	-3.274018	-2.906620	-2.922957	-1.534834	7.600245	-1.739640	8.805020	-1.785420	0.895383	-0.271545	0.352782	-1.000000	-1.000000	-1.000000	-1.000000	-1.000000	-1.000000	-1.000000	68.206897	0.000000	-1.000000	-1.000000	2789169.000000	1770067075.989496
-21583.395000	-14533.695000	-20766.240000	-15872.445000	-22020.165000	-15600.960000	-3501.315000	-8799.750000	6.716851	-7.310955	-5.786622	-3.577977	-2.875603	-2.018254	0.171729	11.253039	-1.739640	8.805020	-1.785420	0.895383	-0.271545	0.352782	-1.000000	-1.000000	-1.000000	-1.000000	-1.000000	-1.000000	-1.000000	68.206897	0.000000	-1.000000	-1.000000	2789170.000000	1770067075.989501
-21576.870000	-14556.645000	-20793.240000	-15901.605000	-22050.000000	-15628.815000	-3517.875000	-8799.255000	10.879361	-2.062743	-4.502901	-3.816123	-3.254988	-1.874024	0.232893	10.263999	-2.258480	6.470240	-4.211760	0.893369	-0.275634	0.355712	-1.000000	-1.000000	-1.000000	-1.000000	-1.000000	-1.000000	-1.000000	68.206897	0.000000	-1.000000	-1.000000	2789171.000000	1770067075.989508
-21607.830000	-14582.070000	-20821.095000	-15926.805000	-22071.420000	-15644.970000	-3518.280000	-8781.840000	11.881280	2.260714	-4.177830	-5.524468	-5.460464	-3.991034	-1.861760	5.039882	-2.258480	6.470240	-4.211760	0.893369	-0.275634	0.355712	-1.000000	-1.000000	-1.000000	-1.000000	-1.000000	-1.000000	-1.000000	68.206897	0.000000	-1.000000	-1.000000	2789172.000000	1770067075.989513
-21577.635000	-14553.405000	-20808.225000	-15921.405000	-22068.945000	-15642.405000	-3512.250000	-8753.940000	7.103911	2.612567	-5.215278	-8.026486	-8.373695	-7.020170	-4.027612	-0.385060	-2.258480	6.470240	-4.211760	0.893369	-0.275634	0.355712	-1.000000	-1.000000	-1.000000	-1.000000	-1.000000	-1.000000	-1.000000	68.206897	0.000000	-1.000000	-1.000000	2789173.000000	1770067075.989519
-21570.255000	-14552.055000	-20804.175000	-15917.715000	-22066.740000	-15640.020000	-3508.740000	-8757.180000	-1.270223	0.667174	-5.191587	-8.219920	-8.707739	-7.633612	-3.722346	-2.311591	-2.258480	6.470240	-4.211760	0.893369	-0.275634	0.355712	-1.000000	-1.000000	-1.000000	-1.000000	-1.000000	-1.000000	-1.000000	68.206897	0.000000	-1.000000	-1.000000	2789174.000000	1770067075.989525
-21587.445000	-14564.835000	-20798.640000	-15905.880000	-22053.690000	-15626.070000	-3503.475000	-8769.645000	-7.934282	0.090869	-1.917847	-4.013045	-4.493145	-3.981110	-0.599463	-0.946583	-2.258480	6.470240	-4.211760	0.893369	-0.275634	0.355712	-1.000000	-1.000000	-1.000000	-1.000000	-1.000000	-1.000000	-1.000000	68.206897	0.000000	-1.000000	-1.000000	2789175.000000	1770067075.989530
-21591.810000	-14578.830000	-20801.835000	-15905.160000	-22051.845000	-15625.755000	-3508.470000	-8773.200000	-10.109009	1.495352	3.491308	3.074920	2.734373	2.467409	3.341622	0.559857	-2.258480	6.470240	-4.211760	0.893369	-0.275634	0.355712	-1.000000	-1.000000	-1.000000	-1.000000	-1.000000	-1.000000	-1.000000	68.206897	0.000000	-1.000000	-1.000000	2789176.000000	1770067075.989535
-21593.880000	-14582.700000	-20802.465000	-15906.015000	-22051.845000	-15627.870000	-3510.225000	-8774.910000	-8.364297	2.443070	7.715335	9.188425	9.236147	8.182805	5.564078	0.051119	-2.258480	6.470240	-4.211760	0.893369	-0.275634	0.355712	-1.000000	-1.000000	-1.000000	-1.000000	-1.000000	-1.000000	-1.000000	68.206897	0.000000	-1.000000	-1.000000	2789177.000000	1770067075.989541
-21578.895000	-14566.725000	-20800.125000	-15905.115000	-22051.215000	-15627.825000	-3508.245000	-8770.905000	-4.052289	1.203280	8.393612	11.303598	11.951765	10.346908	5.025771	-1.657228	-2.258480	6.470240	-4.211760	0.893369	-0.275634	0.355712	-1.000000	-1.000000	-1.000000	-1.000000	-1.000000	-1.000000	-1.000000	68.206897	0.000000	-1.000000	-1.000000	2789178.000000	1770067075.989546
-21576.420000	-14556.915000	-20798.325000	-15904.170000	-22051.980000	-15628.995000	-3509.910000	-8770.995000	1.538627	-0.547937	5.961545	9.202665	10.340587	8.665869	2.756772	-2.364130	-2.258480	6.470240	-4.211760	0.893369	-0.275634	0.355712	-1.000000	-1.000000	-1.000000	-1.000000	-1.000000	-1.000000	-1.000000	68.206897	0.000000	-1.000000	-1.000000	2789179.000000	1770067075.991473
-21599.460000	-14560.695000	-20796.885000	-15899.985000	-22047.975000	-15624.630000	-3508.380000	-8786.430000	5.985525	0.178282	3.010103	5.248431	6.351872	5.117527	0.565404	-1.751338	-2.258480	6.470240	-4.211760	0.893369	-0.275634	0.355712	-1.000000	-1.000000	-1.000000	-1.000000	-1.000000	-1.000000	-1.000000	68.206897	0.000000	-1.000000	-1.000000	2789180.000000	1770067075.991484
-21592.665000	-14549.355000	-20780.145000	-15881.895000	-22029.840000	-15609.420000	-3499.020000	-8792.865000	6.621179	3.518104	1.944218	2.430113	2.858636	2.245106	-0.455069	-2.051768	-4.501700	5.966660	-3.692920	0.894285	-0.274169	0.357665	-1.000000	-1.000000	-1.000000	-1.000000	-1.000000	-1.000000	-1.000000	68.206897	0.000000	-1.000000	-1.000000	2789181.000000	1770067076.001797
-21595.815000	-14539.950000	-20762.235000	-15862.095000	-22008.555000	-15589.170000	-3484.170000	-8788.770000	3.084088	6.395828	2.829540	1.867073	1.386761	1.200000	-0.297254	-4.546284	-4.501700	5.966660	-3.692920	0.894285	-0.274169	0.357665	-1.000000	-1.000000	-1.000000	-1.000000	-1.000000	-1.000000	-1.000000	68.206897	0.000000	-1.000000	-1.000000	2789182.000000	1770067076.001807
-21605.535000	-14562.270000	-20786.400000	-15887.115000	-22032.315000	-15609.510000	-3496.230000	-8780.580000	-2.457367	5.719859	3.158628	1.640757	0.656958	0.728635	0.143091	-6.824744	-4.501700	5.966660	-3.692920	0.894285	-0.274169	0.357665	-1.000000	-1.000000	-1.000000	-1.000000	-1.000000	-1.000000	-1.000000	68.206897	0.000000	-1.000000	-1.000000	2789183.000000	1770067076.002416
-21600.765000	-14583.015000	-20816.280000	-15921.045000	-22066.605000	-15640.785000	-3516.255000	-8777.970000	-6.449996	0.964815	-0.242275	-1.847460	-2.686863	-2.164450	-0.727057	-5.176057	-4.501700	5.966660	-3.692920	0.894285	-0.274169	0.357665	-1.000000	-1.000000	-1.000000	-1.000000	-1.000000	-1.000000	-1.000000	68.206897	0.000000	-1.000000	-1.000000	2789184.000000	1770067076.002425
-21597.165000	-14569.380000	-20802.330000	-15907.905000	-22055.040000	-15631.380000	-3511.080000	-8777.160000	-5.989231	-5.358380	-7.426685	-9.349688	-9.729387	-8.450146	-3.497534	0.869034	-4.501700	5.966660	-3.692920	0.894285	-0.274169	0.357665	-1.000000	-1.000000	-1.000000	-1.000000	-1.000000	-1.000000	-1.000000	68.206897	0.000000	-1.000000	-1.000000	2789185.000000	1770067076.005041
-21599.730000	-14568.795000	-20800.440000	-15904.530000	-22051.890000	-15629.265000	-3507.030000	-8766.270000	-1.402409	-9.399487	-13.654511	-15.935363	-15.983884	-14.074236	-6.113833	7.965574	-4.501700	5.966660	-3.692920	0.894285	-0.274169	0.357665	-1.000000	-1.000000	-1.000000	-1.000000	-1.000000	-1.000000	-1.000000	68.206897	0.000000	-1.000000	-1.000000	2789186.000000	1770067076.005052
-21592.890000	-14568.570000	-20794.050000	-15895.935000	-22043.115000	-15621.435000	-3501.900000	-8762.805000	3.970057	-9.183879	-13.799140	-15.633327	-15.591526	-13.723312	-5.813418	12.246102	-4.501700	5.966660	-3.692920	0.894285	-0.274169	0.357665	-1.000000	-1.000000	-1.000000	-1.000000	-1.000000	-1.000000	-1.000000	68.206897	0.000000	-1.000000	-1.000000	2789187.000000	1770067076.007157
-21593.835000	-14585.670000	-20797.020000	-15896.295000	-22041.855000	-15618.465000	-3501.990000	-8771.310000	6.901495	-5.758817	-7.158460	-7.447165	-7.357476	-6.303490	-2.086078	11.592230	-4.501700	5.966660	-3.692920	0.894285	-0.274169	0.357665	-1.000000	-1.000000	-1.000000	-1.000000	-1.000000	-1.000000	-1.000000	68.206897	0.000000	-1.000000	-1.000000	2789188.000000	1770067076.007167
-21597.705000	-14565.600000	-20792.610000	-15897.555000	-22041.990000	-15617.565000	-3501.405000	-8774.685000	6.561393	-1.106541	2.684676	4.252305	4.518793	4.397765	2.962467	6.103598	-4.501700	5.966660	-3.692920	0.894285	-0.274169	0.357665	-1.000000	-1.000000	-1.000000	-1.000000	-1.000000	-1.000000	-1.000000	68.206897	0.000000	-1.000000	-1.000000	2789189.000000	1770067076.011019
-21604.050000	-14552.145000	-20791.755000	-15899.670000	-22044.015000	-15617.790000	-3501.540000	-8776.080000	3.640636	3.500450	10.470841	12.951554	13.446273	12.414171	6.193765	-1.939884	-4.501700	5.966660	-3.692920	0.894285	-0.274169	0.357665	-1.000000	-1.000000	-1.000000	-1.000000	-1.000000	-1.000000	-1.000000	68.206897	0.000000	-1.000000	-1.000000	2789190.000000	1770067076.011029
-21590.820000	-14566.095000	-20807.145000	-15917.040000	-22059.765000	-15631.020000	-3510.270000	-8771.625000	-0.649287	6.835536	12.200871	14.086651	14.656766	13.406518	5.594249	-9.051583	-5.371520	4.562740	-4.486440	0.897092	-0.275268	0.355468	-1.000000	-1.000000	-1.000000	-1.000000	-1.000000	-1.000000	-1.000000	68.206897	0.000000	-1.000000	-1.000000	2789191.000000	1770067076.016442
-21585.915000	-14594.580000	-20813.130000	-15915.465000	-22056.660000	-15626.745000	-3507.750000	-8761.320000	-3.936784	7.435372	7.900388	8.359455	8.764312	7.897988	1.985211	-12.056177	-5.371520	4.562740	-4.486440	0.897092	-0.275268	0.355468	-1.000000	-1.000000	-1.000000	-1.000000	-1.000000	-1.000000	-1.000000	68.206897	0.000000	-1.000000	-1.000000	2789192.000000	1770067076.016451
-21587.805000	-14574.870000	-20807.280000	-15906.465000	-22047.075000	-15618.465000	-3501.720000	-8761.995000	-4.294519	5.195521	1.582863	1.108256	1.212624	0.838109	-1.426767	-9.691221	-5.371520	4.562740	-4.486440	0.897092	-0.275268	0.355468	-1.000000	-1.000000	-1.000000	-1.000000	-1.000000	-1.000000	-1.000000	68.206897	0.000000	-1.000000	-1.000000	2789193.000000	1770067076.019020
-21589.155000	-14541.705000	-20790.630000	-15895.845000	-22040.190000	-15615.000000	-3500.865000	-8775.630000	-2.470983	2.279707	-2.481056	-2.774560	-2.978403	-3.161972	-2.183536	-3.849167	-5.371520	4.562740	-4.486440	0.897092	-0.275268	0.355468	-1.000000	-1.000000	-1.000000	-1.000000	-1.000000	-1.000000	-1.000000	68.206897	0.000000	-1.000000	-1.000000	2789194.000000	1770067076.019030
-21605.220000	-14559.480000	-20792.790000	-15898.680000	-22043.610000	-15618.555000	-3507.210000	-8802.225000	-0.783049	0.736673	-2.982298	-2.675182	-3.197879	-3.519477	-0.879634	1.236876	-5.371520	4.562740	-4.486440	0.897092	-0.275268	0.355468	-1.000000	-1.000000	-1.000000	-1.000000	-1.000000	-1.000000	-1.000000	68.206897	0.000000	-1.000000	-1.000000	2789195.000000	1770067076.023025
-21603.645000	-14568.345000	-20810.655000	-15920.640000	-22063.545000	-15633.990000	-3516.795000	-8801.280000	-0.869267	-0.118866	-1.665675	-1.342173	-2.133744	-2.596559	0.176250	2.512535	-5.371520	4.562740	-4.486440	0.897092	-0.275268	0.355468	-1.000000	-1.000000	-1.000000	-1.000000	-1.000000	-1.000000	-1.000000	68.206897	0.000000	-1.000000	-1.000000	2789196.000000	1770067076.023036
-21593.160000	-14585.130000	-20837.295000	-15945.300000	-22083.795000	-15649.740000	-3522.420000	-8772.300000	-2.029175	-2.009519	-1.390145	-1.808499	-2.553472	-2.755715	-0.391925	1.433529	-5.371520	4.562740	-4.486440	0.897092	-0.275268	0.355468	-1.000000	-1.000000	-1.000000	-1.000000	-1.000000	-1.000000	-1.000000	68.206897	0.000000	-1.000000	-1.000000	2789197.000000	1770067076.027053
-21565.080000	-14567.040000	-20825.055000	-15930.180000	-22065.705000	-15631.695000	-3503.205000	-8736.525000	-1.567969	-4.997433	-3.296865	-4.423057	-4.619308	-4.137357	-1.802703	2.391716	-5.371520	4.562740	-4.486440	0.897092	-0.275268	0.355468	-1.000000	-1.000000	-1.000000	-1.000000	-1.000000	-1.000000	-1.000000	68.206897	0.000000	-1.000000	-1.000000	2789198.000000	1770067076.027060
-21572.325000	-14555.880000	-20812.455000	-15916.545000	-22052.070000	-15623.055000	-3507.210000	-8763.885000	1.728545	-7.179902	-5.235989	-6.114036	-5.480666	-4.460934	-2.123405	6.601875	-5.371520	4.562740	-4.486440	0.897092	-0.275268	0.355468	-1.000000	-1.000000	-1.000000	-1.000000	-1.000000	-1.000000	-1.000000	68.206897	0.000000	-1.000000	-1.000000	2789199.000000	1770067076.031092
-21577.905000	-14560.245000	-20814.705000	-15921.315000	-22057.110000	-15629.310000	-3516.930000	-8775.585000	5.285560	-5.948522	-3.920880	-3.693225	-2.534795	-1.820493	-0.690188	9.515400	-5.371520	4.562740	-4.486440	0.897092	-0.275268	0.355468	-1.000000	-1.000000	-1.000000	-1.000000	-1.000000	-1.000000	-1.000000	68.206897	0.000000	-1.000000	-1.000000	2789200.000000	1770067076.031102
-21602.295000	-14577.930000	-20829.195000	-15936.570000	-22072.545000	-15639.615000	-3520.080000	-8774.055000	5.256974	-0.912286	0.925988	1.998319	2.917087	2.564049	1.200549	6.558749	-5.020540	2.227960	-4.883200	0.896482	-0.273193	0.356628	-1.000000	-1.000000	-1.000000	-1.000000	-1.000000	-1.000000	-1.000000	68.206897	0.000000	-1.000000	-1.000000	2789201.000000	1770067076.035142
-21587.580000	-14555.115000	-20805.120000	-15909.300000	-22051.935000	-15625.485000	-3510.270000	-8768.340000	0.868316	4.567537	5.990604	6.885235	6.861068	5.597745	2.154784	-0.897026	-5.020540	2.227960	-4.883200	0.896482	-0.273193	0.356628	-1.000000	-1.000000	-1.000000	-1.000000	-1.000000	-1.000000	-1.000000	68.206897	0.000000	-1.000000	-1.000000	2789202.000000	1770067076.035151
-21581.685000	-14538.060000	-20787.165000	-15899.040000	-22048.920000	-15618.915000	-3500.415000	-8775.360000	-4.294336	6.848664	8.261745	8.322599	7.068684	5.783972	2.195324	-7.361705	-5.020540	2.227960	-4.883200	0.896482	-0.273193	0.356628	-1.000000	-1.000000	-1.000000	-1.000000	-1.000000	-1.000000	-1.000000	68.206897	0.000000	-1.000000	-1.000000	2789203.000000	1770067076.039031
-21608.280000	-14557.950000	-20787.750000	-15898.860000	-22049.280000	-15617.205000	-3498.525000	-8786.745000	-6.244775	5.534274	7.414684	6.690779	4.452015	4.044412	2.202352	-8.921847	-5.020540	2.227960	-4.883200	0.896482	-0.273193	0.356628	-1.000000	-1.000000	-1.000000	-1.000000	-1.000000	-1.000000	-1.000000	68.206897	0.000000	-1.000000	-1.000000	2789204.000000	1770067076.039040
-21607.020000	-14581.665000	-20802.105000	-15901.425000	-22045.995000	-15615.810000	-3495.330000	-8758.665000	-4.828379	2.058958	4.514651	3.628057	1.268307	2.012122	2.534647	-5.689472	-5.020540	2.227960	-4.883200	0.896482	-0.273193	0.356628	-1.000000	-1.000000	-1.000000	-1.000000	-1.000000	-1.000000	-1.000000	68.206897	0.000000	-1.000000	-1.000000	2789205.000000	1770067076.049218
-21604.185000	-14583.825000	-20809.665000	-15907.860000	-22052.115000	-15622.650000	-3504.915000	-8764.830000	-2.277204	-2.296280	0.526667	0.488254	-0.791463	0.468221	2.393309	-0.622046	-5.020540	2.227960	-4.883200	0.896482	-0.273193	0.356628	-1.000000	-1.000000	-1.000000	-1.000000	-1.000000	-1.000000	-1.000000	68.206897	0.000000	-1.000000	-1.000000	2789206.000000	1770067076.049227
-21599.775000	-14580.315000	-20808.540000	-15908.310000	-22052.340000	-15623.370000	-3507.930000	-8770.320000	-0.149303	-6.164396	-3.940929	-2.631853	-2.083350	-1.269054	0.428328	2.509028	-5.020540	2.227960	-4.883200	0.896482	-0.273193	0.356628	-1.000000	-1.000000	-1.000000	-1.000000	-1.000000	-1.000000	-1.000000	68.206897	0.000000	-1.000000	-1.000000	2789207.000000	1770067076.049237
-21593.925000	-14572.305000	-20807.460000	-15914.025000	-22055.580000	-15621.795000	-3507.480000	-8774.820000	1.419075	-7.727522	-7.889844	-6.027086	-3.835719	-3.780045	-3.172221	2.239398	-5.020540	2.227960	-4.883200	0.896482	-0.273193	0.356628	-1.000000	-1.000000	-1.000000	-1.000000	-1.000000	-1.000000	-1.000000	68.206897	0.000000	-1.000000	-1.000000	2789208.000000	1770067076.049242
-21605.940000	-14572.080000	-20817.180000	-15935.220000	-22074.705000	-15628.005000	-3510.810000	-8788.455000	3.026836	-5.243802	-9.482460	-8.746337	-5.752034	-5.799236	-5.944037	0.331873	-5.020540	2.227960	-4.883200	0.896482	-0.273193	0.356628	-1.000000	-1.000000	-1.000000	-1.000000	-1.000000	-1.000000	-1.000000	68.206897	0.000000	-1.000000	-1.000000	2789209.000000	1770067076.051035
-21601.395000	-14577.390000	-20829.555000	-15947.055000	-22082.940000	-15634.890000	-3512.745000	-8770.545000	4.632154	0.750653	-7.782791	-9.506843	-6.629841	-5.779004	-5.854461	-1.034561	-5.020540	2.227960	-4.883200	0.896482	-0.273193	0.356628	-1.000000	-1.000000	-1.000000	-1.000000	-1.000000	-1.000000	-1.000000	68.206897	0.000000	-1.000000	-1.000000	2789210.000000	1770067076.051041
-21596.400000	-14584.725000	-20835.270000	-15945.165000	-22075.695000	-15632.100000	-3513.420000	-8773.470000	5.299061	6.066441	-4.440816	-8.222466	-5.937070	-3.954693	-3.415184	-0.698786	-6.699140	1.526000	-4.379620	0.896543	-0.270141	0.357055	-1.000000	-1.000000	-1.000000	-1.000000	-1.000000	-1.000000	-1.000000	68.206897	0.000000	-1.000000	-1.000000	2789211.000000	1770067076.055440
-21580.065000	-14574.645000	-20827.440000	-15931.980000	-22056.570000	-15614.370000	-3509.325000	-8801.460000	4.616738	6.750509	-1.695882	-5.107089	-3.298643	-1.278413	-0.439732	1.066639	-6.699140	1.526000	-4.379620	0.896543	-0.270141	0.357055	-1.000000	-1.000000	-1.000000	-1.000000	-1.000000	-1.000000	-1.000000	68.206897	0.000000	-1.000000	-1.000000	2789212.000000	1770067076.055450
-21572.955000	-14559.390000	-20820.735000	-15921.630000	-22043.385000	-15604.155000	-3506.355000	-8819.010000	3.580617	4.108059	0.683354	0.299735	1.753715	2.107279	1.956594	2.085957	-6.699140	1.526000	-4.379620	0.896543	-0.270141	0.357055	-1.000000	-1.000000	-1.000000	-1.000000	-1.000000	-1.000000	-1.000000	68.206897	0.000000	-1.000000	-1.000000	2789213.000000	1770067076.079975
-21587.895000	-14576.490000	-20836.665000	-15934.815000	-22061.475000	-15624.270000	-3513.960000	-8787.015000	2.622820	2.300949	4.144982	7.344503	7.823205	5.567689	3.480797	0.715649	-6.699140	1.526000	-4.379620	0.896543	-0.270141	0.357055	-1.000000	-1.000000	-1.000000	-1.000000	-1.000000	-1.000000	-1.000000	68.206897	0.000000	-1.000000	-1.000000	2789214.000000	1770067076.079988
-21610.935000	-14606.190000	-20846.880000	-15950.880000	-22081.050000	-15634.440000	-3515.490000	-8778.195000	-0.068090	1.760448	7.775225	12.590707	10.917951	6.794426	3.847539	-1.361739	-6.699140	1.526000	-4.379620	0.896543	-0.270141	0.357055	-1.000000	-1.000000	-1.000000	-1.000000	-1.000000	-1.000000	-1.000000	68.206897	0.000000	-1.000000	-1.000000	2789215.000000	1770067076.080001
-21639.465000	-14601.870000	-20834.595000	-15945.930000	-22081.770000	-15630.705000	-3509.190000	-8807.940000	-5.977429	-0.435285	8.935705	12.424767	8.011388	4.240706	3.068472	-1.570499	-6.699140	1.526000	-4.379620	0.896543	-0.270141	0.357055	-1.000000	-1.000000	-1.000000	-1.000000	-1.000000	-1.000000	-1.000000	68.206897	0.000000	-1.000000	-1.000000	2789216.000000	1770067076.080006
-21602.880000	-14574.105000	-20820.195000	-15941.205000	-22088.160000	-15638.040000	-3509.055000	-8767.440000	-12.422043	-4.176041	7.130564	7.298324	0.843796	-0.506156	1.908114	0.420034	-6.699140	1.526000	-4.379620	0.896543	-0.270141	0.357055	-1.000000	-1.000000	-1.000000	-1.000000	-1.000000	-1.000000	-1.000000	68.206897	0.000000	-1.000000	-1.000000	2789217.000000	1770067076.080013
-21587.895000	-14567.535000	-20801.565000	-15918.300000	-22067.325000	-15628.635000	-3512.115000	-8753.895000	-13.225911	-5.495649	4.650489	1.627563	-5.185934	-4.117910	1.037288	3.995127	-6.699140	1.526000	-4.379620	0.896543	-0.270141	0.357055	-1.000000	-1.000000	-1.000000	-1.000000	-1.000000	-1.000000	-1.000000	68.206897	0.000000	-1.000000	-1.000000	2789218.000000	1770067076.080018
-21590.145000	-14560.830000	-20781.540000	-15888.015000	-22034.385000	-15608.655000	-3504.060000	-8761.500000	-5.635326	-2.396234	3.548420	-0.514198	-5.528242	-4.116339	0.410931	7.420684	-6.699140	1.526000	-4.379620	0.896543	-0.270141	0.357055	-1.000000	-1.000000	-1.000000	-1.000000	-1.000000	-1.000000	-1.000000	68.206897	0.000000	-1.000000	-1.000000	2789219.000000	1770067076.080024
-21617.955000	-14569.245000	-20779.785000	-15878.700000	-22024.530000	-15605.370000	-3503.745000	-8788.995000	5.072195	2.432106	3.290493	0.936684	-0.310378	-0.645811	-0.210620	7.292189	-6.699140	1.526000	-4.379620	0.896543	-0.270141	0.357055	-1.000000	-1.000000	-1.000000	-1.000000	-1.000000	-1.000000	-1.000000	68.206897	0.000000	-1.000000	-1.000000	2789220.000000	1770067076.080028
-21650.940000	-14583.825000	-20801.295000	-15900.255000	-22041.495000	-15617.700000	-3508.155000	-8800.245000	10.440275	4.630926	1.233127	2.043190	5.291431	3.052990	-1.031770	2.313612	-8.560860	0.656180	-8.026760	0.896787	-0.267211	0.358642	-1.000000	-1.000000	-1.000000	-1.000000	-1.000000	-1.000000	-1.000000	68.206897	0.000000	-1.000000	-1.000000	2789221.000000	1770067076.080034
-21623.355000	-14572.035000	-20803.905000	-15913.305000	-22055.670000	-15627.015000	-3514.230000	-8776.395000	7.414818	2.496568	-4.161438	-1.159941	5.510364	3.373669	-2.187622	-4.604361	-8.560860	0.656180	-8.026760	0.896787	-0.267211	0.358642	-1.000000	-1.000000	-1.000000	-1.000000	-1.000000	-1.000000	-1.000000	68.206897	0.000000	-1.000000	-1.000000	2789222.000000	1770067076.080039
-21575.295000	-14568.390000	-20812.725000	-15928.965000	-22071.420000	-15637.005000	-3519.270000	-8746.695000	1.644198	-1.205862	-10.533198	-8.117843	-0.375509	0.154887	-3.275626	-9.063838	-8.560860	0.656180	-8.026760	0.896787	-0.267211	0.358642	-1.000000	-1.000000	-1.000000	-1.000000	-1.000000	-1.000000	-1.000000	68.206897	0.000000	-1.000000	-1.000000	2789223.000000	1770067076.080045
-21586.095000	-14571.090000	-20808.495000	-15920.370000	-22061.880000	-15629.490000	-3517.065000	-8763.705000	0.828319	-2.540110	-13.636319	-13.974036	-7.599305	-3.521390	-3.491133	-8.644283	-8.560860	0.656180	-8.026760	0.896787	-0.267211	0.358642	-1.000000	-1.000000	-1.000000	-1.000000	-1.000000	-1.000000	-1.000000	68.206897	0.000000	-1.000000	-1.000000	2789224.000000	1770067076.080049
-21601.800000	-14570.595000	-20802.240000	-15909.120000	-22057.065000	-15621.435000	-3513.195000	-8778.600000	5.112249	-1.112766	-11.495696	-14.012897	-10.547839	-4.585704	-2.368370	-4.599120	-8.560860	0.656180	-8.026760	0.896787	-0.267211	0.358642	-1.000000	-1.000000	-1.000000	-1.000000	-1.000000	-1.000000	-1.000000	68.206897	0.000000	-1.000000	-1.000000	2789225.000000	1770067076.083379
-21585.645000	-14575.500000	-20817.585000	-15933.330000	-22087.080000	-15634.890000	-3520.530000	-8770.680000	7.847460	0.201029	-5.691238	-7.779750	-7.634071	-2.405221	-0.223167	-0.692250	-8.560860	0.656180	-8.026760	0.896787	-0.267211	0.358642	-1.000000	-1.000000	-1.000000	-1.000000	-1.000000	-1.000000	-1.000000	68.206897	0.000000	-1.000000	-1.000000	2789226.000000	1770067076.083391
-21587.085000	-14600.970000	-20852.055000	-15981.210000	-22119.750000	-15650.415000	-3521.610000	-8760.330000	4.580618	-1.042299	-0.241870	-0.308182	-2.796086	0.617090	1.872579	0.669705	-8.560860	0.656180	-8.026760	0.896787	-0.267211	0.358642	-1.000000	-1.000000	-1.000000	-1.000000	-1.000000	-1.000000	-1.000000	68.206897	0.000000	-1.000000	-1.000000	2789227.000000	1770067076.087045
-21602.295000	-14626.980000	-20889.315000	-16036.380000	-22145.490000	-15648.120000	-3508.605000	-8763.120000	-3.000861	-4.860344	1.004431	1.617481	-1.478408	1.338023	2.954144	0.653464	-8.560860	0.656180	-8.026760	0.896787	-0.267211	0.358642	-1.000000	-1.000000	-1.000000	-1.000000	-1.000000	-1.000000	-1.000000	68.206897	0.000000	-1.000000	-1.000000	2789228.000000	1770067076.087057
-21623.850000	-14642.415000	-20915.640000	-16068.780000	-22155.390000	-15640.290000	-3497.130000	-8782.965000	-10.161614	-8.875995	-2.114267	-3.591460	-4.417631	-0.395771	3.193272	1.588054	-8.560860	0.656180	-8.026760	0.896787	-0.267211	0.358642	-1.000000	-1.000000	-1.000000	-1.000000	-1.000000	-1.000000	-1.000000	68.206897	0.000000	-1.000000	-1.000000	2789229.000000	1770067076.091099
-21617.145000	-14634.720000	-20915.100000	-16050.510000	-22131.990000	-15629.490000	-3497.805000	-8789.085000	-12.872129	-9.473271	-5.127828	-9.354086	-6.337818	-1.561619	3.305340	3.471957	-8.560860	0.656180	-8.026760	0.896787	-0.267211	0.358642	-1.000000	-1.000000	-1.000000	-1.000000	-1.000000	-1.000000	-1.000000	68.206897	0.000000	-1.000000	-1.000000	2789230.000000	1770067076.091110
-21609.045000	-14615.595000	-20886.030000	-15998.310000	-22091.310000	-15613.965000	-3497.310000	-8774.190000	-10.231564	-4.320348	-2.418776	-6.019617	-0.927694	0.598408	3.268431	3.956791	-5.310480	1.007160	-9.735880	0.899778	-0.265624	0.354980	-1.000000	-1.000000	-1.000000	-1.000000	-1.000000	-1.000000	-1.000000	68.206897	0.000000	-1.000000	-1.000000	2789231.000000	1770067076.096152
-21619.395000	-14590.170000	-20845.080000	-15952.950000	-22067.055000	-15614.370000	-3504.465000	-8772.840000	-4.780960	5.676670	7.914739	9.907661	12.485249	5.595653	2.372856	1.707019	-5.310480	1.007160	-9.735880	0.899778	-0.265624	0.354980	-1.000000	-1.000000	-1.000000	-1.000000	-1.000000	-1.000000	-1.000000	68.206897	0.000000	-1.000000	-1.000000	2789232.000000	1770067076.096163
-21618.675000	-14580.945000	-20845.305000	-15961.995000	-22082.490000	-15630.570000	-3517.875000	-8782.245000	0.570229	16.349799	21.239421	30.293415	26.134604	9.334356	-0.084432	-1.443596	-5.310480	1.007160	-9.735880	0.899778	-0.265624	0.354980	-1.000000	-1.000000	-1.000000	-1.000000	-1.000000	-1.000000	-1.000000	68.206897	0.000000	-1.000000	-1.000000	2789233.000000	1770067076.100243
-21617.145000	-14585.355000	-20881.980000	-16017.615000	-22119.120000	-15644.790000	-3524.715000	-8793.630000	4.817807	21.774916	27.978025	39.733405	28.957356	7.489262	-3.931518	-2.942278	-5.310480	1.007160	-9.735880	0.899778	-0.265624	0.354980	-1.000000	-1.000000	-1.000000	-1.000000	-1.000000	-1.000000	-1.000000	68.206897	0.000000	-1.000000	-1.000000	2789234.000000	1770067076.100252
-21626.190000	-14592.015000	-20916.000000	-16050.195000	-22128.525000	-15641.280000	-3525.705000	-8820.000000	7.230234	17.945958	20.888692	28.414224	16.649287	0.318348	-7.315990	-3.023476	-5.310480	1.007160	-9.735880	0.899778	-0.265624	0.354980	-1.000000	-1.000000	-1.000000	-1.000000	-1.000000	-1.000000	-1.000000	68.206897	0.000000	-1.000000	-1.000000	2789235.000000	1770067076.109647
-21627.225000	-14588.685000	-20933.685000	-16044.480000	-22112.010000	-15627.600000	-3519.990000	-8833.860000	6.868264	6.542069	2.289636	1.953320	-3.748316	-7.104257	-7.846516	-3.634284	-5.310480	1.007160	-9.735880	0.899778	-0.265624	0.354980	-1.000000	-1.000000	-1.000000	-1.000000	-1.000000	-1.000000	-1.000000	68.206897	0.000000	-1.000000	-1.000000	2789236.000000	1770067076.109657
-21599.550000	-14560.065000	-20892.915000	-15971.220000	-22069.755000	-15620.445000	-3514.410000	-8794.800000	5.083099	-5.601936	-16.422870	-21.913139	-19.443576	-9.844829	-4.907074	-3.944797	-5.310480	1.007160	-9.735880	0.899778	-0.265624	0.354980	-1.000000	-1.000000	-1.000000	-1.000000	-1.000000	-1.000000	-1.000000	68.206897	0.000000	-1.000000	-1.000000	2789237.000000	1770067076.109668
-21597.570000	-14507.640000	-20774.610000	-15822.765000	-21982.230000	-15588.765000	-3499.020000	-8774.190000	4.875944	-11.205419	-21.879555	-26.098222	-20.977739	-6.786887	0.095059	-0.083744	-5.310480	1.007160	-9.735880	0.899778	-0.265624	0.354980	-1.000000	-1.000000	-1.000000	-1.000000	-1.000000	-1.000000	-1.000000	68.206897	0.000000	-1.000000	-1.000000	2789238.000000	1770067076.109674
-21606.795000	-14473.350000	-20647.530000	-15680.610000	-21889.485000	-15540.120000	-3480.885000	-8776.305000	6.045147	-7.917669	-7.816280	-6.491692	-7.693034	0.365693	5.412684	8.200816	-5.310480	1.007160	-9.735880	0.899778	-0.265624	0.354980	-1.000000	-1.000000	-1.000000	-1.000000	-1.000000	-1.000000	-1.000000	68.206897	0.000000	-1.000000	-1.000000	2789239.000000	1770067076.111060
-21614.265000	-14513.940000	-20672.415000	-15711.165000	-21914.865000	-15560.055000	-3500.280000	-8798.310000	4.652692	-1.066137	16.900330	22.107014	10.769837	8.141330	9.275619	14.232982	-5.310480	1.007160	-9.735880	0.899778	-0.265624	0.354980	-1.000000	-1.000000	-1.000000	-1.000000	-1.000000	-1.000000	-1.000000	68.206897	0.000000	-1.000000	-1.000000	2789240.000000	1770067076.111069
-21622.455000	-14586.345000	-20760.795000	-15829.290000	-22009.095000	-15617.295000	-3528.180000	-8811.945000	-1.111279	-0.408672	30.176674	32.958663	18.246765	10.749386	9.196624	11.485636	-4.272800	-1.785420	-10.468360	0.899595	-0.267883	0.355346	-1.000000	-1.000000	-1.000000	-1.000000	-1.000000	-1.000000	-1.000000	68.206897	0.000000	-1.000000	-1.000000	2789241.000000	1770067076.116543
-21617.595000	-14584.635000	-20757.915000	-15843.825000	-22005.270000	-15596.370000	-3512.025000	-8788.635000	-8.135307	-10.284750	16.273799	10.678899	5.577948	4.603370	4.307101	1.502485	-4.272800	-1.785420	-10.468360	0.899595	-0.267883	0.355346	-1.000000	-1.000000	-1.000000	-1.000000	-1.000000	-1.000000	-1.000000	68.206897	0.000000	-1.000000	-1.000000	2789242.000000	1770067076.116554
-21595.230000	-14559.300000	-20749.815000	-15843.780000	-21990.690000	-15569.595000	-3492.270000	-8778.555000	-11.655551	-22.685120	-15.932545	-30.502521	-17.658964	-5.466640	-1.916183	-7.761930	-4.272800	-1.785420	-10.468360	0.899595	-0.267883	0.355346	-1.000000	-1.000000	-1.000000	-1.000000	-1.000000	-1.000000	-1.000000	68.206897	0.000000	-1.000000	-1.000000	2789243.000000	1770067076.118989
-21573.945000	-14582.070000	-20801.295000	-15906.825000	-22042.350000	-15607.755000	-3510.090000	-8756.505000	-8.859531	-24.925576	-42.507655	-60.599818	-33.086523	-11.373973	-5.112412	-9.757068	-4.272800	-1.785420	-10.468360	0.899595	-0.267883	0.355346	-1.000000	-1.000000	-1.000000	-1.000000	-1.000000	-1.000000	-1.000000	68.206897	0.000000	-1.000000	-1.000000	2789244.000000	1770067076.118995
-21605.220000	-14604.795000	-20833.155000	-15938.235000	-22068.900000	-15628.410000	-3513.195000	-8732.295000	-1.381323	-13.600956	-48.260513	-62.563190	-32.652210	-11.511827	-5.090027	-4.118296	-4.272800	-1.785420	-10.468360	0.899595	-0.267883	0.355346	-1.000000	-1.000000	-1.000000	-1.000000	-1.000000	-1.000000	-1.000000	68.206897	0.000000	-1.000000	-1.000000	2789245.000000	1770067076.124096
-21611.340000	-14592.465000	-20823.570000	-15927.885000	-22060.620000	-15608.970000	-3496.410000	-8749.395000	4.868060	3.588593	-34.845610	-40.707963	-20.906052	-8.996406	-4.123509	3.570598	-4.272800	-1.785420	-10.468360	0.899595	-0.267883	0.355346	-1.000000	-1.000000	-1.000000	-1.000000	-1.000000	-1.000000	-1.000000	68.206897	0.000000	-1.000000	-1.000000	2789246.000000	1770067076.124106
-21612.465000	-14603.580000	-20868.750000	-15989.490000	-22114.260000	-15629.805000	-3498.480000	-8768.745000	5.432266	16.556442	-14.232765	-11.454034	-6.839382	-5.813088	-3.193285	5.851824	-4.272800	-1.785420	-10.468360	0.899595	-0.267883	0.355346	-1.000000	-1.000000	-1.000000	-1.000000	-1.000000	-1.000000	-1.000000	68.206897	0.000000	-1.000000	-1.000000	2789247.000000	1770067076.127023
-21613.815000	-14601.645000	-20881.440000	-16014.915000	-22132.215000	-15636.555000	-3501.405000	-8771.940000	1.564680	19.988522	0.977860	8.965638	1.905732	-3.039337	-2.254497	0.082527	-4.272800	-1.785420	-10.468360	0.899595	-0.267883	0.355346	-1.000000	-1.000000	-1.000000	-1.000000	-1.000000	-1.000000	-1.000000	68.206897	0.000000	-1.000000	-1.000000	2789248.000000	1770067076.127028
-21613.545000	-14590.710000	-20861.865000	-15999.840000	-22109.400000	-15620.580000	-3501.270000	-8789.355000	-2.406433	16.307974	8.552442	17.814535	5.924684	-0.052462	-0.839669	-8.956663	-4.272800	-1.785420	-10.468360	0.899595	-0.267883	0.355346	-1.000000	-1.000000	-1.000000	-1.000000	-1.000000	-1.000000	-1.000000	68.206897	0.000000	-1.000000	-1.000000	2789249.000000	1770067076.132488
-21658.140000	-14569.470000	-20794.005000	-15897.555000	-22024.170000	-15579.900000	-3496.140000	-8844.165000	-3.865330	12.648728	17.599049	27.324259	14.643627	6.442609	1.843417	-14.851130	-4.272800	-1.785420	-10.468360	0.899595	-0.267883	0.355346	-1.000000	-1.000000	-1.000000	-1.000000	-1.000000	-1.000000	-1.000000	68.206897	0.000000	-1.000000	-1.000000	2789250.000000	1770067076.132498
-21661.695000	-14566.365000	-20764.395000	-15834.870000	-21987.405000	-15582.285000	-3504.915000	-8813.385000	-3.805052	12.309967	33.986070	46.978533	32.939795	16.420366	4.871818	-15.058242	1.251320	6.653360	-5.218920	0.905637	-0.257873	0.349547	-1.000000	-1.000000	-1.000000	-1.000000	-1.000000	-1.000000	-1.000000	68.206897	0.000000	-1.000000	-1.000000	2789251.000000	1770067076.145933
-21579.525000	-14546.790000	-20744.505000	-15810.030000	-21979.890000	-15587.730000	-3500.820000	-8741.835000	-2.854828	11.880488	50.435735	68.835841	51.205278	23.048471	5.613624	-8.441970	1.251320	6.653360	-5.218920	0.905637	-0.257873	0.349547	-1.000000	-1.000000	-1.000000	-1.000000	-1.000000	-1.000000	-1.000000	68.206897	0.000000	-1.000000	-1.000000	2789252.000000	1770067076.145944
-21566.475000	-14546.880000	-20758.005000	-15837.390000	-21997.755000	-15592.635000	-3498.120000	-8734.230000	1.534388	7.738855	54.247001	74.396224	53.939554	20.092824	3.354910	5.065926	1.251320	6.653360	-5.218920	0.905637	-0.257873	0.349547	-1.000000	-1.000000	-1.000000	-1.000000	-1.000000	-1.000000	-1.000000	68.206897	0.000000	-1.000000	-1.000000	2789253.000000	1770067076.145955
-21621.060000	-14572.530000	-20794.500000	-15880.320000	-22022.235000	-15603.480000	-3516.525000	-8791.740000	8.905009	-0.172272	38.311004	50.986028	33.895752	8.340028	-0.228973	18.656720	1.251320	6.653360	-5.218920	0.905637	-0.257873	0.349547	-1.000000	-1.000000	-1.000000	-1.000000	-1.000000	-1.000000	-1.000000	68.206897	0.000000	-1.000000	-1.000000	2789254.000000	1770067076.145960
-21578.040000	-14591.430000	-20850.210000	-15937.425000	-22070.655000	-15637.365000	-3527.415000	-8755.020000	13.355406	-10.652934	4.398119	1.219284	-3.554340	-7.293551	-4.044931	22.605534	1.251320	6.653360	-5.218920	0.905637	-0.257873	0.349547	-1.000000	-1.000000	-1.000000	-1.000000	-1.000000	-1.000000	-1.000000	68.206897	0.000000	-1.000000	-1.000000	2789255.000000	1770067076.145966
-21561.210000	-14562.765000	-20822.040000	-15917.130000	-22052.565000	-15622.695000	-3517.245000	-8743.410000	11.601128	-20.685214	-35.642158	-55.518933	-42.890894	-21.003711	-7.193328	15.863575	1.251320	6.653360	-5.218920	0.905637	-0.257873	0.349547	-1.000000	-1.000000	-1.000000	-1.000000	-1.000000	-1.000000	-1.000000	68.206897	0.000000	-1.000000	-1.000000	2789256.000000	1770067076.145971
-21577.185000	-14578.605000	-20843.415000	-15947.865000	-22079.520000	-15647.265000	-3530.115000	-8730.495000	5.566067	-24.620483	-62.955532	-91.825461	-65.504856	-26.832321	-7.577443	5.463879	1.251320	6.653360	-5.218920	0.905637	-0.257873	0.349547	-1.000000	-1.000000	-1.000000	-1.000000	-1.000000	-1.000000	-1.000000	68.206897	0.000000	-1.000000	-1.000000	2789257.000000	1770067076.147099
-21563.055000	-14578.380000	-20855.025000	-15966.270000	-22088.745000	-15646.140000	-3521.430000	-8728.020000	-1.806632	-19.277862	-64.652955	-91.142889	-61.974125	-22.298422	-4.012561	-2.090670	1.251320	6.653360	-5.218920	0.905637	-0.257873	0.349547	-1.000000	-1.000000	-1.000000	-1.000000	-1.000000	-1.000000	-1.000000	68.206897	0.000000	-1.000000	-1.000000	2789258.000000	1770067076.147120
-21587.850000	-14573.115000	-20831.130000	-15934.140000	-22057.740000	-15613.875000	-3501.765000	-8739.540000	-7.603834	-7.401241	-43.005613	-58.471636	-37.679964	-10.247758	2.296633	-4.758609	1.251320	6.653360	-5.218920	0.905637	-0.257873	0.349547	-1.000000	-1.000000	-1.000000	-1.000000	-1.000000	-1.000000	-1.000000	68.206897	0.000000	-1.000000	-1.000000	2789259.000000	1770067076.151181
-21604.140000	-14526.270000	-20747.790000	-15830.955000	-21968.190000	-15543.540000	-3463.245000	-8735.220000	-10.915107	5.675752	-9.373731	-11.053032	-4.570875	5.154081	9.133318	-5.467275	1.251320	6.653360	-5.218920	0.905637	-0.257873	0.349547	-1.000000	-1.000000	-1.000000	-1.000000	-1.000000	-1.000000	-1.000000	68.206897	0.000000	-1.000000	-1.000000	2789260.000000	1770067076.151192
-21649.005000	-14486.985000	-20689.470000	-15765.705000	-21903.930000	-15491.340000	-3437.820000	-8799.390000	-14.533280	16.319637	25.339333	35.498554	28.067273	21.046560	14.414682	-9.542112	17.274320	14.329140	0.076300	0.910032	-0.262328	0.322692	-1.000000	-1.000000	-1.000000	-1.000000	-1.000000	-1.000000	-1.000000	68.206897	0.000000	-1.000000	-1.000000	2789261.000000	1770067076.156604
-21660.795000	-14516.370000	-20731.545000	-15812.145000	-21952.035000	-15537.870000	-3485.430000	-8873.730000	-19.271561	22.213214	50.947106	68.399740	51.756607	32.364516	15.267765	-18.960073	17.274320	14.329140	0.076300	0.910032	-0.262328	0.322692	-1.000000	-1.000000	-1.000000	-1.000000	-1.000000	-1.000000	-1.000000	68.206897	0.000000	-1.000000	-1.000000	2789262.000000	1770067076.156617
-21578.220000	-14592.465000	-20855.475000	-15954.030000	-22089.915000	-15657.705000	-3547.665000	-8781.660000	-18.542666	19.694019	55.566263	73.981304	54.625059	29.675176	7.986464	-26.867309	17.274320	14.329140	0.076300	0.910032	-0.262328	0.322692	-1.000000	-1.000000	-1.000000	-1.000000	-1.000000	-1.000000	-1.000000	68.206897	0.000000	-1.000000	-1.000000	2789263.000000	1770067076.159118
-21551.265000	-14634.495000	-20910.870000	-16022.790000	-22144.185000	-15688.305000	-3527.505000	-8687.070000	-5.534614	6.119735	32.873975	45.439129	29.878989	7.927307	-6.884945	-20.572774	17.274320	14.329140	0.076300	0.910032	-0.262328	0.322692	-1.000000	-1.000000	-1.000000	-1.000000	-1.000000	-1.000000	-1.000000	68.206897	0.000000	-1.000000	-1.000000	2789264.000000	1770067076.159129
-21609.945000	-14639.310000	-20904.570000	-16033.995000	-22138.245000	-15665.265000	-3502.710000	-8717.310000	14.674319	-13.957263	-7.104994	-4.677951	-11.317994	-22.590484	-20.649402	3.048225	17.274320	14.329140	0.076300	0.910032	-0.262328	0.322692	-1.000000	-1.000000	-1.000000	-1.000000	-1.000000	-1.000000	-1.000000	68.206897	0.000000	-1.000000	-1.000000	2789265.000000	1770067076.163295
-21616.920000	-14614.335000	-20880.765000	-16019.415000	-22121.640000	-15639.120000	-3501.450000	-8736.030000	27.906626	-28.423166	-40.753577	-47.870561	-43.903936	-41.371036	-23.192736	29.420368	17.274320	14.329140	0.076300	0.910032	-0.262328	0.322692	-1.000000	-1.000000	-1.000000	-1.000000	-1.000000	-1.000000	-1.000000	68.206897	0.000000	-1.000000	-1.000000	2789266.000000	1770067076.163305
-21611.880000	-14601.060000	-20877.255000	-16004.700000	-22104.090000	-15627.240000	-3500.145000	-8741.295000	26.073091	-26.654486	-48.593999	-60.309091	-48.890826	-35.905130	-13.122474	40.411999	17.274320	14.329140	0.076300	0.910032	-0.262328	0.322692	-1.000000	-1.000000	-1.000000	-1.000000	-1.000000	-1.000000	-1.000000	68.206897	0.000000	-1.000000	-1.000000	2789267.000000	1770067076.167072
-21606.570000	-14613.480000	-20883.915000	-15985.935000	-22096.755000	-15627.150000	-3501.090000	-8749.215000	13.509589	-9.691173	-30.559479	-40.357412	-27.788756	-12.186883	1.647261	30.585852	17.274320	14.329140	0.076300	0.910032	-0.262328	0.322692	-1.000000	-1.000000	-1.000000	-1.000000	-1.000000	-1.000000	-1.000000	68.206897	0.000000	-1.000000	-1.000000	2789268.000000	1770067076.167084
-21612.060000	-14602.050000	-20858.040000	-15959.790000	-22093.830000	-15612.570000	-3503.295000	-8775.000000	-0.478530	10.323163	-2.888741	-6.092912	1.628853	12.493485	11.448938	7.293496	17.274320	14.329140	0.076300	0.910032	-0.262328	0.322692	-1.000000	-1.000000	-1.000000	-1.000000	-1.000000	-1.000000	-1.000000	68.206897	0.000000	-1.000000	-1.000000	2789269.000000	1770067076.182710
-21648.555000	-14549.175000	-20777.130000	-15886.620000	-22026.330000	-15540.075000	-3480.840000	-8807.670000	-9.796647	22.160518	19.157482	22.982772	22.556951	25.707700	12.432597	-16.469563	17.274320	14.329140	0.076300	0.910032	-0.262328	0.322692	-1.000000	-1.000000	-1.000000	-1.000000	-1.000000	-1.000000	-1.000000	68.206897	0.000000	-1.000000	-1.000000	2789270.000000	1770067076.182721
-21679.470000	-14506.965000	-20722.140000	-15843.330000	-21997.755000	-15525.990000	-3471.660000	-8846.190000	-13.798927	25.147145	32.887951	40.264873	32.095357	28.432147	8.953333	-29.431645	16.709700	7.553700	-10.193680	0.897337	-0.272765	0.317565	-1.000000	-1.000000	-1.000000	-1.000000	-1.000000	-1.000000	-1.000000	68.206897	0.000000	-1.000000	-1.000000	2789271.000000	1770067076.182732
-21659.490000	-14519.070000	-20740.140000	-15845.400000	-21997.620000	-15565.050000	-3484.980000	-8838.495000	-15.334401	24.609759	41.747668	48.444551	36.289297	27.146748	7.286070	-29.603696	16.709700	7.553700	-10.193680	0.897337	-0.272765	0.317565	-1.000000	-1.000000	-1.000000	-1.000000	-1.000000	-1.000000	-1.000000	68.206897	0.000000	-1.000000	-1.000000	2789272.000000	1770067076.182738
-21594.645000	-14550.345000	-20787.255000	-15883.605000	-22026.870000	-15604.920000	-3495.330000	-8769.330000	-14.508453	21.130368	42.410667	46.753166	36.015592	21.759423	7.214165	-21.688346	16.709700	7.553700	-10.193680	0.897337	-0.272765	0.317565	-1.000000	-1.000000	-1.000000	-1.000000	-1.000000	-1.000000	-1.000000	68.206897	0.000000	-1.000000	-1.000000	2789273.000000	1770067076.185732
-21541.770000	-14584.140000	-20831.445000	-15956.685000	-22069.665000	-15649.245000	-3532.815000	-8731.080000	-6.031401	10.030213	26.151690	28.802255	24.474220	7.057283	3.516876	-7.308214	16.709700	7.553700	-10.193680	0.897337	-0.272765	0.317565	-1.000000	-1.000000	-1.000000	-1.000000	-1.000000	-1.000000	-1.000000	68.206897	0.000000	-1.000000	-1.000000	2789274.000000	1770067076.185747
-21583.980000	-14607.990000	-20861.055000	-15986.250000	-22073.940000	-15631.740000	-3519.045000	-8729.820000	10.619203	-9.861872	-7.302539	-6.284026	-1.251594	-15.956877	-5.393939	12.684196	16.709700	7.553700	-10.193680	0.897337	-0.272765	0.317565	-1.000000	-1.000000	-1.000000	-1.000000	-1.000000	-1.000000	-1.000000	68.206897	0.000000	-1.000000	-1.000000	2789275.000000	1770067076.185807
-21642.120000	-14606.190000	-20862.045000	-15958.080000	-22049.865000	-15606.585000	-3505.995000	-8777.295000	23.722406	-31.189912	-43.827749	-45.546224	-31.782698	-35.965314	-14.132696	29.867528	16.709700	7.553700	-10.193680	0.897337	-0.272765	0.317565	-1.000000	-1.000000	-1.000000	-1.000000	-1.000000	-1.000000	-1.000000	68.206897	0.000000	-1.000000	-1.000000	2789276.000000	1770067076.185816
-21640.050000	-14618.070000	-20884.230000	-15987.465000	-22075.380000	-15618.645000	-3504.465000	-8749.620000	21.017611	-42.507650	-64.674051	-69.524209	-51.806178	-40.905399	-16.100284	33.346893	16.709700	7.553700	-10.193680	0.897337	-0.272765	0.317565	-1.000000	-1.000000	-1.000000	-1.000000	-1.000000	-1.000000	-1.000000	68.206897	0.000000	-1.000000	-1.000000	2789277.000000	1770067076.187241
-21611.340000	-14623.740000	-20891.655000	-15998.715000	-22092.210000	-15623.505000	-3505.365000	-8749.845000	4.792417	-37.777841	-60.768651	-67.804744	-52.928191	-29.456901	-10.243210	22.038941	16.709700	7.553700	-10.193680	0.897337	-0.272765	0.317565	-1.000000	-1.000000	-1.000000	-1.000000	-1.000000	-1.000000	-1.000000	68.206897	0.000000	-1.000000	-1.000000	2789278.000000	1770067076.187247
-21636.900000	-14615.280000	-20865.465000	-15970.095000	-22085.730000	-15630.435000	-3507.525000	-8808.570000	-11.165737	-20.471995	-36.570612	-43.699413	-37.450986	-10.365772	-0.829776	4.527076	16.709700	7.553700	-10.193680	0.897337	-0.272765	0.317565	-1.000000	-1.000000	-1.000000	-1.000000	-1.000000	-1.000000	-1.000000	68.206897	0.000000	-1.000000	-1.000000	2789279.000000	1770067076.193727
-21650.490000	-14570.865000	-20809.800000	-15910.065000	-22043.745000	-15606.360000	-3492.135000	-8811.630000	-17.231328	1.950825	-2.025783	-6.360277	-11.671088	8.035968	7.602960	-11.313618	16.709700	7.553700	-10.193680	0.897337	-0.272765	0.317565	-1.000000	-1.000000	-1.000000	-1.000000	-1.000000	-1.000000	-1.000000	68.206897	0.000000	-1.000000	-1.000000	2789280.000000	1770067076.193733
-21617.460000	-14520.780000	-20753.505000	-15848.055000	-22007.430000	-15585.390000	-3499.020000	-8764.605000	-14.574571	24.168271	34.125700	34.578160	18.551202	23.498118	12.824798	-21.883858	-13.901860	-20.585740	-33.938240	0.864378	-0.258605	0.355285	-1.000000	-1.000000	-1.000000	-1.000000	-1.000000	-1.000000	-1.000000	68.206897	0.000000	-1.000000	-1.000000	2789281.000000	1770067076.197241
-21533.940000	-14496.930000	-20752.425000	-15858.360000	-22025.070000	-15596.415000	-3509.595000	-8725.005000	-7.566456	41.965406	62.481676	67.262107	44.858383	34.809500	13.648153	-24.768509	-13.901860	-20.585740	-33.938240	0.864378	-0.258605	0.355285	-1.000000	-1.000000	-1.000000	-1.000000	-1.000000	-1.000000	-1.000000	68.206897	0.000000	-1.000000	-1.000000	2789282.000000	1770067076.197251
-21602.340000	-14575.365000	-20815.920000	-15922.845000	-22068.945000	-15610.140000	-3497.085000	-8759.655000	0.870741	48.134051	70.933885	77.742734	55.702971	37.174686	10.045535	-19.430799	-13.901860	-20.585740	-33.938240	0.864378	-0.258605	0.355285	-1.000000	-1.000000	-1.000000	-1.000000	-1.000000	-1.000000	-1.000000	68.206897	0.000000	-1.000000	-1.000000	2789283.000000	1770067076.200631
-21667.005000	-14648.220000	-20874.285000	-15979.140000	-22111.515000	-15636.195000	-3509.100000	-8771.355000	6.217088	34.555261	51.079771	57.116101	43.148078	25.784689	3.657576	-9.233521	-13.901860	-20.585740	-33.938240	0.864378	-0.258605	0.355285	-1.000000	-1.000000	-1.000000	-1.000000	-1.000000	-1.000000	-1.000000	68.206897	0.000000	-1.000000	-1.000000	2789284.000000	1770067076.200642
-21587.220000	-14634.495000	-20898.675000	-16015.230000	-22132.080000	-15648.840000	-3507.570000	-8697.105000	6.241272	2.775919	8.253572	10.563767	10.768335	2.187464	-3.724694	2.401162	-13.901860	-20.585740	-33.938240	0.864378	-0.258605	0.355285	-1.000000	-1.000000	-1.000000	-1.000000	-1.000000	-1.000000	-1.000000	68.206897	0.000000	-1.000000	-1.000000	2789285.000000	1770067076.203126
-21590.865000	-14599.980000	-20861.910000	-15968.295000	-22095.405000	-15621.840000	-3484.620000	-8705.655000	5.175588	-30.617508	-37.052906	-40.280925	-24.848858	-23.162363	-9.737538	13.949859	-13.901860	-20.585740	-33.938240	0.864378	-0.258605	0.355285	-1.000000	-1.000000	-1.000000	-1.000000	-1.000000	-1.000000	-1.000000	68.206897	0.000000	-1.000000	-1.000000	2789286.000000	1770067076.203142
-21606.570000	-14563.215000	-20819.385000	-15918.570000	-22054.995000	-15598.755000	-3486.330000	-8746.380000	5.898142	-45.834682	-61.349035	-68.364941	-43.482232	-36.535020	-11.324799	21.591447	-13.901860	-20.585740	-33.938240	0.864378	-0.258605	0.355285	-1.000000	-1.000000	-1.000000	-1.000000	-1.000000	-1.000000	-1.000000	68.206897	0.000000	-1.000000	-1.000000	2789287.000000	1770067076.207095
-21592.215000	-14525.415000	-20776.680000	-15882.165000	-22027.095000	-15595.605000	-3511.350000	-8800.605000	6.374771	-35.984264	-54.360995	-60.555285	-36.210768	-31.359195	-8.155296	20.126400	-13.901860	-20.585740	-33.938240	0.864378	-0.258605	0.355285	-1.000000	-1.000000	-1.000000	-1.000000	-1.000000	-1.000000	-1.000000	68.206897	0.000000	-1.000000	-1.000000	2789288.000000	1770067076.207101
-21585.465000	-14530.545000	-20796.615000	-15915.780000	-22056.930000	-15619.635000	-3523.770000	-8789.580000	4.838616	-10.617303	-25.067414	-27.133780	-11.868808	-13.050421	-3.595550	8.441095	-13.901860	-20.585740	-33.938240	0.864378	-0.258605	0.355285	-1.000000	-1.000000	-1.000000	-1.000000	-1.000000	-1.000000	-1.000000	68.206897	0.000000	-1.000000	-1.000000	2789289.000000	1770067076.211372
-21629.160000	-14557.680000	-20810.475000	-15920.505000	-22054.545000	-15608.340000	-3504.870000	-8759.565000	-0.327760	12.577868	6.455244	8.285891	11.442639	6.350880	-0.320436	-8.517551	-13.901860	-20.585740	-33.938240	0.864378	-0.258605	0.355285	-1.000000	-1.000000	-1.000000	-1.000000	-1.000000	-1.000000	-1.000000	68.206897	0.000000	-1.000000	-1.000000	2789290.000000	1770067076.211382
-21656.520000	-14581.935000	-20804.850000	-15899.895000	-22035.015000	-15589.980000	-3491.595000	-8754.930000	-10.830165	20.871725	24.756257	28.924108	22.105636	18.260012	2.532385	-21.792703	-27.757940	-33.037900	-29.543360	0.862302	-0.223876	0.385558	-1.000000	-1.000000	-1.000000	-1.000000	-1.000000	-1.000000	-1.000000	68.206897	0.000000	-1.000000	-1.000000	2789291.000000	1770067076.216736
-21581.010000	-14577.300000	-20816.640000	-15916.185000	-22049.235000	-15601.140000	-3505.680000	-8737.380000	-20.502099	15.514018	28.118663	33.804582	20.956721	21.093611	5.854949	-23.317354	-27.757940	-33.037900	-29.543360	0.862302	-0.223876	0.385558	-1.000000	-1.000000	-1.000000	-1.000000	-1.000000	-1.000000	-1.000000	68.206897	0.000000	-1.000000	-1.000000	2789292.000000	1770067076.216747
-21577.455000	-14621.805000	-20881.170000	-15981.930000	-22096.530000	-15628.005000	-3502.170000	-8722.215000	-16.910263	6.570695	22.224615	28.100188	13.053197	16.082722	7.727429	-11.591831	-27.757940	-33.037900	-29.543360	0.862302	-0.223876	0.385558	-1.000000	-1.000000	-1.000000	-1.000000	-1.000000	-1.000000	-1.000000	68.206897	0.000000	-1.000000	-1.000000	2789293.000000	1770067076.219102
-21634.920000	-14607.135000	-20852.730000	-15950.790000	-22072.995000	-15608.340000	-3473.640000	-8734.365000	-0.065037	0.197514	11.416988	15.032567	1.765159	5.591192	6.579300	5.476741	-27.757940	-33.037900	-29.543360	0.862302	-0.223876	0.385558	-1.000000	-1.000000	-1.000000	-1.000000	-1.000000	-1.000000	-1.000000	68.206897	0.000000	-1.000000	-1.000000	2789294.000000	1770067076.219112
-21643.830000	-14586.255000	-20796.165000	-15882.255000	-22025.430000	-15583.725000	-3476.970000	-8756.055000	14.737379	-3.635514	-0.247828	-0.511994	-8.709912	-5.588897	3.341733	16.529578	-27.757940	-33.037900	-29.543360	0.862302	-0.223876	0.385558	-1.000000	-1.000000	-1.000000	-1.000000	-1.000000	-1.000000	-1.000000	68.206897	0.000000	-1.000000	-1.000000	2789295.000000	1770067076.228106
-21604.095000	-14582.565000	-20806.515000	-15884.055000	-22027.725000	-15593.310000	-3499.740000	-8759.295000	17.534467	-5.861191	-8.447268	-11.929038	-13.906399	-12.515252	-0.619329	17.505702	-27.757940	-33.037900	-29.543360	0.862302	-0.223876	0.385558	-1.000000	-1.000000	-1.000000	-1.000000	-1.000000	-1.000000	-1.000000	68.206897	0.000000	-1.000000	-1.000000	2789296.000000	1770067076.228116
-21604.815000	-14565.780000	-20830.365000	-15908.490000	-22051.845000	-15619.950000	-3523.455000	-8782.425000	11.834719	-6.710329	-12.681517	-16.976771	-13.431927	-13.613996	-4.532910	12.317645	-27.757940	-33.037900	-29.543360	0.862302	-0.223876	0.385558	-1.000000	-1.000000	-1.000000	-1.000000	-1.000000	-1.000000	-1.000000	68.206897	0.000000	-1.000000	-1.000000	2789297.000000	1770067076.228244
-21658.005000	-14597.100000	-20851.470000	-15935.805000	-22075.065000	-15631.740000	-3511.710000	-8788.545000	3.507129	-6.054268	-14.679880	-17.538961	-10.189787	-10.466861	-7.273019	4.402145	-27.757940	-33.037900	-29.543360	0.862302	-0.223876	0.385558	-1.000000	-1.000000	-1.000000	-1.000000	-1.000000	-1.000000	-1.000000	68.206897	0.000000	-1.000000	-1.000000	2789298.000000	1770067076.228252
-21628.170000	-14631.165000	-20894.895000	-16000.830000	-22128.210000	-15662.475000	-3510.495000	-8723.745000	-4.671001	-4.095826	-14.451942	-15.771901	-7.008145	-5.834079	-7.430056	-4.598231	-27.757940	-33.037900	-29.543360	0.862302	-0.223876	0.385558	-1.000000	-1.000000	-1.000000	-1.000000	-1.000000	-1.000000	-1.000000	68.206897	0.000000	-1.000000	-1.000000	2789299.000000	1770067076.231121
-21598.695000	-14620.005000	-20895.705000	-16014.645000	-22130.685000	-15650.415000	-3495.240000	-8699.220000	-8.949055	-1.059826	-10.937441	-12.895276	-5.139871	-1.927302	-4.544429	-10.106205	-27.757940	-33.037900	-29.543360	0.862302	-0.223876	0.385558	-1.000000	-1.000000	-1.000000	-1.000000	-1.000000	-1.000000	-1.000000	68.206897	0.000000	-1.000000	-1.000000	2789300.000000	1770067076.231130
-21590.640000	-14573.250000	-20840.220000	-15957.090000	-22079.070000	-15612.120000	-3500.370000	-8724.420000	-6.408952	4.495620	-2.200268	-6.691130	-1.954767	2.035623	0.434693	-8.562068	-12.101180	-25.499460	-3.128300	0.890867	-0.229553	0.369933	-1.000000	-1.000000	-1.000000	-1.000000	-1.000000	-1.000000	-1.000000	68.206897	0.000000	-1.000000	-1.000000	2789301.000000	1770067076.235228
-21625.695000	-14549.355000	-20794.680000	-15902.820000	-22034.205000	-15579.495000	-3489.300000	-8749.710000	-0.159618	13.459161	13.255223	7.387976	7.414209	8.752140	5.272474	-3.801343	-12.101180	-25.499460	-3.128300	0.890867	-0.229553	0.369933	-1.000000	-1.000000	-1.000000	-1.000000	-1.000000	-1.000000	-1.000000	68.206897	0.000000	-1.000000	-1.000000	2789302.000000	1770067076.235235
-21627.855000	-14575.320000	-20828.475000	-15927.165000	-22052.430000	-15598.575000	-3503.295000	-8781.030000	4.156569	20.914775	29.201070	25.724149	20.769602	16.423437	6.997993	-2.104404	-12.101180	-25.499460	-3.128300	0.890867	-0.229553	0.369933	-1.000000	-1.000000	-1.000000	-1.000000	-1.000000	-1.000000	-1.000000	68.206897	0.000000	-1.000000	-1.000000	2789303.000000	1770067076.240698
-21579.390000	-14613.120000	-20890.485000	-15972.480000	-22092.570000	-15633.180000	-3515.625000	-8739.090000	5.036666	17.778093	31.195601	33.326821	26.262207	17.468215	4.207902	-3.351328	-12.101180	-25.499460	-3.128300	0.890867	-0.229553	0.369933	-1.000000	-1.000000	-1.000000	-1.000000	-1.000000	-1.000000	-1.000000	68.206897	0.000000	-1.000000	-1.000000	2789304.000000	1770067076.240708
-21594.780000	-14652.720000	-20936.115000	-16005.465000	-22134.330000	-15664.545000	-3504.330000	-8686.755000	4.039004	0.589463	11.625940	19.739963	15.088314	7.406200	-0.513601	-1.175511	-12.101180	-25.499460	-3.128300	0.890867	-0.229553	0.369933	-1.000000	-1.000000	-1.000000	-1.000000	-1.000000	-1.000000	-1.000000	68.206897	0.000000	-1.000000	-1.000000	2789305.000000	1770067076.245297
-21588.120000	-14609.475000	-20870.055000	-15932.070000	-22075.425000	-15620.670000	-3486.555000	-8687.565000	1.771390	-21.946486	-17.856989	-6.140841	-6.319150	-7.745529	-2.362633	7.724772	-12.101180	-25.499460	-3.128300	0.890867	-0.229553	0.369933	-1.000000	-1.000000	-1.000000	-1.000000	-1.000000	-1.000000	-1.000000	68.206897	0.000000	-1.000000	-1.000000	2789306.000000	1770067076.245308
-21594.735000	-14573.295000	-20819.970000	-15882.075000	-22028.265000	-15590.295000	-3497.400000	-8723.565000	-1.009585	-33.310423	-34.266671	-22.796727	-20.492433	-15.905409	0.106877	16.405070	-12.101180	-25.499460	-3.128300	0.890867	-0.229553	0.369933	-1.000000	-1.000000	-1.000000	-1.000000	-1.000000	-1.000000	-1.000000	68.206897	0.000000	-1.000000	-1.000000	2789307.000000	1770067076.247398
-21600.000000	-14577.615000	-20836.890000	-15923.115000	-22066.605000	-15622.245000	-3511.665000	-8733.060000	-3.283484	-23.298171	-24.880972	-17.672478	-16.490786	-11.314156	3.024474	13.756790	-12.101180	-25.499460	-3.128300	0.890867	-0.229553	0.369933	-1.000000	-1.000000	-1.000000	-1.000000	-1.000000	-1.000000	-1.000000	68.206897	0.000000	-1.000000	-1.000000	2789308.000000	1770067076.247408
-21592.755000	-14560.605000	-20809.800000	-15900.300000	-22045.770000	-15603.570000	-3501.360000	-8730.720000	-5.567775	1.345348	1.265395	1.192720	-0.728219	-0.180704	2.331863	-1.764939	-12.101180	-25.499460	-3.128300	0.890867	-0.229553	0.369933	-1.000000	-1.000000	-1.000000	-1.000000	-1.000000	-1.000000	-1.000000	68.206897	0.000000	-1.000000	-1.000000	2789309.000000	1770067076.251259
-21578.310000	-14545.620000	-20788.020000	-15887.700000	-22033.170000	-15588.630000	-3496.995000	-8719.020000	-7.420050	23.456089	24.184091	16.147291	12.048597	7.530355	-1.386699	-18.787248	-12.101180	-25.499460	-3.128300	0.890867	-0.229553	0.369933	-1.000000	-1.000000	-1.000000	-1.000000	-1.000000	-1.000000	-1.000000	68.206897	0.000000	-1.000000	-1.000000	2789310.000000	1770067076.251268
-21585.870000	-14541.750000	-20780.100000	-15891.795000	-22034.565000	-15577.605000	-3484.215000	-8706.420000	-6.051692	30.250452	29.960482	16.163953	12.855331	7.510334	-4.649815	-23.954285	4.013380	-19.761700	-2.884140	0.897642	-0.261413	0.344054	-1.000000	-1.000000	-1.000000	-1.000000	-1.000000	-1.000000	-1.000000	68.206897	0.000000	-1.000000	-1.000000	2789311.000000	1770067076.255273
-21609.225000	-14546.970000	-20790.585000	-15911.595000	-22055.715000	-15597.585000	-3504.105000	-8766.720000	-1.055780	20.696184	17.886861	2.312016	2.668097	1.829092	-5.143275	-14.265855	4.013380	-19.761700	-2.884140	0.897642	-0.261413	0.344054	-1.000000	-1.000000	-1.000000	-1.000000	-1.000000	-1.000000	-1.000000	68.206897	0.000000	-1.000000	-1.000000	2789312.000000	1770067076.255283
-21609.945000	-14564.385000	-20819.610000	-15936.165000	-22071.015000	-15606.945000	-3507.975000	-8754.030000	3.044210	2.994820	-2.296868	-15.371974	-10.500836	-4.547681	-3.040987	0.927665	4.013380	-19.761700	-2.884140	0.897642	-0.261413	0.344054	-1.000000	-1.000000	-1.000000	-1.000000	-1.000000	-1.000000	-1.000000	68.206897	0.000000	-1.000000	-1.000000	2789313.000000	1770067076.260030
-21580.695000	-14575.635000	-20846.970000	-15964.965000	-22088.835000	-15612.885000	-3499.740000	-8688.285000	3.135101	-13.019526	-19.257121	-26.162969	-18.006447	-7.431833	0.025249	11.289911	4.013380	-19.761700	-2.884140	0.897642	-0.261413	0.344054	-1.000000	-1.000000	-1.000000	-1.000000	-1.000000	-1.000000	-1.000000	68.206897	0.000000	-1.000000	-1.000000	2789314.000000	1770067076.260040
-21572.145000	-14560.740000	-20833.965000	-15949.755000	-22078.395000	-15596.415000	-3486.870000	-8684.280000	2.091953	-21.677286	-27.492555	-26.108595	-16.991005	-6.220739	2.573107	15.313744	4.013380	-19.761700	-2.884140	0.897642	-0.261413	0.344054	-1.000000	-1.000000	-1.000000	-1.000000	-1.000000	-1.000000	-1.000000	68.206897	0.000000	-1.000000	-1.000000	2789315.000000	1770067076.263244
-21615.615000	-14560.560000	-20817.945000	-15953.040000	-22084.695000	-15586.965000	-3475.665000	-8713.890000	2.726575	-21.548510	-26.155509	-16.895673	-9.965063	-2.793129	4.242491	15.175995	4.013380	-19.761700	-2.884140	0.897642	-0.261413	0.344054	-1.000000	-1.000000	-1.000000	-1.000000	-1.000000	-1.000000	-1.000000	68.206897	0.000000	-1.000000	-1.000000	2789316.000000	1770067076.263254
-21647.745000	-14582.745000	-20823.525000	-15941.970000	-22071.735000	-15579.765000	-3479.805000	-8740.215000	2.542264	-14.164095	-15.789907	-1.395146	0.108338	1.540938	5.141852	10.169607	4.013380	-19.761700	-2.884140	0.897642	-0.261413	0.344054	-1.000000	-1.000000	-1.000000	-1.000000	-1.000000	-1.000000	-1.000000	68.206897	0.000000	-1.000000	-1.000000	2789317.000000	1770067076.267237
-21672.450000	-14631.930000	-20869.830000	-15963.165000	-22082.940000	-15599.925000	-3497.670000	-8772.120000	-1.773493	-4.667876	-1.074441	15.103212	10.071179	5.049175	4.285299	-0.199863	4.013380	-19.761700	-2.884140	0.897642	-0.261413	0.344054	-1.000000	-1.000000	-1.000000	-1.000000	-1.000000	-1.000000	-1.000000	68.206897	0.000000	-1.000000	-1.000000	2789318.000000	1770067076.267247
-21649.365000	-14629.995000	-20854.665000	-15931.170000	-22072.230000	-15612.795000	-3510.405000	-8772.030000	-8.042971	1.020462	9.627750	24.890139	15.377537	4.500427	0.247062	-12.191386	4.013380	-19.761700	-2.884140	0.897642	-0.261413	0.344054	-1.000000	-1.000000	-1.000000	-1.000000	-1.000000	-1.000000	-1.000000	68.206897	0.000000	-1.000000	-1.000000	2789319.000000	1770067076.272717
-21548.295000	-14583.375000	-20831.715000	-15908.940000	-22075.245000	-15635.295000	-3520.890000	-8678.970000	-8.345395	2.905927	12.872032	24.693334	13.864081	-0.993039	-6.061791	-17.591935	4.013380	-19.761700	-2.884140	0.897642	-0.261413	0.344054	-1.000000	-1.000000	-1.000000	-1.000000	-1.000000	-1.000000	-1.000000	68.206897	0.000000	-1.000000	-1.000000	2789320.000000	1770067076.272730
-21539.880000	-14561.145000	-20816.370000	-15907.275000	-22065.120000	-15631.290000	-3515.940000	-8665.065000	2.885327	6.690268	12.985554	18.129589	8.385802	-7.208086	-10.536424	-8.988576	8.988140	-19.654880	-12.620020	0.895994	-0.265258	0.335387	-1.000000	-1.000000	-1.000000	-1.000000	-1.000000	-1.000000	-1.000000	68.206897	0.000000	-1.000000	-1.000000	2789321.000000	1770067076.283805
-21573.720000	-14586.660000	-20831.670000	-15930.990000	-22078.440000	-15637.320000	-3519.360000	-8688.150000	18.861567	14.656975	14.627749	9.914088	3.536077	-8.240108	-9.294927	8.966051	8.988140	-19.654880	-12.620020	0.895994	-0.265258	0.335387	-1.000000	-1.000000	-1.000000	-1.000000	-1.000000	-1.000000	-1.000000	68.206897	0.000000	-1.000000	-1.000000	2789322.000000	1770067076.283814
-21599.145000	-14591.115000	-20839.635000	-15929.640000	-22069.710000	-15619.905000	-3506.265000	-8699.805000	24.609498	21.049576	16.445961	1.581777	1.014429	-2.444364	-2.791738	20.120687	8.988140	-19.654880	-12.620020	0.895994	-0.265258	0.335387	-1.000000	-1.000000	-1.000000	-1.000000	-1.000000	-1.000000	-1.000000	68.206897	0.000000	-1.000000	-1.000000	2789323.000000	1770067076.283826
-21624.840000	-14594.715000	-20840.400000	-15923.655000	-22065.345000	-15613.875000	-3509.865000	-8735.265000	12.988852	18.710580	13.283713	-6.888299	-0.665575	6.163382	4.801351	14.247403	8.988140	-19.654880	-12.620020	0.895994	-0.265258	0.335387	-1.000000	-1.000000	-1.000000	-1.000000	-1.000000	-1.000000	-1.000000	68.206897	0.000000	-1.000000	-1.000000	2789324.000000	1770067076.283831
-21622.095000	-14587.290000	-20834.055000	-15927.480000	-22068.180000	-15610.365000	-3504.735000	-8731.215000	-8.043610	7.445931	3.469129	-13.840012	-2.777155	12.055817	9.376476	-3.089779	8.988140	-19.654880	-12.620020	0.895994	-0.265258	0.335387	-1.000000	-1.000000	-1.000000	-1.000000	-1.000000	-1.000000	-1.000000	68.206897	0.000000	-1.000000	-1.000000	2789325.000000	1770067076.283837
-21614.805000	-14569.920000	-20817.225000	-15914.880000	-22056.570000	-15595.650000	-3495.195000	-8740.755000	-23.478161	-5.508801	-8.030200	-16.403838	-4.909734	12.451446	9.633576	-17.955624	8.988140	-19.654880	-12.620020	0.895994	-0.265258	0.335387	-1.000000	-1.000000	-1.000000	-1.000000	-1.000000	-1.000000	-1.000000	68.206897	0.000000	-1.000000	-1.000000	2789326.000000	1770067076.283844
-21600.630000	-14575.050000	-20824.740000	-15917.805000	-22062.690000	-15611.130000	-3515.580000	-8742.240000	-23.961820	-12.269603	-14.391459	-13.592947	-6.253658	8.044656	6.838704	-20.426423	8.988140	-19.654880	-12.620020	0.895994	-0.265258	0.335387	-1.000000	-1.000000	-1.000000	-1.000000	-1.000000	-1.000000	-1.000000	68.206897	0.000000	-1.000000	-1.000000	2789327.000000	1770067076.289201
-21618.135000	-14585.670000	-20828.880000	-15915.285000	-22057.605000	-15608.205000	-3506.985000	-8713.485000	-12.349622	-11.562410	-13.790988	-7.726375	-6.493248	1.342016	2.695580	-10.852848	8.988140	-19.654880	-12.620020	0.895994	-0.265258	0.335387	-1.000000	-1.000000	-1.000000	-1.000000	-1.000000	-1.000000	-1.000000	68.206897	0.000000	-1.000000	-1.000000	2789328.000000	1770067076.289212
-21670.290000	-14581.080000	-20804.265000	-15885.720000	-22031.010000	-15581.295000	-3482.640000	-8723.880000	-0.639143	-8.484327	-9.411522	-1.925331	-5.097870	-4.195388	-0.827748	2.526792	8.988140	-19.654880	-12.620020	0.895994	-0.265258	0.335387	-1.000000	-1.000000	-1.000000	-1.000000	-1.000000	-1.000000	-1.000000	68.206897	0.000000	-1.000000	-1.000000	2789329.000000	1770067076.291134
-21615.075000	-14577.075000	-20814.030000	-15906.285000	-22052.295000	-15604.155000	-3505.590000	-8728.290000	2.659549	-6.967855	-4.085813	2.993666	-1.536484	-5.846197	-2.132804	10.828441	8.988140	-19.654880	-12.620020	0.895994	-0.265258	0.335387	-1.000000	-1.000000	-1.000000	-1.000000	-1.000000	-1.000000	-1.000000	68.206897	0.000000	-1.000000	-1.000000	2789330.000000	1770067076.291144
-21515.940000	-14569.650000	-20839.050000	-15949.440000	-22098.645000	-15645.870000	-3529.665000	-8684.415000	2.959079	-5.677306	0.828389	6.515948	2.140196	-5.160382	-2.648375	11.510230	-1.907500	-9.308600	-2.868880	0.908872	-0.242004	0.325500	-1.000000	-1.000000	-1.000000	-1.000000	-1.000000	-1.000000	-1.000000	68.206897	0.000000	-1.000000	-1.000000	2789331.000000	1770067076.295099
-21569.355000	-14572.215000	-20829.330000	-15936.615000	-22081.860000	-15622.470000	-3503.565000	-8692.920000	9.586234	-2.191127	3.747018	6.626835	2.370845	-6.018357	-4.667416	8.674281	-1.907500	-9.308600	-2.868880	0.908872	-0.242004	0.325500	-1.000000	-1.000000	-1.000000	-1.000000	-1.000000	-1.000000	-1.000000	68.206897	0.000000	-1.000000	-1.000000	2789332.000000	1770067076.295107
-21661.155000	-14545.440000	-20782.305000	-15885.180000	-22025.880000	-15565.905000	-3458.115000	-8723.880000	18.495997	3.011908	4.608575	4.052612	0.134401	-7.609978	-6.306194	6.118294	-1.907500	-9.308600	-2.868880	0.908872	-0.242004	0.325500	-1.000000	-1.000000	-1.000000	-1.000000	-1.000000	-1.000000	-1.000000	68.206897	0.000000	-1.000000	-1.000000	2789333.000000	1770067076.307680
-21646.755000	-14562.630000	-20788.470000	-15875.550000	-22012.380000	-15557.085000	-3460.455000	-8696.610000	17.615200	7.475764	5.233514	3.074531	0.618702	-5.178249	-3.896508	3.836730	-1.907500	-9.308600	-2.868880	0.908872	-0.242004	0.325500	-1.000000	-1.000000	-1.000000	-1.000000	-1.000000	-1.000000	-1.000000	68.206897	0.000000	-1.000000	-1.000000	2789334.000000	1770067076.307693
-21554.370000	-14583.375000	-20834.325000	-15921.495000	-22061.385000	-15609.240000	-3510.045000	-8694.900000	6.043867	8.288927	5.131872	4.417643	4.421222	1.143869	1.155152	1.568924	-1.907500	-9.308600	-2.868880	0.908872	-0.242004	0.325500	-1.000000	-1.000000	-1.000000	-1.000000	-1.000000	-1.000000	-1.000000	68.206897	0.000000	-1.000000	-1.000000	2789335.000000	1770067076.310493
-21513.915000	-14583.105000	-20856.735000	-15951.150000	-22097.295000	-15643.980000	-3525.615000	-8682.120000	-4.553226	4.288919	1.403550	3.199640	5.477493	5.008254	3.347718	-0.166986	-1.907500	-9.308600	-2.868880	0.908872	-0.242004	0.325500	-1.000000	-1.000000	-1.000000	-1.000000	-1.000000	-1.000000	-1.000000	68.206897	0.000000	-1.000000	-1.000000	2789336.000000	1770067076.310504
-21558.555000	-14598.945000	-20871.765000	-15970.320000	-22108.545000	-15643.530000	-3508.065000	-8661.645000	-6.501115	-2.237871	-6.051002	-3.790594	-0.343631	2.398193	0.583425	-2.020313	-1.907500	-9.308600	-2.868880	0.908872	-0.242004	0.325500	-1.000000	-1.000000	-1.000000	-1.000000	-1.000000	-1.000000	-1.000000	68.206897	0.000000	-1.000000	-1.000000	2789337.000000	1770067076.310515
-21588.345000	-14598.495000	-20863.350000	-15969.240000	-22095.855000	-15625.800000	-3492.630000	-8657.955000	-4.169701	-7.693288	-12.888050	-13.054017	-9.375917	-3.414452	-3.446123	-4.377195	-1.907500	-9.308600	-2.868880	0.908872	-0.242004	0.325500	-1.000000	-1.000000	-1.000000	-1.000000	-1.000000	-1.000000	-1.000000	68.206897	0.000000	-1.000000	-1.000000	2789338.000000	1770067076.310521
-21593.655000	-14588.730000	-20848.995000	-15965.370000	-22095.540000	-15629.940000	-3504.960000	-8683.290000	-5.837418	-9.211470	-13.240108	-16.718198	-13.338932	-5.637117	-3.964041	-6.695466	-1.907500	-9.308600	-2.868880	0.908872	-0.242004	0.325500	-1.000000	-1.000000	-1.000000	-1.000000	-1.000000	-1.000000	-1.000000	68.206897	0.000000	-1.000000	-1.000000	2789339.000000	1770067076.311154
-21602.970000	-14581.035000	-20840.940000	-15948.855000	-22090.680000	-15629.715000	-3509.730000	-8725.995000	-13.707455	-5.508246	-4.385552	-9.314613	-7.207100	-1.014938	-0.226492	-9.686651	-1.907500	-9.308600	-2.868880	0.908872	-0.242004	0.325500	-1.000000	-1.000000	-1.000000	-1.000000	-1.000000	-1.000000	-1.000000	68.206897	0.000000	-1.000000	-1.000000	2789340.000000	1770067076.311162
-21615.210000	-14567.805000	-20835.000000	-15917.130000	-22065.165000	-15610.770000	-3502.665000	-8760.420000	-20.622844	1.761130	9.222019	6.254497	5.517518	6.757757	3.996490	-13.527690	-1.449700	8.377740	15.748320	0.925352	-0.236144	0.312011	-1.000000	-1.000000	-1.000000	-1.000000	-1.000000	-1.000000	-1.000000	68.206897	0.000000	-1.000000	-1.000000	2789341.000000	1770067076.315121
-21599.550000	-14565.015000	-20821.815000	-15904.485000	-22058.370000	-15607.215000	-3501.990000	-8713.395000	-16.304465	8.568699	18.556238	20.281037	15.801047	10.852582	4.578898	-14.203998	-1.449700	8.377740	15.748320	0.925352	-0.236144	0.312011	-1.000000	-1.000000	-1.000000	-1.000000	-1.000000	-1.000000	-1.000000	68.206897	0.000000	-1.000000	-1.000000	2789342.000000	1770067076.315131
-21591.495000	-14578.335000	-20822.580000	-15909.435000	-22059.765000	-15608.070000	-3497.670000	-8663.940000	0.104183	11.324837	18.357715	24.292966	17.169162	8.208394	1.570297	-6.361229	-1.449700	8.377740	15.748320	0.925352	-0.236144	0.312011	-1.000000	-1.000000	-1.000000	-1.000000	-1.000000	-1.000000	-1.000000	68.206897	0.000000	-1.000000	-1.000000	2789343.000000	1770067076.319261
-21578.490000	-14587.560000	-20832.660000	-15926.130000	-22068.450000	-15608.070000	-3489.255000	-8643.780000	16.946405	9.021953	10.916353	17.143106	10.596941	2.302670	-0.638054	9.566138	-1.449700	8.377740	15.748320	0.925352	-0.236144	0.312011	-1.000000	-1.000000	-1.000000	-1.000000	-1.000000	-1.000000	-1.000000	68.206897	0.000000	-1.000000	-1.000000	2789344.000000	1770067076.319271
-21562.290000	-14570.820000	-20819.790000	-15913.305000	-22061.520000	-15601.545000	-3486.195000	-8659.935000	22.694907	3.464898	1.931849	4.241071	1.954304	-1.214808	1.235485	24.648917	-1.449700	8.377740	15.748320	0.925352	-0.236144	0.312011	-1.000000	-1.000000	-1.000000	-1.000000	-1.000000	-1.000000	-1.000000	68.206897	0.000000	-1.000000	-1.000000	2789345.000000	1770067076.324481
-21586.635000	-14577.165000	-20809.215000	-15892.020000	-22052.520000	-15605.595000	-3497.490000	-8698.005000	17.093420	-2.073255	-4.464557	-7.212400	-4.089327	-1.019186	4.667205	27.400852	-1.449700	8.377740	15.748320	0.925352	-0.236144	0.312011	-1.000000	-1.000000	-1.000000	-1.000000	-1.000000	-1.000000	-1.000000	68.206897	0.000000	-1.000000	-1.000000	2789346.000000	1770067076.324488
-21601.530000	-14594.175000	-20818.710000	-15897.645000	-22055.805000	-15610.815000	-3495.645000	-8695.755000	6.853705	-5.603933	-7.457557	-12.639474	-6.682963	-0.345972	4.762514	14.378474	-1.449700	8.377740	15.748320	0.925352	-0.236144	0.312011	-1.000000	-1.000000	-1.000000	-1.000000	-1.000000	-1.000000	-1.000000	68.206897	0.000000	-1.000000	-1.000000	2789347.000000	1770067076.327224
-21596.670000	-14610.870000	-20836.215000	-15915.330000	-22069.260000	-15622.560000	-3493.485000	-8661.015000	-2.991214	-7.678531	-8.778790	-12.307957	-7.164327	-1.790120	0.848017	-5.183625	-1.449700	8.377740	15.748320	0.925352	-0.236144	0.312011	-1.000000	-1.000000	-1.000000	-1.000000	-1.000000	-1.000000	-1.000000	68.206897	0.000000	-1.000000	-1.000000	2789348.000000	1770067076.327234
-21594.285000	-14585.940000	-20827.215000	-15908.400000	-22056.480000	-15602.130000	-3490.155000	-8684.550000	-9.345368	-8.816911	-9.982745	-9.901642	-7.024859	-4.722832	-3.746591	-17.312459	-1.449700	8.377740	15.748320	0.925352	-0.236144	0.312011	-1.000000	-1.000000	-1.000000	-1.000000	-1.000000	-1.000000	-1.000000	68.206897	0.000000	-1.000000	-1.000000	2789349.000000	1770067076.331192
-21622.005000	-14563.395000	-20819.835000	-15903.270000	-22046.715000	-15586.065000	-3483.180000	-8722.080000	-9.805322	-7.462584	-10.498247	-8.569239	-7.001573	-6.952346	-6.386057	-16.511880	-1.449700	8.377740	15.748320	0.925352	-0.236144	0.312011	-1.000000	-1.000000	-1.000000	-1.000000	-1.000000	-1.000000	-1.000000	68.206897	0.000000	-1.000000	-1.000000	2789350.000000	1770067076.331203
-21655.170000	-14553.450000	-20790.090000	-15871.455000	-22017.195000	-15561.180000	-3465.765000	-8733.240000	-6.101139	-2.167390	-8.401504	-7.903034	-6.338861	-6.488662	-6.278090	-9.426892	8.560860	12.879440	9.506980	0.926572	-0.267822	0.306579	-1.000000	-1.000000	-1.000000	-1.000000	-1.000000	-1.000000	-1.000000	68.206897	0.000000	-1.000000	-1.000000	2789351.000000	1770067076.335215
-21645.585000	-14561.505000	-20797.470000	-15887.340000	-22034.970000	-15581.295000	-3479.715000	-8729.505000	-3.523686	5.559200	-2.432932	-4.839740	-3.357723	-2.690543	-3.481068	-5.107278	8.560860	12.879440	9.506980	0.926572	-0.267822	0.306579	-1.000000	-1.000000	-1.000000	-1.000000	-1.000000	-1.000000	-1.000000	68.206897	0.000000	-1.000000	-1.000000	2789352.000000	1770067076.335223
-21605.850000	-14585.715000	-20833.470000	-15938.370000	-22088.700000	-15632.100000	-3515.940000	-8719.020000	-3.873027	11.197903	5.320547	1.038133	1.114475	1.898612	0.012545	-5.111015	8.560860	12.879440	9.506980	0.926572	-0.267822	0.306579	-1.000000	-1.000000	-1.000000	-1.000000	-1.000000	-1.000000	-1.000000	68.206897	0.000000	-1.000000	-1.000000	2789353.000000	1770067076.348266
-21581.460000	-14639.040000	-20907.990000	-16018.875000	-22160.655000	-15682.455000	-3538.890000	-8677.845000	-3.016849	9.703639	8.700447	4.444986	2.291831	2.314637	0.704285	-4.005711	8.560860	12.879440	9.506980	0.926572	-0.267822	0.306579	-1.000000	-1.000000	-1.000000	-1.000000	-1.000000	-1.000000	-1.000000	68.206897	0.000000	-1.000000	-1.000000	2789354.000000	1770067076.348278
-21559.590000	-14619.645000	-20902.410000	-16007.805000	-22135.140000	-15651.270000	-3508.740000	-8644.365000	3.273772	0.620611	3.445655	0.781560	-2.500441	-2.658098	-1.769963	3.589613	8.560860	12.879440	9.506980	0.926572	-0.267822	0.306579	-1.000000	-1.000000	-1.000000	-1.000000	-1.000000	-1.000000	-1.000000	68.206897	0.000000	-1.000000	-1.000000	2789355.000000	1770067076.348290
-21554.190000	-14598.405000	-20872.305000	-15975.855000	-22104.315000	-15618.465000	-3484.215000	-8647.650000	13.146528	-8.889629	-5.474337	-5.311087	-7.514019	-6.636645	-2.867477	15.884371	8.560860	12.879440	9.506980	0.926572	-0.267822	0.306579	-1.000000	-1.000000	-1.000000	-1.000000	-1.000000	-1.000000	-1.000000	68.206897	0.000000	-1.000000	-1.000000	2789356.000000	1770067076.348296
-21569.085000	-14583.510000	-20857.095000	-15958.125000	-22089.330000	-15602.355000	-3476.655000	-8656.155000	19.191778	-10.441656	-7.936321	-4.271653	-4.389895	-2.660631	1.083735	23.826526	8.560860	12.879440	9.506980	0.926572	-0.267822	0.306579	-1.000000	-1.000000	-1.000000	-1.000000	-1.000000	-1.000000	-1.000000	68.206897	0.000000	-1.000000	-1.000000	2789357.000000	1770067076.348302
-21579.570000	-14569.290000	-20844.405000	-15931.845000	-22074.255000	-15604.335000	-3488.490000	-8668.305000	15.554100	-3.428513	-0.449971	6.134601	6.853256	7.411112	7.563271	20.585973	8.560860	12.879440	9.506980	0.926572	-0.267822	0.306579	-1.000000	-1.000000	-1.000000	-1.000000	-1.000000	-1.000000	-1.000000	68.206897	0.000000	-1.000000	-1.000000	2789358.000000	1770067076.348307
-21578.580000	-14572.710000	-20843.820000	-15928.470000	-22077.900000	-15619.230000	-3504.330000	-8682.210000	3.874960	5.434335	10.656377	18.389495	17.639547	14.543524	10.327910	7.860892	8.560860	12.879440	9.506980	0.926572	-0.267822	0.306579	-1.000000	-1.000000	-1.000000	-1.000000	-1.000000	-1.000000	-1.000000	68.206897	0.000000	-1.000000	-1.000000	2789359.000000	1770067076.351177
-21587.850000	-14562.270000	-20812.500000	-15899.940000	-22062.330000	-15613.920000	-3501.090000	-8689.770000	-8.928225	9.701892	16.902478	23.454463	19.893541	12.407143	6.142050	-7.987303	8.560860	12.879440	9.506980	0.926572	-0.267822	0.306579	-1.000000	-1.000000	-1.000000	-1.000000	-1.000000	-1.000000	-1.000000	68.206897	0.000000	-1.000000	-1.000000	2789360.000000	1770067076.351187
-21592.980000	-14563.980000	-20809.080000	-15902.415000	-22059.180000	-15615.945000	-3504.105000	-8700.795000	-17.571316	8.242376	15.486131	18.773853	13.245946	3.569431	-1.715917	-20.831260	11.094020	12.650540	-1.953280	0.916441	-0.278991	0.318175	-1.000000	-1.000000	-1.000000	-1.000000	-1.000000	-1.000000	-1.000000	68.206897	0.000000	-1.000000	-1.000000	2789361.000000	1770067076.355339
-21589.965000	-14566.095000	-20805.570000	-15908.895000	-22064.130000	-15616.935000	-3506.760000	-8701.830000	-20.934925	4.068051	9.581160	8.700814	4.003631	-3.918359	-6.847168	-26.481602	11.094020	12.650540	-1.953280	0.916441	-0.278991	0.318175	-1.000000	-1.000000	-1.000000	-1.000000	-1.000000	-1.000000	-1.000000	68.206897	0.000000	-1.000000	-1.000000	2789362.000000	1770067076.355349
-21593.790000	-14568.165000	-20802.420000	-15908.895000	-22067.415000	-15614.640000	-3501.270000	-8703.405000	-19.221652	0.531448	3.510177	-1.065633	-2.109464	-4.908573	-6.009463	-23.668690	11.094020	12.650540	-1.953280	0.916441	-0.278991	0.318175	-1.000000	-1.000000	-1.000000	-1.000000	-1.000000	-1.000000	-1.000000	68.206897	0.000000	-1.000000	-1.000000	2789363.000000	1770067076.360722
-21604.815000	-14559.705000	-20796.390000	-15899.130000	-22060.620000	-15610.860000	-3505.680000	-8716.410000	-12.742384	-1.420485	-1.317507	-8.120147	-4.982591	-1.501060	-1.632981	-14.323671	11.094020	12.650540	-1.953280	0.916441	-0.278991	0.318175	-1.000000	-1.000000	-1.000000	-1.000000	-1.000000	-1.000000	-1.000000	68.206897	0.000000	-1.000000	-1.000000	2789364.000000	1770067076.360734
-21598.785000	-14575.005000	-20833.830000	-15926.220000	-22072.140000	-15616.080000	-3502.530000	-8683.965000	-3.061923	-3.316774	-6.924498	-13.643343	-7.983651	0.422709	1.378150	-1.781316	11.094020	12.650540	-1.953280	0.916441	-0.278991	0.318175	-1.000000	-1.000000	-1.000000	-1.000000	-1.000000	-1.000000	-1.000000	68.206897	0.000000	-1.000000	-1.000000	2789365.000000	1770067076.369446
-21569.220000	-14560.740000	-20837.655000	-15926.715000	-22068.630000	-15610.680000	-3490.290000	-8658.900000	7.907231	-6.454717	-14.969360	-19.119709	-12.664174	-2.213073	0.996658	11.749370	11.094020	12.650540	-1.953280	0.916441	-0.278991	0.318175	-1.000000	-1.000000	-1.000000	-1.000000	-1.000000	-1.000000	-1.000000	68.206897	0.000000	-1.000000	-1.000000	2789366.000000	1770067076.369459
-21581.460000	-14569.380000	-20825.145000	-15912.405000	-22063.365000	-15610.680000	-3495.465000	-8683.020000	18.161506	-9.740099	-22.426291	-22.885527	-16.707546	-7.163208	-0.710537	23.672632	11.094020	12.650540	-1.953280	0.916441	-0.278991	0.318175	-1.000000	-1.000000	-1.000000	-1.000000	-1.000000	-1.000000	-1.000000	68.206897	0.000000	-1.000000	-1.000000	2789367.000000	1770067076.369472
