Channel1	Channel2	Channel3	Channel4	Channel5	Channel6	Channel7	Channel8	FilteredChannel1	FilteredChannel2	FilteredChannel3	FilteredChannel4	FilteredChannel5	FilteredChannel6	FilteredChannel7	FilteredChannel8	GyroX	GyroY	GyroZ	AccX	AccY	AccZ	PPG1	PPG2	rawPPG1	rawPPG2	rawPPG3	Hr	Hrv	Battery	Trigger	PhysicalTrigger	AutoTrigger	NumMeasurements	Timestamp
-21646.440000	-14680.755000	-20658.330000	-15843.825000	-22081.320000	-15653.205000	-3528.855000	-8796.015000	1.128072	1.631142	4.760579	-1.859953	-1.794498	-0.368701	1.216316	8.313651	-3.494540	2.426340	-3.036740	0.902647	-0.247009	0.348022	-1.000000	-1.000000	-1.000000	-1.000000	-1.000000	-1.000000	-1.000000	68.344828	0.000000	-1.000000	-1.000000	2783215.000000	1770067064.059118
-21647.385000	-14676.930000	-20657.160000	-15837.165000	-22074.165000	-15646.905000	-3525.435000	-8795.340000	0.233320	-1.223414	2.408820	-2.365284	-1.981480	-0.662742	1.207830	-0.373144	-3.494540	2.426340	-3.036740	0.902647	-0.247009	0.348022	-1.000000	-1.000000	-1.000000	-1.000000	-1.000000	-1.000000	-1.000000	68.344828	0.000000	-1.000000	-1.000000	2783216.000000	1770067064.059128
-21643.740000	-14677.110000	-20666.745000	-15838.065000	-22077.315000	-15650.280000	-3525.390000	-8794.665000	-1.793934	-2.591893	0.626692	-1.389388	-0.956632	-0.173299	0.775226	-8.678046	-3.494540	2.426340	-3.036740	0.902647	-0.247009	0.348022	-1.000000	-1.000000	-1.000000	-1.000000	-1.000000	-1.000000	-1.000000	68.344828	0.000000	-1.000000	-1.000000	2783217.000000	1770067064.066033
-21652.605000	-14680.485000	-20665.890000	-15833.295000	-22072.995000	-15644.970000	-3522.060000	-8816.895000	-1.826460	-0.893637	-0.358040	0.941283	1.437991	1.538071	0.901863	-12.099116	-3.494540	2.426340	-3.036740	0.902647	-0.247009	0.348022	-1.000000	-1.000000	-1.000000	-1.000000	-1.000000	-1.000000	-1.000000	68.344828	0.000000	-1.000000	-1.000000	2783218.000000	1770067064.066042
-21649.770000	-14684.715000	-20666.115000	-15842.160000	-22081.185000	-15652.845000	-3533.175000	-8831.880000	-0.341859	1.523687	-1.526147	2.987498	3.573901	3.123040	1.201378	-11.446775	-3.494540	2.426340	-3.036740	0.902647	-0.247009	0.348022	-1.000000	-1.000000	-1.000000	-1.000000	-1.000000	-1.000000	-1.000000	68.344828	0.000000	-1.000000	-1.000000	2783219.000000	1770067064.067350
-21640.995000	-14683.320000	-20662.515000	-15841.440000	-22078.755000	-15653.025000	-3534.795000	-8822.880000	0.893396	1.694836	-2.781095	3.283242	3.812502	3.033608	0.664297	-9.338455	-3.494540	2.426340	-3.036740	0.902647	-0.247009	0.348022	-1.000000	-1.000000	-1.000000	-1.000000	-1.000000	-1.000000	-1.000000	68.344828	0.000000	-1.000000	-1.000000	2783220.000000	1770067064.067360
-21663.765000	-14687.280000	-20661.345000	-15831.945000	-22066.920000	-15646.140000	-3529.215000	-8815.050000	1.357719	-0.309076	-3.501462	1.671240	2.094861	1.087716	-0.839447	-6.116087	-3.677660	2.044840	-3.738700	0.903440	-0.247741	0.347716	-1.000000	-1.000000	-1.000000	-1.000000	-1.000000	-1.000000	-1.000000	68.344828	0.000000	-1.000000	-1.000000	2783221.000000	1770067064.072694
-21668.580000	-14689.980000	-20663.190000	-15827.310000	-22063.500000	-15643.980000	-3526.605000	-8811.405000	0.841925	-2.043604	-3.163125	-0.126574	0.232588	-1.049875	-2.064849	-1.012554	-3.677660	2.044840	-3.738700	0.903440	-0.247741	0.347716	-1.000000	-1.000000	-1.000000	-1.000000	-1.000000	-1.000000	-1.000000	68.344828	0.000000	-1.000000	-1.000000	2783222.000000	1770067064.072703
-21630.465000	-14680.530000	-20662.200000	-15833.070000	-22069.260000	-15648.885000	-3529.890000	-8812.890000	-0.434457	-1.825605	-1.622312	-0.374886	-0.201478	-1.654328	-1.870296	5.012459	-3.677660	2.044840	-3.738700	0.903440	-0.247741	0.347716	-1.000000	-1.000000	-1.000000	-1.000000	-1.000000	-1.000000	-1.000000	68.344828	0.000000	-1.000000	-1.000000	2783223.000000	1770067064.075251
-21605.850000	-14664.555000	-20661.615000	-15839.595000	-22077.000000	-15656.580000	-3534.030000	-8812.620000	-0.383904	0.280112	0.483495	0.282336	0.121783	-0.994401	-0.613041	9.670264	-3.677660	2.044840	-3.738700	0.903440	-0.247741	0.347716	-1.000000	-1.000000	-1.000000	-1.000000	-1.000000	-1.000000	-1.000000	68.344828	0.000000	-1.000000	-1.000000	2783224.000000	1770067064.075257
-21630.105000	-14656.995000	-20651.355000	-15834.195000	-22070.655000	-15650.415000	-3526.245000	-8814.510000	2.344870	3.386362	2.427511	0.131569	-0.296485	-0.443251	0.640485	11.303749	-3.677660	2.044840	-3.738700	0.903440	-0.247741	0.347716	-1.000000	-1.000000	-1.000000	-1.000000	-1.000000	-1.000000	-1.000000	68.344828	0.000000	-1.000000	-1.000000	2783225.000000	1770067064.079334
-21643.830000	-14658.120000	-20645.595000	-15829.290000	-22064.220000	-15643.935000	-3522.555000	-8819.865000	4.936732	5.939781	3.952878	-1.027945	-1.418660	-0.355826	1.471817	9.616458	-3.677660	2.044840	-3.738700	0.903440	-0.247741	0.347716	-1.000000	-1.000000	-1.000000	-1.000000	-1.000000	-1.000000	-1.000000	68.344828	0.000000	-1.000000	-1.000000	2783226.000000	1770067064.079344
-21627.765000	-14665.005000	-20649.105000	-15827.850000	-22064.040000	-15641.865000	-3518.415000	-8805.960000	3.892573	5.897728	4.583638	-2.012684	-2.064696	-0.148435	1.988121	5.801005	-3.677660	2.044840	-3.738700	0.903440	-0.247741	0.347716	-1.000000	-1.000000	-1.000000	-1.000000	-1.000000	-1.000000	-1.000000	68.344828	0.000000	-1.000000	-1.000000	2783227.000000	1770067064.085993
-21625.065000	-14669.505000	-20653.695000	-15821.280000	-22060.710000	-15639.165000	-3518.640000	-8799.525000	-0.180428	2.257307	3.414153	-1.765842	-1.600756	0.441393	2.234603	1.967583	-3.677660	2.044840	-3.738700	0.903440	-0.247741	0.347716	-1.000000	-1.000000	-1.000000	-1.000000	-1.000000	-1.000000	-1.000000	68.344828	0.000000	-1.000000	-1.000000	2783228.000000	1770067064.086006
-21624.705000	-14668.020000	-20651.895000	-15819.345000	-22059.450000	-15641.460000	-3520.845000	-8794.980000	-4.125774	-3.487531	0.202332	-0.348735	-0.491695	0.962299	1.938570	-0.828839	-3.677660	2.044840	-3.738700	0.903440	-0.247741	0.347716	-1.000000	-1.000000	-1.000000	-1.000000	-1.000000	-1.000000	-1.000000	68.344828	0.000000	-1.000000	-1.000000	2783229.000000	1770067064.087721
-21633.570000	-14674.410000	-20659.185000	-15833.790000	-22074.345000	-15655.590000	-3528.990000	-8804.475000	-5.556709	-8.023915	-3.763416	0.878016	0.043419	0.510757	0.539082	-3.298478	-3.677660	2.044840	-3.738700	0.903440	-0.247741	0.347716	-1.000000	-1.000000	-1.000000	-1.000000	-1.000000	-1.000000	-1.000000	68.344828	0.000000	-1.000000	-1.000000	2783230.000000	1770067064.087732
-21634.875000	-14682.240000	-20664.045000	-15838.380000	-22077.630000	-15657.165000	-3526.875000	-8803.080000	-4.445218	-8.996303	-6.454319	0.516548	-0.810674	-1.256747	-1.902375	-6.111974	-5.218920	1.083460	-3.464020	0.903562	-0.247924	0.348205	-1.000000	-1.000000	-1.000000	-1.000000	-1.000000	-1.000000	-1.000000	68.344828	0.000000	-1.000000	-1.000000	2783231.000000	1770067064.091174
-21643.380000	-14696.595000	-20669.580000	-15842.655000	-22080.015000	-15659.820000	-3527.730000	-8810.955000	-3.185231	-6.954991	-6.675307	-1.176066	-2.228647	-3.164004	-4.026196	-8.408742	-5.218920	1.083460	-3.464020	0.903562	-0.247924	0.348205	-1.000000	-1.000000	-1.000000	-1.000000	-1.000000	-1.000000	-1.000000	68.344828	0.000000	-1.000000	-1.000000	2783232.000000	1770067064.091182
-21644.100000	-14683.590000	-20666.565000	-15843.825000	-22081.005000	-15661.845000	-3530.475000	-8820.450000	-3.537198	-3.880927	-4.529044	-2.554322	-2.509421	-3.510824	-4.353216	-8.703763	-5.218920	1.083460	-3.464020	0.903562	-0.247924	0.348205	-1.000000	-1.000000	-1.000000	-1.000000	-1.000000	-1.000000	-1.000000	68.344828	0.000000	-1.000000	-1.000000	2783233.000000	1770067064.095669
-21638.115000	-14662.530000	-20661.435000	-15843.240000	-22081.320000	-15663.330000	-3531.870000	-8821.395000	-3.726917	-0.308589	-0.927156	-2.428803	-1.086815	-1.955251	-2.854564	-6.427536	-5.218920	1.083460	-3.464020	0.903562	-0.247924	0.348205	-1.000000	-1.000000	-1.000000	-1.000000	-1.000000	-1.000000	-1.000000	68.344828	0.000000	-1.000000	-1.000000	2783234.000000	1770067064.095677
-21654.945000	-14664.645000	-20652.660000	-15832.800000	-22071.060000	-15654.915000	-3528.315000	-8832.645000	-1.183557	4.261170	2.924270	-0.815047	1.191917	0.443737	-0.647350	-2.247248	-5.218920	1.083460	-3.464020	0.903562	-0.247924	0.348205	-1.000000	-1.000000	-1.000000	-1.000000	-1.000000	-1.000000	-1.000000	68.344828	0.000000	-1.000000	-1.000000	2783235.000000	1770067064.099126
-21668.265000	-14684.535000	-20661.120000	-15830.145000	-22066.830000	-15652.800000	-3533.760000	-8845.020000	2.891304	8.435093	5.825670	1.669521	3.369576	2.616336	1.263841	1.951227	-5.218920	1.083460	-3.464020	0.903562	-0.247924	0.348205	-1.000000	-1.000000	-1.000000	-1.000000	-1.000000	-1.000000	-1.000000	68.344828	0.000000	-1.000000	-1.000000	2783236.000000	1770067064.099136
-21647.610000	-14675.220000	-20658.915000	-15829.695000	-22066.875000	-15653.565000	-3531.375000	-8819.010000	5.348751	9.415306	6.659228	3.912294	4.690858	3.913407	2.405593	4.412451	-5.218920	1.083460	-3.464020	0.903562	-0.247924	0.348205	-1.000000	-1.000000	-1.000000	-1.000000	-1.000000	-1.000000	-1.000000	68.344828	0.000000	-1.000000	-1.000000	2783237.000000	1770067064.103177
-21618.090000	-14657.985000	-20647.575000	-15823.575000	-22061.610000	-15646.230000	-3515.130000	-8794.080000	6.180588	6.793778	5.185903	4.689312	4.485703	4.018445	2.986061	5.730216	-5.218920	1.083460	-3.464020	0.903562	-0.247924	0.348205	-1.000000	-1.000000	-1.000000	-1.000000	-1.000000	-1.000000	-1.000000	68.344828	0.000000	-1.000000	-1.000000	2783238.000000	1770067064.103187
-21634.470000	-14669.415000	-20654.775000	-15831.945000	-22070.025000	-15655.590000	-3525.255000	-8816.040000	7.232227	2.902422	2.565118	3.796819	2.848445	3.179978	3.493641	7.125446	-5.218920	1.083460	-3.464020	0.903562	-0.247924	0.348205	-1.000000	-1.000000	-1.000000	-1.000000	-1.000000	-1.000000	-1.000000	68.344828	0.000000	-1.000000	-1.000000	2783239.000000	1770067064.107141
-21641.130000	-14682.465000	-20670.615000	-15849.315000	-22085.820000	-15671.700000	-3535.740000	-8813.925000	7.402180	-0.611041	-0.158161	1.646712	0.326115	1.513597	3.346225	7.414407	-5.218920	1.083460	-3.464020	0.903562	-0.247924	0.348205	-1.000000	-1.000000	-1.000000	-1.000000	-1.000000	-1.000000	-1.000000	68.344828	0.000000	-1.000000	-1.000000	2783240.000000	1770067064.107151
-21639.690000	-14693.355000	-20681.190000	-15859.440000	-22094.190000	-15678.090000	-3537.090000	-8806.185000	4.195176	-3.821524	-2.958216	-1.510258	-2.726459	-1.184471	1.492322	5.194914	-3.738700	3.006220	-2.609460	0.904661	-0.247985	0.346557	-1.000000	-1.000000	-1.000000	-1.000000	-1.000000	-1.000000	-1.000000	68.344828	0.000000	-1.000000	-1.000000	2783241.000000	1770067064.111211
-21639.915000	-14683.905000	-20671.650000	-15849.405000	-22086.090000	-15671.070000	-3532.410000	-8810.190000	-1.678906	-6.752167	-5.458430	-4.643754	-5.337971	-4.041126	-1.464989	1.484713	-3.738700	3.006220	-2.609460	0.904661	-0.247985	0.346557	-1.000000	-1.000000	-1.000000	-1.000000	-1.000000	-1.000000	-1.000000	68.344828	0.000000	-1.000000	-1.000000	2783242.000000	1770067064.111219
-21647.475000	-14682.645000	-20665.440000	-15841.035000	-22078.620000	-15662.790000	-3527.730000	-8813.250000	-6.914061	-8.391445	-6.282952	-5.774693	-5.837348	-5.136183	-3.571124	-1.979444	-3.738700	3.006220	-2.609460	0.904661	-0.247985	0.346557	-1.000000	-1.000000	-1.000000	-1.000000	-1.000000	-1.000000	-1.000000	68.344828	0.000000	-1.000000	-1.000000	2783243.000000	1770067064.115256
-21636.675000	-14681.520000	-20664.405000	-15840.720000	-22078.665000	-15662.970000	-3530.160000	-8813.430000	-8.696877	-7.253312	-4.466584	-3.958149	-3.629024	-3.578182	-3.610213	-4.228578	-3.738700	3.006220	-2.609460	0.904661	-0.247985	0.346557	-1.000000	-1.000000	-1.000000	-1.000000	-1.000000	-1.000000	-1.000000	68.344828	0.000000	-1.000000	-1.000000	2783244.000000	1770067064.115267
-21630.465000	-14684.220000	-20654.955000	-15830.145000	-22067.010000	-15653.520000	-3526.425000	-8811.225000	-6.206557	-2.857862	-0.505065	-0.307132	0.078014	-0.370435	-1.898308	-4.950439	-3.738700	3.006220	-2.609460	0.904661	-0.247985	0.346557	-1.000000	-1.000000	-1.000000	-1.000000	-1.000000	-1.000000	-1.000000	68.344828	0.000000	-1.000000	-1.000000	2783245.000000	1770067064.120624
-21635.730000	-14691.420000	-20662.335000	-15835.410000	-22070.655000	-15658.155000	-3528.450000	-8815.590000	-1.534198	2.789743	3.754882	3.142438	3.451150	2.693769	0.283636	-4.930274	-3.738700	3.006220	-2.609460	0.904661	-0.247985	0.346557	-1.000000	-1.000000	-1.000000	-1.000000	-1.000000	-1.000000	-1.000000	68.344828	0.000000	-1.000000	-1.000000	2783246.000000	1770067064.120632
-21640.005000	-14673.015000	-20677.635000	-15851.925000	-22085.865000	-15672.420000	-3533.580000	-8816.670000	1.586044	6.517016	5.690603	4.489907	4.842019	3.931739	1.439780	-5.249788	-3.738700	3.006220	-2.609460	0.904661	-0.247985	0.346557	-1.000000	-1.000000	-1.000000	-1.000000	-1.000000	-1.000000	-1.000000	68.344828	0.000000	-1.000000	-1.000000	2783247.000000	1770067064.124139
-21641.805000	-14666.175000	-20672.280000	-15843.285000	-22074.570000	-15662.430000	-3527.550000	-8816.715000	1.615509	7.465738	4.114975	3.210196	3.764600	2.873867	1.156506	-5.195429	-3.738700	3.006220	-2.609460	0.904661	-0.247985	0.346557	-1.000000	-1.000000	-1.000000	-1.000000	-1.000000	-1.000000	-1.000000	68.344828	0.000000	-1.000000	-1.000000	2783248.000000	1770067064.124146
-21674.925000	-14680.890000	-20659.455000	-15835.725000	-22069.440000	-15660.855000	-3526.425000	-8819.235000	-0.217544	6.809327	1.185528	1.220043	1.895588	1.156875	0.627952	-3.176399	-3.738700	3.006220	-2.609460	0.904661	-0.247985	0.346557	-1.000000	-1.000000	-1.000000	-1.000000	-1.000000	-1.000000	-1.000000	68.344828	0.000000	-1.000000	-1.000000	2783249.000000	1770067064.127257
-21701.655000	-14695.425000	-20658.690000	-15846.030000	-22075.920000	-15666.885000	-3531.330000	-8836.515000	-2.848254	4.587974	-0.046088	0.582279	1.029803	0.445826	0.783513	0.378393	-3.738700	3.006220	-2.609460	0.904661	-0.247985	0.346557	-1.000000	-1.000000	-1.000000	-1.000000	-1.000000	-1.000000	-1.000000	68.344828	0.000000	-1.000000	-1.000000	2783250.000000	1770067064.127269
-21656.880000	-14681.880000	-20650.500000	-15845.490000	-22081.860000	-15673.005000	-3537.000000	-8837.055000	-4.768916	0.204456	0.642277	0.637658	0.546174	0.148777	0.905497	3.371258	-2.655240	4.730600	-1.510740	0.905088	-0.248596	0.344237	-1.000000	-1.000000	-1.000000	-1.000000	-1.000000	-1.000000	-1.000000	68.344828	0.000000	-1.000000	-1.000000	2783251.000000	1770067064.134302
-21615.570000	-14666.535000	-20649.420000	-15833.790000	-22076.550000	-15669.090000	-3532.905000	-8818.515000	-2.252408	-4.613101	1.231738	-0.246455	-1.053644	-1.097530	0.050269	4.940286	-2.655240	4.730600	-1.510740	0.905088	-0.248596	0.344237	-1.000000	-1.000000	-1.000000	-1.000000	-1.000000	-1.000000	-1.000000	68.344828	0.000000	-1.000000	-1.000000	2783252.000000	1770067064.134312
-21631.140000	-14670.315000	-20653.020000	-15832.260000	-22072.635000	-15665.040000	-3532.185000	-8825.625000	5.762368	-6.626928	0.302950	-1.875387	-3.431549	-2.992904	-1.298720	5.767871	-2.655240	4.730600	-1.510740	0.905088	-0.248596	0.344237	-1.000000	-1.000000	-1.000000	-1.000000	-1.000000	-1.000000	-1.000000	68.344828	0.000000	-1.000000	-1.000000	2783253.000000	1770067064.136372
-21662.505000	-14696.595000	-20671.155000	-15851.970000	-22088.655000	-15679.755000	-3538.665000	-8827.245000	13.042089	-5.184690	-2.219560	-3.313746	-5.132574	-4.201645	-2.033763	5.658704	-2.655240	4.730600	-1.510740	0.905088	-0.248596	0.344237	-1.000000	-1.000000	-1.000000	-1.000000	-1.000000	-1.000000	-1.000000	68.344828	0.000000	-1.000000	-1.000000	2783254.000000	1770067064.136384
-21640.590000	-14679.540000	-20664.180000	-15848.010000	-22085.055000	-15676.020000	-3531.195000	-8811.630000	12.440052	-2.671311	-5.197227	-4.184272	-5.291918	-3.977914	-1.767205	3.803823	-2.655240	4.730600	-1.510740	0.905088	-0.248596	0.344237	-1.000000	-1.000000	-1.000000	-1.000000	-1.000000	-1.000000	-1.000000	68.344828	0.000000	-1.000000	-1.000000	2783255.000000	1770067064.142638
-21637.170000	-14670.765000	-20672.415000	-15835.005000	-22070.790000	-15664.320000	-3529.845000	-8854.155000	4.564303	-0.786179	-6.378607	-3.492283	-3.202267	-1.868402	-0.549409	0.454458	-2.655240	4.730600	-1.510740	0.905088	-0.248596	0.344237	-1.000000	-1.000000	-1.000000	-1.000000	-1.000000	-1.000000	-1.000000	68.344828	0.000000	-1.000000	-1.000000	2783256.000000	1770067064.142646
-21664.980000	-14679.090000	-20664.090000	-15829.020000	-22069.395000	-15666.345000	-3539.250000	-8887.545000	-4.497761	0.654012	-4.371911	-0.312945	1.176095	1.938347	1.111982	-4.161350	-2.655240	4.730600	-1.510740	0.905088	-0.248596	0.344237	-1.000000	-1.000000	-1.000000	-1.000000	-1.000000	-1.000000	-1.000000	68.344828	0.000000	-1.000000	-1.000000	2783257.000000	1770067064.143149
-21687.345000	-14703.390000	-20676.420000	-15844.500000	-22086.450000	-15684.210000	-3548.790000	-8853.210000	-10.177153	1.746325	-0.357762	3.839731	5.573045	5.326253	1.932332	-8.770216	-2.655240	4.730600	-1.510740	0.905088	-0.248596	0.344237	-1.000000	-1.000000	-1.000000	-1.000000	-1.000000	-1.000000	-1.000000	68.344828	0.000000	-1.000000	-1.000000	2783258.000000	1770067064.143154
-21654.720000	-14704.245000	-20686.140000	-15857.640000	-22098.735000	-15694.650000	-3544.155000	-8782.920000	-10.779477	1.811444	2.877277	5.746636	6.751691	5.604599	1.234837	-8.345636	-2.655240	4.730600	-1.510740	0.905088	-0.248596	0.344237	-1.000000	-1.000000	-1.000000	-1.000000	-1.000000	-1.000000	-1.000000	68.344828	0.000000	-1.000000	-1.000000	2783259.000000	1770067064.147130
-21607.920000	-14670.900000	-20663.775000	-15840.315000	-22082.715000	-15678.495000	-3530.385000	-8766.495000	-6.315970	0.925757	3.633411	3.870246	3.958690	2.563132	0.121387	0.828060	-2.655240	4.730600	-1.510740	0.905088	-0.248596	0.344237	-1.000000	-1.000000	-1.000000	-1.000000	-1.000000	-1.000000	-1.000000	68.344828	0.000000	-1.000000	-1.000000	2783260.000000	1770067064.147142
-21609.270000	-14666.625000	-20656.440000	-15831.045000	-22072.275000	-15665.895000	-3522.645000	-8786.520000	0.909868	0.606739	3.028827	0.016737	-0.176400	-1.029196	0.174188	13.386054	-3.067260	5.356260	-1.785420	0.904478	-0.248107	0.344604	-1.000000	-1.000000	-1.000000	-1.000000	-1.000000	-1.000000	-1.000000	68.344828	0.000000	-1.000000	-1.000000	2783261.000000	1770067064.151353
-21631.950000	-14673.870000	-20658.870000	-15831.990000	-22074.075000	-15669.945000	-3531.420000	-8825.670000	6.661469	1.784322	3.005005	-2.734594	-2.569428	-2.453109	1.390815	18.227670	-3.067260	5.356260	-1.785420	0.904478	-0.248107	0.344604	-1.000000	-1.000000	-1.000000	-1.000000	-1.000000	-1.000000	-1.000000	68.344828	0.000000	-1.000000	-1.000000	2783262.000000	1770067064.151359
-21631.455000	-14673.240000	-20656.170000	-15829.920000	-22071.015000	-15667.875000	-3532.050000	-8827.245000	7.688338	3.452546	3.734000	-2.771017	-2.287120	-1.443776	2.167613	9.687233	-3.067260	5.356260	-1.785420	0.904478	-0.248107	0.344604	-1.000000	-1.000000	-1.000000	-1.000000	-1.000000	-1.000000	-1.000000	68.344828	0.000000	-1.000000	-1.000000	2783263.000000	1770067064.160335
-21619.395000	-14671.395000	-20654.010000	-15827.940000	-22067.865000	-15665.220000	-3525.660000	-8800.515000	4.051111	3.675337	4.091491	-0.660834	-0.358109	0.502385	1.330494	-6.532956	-3.067260	5.356260	-1.785420	0.904478	-0.248107	0.344604	-1.000000	-1.000000	-1.000000	-1.000000	-1.000000	-1.000000	-1.000000	68.344828	0.000000	-1.000000	-1.000000	2783264.000000	1770067064.160346
-21624.210000	-14665.590000	-20646.945000	-15824.700000	-22064.355000	-15660.720000	-3516.030000	-8781.255000	-1.306768	1.429808	3.196687	1.530231	1.326174	1.671603	-0.440233	-17.768903	-3.067260	5.356260	-1.785420	0.904478	-0.248107	0.344604	-1.000000	-1.000000	-1.000000	-1.000000	-1.000000	-1.000000	-1.000000	68.344828	0.000000	-1.000000	-1.000000	2783265.000000	1770067064.160537
-21644.730000	-14670.855000	-20650.455000	-15832.530000	-22071.510000	-15665.715000	-3520.935000	-8800.830000	-4.785618	-1.891448	0.953671	1.931643	1.363990	1.287601	-1.528226	-16.109801	-3.067260	5.356260	-1.785420	0.904478	-0.248107	0.344604	-1.000000	-1.000000	-1.000000	-1.000000	-1.000000	-1.000000	-1.000000	68.344828	0.000000	-1.000000	-1.000000	2783266.000000	1770067064.160549
-21638.520000	-14674.680000	-20660.220000	-15841.755000	-22080.645000	-15674.445000	-3526.065000	-8807.940000	-4.678221	-3.694281	-2.094175	0.458544	-0.051658	-0.075825	-1.368242	-6.073327	-3.067260	5.356260	-1.785420	0.904478	-0.248107	0.344604	-1.000000	-1.000000	-1.000000	-1.000000	-1.000000	-1.000000	-1.000000	68.344828	0.000000	-1.000000	-1.000000	2783267.000000	1770067064.164066
-21625.200000	-14675.220000	-20672.280000	-15841.935000	-22077.045000	-15671.295000	-3522.465000	-8802.495000	-2.481777	-3.336503	-5.217458	-1.569982	-1.672783	-1.416044	-0.879704	1.618509	-3.067260	5.356260	-1.785420	0.904478	-0.248107	0.344604	-1.000000	-1.000000	-1.000000	-1.000000	-1.000000	-1.000000	-1.000000	68.344828	0.000000	-1.000000	-1.000000	2783268.000000	1770067064.164073
-21636.495000	-14683.680000	-20686.140000	-15851.340000	-22082.715000	-15675.930000	-3526.605000	-8813.565000	-1.538315	-2.804941	-8.046597	-3.244432	-2.750349	-2.459364	-1.182085	1.832484	-3.067260	5.356260	-1.785420	0.904478	-0.248107	0.344604	-1.000000	-1.000000	-1.000000	-1.000000	-1.000000	-1.000000	-1.000000	68.344828	0.000000	-1.000000	-1.000000	2783269.000000	1770067064.167239
-21640.590000	-14680.215000	-20673.540000	-15844.995000	-22084.065000	-15679.890000	-3533.265000	-8825.265000	-3.070771	-3.538911	-9.699853	-4.363723	-3.422057	-3.510736	-2.453115	-1.922869	-3.067260	5.356260	-1.785420	0.904478	-0.248107	0.344604	-1.000000	-1.000000	-1.000000	-1.000000	-1.000000	-1.000000	-1.000000	68.344828	0.000000	-1.000000	-1.000000	2783270.000000	1770067064.167250
-21638.700000	-14677.065000	-20665.260000	-15842.835000	-22081.995000	-15679.350000	-3532.095000	-8814.195000	-4.216509	-3.972845	-7.953999	-4.084603	-3.463446	-4.159578	-3.592603	-3.179284	-2.533160	5.463080	-1.861720	0.905027	-0.247253	0.344237	-1.000000	-1.000000	-1.000000	-1.000000	-1.000000	-1.000000	-1.000000	68.344828	0.000000	-1.000000	-1.000000	2783271.000000	1770067064.175274
-21642.300000	-14680.440000	-20665.260000	-15843.150000	-22080.105000	-15677.460000	-3527.415000	-8802.990000	-2.079150	-2.081010	-1.826333	-1.547915	-2.084711	-3.253029	-3.093422	0.929288	-2.533160	5.463080	-1.861720	0.905027	-0.247253	0.344237	-1.000000	-1.000000	-1.000000	-1.000000	-1.000000	-1.000000	-1.000000	68.344828	0.000000	-1.000000	-1.000000	2783272.000000	1770067064.175284
-21633.570000	-14670.900000	-20648.250000	-15823.890000	-22066.650000	-15667.290000	-3522.330000	-8798.670000	2.400517	1.522056	6.219493	2.512596	0.734582	-0.476197	-0.673022	7.595277	-2.533160	5.463080	-1.861720	0.905027	-0.247253	0.344237	-1.000000	-1.000000	-1.000000	-1.000000	-1.000000	-1.000000	-1.000000	68.344828	0.000000	-1.000000	-1.000000	2783273.000000	1770067064.178260
-21632.130000	-14668.065000	-20641.590000	-15814.845000	-22055.400000	-15657.480000	-3517.425000	-8798.040000	6.726121	4.849885	12.272108	6.415027	4.066738	3.219377	2.490401	11.919750	-2.533160	5.463080	-1.861720	0.905027	-0.247253	0.344237	-1.000000	-1.000000	-1.000000	-1.000000	-1.000000	-1.000000	-1.000000	68.344828	0.000000	-1.000000	-1.000000	2783274.000000	1770067064.178269
-21637.710000	-14670.315000	-20649.555000	-15821.640000	-22057.740000	-15659.460000	-3518.505000	-8807.400000	9.527996	6.700794	13.598401	8.614572	6.785459	6.471497	4.990595	11.231243	-2.533160	5.463080	-1.861720	0.905027	-0.247253	0.344237	-1.000000	-1.000000	-1.000000	-1.000000	-1.000000	-1.000000	-1.000000	68.344828	0.000000	-1.000000	-1.000000	2783275.000000	1770067064.179807
-21635.550000	-14675.355000	-20663.415000	-15840.045000	-22081.860000	-15682.455000	-3531.510000	-8817.750000	9.442175	6.514998	9.581015	7.718669	7.375390	7.615522	5.687112	5.555975	-2.533160	5.463080	-1.861720	0.905027	-0.247253	0.344237	-1.000000	-1.000000	-1.000000	-1.000000	-1.000000	-1.000000	-1.000000	68.344828	0.000000	-1.000000	-1.000000	2783276.000000	1770067064.179815
-21627.270000	-14670.585000	-20658.915000	-15837.930000	-22083.480000	-15684.390000	-3533.985000	-8812.845000	5.165051	4.000276	2.014566	3.177225	4.302131	5.065937	3.737959	-3.019429	-2.533160	5.463080	-1.861720	0.905027	-0.247253	0.344237	-1.000000	-1.000000	-1.000000	-1.000000	-1.000000	-1.000000	-1.000000	68.344828	0.000000	-1.000000	-1.000000	2783277.000000	1770067064.190883
-21628.530000	-14676.165000	-20661.570000	-15839.415000	-22081.590000	-15681.285000	-3531.060000	-8801.100000	-1.860691	-0.129407	-5.548573	-3.320241	-1.687092	-0.532450	-0.186189	-9.948744	-2.533160	5.463080	-1.861720	0.905027	-0.247253	0.344237	-1.000000	-1.000000	-1.000000	-1.000000	-1.000000	-1.000000	-1.000000	68.344828	0.000000	-1.000000	-1.000000	2783278.000000	1770067064.190895
-21635.010000	-14683.500000	-20670.345000	-15848.415000	-22089.195000	-15688.710000	-3533.580000	-8806.725000	-7.655619	-4.180724	-10.155978	-8.605256	-7.209064	-5.886366	-3.624723	-10.729879	-2.533160	5.463080	-1.861720	0.905027	-0.247253	0.344237	-1.000000	-1.000000	-1.000000	-1.000000	-1.000000	-1.000000	-1.000000	68.344828	0.000000	-1.000000	-1.000000	2783279.000000	1770067064.190909
-21639.465000	-14675.490000	-20662.695000	-15841.755000	-22082.670000	-15683.355000	-3528.360000	-8808.390000	-9.423621	-6.487615	-10.931079	-10.322566	-9.185879	-7.949018	-4.525283	-5.623897	-2.533160	5.463080	-1.861720	0.905027	-0.247253	0.344237	-1.000000	-1.000000	-1.000000	-1.000000	-1.000000	-1.000000	-1.000000	68.344828	0.000000	-1.000000	-1.000000	2783280.000000	1770067064.190914
-21650.895000	-14680.665000	-20664.540000	-15840.585000	-22079.520000	-15680.745000	-3528.315000	-8820.225000	-7.571954	-6.157670	-8.272501	-7.924681	-6.905193	-6.059192	-2.939777	0.441721	-3.174080	4.745860	-2.365300	0.903745	-0.246826	0.344848	-1.000000	-1.000000	-1.000000	-1.000000	-1.000000	-1.000000	-1.000000	68.344828	0.000000	-1.000000	-1.000000	2783281.000000	1770067064.191191
-21647.655000	-14678.190000	-20659.005000	-15833.115000	-22071.870000	-15674.895000	-3523.365000	-8813.340000	-4.198758	-3.708250	-3.531967	-2.865505	-1.992793	-1.799161	-0.432060	3.167638	-3.174080	4.745860	-2.365300	0.903745	-0.246826	0.344848	-1.000000	-1.000000	-1.000000	-1.000000	-1.000000	-1.000000	-1.000000	68.344828	0.000000	-1.000000	-1.000000	2783282.000000	1770067064.191202
-21671.325000	-14679.360000	-20655.450000	-15828.615000	-22067.685000	-15670.620000	-3520.890000	-8816.940000	-0.903571	-0.554918	1.350796	2.395715	2.939374	2.428656	1.528269	2.483325	-3.174080	4.745860	-2.365300	0.903745	-0.246826	0.344848	-1.000000	-1.000000	-1.000000	-1.000000	-1.000000	-1.000000	-1.000000	68.344828	0.000000	-1.000000	-1.000000	2783283.000000	1770067064.201197
-21718.215000	-14700.015000	-20663.955000	-15836.040000	-22073.355000	-15675.210000	-3524.445000	-8828.415000	0.874651	1.992474	5.104426	6.215108	6.130708	5.103527	2.446020	0.785444	-3.174080	4.745860	-2.365300	0.903745	-0.246826	0.344848	-1.000000	-1.000000	-1.000000	-1.000000	-1.000000	-1.000000	-1.000000	68.344828	0.000000	-1.000000	-1.000000	2783284.000000	1770067064.201208
-21707.055000	-14710.770000	-20674.620000	-15845.265000	-22080.780000	-15681.825000	-3531.105000	-8830.035000	-0.151758	2.723448	7.002573	7.792007	7.036746	5.857161	2.382187	-0.365267	-3.174080	4.745860	-2.365300	0.903745	-0.246826	0.344848	-1.000000	-1.000000	-1.000000	-1.000000	-1.000000	-1.000000	-1.000000	68.344828	0.000000	-1.000000	-1.000000	2783285.000000	1770067064.201221
-21620.745000	-14672.115000	-20662.020000	-15841.980000	-22081.320000	-15683.850000	-3535.335000	-8819.055000	-1.329850	1.850301	6.565797	6.628140	5.585967	4.630061	1.364242	-0.583084	-3.174080	4.745860	-2.365300	0.903745	-0.246826	0.344848	-1.000000	-1.000000	-1.000000	-1.000000	-1.000000	-1.000000	-1.000000	68.344828	0.000000	-1.000000	-1.000000	2783286.000000	1770067064.201226
-21600.585000	-14651.190000	-20646.000000	-15825.555000	-22067.865000	-15673.275000	-3525.930000	-8811.270000	3.079817	2.078410	4.606369	3.492559	2.449740	1.866422	-0.222411	0.423446	-3.174080	4.745860	-2.365300	0.903745	-0.246826	0.344848	-1.000000	-1.000000	-1.000000	-1.000000	-1.000000	-1.000000	-1.000000	68.344828	0.000000	-1.000000	-1.000000	2783287.000000	1770067064.205793
-21631.545000	-14666.040000	-20651.895000	-15826.185000	-22067.235000	-15673.950000	-3525.750000	-8823.420000	12.619593	4.791362	2.646941	0.453954	-0.646204	-0.969976	-1.331130	2.327680	-3.174080	4.745860	-2.365300	0.903745	-0.246826	0.344848	-1.000000	-1.000000	-1.000000	-1.000000	-1.000000	-1.000000	-1.000000	68.344828	0.000000	-1.000000	-1.000000	2783288.000000	1770067064.205806
-21622.005000	-14655.465000	-20646.765000	-15823.440000	-22064.265000	-15672.420000	-3521.970000	-8815.455000	18.770803	7.138715	0.939552	-1.299478	-2.441487	-2.641590	-1.329510	3.664481	-3.174080	4.745860	-2.365300	0.903745	-0.246826	0.344848	-1.000000	-1.000000	-1.000000	-1.000000	-1.000000	-1.000000	-1.000000	68.344828	0.000000	-1.000000	-1.000000	2783289.000000	1770067064.207219
-21624.930000	-14667.795000	-20657.970000	-15833.070000	-22071.870000	-15679.395000	-3523.995000	-8803.935000	15.150170	5.750716	-1.269433	-2.447198	-3.286787	-3.309721	-0.702508	3.502996	-3.174080	4.745860	-2.365300	0.903745	-0.246826	0.344848	-1.000000	-1.000000	-1.000000	-1.000000	-1.000000	-1.000000	-1.000000	68.344828	0.000000	-1.000000	-1.000000	2783290.000000	1770067064.207230
-21632.310000	-14690.790000	-20670.210000	-15842.835000	-22079.790000	-15686.370000	-3529.845000	-8805.240000	3.402667	0.132628	-4.362415	-4.156145	-4.216769	-3.834114	-0.393911	2.275651	-4.104940	3.769220	-1.739640	0.900571	-0.244323	0.344726	-1.000000	-1.000000	-1.000000	-1.000000	-1.000000	-1.000000	-1.000000	68.344828	0.000000	-1.000000	-1.000000	2783291.000000	1770067064.211141
-21632.175000	-14703.660000	-20667.420000	-15840.090000	-22077.855000	-15684.660000	-3530.115000	-8809.965000	-9.612890	-7.498277	-7.416469	-6.175851	-5.265189	-4.338622	-0.836698	0.534104	-4.104940	3.769220	-1.739640	0.900571	-0.244323	0.344726	-1.000000	-1.000000	-1.000000	-1.000000	-1.000000	-1.000000	-1.000000	68.344828	0.000000	-1.000000	-1.000000	2783292.000000	1770067064.211151
-21617.460000	-14672.835000	-20651.895000	-15835.500000	-22074.840000	-15682.455000	-3526.020000	-8801.640000	-16.596215	-12.464722	-7.836404	-6.365467	-4.873544	-3.653843	-1.303399	-1.225778	-4.104940	3.769220	-1.739640	0.900571	-0.244323	0.344726	-1.000000	-1.000000	-1.000000	-1.000000	-1.000000	-1.000000	-1.000000	68.344828	0.000000	-1.000000	-1.000000	2783293.000000	1770067064.223545
-21625.020000	-14645.970000	-20647.845000	-15836.265000	-22074.615000	-15682.770000	-3526.515000	-8807.940000	-15.438271	-10.201322	-3.725895	-3.113267	-1.774692	-0.826224	-0.641532	-2.440962	-4.104940	3.769220	-1.739640	0.900571	-0.244323	0.344726	-1.000000	-1.000000	-1.000000	-1.000000	-1.000000	-1.000000	-1.000000	68.344828	0.000000	-1.000000	-1.000000	2783294.000000	1770067064.223554
-21628.845000	-14657.265000	-20652.570000	-15831.405000	-22067.955000	-15676.605000	-3522.690000	-8808.120000	-11.065954	-1.757103	2.848681	2.173451	2.907572	3.149726	1.146548	-3.285657	-4.104940	3.769220	-1.739640	0.900571	-0.244323	0.344726	-1.000000	-1.000000	-1.000000	-1.000000	-1.000000	-1.000000	-1.000000	68.344828	0.000000	-1.000000	-1.000000	2783295.000000	1770067064.223564
-21639.420000	-14678.505000	-20662.650000	-15826.950000	-22065.075000	-15676.245000	-3523.905000	-8815.230000	-8.514315	5.936800	7.085037	6.257063	6.469905	6.011823	2.736457	-4.131173	-4.104940	3.769220	-1.739640	0.900571	-0.244323	0.344726	-1.000000	-1.000000	-1.000000	-1.000000	-1.000000	-1.000000	-1.000000	68.344828	0.000000	-1.000000	-1.000000	2783296.000000	1770067064.223569
-21653.325000	-14699.205000	-20667.690000	-15833.520000	-22069.935000	-15682.455000	-3529.170000	-8823.555000	-6.994175	7.091215	6.161165	6.949552	6.885357	6.060935	2.727883	-4.545108	-4.104940	3.769220	-1.739640	0.900571	-0.244323	0.344726	-1.000000	-1.000000	-1.000000	-1.000000	-1.000000	-1.000000	-1.000000	68.344828	0.000000	-1.000000	-1.000000	2783297.000000	1770067064.223576
-21646.665000	-14680.350000	-20661.390000	-15834.690000	-22071.465000	-15683.355000	-3527.685000	-8814.780000	-3.337869	2.305248	1.562980	4.267853	4.002462	3.213438	0.855333	-3.851524	-4.104940	3.769220	-1.739640	0.900571	-0.244323	0.344726	-1.000000	-1.000000	-1.000000	-1.000000	-1.000000	-1.000000	-1.000000	68.344828	0.000000	-1.000000	-1.000000	2783298.000000	1770067064.223580
-21646.890000	-14664.330000	-20655.630000	-15832.620000	-22072.815000	-15685.380000	-3526.515000	-8808.075000	3.151687	-2.629759	-2.657737	0.124870	-0.441020	-0.884176	-1.646929	-1.803194	-4.104940	3.769220	-1.739640	0.900571	-0.244323	0.344726	-1.000000	-1.000000	-1.000000	-1.000000	-1.000000	-1.000000	-1.000000	68.344828	0.000000	-1.000000	-1.000000	2783299.000000	1770067064.227307
-21611.655000	-14649.570000	-20648.385000	-15827.445000	-22069.395000	-15681.870000	-3521.250000	-8797.410000	10.948646	-2.157049	-3.304342	-2.834040	-3.872306	-3.878274	-2.941720	1.441928	-4.104940	3.769220	-1.739640	0.900571	-0.244323	0.344726	-1.000000	-1.000000	-1.000000	-1.000000	-1.000000	-1.000000	-1.000000	68.344828	0.000000	-1.000000	-1.000000	2783300.000000	1770067064.227318
-21622.545000	-14660.955000	-20659.230000	-15835.545000	-22073.625000	-15685.020000	-3523.635000	-8805.105000	17.573671	3.601561	-0.621844	-3.256259	-4.668187	-4.365874	-2.167395	5.007766	-5.997180	3.036740	-2.350040	0.900999	-0.243224	0.345031	-1.000000	-1.000000	-1.000000	-1.000000	-1.000000	-1.000000	-1.000000	68.344828	0.000000	-1.000000	-1.000000	2783301.000000	1770067064.231223
-21628.530000	-14670.045000	-20673.180000	-15842.430000	-22072.815000	-15682.680000	-3523.320000	-8804.835000	19.187395	8.520997	2.015526	-2.045567	-3.091856	-2.644206	-0.125027	7.024056	-5.997180	3.036740	-2.350040	0.900999	-0.243224	0.345031	-1.000000	-1.000000	-1.000000	-1.000000	-1.000000	-1.000000	-1.000000	68.344828	0.000000	-1.000000	-1.000000	2783302.000000	1770067064.231231
-21633.750000	-14675.400000	-20668.815000	-15833.970000	-22066.065000	-15678.045000	-3522.870000	-8807.040000	12.685591	6.551258	1.694861	-0.819267	-0.530490	-0.047603	1.651217	5.989854	-5.997180	3.036740	-2.350040	0.900999	-0.243224	0.345031	-1.000000	-1.000000	-1.000000	-1.000000	-1.000000	-1.000000	-1.000000	68.344828	0.000000	-1.000000	-1.000000	2783303.000000	1770067064.237816
-21650.310000	-14693.130000	-20669.040000	-15839.190000	-22072.005000	-15685.470000	-3526.920000	-8818.605000	-0.235910	-1.929874	-0.941653	-0.274561	1.514769	1.884753	2.087553	2.245796	-5.997180	3.036740	-2.350040	0.900999	-0.243224	0.345031	-1.000000	-1.000000	-1.000000	-1.000000	-1.000000	-1.000000	-1.000000	68.344828	0.000000	-1.000000	-1.000000	2783304.000000	1770067064.237826
-21663.270000	-14700.060000	-20662.110000	-15843.285000	-22076.730000	-15687.855000	-3525.795000	-8817.525000	-13.194241	-10.618860	-2.866572	-0.420948	1.907186	2.050323	1.074958	-2.267803	-5.997180	3.036740	-2.350040	0.900999	-0.243224	0.345031	-1.000000	-1.000000	-1.000000	-1.000000	-1.000000	-1.000000	-1.000000	68.344828	0.000000	-1.000000	-1.000000	2783305.000000	1770067064.247912
-21659.670000	-14685.030000	-20658.240000	-15843.780000	-22083.165000	-15694.155000	-3531.105000	-8820.180000	-19.496378	-13.107867	-2.053422	-0.866719	0.580170	0.592142	-0.561875	-5.190304	-5.997180	3.036740	-2.350040	0.900999	-0.243224	0.345031	-1.000000	-1.000000	-1.000000	-1.000000	-1.000000	-1.000000	-1.000000	68.344828	0.000000	-1.000000	-1.000000	2783306.000000	1770067064.247924
-21624.300000	-14663.430000	-20654.685000	-15845.715000	-22084.200000	-15696.225000	-3532.050000	-8810.190000	-16.054563	-7.638373	0.832977	-0.869711	-1.284656	-1.252633	-1.831547	-5.343811	-5.997180	3.036740	-2.350040	0.900999	-0.243224	0.345031	-1.000000	-1.000000	-1.000000	-1.000000	-1.000000	-1.000000	-1.000000	68.344828	0.000000	-1.000000	-1.000000	2783307.000000	1770067064.248168
-21613.365000	-14661.810000	-20654.280000	-15835.590000	-22072.230000	-15685.920000	-3524.580000	-8804.790000	-4.736897	2.264717	3.468280	0.027270	-2.054242	-2.076185	-2.116991	-3.237642	-5.997180	3.036740	-2.350040	0.900999	-0.243224	0.345031	-1.000000	-1.000000	-1.000000	-1.000000	-1.000000	-1.000000	-1.000000	68.344828	0.000000	-1.000000	-1.000000	2783308.000000	1770067064.248174
-21619.440000	-14664.375000	-20657.205000	-15832.755000	-22070.565000	-15686.865000	-3524.085000	-8816.085000	8.002144	10.624096	3.984340	1.688271	-0.765794	-1.115281	-1.171532	-0.328852	-5.997180	3.036740	-2.350040	0.900999	-0.243224	0.345031	-1.000000	-1.000000	-1.000000	-1.000000	-1.000000	-1.000000	-1.000000	68.344828	0.000000	-1.000000	-1.000000	2783309.000000	1770067064.248182
-21631.545000	-14667.930000	-20661.165000	-15831.585000	-22070.925000	-15688.575000	-3526.650000	-8819.505000	14.706429	13.036570	2.240454	3.479157	1.918137	1.019797	0.546716	1.735627	-5.997180	3.036740	-2.350040	0.900999	-0.243224	0.345031	-1.000000	-1.000000	-1.000000	-1.000000	-1.000000	-1.000000	-1.000000	68.344828	0.000000	-1.000000	-1.000000	2783310.000000	1770067064.248188
-21639.645000	-14677.380000	-20662.515000	-15836.355000	-22076.280000	-15693.750000	-3531.195000	-8813.565000	12.240729	8.861359	-0.431818	4.343766	3.981543	2.642108	1.910258	2.260233	-5.112100	2.182180	-4.425400	0.902708	-0.244933	0.344176	-1.000000	-1.000000	-1.000000	-1.000000	-1.000000	-1.000000	-1.000000	68.344828	0.000000	-1.000000	-1.000000	2783311.000000	1770067064.251241
-21631.140000	-14680.935000	-20661.795000	-15835.140000	-22072.905000	-15690.015000	-3529.485000	-8805.015000	3.503937	0.837758	-2.562312	3.251313	3.705736	2.488008	2.049268	2.062883	-5.112100	2.182180	-4.425400	0.902708	-0.244933	0.344176	-1.000000	-1.000000	-1.000000	-1.000000	-1.000000	-1.000000	-1.000000	68.344828	0.000000	-1.000000	-1.000000	2783312.000000	1770067064.251252
-21642.300000	-14676.345000	-20652.120000	-15823.125000	-22060.800000	-15679.665000	-3523.230000	-8807.895000	-5.174062	-6.257246	-3.286992	0.476162	1.428242	1.047309	1.204096	2.282102	-5.112100	2.182180	-4.425400	0.902708	-0.244933	0.344176	-1.000000	-1.000000	-1.000000	-1.000000	-1.000000	-1.000000	-1.000000	68.344828	0.000000	-1.000000	-1.000000	2783313.000000	1770067064.255214
-21657.645000	-14676.795000	-20653.245000	-15825.915000	-22063.590000	-15682.770000	-3521.430000	-8805.330000	-8.991025	-8.477597	-2.414805	-2.142491	-0.792122	-0.064617	0.397807	2.879603	-5.112100	2.182180	-4.425400	0.902708	-0.244933	0.344176	-1.000000	-1.000000	-1.000000	-1.000000	-1.000000	-1.000000	-1.000000	68.344828	0.000000	-1.000000	-1.000000	2783314.000000	1770067064.255224
-21652.560000	-14672.925000	-20652.615000	-15826.950000	-22065.570000	-15685.425000	-3521.970000	-8803.755000	-7.844340	-5.982735	-0.739010	-3.213414	-1.608694	-0.161884	0.237201	2.769902	-5.112100	2.182180	-4.425400	0.902708	-0.244933	0.344176	-1.000000	-1.000000	-1.000000	-1.000000	-1.000000	-1.000000	-1.000000	68.344828	0.000000	-1.000000	-1.000000	2783315.000000	1770067064.263032
-21633.480000	-14661.000000	-20644.470000	-15818.580000	-22057.515000	-15677.100000	-3518.730000	-8821.215000	-4.398761	-2.086484	0.599273	-2.852224	-1.351435	0.141212	0.413468	0.832670	-5.112100	2.182180	-4.425400	0.902708	-0.244933	0.344176	-1.000000	-1.000000	-1.000000	-1.000000	-1.000000	-1.000000	-1.000000	68.344828	0.000000	-1.000000	-1.000000	2783316.000000	1770067064.263043
-21624.570000	-14652.945000	-20639.520000	-15815.520000	-22053.420000	-15674.085000	-3518.685000	-8828.730000	-0.644776	0.809828	1.297022	-1.786449	-0.887599	0.155392	0.251685	-3.070667	-5.112100	2.182180	-4.425400	0.902708	-0.244933	0.344176	-1.000000	-1.000000	-1.000000	-1.000000	-1.000000	-1.000000	-1.000000	68.344828	0.000000	-1.000000	-1.000000	2783317.000000	1770067064.263520
-21630.420000	-14663.070000	-20652.840000	-15831.360000	-22068.315000	-15687.900000	-3527.055000	-8824.230000	2.730084	2.369382	1.513767	-0.918625	-0.924628	-0.473195	-0.625943	-6.898841	-5.112100	2.182180	-4.425400	0.902708	-0.244933	0.344176	-1.000000	-1.000000	-1.000000	-1.000000	-1.000000	-1.000000	-1.000000	68.344828	0.000000	-1.000000	-1.000000	2783318.000000	1770067064.263530
-21643.875000	-14683.995000	-20668.995000	-15847.020000	-22083.480000	-15700.860000	-3532.410000	-8807.355000	5.039441	2.408628	0.891561	-1.165416	-1.960893	-1.939772	-1.995569	-7.340670	-5.112100	2.182180	-4.425400	0.902708	-0.244933	0.344176	-1.000000	-1.000000	-1.000000	-1.000000	-1.000000	-1.000000	-1.000000	68.344828	0.000000	-1.000000	-1.000000	2783319.000000	1770067064.267294
-21630.240000	-14670.045000	-20655.855000	-15833.430000	-22072.050000	-15690.105000	-3523.095000	-8791.470000	5.431686	0.892889	-0.691771	-2.308504	-3.529854	-3.668818	-2.939199	-3.038952	-5.112100	2.182180	-4.425400	0.902708	-0.244933	0.344176	-1.000000	-1.000000	-1.000000	-1.000000	-1.000000	-1.000000	-1.000000	68.344828	0.000000	-1.000000	-1.000000	2783320.000000	1770067064.267305
-21634.515000	-14665.185000	-20651.625000	-15829.965000	-22069.215000	-15689.385000	-3523.590000	-8806.275000	4.038188	-0.570534	-2.021800	-2.634587	-3.958096	-4.145488	-2.444162	3.596220	-4.120200	2.411080	-5.630940	0.903989	-0.247070	0.343444	-1.000000	-1.000000	-1.000000	-1.000000	-1.000000	-1.000000	-1.000000	68.344828	0.000000	-1.000000	-1.000000	2783321.000000	1770067064.275300
-21663.630000	-14679.810000	-20662.380000	-15839.190000	-22076.820000	-15698.700000	-3529.260000	-8814.195000	1.697409	-0.433693	-2.012627	-1.126189	-2.299307	-2.668789	-0.712164	7.993826	-4.120200	2.411080	-5.630940	0.903989	-0.247070	0.343444	-1.000000	-1.000000	-1.000000	-1.000000	-1.000000	-1.000000	-1.000000	68.344828	0.000000	-1.000000	-1.000000	2783322.000000	1770067064.275313
-21651.120000	-14679.315000	-20658.330000	-15832.575000	-22069.620000	-15691.905000	-3524.625000	-8806.230000	-0.935867	0.454118	-1.123242	1.324858	0.633865	-0.087716	1.002846	7.353746	-4.120200	2.411080	-5.630940	0.903989	-0.247070	0.343444	-1.000000	-1.000000	-1.000000	-1.000000	-1.000000	-1.000000	-1.000000	68.344828	0.000000	-1.000000	-1.000000	2783323.000000	1770067064.275498
-21619.575000	-14665.905000	-20650.005000	-15824.880000	-22062.240000	-15684.840000	-3522.150000	-8814.105000	-2.731013	0.545837	-0.032823	3.551509	3.657171	2.643140	1.976749	2.806838	-4.120200	2.411080	-5.630940	0.903989	-0.247070	0.343444	-1.000000	-1.000000	-1.000000	-1.000000	-1.000000	-1.000000	-1.000000	68.344828	0.000000	-1.000000	-1.000000	2783324.000000	1770067064.275511
-21660.120000	-14678.010000	-20654.550000	-15830.820000	-22067.865000	-15691.005000	-3528.945000	-8839.575000	-3.167196	-0.405170	1.038490	4.728874	5.603066	4.624518	2.120645	-2.621726	-4.120200	2.411080	-5.630940	0.903989	-0.247070	0.343444	-1.000000	-1.000000	-1.000000	-1.000000	-1.000000	-1.000000	-1.000000	68.344828	0.000000	-1.000000	-1.000000	2783325.000000	1770067064.279162
-21654.495000	-14682.825000	-20672.910000	-15853.590000	-22091.715000	-15714.540000	-3542.895000	-8827.425000	-3.695867	-1.899670	1.447126	3.795812	4.972391	4.429848	1.205543	-6.375041	-4.120200	2.411080	-5.630940	0.903989	-0.247070	0.343444	-1.000000	-1.000000	-1.000000	-1.000000	-1.000000	-1.000000	-1.000000	68.344828	0.000000	-1.000000	-1.000000	2783326.000000	1770067064.279172
-21634.335000	-14679.630000	-20671.605000	-15853.140000	-22089.195000	-15710.805000	-3535.425000	-8807.130000	-4.265243	-2.773769	0.838829	0.745878	1.613005	1.736641	-0.436815	-6.543327	-4.120200	2.411080	-5.630940	0.903989	-0.247070	0.343444	-1.000000	-1.000000	-1.000000	-1.000000	-1.000000	-1.000000	-1.000000	68.344828	0.000000	-1.000000	-1.000000	2783327.000000	1770067064.284553
-21635.370000	-14678.685000	-20651.130000	-15839.595000	-22073.985000	-15695.190000	-3524.445000	-8802.270000	-2.362639	-1.505473	0.454569	-2.147997	-1.899094	-1.188331	-1.285550	-2.900310	-4.120200	2.411080	-5.630940	0.903989	-0.247070	0.343444	-1.000000	-1.000000	-1.000000	-1.000000	-1.000000	-1.000000	-1.000000	68.344828	0.000000	-1.000000	-1.000000	2783328.000000	1770067064.284563
-21634.470000	-14678.775000	-20656.890000	-15834.645000	-22065.930000	-15689.295000	-3520.800000	-8798.175000	2.061853	1.613351	1.433580	-2.560229	-2.713085	-1.756820	-0.275403	2.097916	-4.120200	2.411080	-5.630940	0.903989	-0.247070	0.343444	-1.000000	-1.000000	-1.000000	-1.000000	-1.000000	-1.000000	-1.000000	68.344828	0.000000	-1.000000	-1.000000	2783329.000000	1770067064.287323
-21615.345000	-14669.055000	-20672.280000	-15833.295000	-22065.165000	-15690.015000	-3521.430000	-8800.155000	6.339147	4.455824	2.482288	-0.704764	-0.797298	-0.008173	1.721508	5.559104	-4.120200	2.411080	-5.630940	0.903989	-0.247070	0.343444	-1.000000	-1.000000	-1.000000	-1.000000	-1.000000	-1.000000	-1.000000	68.344828	0.000000	-1.000000	-1.000000	2783330.000000	1770067064.287333
-21617.325000	-14659.470000	-20652.255000	-15821.595000	-22059.855000	-15688.170000	-3526.020000	-8823.645000	8.879561	5.725083	1.888398	1.692326	1.758477	2.067914	2.896628	5.927450	-4.104940	3.540320	-4.928980	0.905576	-0.245483	0.343383	-1.000000	-1.000000	-1.000000	-1.000000	-1.000000	-1.000000	-1.000000	68.344828	0.000000	-1.000000	-1.000000	2783331.000000	1770067064.294033
-21639.780000	-14658.030000	-20642.355000	-15814.665000	-22056.165000	-15687.000000	-3529.845000	-8853.120000	8.182083	5.272816	0.369547	3.293107	3.024057	2.699320	2.082709	2.356775	-4.104940	3.540320	-4.928980	0.905576	-0.245483	0.343383	-1.000000	-1.000000	-1.000000	-1.000000	-1.000000	-1.000000	-1.000000	68.344828	0.000000	-1.000000	-1.000000	2783332.000000	1770067064.294044
-21646.395000	-14673.555000	-20656.530000	-15829.605000	-22068.090000	-15697.665000	-3532.905000	-8833.635000	2.251249	2.598948	-0.763537	3.043492	1.982136	1.118326	-0.514574	-3.683022	-4.104940	3.540320	-4.928980	0.905576	-0.245483	0.343383	-1.000000	-1.000000	-1.000000	-1.000000	-1.000000	-1.000000	-1.000000	68.344828	0.000000	-1.000000	-1.000000	2783333.000000	1770067064.295292
-21635.415000	-14697.180000	-20668.455000	-15842.970000	-22080.735000	-15708.600000	-3527.595000	-8781.570000	-6.703767	-2.482566	-1.781220	0.337186	-1.199012	-2.133159	-3.179055	-6.639479	-4.104940	3.540320	-4.928980	0.905576	-0.245483	0.343383	-1.000000	-1.000000	-1.000000	-1.000000	-1.000000	-1.000000	-1.000000	68.344828	0.000000	-1.000000	-1.000000	2783334.000000	1770067064.295298
-21637.665000	-14687.955000	-20659.365000	-15831.135000	-22068.765000	-15696.945000	-3522.285000	-8797.680000	-12.499503	-8.013861	-2.725282	-3.321955	-4.428902	-4.812070	-3.702828	-2.536238	-4.104940	3.540320	-4.928980	0.905576	-0.245483	0.343383	-1.000000	-1.000000	-1.000000	-1.000000	-1.000000	-1.000000	-1.000000	68.344828	0.000000	-1.000000	-1.000000	2783335.000000	1770067064.299420
-21640.455000	-14664.015000	-20659.140000	-15832.395000	-22069.890000	-15697.980000	-3528.675000	-8826.255000	-11.788635	-10.065629	-2.508968	-4.989871	-5.007137	-4.586030	-1.683387	4.221121	-4.104940	3.540320	-4.928980	0.905576	-0.245483	0.343383	-1.000000	-1.000000	-1.000000	-1.000000	-1.000000	-1.000000	-1.000000	68.344828	0.000000	-1.000000	-1.000000	2783336.000000	1770067064.299428
-21653.730000	-14662.755000	-20654.910000	-15828.705000	-22065.390000	-15696.540000	-3533.130000	-8844.480000	-6.401010	-6.149215	-1.083453	-3.770902	-2.755083	-1.854867	0.680098	5.581122	-4.104940	3.540320	-4.928980	0.905576	-0.245483	0.343383	-1.000000	-1.000000	-1.000000	-1.000000	-1.000000	-1.000000	-1.000000	68.344828	0.000000	-1.000000	-1.000000	2783337.000000	1770067064.305820
-21683.430000	-14671.395000	-20654.145000	-15827.175000	-22063.095000	-15696.315000	-3535.065000	-8875.080000	-0.538819	1.383271	0.455699	-1.349613	0.111765	0.889660	1.151324	-0.620575	-4.104940	3.540320	-4.928980	0.905576	-0.245483	0.343383	-1.000000	-1.000000	-1.000000	-1.000000	-1.000000	-1.000000	-1.000000	68.344828	0.000000	-1.000000	-1.000000	2783338.000000	1770067064.305831
-21659.895000	-14663.970000	-20649.465000	-15822.540000	-22059.990000	-15693.615000	-3528.315000	-8851.140000	2.813341	7.249105	1.635160	0.630746	1.896604	2.152916	-0.011412	-8.925484	-4.104940	3.540320	-4.928980	0.905576	-0.245483	0.343383	-1.000000	-1.000000	-1.000000	-1.000000	-1.000000	-1.000000	-1.000000	68.344828	0.000000	-1.000000	-1.000000	2783339.000000	1770067064.308606
-21647.025000	-14681.790000	-20667.105000	-15839.010000	-22072.680000	-15703.740000	-3526.065000	-8798.400000	4.472280	7.954144	1.917433	1.326219	2.149252	1.999318	-0.827957	-10.639068	-4.104940	3.540320	-4.928980	0.905576	-0.245483	0.343383	-1.000000	-1.000000	-1.000000	-1.000000	-1.000000	-1.000000	-1.000000	68.344828	0.000000	-1.000000	-1.000000	2783340.000000	1770067064.308617
-21611.520000	-14668.245000	-20656.395000	-15839.640000	-22069.890000	-15697.755000	-3514.950000	-8755.155000	7.162442	3.831379	0.425606	0.324815	0.961148	0.943861	0.046124	-0.784461	-4.852680	5.127360	-3.418240	0.907774	-0.245849	0.343322	-1.000000	-1.000000	-1.000000	-1.000000	-1.000000	-1.000000	-1.000000	68.344828	0.000000	-1.000000	-1.000000	2783341.000000	1770067064.311318
-21598.020000	-14660.640000	-20661.660000	-15848.460000	-22078.665000	-15706.440000	-3523.140000	-8765.730000	11.451006	-1.246680	-1.796124	-1.368132	-0.644471	-0.100925	2.121785	15.248980	-4.852680	5.127360	-3.418240	0.907774	-0.245849	0.343322	-1.000000	-1.000000	-1.000000	-1.000000	-1.000000	-1.000000	-1.000000	68.344828	0.000000	-1.000000	-1.000000	2783342.000000	1770067064.311328
-21603.015000	-14652.045000	-20652.705000	-15826.500000	-22063.455000	-15695.055000	-3522.150000	-8787.510000	14.298779	-2.842081	-2.238726	-1.426782	-0.928537	-0.058284	3.544990	24.013116	-4.852680	5.127360	-3.418240	0.907774	-0.245849	0.343322	-1.000000	-1.000000	-1.000000	-1.000000	-1.000000	-1.000000	-1.000000	68.344828	0.000000	-1.000000	-1.000000	2783343.000000	1770067064.315198
-21616.290000	-14653.080000	-20645.595000	-15811.875000	-22056.840000	-15690.915000	-3522.150000	-8804.295000	11.374818	-0.505939	-0.064999	1.487627	0.880380	1.240635	2.877575	16.760461	-4.852680	5.127360	-3.418240	0.907774	-0.245849	0.343322	-1.000000	-1.000000	-1.000000	-1.000000	-1.000000	-1.000000	-1.000000	68.344828	0.000000	-1.000000	-1.000000	2783344.000000	1770067064.315209
-21647.295000	-14675.895000	-20659.995000	-15831.315000	-22072.590000	-15705.270000	-3527.505000	-8813.610000	1.453383	1.777836	2.790843	5.573213	3.248806	2.430506	0.401738	-1.924666	-4.852680	5.127360	-3.418240	0.907774	-0.245849	0.343322	-1.000000	-1.000000	-1.000000	-1.000000	-1.000000	-1.000000	-1.000000	68.344828	0.000000	-1.000000	-1.000000	2783345.000000	1770067064.326146
-21674.295000	-14696.460000	-20673.585000	-15842.745000	-22079.790000	-15713.055000	-3536.370000	-8829.900000	-11.725777	0.150636	3.304524	6.738290	3.343961	1.589561	-2.543690	-19.555235	-4.852680	5.127360	-3.418240	0.907774	-0.245849	0.343322	-1.000000	-1.000000	-1.000000	-1.000000	-1.000000	-1.000000	-1.000000	68.344828	0.000000	-1.000000	-1.000000	2783346.000000	1770067064.326158
-21662.460000	-14702.670000	-20677.410000	-15846.750000	-22083.435000	-15717.015000	-3536.325000	-8799.030000	-21.399030	-4.939323	0.437480	2.856534	0.163145	-1.513393	-4.653531	-25.905400	-4.852680	5.127360	-3.418240	0.907774	-0.245849	0.343322	-1.000000	-1.000000	-1.000000	-1.000000	-1.000000	-1.000000	-1.000000	68.344828	0.000000	-1.000000	-1.000000	2783347.000000	1770067064.326169
-21643.245000	-14690.610000	-20656.935000	-15824.790000	-22061.655000	-15694.515000	-3517.110000	-8784.810000	-21.850598	-9.140086	-3.364848	-3.387601	-3.813729	-4.463035	-4.776370	-18.610456	-4.852680	5.127360	-3.418240	0.907774	-0.245849	0.343322	-1.000000	-1.000000	-1.000000	-1.000000	-1.000000	-1.000000	-1.000000	68.344828	0.000000	-1.000000	-1.000000	2783348.000000	1770067064.326175
-21627.135000	-14672.205000	-20649.015000	-15820.245000	-22058.955000	-15695.505000	-3521.025000	-8798.985000	-12.520707	-7.991388	-4.360969	-6.856002	-4.830582	-4.275549	-2.402993	-4.188328	-4.852680	5.127360	-3.418240	0.907774	-0.245849	0.343322	-1.000000	-1.000000	-1.000000	-1.000000	-1.000000	-1.000000	-1.000000	68.344828	0.000000	-1.000000	-1.000000	2783349.000000	1770067064.327227
-21626.010000	-14648.445000	-20648.565000	-15826.815000	-22066.920000	-15703.155000	-3525.660000	-8810.775000	1.308260	-0.630192	-1.366854	-5.044343	-1.867735	-0.786447	1.141852	6.964205	-4.852680	5.127360	-3.418240	0.907774	-0.245849	0.343322	-1.000000	-1.000000	-1.000000	-1.000000	-1.000000	-1.000000	-1.000000	68.344828	0.000000	-1.000000	-1.000000	2783350.000000	1770067064.327238
-21619.395000	-14667.840000	-20668.545000	-15845.715000	-22085.955000	-15718.725000	-3529.665000	-8806.320000	12.364230	8.922321	2.946922	-0.354510	2.204161	2.983517	3.532764	9.508177	-3.647140	5.035800	-3.525060	0.910215	-0.249694	0.343871	-1.000000	-1.000000	-1.000000	-1.000000	-1.000000	-1.000000	-1.000000	68.344828	0.000000	-1.000000	-1.000000	2783351.000000	1770067064.331456
-21624.390000	-14676.165000	-20670.930000	-15845.400000	-22086.090000	-15719.355000	-3533.265000	-8819.730000	16.362611	14.105967	4.665967	2.580948	3.612462	3.918738	3.595250	6.252152	-3.647140	5.035800	-3.525060	0.910215	-0.249694	0.343871	-1.000000	-1.000000	-1.000000	-1.000000	-1.000000	-1.000000	-1.000000	68.344828	0.000000	-1.000000	-1.000000	2783352.000000	1770067064.331464
-21624.525000	-14668.065000	-20657.745000	-15832.260000	-22071.870000	-15706.980000	-3529.890000	-8820.090000	13.733570	11.338320	2.569972	1.728330	1.583979	1.776667	1.866992	2.897440	-3.647140	5.035800	-3.525060	0.910215	-0.249694	0.343871	-1.000000	-1.000000	-1.000000	-1.000000	-1.000000	-1.000000	-1.000000	68.344828	0.000000	-1.000000	-1.000000	2783353.000000	1770067064.337242
-21629.520000	-14670.855000	-20661.300000	-15837.345000	-22075.785000	-15710.445000	-3528.315000	-8811.405000	7.994520	3.429445	-0.763822	-0.573877	-1.073554	-0.772871	-0.020732	2.754572	-3.647140	5.035800	-3.525060	0.910215	-0.249694	0.343871	-1.000000	-1.000000	-1.000000	-1.000000	-1.000000	-1.000000	-1.000000	68.344828	0.000000	-1.000000	-1.000000	2783354.000000	1770067064.337253
-21627.180000	-14670.900000	-20660.625000	-15837.255000	-22076.010000	-15712.155000	-3524.670000	-8798.805000	2.785569	-3.768045	-2.206519	-1.194035	-1.662433	-1.360826	-0.571543	5.686076	-3.647140	5.035800	-3.525060	0.910215	-0.249694	0.343871	-1.000000	-1.000000	-1.000000	-1.000000	-1.000000	-1.000000	-1.000000	68.344828	0.000000	-1.000000	-1.000000	2783355.000000	1770067064.339243
-21636.810000	-14673.735000	-20658.870000	-15834.465000	-22073.490000	-15709.950000	-3527.055000	-8821.575000	-0.976681	-6.902280	-1.265606	0.219030	-0.323641	-0.236265	0.146830	8.209977	-3.647140	5.035800	-3.525060	0.910215	-0.249694	0.343871	-1.000000	-1.000000	-1.000000	-1.000000	-1.000000	-1.000000	-1.000000	68.344828	0.000000	-1.000000	-1.000000	2783356.000000	1770067064.339253
-21640.005000	-14670.315000	-20650.500000	-15828.525000	-22068.360000	-15705.315000	-3524.805000	-8820.765000	-4.895284	-6.557832	0.300980	1.852207	1.104677	0.850559	0.617080	5.808981	-3.647140	5.035800	-3.525060	0.910215	-0.249694	0.343871	-1.000000	-1.000000	-1.000000	-1.000000	-1.000000	-1.000000	-1.000000	68.344828	0.000000	-1.000000	-1.000000	2783357.000000	1770067064.344003
-21645.270000	-14672.700000	-20648.745000	-15828.885000	-22067.280000	-15704.955000	-3522.330000	-8804.520000	-9.656237	-5.132290	0.838408	2.227370	1.388369	0.857598	-0.079937	-1.414247	-3.647140	5.035800	-3.525060	0.910215	-0.249694	0.343871	-1.000000	-1.000000	-1.000000	-1.000000	-1.000000	-1.000000	-1.000000	68.344828	0.000000	-1.000000	-1.000000	2783358.000000	1770067064.344012
-21644.685000	-14682.465000	-20666.385000	-15841.350000	-22075.605000	-15712.200000	-3522.915000	-8797.995000	-13.197193	-4.407388	0.083598	1.405263	0.836080	0.232076	-1.135829	-7.964081	-3.647140	5.035800	-3.525060	0.910215	-0.249694	0.343871	-1.000000	-1.000000	-1.000000	-1.000000	-1.000000	-1.000000	-1.000000	68.344828	0.000000	-1.000000	-1.000000	2783359.000000	1770067064.348764
-21643.380000	-14688.315000	-20674.395000	-15838.515000	-22071.285000	-15708.555000	-3523.590000	-8805.375000	-12.566984	-4.157435	-1.321020	0.226470	0.383940	-0.108872	-1.390087	-9.261851	-3.647140	5.035800	-3.525060	0.910215	-0.249694	0.343871	-1.000000	-1.000000	-1.000000	-1.000000	-1.000000	-1.000000	-1.000000	68.344828	0.000000	-1.000000	-1.000000	2783360.000000	1770067064.348774
-21646.080000	-14681.655000	-20664.225000	-15833.745000	-22071.150000	-15709.725000	-3529.125000	-8816.040000	-6.733456	-2.793594	-2.441145	-0.737392	0.269168	-0.011941	-0.787931	-5.580218	-3.280900	3.387720	-2.243220	0.910459	-0.250427	0.344970	-1.000000	-1.000000	-1.000000	-1.000000	-1.000000	-1.000000	-1.000000	68.344828	0.000000	-1.000000	-1.000000	2783361.000000	1770067064.351275
-21630.510000	-14674.815000	-20673.990000	-15847.200000	-22080.195000	-15718.320000	-3534.120000	-8812.260000	2.551240	0.537975	-2.532290	-1.507442	-0.190069	-0.207872	-0.203137	-0.216197	-3.280900	3.387720	-2.243220	0.910459	-0.250427	0.344970	-1.000000	-1.000000	-1.000000	-1.000000	-1.000000	-1.000000	-1.000000	68.344828	0.000000	-1.000000	-1.000000	2783362.000000	1770067064.351285
-21610.935000	-14662.035000	-20672.145000	-15846.480000	-22077.495000	-15715.215000	-3528.405000	-8803.125000	12.117786	5.154723	-1.505046	-2.208131	-1.379745	-1.102139	-0.202860	3.748135	-3.280900	3.387720	-2.243220	0.910459	-0.250427	0.344970	-1.000000	-1.000000	-1.000000	-1.000000	-1.000000	-1.000000	-1.000000	68.344828	0.000000	-1.000000	-1.000000	2783363.000000	1770067064.355217
-21632.085000	-14664.735000	-20659.185000	-15837.570000	-22074.255000	-15714.315000	-3525.570000	-8809.470000	18.111638	9.215062	0.425193	-2.301166	-2.438286	-1.907597	-0.360304	4.879621	-3.280900	3.387720	-2.243220	0.910459	-0.250427	0.344970	-1.000000	-1.000000	-1.000000	-1.000000	-1.000000	-1.000000	-1.000000	68.344828	0.000000	-1.000000	-1.000000	2783364.000000	1770067064.355224
-21639.645000	-14668.200000	-20659.050000	-15841.710000	-22077.810000	-15718.455000	-3528.540000	-8814.735000	16.664115	10.232056	2.737747	-1.287263	-2.434033	-1.858469	-0.163275	3.203695	-3.280900	3.387720	-2.243220	0.910459	-0.250427	0.344970	-1.000000	-1.000000	-1.000000	-1.000000	-1.000000	-1.000000	-1.000000	68.344828	0.000000	-1.000000	-1.000000	2783365.000000	1770067064.361015
-21639.465000	-14670.045000	-20656.170000	-15837.840000	-22077.585000	-15719.490000	-3529.080000	-8814.915000	7.350282	6.688610	4.111064	0.209707	-1.599073	-1.267176	0.153398	-0.135213	-3.280900	3.387720	-2.243220	0.910459	-0.250427	0.344970	-1.000000	-1.000000	-1.000000	-1.000000	-1.000000	-1.000000	-1.000000	68.344828	0.000000	-1.000000	-1.000000	2783366.000000	1770067064.361026
-21644.865000	-14689.080000	-20662.605000	-15836.085000	-22079.790000	-15723.765000	-3532.455000	-8818.920000	-5.117902	-0.439406	3.490851	1.441498	-0.483117	-0.577297	0.189366	-3.521862	-3.280900	3.387720	-2.243220	0.910459	-0.250427	0.344970	-1.000000	-1.000000	-1.000000	-1.000000	-1.000000	-1.000000	-1.000000	68.344828	0.000000	-1.000000	-1.000000	2783367.000000	1770067064.366962
-21647.880000	-14697.855000	-20662.200000	-15832.080000	-22075.515000	-15720.750000	-3531.420000	-8820.045000	-14.441116	-7.971795	1.551491	2.551539	0.945673	0.393131	0.028221	-5.516719	-3.280900	3.387720	-2.243220	0.910459	-0.250427	0.344970	-1.000000	-1.000000	-1.000000	-1.000000	-1.000000	-1.000000	-1.000000	68.344828	0.000000	-1.000000	-1.000000	2783368.000000	1770067064.366973
-21648.555000	-14674.230000	-20656.305000	-15827.940000	-22068.540000	-15712.920000	-3527.370000	-8821.035000	-16.758512	-11.818809	-0.089295	3.506625	2.651723	1.815726	0.132958	-4.886233	-3.280900	3.387720	-2.243220	0.910459	-0.250427	0.344970	-1.000000	-1.000000	-1.000000	-1.000000	-1.000000	-1.000000	-1.000000	68.344828	0.000000	-1.000000	-1.000000	2783369.000000	1770067064.367291
-21650.670000	-14660.460000	-20655.855000	-15831.675000	-22071.465000	-15717.330000	-3531.825000	-8830.665000	-12.002125	-9.299053	-0.776404	3.416789	3.878111	3.185790	0.789865	-1.445580	-3.280900	3.387720	-2.243220	0.910459	-0.250427	0.344970	-1.000000	-1.000000	-1.000000	-1.000000	-1.000000	-1.000000	-1.000000	68.344828	0.000000	-1.000000	-1.000000	2783370.000000	1770067064.367301
-21647.070000	-14674.995000	-20661.480000	-15836.220000	-22076.190000	-15722.730000	-3532.320000	-8828.505000	-3.424528	-1.971729	-1.004156	1.755796	3.695130	3.544762	1.569524	2.876509	-6.851740	0.747740	-1.312360	0.909421	-0.249267	0.349120	-1.000000	-1.000000	-1.000000	-1.000000	-1.000000	-1.000000	-1.000000	68.344828	0.000000	-1.000000	-1.000000	2783371.000000	1770067064.377448
-21634.695000	-14673.105000	-20662.740000	-15837.840000	-22078.980000	-15724.935000	-3531.645000	-8818.020000	4.713045	4.998654	-1.410164	-0.896938	1.813247	2.280102	1.634562	5.536653	-6.851740	0.747740	-1.312360	0.909421	-0.249267	0.349120	-1.000000	-1.000000	-1.000000	-1.000000	-1.000000	-1.000000	-1.000000	68.344828	0.000000	-1.000000	-1.000000	2783372.000000	1770067064.377458
-21622.005000	-14669.955000	-20661.030000	-15835.320000	-22075.155000	-15721.020000	-3526.515000	-8802.810000	10.075726	7.654865	-2.280602	-3.485185	-1.080970	-0.170769	0.724736	5.970719	-6.851740	0.747740	-1.312360	0.909421	-0.249267	0.349120	-1.000000	-1.000000	-1.000000	-1.000000	-1.000000	-1.000000	-1.000000	68.344828	0.000000	-1.000000	-1.000000	2783373.000000	1770067064.377469
-21630.015000	-14671.440000	-20659.860000	-15832.530000	-22072.095000	-15718.005000	-3524.760000	-8816.220000	12.142133	6.001456	-3.241865	-4.904318	-3.482198	-2.396748	-0.479221	5.082946	-6.851740	0.747740	-1.312360	0.909421	-0.249267	0.349120	-1.000000	-1.000000	-1.000000	-1.000000	-1.000000	-1.000000	-1.000000	68.344828	0.000000	-1.000000	-1.000000	2783374.000000	1770067064.377475
-21636.900000	-14671.440000	-20659.320000	-15832.755000	-22071.825000	-15719.490000	-3525.975000	-8825.895000	10.260718	2.314165	-3.366300	-4.407675	-4.037859	-3.103760	-1.144175	2.860292	-6.851740	0.747740	-1.312360	0.909421	-0.249267	0.349120	-1.000000	-1.000000	-1.000000	-1.000000	-1.000000	-1.000000	-1.000000	68.344828	0.000000	-1.000000	-1.000000	2783375.000000	1770067064.386099
-21631.050000	-14668.515000	-20659.095000	-15834.555000	-22073.850000	-15722.775000	-3528.720000	-8813.025000	4.589586	-0.778240	-1.903901	-2.229572	-2.607069	-2.155872	-1.109156	-0.824678	-6.851740	0.747740	-1.312360	0.909421	-0.249267	0.349120	-1.000000	-1.000000	-1.000000	-1.000000	-1.000000	-1.000000	-1.000000	68.344828	0.000000	-1.000000	-1.000000	2783376.000000	1770067064.386111
-21635.865000	-14676.570000	-20665.395000	-15839.595000	-22078.395000	-15726.510000	-3531.465000	-8802.225000	-2.387176	-1.774368	0.823688	0.398035	-0.402852	-0.615950	-0.823837	-4.042452	-6.851740	0.747740	-1.312360	0.909421	-0.249267	0.349120	-1.000000	-1.000000	-1.000000	-1.000000	-1.000000	-1.000000	-1.000000	68.344828	0.000000	-1.000000	-1.000000	2783377.000000	1770067064.386123
-21647.520000	-14681.340000	-20663.505000	-15835.770000	-22074.615000	-15722.415000	-3531.240000	-8811.450000	-7.640565	-1.761635	3.181127	2.076100	1.003650	0.256945	-0.717409	-4.517889	-6.851740	0.747740	-1.312360	0.909421	-0.249267	0.349120	-1.000000	-1.000000	-1.000000	-1.000000	-1.000000	-1.000000	-1.000000	68.344828	0.000000	-1.000000	-1.000000	2783378.000000	1770067064.386128
-21651.795000	-14679.270000	-20661.480000	-15834.195000	-22073.940000	-15722.325000	-3531.105000	-8817.525000	-9.760413	-2.590755	3.807844	2.522796	1.227203	0.336326	-0.669140	-2.578269	-6.851740	0.747740	-1.312360	0.909421	-0.249267	0.349120	-1.000000	-1.000000	-1.000000	-1.000000	-1.000000	-1.000000	-1.000000	68.344828	0.000000	-1.000000	-1.000000	2783379.000000	1770067064.387208
-21648.465000	-14675.580000	-20663.280000	-15835.545000	-22073.940000	-15723.540000	-3530.925000	-8819.145000	-8.857022	-3.732418	2.955533	2.489489	1.087617	0.417232	-0.330036	-0.592163	-6.851740	0.747740	-1.312360	0.909421	-0.249267	0.349120	-1.000000	-1.000000	-1.000000	-1.000000	-1.000000	-1.000000	-1.000000	68.344828	0.000000	-1.000000	-1.000000	2783380.000000	1770067064.387215
-21637.125000	-14673.600000	-20669.940000	-15837.255000	-22073.130000	-15723.180000	-3531.105000	-8823.105000	-5.582108	-3.284048	1.393895	2.275801	1.137226	0.804802	0.192619	-0.425488	-7.553700	-2.380560	-2.517900	0.909483	-0.249023	0.348876	-1.000000	-1.000000	-1.000000	-1.000000	-1.000000	-1.000000	-1.000000	68.344828	0.000000	-1.000000	-1.000000	2783381.000000	1770067064.391284
-21630.420000	-14670.900000	-20661.840000	-15830.325000	-22066.695000	-15719.040000	-3527.685000	-8820.405000	-0.734482	-0.842173	-0.447353	1.575033	1.199354	1.087459	0.502009	-1.908652	-7.553700	-2.380560	-2.517900	0.909483	-0.249023	0.348876	-1.000000	-1.000000	-1.000000	-1.000000	-1.000000	-1.000000	-1.000000	68.344828	0.000000	-1.000000	-1.000000	2783382.000000	1770067064.391295
-21636.990000	-14675.085000	-20652.525000	-15828.750000	-22064.355000	-15716.790000	-3521.700000	-8807.130000	4.348987	2.201458	-1.757267	0.472365	1.038008	0.963566	0.582897	-2.840869	-7.553700	-2.380560	-2.517900	0.909483	-0.249023	0.348876	-1.000000	-1.000000	-1.000000	-1.000000	-1.000000	-1.000000	-1.000000	68.344828	0.000000	-1.000000	-1.000000	2783383.000000	1770067064.404624
-21621.645000	-14667.390000	-20645.865000	-15833.790000	-22070.790000	-15721.425000	-3522.150000	-8792.190000	7.914273	4.235806	-1.518789	-0.595181	0.582562	0.537431	0.790248	-0.942819	-7.553700	-2.380560	-2.517900	0.909483	-0.249023	0.348876	-1.000000	-1.000000	-1.000000	-1.000000	-1.000000	-1.000000	-1.000000	68.344828	0.000000	-1.000000	-1.000000	2783384.000000	1770067064.404637
-21610.665000	-14657.985000	-20643.840000	-15825.600000	-22069.980000	-15721.065000	-3522.330000	-8790.615000	8.956572	4.812926	0.271292	-1.258886	-0.184755	0.013534	1.180569	3.273299	-7.553700	-2.380560	-2.517900	0.909483	-0.249023	0.348876	-1.000000	-1.000000	-1.000000	-1.000000	-1.000000	-1.000000	-1.000000	68.344828	0.000000	-1.000000	-1.000000	2783385.000000	1770067064.404649
-21616.965000	-14665.815000	-20655.720000	-15827.760000	-22069.980000	-15720.390000	-3524.130000	-8794.260000	7.530189	4.220201	2.125409	-1.244439	-1.055692	-0.483329	1.315219	6.547548	-7.553700	-2.380560	-2.517900	0.909483	-0.249023	0.348876	-1.000000	-1.000000	-1.000000	-1.000000	-1.000000	-1.000000	-1.000000	68.344828	0.000000	-1.000000	-1.000000	2783386.000000	1770067064.404654
-21628.755000	-14664.555000	-20646.675000	-15819.345000	-22060.035000	-15711.255000	-3522.195000	-8824.455000	3.980769	2.337074	2.234981	-0.636329	-1.518407	-0.754297	0.831119	5.976386	-7.553700	-2.380560	-2.517900	0.909483	-0.249023	0.348876	-1.000000	-1.000000	-1.000000	-1.000000	-1.000000	-1.000000	-1.000000	68.344828	0.000000	-1.000000	-1.000000	2783387.000000	1770067064.404660
-21650.805000	-14650.020000	-20626.875000	-15800.265000	-22040.775000	-15695.910000	-3520.440000	-8887.635000	-1.345292	-0.497856	0.719845	0.434495	-0.836901	-0.285857	-0.090945	0.496360	-7.553700	-2.380560	-2.517900	0.909483	-0.249023	0.348876	-1.000000	-1.000000	-1.000000	-1.000000	-1.000000	-1.000000	-1.000000	68.344828	0.000000	-1.000000	-1.000000	2783388.000000	1770067064.404665
-21678.885000	-14671.035000	-20646.090000	-15820.020000	-22059.990000	-15714.450000	-3532.320000	-8890.650000	-7.824634	-3.097558	-0.758039	1.684720	0.951395	0.915750	-1.121756	-8.518579	-7.553700	-2.380560	-2.517900	0.909483	-0.249023	0.348876	-1.000000	-1.000000	-1.000000	-1.000000	-1.000000	-1.000000	-1.000000	68.344828	0.000000	-1.000000	-1.000000	2783389.000000	1770067064.407253
-21673.890000	-14705.595000	-20678.805000	-15851.925000	-22089.330000	-15737.040000	-3529.485000	-8807.985000	-13.631439	-5.391583	-2.153693	1.392807	1.677995	1.124141	-2.180114	-14.758276	-7.553700	-2.380560	-2.517900	0.909483	-0.249023	0.348876	-1.000000	-1.000000	-1.000000	-1.000000	-1.000000	-1.000000	-1.000000	68.344828	0.000000	-1.000000	-1.000000	2783390.000000	1770067064.407264
-21616.920000	-14679.945000	-20655.900000	-15831.090000	-22068.765000	-15718.995000	-3512.520000	-8754.840000	-14.543891	-7.558891	-4.442022	-1.776803	-0.592582	-1.049070	-2.724304	-9.808857	-7.080640	-3.372460	-2.884140	0.910764	-0.252563	0.347716	-1.000000	-1.000000	-1.000000	-1.000000	-1.000000	-1.000000	-1.000000	68.344828	0.000000	-1.000000	-1.000000	2783391.000000	1770067064.411287
-21608.820000	-14661.090000	-20653.380000	-15831.495000	-22069.755000	-15723.630000	-3519.945000	-8768.250000	-6.754040	-7.248516	-6.251469	-5.486646	-3.953695	-3.853546	-1.895070	6.151038	-7.080640	-3.372460	-2.884140	0.910764	-0.252563	0.347716	-1.000000	-1.000000	-1.000000	-1.000000	-1.000000	-1.000000	-1.000000	68.344828	0.000000	-1.000000	-1.000000	2783392.000000	1770067064.411298
-21626.415000	-14661.765000	-20655.990000	-15832.440000	-22070.205000	-15725.115000	-3524.580000	-8798.400000	6.570264	-2.390099	-5.244721	-6.070069	-4.824244	-4.464318	-0.062251	20.929491	-7.080640	-3.372460	-2.884140	0.910764	-0.252563	0.347716	-1.000000	-1.000000	-1.000000	-1.000000	-1.000000	-1.000000	-1.000000	68.344828	0.000000	-1.000000	-1.000000	2783393.000000	1770067064.415281
-21657.645000	-14683.590000	-20666.430000	-15838.830000	-22076.415000	-15732.630000	-3534.840000	-8832.060000	15.792109	4.414010	-1.516649	-2.990951	-2.350870	-2.388688	1.289082	21.713054	-7.080640	-3.372460	-2.884140	0.910764	-0.252563	0.347716	-1.000000	-1.000000	-1.000000	-1.000000	-1.000000	-1.000000	-1.000000	68.344828	0.000000	-1.000000	-1.000000	2783394.000000	1770067064.415291
-21648.600000	-14684.400000	-20666.115000	-15838.065000	-22075.785000	-15733.080000	-3536.190000	-8832.870000	14.608649	8.242523	2.815642	1.355999	1.392848	0.642603	1.239862	7.455534	-7.080640	-3.372460	-2.884140	0.910764	-0.252563	0.347716	-1.000000	-1.000000	-1.000000	-1.000000	-1.000000	-1.000000	-1.000000	68.344828	0.000000	-1.000000	-1.000000	2783395.000000	1770067064.419235
-21622.590000	-14673.690000	-20663.505000	-15840.585000	-22080.285000	-15736.455000	-3531.285000	-8805.015000	6.325702	7.184586	5.602365	4.307375	3.750836	2.593672	0.266580	-10.251867	-7.080640	-3.372460	-2.884140	0.910764	-0.252563	0.347716	-1.000000	-1.000000	-1.000000	-1.000000	-1.000000	-1.000000	-1.000000	68.344828	0.000000	-1.000000	-1.000000	2783396.000000	1770067064.419245
-21621.645000	-14668.695000	-20658.915000	-15836.355000	-22074.120000	-15729.345000	-3522.105000	-8789.895000	-0.862299	3.309249	5.837597	4.645587	3.510545	2.715329	-0.223766	-17.432546	-7.080640	-3.372460	-2.884140	0.910764	-0.252563	0.347716	-1.000000	-1.000000	-1.000000	-1.000000	-1.000000	-1.000000	-1.000000	68.344828	0.000000	-1.000000	-1.000000	2783397.000000	1770067064.426178
-21624.930000	-14675.130000	-20666.295000	-15844.860000	-22083.300000	-15738.930000	-3526.740000	-8781.930000	-2.610075	-0.022930	4.383809	3.334803	1.873700	2.072442	0.716164	-10.593476	-7.080640	-3.372460	-2.884140	0.910764	-0.252563	0.347716	-1.000000	-1.000000	-1.000000	-1.000000	-1.000000	-1.000000	-1.000000	68.344828	0.000000	-1.000000	-1.000000	2783398.000000	1770067064.426190
-21648.780000	-14674.320000	-20659.230000	-15834.645000	-22073.940000	-15732.405000	-3527.910000	-8817.480000	-1.591714	-0.868800	3.017370	2.385125	1.023004	2.062492	2.221266	0.195070	-7.080640	-3.372460	-2.884140	0.910764	-0.252563	0.347716	-1.000000	-1.000000	-1.000000	-1.000000	-1.000000	-1.000000	-1.000000	68.344828	0.000000	-1.000000	-1.000000	2783399.000000	1770067064.427230
-21662.190000	-14675.220000	-20658.105000	-15832.215000	-22070.790000	-15730.155000	-3528.540000	-8837.460000	-3.372189	-0.200213	2.102371	2.371706	1.483420	2.579149	2.368510	2.513572	-7.080640	-3.372460	-2.884140	0.910764	-0.252563	0.347716	-1.000000	-1.000000	-1.000000	-1.000000	-1.000000	-1.000000	-1.000000	68.344828	0.000000	-1.000000	-1.000000	2783400.000000	1770067064.427236
-21635.595000	-14669.415000	-20658.870000	-15835.365000	-22074.030000	-15729.165000	-3521.070000	-8813.655000	-8.863805	-0.455284	0.583905	2.119589	1.965521	2.570423	0.763752	-4.563518	-6.439720	-2.227960	-2.899400	0.911619	-0.253661	0.343810	-1.000000	-1.000000	-1.000000	-1.000000	-1.000000	-1.000000	-1.000000	68.344828	0.000000	-1.000000	-1.000000	2783401.000000	1770067064.438106
-21617.640000	-14675.265000	-20667.285000	-15842.700000	-22081.950000	-15734.970000	-3525.165000	-8792.955000	-11.942978	-2.201027	-1.823968	0.605087	1.262225	1.545428	-0.941104	-10.365031	-6.439720	-2.227960	-2.899400	0.911619	-0.253661	0.343810	-1.000000	-1.000000	-1.000000	-1.000000	-1.000000	-1.000000	-1.000000	68.344828	0.000000	-1.000000	-1.000000	2783402.000000	1770067064.438116
-21634.065000	-14683.185000	-20668.455000	-15842.115000	-22080.780000	-15734.475000	-3528.495000	-8802.315000	-7.141372	-3.730587	-4.011322	-1.877757	-0.631307	-0.212917	-1.371504	-6.004134	-6.439720	-2.227960	-2.899400	0.911619	-0.253661	0.343810	-1.000000	-1.000000	-1.000000	-1.000000	-1.000000	-1.000000	-1.000000	68.344828	0.000000	-1.000000	-1.000000	2783403.000000	1770067064.438128
-21645.540000	-14692.230000	-20666.790000	-15840.360000	-22079.565000	-15735.330000	-3530.340000	-8815.500000	2.719146	-3.783379	-4.746849	-4.022725	-2.657269	-2.041868	-0.812719	5.924434	-6.439720	-2.227960	-2.899400	0.911619	-0.253661	0.343810	-1.000000	-1.000000	-1.000000	-1.000000	-1.000000	-1.000000	-1.000000	68.344828	0.000000	-1.000000	-1.000000	2783404.000000	1770067064.438134
-21642.615000	-14698.440000	-20666.565000	-15839.640000	-22077.990000	-15734.655000	-3527.865000	-8814.870000	9.888888	-2.998637	-3.860130	-4.670526	-3.662357	-3.307555	-0.350849	15.647210	-6.439720	-2.227960	-2.899400	0.911619	-0.253661	0.343810	-1.000000	-1.000000	-1.000000	-1.000000	-1.000000	-1.000000	-1.000000	68.344828	0.000000	-1.000000	-1.000000	2783405.000000	1770067064.439246
-21632.805000	-14670.000000	-20658.600000	-15834.285000	-22072.680000	-15730.335000	-3523.680000	-8809.695000	10.444630	-1.850792	-1.885898	-3.467009	-3.086173	-3.515986	-0.475667	16.400491	-6.439720	-2.227960	-2.899400	0.911619	-0.253661	0.343810	-1.000000	-1.000000	-1.000000	-1.000000	-1.000000	-1.000000	-1.000000	68.344828	0.000000	-1.000000	-1.000000	2783406.000000	1770067064.439257
-21634.245000	-14654.610000	-20652.705000	-15831.900000	-22070.610000	-15729.480000	-3522.735000	-8808.300000	6.520005	1.049098	0.918036	-0.642737	-0.908407	-2.242527	-0.686923	8.636234	-6.439720	-2.227960	-2.899400	0.911619	-0.253661	0.343810	-1.000000	-1.000000	-1.000000	-1.000000	-1.000000	-1.000000	-1.000000	68.344828	0.000000	-1.000000	-1.000000	2783407.000000	1770067064.443273
-21649.680000	-14666.805000	-20653.605000	-15829.290000	-22066.875000	-15727.635000	-3522.105000	-8821.980000	1.688651	5.753963	3.770049	2.567171	1.868286	0.055327	-0.475743	-2.349127	-6.439720	-2.227960	-2.899400	0.911619	-0.253661	0.343810	-1.000000	-1.000000	-1.000000	-1.000000	-1.000000	-1.000000	-1.000000	68.344828	0.000000	-1.000000	-1.000000	2783408.000000	1770067064.443283
-21657.870000	-14668.740000	-20650.230000	-15822.720000	-22058.865000	-15721.470000	-3521.745000	-8843.580000	-2.517271	8.638830	4.896216	4.271542	3.527501	1.954429	-0.029001	-10.859101	-6.439720	-2.227960	-2.899400	0.911619	-0.253661	0.343810	-1.000000	-1.000000	-1.000000	-1.000000	-1.000000	-1.000000	-1.000000	68.344828	0.000000	-1.000000	-1.000000	2783409.000000	1770067064.450056
-21666.915000	-14658.345000	-20643.345000	-15820.290000	-22056.255000	-15716.205000	-3518.640000	-8865.945000	-6.086378	6.682645	3.613077	3.844711	3.441806	2.661130	0.297800	-14.489050	-6.439720	-2.227960	-2.899400	0.911619	-0.253661	0.343810	-1.000000	-1.000000	-1.000000	-1.000000	-1.000000	-1.000000	-1.000000	68.344828	0.000000	-1.000000	-1.000000	2783410.000000	1770067064.450063
-21677.895000	-14652.810000	-20639.340000	-15819.480000	-22053.330000	-15710.805000	-3515.940000	-8872.560000	-8.573285	1.471895	1.315098	2.186877	2.308602	2.529283	0.580289	-13.714968	-8.835540	-3.326680	-4.104940	0.912351	-0.251342	0.342895	-1.000000	-1.000000	-1.000000	-1.000000	-1.000000	-1.000000	-1.000000	68.344828	0.000000	-1.000000	-1.000000	2783411.000000	1770067064.451302
-21648.735000	-14669.955000	-20662.245000	-15844.095000	-22076.550000	-15733.665000	-3530.520000	-8840.565000	-7.941099	-3.273496	-0.715090	-0.060790	0.501279	1.695758	0.873219	-8.507231	-8.835540	-3.326680	-4.104940	0.912351	-0.251342	0.342895	-1.000000	-1.000000	-1.000000	-1.000000	-1.000000	-1.000000	-1.000000	68.344828	0.000000	-1.000000	-1.000000	2783412.000000	1770067064.451308
-21607.245000	-14679.855000	-20677.140000	-15860.115000	-22092.615000	-15749.370000	-3536.190000	-8795.655000	-1.919047	-5.868014	-2.973484	-3.216647	-2.502983	-0.607212	0.527075	1.935272	-8.835540	-3.326680	-4.104940	0.912351	-0.251342	0.342895	-1.000000	-1.000000	-1.000000	-1.000000	-1.000000	-1.000000	-1.000000	68.344828	0.000000	-1.000000	-1.000000	2783413.000000	1770067064.470431
-21618.180000	-14686.020000	-20679.885000	-15860.565000	-22092.345000	-15751.710000	-3535.380000	-8800.020000	8.003484	-6.832157	-5.879142	-6.816452	-6.333281	-4.333145	-0.902561	15.033172	-8.835540	-3.326680	-4.104940	0.912351	-0.251342	0.342895	-1.000000	-1.000000	-1.000000	-1.000000	-1.000000	-1.000000	-1.000000	68.344828	0.000000	-1.000000	-1.000000	2783414.000000	1770067064.470441
-21629.340000	-14682.690000	-20669.490000	-15845.805000	-22081.815000	-15744.690000	-3530.070000	-8794.530000	15.264265	-6.876364	-7.689754	-8.331315	-8.433467	-7.152238	-2.462469	23.361684	-8.835540	-3.326680	-4.104940	0.912351	-0.251342	0.342895	-1.000000	-1.000000	-1.000000	-1.000000	-1.000000	-1.000000	-1.000000	68.344828	0.000000	-1.000000	-1.000000	2783415.000000	1770067064.470492
-21626.955000	-14674.860000	-20660.580000	-15837.390000	-22077.225000	-15740.190000	-3526.695000	-8787.195000	14.079934	-5.760081	-6.018852	-5.356761	-6.275437	-6.337573	-2.618114	20.915803	-8.835540	-3.326680	-4.104940	0.912351	-0.251342	0.342895	-1.000000	-1.000000	-1.000000	-1.000000	-1.000000	-1.000000	-1.000000	68.344828	0.000000	-1.000000	-1.000000	2783416.000000	1770067064.470498
-21623.850000	-14676.210000	-20666.115000	-15848.865000	-22086.270000	-15744.420000	-3527.145000	-8788.140000	5.472869	-2.649408	-0.870452	1.064788	-0.591261	-1.830220	-0.941158	9.250881	-8.835540	-3.326680	-4.104940	0.912351	-0.251342	0.342895	-1.000000	-1.000000	-1.000000	-1.000000	-1.000000	-1.000000	-1.000000	68.344828	0.000000	-1.000000	-1.000000	2783417.000000	1770067064.470505
-21631.995000	-14680.395000	-20672.280000	-15857.685000	-22090.545000	-15745.320000	-3529.620000	-8798.805000	-4.799103	2.021953	4.797603	6.706269	4.964271	3.548643	1.450965	-4.798473	-8.835540	-3.326680	-4.104940	0.912351	-0.251342	0.342895	-1.000000	-1.000000	-1.000000	-1.000000	-1.000000	-1.000000	-1.000000	68.344828	0.000000	-1.000000	-1.000000	2783418.000000	1770067064.470510
-21631.365000	-14679.450000	-20675.340000	-15863.175000	-22095.540000	-15746.580000	-3534.165000	-8803.845000	-11.695145	5.966751	7.605928	8.073305	7.269212	6.706858	2.900664	-14.976202	-8.835540	-3.326680	-4.104940	0.912351	-0.251342	0.342895	-1.000000	-1.000000	-1.000000	-1.000000	-1.000000	-1.000000	-1.000000	68.344828	0.000000	-1.000000	-1.000000	2783419.000000	1770067064.470516
-21628.260000	-14684.625000	-20683.890000	-15882.615000	-22115.610000	-15753.825000	-3535.605000	-8797.770000	-12.954087	7.260454	6.504801	5.083249	5.794613	6.500769	2.639513	-18.364273	-8.835540	-3.326680	-4.104940	0.912351	-0.251342	0.342895	-1.000000	-1.000000	-1.000000	-1.000000	-1.000000	-1.000000	-1.000000	68.344828	0.000000	-1.000000	-1.000000	2783420.000000	1770067064.470521
-21626.460000	-14677.830000	-20676.915000	-15876.045000	-22106.205000	-15744.690000	-3524.400000	-8801.145000	-9.519945	6.186691	3.325015	0.542644	2.405970	4.219331	1.555016	-15.814362	-10.392060	-4.700080	-5.753020	0.914548	-0.250366	0.343810	-1.000000	-1.000000	-1.000000	-1.000000	-1.000000	-1.000000	-1.000000	68.344828	0.000000	-1.000000	-1.000000	2783421.000000	1770067064.471341
-21632.265000	-14676.615000	-20673.450000	-15869.205000	-22099.320000	-15744.150000	-3524.130000	-8809.065000	-4.838469	4.402286	0.957594	-1.943504	0.158163	2.250003	1.112199	-10.825583	-10.392060	-4.700080	-5.753020	0.914548	-0.250366	0.343810	-1.000000	-1.000000	-1.000000	-1.000000	-1.000000	-1.000000	-1.000000	68.344828	0.000000	-1.000000	-1.000000	2783422.000000	1770067064.471351
-21637.170000	-14680.980000	-20672.100000	-15864.120000	-22094.370000	-15745.815000	-3526.515000	-8809.830000	-1.425166	2.695948	0.553442	-0.907693	0.586796	1.479332	1.331702	-6.140216	-10.392060	-4.700080	-5.753020	0.914548	-0.250366	0.343810	-1.000000	-1.000000	-1.000000	-1.000000	-1.000000	-1.000000	-1.000000	68.344828	0.000000	-1.000000	-1.000000	2783423.000000	1770067064.475237
-21643.920000	-14688.135000	-20680.515000	-15870.195000	-22098.465000	-15746.040000	-3527.325000	-8814.420000	0.932076	0.317430	0.619546	1.591103	2.114181	0.707714	0.905910	-1.945834	-10.392060	-4.700080	-5.753020	0.914548	-0.250366	0.343810	-1.000000	-1.000000	-1.000000	-1.000000	-1.000000	-1.000000	-1.000000	68.344828	0.000000	-1.000000	-1.000000	2783424.000000	1770067064.475249
-21627.585000	-14676.750000	-20676.600000	-15870.240000	-22091.175000	-15734.565000	-3517.605000	-8802.540000	3.347360	-3.005532	-0.725128	2.391509	2.259279	-1.013700	-0.671794	2.544699	-10.392060	-4.700080	-5.753020	0.914548	-0.250366	0.343810	-1.000000	-1.000000	-1.000000	-1.000000	-1.000000	-1.000000	-1.000000	68.344828	0.000000	-1.000000	-1.000000	2783425.000000	1770067064.479630
-21608.595000	-14653.980000	-20659.365000	-15850.395000	-22062.420000	-15702.480000	-3499.695000	-8809.920000	6.404237	-5.323594	-2.913470	0.970823	0.917636	-2.498392	-2.087090	7.506417	-10.392060	-4.700080	-5.753020	0.914548	-0.250366	0.343810	-1.000000	-1.000000	-1.000000	-1.000000	-1.000000	-1.000000	-1.000000	68.344828	0.000000	-1.000000	-1.000000	2783426.000000	1770067064.479640
-21634.380000	-14650.695000	-20650.545000	-15831.090000	-22042.890000	-15688.170000	-3498.210000	-8858.340000	9.249448	-4.368230	-3.464524	-0.199239	0.282933	-1.722878	-1.735632	11.229832	-10.392060	-4.700080	-5.753020	0.914548	-0.250366	0.343810	-1.000000	-1.000000	-1.000000	-1.000000	-1.000000	-1.000000	-1.000000	68.344828	0.000000	-1.000000	-1.000000	2783427.000000	1770067064.487924
-21702.645000	-14696.640000	-20681.010000	-15853.455000	-22071.195000	-15724.080000	-3525.030000	-8892.180000	8.467114	-1.318872	-1.743756	0.507227	1.105810	0.631856	-0.195546	10.348244	-10.392060	-4.700080	-5.753020	0.914548	-0.250366	0.343810	-1.000000	-1.000000	-1.000000	-1.000000	-1.000000	-1.000000	-1.000000	68.344828	0.000000	-1.000000	-1.000000	2783428.000000	1770067064.487936
-21684.015000	-14696.775000	-20677.815000	-15847.470000	-22083.165000	-15752.430000	-3542.445000	-8848.170000	1.407991	-0.018170	0.022763	1.691201	1.091922	0.767674	-0.075820	4.388758	-10.392060	-4.700080	-5.753020	0.914548	-0.250366	0.343810	-1.000000	-1.000000	-1.000000	-1.000000	-1.000000	-1.000000	-1.000000	68.344828	0.000000	-1.000000	-1.000000	2783429.000000	1770067064.487950
-21672.135000	-14671.665000	-20642.850000	-15812.910000	-22061.295000	-15738.120000	-3528.990000	-8833.680000	-8.186132	-1.357741	0.622504	1.843417	-1.430955	-3.161778	-2.460709	-1.575704	-10.392060	-4.700080	-5.753020	0.914548	-0.250366	0.343810	-1.000000	-1.000000	-1.000000	-1.000000	-1.000000	-1.000000	-1.000000	68.344828	0.000000	-1.000000	-1.000000	2783430.000000	1770067064.487956
-21699.495000	-14650.785000	-20610.675000	-15780.240000	-22021.290000	-15695.325000	-3496.770000	-8852.490000	-13.052785	-1.929482	1.742852	1.675691	-4.349480	-7.292547	-4.559153	-2.740535	-12.604760	-7.553700	-8.087800	0.910764	-0.251891	0.345397	-1.000000	-1.000000	-1.000000	-1.000000	-1.000000	-1.000000	-1.000000	68.344828	0.000000	-1.000000	-1.000000	2783431.000000	1770067064.494872
-21677.850000	-14660.505000	-20637.090000	-15816.060000	-22055.625000	-15718.815000	-3512.115000	-8832.510000	-9.951292	0.657178	4.092041	1.480979	-4.846111	-6.517538	-2.993551	0.177581	-12.604760	-7.553700	-8.087800	0.910764	-0.251891	0.345397	-1.000000	-1.000000	-1.000000	-1.000000	-1.000000	-1.000000	-1.000000	68.344828	0.000000	-1.000000	-1.000000	2783432.000000	1770067064.494884
-21609.315000	-14695.875000	-20703.060000	-15907.590000	-22146.165000	-15778.710000	-3541.815000	-8775.540000	-0.015048	3.943038	4.048645	-1.889907	-4.905994	-2.133153	0.985549	4.433544	-12.604760	-7.553700	-8.087800	0.910764	-0.251891	0.345397	-1.000000	-1.000000	-1.000000	-1.000000	-1.000000	-1.000000	-1.000000	68.344828	0.000000	-1.000000	-1.000000	2783433.000000	1770067064.502861
-21627.315000	-14705.235000	-20722.815000	-15940.575000	-22168.215000	-15783.885000	-3538.440000	-8777.070000	12.662279	3.364913	-2.415401	-11.386354	-9.059025	-0.310871	2.879701	8.454860	-12.604760	-7.553700	-8.087800	0.910764	-0.251891	0.345397	-1.000000	-1.000000	-1.000000	-1.000000	-1.000000	-1.000000	-1.000000	68.344828	0.000000	-1.000000	-1.000000	2783434.000000	1770067064.502873
-21626.415000	-14700.735000	-20716.605000	-15923.745000	-22145.580000	-15769.980000	-3533.805000	-8781.300000	20.469852	-1.948757	-12.835345	-22.696750	-15.768134	-3.034938	1.080356	10.107575	-12.604760	-7.553700	-8.087800	0.910764	-0.251891	0.345397	-1.000000	-1.000000	-1.000000	-1.000000	-1.000000	-1.000000	-1.000000	68.344828	0.000000	-1.000000	-1.000000	2783435.000000	1770067064.502885
-21614.850000	-14686.515000	-20697.570000	-15891.255000	-22113.585000	-15753.420000	-3523.815000	-8777.475000	18.366782	-7.272587	-18.606410	-25.319979	-16.542816	-5.444284	-1.481671	7.769674	-12.604760	-7.553700	-8.087800	0.910764	-0.251891	0.345397	-1.000000	-1.000000	-1.000000	-1.000000	-1.000000	-1.000000	-1.000000	68.344828	0.000000	-1.000000	-1.000000	2783436.000000	1770067064.502891
-21627.855000	-14671.305000	-20666.970000	-15840.630000	-22073.130000	-15740.685000	-3522.870000	-8793.855000	9.106280	-6.449154	-12.549721	-12.000240	-4.677470	-1.664752	-0.981320	1.991677	-12.604760	-7.553700	-8.087800	0.910764	-0.251891	0.345397	-1.000000	-1.000000	-1.000000	-1.000000	-1.000000	-1.000000	-1.000000	68.344828	0.000000	-1.000000	-1.000000	2783437.000000	1770067064.503920
-21635.460000	-14669.595000	-20649.195000	-15808.590000	-22053.915000	-15740.640000	-3529.350000	-8804.745000	-2.366019	1.466648	4.074598	13.504639	16.875063	8.598580	3.051180	-6.684104	-12.604760	-7.553700	-8.087800	0.910764	-0.251891	0.345397	-1.000000	-1.000000	-1.000000	-1.000000	-1.000000	-1.000000	-1.000000	68.344828	0.000000	-1.000000	-1.000000	2783438.000000	1770067064.503931
-21624.480000	-14666.445000	-20648.610000	-15814.395000	-22058.910000	-15745.365000	-3533.535000	-8804.970000	-12.922770	10.234681	20.960310	36.690944	35.311944	18.303448	6.723158	-16.653216	-12.604760	-7.553700	-8.087800	0.910764	-0.251891	0.345397	-1.000000	-1.000000	-1.000000	-1.000000	-1.000000	-1.000000	-1.000000	68.344828	0.000000	-1.000000	-1.000000	2783439.000000	1770067064.507334
-21633.255000	-14673.060000	-20665.890000	-15854.580000	-22085.370000	-15741.540000	-3525.165000	-8823.330000	-19.005438	12.586173	26.537663	41.959236	37.074740	19.101722	5.946755	-22.980764	-12.604760	-7.553700	-8.087800	0.910764	-0.251891	0.345397	-1.000000	-1.000000	-1.000000	-1.000000	-1.000000	-1.000000	-1.000000	68.344828	0.000000	-1.000000	-1.000000	2783440.000000	1770067064.507344
-21647.520000	-14686.740000	-20689.425000	-15897.465000	-22117.995000	-15739.470000	-3515.580000	-8823.240000	-18.800146	7.070076	17.759890	25.307181	19.797026	10.132693	1.463400	-21.748365	-12.009620	-7.050120	-10.117380	0.911375	-0.248962	0.347777	-1.000000	-1.000000	-1.000000	-1.000000	-1.000000	-1.000000	-1.000000	68.344828	0.000000	-1.000000	-1.000000	2783441.000000	1770067064.511274
-21649.725000	-14692.275000	-20695.545000	-15897.690000	-22112.640000	-15730.380000	-3505.410000	-8807.265000	-14.882757	-1.814021	1.889168	-1.867105	-5.075855	-1.348236	-2.176513	-13.796534	-12.009620	-7.050120	-10.117380	0.911375	-0.248962	0.347777	-1.000000	-1.000000	-1.000000	-1.000000	-1.000000	-1.000000	-1.000000	68.344828	0.000000	-1.000000	-1.000000	2783442.000000	1770067064.511284
-21633.795000	-14687.010000	-20696.535000	-15884.190000	-22100.175000	-15737.895000	-3515.805000	-8809.470000	-9.539037	-8.400536	-11.003419	-22.588274	-22.605006	-8.556251	-2.545209	-2.106792	-12.009620	-7.050120	-10.117380	0.911375	-0.248962	0.347777	-1.000000	-1.000000	-1.000000	-1.000000	-1.000000	-1.000000	-1.000000	68.344828	0.000000	-1.000000	-1.000000	2783443.000000	1770067064.515557
-21646.575000	-14671.890000	-20667.555000	-15834.420000	-22065.525000	-15733.800000	-3520.620000	-8826.525000	-2.135126	-9.777652	-15.557216	-27.343342	-25.964902	-10.959021	-1.635409	10.154401	-12.009620	-7.050120	-10.117380	0.911375	-0.248962	0.347777	-1.000000	-1.000000	-1.000000	-1.000000	-1.000000	-1.000000	-1.000000	68.344828	0.000000	-1.000000	-1.000000	2783444.000000	1770067064.515565
-21659.625000	-14653.440000	-20631.240000	-15794.640000	-22036.635000	-15724.755000	-3517.515000	-8825.580000	6.763062	-6.096558	-11.754292	-17.624510	-17.730968	-10.832892	-1.908876	19.187495	-12.009620	-7.050120	-10.117380	0.911375	-0.248962	0.347777	-1.000000	-1.000000	-1.000000	-1.000000	-1.000000	-1.000000	-1.000000	68.344828	0.000000	-1.000000	-1.000000	2783445.000000	1770067064.522761
-21659.040000	-14661.090000	-20640.105000	-15814.215000	-22055.535000	-15731.640000	-3519.630000	-8818.290000	13.944356	0.155450	-3.334594	-2.518477	-5.320573	-9.019766	-3.037414	22.020470	-12.009620	-7.050120	-10.117380	0.911375	-0.248962	0.347777	-1.000000	-1.000000	-1.000000	-1.000000	-1.000000	-1.000000	-1.000000	68.344828	0.000000	-1.000000	-1.000000	2783446.000000	1770067064.522774
-21663.270000	-14686.605000	-20681.415000	-15878.295000	-22108.995000	-15751.935000	-3528.225000	-8824.815000	16.435594	4.559311	2.858141	6.082209	2.549665	-6.026156	-3.481075	18.212130	-12.009620	-7.050120	-10.117380	0.911375	-0.248962	0.347777	-1.000000	-1.000000	-1.000000	-1.000000	-1.000000	-1.000000	-1.000000	68.344828	0.000000	-1.000000	-1.000000	2783447.000000	1770067064.523355
-21653.685000	-14695.245000	-20701.620000	-15914.070000	-22129.020000	-15753.690000	-3530.115000	-8835.615000	13.686822	3.584608	1.409052	1.751058	1.049220	-3.313556	-2.934983	9.605025	-12.009620	-7.050120	-10.117380	0.911375	-0.248962	0.347777	-1.000000	-1.000000	-1.000000	-1.000000	-1.000000	-1.000000	-1.000000	68.344828	0.000000	-1.000000	-1.000000	2783448.000000	1770067064.523363
-21658.905000	-14717.835000	-20729.610000	-15951.960000	-22149.945000	-15761.160000	-3529.620000	-8821.890000	7.719399	-1.802081	-5.832020	-10.027135	-5.917857	-1.563971	-1.996516	-0.309988	-12.009620	-7.050120	-10.117380	0.911375	-0.248962	0.347777	-1.000000	-1.000000	-1.000000	-1.000000	-1.000000	-1.000000	-1.000000	68.344828	0.000000	-1.000000	-1.000000	2783449.000000	1770067064.533152
-21689.955000	-14715.405000	-20722.320000	-15942.960000	-22126.050000	-15734.520000	-3500.010000	-8819.955000	0.731064	-6.771829	-11.078629	-16.581164	-8.784323	0.576718	-0.470686	-7.915885	-12.009620	-7.050120	-10.117380	0.911375	-0.248962	0.347777	-1.000000	-1.000000	-1.000000	-1.000000	-1.000000	-1.000000	-1.000000	68.344828	0.000000	-1.000000	-1.000000	2783450.000000	1770067064.533164
-21692.655000	-14666.940000	-20684.925000	-15894.855000	-22075.110000	-15697.665000	-3480.120000	-8841.240000	-6.309686	-6.290291	-7.607666	-9.339377	-1.237698	5.062046	2.611205	-11.846197	-11.643380	-7.874160	-10.102120	0.913450	-0.246703	0.349853	-1.000000	-1.000000	-1.000000	-1.000000	-1.000000	-1.000000	-1.000000	68.344828	0.000000	-1.000000	-1.000000	2783451.000000	1770067064.533290
-21645.225000	-14638.005000	-20667.465000	-15843.195000	-22044.240000	-15697.170000	-3500.640000	-8846.325000	-11.014106	1.269455	4.449844	9.416603	13.825118	11.325195	6.575407	-12.563706	-11.643380	-7.874160	-10.102120	0.913450	-0.246703	0.349853	-1.000000	-1.000000	-1.000000	-1.000000	-1.000000	-1.000000	-1.000000	68.344828	0.000000	-1.000000	-1.000000	2783452.000000	1770067064.533301
-21606.615000	-14631.615000	-20648.970000	-15790.860000	-22014.900000	-15698.565000	-3503.520000	-8803.575000	-8.931650	11.679196	17.470377	28.507121	26.261418	15.087062	8.268346	-9.498713	-11.643380	-7.874160	-10.102120	0.913450	-0.246703	0.349853	-1.000000	-1.000000	-1.000000	-1.000000	-1.000000	-1.000000	-1.000000	68.344828	0.000000	-1.000000	-1.000000	2783453.000000	1770067064.535334
-21659.850000	-14648.490000	-20651.895000	-15782.715000	-22008.735000	-15702.120000	-3505.050000	-8846.550000	0.168543	17.019687	22.162279	35.988137	26.956766	12.141969	5.462766	-2.490589	-11.643380	-7.874160	-10.102120	0.913450	-0.246703	0.349853	-1.000000	-1.000000	-1.000000	-1.000000	-1.000000	-1.000000	-1.000000	68.344828	0.000000	-1.000000	-1.000000	2783454.000000	1770067064.535344
-21654.990000	-14694.975000	-20692.440000	-15822.090000	-22054.140000	-15751.215000	-3544.380000	-8863.785000	8.790808	11.961447	14.802394	26.823888	14.448189	2.453985	-0.863309	4.245919	-11.643380	-7.874160	-10.102120	0.913450	-0.246703	0.349853	-1.000000	-1.000000	-1.000000	-1.000000	-1.000000	-1.000000	-1.000000	68.344828	0.000000	-1.000000	-1.000000	2783455.000000	1770067064.539699
-21599.820000	-14701.365000	-20692.080000	-15815.070000	-22063.320000	-15770.205000	-3556.800000	-8793.000000	10.429826	-1.661326	-0.315053	5.837805	-5.007209	-10.157569	-8.082041	6.859320	-11.643380	-7.874160	-10.102120	0.913450	-0.246703	0.349853	-1.000000	-1.000000	-1.000000	-1.000000	-1.000000	-1.000000	-1.000000	68.344828	0.000000	-1.000000	-1.000000	2783456.000000	1770067064.539706
-21643.065000	-14684.940000	-20654.235000	-15800.445000	-22054.680000	-15749.415000	-3528.855000	-8752.185000	6.008098	-15.276478	-13.286485	-14.830387	-21.209295	-19.534137	-12.562183	8.027454	-11.643380	-7.874160	-10.102120	0.913450	-0.246703	0.349853	-1.000000	-1.000000	-1.000000	-1.000000	-1.000000	-1.000000	-1.000000	68.344828	0.000000	-1.000000	-1.000000	2783457.000000	1770067064.543379
-21658.635000	-14695.875000	-20673.990000	-15861.600000	-22108.005000	-15760.440000	-3516.615000	-8752.635000	-1.386192	-19.751866	-15.686766	-24.917098	-26.597507	-19.991932	-10.683245	10.591133	-11.643380	-7.874160	-10.102120	0.913450	-0.246703	0.349853	-1.000000	-1.000000	-1.000000	-1.000000	-1.000000	-1.000000	-1.000000	68.344828	0.000000	-1.000000	-1.000000	2783458.000000	1770067064.543387
-21647.430000	-14710.590000	-20714.670000	-15930.270000	-22159.890000	-15786.540000	-3527.100000	-8783.820000	-8.787295	-13.484825	-8.873170	-25.114151	-22.664306	-11.921310	-3.121593	10.951647	-11.643380	-7.874160	-10.102120	0.913450	-0.246703	0.349853	-1.000000	-1.000000	-1.000000	-1.000000	-1.000000	-1.000000	-1.000000	68.344828	0.000000	-1.000000	-1.000000	2783459.000000	1770067064.547305
-21617.865000	-14718.150000	-20746.800000	-15970.995000	-22175.235000	-15789.105000	-3525.345000	-8776.305000	-12.002348	-3.373630	-2.562551	-23.832420	-16.950371	-1.855583	4.837085	4.934450	-11.643380	-7.874160	-10.102120	0.913450	-0.246703	0.349853	-1.000000	-1.000000	-1.000000	-1.000000	-1.000000	-1.000000	-1.000000	68.344828	0.000000	-1.000000	-1.000000	2783460.000000	1770067064.547311
-21622.320000	-14714.730000	-20741.265000	-15949.260000	-22143.015000	-15769.890000	-3518.505000	-8768.340000	-9.524010	3.016188	-3.421716	-25.116194	-12.847468	5.294894	9.246949	-5.377073	-7.233240	0.366240	-2.838360	0.920774	-0.239074	0.340880	-1.000000	-1.000000	-1.000000	-1.000000	-1.000000	-1.000000	-1.000000	68.344828	0.000000	-1.000000	-1.000000	2783461.000000	1770067064.553971
-21639.285000	-14696.190000	-20688.390000	-15869.565000	-22078.440000	-15738.390000	-3516.525000	-8788.230000	-4.427861	4.456916	-7.971311	-23.117053	-6.287787	10.129730	10.003329	-14.411342	-7.233240	0.366240	-2.838360	0.920774	-0.239074	0.340880	-1.000000	-1.000000	-1.000000	-1.000000	-1.000000	-1.000000	-1.000000	68.344828	0.000000	-1.000000	-1.000000	2783462.000000	1770067064.553979
-21653.730000	-14670.945000	-20650.005000	-15821.415000	-22034.070000	-15707.205000	-3500.595000	-8826.075000	0.078269	5.370019	-7.009465	-8.754742	7.736075	15.108679	8.547174	-18.410803	-7.233240	0.366240	-2.838360	0.920774	-0.239074	0.340880	-1.000000	-1.000000	-1.000000	-1.000000	-1.000000	-1.000000	-1.000000	68.344828	0.000000	-1.000000	-1.000000	2783463.000000	1770067064.555372
-21664.935000	-14630.445000	-20608.605000	-15774.930000	-21988.035000	-15665.715000	-3469.815000	-8830.890000	2.650483	10.245605	4.589893	18.931373	28.039860	20.942518	7.028371	-16.777537	-7.233240	0.366240	-2.838360	0.920774	-0.239074	0.340880	-1.000000	-1.000000	-1.000000	-1.000000	-1.000000	-1.000000	-1.000000	68.344828	0.000000	-1.000000	-1.000000	2783464.000000	1770067064.555382
-21678.885000	-14608.305000	-20566.170000	-15711.705000	-21943.170000	-15642.405000	-3469.005000	-8826.570000	2.266295	18.280178	22.053874	48.711925	45.971845	25.133064	6.650841	-11.569929	-7.233240	0.366240	-2.838360	0.920774	-0.239074	0.340880	-1.000000	-1.000000	-1.000000	-1.000000	-1.000000	-1.000000	-1.000000	68.344828	0.000000	-1.000000	-1.000000	2783465.000000	1770067064.559415
-21625.110000	-14621.940000	-20581.515000	-15720.075000	-21976.560000	-15689.655000	-3518.280000	-8845.290000	0.726371	22.701371	33.508817	64.396312	50.043445	21.796227	4.385900	-5.687542	-7.233240	0.366240	-2.838360	0.920774	-0.239074	0.340880	-1.000000	-1.000000	-1.000000	-1.000000	-1.000000	-1.000000	-1.000000	68.344828	0.000000	-1.000000	-1.000000	2783466.000000	1770067064.559425
-21630.960000	-14672.430000	-20649.780000	-15796.440000	-22062.735000	-15769.305000	-3563.550000	-8851.590000	2.839651	16.343369	28.590866	55.131743	33.093205	5.715327	-4.417532	-0.280750	-7.233240	0.366240	-2.838360	0.920774	-0.239074	0.340880	-1.000000	-1.000000	-1.000000	-1.000000	-1.000000	-1.000000	-1.000000	68.344828	0.000000	-1.000000	-1.000000	2783467.000000	1770067064.563442
-21679.335000	-14703.390000	-20686.545000	-15843.375000	-22107.015000	-15789.105000	-3543.930000	-8791.425000	7.989921	-1.735987	6.440540	21.578993	-1.858135	-20.303820	-17.916396	6.508771	-7.233240	0.366240	-2.838360	0.920774	-0.239074	0.340880	-1.000000	-1.000000	-1.000000	-1.000000	-1.000000	-1.000000	-1.000000	68.344828	0.000000	-1.000000	-1.000000	2783468.000000	1770067064.563454
-21616.785000	-14695.515000	-20703.780000	-15883.965000	-22120.335000	-15778.980000	-3528.045000	-8767.035000	9.547172	-23.847836	-22.434081	-23.518385	-40.762051	-43.339967	-26.291560	16.571907	-7.233240	0.366240	-2.838360	0.920774	-0.239074	0.340880	-1.000000	-1.000000	-1.000000	-1.000000	-1.000000	-1.000000	-1.000000	68.344828	0.000000	-1.000000	-1.000000	2783469.000000	1770067064.567373
-21679.380000	-14707.980000	-20711.385000	-15893.820000	-22111.155000	-15772.140000	-3544.515000	-8888.895000	4.821238	-37.947468	-43.211731	-61.849009	-65.798962	-49.279139	-21.699237	24.738490	-7.233240	0.366240	-2.838360	0.920774	-0.239074	0.340880	-1.000000	-1.000000	-1.000000	-1.000000	-1.000000	-1.000000	-1.000000	68.344828	0.000000	-1.000000	-1.000000	2783470.000000	1770067064.567381
-21683.520000	-14686.425000	-20679.300000	-15860.295000	-22063.590000	-15735.195000	-3536.955000	-8905.275000	-3.008207	-36.205041	-46.416317	-78.325972	-65.593308	-33.924824	-6.448312	21.201650	1.068200	4.974760	3.616620	0.922544	-0.236755	0.325439	-1.000000	-1.000000	-1.000000	-1.000000	-1.000000	-1.000000	-1.000000	68.344828	0.000000	-1.000000	-1.000000	2783471.000000	1770067064.571354
-21701.115000	-14713.425000	-20711.295000	-15912.045000	-22100.535000	-15755.400000	-3543.840000	-8908.830000	-9.337646	-20.035697	-31.886732	-66.971756	-40.887151	-5.229450	10.436858	5.649057	1.068200	4.974760	3.616620	0.922544	-0.236755	0.325439	-1.000000	-1.000000	-1.000000	-1.000000	-1.000000	-1.000000	-1.000000	68.344828	0.000000	-1.000000	-1.000000	2783472.000000	1770067064.571360
-21677.670000	-14706.090000	-20720.205000	-15928.695000	-22108.995000	-15744.915000	-3516.120000	-8819.055000	-10.572432	1.438448	-8.050992	-34.580414	-4.615024	22.178731	20.910783	-9.940079	1.068200	4.974760	3.616620	0.922544	-0.236755	0.325439	-1.000000	-1.000000	-1.000000	-1.000000	-1.000000	-1.000000	-1.000000	68.344828	0.000000	-1.000000	-1.000000	2783473.000000	1770067064.581283
-21687.525000	-14623.920000	-20626.515000	-15803.010000	-21992.445000	-15650.415000	-3463.020000	-8846.325000	-6.096958	19.178316	14.739294	5.100801	27.814318	37.549369	23.018258	-14.552518	1.068200	4.974760	3.616620	0.922544	-0.236755	0.325439	-1.000000	-1.000000	-1.000000	-1.000000	-1.000000	-1.000000	-1.000000	68.344828	0.000000	-1.000000	-1.000000	2783474.000000	1770067064.581295
-21726.405000	-14621.670000	-20620.305000	-15786.225000	-21993.570000	-15664.545000	-3495.735000	-8974.890000	0.294192	30.570158	32.248961	42.428661	49.949871	40.828913	20.047523	-9.966966	1.068200	4.974760	3.616620	0.922544	-0.236755	0.325439	-1.000000	-1.000000	-1.000000	-1.000000	-1.000000	-1.000000	-1.000000	68.344828	0.000000	-1.000000	-1.000000	2783475.000000	1770067064.582950
-21694.680000	-14739.615000	-20753.100000	-15909.030000	-22128.345000	-15802.470000	-3581.505000	-8858.565000	3.988572	33.907311	41.765740	68.677369	58.795268	34.297046	13.090726	-5.449323	1.068200	4.974760	3.616620	0.922544	-0.236755	0.325439	-1.000000	-1.000000	-1.000000	-1.000000	-1.000000	-1.000000	-1.000000	68.344828	0.000000	-1.000000	-1.000000	2783476.000000	1770067064.582961
-21604.545000	-14732.595000	-20761.290000	-15924.465000	-22133.070000	-15797.430000	-3530.340000	-8651.745000	6.154325	24.585618	36.860971	71.457087	48.066757	16.058592	0.414045	-0.686063	1.068200	4.974760	3.616620	0.922544	-0.236755	0.325439	-1.000000	-1.000000	-1.000000	-1.000000	-1.000000	-1.000000	-1.000000	68.344828	0.000000	-1.000000	-1.000000	2783477.000000	1770067064.585299
-21592.305000	-14655.420000	-20663.550000	-15825.645000	-22034.880000	-15711.165000	-3477.825000	-8660.790000	10.624601	5.261806	18.308268	48.295757	19.902740	-9.227595	-13.368512	11.944457	1.068200	4.974760	3.616620	0.922544	-0.236755	0.325439	-1.000000	-1.000000	-1.000000	-1.000000	-1.000000	-1.000000	-1.000000	68.344828	0.000000	-1.000000	-1.000000	2783478.000000	1770067064.585313
-21646.890000	-14672.295000	-20652.975000	-15795.990000	-22018.725000	-15713.055000	-3497.850000	-8748.270000	15.350388	-11.914899	-1.622532	13.504652	-10.417274	-27.540675	-18.982615	28.009273	1.068200	4.974760	3.616620	0.922544	-0.236755	0.325439	-1.000000	-1.000000	-1.000000	-1.000000	-1.000000	-1.000000	-1.000000	68.344828	0.000000	-1.000000	-1.000000	2783479.000000	1770067064.590402
-21603.510000	-14675.670000	-20676.600000	-15815.655000	-22042.530000	-15736.185000	-3515.490000	-8763.885000	14.553810	-18.884069	-13.733140	-16.783785	-29.836630	-30.787017	-14.614630	31.424016	1.068200	4.974760	3.616620	0.922544	-0.236755	0.325439	-1.000000	-1.000000	-1.000000	-1.000000	-1.000000	-1.000000	-1.000000	68.344828	0.000000	-1.000000	-1.000000	2783480.000000	1770067064.590412
-21603.960000	-14690.520000	-20708.910000	-15857.820000	-22082.760000	-15765.300000	-3520.215000	-8746.695000	6.852518	-17.124565	-18.836522	-35.600760	-36.172631	-23.067252	-6.782723	13.780948	14.985320	8.759240	4.455920	0.920286	-0.240600	0.304626	-1.000000	-1.000000	-1.000000	-1.000000	-1.000000	-1.000000	-1.000000	68.344828	0.000000	-1.000000	-1.000000	2783481.000000	1770067064.591347
-21634.200000	-14704.920000	-20714.265000	-15879.375000	-22108.770000	-15792.480000	-3537.720000	-8770.950000	-4.722038	-12.208889	-20.974629	-43.290829	-33.603506	-13.087687	-2.149330	-17.328190	14.985320	8.759240	4.455920	0.920286	-0.240600	0.304626	-1.000000	-1.000000	-1.000000	-1.000000	-1.000000	-1.000000	-1.000000	68.344828	0.000000	-1.000000	-1.000000	2783482.000000	1770067064.591353
-21666.240000	-14686.605000	-20689.740000	-15874.290000	-22092.480000	-15769.710000	-3541.770000	-8820.315000	-16.782066	-9.045828	-21.982219	-43.292416	-27.237856	-6.729650	-2.725938	-45.049736	14.985320	8.759240	4.455920	0.920286	-0.240600	0.304626	-1.000000	-1.000000	-1.000000	-1.000000	-1.000000	-1.000000	-1.000000	68.344828	0.000000	-1.000000	-1.000000	2783483.000000	1770067064.595313
-21643.065000	-14685.705000	-20704.725000	-15901.740000	-22119.975000	-15781.635000	-3545.190000	-8792.370000	-24.796099	-6.931546	-18.983374	-36.059632	-17.455264	-1.937595	-4.293858	-53.195550	14.985320	8.759240	4.455920	0.920286	-0.240600	0.304626	-1.000000	-1.000000	-1.000000	-1.000000	-1.000000	-1.000000	-1.000000	68.344828	0.000000	-1.000000	-1.000000	2783484.000000	1770067064.595322
-21648.195000	-14689.620000	-20709.180000	-15889.545000	-22105.080000	-15767.640000	-3531.195000	-8775.045000	-24.371744	-0.338341	-6.987540	-17.768034	-0.349021	8.097939	-0.468293	-38.564385	14.985320	8.759240	4.455920	0.920286	-0.240600	0.304626	-1.000000	-1.000000	-1.000000	-1.000000	-1.000000	-1.000000	-1.000000	68.344828	0.000000	-1.000000	-1.000000	2783485.000000	1770067064.600191
-21640.770000	-14698.845000	-20725.695000	-15895.755000	-22103.505000	-15763.545000	-3521.205000	-8763.930000	-16.727425	10.738843	11.456551	9.752325	21.825893	22.715652	8.356385	-14.410835	14.985320	8.759240	4.455920	0.920286	-0.240600	0.304626	-1.000000	-1.000000	-1.000000	-1.000000	-1.000000	-1.000000	-1.000000	68.344828	0.000000	-1.000000	-1.000000	2783486.000000	1770067064.600202
-21627.495000	-14699.430000	-20716.560000	-15883.065000	-22100.940000	-15771.465000	-3526.245000	-8764.290000	-6.056324	17.563474	23.983287	33.038537	36.387560	30.597488	14.607638	6.401160	14.985320	8.759240	4.455920	0.920286	-0.240600	0.304626	-1.000000	-1.000000	-1.000000	-1.000000	-1.000000	-1.000000	-1.000000	68.344828	0.000000	-1.000000	-1.000000	2783487.000000	1770067064.603514
-21627.765000	-14689.710000	-20685.870000	-15843.195000	-22064.715000	-15753.960000	-3525.480000	-8768.385000	6.282386	14.008045	21.839662	39.022010	33.079200	23.164121	13.227054	23.092180	14.985320	8.759240	4.455920	0.920286	-0.240600	0.304626	-1.000000	-1.000000	-1.000000	-1.000000	-1.000000	-1.000000	-1.000000	68.344828	0.000000	-1.000000	-1.000000	2783488.000000	1770067064.603523
-21655.440000	-14696.685000	-20692.890000	-15846.480000	-22055.400000	-15740.640000	-3514.680000	-8776.440000	17.608217	3.837537	9.831697	28.783019	16.528586	5.520863	6.535827	36.386869	14.985320	8.759240	4.455920	0.920286	-0.240600	0.304626	-1.000000	-1.000000	-1.000000	-1.000000	-1.000000	-1.000000	-1.000000	68.344828	0.000000	-1.000000	-1.000000	2783489.000000	1770067064.612072
-21687.120000	-14682.645000	-20675.430000	-15833.790000	-22047.120000	-15719.940000	-3495.465000	-8799.750000	21.586564	-5.136922	-1.257375	13.247312	-0.066793	-9.705742	-0.099499	40.110632	14.985320	8.759240	4.455920	0.920286	-0.240600	0.304626	-1.000000	-1.000000	-1.000000	-1.000000	-1.000000	-1.000000	-1.000000	68.344828	0.000000	-1.000000	-1.000000	2783490.000000	1770067064.612081
-21714.210000	-14657.265000	-20627.640000	-15793.065000	-22013.595000	-15673.680000	-3467.070000	-8832.915000	15.631488	-8.243966	-5.551979	1.025383	-8.622570	-14.562577	-3.130520	29.357063	18.785060	3.341940	-6.897520	0.905698	-0.246948	0.295287	-1.000000	-1.000000	-1.000000	-1.000000	-1.000000	-1.000000	-1.000000	68.344828	0.000000	-1.000000	-1.000000	2783491.000000	1770067064.612205
-21663.720000	-14651.370000	-20639.250000	-15834.015000	-22056.030000	-15696.450000	-3476.835000	-8822.340000	5.193545	-5.649777	-3.971060	-5.959804	-9.992224	-10.180592	-2.197350	9.489553	18.785060	3.341940	-6.897520	0.905698	-0.246948	0.295287	-1.000000	-1.000000	-1.000000	-1.000000	-1.000000	-1.000000	-1.000000	68.344828	0.000000	-1.000000	-1.000000	2783492.000000	1770067064.612214
-21621.645000	-14674.455000	-20684.655000	-15898.905000	-22118.445000	-15751.440000	-3491.145000	-8799.885000	-1.145935	-0.472982	-0.850183	-10.224951	-9.373871	-3.619750	0.128581	-8.747916	18.785060	3.341940	-6.897520	0.905698	-0.246948	0.295287	-1.000000	-1.000000	-1.000000	-1.000000	-1.000000	-1.000000	-1.000000	68.344828	0.000000	-1.000000	-1.000000	2783493.000000	1770067064.618696
-21679.155000	-14656.185000	-20658.420000	-15872.940000	-22076.595000	-15724.530000	-3481.155000	-8840.295000	-1.074805	3.795164	0.186961	-14.128116	-10.253636	-1.442713	0.078603	-20.448896	18.785060	3.341940	-6.897520	0.905698	-0.246948	0.295287	-1.000000	-1.000000	-1.000000	-1.000000	-1.000000	-1.000000	-1.000000	68.344828	0.000000	-1.000000	-1.000000	2783494.000000	1770067064.618706
-21691.440000	-14662.530000	-20642.085000	-15839.595000	-22053.555000	-15714.990000	-3512.835000	-8823.465000	-0.753145	4.757010	-1.269057	-16.261711	-11.290336	-4.414658	-4.344370	-26.200591	18.785060	3.341940	-6.897520	0.905698	-0.246948	0.295287	-1.000000	-1.000000	-1.000000	-1.000000	-1.000000	-1.000000	-1.000000	68.344828	0.000000	-1.000000	-1.000000	2783495.000000	1770067064.620242
-21593.295000	-14695.740000	-20700.720000	-15899.940000	-22131.720000	-15780.690000	-3546.990000	-8721.495000	-3.393136	1.387780	-4.703206	-14.894435	-10.722474	-9.296356	-11.686434	-22.820680	18.785060	3.341940	-6.897520	0.905698	-0.246948	0.295287	-1.000000	-1.000000	-1.000000	-1.000000	-1.000000	-1.000000	-1.000000	68.344828	0.000000	-1.000000	-1.000000	2783496.000000	1770067064.620253
-21588.795000	-14699.835000	-20716.020000	-15886.035000	-22110.480000	-15777.180000	-3522.465000	-8704.755000	-3.670237	-5.326779	-10.583333	-11.915351	-10.121557	-13.475163	-17.210427	-5.936860	18.785060	3.341940	-6.897520	0.905698	-0.246948	0.295287	-1.000000	-1.000000	-1.000000	-1.000000	-1.000000	-1.000000	-1.000000	68.344828	0.000000	-1.000000	-1.000000	2783497.000000	1770067064.623488
-21627.270000	-14723.100000	-20741.940000	-15897.465000	-22119.885000	-15808.230000	-3524.985000	-8716.140000	1.111780	-11.718501	-16.649524	-8.200764	-9.097690	-14.611868	-15.650830	17.648857	18.785060	3.341940	-6.897520	0.905698	-0.246948	0.295287	-1.000000	-1.000000	-1.000000	-1.000000	-1.000000	-1.000000	-1.000000	68.344828	0.000000	-1.000000	-1.000000	2783498.000000	1770067064.623498
-21634.020000	-14707.710000	-20720.745000	-15893.595000	-22105.440000	-15796.530000	-3536.460000	-8750.520000	5.852909	-13.711445	-17.756451	-2.242980	-4.336562	-10.753418	-6.611252	31.975414	18.785060	3.341940	-6.897520	0.905698	-0.246948	0.295287	-1.000000	-1.000000	-1.000000	-1.000000	-1.000000	-1.000000	-1.000000	68.344828	0.000000	-1.000000	-1.000000	2783499.000000	1770067064.641057
-21652.740000	-14719.815000	-20734.605000	-15903.495000	-22111.740000	-15795.945000	-3535.065000	-8763.255000	5.437912	-10.075135	-11.511337	5.068592	4.304315	-2.459672	4.658828	27.447101	18.785060	3.341940	-6.897520	0.905698	-0.246948	0.295287	-1.000000	-1.000000	-1.000000	-1.000000	-1.000000	-1.000000	-1.000000	68.344828	0.000000	-1.000000	-1.000000	2783500.000000	1770067064.641070
-21641.985000	-14689.530000	-20691.090000	-15850.890000	-22077.135000	-15769.755000	-3530.205000	-8773.065000	-1.143361	-1.998009	0.993078	12.663058	14.586928	8.903463	13.258858	7.518457	-17.213280	-22.279600	-29.207640	0.866453	-0.233032	0.338683	-1.000000	-1.000000	-1.000000	-1.000000	-1.000000	-1.000000	-1.000000	68.344828	0.000000	-1.000000	-1.000000	2783501.000000	1770067064.641085
-21686.940000	-14679.495000	-20662.830000	-15816.330000	-22043.880000	-15738.795000	-3521.115000	-8809.560000	-11.492223	8.802813	17.690468	21.936373	24.976021	22.179733	17.690187	-17.401444	-17.213280	-22.279600	-29.207640	0.866453	-0.233032	0.338683	-1.000000	-1.000000	-1.000000	-1.000000	-1.000000	-1.000000	-1.000000	68.344828	0.000000	-1.000000	-1.000000	2783502.000000	1770067064.641090
-21685.275000	-14682.195000	-20679.165000	-15852.060000	-22075.830000	-15757.515000	-3520.530000	-8812.665000	-19.762073	18.534654	32.387941	29.388832	30.384708	32.167905	17.547782	-35.991106	-17.213280	-22.279600	-29.207640	0.866453	-0.233032	0.338683	-1.000000	-1.000000	-1.000000	-1.000000	-1.000000	-1.000000	-1.000000	68.344828	0.000000	-1.000000	-1.000000	2783503.000000	1770067064.641097
-21640.725000	-14663.340000	-20668.275000	-15848.775000	-22073.985000	-15763.140000	-3527.145000	-8824.365000	-19.274015	21.935935	35.315030	25.571931	23.212996	30.716233	13.092699	-39.935591	-17.213280	-22.279600	-29.207640	0.866453	-0.233032	0.338683	-1.000000	-1.000000	-1.000000	-1.000000	-1.000000	-1.000000	-1.000000	68.344828	0.000000	-1.000000	-1.000000	2783504.000000	1770067064.641102
-21648.645000	-14699.250000	-20699.415000	-15871.095000	-22101.210000	-15786.810000	-3526.065000	-8800.965000	-9.101215	17.028820	23.047862	7.826562	3.973331	16.111960	6.227460	-28.701501	-17.213280	-22.279600	-29.207640	0.866453	-0.233032	0.338683	-1.000000	-1.000000	-1.000000	-1.000000	-1.000000	-1.000000	-1.000000	68.344828	0.000000	-1.000000	-1.000000	2783505.000000	1770067064.641108
-21636.720000	-14704.290000	-20721.465000	-15913.395000	-22134.555000	-15791.175000	-3502.530000	-8709.615000	4.773354	5.845212	1.814844	-15.537328	-18.038670	-4.536457	-0.818512	-7.204330	-17.213280	-22.279600	-29.207640	0.866453	-0.233032	0.338683	-1.000000	-1.000000	-1.000000	-1.000000	-1.000000	-1.000000	-1.000000	68.344828	0.000000	-1.000000	-1.000000	2783506.000000	1770067064.641113
-21643.920000	-14696.055000	-20709.405000	-15910.875000	-22115.115000	-15768.270000	-3515.220000	-8735.400000	16.408141	-7.028228	-18.441860	-33.480371	-33.035586	-21.310011	-6.542701	18.779580	-17.213280	-22.279600	-29.207640	0.866453	-0.233032	0.338683	-1.000000	-1.000000	-1.000000	-1.000000	-1.000000	-1.000000	-1.000000	68.344828	0.000000	-1.000000	-1.000000	2783507.000000	1770067064.643397
-21656.295000	-14721.390000	-20742.435000	-15949.980000	-22151.205000	-15804.540000	-3531.735000	-8766.900000	22.654051	-16.432020	-30.061182	-38.607715	-35.212722	-27.830515	-10.381066	39.800083	-17.213280	-22.279600	-29.207640	0.866453	-0.233032	0.338683	-1.000000	-1.000000	-1.000000	-1.000000	-1.000000	-1.000000	-1.000000	68.344828	0.000000	-1.000000	-1.000000	2783508.000000	1770067064.643409
-21628.305000	-14675.895000	-20695.635000	-15897.960000	-22111.020000	-15781.905000	-3515.130000	-8755.380000	21.503980	-19.251828	-30.168931	-29.204882	-24.403507	-24.301101	-12.112136	45.050603	-17.213280	-22.279600	-29.207640	0.866453	-0.233032	0.338683	-1.000000	-1.000000	-1.000000	-1.000000	-1.000000	-1.000000	-1.000000	68.344828	0.000000	-1.000000	-1.000000	2783509.000000	1770067064.647368
-21664.080000	-14670.360000	-20684.295000	-15872.985000	-22076.370000	-15739.335000	-3487.545000	-8788.320000	12.983368	-14.469651	-19.468341	-8.593365	-4.771791	-13.775209	-10.444707	31.490639	-17.213280	-22.279600	-29.207640	0.866453	-0.233032	0.338683	-1.000000	-1.000000	-1.000000	-1.000000	-1.000000	-1.000000	-1.000000	68.344828	0.000000	-1.000000	-1.000000	2783510.000000	1770067064.647384
-21694.410000	-14703.345000	-20716.290000	-15888.780000	-22081.140000	-15736.995000	-3488.670000	-8796.105000	-0.051917	-4.773047	-3.126791	14.836890	16.166079	0.258757	-4.819727	6.186298	-40.469520	-42.728000	-28.429380	0.855283	-0.208129	0.361510	-1.000000	-1.000000	-1.000000	-1.000000	-1.000000	-1.000000	-1.000000	68.344828	0.000000	-1.000000	-1.000000	2783511.000000	1770067064.651401
-21629.520000	-14663.745000	-20684.205000	-15878.655000	-22065.030000	-15725.115000	-3498.705000	-8781.345000	-12.045412	3.987246	10.495827	30.238274	29.233374	12.481241	2.072181	-18.248259	-40.469520	-42.728000	-28.429380	0.855283	-0.208129	0.361510	-1.000000	-1.000000	-1.000000	-1.000000	-1.000000	-1.000000	-1.000000	68.344828	0.000000	-1.000000	-1.000000	2783512.000000	1770067064.651408
-21625.515000	-14662.935000	-20683.980000	-15885.090000	-22074.435000	-15740.955000	-3510.135000	-8807.940000	-17.318907	8.857381	17.010584	31.845954	29.700203	18.247505	6.396459	-31.505852	-40.469520	-42.728000	-28.429380	0.855283	-0.208129	0.361510	-1.000000	-1.000000	-1.000000	-1.000000	-1.000000	-1.000000	-1.000000	68.344828	0.000000	-1.000000	-1.000000	2783513.000000	1770067064.657724
-21694.680000	-14667.705000	-20660.940000	-15836.040000	-22049.235000	-15740.280000	-3515.580000	-8831.655000	-15.651542	10.694258	17.913919	22.596955	20.049514	16.365597	6.090395	-32.377926	-40.469520	-42.728000	-28.429380	0.855283	-0.208129	0.361510	-1.000000	-1.000000	-1.000000	-1.000000	-1.000000	-1.000000	-1.000000	68.344828	0.000000	-1.000000	-1.000000	2783514.000000	1770067064.657730
-21705.795000	-14700.645000	-20691.180000	-15847.020000	-22068.855000	-15759.990000	-3514.365000	-8806.365000	-11.782797	9.651246	15.502951	10.255687	6.397836	8.362418	1.663875	-25.740377	-40.469520	-42.728000	-28.429380	0.855283	-0.208129	0.361510	-1.000000	-1.000000	-1.000000	-1.000000	-1.000000	-1.000000	-1.000000	68.344828	0.000000	-1.000000	-1.000000	2783515.000000	1770067064.659396
-21610.800000	-14733.855000	-20759.715000	-15922.575000	-22150.980000	-15835.590000	-3549.780000	-8737.605000	-6.771209	4.293496	8.697790	-0.856799	-7.428063	-3.582211	-3.995409	-13.008436	-40.469520	-42.728000	-28.429380	0.855283	-0.208129	0.361510	-1.000000	-1.000000	-1.000000	-1.000000	-1.000000	-1.000000	-1.000000	68.344828	0.000000	-1.000000	-1.000000	2783516.000000	1770067064.659402
-21582.360000	-14728.770000	-20773.845000	-15957.990000	-22172.940000	-15838.380000	-3533.760000	-8667.675000	3.333551	-4.679961	-4.044221	-12.295323	-20.669148	-16.408430	-7.354348	7.960225	-40.469520	-42.728000	-28.429380	0.855283	-0.208129	0.361510	-1.000000	-1.000000	-1.000000	-1.000000	-1.000000	-1.000000	-1.000000	68.344828	0.000000	-1.000000	-1.000000	2783517.000000	1770067064.664899
-21604.455000	-14709.105000	-20728.530000	-15892.065000	-22116.555000	-15802.380000	-3526.515000	-8673.795000	16.793184	-12.580245	-18.065613	-23.477370	-29.645290	-23.934477	-6.330731	32.247759	-40.469520	-42.728000	-28.429380	0.855283	-0.208129	0.361510	-1.000000	-1.000000	-1.000000	-1.000000	-1.000000	-1.000000	-1.000000	68.344828	0.000000	-1.000000	-1.000000	2783518.000000	1770067064.664910
-21642.975000	-14684.940000	-20670.525000	-15813.225000	-22069.350000	-15778.305000	-3529.845000	-8729.640000	24.045183	-13.780841	-23.279221	-26.881948	-27.332456	-20.236300	-1.739676	45.522441	-40.469520	-42.728000	-28.429380	0.855283	-0.208129	0.361510	-1.000000	-1.000000	-1.000000	-1.000000	-1.000000	-1.000000	-1.000000	68.344828	0.000000	-1.000000	-1.000000	2783519.000000	1770067064.667556
-21648.780000	-14699.970000	-20667.195000	-15809.265000	-22075.560000	-15783.975000	-3531.510000	-8745.390000	18.490243	-6.499282	-13.619255	-16.008218	-11.695039	-6.133123	3.419271	36.292417	-40.469520	-42.728000	-28.429380	0.855283	-0.208129	0.361510	-1.000000	-1.000000	-1.000000	-1.000000	-1.000000	-1.000000	-1.000000	68.344828	0.000000	-1.000000	-1.000000	2783520.000000	1770067064.667583
-21655.845000	-14739.975000	-20712.600000	-15867.630000	-22123.395000	-15808.995000	-3522.465000	-8732.115000	1.807590	3.852215	4.518067	3.578211	8.956159	10.600985	7.130203	7.788614	-26.720260	-37.234400	-12.681060	0.885252	-0.213439	0.354919	-1.000000	-1.000000	-1.000000	-1.000000	-1.000000	-1.000000	-1.000000	68.344828	0.000000	-1.000000	-1.000000	2783521.000000	1770067064.671326
-21632.355000	-14722.245000	-20742.075000	-15923.745000	-22151.295000	-15808.995000	-3510.405000	-8707.995000	-17.221642	9.362222	16.730076	16.616506	21.672449	21.243678	9.300495	-23.210153	-26.720260	-37.234400	-12.681060	0.885252	-0.213439	0.354919	-1.000000	-1.000000	-1.000000	-1.000000	-1.000000	-1.000000	-1.000000	68.344828	0.000000	-1.000000	-1.000000	2783522.000000	1770067064.671337
