Channel1	Channel2	Channel3	Channel4	Channel5	Channel6	Channel7	Channel8	FilteredChannel1	FilteredChannel2	FilteredChannel3	FilteredChannel4	FilteredChannel5	FilteredChannel6	FilteredChannel7	FilteredChannel8	GyroX	GyroY	GyroZ	AccX	AccY	AccZ	PPG1	PPG2	rawPPG1	rawPPG2	rawPPG3	Hr	Hrv	Battery	Trigger	PhysicalTrigger	AutoTrigger	NumMeasurements	Timestamp
18964.305000	-17755.785000	12400.875000	26571.015000	10055.970000	-43583.940000	-36227.160000	-20421.225000	-9.577070	-0.805996	-0.274835	1.076865	3.328597	-6.735627	-12.288448	-9.742963	-0.961380	4.990020	-1.892240	0.842771	-0.247253	0.469603	-1.000000	-1.000000	-1.000000	-1.000000	-1.000000	-1.000000	-1.000000	81.655172	0.000000	-1.000000	-1.000000	757470.000000	1774905449.527191
18974.745000	-17727.390000	12431.250000	26599.770000	10082.430000	-43559.820000	-36205.740000	-20378.115000	-15.944196	-7.839481	-9.849283	-2.214932	-0.709566	-10.641055	-14.846115	-18.311200	-2.853620	5.127360	-1.281840	0.844908	-0.245300	0.468505	-1.000000	-1.000000	-1.000000	-1.000000	-1.000000	-1.000000	-1.000000	81.655172	0.000000	-1.000000	-1.000000	757471.000000	1774905449.529105
19035.315000	-17700.165000	12446.325000	26614.620000	10088.235000	-43559.280000	-36195.255000	-20340.495000	-12.463730	-8.021807	-11.703513	-1.632190	-2.047732	-7.274142	-9.534132	-15.311541	-2.853620	5.127360	-1.281840	0.844908	-0.245300	0.468505	-1.000000	-1.000000	-1.000000	-1.000000	-1.000000	-1.000000	-1.000000	81.655172	0.000000	-1.000000	-1.000000	757472.000000	1774905449.529118
19121.220000	-17663.310000	12467.835000	26636.760000	10110.195000	-43540.470000	-36182.115000	-20318.400000	3.500520	1.584757	-3.766760	3.947228	-0.087139	2.075298	1.769971	-0.371615	-2.853620	5.127360	-1.281840	0.844908	-0.245300	0.468505	-1.000000	-1.000000	-1.000000	-1.000000	-1.000000	-1.000000	-1.000000	81.655172	0.000000	-1.000000	-1.000000	757473.000000	1774905449.533792
19111.680000	-17663.355000	12446.100000	26631.135000	10111.680000	-43531.425000	-36187.020000	-20348.415000	24.014369	14.186644	6.652162	9.541106	2.861515	11.411970	12.651854	16.268041	-2.853620	5.127360	-1.281840	0.844908	-0.245300	0.468505	-1.000000	-1.000000	-1.000000	-1.000000	-1.000000	-1.000000	-1.000000	81.655172	0.000000	-1.000000	-1.000000	757474.000000	1774905449.533804
19031.310000	-17671.635000	12429.630000	26624.070000	10107.495000	-43534.845000	-36196.920000	-20381.175000	33.062271	18.562837	9.203845	8.145356	2.564251	13.669370	15.771529	21.321282	-2.853620	5.127360	-1.281840	0.844908	-0.245300	0.468505	-1.000000	-1.000000	-1.000000	-1.000000	-1.000000	-1.000000	-1.000000	81.655172	0.000000	-1.000000	-1.000000	757475.000000	1774905449.537402
18998.415000	-17713.260000	12401.235000	26586.135000	10069.920000	-43574.895000	-36224.145000	-20389.230000	20.153439	9.496866	1.363918	-1.328540	-2.451858	6.546634	8.895690	10.921980	-2.853620	5.127360	-1.281840	0.844908	-0.245300	0.468505	-1.000000	-1.000000	-1.000000	-1.000000	-1.000000	-1.000000	-1.000000	81.655172	0.000000	-1.000000	-1.000000	757476.000000	1774905449.537421
19036.080000	-17714.340000	12413.025000	26585.595000	10065.645000	-43580.655000	-36215.505000	-20337.255000	-7.223940	-7.381620	-9.089047	-12.309251	-8.702971	-5.391983	-2.572796	-4.860385	-2.853620	5.127360	-1.281840	0.844908	-0.245300	0.468505	-1.000000	-1.000000	-1.000000	-1.000000	-1.000000	-1.000000	-1.000000	81.655172	0.000000	-1.000000	-1.000000	757477.000000	1774905449.539600
19077.705000	-17691.390000	12442.455000	26620.335000	10095.480000	-43548.705000	-36191.745000	-20315.070000	-28.270716	-19.623402	-11.654767	-15.660525	-10.031598	-13.506922	-9.549202	-11.182778	-2.853620	5.127360	-1.281840	0.844908	-0.245300	0.468505	-1.000000	-1.000000	-1.000000	-1.000000	-1.000000	-1.000000	-1.000000	81.655172	0.000000	-1.000000	-1.000000	757478.000000	1774905449.539612
19051.515000	-17703.945000	12434.805000	26618.805000	10071.855000	-43564.140000	-36199.440000	-20349.630000	-28.362205	-18.594329	-3.149419	-7.554484	-3.841893	-11.940402	-7.356728	-3.913840	-2.853620	5.127360	-1.281840	0.844908	-0.245300	0.468505	-1.000000	-1.000000	-1.000000	-1.000000	-1.000000	-1.000000	-1.000000	81.655172	0.000000	-1.000000	-1.000000	757479.000000	1774905449.550913
19012.410000	-17733.105000	12436.560000	26607.285000	10045.305000	-43577.415000	-36207.090000	-20391.930000	-12.297723	-7.593967	9.161257	5.870478	4.394123	-3.468764	-0.069493	5.725563	-2.853620	5.127360	-1.281840	0.844908	-0.245300	0.468505	-1.000000	-1.000000	-1.000000	-1.000000	-1.000000	-1.000000	-1.000000	81.655172	0.000000	-1.000000	-1.000000	757480.000000	1774905449.550924
19011.645000	-17724.870000	12453.120000	26599.140000	10058.760000	-43570.665000	-36210.105000	-20392.740000	3.060436	2.999489	15.631938	14.103616	7.356819	4.527348	4.874761	4.917899	-5.249440	5.279960	-2.075360	0.848142	-0.245056	0.469359	-1.000000	-1.000000	-1.000000	-1.000000	-1.000000	-1.000000	-1.000000	81.655172	0.000000	-1.000000	-1.000000	757481.000000	1774905449.550969
19033.245000	-17711.010000	12434.220000	26561.430000	10064.430000	-43569.450000	-36208.665000	-20351.520000	6.295293	6.690753	12.416387	11.243757	4.137187	7.602365	4.117220	-5.859372	-5.249440	5.279960	-2.075360	0.848142	-0.245056	0.469359	-1.000000	-1.000000	-1.000000	-1.000000	-1.000000	-1.000000	-1.000000	81.655172	0.000000	-1.000000	-1.000000	757482.000000	1774905449.550980
19032.030000	-17716.680000	12424.635000	26556.075000	10069.875000	-43568.640000	-36211.095000	-20348.280000	0.352168	4.365617	1.853519	-0.822158	-1.149642	5.408241	-0.560565	-14.858121	-5.249440	5.279960	-2.075360	0.848142	-0.245056	0.469359	-1.000000	-1.000000	-1.000000	-1.000000	-1.000000	-1.000000	-1.000000	81.655172	0.000000	-1.000000	-1.000000	757483.000000	1774905449.560575
19037.160000	-17713.665000	12429.855000	26589.510000	10082.160000	-43563.870000	-36210.105000	-20361.690000	-3.325437	0.740568	-9.463442	-13.029153	-3.883404	0.691408	-4.942645	-12.942050	-5.249440	5.279960	-2.075360	0.848142	-0.245056	0.469359	-1.000000	-1.000000	-1.000000	-1.000000	-1.000000	-1.000000	-1.000000	81.655172	0.000000	-1.000000	-1.000000	757484.000000	1774905449.560585
19054.980000	-17700.030000	12435.435000	26614.485000	10096.110000	-43555.590000	-36205.920000	-20339.505000	2.253045	0.492041	-14.128687	-14.483550	-1.064064	-1.836726	-5.276282	-1.691390	-5.249440	5.279960	-2.075360	0.848142	-0.245056	0.469359	-1.000000	-1.000000	-1.000000	-1.000000	-1.000000	-1.000000	-1.000000	81.655172	0.000000	-1.000000	-1.000000	757485.000000	1774905449.560596
19060.380000	-17699.445000	12437.595000	26625.285000	10112.760000	-43541.865000	-36197.505000	-20331.450000	12.982101	4.934290	-9.708205	-2.477610	6.445216	0.454336	-0.996134	10.608542	-5.249440	5.279960	-2.075360	0.848142	-0.245056	0.469359	-1.000000	-1.000000	-1.000000	-1.000000	-1.000000	-1.000000	-1.000000	81.655172	0.000000	-1.000000	-1.000000	757486.000000	1774905449.560601
19040.535000	-17712.270000	12441.150000	26628.480000	10094.850000	-43545.510000	-36195.165000	-20344.095000	18.991524	10.155615	-0.612187	13.941673	13.030933	5.052885	4.648297	16.518743	-5.249440	5.279960	-2.075360	0.848142	-0.245056	0.469359	-1.000000	-1.000000	-1.000000	-1.000000	-1.000000	-1.000000	-1.000000	81.655172	0.000000	-1.000000	-1.000000	757487.000000	1774905449.567259
19043.730000	-17700.795000	12452.760000	26618.985000	10064.430000	-43555.815000	-36198.180000	-20355.030000	15.015360	10.975634	6.777656	22.389414	12.280184	7.032717	7.530733	13.777943	-5.249440	5.279960	-2.075360	0.848142	-0.245056	0.469359	-1.000000	-1.000000	-1.000000	-1.000000	-1.000000	-1.000000	-1.000000	81.655172	0.000000	-1.000000	-1.000000	757488.000000	1774905449.567298
19035.405000	-17696.205000	12443.895000	26590.410000	10053.945000	-43554.690000	-36197.055000	-20373.615000	4.208605	6.617679	8.973663	17.181365	2.939993	4.188022	6.057068	5.224102	-5.249440	5.279960	-2.075360	0.848142	-0.245056	0.469359	-1.000000	-1.000000	-1.000000	-1.000000	-1.000000	-1.000000	-1.000000	81.655172	0.000000	-1.000000	-1.000000	757489.000000	1774905449.567339
19032.255000	-17683.425000	12450.240000	26605.170000	10092.780000	-43546.005000	-36195.795000	-20367.855000	-7.592861	-0.213020	5.779500	2.091415	-9.492452	-1.658699	1.598765	-4.723120	-5.249440	5.279960	-2.075360	0.848142	-0.245056	0.469359	-1.000000	-1.000000	-1.000000	-1.000000	-1.000000	-1.000000	-1.000000	81.655172	0.000000	-1.000000	-1.000000	757490.000000	1774905449.567359
19020.195000	-17715.240000	12421.980000	26597.115000	10088.100000	-43558.650000	-36213.570000	-20363.085000	-16.733616	-7.370027	-0.545103	-13.117604	-17.231422	-7.342835	-3.527929	-12.478846	-3.647140	5.691980	-1.022420	0.847898	-0.248229	0.469786	-1.000000	-1.000000	-1.000000	-1.000000	-1.000000	-1.000000	-1.000000	81.655172	0.000000	-1.000000	-1.000000	757491.000000	1774905449.582096
19041.345000	-17719.155000	12413.025000	26607.780000	10091.610000	-43553.430000	-36217.530000	-20353.410000	-19.997764	-13.473243	-6.511924	-20.028849	-16.445933	-10.566783	-7.524785	-14.864076	-3.647140	5.691980	-1.022420	0.847898	-0.248229	0.469786	-1.000000	-1.000000	-1.000000	-1.000000	-1.000000	-1.000000	-1.000000	81.655172	0.000000	-1.000000	-1.000000	757492.000000	1774905449.582109
19071.900000	-17681.085000	12451.230000	26635.860000	10119.510000	-43544.655000	-36195.615000	-20327.535000	-14.274939	-15.602215	-8.689029	-16.728413	-8.601836	-9.798113	-8.526225	-9.819219	-3.647140	5.691980	-1.022420	0.847898	-0.248229	0.469786	-1.000000	-1.000000	-1.000000	-1.000000	-1.000000	-1.000000	-1.000000	81.655172	0.000000	-1.000000	-1.000000	757493.000000	1774905449.582123
19064.295000	-17671.950000	12480.435000	26634.420000	10111.905000	-43531.155000	-36177.885000	-20328.030000	-1.342736	-10.562299	-4.629210	-6.796078	2.127106	-4.672257	-4.927320	0.484487	-3.647140	5.691980	-1.022420	0.847898	-0.248229	0.469786	-1.000000	-1.000000	-1.000000	-1.000000	-1.000000	-1.000000	-1.000000	81.655172	0.000000	-1.000000	-1.000000	757494.000000	1774905449.582129
19031.940000	-17702.145000	12421.980000	26586.090000	10033.380000	-43563.105000	-36196.695000	-20353.185000	10.698382	-0.110648	3.458971	2.983633	9.359274	2.146403	1.739985	9.406806	-3.647140	5.691980	-1.022420	0.847898	-0.248229	0.469786	-1.000000	-1.000000	-1.000000	-1.000000	-1.000000	-1.000000	-1.000000	81.655172	0.000000	-1.000000	-1.000000	757495.000000	1774905449.582135
19006.155000	-17743.050000	12362.760000	26544.645000	10008.810000	-43594.020000	-36214.290000	-20367.945000	14.129884	8.458790	7.469125	5.825964	7.602672	5.782063	6.521368	11.297968	-3.647140	5.691980	-1.022420	0.847898	-0.248229	0.469786	-1.000000	-1.000000	-1.000000	-1.000000	-1.000000	-1.000000	-1.000000	81.655172	0.000000	-1.000000	-1.000000	757496.000000	1774905449.582139
19019.295000	-17737.245000	12395.970000	26571.735000	10049.805000	-43584.525000	-36214.830000	-20363.580000	8.596032	9.326456	2.328090	1.372382	-0.178679	4.175726	5.924024	6.604892	-3.647140	5.691980	-1.022420	0.847898	-0.248229	0.469786	-1.000000	-1.000000	-1.000000	-1.000000	-1.000000	-1.000000	-1.000000	81.655172	0.000000	-1.000000	-1.000000	757497.000000	1774905449.582146
19014.660000	-17719.515000	12447.135000	26603.415000	10082.970000	-43567.245000	-36211.725000	-20367.405000	0.082705	3.872898	-5.897515	-2.732865	-4.300523	0.578269	1.384052	0.266870	-3.647140	5.691980	-1.022420	0.847898	-0.248229	0.469786	-1.000000	-1.000000	-1.000000	-1.000000	-1.000000	-1.000000	-1.000000	81.655172	0.000000	-1.000000	-1.000000	757498.000000	1774905449.582151
18997.560000	-17703.270000	12467.610000	26628.615000	10111.185000	-43548.930000	-36207.315000	-20381.130000	-5.778407	-1.643773	-6.858443	0.540303	0.025779	-0.474820	-2.893335	-4.109295	-3.647140	5.691980	-1.022420	0.847898	-0.248229	0.469786	-1.000000	-1.000000	-1.000000	-1.000000	-1.000000	-1.000000	-1.000000	81.655172	0.000000	-1.000000	-1.000000	757499.000000	1774905449.590736
19017.045000	-17697.330000	12466.530000	26635.950000	10119.825000	-43544.835000	-36206.280000	-20378.295000	-6.970470	-2.132452	1.991538	9.867843	8.703694	2.317132	-3.696776	-6.173073	-3.647140	5.691980	-1.022420	0.847898	-0.248229	0.469786	-1.000000	-1.000000	-1.000000	-1.000000	-1.000000	-1.000000	-1.000000	81.655172	0.000000	-1.000000	-1.000000	757500.000000	1774905449.590749
19041.615000	-17704.350000	12442.950000	26613.675000	10096.110000	-43556.400000	-36201.105000	-20360.970000	-3.613488	2.236196	13.086948	17.071889	14.106197	6.269461	-0.856398	-5.978238	-3.677660	4.654300	-1.495480	0.844419	-0.250121	0.470336	-1.000000	-1.000000	-1.000000	-1.000000	-1.000000	-1.000000	-1.000000	81.655172	0.000000	-1.000000	-1.000000	757501.000000	1774905449.590761
19069.245000	-17707.275000	12429.135000	26600.220000	10084.545000	-43564.005000	-36197.370000	-20344.635000	2.534154	6.241563	15.765261	14.261541	10.601574	7.066217	2.854731	-3.207911	-3.677660	4.654300	-1.495480	0.844419	-0.250121	0.470336	-1.000000	-1.000000	-1.000000	-1.000000	-1.000000	-1.000000	-1.000000	81.655172	0.000000	-1.000000	-1.000000	757502.000000	1774905449.590766
19070.730000	-17707.815000	12436.695000	26617.860000	10098.135000	-43550.730000	-36186.705000	-20329.740000	8.437240	5.394908	6.382473	1.760592	-0.369865	3.089117	4.389511	1.523587	-3.677660	4.654300	-1.495480	0.844419	-0.250121	0.470336	-1.000000	-1.000000	-1.000000	-1.000000	-1.000000	-1.000000	-1.000000	81.655172	0.000000	-1.000000	-1.000000	757503.000000	1774905449.594402
19039.320000	-17705.160000	12447.720000	26626.410000	10104.165000	-43543.620000	-36191.655000	-20354.760000	11.206023	1.120886	-7.122726	-10.863167	-9.825815	-2.253938	3.343557	6.534135	-3.677660	4.654300	-1.495480	0.844419	-0.250121	0.470336	-1.000000	-1.000000	-1.000000	-1.000000	-1.000000	-1.000000	-1.000000	81.655172	0.000000	-1.000000	-1.000000	757504.000000	1774905449.594415
19033.830000	-17698.680000	12453.660000	26628.840000	10108.305000	-43537.365000	-36197.820000	-20345.265000	8.898407	-1.760347	-13.346485	-14.280129	-10.300624	-4.094112	1.318020	9.390949	-3.677660	4.654300	-1.495480	0.844419	-0.250121	0.470336	-1.000000	-1.000000	-1.000000	-1.000000	-1.000000	-1.000000	-1.000000	81.655172	0.000000	-1.000000	-1.000000	757505.000000	1774905449.595716
19070.955000	-17667.090000	12468.105000	26642.610000	10123.335000	-43528.995000	-36181.755000	-20292.750000	2.255420	-0.965375	-9.558512	-8.339947	-3.856140	-1.725036	-0.408449	9.074585	-3.677660	4.654300	-1.495480	0.844419	-0.250121	0.470336	-1.000000	-1.000000	-1.000000	-1.000000	-1.000000	-1.000000	-1.000000	81.655172	0.000000	-1.000000	-1.000000	757506.000000	1774905449.595727
19110.915000	-17662.950000	12459.555000	26633.610000	10116.630000	-43529.985000	-36180.765000	-20293.380000	-4.118067	1.526644	-2.575570	-0.381572	1.428430	1.036401	-1.362524	7.081362	-3.677660	4.654300	-1.495480	0.844419	-0.250121	0.470336	-1.000000	-1.000000	-1.000000	-1.000000	-1.000000	-1.000000	-1.000000	81.655172	0.000000	-1.000000	-1.000000	757507.000000	1774905449.614240
19106.820000	-17663.400000	12452.310000	26629.020000	10115.145000	-43529.445000	-36178.515000	-20309.850000	-5.737916	2.236348	0.536603	2.658385	0.237430	0.531825	-1.620785	3.963173	-3.677660	4.654300	-1.495480	0.844419	-0.250121	0.470336	-1.000000	-1.000000	-1.000000	-1.000000	-1.000000	-1.000000	-1.000000	81.655172	0.000000	-1.000000	-1.000000	757508.000000	1774905449.614251
19132.065000	-17619.210000	12499.650000	26671.995000	10160.370000	-43484.130000	-36135.720000	-20254.590000	-3.391592	0.278146	-0.239001	0.330551	-5.034949	-2.481064	-1.064468	-0.885169	-3.677660	4.654300	-1.495480	0.844419	-0.250121	0.470336	-1.000000	-1.000000	-1.000000	-1.000000	-1.000000	-1.000000	-1.000000	81.655172	0.000000	-1.000000	-1.000000	757509.000000	1774905449.614263
19145.610000	-17613.225000	12524.130000	26707.725000	10196.055000	-43438.320000	-36116.100000	-20226.780000	-1.493623	-1.838459	0.424391	-1.640109	-6.733600	-3.189512	0.972920	-5.687164	-3.677660	4.654300	-1.495480	0.844419	-0.250121	0.470336	-1.000000	-1.000000	-1.000000	-1.000000	-1.000000	-1.000000	-1.000000	81.655172	0.000000	-1.000000	-1.000000	757510.000000	1774905449.614268
19096.605000	-17650.305000	12512.160000	26682.120000	10154.610000	-43466.130000	-36153.765000	-20278.395000	-3.462074	-2.827424	4.860409	0.875425	-1.265789	0.781095	3.099819	-8.827470	-2.563680	4.471180	-1.556520	0.843382	-0.248779	0.469664	-1.000000	-1.000000	-1.000000	-1.000000	-1.000000	-1.000000	-1.000000	81.655172	0.000000	-1.000000	-1.000000	757511.000000	1774905449.614274
19010.430000	-17735.805000	12441.645000	26613.135000	10066.545000	-43538.625000	-36223.200000	-20364.840000	-10.194607	-5.448295	8.089762	4.008451	5.043590	4.099302	0.840618	-12.651888	-2.563680	4.471180	-1.556520	0.843382	-0.248779	0.469664	-1.000000	-1.000000	-1.000000	-1.000000	-1.000000	-1.000000	-1.000000	81.655172	0.000000	-1.000000	-1.000000	757512.000000	1774905449.614279
18972.810000	-17778.825000	12383.685000	26569.485000	10005.795000	-43641.090000	-36269.505000	-20430.495000	-18.885658	-12.200947	3.393958	0.850779	3.004218	-1.260090	-8.129859	-19.278299	-2.563680	4.471180	-1.556520	0.843382	-0.248779	0.469664	-1.000000	-1.000000	-1.000000	-1.000000	-1.000000	-1.000000	-1.000000	81.655172	0.000000	-1.000000	-1.000000	757513.000000	1774905449.618263
19013.085000	-17757.270000	12393.855000	26576.910000	10030.770000	-43634.655000	-36255.690000	-20424.240000	-22.558539	-19.619746	-8.973230	-8.604846	-7.627229	-15.441234	-18.765795	-25.257458	-2.563680	4.471180	-1.556520	0.843382	-0.248779	0.469664	-1.000000	-1.000000	-1.000000	-1.000000	-1.000000	-1.000000	-1.000000	81.655172	0.000000	-1.000000	-1.000000	757514.000000	1774905449.618275
19012.815000	-17763.435000	12379.005000	26536.455000	10022.130000	-43629.435000	-36239.355000	-20409.120000	-15.310872	-20.211013	-20.534363	-17.051350	-17.139296	-27.537155	-21.652391	-23.504772	-2.563680	4.471180	-1.556520	0.843382	-0.248779	0.469664	-1.000000	-1.000000	-1.000000	-1.000000	-1.000000	-1.000000	-1.000000	81.655172	0.000000	-1.000000	-1.000000	757515.000000	1774905449.618287
19012.140000	-17770.455000	12373.965000	26514.810000	10024.875000	-43617.420000	-36233.595000	-20392.155000	0.984728	-10.496557	-22.306546	-18.110799	-16.344717	-25.305110	-11.795327	-9.607985	-2.563680	4.471180	-1.556520	0.843382	-0.248779	0.469664	-1.000000	-1.000000	-1.000000	-1.000000	-1.000000	-1.000000	-1.000000	81.655172	0.000000	-1.000000	-1.000000	757516.000000	1774905449.618292
19038.060000	-17713.530000	12441.465000	26589.960000	10099.485000	-43544.700000	-36211.995000	-20374.200000	18.352626	6.305694	-11.198090	-9.828274	-3.707574	-6.212356	6.617320	13.308789	-2.563680	4.471180	-1.556520	0.843382	-0.248779	0.469664	-1.000000	-1.000000	-1.000000	-1.000000	-1.000000	-1.000000	-1.000000	81.655172	0.000000	-1.000000	-1.000000	757517.000000	1774905449.619677
19053.495000	-17685.990000	12468.645000	26638.020000	10123.380000	-43521.615000	-36203.265000	-20353.680000	29.264584	23.726823	8.910120	6.532832	15.393735	21.055937	23.408858	34.521680	-2.563680	4.471180	-1.556520	0.843382	-0.248779	0.469664	-1.000000	-1.000000	-1.000000	-1.000000	-1.000000	-1.000000	-1.000000	81.655172	0.000000	-1.000000	-1.000000	757518.000000	1774905449.619684
19051.470000	-17693.865000	12464.010000	26647.110000	10116.000000	-43534.755000	-36197.955000	-20359.665000	29.879866	34.570222	27.978063	24.919677	30.944273	41.580187	29.764566	42.635102	-2.563680	4.471180	-1.556520	0.843382	-0.248779	0.469664	-1.000000	-1.000000	-1.000000	-1.000000	-1.000000	-1.000000	-1.000000	81.655172	0.000000	-1.000000	-1.000000	757519.000000	1774905449.627894
19002.555000	-17755.380000	12412.845000	26599.275000	10071.945000	-43572.600000	-36216.720000	-20395.935000	21.117490	33.406142	34.999349	35.491523	33.934710	43.588422	24.174532	34.462209	-2.563680	4.471180	-1.556520	0.843382	-0.248779	0.469664	-1.000000	-1.000000	-1.000000	-1.000000	-1.000000	-1.000000	-1.000000	81.655172	0.000000	-1.000000	-1.000000	757520.000000	1774905449.627908
18962.685000	-17801.190000	12372.525000	26557.605000	10038.105000	-43596.540000	-36225.090000	-20418.660000	7.837416	19.992325	26.086133	31.458992	23.194467	27.402280	12.153400	16.497807	-3.799740	3.738700	-0.900340	0.843626	-0.245727	0.468444	-1.000000	-1.000000	-1.000000	-1.000000	-1.000000	-1.000000	-1.000000	81.655172	0.000000	-1.000000	-1.000000	757521.000000	1774905449.628031
18965.025000	-17775.900000	12389.985000	26571.555000	10050.480000	-43581.870000	-36222.840000	-20414.295000	-4.693658	0.372101	7.251909	14.511710	5.154976	4.381770	0.578939	-1.433302	-3.799740	3.738700	-0.900340	0.843626	-0.245727	0.468444	-1.000000	-1.000000	-1.000000	-1.000000	-1.000000	-1.000000	-1.000000	81.655172	0.000000	-1.000000	-1.000000	757522.000000	1774905449.628043
19009.575000	-17748.450000	12397.140000	26575.875000	10055.880000	-43577.415000	-36215.055000	-20381.490000	-13.145238	-16.232165	-10.853514	-6.355780	-11.992802	-13.517685	-7.387160	-13.089930	-3.799740	3.738700	-0.900340	0.843626	-0.245727	0.468444	-1.000000	-1.000000	-1.000000	-1.000000	-1.000000	-1.000000	-1.000000	81.655172	0.000000	-1.000000	-1.000000	757523.000000	1774905449.633460
19040.580000	-17731.575000	12415.860000	26591.805000	10064.655000	-43590.285000	-36203.895000	-20354.400000	-15.388173	-22.890063	-20.199629	-20.743171	-22.522611	-22.054636	-12.125330	-17.274170	-3.799740	3.738700	-0.900340	0.843626	-0.245727	0.468444	-1.000000	-1.000000	-1.000000	-1.000000	-1.000000	-1.000000	-1.000000	81.655172	0.000000	-1.000000	-1.000000	757524.000000	1774905449.633471
19040.130000	-17722.215000	12427.470000	26604.810000	10077.570000	-43570.305000	-36197.280000	-20353.455000	-11.201267	-18.894127	-18.902982	-23.232295	-24.339385	-23.418415	-14.267088	-15.756017	-3.799740	3.738700	-0.900340	0.843626	-0.245727	0.468444	-1.000000	-1.000000	-1.000000	-1.000000	-1.000000	-1.000000	-1.000000	81.655172	0.000000	-1.000000	-1.000000	757525.000000	1774905449.636180
19042.020000	-17716.005000	12406.770000	26599.725000	10082.385000	-43558.245000	-36199.980000	-20358.855000	-4.570456	-10.030365	-11.968383	-17.306228	-19.710777	-21.097040	-14.078022	-12.339823	-3.799740	3.738700	-0.900340	0.843626	-0.245727	0.468444	-1.000000	-1.000000	-1.000000	-1.000000	-1.000000	-1.000000	-1.000000	81.655172	0.000000	-1.000000	-1.000000	757526.000000	1774905449.636187
19030.185000	-17721.810000	12378.420000	26582.670000	10072.575000	-43571.610000	-36212.850000	-20361.105000	-1.098859	-3.600724	-7.319079	-11.536009	-13.168786	-17.187988	-12.445402	-10.757582	-3.799740	3.738700	-0.900340	0.843626	-0.245727	0.468444	-1.000000	-1.000000	-1.000000	-1.000000	-1.000000	-1.000000	-1.000000	81.655172	0.000000	-1.000000	-1.000000	757527.000000	1774905449.642896
19030.815000	-17717.985000	12389.085000	26584.830000	10078.650000	-43572.645000	-36214.200000	-20364.840000	-1.985691	-1.388626	-7.149414	-9.602702	-6.418180	-11.388525	-9.662604	-10.606035	-3.799740	3.738700	-0.900340	0.843626	-0.245727	0.468444	-1.000000	-1.000000	-1.000000	-1.000000	-1.000000	-1.000000	-1.000000	81.655172	0.000000	-1.000000	-1.000000	757528.000000	1774905449.642907
19019.880000	-17721.270000	12423.060000	26606.790000	10083.285000	-43558.425000	-36205.830000	-20368.890000	-2.693905	1.067035	-5.032239	-6.517298	2.677592	-1.607421	-4.257446	-7.493621	-3.799740	3.738700	-0.900340	0.843626	-0.245727	0.468444	-1.000000	-1.000000	-1.000000	-1.000000	-1.000000	-1.000000	-1.000000	81.655172	0.000000	-1.000000	-1.000000	757529.000000	1774905449.643775
19027.575000	-17717.670000	12429.855000	26612.505000	10062.765000	-43557.255000	-36198.675000	-20356.515000	1.197433	7.263886	5.196564	3.385287	14.367938	12.209582	4.640412	1.296090	-3.799740	3.738700	-0.900340	0.843626	-0.245727	0.468444	-1.000000	-1.000000	-1.000000	-1.000000	-1.000000	-1.000000	-1.000000	81.655172	0.000000	-1.000000	-1.000000	757530.000000	1774905449.643785
19029.060000	-17716.140000	12426.660000	26596.395000	10052.910000	-43556.490000	-36195.345000	-20365.830000	7.670983	13.600292	19.227338	16.707569	22.590681	24.398462	13.975923	12.078111	-3.647140	3.647140	-1.754900	0.840574	-0.245361	0.465880	-1.000000	-1.000000	-1.000000	-1.000000	-1.000000	-1.000000	-1.000000	81.655172	0.000000	-1.000000	-1.000000	757531.000000	1774905449.654187
19057.680000	-17691.480000	12465.855000	26613.585000	10083.780000	-43530.705000	-36181.935000	-20347.020000	10.209349	13.424061	26.200366	23.738186	20.839284	27.399993	18.247018	17.096936	-3.647140	3.647140	-1.754900	0.840574	-0.245361	0.465880	-1.000000	-1.000000	-1.000000	-1.000000	-1.000000	-1.000000	-1.000000	81.655172	0.000000	-1.000000	-1.000000	757532.000000	1774905449.654196
19180.935000	-17582.445000	12596.670000	26732.835000	10170.810000	-43420.815000	-36090.945000	-20225.340000	7.225666	6.863538	22.428813	20.930616	11.226686	20.703099	15.736678	13.923194	-3.647140	3.647140	-1.754900	0.840574	-0.245361	0.465880	-1.000000	-1.000000	-1.000000	-1.000000	-1.000000	-1.000000	-1.000000	81.655172	0.000000	-1.000000	-1.000000	757533.000000	1774905449.654205
19217.565000	-17561.070000	12621.330000	26771.445000	10218.060000	-43396.065000	-36076.320000	-20205.495000	4.691326	0.913416	13.747150	13.808835	2.149788	10.658468	10.305314	8.698805	-3.647140	3.647140	-1.754900	0.840574	-0.245361	0.465880	-1.000000	-1.000000	-1.000000	-1.000000	-1.000000	-1.000000	-1.000000	81.655172	0.000000	-1.000000	-1.000000	757534.000000	1774905449.654210
19151.280000	-17634.465000	12525.345000	26688.330000	10167.345000	-43474.410000	-36157.905000	-20293.245000	4.953747	-2.090442	3.545513	5.703544	-2.664729	0.021128	3.901400	4.707612	-3.647140	3.647140	-1.754900	0.840574	-0.245361	0.465880	-1.000000	-1.000000	-1.000000	-1.000000	-1.000000	-1.000000	-1.000000	81.655172	0.000000	-1.000000	-1.000000	757535.000000	1774905449.661172
19006.065000	-17756.865000	12398.445000	26562.600000	10051.785000	-43598.385000	-36254.700000	-20417.175000	0.212801	-8.504969	-12.287611	-7.837351	-8.242711	-14.939970	-7.183547	-4.159162	-3.647140	3.647140	-1.754900	0.840574	-0.245361	0.465880	-1.000000	-1.000000	-1.000000	-1.000000	-1.000000	-1.000000	-1.000000	81.655172	0.000000	-1.000000	-1.000000	757536.000000	1774905449.661188
18923.535000	-17813.430000	12344.130000	26512.785000	10006.785000	-43648.605000	-36287.010000	-20460.060000	-16.268524	-22.292146	-35.015073	-28.806501	-19.701215	-34.628743	-23.763191	-21.520006	-3.647140	3.647140	-1.754900	0.840574	-0.245361	0.465880	-1.000000	-1.000000	-1.000000	-1.000000	-1.000000	-1.000000	-1.000000	81.655172	0.000000	-1.000000	-1.000000	757537.000000	1774905449.661209
18989.280000	-17760.465000	12393.495000	26564.850000	10057.590000	-43593.390000	-36245.025000	-20383.335000	-36.024976	-34.813274	-53.461754	-46.554797	-31.254133	-48.358379	-36.507006	-36.864251	-3.647140	3.647140	-1.754900	0.840574	-0.245361	0.465880	-1.000000	-1.000000	-1.000000	-1.000000	-1.000000	-1.000000	-1.000000	81.655172	0.000000	-1.000000	-1.000000	757538.000000	1774905449.661214
19012.455000	-17746.830000	12405.960000	26573.220000	10063.170000	-43577.865000	-36227.520000	-20360.070000	-40.070404	-31.551408	-50.961307	-44.821317	-29.754655	-41.646598	-32.919297	-33.762785	-3.647140	3.647140	-1.754900	0.840574	-0.245361	0.465880	-1.000000	-1.000000	-1.000000	-1.000000	-1.000000	-1.000000	-1.000000	81.655172	0.000000	-1.000000	-1.000000	757539.000000	1774905449.676576
19012.230000	-17747.055000	12397.320000	26574.525000	10065.645000	-43570.845000	-36215.190000	-20375.505000	-20.174217	-9.270808	-23.214980	-19.262871	-10.972106	-12.636177	-10.951416	-9.379109	-3.647140	3.647140	-1.754900	0.840574	-0.245361	0.465880	-1.000000	-1.000000	-1.000000	-1.000000	-1.000000	-1.000000	-1.000000	81.655172	0.000000	-1.000000	-1.000000	757540.000000	1774905449.676589
19040.625000	-17731.260000	12402.360000	26592.435000	10078.605000	-43568.055000	-36198.045000	-20342.745000	11.517127	19.124023	14.845445	16.491434	14.131270	23.103238	17.503388	20.728307	-3.128300	3.708180	-1.709120	0.840696	-0.242919	0.464415	-1.000000	-1.000000	-1.000000	-1.000000	-1.000000	-1.000000	-1.000000	81.655172	0.000000	-1.000000	-1.000000	757541.000000	1774905449.676603
19043.280000	-17727.300000	12433.860000	26609.445000	10085.805000	-43568.730000	-36189.360000	-20338.695000	34.700400	36.267960	41.504810	41.652193	29.614623	44.637412	35.932554	37.278462	-3.128300	3.708180	-1.709120	0.840696	-0.242919	0.464415	-1.000000	-1.000000	-1.000000	-1.000000	-1.000000	-1.000000	-1.000000	81.655172	0.000000	-1.000000	-1.000000	757542.000000	1774905449.676609
19030.995000	-17730.675000	12439.755000	26606.025000	10083.150000	-43561.935000	-36191.655000	-20350.620000	37.702150	34.270610	46.363240	44.260550	27.638334	42.096217	35.835481	32.878217	-3.128300	3.708180	-1.709120	0.840696	-0.242919	0.464415	-1.000000	-1.000000	-1.000000	-1.000000	-1.000000	-1.000000	-1.000000	81.655172	0.000000	-1.000000	-1.000000	757543.000000	1774905449.676615
19007.820000	-17748.765000	12411.045000	26574.480000	10052.730000	-43589.790000	-36213.795000	-20369.160000	24.936559	19.930792	36.022131	29.286601	13.873910	23.752182	22.379440	15.988839	-3.128300	3.708180	-1.709120	0.840696	-0.242919	0.464415	-1.000000	-1.000000	-1.000000	-1.000000	-1.000000	-1.000000	-1.000000	81.655172	0.000000	-1.000000	-1.000000	757544.000000	1774905449.676620
18999.495000	-17750.520000	12407.085000	26569.710000	10048.230000	-43593.480000	-36221.895000	-20379.375000	10.796259	7.043235	23.311191	11.450684	1.357735	6.351919	7.485590	1.698606	-3.128300	3.708180	-1.709120	0.840696	-0.242919	0.464415	-1.000000	-1.000000	-1.000000	-1.000000	-1.000000	-1.000000	-1.000000	81.655172	0.000000	-1.000000	-1.000000	757545.000000	1774905449.676626
19034.145000	-17719.740000	12433.230000	26599.230000	10076.985000	-43565.040000	-36208.215000	-20367.090000	5.619233	3.420449	14.594911	1.186066	-1.485050	-0.464521	-1.542655	-2.370293	-3.128300	3.708180	-1.709120	0.840696	-0.242919	0.464415	-1.000000	-1.000000	-1.000000	-1.000000	-1.000000	-1.000000	-1.000000	81.655172	0.000000	-1.000000	-1.000000	757546.000000	1774905449.676631
19048.905000	-17703.315000	12444.930000	26619.885000	10093.275000	-43550.595000	-36201.195000	-20366.325000	7.213484	5.561774	7.426375	-1.697496	3.191746	0.481792	-5.654728	-0.951545	-3.128300	3.708180	-1.709120	0.840696	-0.242919	0.464415	-1.000000	-1.000000	-1.000000	-1.000000	-1.000000	-1.000000	-1.000000	81.655172	0.000000	-1.000000	-1.000000	757547.000000	1774905449.688443
19048.680000	-17717.940000	12418.605000	26617.905000	10096.110000	-43546.095000	-36198.090000	-20369.880000	6.042334	4.562922	-3.120002	-3.189573	7.274117	0.715907	-9.030972	-2.472034	-3.128300	3.708180	-1.709120	0.840696	-0.242919	0.464415	-1.000000	-1.000000	-1.000000	-1.000000	-1.000000	-1.000000	-1.000000	81.655172	0.000000	-1.000000	-1.000000	757548.000000	1774905449.688455
19064.340000	-17715.195000	12410.100000	26609.805000	10105.965000	-43531.470000	-36187.605000	-20358.180000	-3.154082	-4.292594	-17.626131	-7.586127	4.983121	-4.370050	-13.217687	-8.864198	-3.128300	3.708180	-1.709120	0.840696	-0.242919	0.464415	-1.000000	-1.000000	-1.000000	-1.000000	-1.000000	-1.000000	-1.000000	81.655172	0.000000	-1.000000	-1.000000	757549.000000	1774905449.688467
19090.170000	-17688.150000	12433.095000	26623.395000	10125.135000	-43507.530000	-36168.030000	-20327.265000	-17.090368	-17.734151	-31.267998	-15.159500	-3.639754	-12.776404	-16.493462	-15.832601	-3.128300	3.708180	-1.709120	0.840696	-0.242919	0.464415	-1.000000	-1.000000	-1.000000	-1.000000	-1.000000	-1.000000	-1.000000	81.655172	0.000000	-1.000000	-1.000000	757550.000000	1774905449.688472
19077.750000	-17680.635000	12441.735000	26615.205000	10110.735000	-43519.095000	-36174.915000	-20325.330000	-28.215438	-27.731210	-37.355599	-22.841678	-14.383162	-19.686895	-16.494645	-18.360368	-4.196500	4.837420	-0.793520	0.840147	-0.242431	0.463378	-1.000000	-1.000000	-1.000000	-1.000000	-1.000000	-1.000000	-1.000000	81.655172	0.000000	-1.000000	-1.000000	757551.000000	1774905449.688478
19045.485000	-17703.765000	12426.930000	26604.360000	10090.395000	-43536.600000	-36196.515000	-20345.805000	-30.228722	-27.538557	-31.215238	-25.176931	-21.662603	-21.246961	-11.966789	-13.733914	-4.196500	4.837420	-0.793520	0.840147	-0.242431	0.463378	-1.000000	-1.000000	-1.000000	-1.000000	-1.000000	-1.000000	-1.000000	81.655172	0.000000	-1.000000	-1.000000	757552.000000	1774905449.688483
19047.735000	-17721.135000	12438.765000	26618.805000	10091.970000	-43545.015000	-36225.315000	-20353.635000	-20.891049	-16.249767	-12.817747	-17.187844	-20.510151	-15.491392	-3.517772	-2.818087	-4.196500	4.837420	-0.793520	0.840147	-0.242431	0.463378	-1.000000	-1.000000	-1.000000	-1.000000	-1.000000	-1.000000	-1.000000	81.655172	0.000000	-1.000000	-1.000000	757553.000000	1774905449.691724
19074.285000	-17687.655000	12483.585000	26654.220000	10114.605000	-43539.255000	-36209.790000	-20330.865000	-2.628923	1.250261	12.068861	0.822371	-9.485688	-3.523041	6.173415	10.229165	-4.196500	4.837420	-0.793520	0.840147	-0.242431	0.463378	-1.000000	-1.000000	-1.000000	-1.000000	-1.000000	-1.000000	-1.000000	81.655172	0.000000	-1.000000	-1.000000	757554.000000	1774905449.691734
19080.495000	-17655.480000	12516.930000	26680.680000	10147.455000	-43496.055000	-36172.935000	-20313.720000	16.755472	17.410113	33.116060	20.742992	6.556220	9.521800	13.754605	19.585239	-4.196500	4.837420	-0.793520	0.840147	-0.242431	0.463378	-1.000000	-1.000000	-1.000000	-1.000000	-1.000000	-1.000000	-1.000000	81.655172	0.000000	-1.000000	-1.000000	757555.000000	1774905449.706496
19038.420000	-17698.005000	12474.855000	26651.025000	10104.210000	-43524.405000	-36181.395000	-20353.050000	26.454246	24.821637	39.821032	30.921225	18.423627	17.218917	16.739876	19.912094	-4.196500	4.837420	-0.793520	0.840147	-0.242431	0.463378	-1.000000	-1.000000	-1.000000	-1.000000	-1.000000	-1.000000	-1.000000	81.655172	0.000000	-1.000000	-1.000000	757556.000000	1774905449.706519
19031.760000	-17732.790000	12440.835000	26626.770000	10071.180000	-43549.785000	-36182.835000	-20362.455000	20.585906	19.274477	27.770990	24.677739	18.416707	15.398260	13.705313	9.725933	-4.196500	4.837420	-0.793520	0.840147	-0.242431	0.463378	-1.000000	-1.000000	-1.000000	-1.000000	-1.000000	-1.000000	-1.000000	81.655172	0.000000	-1.000000	-1.000000	757557.000000	1774905449.706532
19033.245000	-17748.270000	12422.205000	26597.655000	10056.600000	-43569.720000	-36195.345000	-20366.595000	3.447433	3.037618	2.259266	5.037063	5.937118	4.341422	4.911440	-6.518330	-4.196500	4.837420	-0.793520	0.840147	-0.242431	0.463378	-1.000000	-1.000000	-1.000000	-1.000000	-1.000000	-1.000000	-1.000000	81.655172	0.000000	-1.000000	-1.000000	757558.000000	1774905449.706537
19005.345000	-17766.630000	12394.665000	26550.540000	10036.755000	-43593.795000	-36216.495000	-20384.595000	-14.514519	-15.635162	-24.851507	-18.274773	-11.454523	-10.511520	-6.932312	-21.059822	-4.196500	4.837420	-0.793520	0.840147	-0.242431	0.463378	-1.000000	-1.000000	-1.000000	-1.000000	-1.000000	-1.000000	-1.000000	81.655172	0.000000	-1.000000	-1.000000	757559.000000	1774905449.706544
19018.305000	-17745.840000	12399.345000	26531.010000	10039.320000	-43595.685000	-36221.715000	-20361.555000	-23.364949	-26.422657	-41.122096	-34.314936	-22.683981	-20.610831	-16.648060	-26.450116	-4.196500	4.837420	-0.793520	0.840147	-0.242431	0.463378	-1.000000	-1.000000	-1.000000	-1.000000	-1.000000	-1.000000	-1.000000	81.655172	0.000000	-1.000000	-1.000000	757560.000000	1774905449.706548
19039.320000	-17734.950000	12405.105000	26546.310000	10053.765000	-43585.515000	-36221.265000	-20344.995000	-17.233824	-21.613037	-38.089796	-34.441134	-19.591324	-18.528712	-18.080060	-17.919891	-2.762060	4.471180	-1.373400	0.838926	-0.243713	0.464171	-1.000000	-1.000000	-1.000000	-1.000000	-1.000000	-1.000000	-1.000000	81.655172	0.000000	-1.000000	-1.000000	757561.000000	1774905449.709333
19047.465000	-17744.355000	12399.120000	26570.070000	10062.585000	-43573.590000	-36217.665000	-20352.510000	1.697417	-2.369423	-16.825998	-16.849061	-2.645023	-3.404383	-8.804451	1.962837	-2.762060	4.471180	-1.373400	0.838926	-0.243713	0.464171	-1.000000	-1.000000	-1.000000	-1.000000	-1.000000	-1.000000	-1.000000	81.655172	0.000000	-1.000000	-1.000000	757562.000000	1774905449.709344
19049.310000	-17753.850000	12404.970000	26592.705000	10070.460000	-43567.515000	-36210.195000	-20358.180000	21.780715	18.966982	10.187097	9.902794	17.783175	16.336237	5.893332	21.555650	-2.762060	4.471180	-1.373400	0.838926	-0.243713	0.464171	-1.000000	-1.000000	-1.000000	-1.000000	-1.000000	-1.000000	-1.000000	81.655172	0.000000	-1.000000	-1.000000	757563.000000	1774905449.711724
19025.460000	-17753.040000	12425.445000	26617.545000	10088.640000	-43553.340000	-36203.895000	-20369.835000	29.799163	28.274117	28.415302	31.866441	29.099836	28.372820	16.405167	28.577276	-2.762060	4.471180	-1.373400	0.838926	-0.243713	0.464171	-1.000000	-1.000000	-1.000000	-1.000000	-1.000000	-1.000000	-1.000000	81.655172	0.000000	-1.000000	-1.000000	757564.000000	1774905449.711735
19045.170000	-17712.810000	12444.525000	26633.295000	10096.650000	-43548.705000	-36205.245000	-20368.170000	21.923509	22.859236	32.919588	39.965881	26.883294	26.667486	17.030570	20.652682	-2.762060	4.471180	-1.373400	0.838926	-0.243713	0.464171	-1.000000	-1.000000	-1.000000	-1.000000	-1.000000	-1.000000	-1.000000	81.655172	0.000000	-1.000000	-1.000000	757565.000000	1774905449.715647
19095.750000	-17670.645000	12468.510000	26649.225000	10122.255000	-43525.485000	-36187.155000	-20342.295000	5.814156	11.924639	28.141301	34.014625	15.983333	15.023131	9.606132	5.547675	-2.762060	4.471180	-1.373400	0.838926	-0.243713	0.464171	-1.000000	-1.000000	-1.000000	-1.000000	-1.000000	-1.000000	-1.000000	81.655172	0.000000	-1.000000	-1.000000	757566.000000	1774905449.715656
19090.260000	-17654.040000	12482.145000	26644.095000	10129.725000	-43512.030000	-36163.665000	-20300.085000	-7.823892	4.417257	19.407869	18.980877	3.417488	1.473574	0.469585	-6.668846	-2.762060	4.471180	-1.373400	0.838926	-0.243713	0.464171	-1.000000	-1.000000	-1.000000	-1.000000	-1.000000	-1.000000	-1.000000	81.655172	0.000000	-1.000000	-1.000000	757567.000000	1774905449.719666
19054.980000	-17706.150000	12449.700000	26616.285000	10102.725000	-43535.520000	-36176.895000	-20314.125000	-14.295839	0.346188	8.402706	0.769071	-7.010112	-8.386121	-4.822285	-10.583697	-2.762060	4.471180	-1.373400	0.838926	-0.243713	0.464171	-1.000000	-1.000000	-1.000000	-1.000000	-1.000000	-1.000000	-1.000000	81.655172	0.000000	-1.000000	-1.000000	757568.000000	1774905449.719676
19035.270000	-17736.120000	12430.485000	26600.895000	10076.085000	-43561.305000	-36197.730000	-20356.290000	-15.643767	-6.032309	-5.028147	-15.664196	-15.011932	-13.867495	-5.465641	-8.630820	-2.762060	4.471180	-1.373400	0.838926	-0.243713	0.464171	-1.000000	-1.000000	-1.000000	-1.000000	-1.000000	-1.000000	-1.000000	81.655172	0.000000	-1.000000	-1.000000	757569.000000	1774905449.723634
19018.485000	-17746.965000	12414.690000	26591.670000	10058.670000	-43573.230000	-36213.840000	-20372.895000	-15.261514	-16.623294	-19.005934	-26.932493	-20.987444	-16.778032	-4.522996	-7.330816	-2.762060	4.471180	-1.373400	0.838926	-0.243713	0.464171	-1.000000	-1.000000	-1.000000	-1.000000	-1.000000	-1.000000	-1.000000	81.655172	0.000000	-1.000000	-1.000000	757570.000000	1774905449.723645
19017.720000	-17738.190000	12423.420000	26599.275000	10066.545000	-43564.365000	-36213.480000	-20371.995000	-14.038384	-25.569056	-28.623281	-31.212306	-23.570015	-17.593596	-4.700697	-9.089023	-3.494540	5.020540	-1.556520	0.842100	-0.242736	0.464476	-1.000000	-1.000000	-1.000000	-1.000000	-1.000000	-1.000000	-1.000000	81.655172	0.000000	-1.000000	-1.000000	757571.000000	1774905449.727983
19029.870000	-17718.795000	12440.295000	26615.205000	10090.305000	-43547.670000	-36207.180000	-20386.395000	-10.422396	-25.350564	-29.204359	-27.899737	-20.246708	-15.014950	-6.145518	-10.743058	-3.494540	5.020540	-1.556520	0.842100	-0.242736	0.464476	-1.000000	-1.000000	-1.000000	-1.000000	-1.000000	-1.000000	-1.000000	81.655172	0.000000	-1.000000	-1.000000	757572.000000	1774905449.727993
19036.080000	-17708.715000	12436.560000	26619.300000	10098.045000	-43544.790000	-36199.530000	-20385.045000	-2.650223	-14.056769	-19.986234	-17.673582	-10.085094	-8.287654	-6.954268	-8.635804	-3.494540	5.020540	-1.556520	0.842100	-0.242736	0.464476	-1.000000	-1.000000	-1.000000	-1.000000	-1.000000	-1.000000	-1.000000	81.655172	0.000000	-1.000000	-1.000000	757573.000000	1774905449.732032
19033.335000	-17705.295000	12412.080000	26621.145000	10115.280000	-43524.765000	-36183.015000	-20359.530000	7.530262	2.724521	-5.397521	-3.305407	4.190404	1.240071	-4.966448	-1.831891	-3.494540	5.020540	-1.556520	0.842100	-0.242736	0.464476	-1.000000	-1.000000	-1.000000	-1.000000	-1.000000	-1.000000	-1.000000	81.655172	0.000000	-1.000000	-1.000000	757574.000000	1774905449.732054
19032.435000	-17703.315000	12416.310000	26624.295000	10117.935000	-43512.120000	-36177.615000	-20328.615000	14.264330	15.692997	7.403837	10.565499	16.754064	10.388462	-0.151339	7.357080	-3.494540	5.020540	-1.556520	0.842100	-0.242736	0.464476	-1.000000	-1.000000	-1.000000	-1.000000	-1.000000	-1.000000	-1.000000	81.655172	0.000000	-1.000000	-1.000000	757575.000000	1774905449.737971
19034.730000	-17715.825000	12437.505000	26615.160000	10098.855000	-43525.485000	-36196.965000	-20336.445000	13.948017	19.034763	14.326354	19.789015	21.962696	15.576692	4.707100	14.347949	-3.494540	5.020540	-1.556520	0.842100	-0.242736	0.464476	-1.000000	-1.000000	-1.000000	-1.000000	-1.000000	-1.000000	-1.000000	81.655172	0.000000	-1.000000	-1.000000	757576.000000	1774905449.737984
19042.875000	-17730.990000	12458.430000	26614.620000	10090.980000	-43531.605000	-36220.095000	-20357.370000	9.544549	14.268824	17.049888	22.759487	18.278534	15.033272	6.540589	15.313039	-3.494540	5.020540	-1.556520	0.842100	-0.242736	0.464476	-1.000000	-1.000000	-1.000000	-1.000000	-1.000000	-1.000000	-1.000000	81.655172	0.000000	-1.000000	-1.000000	757577.000000	1774905449.739651
19041.795000	-17750.295000	12428.550000	26591.310000	10068.255000	-43577.595000	-36225.360000	-20367.225000	5.912007	6.774361	18.087922	19.693323	8.935317	9.495600	5.030532	10.208727	-3.494540	5.020540	-1.556520	0.842100	-0.242736	0.464476	-1.000000	-1.000000	-1.000000	-1.000000	-1.000000	-1.000000	-1.000000	81.655172	0.000000	-1.000000	-1.000000	757578.000000	1774905449.739664
19045.260000	-17742.240000	12420.765000	26588.115000	10068.480000	-43584.345000	-36215.505000	-20351.205000	4.287209	0.589393	15.982937	11.251589	-1.270262	0.786248	2.584728	2.677265	-3.494540	5.020540	-1.556520	0.842100	-0.242736	0.464476	-1.000000	-1.000000	-1.000000	-1.000000	-1.000000	-1.000000	-1.000000	81.655172	0.000000	-1.000000	-1.000000	757579.000000	1774905449.745079
19042.200000	-17736.570000	12408.840000	26589.195000	10081.530000	-43565.760000	-36208.440000	-20345.310000	2.628091	-2.925364	8.144811	-0.590320	-8.736241	-8.097360	1.432947	-3.055676	-3.494540	5.020540	-1.556520	0.842100	-0.242736	0.464476	-1.000000	-1.000000	-1.000000	-1.000000	-1.000000	-1.000000	-1.000000	81.655172	0.000000	-1.000000	-1.000000	757580.000000	1774905449.745091
19049.220000	-17714.115000	12413.655000	26596.395000	10088.010000	-43555.140000	-36202.995000	-20348.055000	-0.919369	-3.954777	-4.142602	-11.688632	-11.702468	-12.927425	1.522376	-5.093462	-3.753960	6.439720	-0.350980	0.844236	-0.247314	0.465575	-1.000000	-1.000000	-1.000000	-1.000000	-1.000000	-1.000000	-1.000000	81.655172	0.000000	-1.000000	-1.000000	757581.000000	1774905449.747602
19061.685000	-17699.715000	12442.095000	26607.780000	10080.270000	-43544.205000	-36196.380000	-20349.495000	-5.609026	-3.065842	-14.714084	-17.273481	-10.363141	-11.142934	1.451750	-4.531938	-3.753960	6.439720	-0.350980	0.844236	-0.247314	0.465575	-1.000000	-1.000000	-1.000000	-1.000000	-1.000000	-1.000000	-1.000000	81.655172	0.000000	-1.000000	-1.000000	757582.000000	1774905449.747614
19071.360000	-17699.355000	12462.030000	26617.770000	10075.995000	-43547.130000	-36195.120000	-20345.895000	-9.018051	-1.293081	-16.607753	-14.814552	-6.665235	-4.400897	0.173559	-4.224179	-3.753960	6.439720	-0.350980	0.844236	-0.247314	0.465575	-1.000000	-1.000000	-1.000000	-1.000000	-1.000000	-1.000000	-1.000000	81.655172	0.000000	-1.000000	-1.000000	757583.000000	1774905449.754048
19053.000000	-17725.545000	12436.605000	26611.785000	10092.105000	-43546.815000	-36193.905000	-20342.070000	-9.685076	-0.539045	-9.265563	-6.005491	-2.460470	2.747402	-2.171100	-6.031031	-3.753960	6.439720	-0.350980	0.844236	-0.247314	0.465575	-1.000000	-1.000000	-1.000000	-1.000000	-1.000000	-1.000000	-1.000000	81.655172	0.000000	-1.000000	-1.000000	757584.000000	1774905449.754061
19040.355000	-17726.805000	12445.920000	26615.835000	10099.035000	-43540.020000	-36202.455000	-20337.120000	-8.054419	-1.699249	0.330463	4.394963	2.368785	7.137175	-3.925577	-8.201079	-3.753960	6.439720	-0.350980	0.844236	-0.247314	0.465575	-1.000000	-1.000000	-1.000000	-1.000000	-1.000000	-1.000000	-1.000000	81.655172	0.000000	-1.000000	-1.000000	757585.000000	1774905449.760767
19070.010000	-17694.720000	12475.080000	26637.705000	10107.315000	-43513.740000	-36202.320000	-20331.315000	-4.867597	-2.429287	6.001891	12.079894	8.205088	9.304884	-3.168954	-6.669574	-3.753960	6.439720	-0.350980	0.844236	-0.247314	0.465575	-1.000000	-1.000000	-1.000000	-1.000000	-1.000000	-1.000000	-1.000000	81.655172	0.000000	-1.000000	-1.000000	757586.000000	1774905449.760778
19095.660000	-17679.060000	12473.865000	26646.480000	10118.295000	-43513.065000	-36191.340000	-20321.145000	0.305347	0.546272	7.763272	15.217139	13.367782	11.149970	0.180220	0.046359	-3.753960	6.439720	-0.350980	0.844236	-0.247314	0.465575	-1.000000	-1.000000	-1.000000	-1.000000	-1.000000	-1.000000	-1.000000	81.655172	0.000000	-1.000000	-1.000000	757587.000000	1774905449.760788
19086.210000	-17685.450000	12469.545000	26642.070000	10114.020000	-43540.875000	-36180.855000	-20317.770000	6.862785	6.127334	7.532371	13.249400	14.613911	11.474039	4.002686	8.340057	-3.753960	6.439720	-0.350980	0.844236	-0.247314	0.465575	-1.000000	-1.000000	-1.000000	-1.000000	-1.000000	-1.000000	-1.000000	81.655172	0.000000	-1.000000	-1.000000	757588.000000	1774905449.760793
19084.095000	-17679.780000	12478.500000	26652.510000	10136.430000	-43517.880000	-36150.795000	-20298.060000	11.139154	8.824510	5.294776	6.139938	9.571772	6.511684	5.916250	12.974334	-3.753960	6.439720	-0.350980	0.844236	-0.247314	0.465575	-1.000000	-1.000000	-1.000000	-1.000000	-1.000000	-1.000000	-1.000000	81.655172	0.000000	-1.000000	-1.000000	757589.000000	1774905449.763739
19077.615000	-17664.750000	12502.350000	26672.985000	10161.630000	-43483.050000	-36145.350000	-20312.370000	9.573330	5.054431	1.159923	-3.747102	0.032644	-3.204418	5.186447	11.663422	-3.753960	6.439720	-0.350980	0.844236	-0.247314	0.465575	-1.000000	-1.000000	-1.000000	-1.000000	-1.000000	-1.000000	-1.000000	81.655172	0.000000	-1.000000	-1.000000	757590.000000	1774905449.763750
19038.105000	-17696.430000	12471.975000	26649.945000	10130.400000	-43511.355000	-36173.655000	-20362.230000	1.864862	-3.608690	-3.768578	-12.194364	-9.063705	-12.119199	1.796488	4.537169	-1.373400	5.371520	-1.129240	0.842283	-0.252868	0.466857	-1.000000	-1.000000	-1.000000	-1.000000	-1.000000	-1.000000	-1.000000	81.655172	0.000000	-1.000000	-1.000000	757591.000000	1774905449.773225
18977.895000	-17763.210000	12406.095000	26587.035000	10068.930000	-43571.205000	-36222.435000	-20418.885000	-9.603528	-13.479053	-9.559390	-17.277293	-15.440943	-17.150653	-4.802860	-7.681719	-1.373400	5.371520	-1.129240	0.842283	-0.252868	0.466857	-1.000000	-1.000000	-1.000000	-1.000000	-1.000000	-1.000000	-1.000000	81.655172	0.000000	-1.000000	-1.000000	757592.000000	1774905449.773237
19029.240000	-17742.825000	12419.145000	26593.155000	10076.400000	-43563.825000	-36209.475000	-20370.240000	-19.029992	-20.221839	-15.620812	-19.205394	-19.624262	-18.816978	-12.972337	-20.409709	-1.373400	5.371520	-1.129240	0.842283	-0.252868	0.466857	-1.000000	-1.000000	-1.000000	-1.000000	-1.000000	-1.000000	-1.000000	81.655172	0.000000	-1.000000	-1.000000	757593.000000	1774905449.773347
19090.620000	-17684.865000	12485.205000	26660.970000	10143.360000	-43496.055000	-36152.955000	-20307.285000	-17.624544	-17.905557	-16.902180	-15.664317	-18.865109	-15.362167	-16.168340	-23.432248	-1.373400	5.371520	-1.129240	0.842283	-0.252868	0.466857	-1.000000	-1.000000	-1.000000	-1.000000	-1.000000	-1.000000	-1.000000	81.655172	0.000000	-1.000000	-1.000000	757594.000000	1774905449.773357
19077.075000	-17690.670000	12477.060000	26653.140000	10134.990000	-43502.400000	-36155.790000	-20292.075000	-2.825781	-4.299604	-8.437086	-4.013558	-8.890193	-4.069182	-8.623455	-10.179999	-1.373400	5.371520	-1.129240	0.842283	-0.252868	0.466857	-1.000000	-1.000000	-1.000000	-1.000000	-1.000000	-1.000000	-1.000000	81.655172	0.000000	-1.000000	-1.000000	757595.000000	1774905449.775714
19048.545000	-17724.195000	12413.655000	26581.185000	10037.295000	-43568.595000	-36200.115000	-20326.230000	15.175598	12.957078	5.925806	10.639276	6.037900	10.762147	5.405921	11.938566	-1.373400	5.371520	-1.129240	0.842283	-0.252868	0.466857	-1.000000	-1.000000	-1.000000	-1.000000	-1.000000	-1.000000	-1.000000	81.655172	0.000000	-1.000000	-1.000000	757596.000000	1774905449.775723
19029.150000	-17768.340000	12352.140000	26516.790000	9956.970000	-43616.610000	-36238.815000	-20374.695000	22.950329	21.653671	14.984665	16.961603	13.185087	18.505094	13.878354	26.262702	-1.373400	5.371520	-1.129240	0.842283	-0.252868	0.466857	-1.000000	-1.000000	-1.000000	-1.000000	-1.000000	-1.000000	-1.000000	81.655172	0.000000	-1.000000	-1.000000	757597.000000	1774905449.782406
19023.525000	-17773.470000	12349.485000	26525.160000	9990.675000	-43613.145000	-36244.395000	-20395.305000	16.490018	16.087764	11.680237	9.717726	6.186601	13.029975	9.588960	22.107194	-1.373400	5.371520	-1.129240	0.842283	-0.252868	0.466857	-1.000000	-1.000000	-1.000000	-1.000000	-1.000000	-1.000000	-1.000000	81.655172	0.000000	-1.000000	-1.000000	757598.000000	1774905449.782416
19034.100000	-17751.420000	12392.685000	26569.035000	10051.290000	-43577.370000	-36225.045000	-20394.180000	2.468944	1.762278	0.838942	-3.276592	-5.394614	-0.267374	-2.463455	4.058131	-1.373400	5.371520	-1.129240	0.842283	-0.252868	0.466857	-1.000000	-1.000000	-1.000000	-1.000000	-1.000000	-1.000000	-1.000000	81.655172	0.000000	-1.000000	-1.000000	757599.000000	1774905449.784545
19039.950000	-17716.140000	12469.410000	26639.460000	10124.280000	-43524.630000	-36179.055000	-20360.385000	-8.349785	-8.787474	-4.559895	-7.727694	-5.382032	-8.376399	-9.747562	-12.442453	-1.373400	5.371520	-1.129240	0.842283	-0.252868	0.466857	-1.000000	-1.000000	-1.000000	-1.000000	-1.000000	-1.000000	-1.000000	81.655172	0.000000	-1.000000	-1.000000	757600.000000	1774905449.784555
19050.795000	-17691.615000	12490.830000	26667.990000	10157.985000	-43500.555000	-36160.470000	-20352.645000	-9.104626	-6.045734	4.341000	3.934948	11.978024	-2.145513	-3.732673	-14.845785	-1.251320	5.325740	-1.892240	0.840818	-0.249511	0.467406	-1.000000	-1.000000	-1.000000	-1.000000	-1.000000	-1.000000	-1.000000	81.655172	0.000000	-1.000000	-1.000000	757601.000000	1774905449.789904
19051.020000	-17698.860000	12469.455000	26645.445000	10126.305000	-43528.320000	-36187.470000	-20354.895000	-2.360130	6.988799	20.905227	23.301057	34.105561	13.277225	10.946105	-4.728402	-1.251320	5.325740	-1.892240	0.840818	-0.249511	0.467406	-1.000000	-1.000000	-1.000000	-1.000000	-1.000000	-1.000000	-1.000000	81.655172	0.000000	-1.000000	-1.000000	757602.000000	1774905449.789915
19021.545000	-17740.755000	12413.970000	26595.990000	10065.600000	-43577.820000	-36230.535000	-20359.215000	2.503988	16.237171	26.882570	31.109493	39.251319	21.328026	19.607512	5.566605	-1.251320	5.325740	-1.892240	0.840818	-0.249511	0.467406	-1.000000	-1.000000	-1.000000	-1.000000	-1.000000	-1.000000	-1.000000	81.655172	0.000000	-1.000000	-1.000000	757603.000000	1774905449.791696
19005.615000	-17787.195000	12358.665000	26541.630000	10020.510000	-43616.430000	-36252.720000	-20385.270000	-0.464243	10.521893	11.578653	16.073536	17.536560	11.355428	12.598730	6.780388	-1.251320	5.325740	-1.892240	0.840818	-0.249511	0.467406	-1.000000	-1.000000	-1.000000	-1.000000	-1.000000	-1.000000	-1.000000	81.655172	0.000000	-1.000000	-1.000000	757604.000000	1774905449.791706
19035.180000	-17730.405000	12410.640000	26574.660000	10060.830000	-43572.690000	-36219.240000	-20359.350000	-7.236025	-6.099130	-15.087422	-12.212239	-16.868877	-8.791268	-4.147915	0.685576	-1.251320	5.325740	-1.892240	0.840818	-0.249511	0.467406	-1.000000	-1.000000	-1.000000	-1.000000	-1.000000	-1.000000	-1.000000	81.655172	0.000000	-1.000000	-1.000000	757605.000000	1774905449.795783
19067.760000	-17694.270000	12447.360000	26594.505000	10096.335000	-43537.905000	-36188.325000	-20310.930000	-8.742427	-17.987202	-31.358713	-32.065461	-38.386934	-21.063279	-15.711125	-3.483629	-1.251320	5.325740	-1.892240	0.840818	-0.249511	0.467406	-1.000000	-1.000000	-1.000000	-1.000000	-1.000000	-1.000000	-1.000000	81.655172	0.000000	-1.000000	-1.000000	757606.000000	1774905449.795792
19064.880000	-17700.390000	12424.680000	26588.520000	10100.925000	-43530.165000	-36187.785000	-20298.870000	-1.399483	-15.111257	-26.029810	-31.182832	-35.040796	-16.643552	-13.730756	0.732537	-1.251320	5.325740	-1.892240	0.840818	-0.249511	0.467406	-1.000000	-1.000000	-1.000000	-1.000000	-1.000000	-1.000000	-1.000000	81.655172	0.000000	-1.000000	-1.000000	757607.000000	1774905449.800554
19035.540000	-17740.035000	12381.345000	26576.595000	10082.025000	-43545.150000	-36207.090000	-20334.510000	8.778021	-3.272776	-8.930864	-16.077938	-16.830406	-3.151160	-3.266435	9.348641	-1.251320	5.325740	-1.892240	0.840818	-0.249511	0.467406	-1.000000	-1.000000	-1.000000	-1.000000	-1.000000	-1.000000	-1.000000	81.655172	0.000000	-1.000000	-1.000000	757608.000000	1774905449.800565
19025.685000	-17753.490000	12389.535000	26586.315000	10068.390000	-43562.115000	-36214.920000	-20377.665000	12.888064	4.787819	2.924178	-0.941846	-1.179060	6.013482	4.631338	11.671623	-1.251320	5.325740	-1.892240	0.840818	-0.249511	0.467406	-1.000000	-1.000000	-1.000000	-1.000000	-1.000000	-1.000000	-1.000000	81.655172	0.000000	-1.000000	-1.000000	757609.000000	1774905449.803718
19035.495000	-17745.930000	12425.985000	26592.255000	10064.835000	-43570.350000	-36217.800000	-20396.340000	7.877721	3.421950	4.099262	6.614428	3.517111	4.680133	4.237589	1.785932	-1.251320	5.325740	-1.892240	0.840818	-0.249511	0.467406	-1.000000	-1.000000	-1.000000	-1.000000	-1.000000	-1.000000	-1.000000	81.655172	0.000000	-1.000000	-1.000000	757610.000000	1774905449.803727
19031.445000	-17732.340000	12450.690000	26609.310000	10078.695000	-43560.180000	-36209.205000	-20384.415000	-2.170200	-2.787817	2.006909	8.216921	1.358406	-2.768100	-1.165829	-14.873994	-4.211760	5.127360	-1.129240	0.840330	-0.244689	0.468199	-1.000000	-1.000000	-1.000000	-1.000000	-1.000000	-1.000000	-1.000000	81.655172	0.000000	-1.000000	-1.000000	757611.000000	1774905449.807696
19040.715000	-17726.220000	12449.430000	26615.520000	10085.400000	-43554.105000	-36205.965000	-20363.760000	-10.176534	-5.451685	4.941202	9.278674	1.668119	-7.005028	-4.318108	-25.814595	-4.211760	5.127360	-1.129240	0.840330	-0.244689	0.468199	-1.000000	-1.000000	-1.000000	-1.000000	-1.000000	-1.000000	-1.000000	81.655172	0.000000	-1.000000	-1.000000	757612.000000	1774905449.807703
19045.620000	-17729.685000	12424.185000	26599.590000	10083.780000	-43548.390000	-36208.395000	-20346.570000	-10.941350	-0.535396	12.963582	12.612269	9.040533	-2.508066	-1.497088	-21.744227	-4.211760	5.127360	-1.129240	0.840330	-0.244689	0.468199	-1.000000	-1.000000	-1.000000	-1.000000	-1.000000	-1.000000	-1.000000	81.655172	0.000000	-1.000000	-1.000000	757613.000000	1774905449.812051
19050.210000	-17724.465000	12420.000000	26602.920000	10089.450000	-43540.920000	-36207.090000	-20325.555000	-5.104294	7.642508	18.110134	15.161812	18.684090	7.271355	4.186699	-4.256214	-4.211760	5.127360	-1.129240	0.840330	-0.244689	0.468199	-1.000000	-1.000000	-1.000000	-1.000000	-1.000000	-1.000000	-1.000000	81.655172	0.000000	-1.000000	-1.000000	757614.000000	1774905449.812058
19084.230000	-17677.305000	12474.900000	26656.380000	10134.585000	-43500.870000	-36181.800000	-20294.460000	2.285610	11.827630	13.837296	12.502694	21.883759	14.006348	7.103094	15.795403	-4.211760	5.127360	-1.129240	0.840330	-0.244689	0.468199	-1.000000	-1.000000	-1.000000	-1.000000	-1.000000	-1.000000	-1.000000	81.655172	0.000000	-1.000000	-1.000000	757615.000000	1774905449.816530
19128.420000	-17624.340000	12537.945000	26716.995000	10191.645000	-43445.790000	-36160.740000	-20289.690000	8.025753	10.898916	3.982275	5.897903	15.929038	13.789353	5.745792	27.534751	-4.211760	5.127360	-1.129240	0.840330	-0.244689	0.468199	-1.000000	-1.000000	-1.000000	-1.000000	-1.000000	-1.000000	-1.000000	81.655172	0.000000	-1.000000	-1.000000	757616.000000	1774905449.816537
19120.230000	-17633.430000	12531.285000	26701.290000	10176.570000	-43461.360000	-36165.420000	-20321.595000	12.093975	8.844157	-2.739524	-0.248707	5.314422	8.930271	2.712888	26.586671	-4.211760	5.127360	-1.129240	0.840330	-0.244689	0.468199	-1.000000	-1.000000	-1.000000	-1.000000	-1.000000	-1.000000	-1.000000	81.655172	0.000000	-1.000000	-1.000000	757617.000000	1774905449.819658
19037.205000	-17702.865000	12461.670000	26634.870000	10111.770000	-43526.070000	-36195.660000	-20382.930000	12.044916	5.732438	-5.613327	-6.274936	-6.223883	1.269089	-0.423762	14.249260	-4.211760	5.127360	-1.129240	0.840330	-0.244689	0.468199	-1.000000	-1.000000	-1.000000	-1.000000	-1.000000	-1.000000	-1.000000	81.655172	0.000000	-1.000000	-1.000000	757618.000000	1774905449.819666
18966.330000	-17781.165000	12389.940000	26562.150000	10039.410000	-43597.620000	-36234.765000	-20424.645000	2.380880	-3.704050	-12.141829	-16.224950	-18.873988	-10.249296	-4.724329	-5.120132	-4.211760	5.127360	-1.129240	0.840330	-0.244689	0.468199	-1.000000	-1.000000	-1.000000	-1.000000	-1.000000	-1.000000	-1.000000	81.655172	0.000000	-1.000000	-1.000000	757619.000000	1774905449.823795
18987.975000	-17772.975000	12403.395000	26579.520000	10058.445000	-43576.110000	-36218.070000	-20420.865000	-15.604748	-19.969633	-24.493775	-28.627701	-30.509074	-23.411900	-10.039995	-24.183435	-4.211760	5.127360	-1.129240	0.840330	-0.244689	0.468199	-1.000000	-1.000000	-1.000000	-1.000000	-1.000000	-1.000000	-1.000000	81.655172	0.000000	-1.000000	-1.000000	757620.000000	1774905449.823804
19032.120000	-17748.180000	12420.945000	26598.330000	10077.795000	-43556.130000	-36205.650000	-20392.965000	-28.990567	-32.413904	-32.244622	-33.257299	-32.964944	-29.282939	-12.353510	-33.369760	-2.746800	4.608520	-1.281840	0.837766	-0.246032	0.469664	-1.000000	-1.000000	-1.000000	-1.000000	-1.000000	-1.000000	-1.000000	81.655172	0.000000	-1.000000	-1.000000	757621.000000	1774905449.827745
19064.835000	-17743.005000	12403.620000	26576.460000	10053.945000	-43577.730000	-36214.515000	-20338.155000	-24.953517	-29.025302	-24.028487	-21.666511	-20.438939	-20.922959	-8.155800	-26.048684	-2.746800	4.608520	-1.281840	0.837766	-0.246032	0.469664	-1.000000	-1.000000	-1.000000	-1.000000	-1.000000	-1.000000	-1.000000	81.655172	0.000000	-1.000000	-1.000000	757622.000000	1774905449.827757
19043.640000	-17764.740000	12381.750000	26559.315000	10037.520000	-43589.430000	-36221.130000	-20326.815000	-4.812735	-10.386651	-2.428713	1.254883	1.042736	-2.908005	0.183449	-4.896653	-2.746800	4.608520	-1.281840	0.837766	-0.246032	0.469664	-1.000000	-1.000000	-1.000000	-1.000000	-1.000000	-1.000000	-1.000000	81.655172	0.000000	-1.000000	-1.000000	757623.000000	1774905449.833125
19041.525000	-17730.315000	12423.555000	26606.655000	10080.675000	-43549.290000	-36197.595000	-20317.140000	16.878266	11.256391	18.841053	21.662498	18.720284	13.474893	6.999512	18.119914	-2.746800	4.608520	-1.281840	0.837766	-0.246032	0.469664	-1.000000	-1.000000	-1.000000	-1.000000	-1.000000	-1.000000	-1.000000	81.655172	0.000000	-1.000000	-1.000000	757624.000000	1774905449.833137
19089.360000	-17681.130000	12462.705000	26647.785000	10121.130000	-43500.105000	-36161.235000	-20279.070000	26.805043	25.164201	29.491117	30.509046	25.648384	21.730464	9.808970	31.223521	-2.746800	4.608520	-1.281840	0.837766	-0.246032	0.469664	-1.000000	-1.000000	-1.000000	-1.000000	-1.000000	-1.000000	-1.000000	81.655172	0.000000	-1.000000	-1.000000	757625.000000	1774905449.836981
19103.535000	-17669.790000	12448.845000	26625.060000	10067.580000	-43508.565000	-36164.655000	-20293.380000	24.200858	29.697724	29.034600	28.397496	23.485782	23.154369	10.241229	31.426777	-2.746800	4.608520	-1.281840	0.837766	-0.246032	0.469664	-1.000000	-1.000000	-1.000000	-1.000000	-1.000000	-1.000000	-1.000000	81.655172	0.000000	-1.000000	-1.000000	757626.000000	1774905449.836990
19094.985000	-17666.415000	12445.695000	26604.270000	10048.005000	-43508.025000	-36164.925000	-20313.000000	16.809197	28.286700	22.166431	20.267557	16.529435	21.488595	9.993625	22.219928	-2.746800	4.608520	-1.281840	0.837766	-0.246032	0.469664	-1.000000	-1.000000	-1.000000	-1.000000	-1.000000	-1.000000	-1.000000	81.655172	0.000000	-1.000000	-1.000000	757627.000000	1774905449.839640
19055.430000	-17694.540000	12435.255000	26575.335000	10034.865000	-43541.640000	-36179.865000	-20327.940000	9.660691	22.802246	13.244536	10.098109	8.363912	17.770522	8.600958	7.696738	-2.746800	4.608520	-1.281840	0.837766	-0.246032	0.469664	-1.000000	-1.000000	-1.000000	-1.000000	-1.000000	-1.000000	-1.000000	81.655172	0.000000	-1.000000	-1.000000	757628.000000	1774905449.839651
19046.475000	-17712.450000	12451.185000	26592.660000	10069.830000	-43551.495000	-36186.165000	-20336.445000	1.044389	11.628577	4.032908	-0.413010	1.382598	9.519313	4.250830	-8.751250	-2.746800	4.608520	-1.281840	0.837766	-0.246032	0.469664	-1.000000	-1.000000	-1.000000	-1.000000	-1.000000	-1.000000	-1.000000	81.655172	0.000000	-1.000000	-1.000000	757629.000000	1774905449.843701
19028.655000	-17749.080000	12415.365000	26584.110000	10093.320000	-43566.255000	-36213.345000	-20368.890000	-11.689184	-6.362497	-5.463382	-9.849119	-3.058187	-4.552447	-3.849087	-23.918001	-2.746800	4.608520	-1.281840	0.837766	-0.246032	0.469664	-1.000000	-1.000000	-1.000000	-1.000000	-1.000000	-1.000000	-1.000000	81.655172	0.000000	-1.000000	-1.000000	757630.000000	1774905449.843709
19002.060000	-17787.240000	12364.380000	26560.710000	10065.690000	-43600.140000	-36243.990000	-20404.305000	-25.775450	-26.928364	-15.103899	-15.894192	-4.651780	-20.096885	-13.531568	-34.959955	-1.464960	4.165980	-1.281840	0.837095	-0.247375	0.469237	-1.000000	-1.000000	-1.000000	-1.000000	-1.000000	-1.000000	-1.000000	81.655172	0.000000	-1.000000	-1.000000	757631.000000	1774905449.849715
19016.955000	-17764.155000	12415.590000	26599.410000	10089.135000	-43575.795000	-36233.730000	-20391.120000	-33.495979	-40.887316	-22.766630	-17.016365	-5.281486	-29.838908	-20.351050	-38.301568	-1.464960	4.165980	-1.281840	0.837095	-0.247375	0.469237	-1.000000	-1.000000	-1.000000	-1.000000	-1.000000	-1.000000	-1.000000	81.655172	0.000000	-1.000000	-1.000000	757632.000000	1774905449.849725
19032.570000	-17742.420000	12439.170000	26613.855000	10103.400000	-43555.725000	-36219.690000	-20382.345000	-28.267892	-40.096639	-24.228799	-13.759354	-7.538528	-29.134962	-20.194868	-29.767386	-1.464960	4.165980	-1.281840	0.837095	-0.247375	0.469237	-1.000000	-1.000000	-1.000000	-1.000000	-1.000000	-1.000000	-1.000000	81.655172	0.000000	-1.000000	-1.000000	757633.000000	1774905449.852177
19048.995000	-17730.765000	12418.020000	26606.295000	10090.755000	-43559.505000	-36214.470000	-20389.860000	-10.985599	-23.921493	-17.682028	-8.389172	-11.360747	-18.626548	-12.172379	-9.524899	-1.464960	4.165980	-1.281840	0.837095	-0.247375	0.469237	-1.000000	-1.000000	-1.000000	-1.000000	-1.000000	-1.000000	-1.000000	81.655172	0.000000	-1.000000	-1.000000	757634.000000	1774905449.852183
19035.675000	-17731.035000	12394.170000	26589.735000	10072.035000	-43555.365000	-36211.590000	-20381.130000	10.367507	0.531993	-6.272837	-2.649226	-13.141965	-2.636892	0.819824	15.673441	-1.464960	4.165980	-1.281840	0.837095	-0.247375	0.469237	-1.000000	-1.000000	-1.000000	-1.000000	-1.000000	-1.000000	-1.000000	81.655172	0.000000	-1.000000	-1.000000	757635.000000	1774905449.855709
19006.830000	-17732.115000	12409.515000	26593.830000	10083.645000	-43540.470000	-36197.865000	-20351.430000	26.564680	23.507104	5.635416	3.647196	-8.849035	14.063913	14.183589	37.046310	-1.464960	4.165980	-1.281840	0.837095	-0.247375	0.469237	-1.000000	-1.000000	-1.000000	-1.000000	-1.000000	-1.000000	-1.000000	81.655172	0.000000	-1.000000	-1.000000	757636.000000	1774905449.855719
19043.460000	-17711.415000	12463.605000	26629.785000	10115.145000	-43508.925000	-36182.565000	-20323.665000	32.252037	37.290774	15.765607	10.680702	1.349058	27.266936	23.496280	47.798381	-1.464960	4.165980	-1.281840	0.837095	-0.247375	0.469237	-1.000000	-1.000000	-1.000000	-1.000000	-1.000000	-1.000000	-1.000000	81.655172	0.000000	-1.000000	-1.000000	757637.000000	1774905449.859661
19047.510000	-17704.170000	12482.955000	26652.240000	10134.540000	-43484.130000	-36178.560000	-20333.295000	27.661725	38.578827	22.996677	16.599712	12.099870	33.175405	25.567966	44.045245	-1.464960	4.165980	-1.281840	0.837095	-0.247375	0.469237	-1.000000	-1.000000	-1.000000	-1.000000	-1.000000	-1.000000	-1.000000	81.655172	0.000000	-1.000000	-1.000000	757638.000000	1774905449.859671
19038.510000	-17708.940000	12465.000000	26647.785000	10132.380000	-43476.570000	-36181.440000	-20343.015000	16.111379	28.606742	25.389503	18.271123	16.978727	29.550519	19.752471	26.076527	-1.464960	4.165980	-1.281840	0.837095	-0.247375	0.469237	-1.000000	-1.000000	-1.000000	-1.000000	-1.000000	-1.000000	-1.000000	81.655172	0.000000	-1.000000	-1.000000	757639.000000	1774905449.865008
19034.685000	-17737.470000	12426.570000	26607.240000	10082.250000	-43555.590000	-36196.515000	-20346.930000	1.581933	11.377571	20.056973	12.981911	12.867058	16.035189	8.227011	-0.100333	-1.464960	4.165980	-1.281840	0.837095	-0.247375	0.469237	-1.000000	-1.000000	-1.000000	-1.000000	-1.000000	-1.000000	-1.000000	81.655172	0.000000	-1.000000	-1.000000	757640.000000	1774905449.865024
19047.285000	-17752.410000	12405.600000	26579.655000	10062.900000	-43599.510000	-36208.575000	-20358.360000	-11.637528	-8.866020	4.782206	-0.598030	0.362039	-6.661505	-5.852472	-24.874324	-2.472120	3.174080	-1.373400	0.837644	-0.244933	0.470519	-1.000000	-1.000000	-1.000000	-1.000000	-1.000000	-1.000000	-1.000000	81.655172	0.000000	-1.000000	-1.000000	757641.000000	1774905449.867657
19038.465000	-17737.380000	12415.185000	26583.750000	10084.905000	-43553.070000	-36200.295000	-20356.020000	-20.256177	-27.289790	-17.121294	-19.027536	-15.339446	-32.283554	-18.950707	-39.802673	-2.472120	3.174080	-1.373400	0.837644	-0.244933	0.470519	-1.000000	-1.000000	-1.000000	-1.000000	-1.000000	-1.000000	-1.000000	81.655172	0.000000	-1.000000	-1.000000	757642.000000	1774905449.867669
19016.055000	-17725.995000	12417.255000	26592.570000	10088.460000	-43545.465000	-36194.220000	-20345.805000	-23.142462	-36.837276	-33.999629	-31.864021	-24.022656	-46.569338	-26.200107	-40.142412	-2.472120	3.174080	-1.373400	0.837644	-0.244933	0.470519	-1.000000	-1.000000	-1.000000	-1.000000	-1.000000	-1.000000	-1.000000	81.655172	0.000000	-1.000000	-1.000000	757643.000000	1774905449.871651
19022.535000	-17708.850000	12437.775000	26613.045000	10094.535000	-43539.930000	-36187.470000	-20332.620000	-19.913777	-31.785939	-34.042815	-28.711032	-18.040544	-38.891546	-23.647229	-26.321222	-2.472120	3.174080	-1.373400	0.837644	-0.244933	0.470519	-1.000000	-1.000000	-1.000000	-1.000000	-1.000000	-1.000000	-1.000000	81.655172	0.000000	-1.000000	-1.000000	757644.000000	1774905449.871658
19069.335000	-17699.895000	12468.195000	26636.310000	10109.385000	-43524.180000	-36190.530000	-20324.835000	-9.768133	-13.556579	-16.466736	-9.297403	-0.507155	-13.288443	-12.343140	-5.204156	-2.472120	3.174080	-1.373400	0.837644	-0.244933	0.470519	-1.000000	-1.000000	-1.000000	-1.000000	-1.000000	-1.000000	-1.000000	81.655172	0.000000	-1.000000	-1.000000	757645.000000	1774905449.877540
19104.795000	-17681.265000	12475.530000	26652.105000	10116.450000	-43514.685000	-36198.855000	-20324.970000	5.621537	8.881111	7.526589	15.170784	16.974798	15.587297	1.570972	13.043827	-2.472120	3.174080	-1.373400	0.837644	-0.244933	0.470519	-1.000000	-1.000000	-1.000000	-1.000000	-1.000000	-1.000000	-1.000000	81.655172	0.000000	-1.000000	-1.000000	757646.000000	1774905449.877550
19081.530000	-17683.470000	12472.380000	26653.140000	10111.860000	-43518.780000	-36200.295000	-20349.495000	19.463975	24.806583	24.091088	30.584257	23.719037	33.270249	11.520613	21.249110	-2.472120	3.174080	-1.373400	0.837644	-0.244933	0.470519	-1.000000	-1.000000	-1.000000	-1.000000	-1.000000	-1.000000	-1.000000	81.655172	0.000000	-1.000000	-1.000000	757647.000000	1774905449.879695
19075.140000	-17665.965000	12486.645000	26653.320000	10121.220000	-43518.285000	-36180.270000	-20348.820000	23.757859	28.574776	27.229492	30.266884	17.826579	33.998832	15.225249	18.631991	-2.472120	3.174080	-1.373400	0.837644	-0.244933	0.470519	-1.000000	-1.000000	-1.000000	-1.000000	-1.000000	-1.000000	-1.000000	81.655172	0.000000	-1.000000	-1.000000	757648.000000	1774905449.879700
19045.800000	-17715.780000	12430.170000	26590.185000	10090.620000	-43538.040000	-36185.940000	-20356.290000	15.656732	20.955184	19.383704	16.878042	5.712307	22.471808	14.420932	9.629681	-2.472120	3.174080	-1.373400	0.837644	-0.244933	0.470519	-1.000000	-1.000000	-1.000000	-1.000000	-1.000000	-1.000000	-1.000000	81.655172	0.000000	-1.000000	-1.000000	757649.000000	1774905449.883601
19040.805000	-17750.790000	12393.720000	26553.870000	10063.080000	-43557.120000	-36196.110000	-20350.980000	-0.855208	5.259588	4.515588	-3.113108	-5.994096	6.832632	10.707977	0.249607	-2.472120	3.174080	-1.373400	0.837644	-0.244933	0.470519	-1.000000	-1.000000	-1.000000	-1.000000	-1.000000	-1.000000	-1.000000	81.655172	0.000000	-1.000000	-1.000000	757650.000000	1774905449.883610
19052.370000	-17752.365000	12405.285000	26581.275000	10064.250000	-43561.620000	-36207.765000	-20346.750000	-16.870272	-13.483855	-12.490958	-21.527267	-14.425130	-8.056432	4.179460	-5.176118	-3.860780	2.838360	-0.564620	0.836668	-0.244018	0.470458	-1.000000	-1.000000	-1.000000	-1.000000	-1.000000	-1.000000	-1.000000	81.655172	0.000000	-1.000000	-1.000000	757651.000000	1774905449.892798
19046.295000	-17741.520000	12425.850000	26610.570000	10078.470000	-43553.925000	-36203.175000	-20361.330000	-23.037505	-26.975246	-23.193623	-28.769858	-17.185111	-18.975233	-3.961498	-5.742590	-3.860780	2.838360	-0.564620	0.836668	-0.244018	0.470458	-1.000000	-1.000000	-1.000000	-1.000000	-1.000000	-1.000000	-1.000000	81.655172	0.000000	-1.000000	-1.000000	757652.000000	1774905449.892808
19041.705000	-17732.565000	12437.370000	26621.055000	10092.285000	-43544.565000	-36190.035000	-20355.885000	-16.643191	-27.701706	-21.232263	-20.402864	-12.228020	-22.103652	-10.149182	-3.771599	-3.860780	2.838360	-0.564620	0.836668	-0.244018	0.470458	-1.000000	-1.000000	-1.000000	-1.000000	-1.000000	-1.000000	-1.000000	81.655172	0.000000	-1.000000	-1.000000	757653.000000	1774905449.892820
19039.455000	-17730.270000	12427.425000	26610.345000	10098.945000	-43532.325000	-36181.845000	-20345.985000	-4.073727	-15.341819	-9.313028	-2.719353	-1.764213	-16.225432	-10.883241	-1.825576	-3.860780	2.838360	-0.564620	0.836668	-0.244018	0.470458	-1.000000	-1.000000	-1.000000	-1.000000	-1.000000	-1.000000	-1.000000	81.655172	0.000000	-1.000000	-1.000000	757654.000000	1774905449.892826
19040.220000	-17726.535000	12425.445000	26609.130000	10093.860000	-43535.070000	-36189.225000	-20338.695000	5.762419	2.834063	3.768490	12.315175	8.066157	-4.953749	-5.959218	-0.136630	-3.860780	2.838360	-0.564620	0.836668	-0.244018	0.470458	-1.000000	-1.000000	-1.000000	-1.000000	-1.000000	-1.000000	-1.000000	81.655172	0.000000	-1.000000	-1.000000	757655.000000	1774905449.895823
19067.895000	-17699.715000	12452.670000	26637.750000	10114.560000	-43511.895000	-36176.490000	-20330.505000	9.897396	17.948484	11.916387	17.620615	12.422802	6.204772	1.230927	2.421691	-3.860780	2.838360	-0.564620	0.836668	-0.244018	0.470458	-1.000000	-1.000000	-1.000000	-1.000000	-1.000000	-1.000000	-1.000000	81.655172	0.000000	-1.000000	-1.000000	757656.000000	1774905449.895836
19087.065000	-17674.245000	12490.020000	26666.505000	10144.215000	-43476.930000	-36153.540000	-20338.965000	11.576632	25.395141	15.473415	15.490090	11.716575	14.320824	6.813998	5.548337	-3.860780	2.838360	-0.564620	0.836668	-0.244018	0.470458	-1.000000	-1.000000	-1.000000	-1.000000	-1.000000	-1.000000	-1.000000	81.655172	0.000000	-1.000000	-1.000000	757657.000000	1774905449.904047
19081.260000	-17690.490000	12471.480000	26640.945000	10128.105000	-43488.765000	-36172.170000	-20338.110000	13.318169	25.158256	17.153478	12.011641	9.384855	18.908666	8.787448	6.896880	-3.860780	2.838360	-0.564620	0.836668	-0.244018	0.470458	-1.000000	-1.000000	-1.000000	-1.000000	-1.000000	-1.000000	-1.000000	81.655172	0.000000	-1.000000	-1.000000	757658.000000	1774905449.904060
19045.665000	-17747.370000	12413.970000	26575.200000	10068.795000	-43547.580000	-36208.485000	-20350.170000	12.766066	17.724915	15.852729	8.241043	5.932428	17.525572	6.199763	4.535510	-3.860780	2.838360	-0.564620	0.836668	-0.244018	0.470458	-1.000000	-1.000000	-1.000000	-1.000000	-1.000000	-1.000000	-1.000000	81.655172	0.000000	-1.000000	-1.000000	757659.000000	1774905449.904214
19002.600000	-17790.480000	12371.760000	26540.055000	10025.730000	-43604.640000	-36229.005000	-20365.020000	5.865308	2.657102	6.900504	-0.395217	-1.673580	6.362166	-0.874118	-1.125129	-3.860780	2.838360	-0.564620	0.836668	-0.244018	0.470458	-1.000000	-1.000000	-1.000000	-1.000000	-1.000000	-1.000000	-1.000000	81.655172	0.000000	-1.000000	-1.000000	757660.000000	1774905449.904219
19005.795000	-17776.125000	12374.595000	26563.005000	10050.435000	-43584.525000	-36221.715000	-20365.470000	-6.647983	-16.566492	-9.881077	-14.519536	-13.059016	-12.186116	-9.387240	-7.402755	-2.792580	2.899400	0.000000	0.837583	-0.248168	0.469176	-1.000000	-1.000000	-1.000000	-1.000000	-1.000000	-1.000000	-1.000000	81.655172	0.000000	-1.000000	-1.000000	757661.000000	1774905449.907700
19042.695000	-17745.750000	12378.330000	26576.865000	10075.905000	-43552.080000	-36206.640000	-20355.840000	-17.320490	-30.048166	-25.970328	-25.694568	-21.046348	-26.956517	-13.984716	-10.796520	-2.792580	2.899400	0.000000	0.837583	-0.248168	0.469176	-1.000000	-1.000000	-1.000000	-1.000000	-1.000000	-1.000000	-1.000000	81.655172	0.000000	-1.000000	-1.000000	757662.000000	1774905449.907712
19046.250000	-17729.280000	12385.845000	26590.140000	10096.335000	-43526.880000	-36193.860000	-20365.695000	-18.446517	-28.689137	-30.707070	-24.520235	-18.346913	-27.018381	-10.896659	-9.503083	-2.792580	2.899400	0.000000	0.837583	-0.248168	0.469176	-1.000000	-1.000000	-1.000000	-1.000000	-1.000000	-1.000000	-1.000000	81.655172	0.000000	-1.000000	-1.000000	757663.000000	1774905449.916478
19059.210000	-17703.720000	12418.785000	26609.355000	10119.015000	-43503.795000	-36181.665000	-20365.830000	-9.437347	-12.763144	-20.011417	-10.173973	-5.008271	-11.516188	-1.000354	-4.596112	-2.792580	2.899400	0.000000	0.837583	-0.248168	0.469176	-1.000000	-1.000000	-1.000000	-1.000000	-1.000000	-1.000000	-1.000000	81.655172	0.000000	-1.000000	-1.000000	757664.000000	1774905449.916488
19106.910000	-17667.405000	12481.965000	26648.010000	10138.635000	-43484.670000	-36157.950000	-20318.490000	3.920100	8.550344	1.406170	9.563398	11.660835	10.163995	10.465155	2.021160	-2.792580	2.899400	0.000000	0.837583	-0.248168	0.469176	-1.000000	-1.000000	-1.000000	-1.000000	-1.000000	-1.000000	-1.000000	81.655172	0.000000	-1.000000	-1.000000	757665.000000	1774905449.916683
19136.205000	-17625.870000	12550.410000	26697.735000	10170.855000	-43454.520000	-36125.550000	-20268.855000	15.277097	24.854621	24.257623	25.499927	22.922525	26.056574	17.697519	9.793303	-2.792580	2.899400	0.000000	0.837583	-0.248168	0.469176	-1.000000	-1.000000	-1.000000	-1.000000	-1.000000	-1.000000	-1.000000	81.655172	0.000000	-1.000000	-1.000000	757666.000000	1774905449.916689
19103.580000	-17652.690000	12522.510000	26680.860000	10130.985000	-43472.070000	-36147.465000	-20283.705000	20.203575	30.460132	39.414419	32.600677	24.247872	29.511872	18.093910	17.121333	-2.792580	2.899400	0.000000	0.837583	-0.248168	0.469176	-1.000000	-1.000000	-1.000000	-1.000000	-1.000000	-1.000000	-1.000000	81.655172	0.000000	-1.000000	-1.000000	757667.000000	1774905449.919667
19053.630000	-17714.880000	12453.795000	26627.445000	10056.915000	-43518.780000	-36181.665000	-20320.290000	15.855685	23.925983	39.194895	28.702898	15.494455	20.893614	11.847837	18.713155	-2.792580	2.899400	0.000000	0.837583	-0.248168	0.469176	-1.000000	-1.000000	-1.000000	-1.000000	-1.000000	-1.000000	-1.000000	81.655172	0.000000	-1.000000	-1.000000	757668.000000	1774905449.919674
18998.460000	-17772.165000	12384.180000	26565.705000	10013.175000	-43574.940000	-36219.375000	-20351.655000	2.602074	6.425674	19.946027	12.532790	-1.012410	4.209032	0.275653	10.044341	-2.792580	2.899400	0.000000	0.837583	-0.248168	0.469176	-1.000000	-1.000000	-1.000000	-1.000000	-1.000000	-1.000000	-1.000000	81.655172	0.000000	-1.000000	-1.000000	757669.000000	1774905449.923619
19016.190000	-17759.070000	12360.960000	26544.555000	10008.945000	-43590.555000	-36230.445000	-20378.655000	-14.211780	-16.433636	-12.619292	-12.968057	-19.776000	-15.403773	-13.572403	-6.732284	-2.792580	2.899400	0.000000	0.837583	-0.248168	0.469176	-1.000000	-1.000000	-1.000000	-1.000000	-1.000000	-1.000000	-1.000000	81.655172	0.000000	-1.000000	-1.000000	757670.000000	1774905449.923630
19044.810000	-17744.400000	12386.340000	26566.200000	10044.585000	-43577.640000	-36222.075000	-20369.115000	-25.726004	-34.023574	-42.653704	-37.039036	-31.954267	-31.144482	-24.100881	-23.196245	-3.189340	3.616620	-1.449700	0.840513	-0.248046	0.468261	-1.000000	-1.000000	-1.000000	-1.000000	-1.000000	-1.000000	-1.000000	81.655172	0.000000	-1.000000	-1.000000	757671.000000	1774905449.927823
19053.270000	-17718.345000	12462.345000	26625.195000	10117.080000	-43542.045000	-36203.985000	-20351.610000	-24.757585	-36.449252	-52.248841	-45.226614	-29.029599	-35.075644	-25.233943	-29.472086	-3.189340	3.616620	-1.449700	0.840513	-0.248046	0.468261	-1.000000	-1.000000	-1.000000	-1.000000	-1.000000	-1.000000	-1.000000	81.655172	0.000000	-1.000000	-1.000000	757672.000000	1774905449.927834
19025.820000	-17701.110000	12500.775000	26660.115000	10145.835000	-43507.530000	-36180.135000	-20337.975000	-12.288809	-22.232456	-34.651565	-30.670240	-9.722866	-23.198303	-14.989508	-21.020517	-3.189340	3.616620	-1.449700	0.840513	-0.248046	0.468261	-1.000000	-1.000000	-1.000000	-1.000000	-1.000000	-1.000000	-1.000000	81.655172	0.000000	-1.000000	-1.000000	757673.000000	1774905449.934526
19052.235000	-17682.885000	12495.555000	26670.330000	10151.865000	-43490.205000	-36158.310000	-20304.045000	2.768220	0.300058	-1.644662	-1.567273	15.823669	-0.353100	1.943293	-2.840523	-3.189340	3.616620	-1.449700	0.840513	-0.248046	0.468261	-1.000000	-1.000000	-1.000000	-1.000000	-1.000000	-1.000000	-1.000000	81.655172	0.000000	-1.000000	-1.000000	757674.000000	1774905449.934540
19063.575000	-17698.770000	12471.480000	26655.480000	10127.655000	-43508.925000	-36174.240000	-20303.730000	12.741262	19.262739	25.293212	24.618619	32.230381	21.577346	16.871590	14.591041	-3.189340	3.616620	-1.449700	0.840513	-0.248046	0.468261	-1.000000	-1.000000	-1.000000	-1.000000	-1.000000	-1.000000	-1.000000	81.655172	0.000000	-1.000000	-1.000000	757675.000000	1774905449.943192
19057.005000	-17729.145000	12436.785000	26610.795000	10079.190000	-43543.665000	-36201.150000	-20328.795000	17.014624	27.221851	33.046548	34.746942	31.061853	31.725890	22.899511	23.080393	-3.189340	3.616620	-1.449700	0.840513	-0.248046	0.468261	-1.000000	-1.000000	-1.000000	-1.000000	-1.000000	-1.000000	-1.000000	81.655172	0.000000	-1.000000	-1.000000	757676.000000	1774905449.943208
19058.760000	-17744.265000	12414.465000	26566.110000	10060.650000	-43562.565000	-36220.545000	-20351.970000	18.553730	24.542917	24.522124	27.425131	16.125376	27.566914	18.957593	20.700653	-3.189340	3.616620	-1.449700	0.840513	-0.248046	0.468261	-1.000000	-1.000000	-1.000000	-1.000000	-1.000000	-1.000000	-1.000000	81.655172	0.000000	-1.000000	-1.000000	757677.000000	1774905449.943222
19052.730000	-17731.215000	12419.010000	26565.795000	10066.455000	-43559.640000	-36228.645000	-20364.480000	18.557322	16.349308	11.007762	10.520486	-1.913686	14.823221	9.084500	11.046763	-3.189340	3.616620	-1.449700	0.840513	-0.248046	0.468261	-1.000000	-1.000000	-1.000000	-1.000000	-1.000000	-1.000000	-1.000000	81.655172	0.000000	-1.000000	-1.000000	757678.000000	1774905449.943227
19063.620000	-17685.855000	12462.390000	26627.625000	10100.835000	-43521.255000	-36192.330000	-20340.405000	14.610555	7.435994	1.721356	-4.793687	-14.016870	1.561969	-0.901707	0.249611	-3.189340	3.616620	-1.449700	0.840513	-0.248046	0.468261	-1.000000	-1.000000	-1.000000	-1.000000	-1.000000	-1.000000	-1.000000	81.655172	0.000000	-1.000000	-1.000000	757679.000000	1774905449.946538
19063.170000	-17659.395000	12497.085000	26688.465000	10147.905000	-43488.180000	-36161.910000	-20319.165000	4.277896	0.251469	-0.973925	-10.245295	-16.957050	-6.874051	-6.266800	-6.339318	-3.189340	3.616620	-1.449700	0.840513	-0.248046	0.468261	-1.000000	-1.000000	-1.000000	-1.000000	-1.000000	-1.000000	-1.000000	81.655172	0.000000	-1.000000	-1.000000	757680.000000	1774905449.946550
19037.745000	-17727.345000	12440.250000	26639.055000	10107.945000	-43525.665000	-36178.425000	-20334.735000	-10.129723	-5.988039	-2.074868	-6.863117	-13.805522	-10.511737	-6.345972	-7.411847	-3.677660	4.303320	-1.495480	0.839842	-0.245361	0.467772	-1.000000	-1.000000	-1.000000	-1.000000	-1.000000	-1.000000	-1.000000	81.655172	0.000000	-1.000000	-1.000000	757681.000000	1774905449.954962
19031.175000	-17774.145000	12384.360000	26586.990000	10062.405000	-43562.115000	-36196.560000	-20347.245000	-22.575549	-14.839015	-9.296337	-4.598270	-11.421713	-13.936200	-5.453759	-6.500537	-3.677660	4.303320	-1.495480	0.839842	-0.245361	0.467772	-1.000000	-1.000000	-1.000000	-1.000000	-1.000000	-1.000000	-1.000000	81.655172	0.000000	-1.000000	-1.000000	757682.000000	1774905449.954979
19038.105000	-17774.820000	12371.895000	26571.870000	10059.030000	-43568.055000	-36206.640000	-20362.545000	-27.658370	-26.065591	-22.884671	-10.472206	-13.035888	-19.517838	-7.772553	-7.880429	-3.677660	4.303320	-1.495480	0.839842	-0.245361	0.467772	-1.000000	-1.000000	-1.000000	-1.000000	-1.000000	-1.000000	-1.000000	81.655172	0.000000	-1.000000	-1.000000	757683.000000	1774905449.954991
19034.820000	-17762.310000	12385.530000	26548.920000	10055.655000	-43569.720000	-36209.970000	-20363.220000	-22.988214	-31.158054	-31.694850	-19.380029	-13.466934	-22.299942	-11.535693	-11.153244	-3.677660	4.303320	-1.495480	0.839842	-0.245361	0.467772	-1.000000	-1.000000	-1.000000	-1.000000	-1.000000	-1.000000	-1.000000	81.655172	0.000000	-1.000000	-1.000000	757684.000000	1774905449.954997
19038.915000	-17744.265000	12414.375000	26559.045000	10056.960000	-43568.505000	-36207.630000	-20353.905000	-9.672558	-20.793200	-23.217765	-19.811311	-5.204662	-15.101904	-10.808018	-10.944439	-3.677660	4.303320	-1.495480	0.839842	-0.245361	0.467772	-1.000000	-1.000000	-1.000000	-1.000000	-1.000000	-1.000000	-1.000000	81.655172	0.000000	-1.000000	-1.000000	757685.000000	1774905449.957466
19033.920000	-17742.735000	12438.180000	26601.795000	10077.210000	-43554.375000	-36201.015000	-20362.590000	7.546181	3.878507	3.280342	-5.420598	11.889784	2.582532	-2.545962	-3.184894	-3.677660	4.303320	-1.495480	0.839842	-0.245361	0.467772	-1.000000	-1.000000	-1.000000	-1.000000	-1.000000	-1.000000	-1.000000	81.655172	0.000000	-1.000000	-1.000000	757686.000000	1774905449.957477
19033.245000	-17741.295000	12434.805000	26619.435000	10099.575000	-43533.765000	-36194.355000	-20363.130000	21.249031	29.307226	33.668073	18.337434	28.916557	22.448033	9.527324	9.133217	-3.677660	4.303320	-1.495480	0.839842	-0.245361	0.467772	-1.000000	-1.000000	-1.000000	-1.000000	-1.000000	-1.000000	-1.000000	81.655172	0.000000	-1.000000	-1.000000	757687.000000	1774905449.962495
19042.830000	-17722.935000	12432.645000	26619.345000	10109.520000	-43520.895000	-36187.065000	-20358.810000	25.038869	39.714555	48.341587	35.991738	34.583993	33.000896	17.484655	17.986306	-3.677660	4.303320	-1.495480	0.839842	-0.245361	0.467772	-1.000000	-1.000000	-1.000000	-1.000000	-1.000000	-1.000000	-1.000000	81.655172	0.000000	-1.000000	-1.000000	757688.000000	1774905449.962504
19035.090000	-17724.915000	12421.170000	26606.385000	10096.785000	-43533.000000	-36190.665000	-20364.570000	18.098815	29.989471	37.158872	33.836988	23.383427	27.644845	15.653427	17.455677	-3.677660	4.303320	-1.495480	0.839842	-0.245361	0.467772	-1.000000	-1.000000	-1.000000	-1.000000	-1.000000	-1.000000	-1.000000	81.655172	0.000000	-1.000000	-1.000000	757689.000000	1774905449.964248
19036.710000	-17722.440000	12432.330000	26609.850000	10093.680000	-43535.205000	-36193.590000	-20367.315000	5.643851	8.861148	7.931131	13.022515	0.639473	9.711551	5.432556	8.341432	-3.677660	4.303320	-1.495480	0.839842	-0.245361	0.467772	-1.000000	-1.000000	-1.000000	-1.000000	-1.000000	-1.000000	-1.000000	81.655172	0.000000	-1.000000	-1.000000	757690.000000	1774905449.964260
19040.940000	-17737.515000	12449.745000	26617.680000	10096.380000	-43533.405000	-36198.585000	-20356.515000	-5.555924	-10.120167	-19.915263	-11.383517	-20.265115	-9.908292	-6.349844	-3.221151	-4.822160	4.150720	-0.869820	0.838255	-0.248107	0.466674	-1.000000	-1.000000	-1.000000	-1.000000	-1.000000	-1.000000	-1.000000	81.655172	0.000000	-1.000000	-1.000000	757691.000000	1774905449.967791
19045.215000	-17731.170000	12452.310000	26621.280000	10101.420000	-43530.795000	-36205.110000	-20357.865000	-11.499845	-19.278136	-31.213615	-24.393456	-28.158189	-21.025327	-13.139904	-10.668645	-4.822160	4.150720	-0.869820	0.838255	-0.248107	0.466674	-1.000000	-1.000000	-1.000000	-1.000000	-1.000000	-1.000000	-1.000000	81.655172	0.000000	-1.000000	-1.000000	757692.000000	1774905449.967801
19058.040000	-17714.520000	12458.070000	26628.480000	10107.585000	-43525.170000	-36202.140000	-20358.990000	-11.355374	-18.426164	-24.723424	-21.389224	-21.115514	-20.100283	-12.303360	-11.116677	-4.822160	4.150720	-0.869820	0.838255	-0.248107	0.466674	-1.000000	-1.000000	-1.000000	-1.000000	-1.000000	-1.000000	-1.000000	81.655172	0.000000	-1.000000	-1.000000	757693.000000	1774905449.971722
19037.340000	-17726.985000	12445.110000	26617.230000	10099.890000	-43528.815000	-36196.245000	-20370.285000	-6.654942	-11.193193	-9.842988	-8.194493	-5.534206	-10.353016	-5.338179	-6.265471	-4.822160	4.150720	-0.869820	0.838255	-0.248107	0.466674	-1.000000	-1.000000	-1.000000	-1.000000	-1.000000	-1.000000	-1.000000	81.655172	0.000000	-1.000000	-1.000000	757694.000000	1774905449.971729
19041.345000	-17732.340000	12442.230000	26616.060000	10100.115000	-43527.555000	-36191.340000	-20362.680000	-0.939520	-2.959932	2.379600	4.201854	8.364493	1.011224	3.491351	0.003788	-4.822160	4.150720	-0.869820	0.838255	-0.248107	0.466674	-1.000000	-1.000000	-1.000000	-1.000000	-1.000000	-1.000000	-1.000000	81.655172	0.000000	-1.000000	-1.000000	757695.000000	1774905449.975728
19070.370000	-17724.465000	12447.045000	26619.255000	10101.060000	-43526.925000	-36189.765000	-20340.000000	2.769109	1.563532	6.335046	7.540560	12.686116	7.021401	9.224120	4.738764	-4.822160	4.150720	-0.869820	0.838255	-0.248107	0.466674	-1.000000	-1.000000	-1.000000	-1.000000	-1.000000	-1.000000	-1.000000	81.655172	0.000000	-1.000000	-1.000000	757696.000000	1774905449.975739
19062.540000	-17713.125000	12457.080000	26628.480000	10108.980000	-43518.825000	-36183.735000	-20353.995000	3.907784	1.286966	3.490898	1.880865	6.785049	5.349726	8.898712	6.467729	-4.822160	4.150720	-0.869820	0.838255	-0.248107	0.466674	-1.000000	-1.000000	-1.000000	-1.000000	-1.000000	-1.000000	-1.000000	81.655172	0.000000	-1.000000	-1.000000	757697.000000	1774905449.979716
19045.980000	-17727.795000	12443.085000	26615.700000	10097.595000	-43527.285000	-36181.530000	-20359.845000	2.877785	-1.140285	-1.107853	-6.141590	-3.164811	-0.490919	3.643132	4.527554	-4.822160	4.150720	-0.869820	0.838255	-0.248107	0.466674	-1.000000	-1.000000	-1.000000	-1.000000	-1.000000	-1.000000	-1.000000	81.655172	0.000000	-1.000000	-1.000000	757698.000000	1774905449.979722
19032.795000	-17741.205000	12430.755000	26605.935000	10084.860000	-43535.880000	-36187.470000	-20339.865000	-0.085879	-2.362233	-3.615457	-9.877565	-9.652531	-4.962335	-2.509537	0.074467	-4.822160	4.150720	-0.869820	0.838255	-0.248107	0.466674	-1.000000	-1.000000	-1.000000	-1.000000	-1.000000	-1.000000	-1.000000	81.655172	0.000000	-1.000000	-1.000000	757699.000000	1774905449.983907
19030.095000	-17741.340000	12425.940000	26592.705000	10035.990000	-43544.160000	-36194.265000	-20339.820000	-4.089235	-1.065452	-3.354468	-7.470271	-9.910267	-5.308380	-6.130186	-3.873884	-4.822160	4.150720	-0.869820	0.838255	-0.248107	0.466674	-1.000000	-1.000000	-1.000000	-1.000000	-1.000000	-1.000000	-1.000000	81.655172	0.000000	-1.000000	-1.000000	757700.000000	1774905449.983912
19044.720000	-17738.775000	12423.015000	26583.165000	10029.330000	-43552.215000	-36195.480000	-20332.530000	-6.857196	1.905971	-1.263314	-1.324703	-6.372879	-2.346748	-6.106026	-4.973489	-1.403920	6.012440	-0.549360	0.840086	-0.253600	0.466429	-1.000000	-1.000000	-1.000000	-1.000000	-1.000000	-1.000000	-1.000000	81.655172	0.000000	-1.000000	-1.000000	757701.000000	1774905449.987740
19052.910000	-17731.890000	12430.935000	26593.065000	10073.430000	-43543.215000	-36189.360000	-20324.790000	-5.776005	4.798155	1.837757	5.279238	-1.065096	1.827522	-3.185298	-2.938633	-1.403920	6.012440	-0.549360	0.840086	-0.253600	0.466429	-1.000000	-1.000000	-1.000000	-1.000000	-1.000000	-1.000000	-1.000000	81.655172	0.000000	-1.000000	-1.000000	757702.000000	1774905449.987751
19026.000000	-17733.240000	12433.545000	26601.570000	10111.590000	-43527.735000	-36182.340000	-20334.915000	-0.694092	6.374624	5.312777	10.219865	6.824114	5.756300	0.838901	0.783800	-1.403920	6.012440	-0.549360	0.840086	-0.253600	0.466429	-1.000000	-1.000000	-1.000000	-1.000000	-1.000000	-1.000000	-1.000000	81.655172	0.000000	-1.000000	-1.000000	757703.000000	1774905449.991751
19041.840000	-17715.690000	12446.505000	26615.970000	10122.795000	-43514.550000	-36170.280000	-20328.165000	4.964190	6.381671	8.150020	12.277313	16.172947	8.501235	4.037467	3.483575	-1.403920	6.012440	-0.549360	0.840086	-0.253600	0.466429	-1.000000	-1.000000	-1.000000	-1.000000	-1.000000	-1.000000	-1.000000	81.655172	0.000000	-1.000000	-1.000000	757704.000000	1774905449.991761
19068.300000	-17703.090000	12449.835000	26623.935000	10113.120000	-43508.340000	-36168.705000	-20331.180000	7.662027	4.873631	8.852874	10.680570	21.188217	8.822317	5.070490	2.918834	-1.403920	6.012440	-0.549360	0.840086	-0.253600	0.466429	-1.000000	-1.000000	-1.000000	-1.000000	-1.000000	-1.000000	-1.000000	81.655172	0.000000	-1.000000	-1.000000	757705.000000	1774905450.000023
19087.110000	-17705.475000	12445.290000	26616.150000	10087.695000	-43525.215000	-36182.925000	-20338.290000	7.525251	2.036466	6.351245	5.650374	16.235599	5.699062	3.333052	-0.472478	-1.403920	6.012440	-0.549360	0.840086	-0.253600	0.466429	-1.000000	-1.000000	-1.000000	-1.000000	-1.000000	-1.000000	-1.000000	81.655172	0.000000	-1.000000	-1.000000	757706.000000	1774905450.000036
19077.930000	-17713.215000	12451.455000	26628.930000	10111.635000	-43528.140000	-36193.455000	-20344.680000	6.656449	-1.272772	1.532982	-0.761647	2.590466	-0.191350	-0.743973	-4.157205	-1.403920	6.012440	-0.549360	0.840086	-0.253600	0.466429	-1.000000	-1.000000	-1.000000	-1.000000	-1.000000	-1.000000	-1.000000	81.655172	0.000000	-1.000000	-1.000000	757707.000000	1774905450.000121
19055.385000	-17739.045000	12442.500000	26619.750000	10109.520000	-43532.595000	-36202.455000	-20339.955000	5.000610	-4.019454	-3.058100	-5.424492	-11.149769	-6.062393	-5.184144	-6.090579	-1.403920	6.012440	-0.549360	0.840086	-0.253600	0.466429	-1.000000	-1.000000	-1.000000	-1.000000	-1.000000	-1.000000	-1.000000	81.655172	0.000000	-1.000000	-1.000000	757708.000000	1774905450.000127
19046.430000	-17731.980000	12451.095000	26633.295000	10121.400000	-43509.465000	-36184.050000	-20326.770000	0.671857	-5.888721	-5.506492	-6.467161	-16.418393	-8.519452	-6.979127	-5.316419	-1.403920	6.012440	-0.549360	0.840086	-0.253600	0.466429	-1.000000	-1.000000	-1.000000	-1.000000	-1.000000	-1.000000	-1.000000	81.655172	0.000000	-1.000000	-1.000000	757709.000000	1774905450.003701
19085.130000	-17685.900000	12487.410000	26669.295000	10151.145000	-43479.675000	-36156.060000	-20296.440000	-5.726656	-6.000256	-5.018666	-3.811683	-11.520234	-5.574221	-3.888290	-1.321507	-1.403920	6.012440	-0.549360	0.840086	-0.253600	0.466429	-1.000000	-1.000000	-1.000000	-1.000000	-1.000000	-1.000000	-1.000000	81.655172	0.000000	-1.000000	-1.000000	757710.000000	1774905450.003715
19092.285000	-17696.610000	12474.585000	26667.405000	10145.070000	-43481.835000	-36151.110000	-20288.250000	-9.737850	-2.934268	-1.895148	0.981882	-2.234451	1.278821	3.166365	5.123157	0.854560	5.905620	-0.854560	0.837705	-0.252258	0.466918	-1.000000	-1.000000	-1.000000	-1.000000	-1.000000	-1.000000	-1.000000	81.655172	0.000000	-1.000000	-1.000000	757711.000000	1774905450.007663
19128.645000	-17663.175000	12514.455000	26707.095000	10179.360000	-43448.580000	-36125.415000	-20268.090000	-7.359133	2.373912	1.812164	4.703279	3.521754	7.238715	9.884750	11.233122	0.854560	5.905620	-0.854560	0.837705	-0.252258	0.466918	-1.000000	-1.000000	-1.000000	-1.000000	-1.000000	-1.000000	-1.000000	81.655172	0.000000	-1.000000	-1.000000	757712.000000	1774905450.007670
19163.475000	-17602.065000	12570.480000	26742.105000	10223.415000	-43403.760000	-36098.055000	-20248.290000	0.475350	7.392990	4.567958	5.238558	3.419322	8.869209	12.267136	13.650977	0.854560	5.905620	-0.854560	0.837705	-0.252258	0.466918	-1.000000	-1.000000	-1.000000	-1.000000	-1.000000	-1.000000	-1.000000	81.655172	0.000000	-1.000000	-1.000000	757713.000000	1774905450.011752
19122.255000	-17635.410000	12518.550000	26668.980000	10168.200000	-43453.440000	-36149.220000	-20311.380000	7.605327	9.907767	5.699988	2.066076	0.670298	6.023388	8.823720	9.940053	0.854560	5.905620	-0.854560	0.837705	-0.252258	0.466918	-1.000000	-1.000000	-1.000000	-1.000000	-1.000000	-1.000000	-1.000000	81.655172	0.000000	-1.000000	-1.000000	757714.000000	1774905450.011763
19067.580000	-17691.120000	12458.745000	26612.685000	10109.700000	-43512.480000	-36209.745000	-20363.265000	6.664231	6.797642	2.253640	-6.020356	-3.357663	-1.353202	-0.697594	-0.849885	0.854560	5.905620	-0.854560	0.837705	-0.252258	0.466918	-1.000000	-1.000000	-1.000000	-1.000000	-1.000000	-1.000000	-1.000000	81.655172	0.000000	-1.000000	-1.000000	757715.000000	1774905450.015718
18979.965000	-17793.000000	12369.420000	26558.370000	10047.960000	-43577.685000	-36243.945000	-20422.845000	-4.602196	-4.252328	-8.541996	-18.109271	-10.127968	-12.875107	-14.098520	-16.322944	0.854560	5.905620	-0.854560	0.837705	-0.252258	0.466918	-1.000000	-1.000000	-1.000000	-1.000000	-1.000000	-1.000000	-1.000000	81.655172	0.000000	-1.000000	-1.000000	757716.000000	1774905450.015725
18998.955000	-17770.950000	12404.835000	26592.120000	10078.380000	-43553.205000	-36202.995000	-20415.645000	-19.556247	-19.370332	-22.438342	-27.204620	-17.317746	-23.766119	-24.156515	-29.359141	0.854560	5.905620	-0.854560	0.837705	-0.252258	0.466918	-1.000000	-1.000000	-1.000000	-1.000000	-1.000000	-1.000000	-1.000000	81.655172	0.000000	-1.000000	-1.000000	757717.000000	1774905450.019845
18996.885000	-17757.765000	12414.960000	26593.560000	10082.880000	-43549.650000	-36192.105000	-20406.105000	-26.406724	-28.147443	-28.351401	-24.358832	-17.638202	-25.928573	-22.659134	-31.189607	0.854560	5.905620	-0.854560	0.837705	-0.252258	0.466918	-1.000000	-1.000000	-1.000000	-1.000000	-1.000000	-1.000000	-1.000000	81.655172	0.000000	-1.000000	-1.000000	757718.000000	1774905450.019853
19011.870000	-17752.815000	12419.280000	26602.155000	10081.845000	-43541.955000	-36181.395000	-20342.970000	-18.498030	-22.705071	-18.987969	-8.112530	-7.562364	-15.449383	-8.852534	-17.577094	0.854560	5.905620	-0.854560	0.837705	-0.252258	0.466918	-1.000000	-1.000000	-1.000000	-1.000000	-1.000000	-1.000000	-1.000000	81.655172	0.000000	-1.000000	-1.000000	757719.000000	1774905450.023839
19027.935000	-17760.195000	12411.630000	26595.990000	10055.070000	-43556.040000	-36196.740000	-20312.100000	0.466784	-5.304938	1.393196	13.123083	7.288062	2.868017	9.025807	7.557757	0.854560	5.905620	-0.854560	0.837705	-0.252258	0.466918	-1.000000	-1.000000	-1.000000	-1.000000	-1.000000	-1.000000	-1.000000	81.655172	0.000000	-1.000000	-1.000000	757720.000000	1774905450.023849
19052.235000	-17762.580000	12391.515000	26570.610000	10045.935000	-43568.190000	-36210.690000	-20322.045000	20.569540	13.881285	20.582370	27.439486	17.340427	18.779087	20.281179	32.488586	-1.693860	5.112100	-2.716280	0.832884	-0.243530	0.465392	-1.000000	-1.000000	-1.000000	-1.000000	-1.000000	-1.000000	-1.000000	81.655172	0.000000	-1.000000	-1.000000	757721.000000	1774905450.027876
19043.460000	-17785.665000	12358.935000	26528.130000	10026.405000	-43582.770000	-36226.935000	-20366.955000	31.863103	24.049790	27.352421	27.177248	17.349754	23.995008	19.348103	43.052849	-1.693860	5.112100	-2.716280	0.832884	-0.243530	0.465392	-1.000000	-1.000000	-1.000000	-1.000000	-1.000000	-1.000000	-1.000000	81.655172	0.000000	-1.000000	-1.000000	757722.000000	1774905450.027889
19009.665000	-17797.455000	12377.385000	26518.500000	10007.685000	-43587.540000	-36235.350000	-20391.030000	29.791755	21.804769	20.773178	15.070811	10.623103	18.955138	9.956936	33.423860	-1.693860	5.112100	-2.716280	0.832884	-0.243530	0.465392	-1.000000	-1.000000	-1.000000	-1.000000	-1.000000	-1.000000	-1.000000	81.655172	0.000000	-1.000000	-1.000000	757723.000000	1774905450.031890
19021.905000	-17761.995000	12420.495000	26559.090000	10036.620000	-43564.995000	-36224.145000	-20369.340000	18.044500	14.164884	11.516981	2.927686	5.651144	11.959767	1.664030	11.653851	-1.693860	5.112100	-2.716280	0.832884	-0.243530	0.465392	-1.000000	-1.000000	-1.000000	-1.000000	-1.000000	-1.000000	-1.000000	81.655172	0.000000	-1.000000	-1.000000	757724.000000	1774905450.031902
19039.635000	-17748.765000	12429.405000	26596.170000	10064.790000	-43556.445000	-36218.340000	-20352.150000	5.595110	11.095186	9.928925	0.916664	8.015708	10.018606	0.533919	-7.716277	-1.693860	5.112100	-2.716280	0.832884	-0.243530	0.465392	-1.000000	-1.000000	-1.000000	-1.000000	-1.000000	-1.000000	-1.000000	81.655172	0.000000	-1.000000	-1.000000	757725.000000	1774905450.035900
19032.210000	-17752.860000	12392.190000	26592.930000	10084.590000	-43541.775000	-36210.465000	-20349.315000	-1.781914	13.602698	13.473460	7.723763	14.863832	11.609580	3.863370	-16.143403	-1.693860	5.112100	-2.716280	0.832884	-0.243530	0.465392	-1.000000	-1.000000	-1.000000	-1.000000	-1.000000	-1.000000	-1.000000	81.655172	0.000000	-1.000000	-1.000000	757726.000000	1774905450.035913
19032.210000	-17740.215000	12379.590000	26587.125000	10089.945000	-43540.065000	-36205.020000	-20346.435000	-6.024326	13.154143	10.612162	12.591785	17.536694	9.843026	4.839346	-15.852453	-1.693860	5.112100	-2.716280	0.832884	-0.243530	0.465392	-1.000000	-1.000000	-1.000000	-1.000000	-1.000000	-1.000000	-1.000000	81.655172	0.000000	-1.000000	-1.000000	757727.000000	1774905450.046973
19021.635000	-17747.415000	12407.760000	26591.670000	10076.130000	-43551.630000	-36200.025000	-20363.400000	-11.165687	3.786182	-3.018042	7.313384	10.197947	0.986401	0.549162	-14.200481	-1.693860	5.112100	-2.716280	0.832884	-0.243530	0.465392	-1.000000	-1.000000	-1.000000	-1.000000	-1.000000	-1.000000	-1.000000	81.655172	0.000000	-1.000000	-1.000000	757728.000000	1774905450.046984
19022.490000	-17758.215000	12443.130000	26601.345000	10055.385000	-43543.215000	-36199.890000	-20391.030000	-17.575176	-11.529201	-18.700919	-6.143559	-5.394679	-12.012209	-6.233853	-15.779502	-1.693860	5.112100	-2.716280	0.832884	-0.243530	0.465392	-1.000000	-1.000000	-1.000000	-1.000000	-1.000000	-1.000000	-1.000000	81.655172	0.000000	-1.000000	-1.000000	757729.000000	1774905450.046996
19038.780000	-17743.995000	12459.870000	26610.030000	10039.545000	-43530.120000	-36194.490000	-20392.245000	-22.076794	-25.116426	-24.985171	-18.870472	-22.220146	-22.200133	-10.910701	-18.485985	-1.693860	5.112100	-2.716280	0.832884	-0.243530	0.465392	-1.000000	-1.000000	-1.000000	-1.000000	-1.000000	-1.000000	-1.000000	81.655172	0.000000	-1.000000	-1.000000	757730.000000	1774905450.047001
19025.730000	-17745.840000	12438.630000	26593.830000	10056.735000	-43537.050000	-36192.465000	-20380.050000	-20.286865	-29.581270	-18.648296	-22.680765	-31.652271	-23.667598	-10.474677	-15.323011	-5.554640	4.547480	-2.884140	0.834532	-0.243347	0.465148	-1.000000	-1.000000	-1.000000	-1.000000	-1.000000	-1.000000	-1.000000	81.655172	0.000000	-1.000000	-1.000000	757731.000000	1774905450.047812
19027.485000	-17748.630000	12431.205000	26593.155000	10083.330000	-43535.700000	-36193.455000	-20360.205000	-10.165129	-22.002240	-6.078863	-16.105379	-27.206096	-15.678670	-4.909175	-1.921194	-5.554640	4.547480	-2.884140	0.834532	-0.243347	0.465148	-1.000000	-1.000000	-1.000000	-1.000000	-1.000000	-1.000000	-1.000000	81.655172	0.000000	-1.000000	-1.000000	757732.000000	1774905450.047822
19041.255000	-17742.240000	12432.105000	26601.030000	10102.905000	-43523.100000	-36190.530000	-20343.780000	5.213277	-6.473650	3.560489	-4.876290	-10.033331	-2.798504	2.531912	17.041826	-5.554640	4.547480	-2.884140	0.834532	-0.243347	0.465148	-1.000000	-1.000000	-1.000000	-1.000000	-1.000000	-1.000000	-1.000000	81.655172	0.000000	-1.000000	-1.000000	757733.000000	1774905450.051827
19036.755000	-17743.320000	12417.480000	26599.320000	10109.115000	-43526.745000	-36193.365000	-20352.690000	18.732509	8.834712	5.927059	3.502483	9.950745	8.348993	7.089891	30.484350	-5.554640	4.547480	-2.884140	0.834532	-0.243347	0.465148	-1.000000	-1.000000	-1.000000	-1.000000	-1.000000	-1.000000	-1.000000	81.655172	0.000000	-1.000000	-1.000000	757734.000000	1774905450.051837
19036.755000	-17749.080000	12389.760000	26588.700000	10105.245000	-43526.700000	-36183.870000	-20343.195000	23.569620	16.896219	2.607837	5.437670	21.141162	12.611429	5.975144	29.854983	-5.554640	4.547480	-2.884140	0.834532	-0.243347	0.465148	-1.000000	-1.000000	-1.000000	-1.000000	-1.000000	-1.000000	-1.000000	81.655172	0.000000	-1.000000	-1.000000	757735.000000	1774905450.055724
19035.450000	-17757.405000	12383.550000	26581.590000	10095.930000	-43536.195000	-36184.680000	-20336.265000	17.831478	15.193184	-2.489894	2.423371	18.648366	9.104075	0.502116	15.551492	-5.554640	4.547480	-2.884140	0.834532	-0.243347	0.465148	-1.000000	-1.000000	-1.000000	-1.000000	-1.000000	-1.000000	-1.000000	81.655172	0.000000	-1.000000	-1.000000	757736.000000	1774905450.055730
19050.795000	-17738.820000	12425.310000	26607.960000	10121.940000	-43517.655000	-36182.790000	-20333.520000	5.662469	6.993689	-5.642696	-1.283361	7.132040	1.803994	-5.309818	-3.968540	-5.554640	4.547480	-2.884140	0.834532	-0.243347	0.465148	-1.000000	-1.000000	-1.000000	-1.000000	-1.000000	-1.000000	-1.000000	81.655172	0.000000	-1.000000	-1.000000	757737.000000	1774905450.062368
19058.760000	-17691.255000	12482.235000	26649.945000	10137.510000	-43485.795000	-36162.810000	-20315.970000	-6.254533	-0.575662	-3.792709	-1.352019	-3.562644	-3.406492	-7.657379	-18.204531	-5.554640	4.547480	-2.884140	0.834532	-0.243347	0.465148	-1.000000	-1.000000	-1.000000	-1.000000	-1.000000	-1.000000	-1.000000	81.655172	0.000000	-1.000000	-1.000000	757738.000000	1774905450.062380
19073.880000	-17656.875000	12526.740000	26692.920000	10146.015000	-43454.565000	-36152.370000	-20298.600000	-12.874954	-1.747456	4.378358	4.445500	-6.678226	-2.788489	-4.854330	-20.744317	-5.554640	4.547480	-2.884140	0.834532	-0.243347	0.465148	-1.000000	-1.000000	-1.000000	-1.000000	-1.000000	-1.000000	-1.000000	81.655172	0.000000	-1.000000	-1.000000	757739.000000	1774905450.063697
19092.060000	-17683.020000	12512.385000	26679.240000	10127.745000	-43490.655000	-36165.240000	-20308.590000	-11.965564	2.966129	15.755875	13.809475	-3.390455	2.484143	1.476228	-12.798169	-5.554640	4.547480	-2.884140	0.834532	-0.243347	0.465148	-1.000000	-1.000000	-1.000000	-1.000000	-1.000000	-1.000000	-1.000000	81.655172	0.000000	-1.000000	-1.000000	757740.000000	1774905450.063708
19081.755000	-17711.955000	12469.185000	26648.055000	10117.980000	-43525.305000	-36184.005000	-20322.180000	-4.893047	6.822318	21.888878	19.069389	-0.211183	6.274800	6.792375	-2.184453	-2.884140	3.494540	-3.952340	0.835935	-0.249450	0.466124	-1.000000	-1.000000	-1.000000	-1.000000	-1.000000	-1.000000	-1.000000	81.655172	0.000000	-1.000000	-1.000000	757741.000000	1774905450.072642
19055.385000	-17740.260000	12424.590000	26612.955000	10088.325000	-43543.395000	-36195.930000	-20347.245000	2.524636	3.298145	14.873817	12.498609	-2.296339	2.901829	6.935995	2.891661	-2.884140	3.494540	-3.952340	0.835935	-0.249450	0.466124	-1.000000	-1.000000	-1.000000	-1.000000	-1.000000	-1.000000	-1.000000	81.655172	0.000000	-1.000000	-1.000000	757742.000000	1774905450.072653
19103.355000	-17677.350000	12465.090000	26650.035000	10138.140000	-43477.875000	-36159.255000	-20300.400000	4.988877	-6.271869	-3.034036	-4.530010	-8.275154	-5.505760	2.195369	0.949655	-2.884140	3.494540	-3.952340	0.835935	-0.249450	0.466124	-1.000000	-1.000000	-1.000000	-1.000000	-1.000000	-1.000000	-1.000000	81.655172	0.000000	-1.000000	-1.000000	757743.000000	1774905450.072664
19168.785000	-17595.405000	12538.845000	26701.065000	10207.125000	-43393.770000	-36119.745000	-20240.190000	4.160093	-12.217041	-18.119388	-19.848255	-10.347264	-9.244541	-2.362558	-1.832021	-2.884140	3.494540	-3.952340	0.835935	-0.249450	0.466124	-1.000000	-1.000000	-1.000000	-1.000000	-1.000000	-1.000000	-1.000000	81.655172	0.000000	-1.000000	-1.000000	757744.000000	1774905450.072670
19119.555000	-17651.790000	12511.935000	26672.130000	10174.905000	-43431.615000	-36144.720000	-20301.705000	4.152266	-7.613519	-18.900209	-22.255549	-2.919292	-2.259386	-2.538098	-0.179200	-2.884140	3.494540	-3.952340	0.835935	-0.249450	0.466124	-1.000000	-1.000000	-1.000000	-1.000000	-1.000000	-1.000000	-1.000000	81.655172	0.000000	-1.000000	-1.000000	757745.000000	1774905450.075733
19001.565000	-17773.515000	12434.895000	26601.075000	10085.580000	-43557.480000	-36206.280000	-20392.830000	1.806453	0.152363	-10.303302	-14.221985	7.619447	7.062250	-0.774318	2.007478	-2.884140	3.494540	-3.952340	0.835935	-0.249450	0.466124	-1.000000	-1.000000	-1.000000	-1.000000	-1.000000	-1.000000	-1.000000	81.655172	0.000000	-1.000000	-1.000000	757746.000000	1774905450.075740
18908.145000	-17854.695000	12340.755000	26511.030000	9985.860000	-43648.290000	-36256.095000	-20441.340000	-9.917720	-3.362956	-7.612447	-8.331805	8.053263	3.192673	-3.299168	-2.728176	-2.884140	3.494540	-3.952340	0.835935	-0.249450	0.466124	-1.000000	-1.000000	-1.000000	-1.000000	-1.000000	-1.000000	-1.000000	81.655172	0.000000	-1.000000	-1.000000	757747.000000	1774905450.080493
18960.030000	-17812.845000	12372.390000	26559.360000	10023.255000	-43608.825000	-36231.210000	-20394.405000	-27.566338	-19.033679	-16.213976	-10.663400	-4.688046	-15.423233	-10.649706	-12.616241	-2.884140	3.494540	-3.952340	0.835935	-0.249450	0.466124	-1.000000	-1.000000	-1.000000	-1.000000	-1.000000	-1.000000	-1.000000	81.655172	0.000000	-1.000000	-1.000000	757748.000000	1774905450.080509
19015.155000	-17784.720000	12394.980000	26586.810000	10044.630000	-43581.015000	-36213.660000	-20356.470000	-34.554444	-29.223095	-23.524543	-12.397285	-17.539921	-30.239422	-14.637616	-15.896469	-2.884140	3.494540	-3.952340	0.835935	-0.249450	0.466124	-1.000000	-1.000000	-1.000000	-1.000000	-1.000000	-1.000000	-1.000000	81.655172	0.000000	-1.000000	-1.000000	757749.000000	1774905450.085170
19059.705000	-17754.300000	12419.055000	26594.100000	10066.005000	-43555.995000	-36202.905000	-20339.685000	-17.855036	-17.393584	-13.910439	-2.142645	-15.684846	-22.700752	-7.650885	-4.358417	-2.884140	3.494540	-3.952340	0.835935	-0.249450	0.466124	-1.000000	-1.000000	-1.000000	-1.000000	-1.000000	-1.000000	-1.000000	81.655172	0.000000	-1.000000	-1.000000	757750.000000	1774905450.085180
19066.545000	-17730.135000	12445.335000	26597.880000	10102.005000	-43518.465000	-36185.670000	-20330.640000	16.656632	13.518680	13.157435	18.422500	2.182333	5.868247	8.068191	16.625217	0.869820	2.823100	-3.479280	0.835020	-0.249084	0.467162	-1.000000	-1.000000	-1.000000	-1.000000	-1.000000	-1.000000	-1.000000	81.655172	0.000000	-1.000000	-1.000000	757751.000000	1774905450.087752
19040.760000	-17727.885000	12441.105000	26585.910000	10100.655000	-43519.860000	-36188.235000	-20336.130000	46.909607	43.336963	41.519627	35.520126	23.674562	36.028846	22.011783	32.157844	0.869820	2.823100	-3.479280	0.835020	-0.249084	0.467162	-1.000000	-1.000000	-1.000000	-1.000000	-1.000000	-1.000000	-1.000000	81.655172	0.000000	-1.000000	-1.000000	757752.000000	1774905450.087758
19020.240000	-17741.520000	12420.270000	26588.565000	10081.530000	-43542.270000	-36197.235000	-20360.205000	51.953137	51.485619	51.259072	36.304722	33.014680	46.645594	24.265870	30.076541	0.869820	2.823100	-3.479280	0.835020	-0.249084	0.467162	-1.000000	-1.000000	-1.000000	-1.000000	-1.000000	-1.000000	-1.000000	81.655172	0.000000	-1.000000	-1.000000	757753.000000	1774905450.091648
19008.225000	-17773.920000	12391.965000	26583.120000	10065.240000	-43557.615000	-36205.470000	-20419.470000	30.011917	33.956764	35.045516	20.407595	24.184468	32.137758	13.949189	11.325288	0.869820	2.823100	-3.479280	0.835020	-0.249084	0.467162	-1.000000	-1.000000	-1.000000	-1.000000	-1.000000	-1.000000	-1.000000	81.655172	0.000000	-1.000000	-1.000000	757754.000000	1774905450.091654
19014.300000	-17767.980000	12404.475000	26587.035000	10073.385000	-43547.445000	-36204.705000	-20432.160000	-0.568896	5.206975	4.331827	-0.387781	6.074364	6.321907	-0.371061	-11.111396	0.869820	2.823100	-3.479280	0.835020	-0.249084	0.467162	-1.000000	-1.000000	-1.000000	-1.000000	-1.000000	-1.000000	-1.000000	81.655172	0.000000	-1.000000	-1.000000	757755.000000	1774905450.096714
19019.700000	-17754.030000	12430.170000	26594.370000	10080.315000	-43539.705000	-36198.495000	-20390.040000	-19.545382	-16.449843	-20.829632	-13.496943	-7.280754	-12.339068	-9.211156	-23.222404	0.869820	2.823100	-3.479280	0.835020	-0.249084	0.467162	-1.000000	-1.000000	-1.000000	-1.000000	-1.000000	-1.000000	-1.000000	81.655172	0.000000	-1.000000	-1.000000	757756.000000	1774905450.096727
19025.505000	-17752.320000	12429.450000	26596.350000	10079.550000	-43539.885000	-36193.230000	-20368.575000	-21.934056	-23.596682	-28.640275	-15.846094	-10.654128	-17.380209	-10.065776	-20.021357	0.869820	2.823100	-3.479280	0.835020	-0.249084	0.467162	-1.000000	-1.000000	-1.000000	-1.000000	-1.000000	-1.000000	-1.000000	81.655172	0.000000	-1.000000	-1.000000	757757.000000	1774905450.099734
19042.200000	-17741.430000	12439.035000	26603.955000	10091.205000	-43530.345000	-36187.515000	-20367.945000	-16.395252	-20.577799	-21.956336	-12.809778	-9.118565	-14.551360	-6.760902	-7.498562	0.869820	2.823100	-3.479280	0.835020	-0.249084	0.467162	-1.000000	-1.000000	-1.000000	-1.000000	-1.000000	-1.000000	-1.000000	81.655172	0.000000	-1.000000	-1.000000	757758.000000	1774905450.099745
19050.795000	-17725.275000	12459.645000	26636.535000	10126.710000	-43498.575000	-36167.940000	-20343.780000	-11.580550	-14.361616	-10.135778	-9.129682	-8.128643	-10.800411	-3.527045	4.484364	0.869820	2.823100	-3.479280	0.835020	-0.249084	0.467162	-1.000000	-1.000000	-1.000000	-1.000000	-1.000000	-1.000000	-1.000000	81.655172	0.000000	-1.000000	-1.000000	757759.000000	1774905450.105080
19065.915000	-17705.340000	12481.560000	26660.070000	10150.695000	-43476.390000	-36150.570000	-20295.450000	-9.085829	-8.786114	-0.272484	-5.129062	-8.222037	-8.527765	-1.854306	10.626760	0.869820	2.823100	-3.479280	0.835020	-0.249084	0.467162	-1.000000	-1.000000	-1.000000	-1.000000	-1.000000	-1.000000	-1.000000	81.655172	0.000000	-1.000000	-1.000000	757760.000000	1774905450.105092
19076.535000	-17710.695000	12467.295000	26639.865000	10127.970000	-43496.730000	-36164.340000	-20284.830000	-6.300725	-5.034709	4.339615	-0.930677	-8.203872	-7.582327	-1.671908	11.207928	-1.571780	2.655240	-3.586100	0.840025	-0.244750	0.466368	-1.000000	-1.000000	-1.000000	-1.000000	-1.000000	-1.000000	-1.000000	81.655172	0.000000	-1.000000	-1.000000	757761.000000	1774905450.107663
19075.770000	-17724.465000	12444.615000	26617.095000	10092.465000	-43518.375000	-36184.500000	-20305.035000	-1.051687	-2.574003	3.388389	0.951314	-7.907928	-7.181925	-2.707020	8.419240	-1.571780	2.655240	-3.586100	0.840025	-0.244750	0.466368	-1.000000	-1.000000	-1.000000	-1.000000	-1.000000	-1.000000	-1.000000	81.655172	0.000000	-1.000000	-1.000000	757762.000000	1774905450.107671
19055.520000	-17742.735000	12426.615000	26596.890000	10069.560000	-43545.015000	-36205.605000	-20341.530000	5.946746	0.362840	-0.724107	-1.063618	-7.185928	-5.826547	-4.178807	4.186576	-1.571780	2.655240	-3.586100	0.840025	-0.244750	0.466368	-1.000000	-1.000000	-1.000000	-1.000000	-1.000000	-1.000000	-1.000000	81.655172	0.000000	-1.000000	-1.000000	757763.000000	1774905450.112367
19015.335000	-17779.680000	12399.750000	26569.395000	10056.555000	-43563.735000	-36217.980000	-20383.560000	10.872732	3.943694	-4.773239	-5.075617	-5.060366	-2.609956	-4.813125	-1.347967	-1.571780	2.655240	-3.586100	0.840025	-0.244750	0.466368	-1.000000	-1.000000	-1.000000	-1.000000	-1.000000	-1.000000	-1.000000	81.655172	0.000000	-1.000000	-1.000000	757764.000000	1774905450.112375
19018.665000	-17772.795000	12401.730000	26581.725000	10075.770000	-43541.910000	-36203.130000	-20375.595000	9.514597	5.487406	-7.122132	-7.806051	-0.899269	1.663759	-3.672896	-9.450461	-1.571780	2.655240	-3.586100	0.840025	-0.244750	0.466368	-1.000000	-1.000000	-1.000000	-1.000000	-1.000000	-1.000000	-1.000000	81.655172	0.000000	-1.000000	-1.000000	757765.000000	1774905450.117804
19008.045000	-17759.835000	12407.580000	26599.410000	10088.595000	-43531.605000	-36194.850000	-20355.930000	1.612324	3.734831	-6.941678	-6.692669	4.709848	5.945826	-0.495911	-18.099448	-1.571780	2.655240	-3.586100	0.840025	-0.244750	0.466368	-1.000000	-1.000000	-1.000000	-1.000000	-1.000000	-1.000000	-1.000000	81.655172	0.000000	-1.000000	-1.000000	757766.000000	1774905450.117814
19001.070000	-17747.055000	12437.325000	26606.655000	10083.330000	-43539.615000	-36202.905000	-20360.160000	-8.449789	1.076089	-3.092104	-1.081110	9.621949	9.035160	3.681512	-21.246898	-1.571780	2.655240	-3.586100	0.840025	-0.244750	0.466368	-1.000000	-1.000000	-1.000000	-1.000000	-1.000000	-1.000000	-1.000000	81.655172	0.000000	-1.000000	-1.000000	757767.000000	1774905450.119744
19038.825000	-17738.730000	12443.895000	26603.235000	10071.495000	-43541.595000	-36201.240000	-20361.645000	-14.449427	-0.074827	3.849671	6.125346	10.265209	8.515407	6.239599	-15.790776	-1.571780	2.655240	-3.586100	0.840025	-0.244750	0.466368	-1.000000	-1.000000	-1.000000	-1.000000	-1.000000	-1.000000	-1.000000	81.655172	0.000000	-1.000000	-1.000000	757768.000000	1774905450.119754
19066.185000	-17731.215000	12437.370000	26594.145000	10029.330000	-43541.865000	-36190.530000	-20356.335000	-11.551743	0.259785	10.188291	10.138167	4.399664	3.367687	5.447205	-5.152476	-1.571780	2.655240	-3.586100	0.840025	-0.244750	0.466368	-1.000000	-1.000000	-1.000000	-1.000000	-1.000000	-1.000000	-1.000000	81.655172	0.000000	-1.000000	-1.000000	757769.000000	1774905450.123748
19080.405000	-17707.050000	12456.990000	26613.450000	10054.620000	-43519.005000	-36176.580000	-20335.995000	-0.064291	1.586471	12.553997	9.425596	-4.574797	-2.602780	3.105556	5.840075	-1.571780	2.655240	-3.586100	0.840025	-0.244750	0.466368	-1.000000	-1.000000	-1.000000	-1.000000	-1.000000	-1.000000	-1.000000	81.655172	0.000000	-1.000000	-1.000000	757770.000000	1774905450.123757
19059.795000	-17712.045000	12464.325000	26626.950000	10087.965000	-43500.465000	-36174.690000	-20335.545000	13.615107	4.455726	11.603096	7.236388	-7.916757	-3.111051	2.695991	15.683613	-2.777320	2.868880	-2.685760	0.843137	-0.243591	0.468138	-1.000000	-1.000000	-1.000000	-1.000000	-1.000000	-1.000000	-1.000000	81.655172	0.000000	-1.000000	-1.000000	757771.000000	1774905450.130554
19030.635000	-17722.170000	12456.630000	26619.795000	10106.235000	-43503.660000	-36179.190000	-20355.255000	21.276157	8.251910	9.561157	6.857384	0.008323	3.740660	5.046102	23.652393	-2.777320	2.868880	-2.685760	0.843137	-0.243591	0.468138	-1.000000	-1.000000	-1.000000	-1.000000	-1.000000	-1.000000	-1.000000	81.655172	0.000000	-1.000000	-1.000000	757772.000000	1774905450.130566
19036.620000	-17742.555000	12432.645000	26594.910000	10097.505000	-43539.255000	-36193.905000	-20350.350000	18.739668	9.784570	6.153131	7.108560	14.033639	11.890922	7.036308	26.317735	-2.777320	2.868880	-2.685760	0.843137	-0.243591	0.468138	-1.000000	-1.000000	-1.000000	-1.000000	-1.000000	-1.000000	-1.000000	81.655172	0.000000	-1.000000	-1.000000	757773.000000	1774905450.133174
19063.440000	-17741.655000	12420.720000	26582.580000	10083.645000	-43546.185000	-36198.540000	-20314.440000	8.428228	5.872445	-0.429293	3.768293	21.820548	12.227164	4.609379	20.396653	-2.777320	2.868880	-2.685760	0.843137	-0.243591	0.468138	-1.000000	-1.000000	-1.000000	-1.000000	-1.000000	-1.000000	-1.000000	81.655172	0.000000	-1.000000	-1.000000	757774.000000	1774905450.133182
19098.000000	-17700.795000	12434.175000	26620.425000	10115.145000	-43489.170000	-36175.140000	-20288.430000	-2.889922	-2.603728	-9.503685	-4.261819	15.762875	2.804621	-2.427489	7.531597	-2.777320	2.868880	-2.685760	0.843137	-0.243591	0.468138	-1.000000	-1.000000	-1.000000	-1.000000	-1.000000	-1.000000	-1.000000	81.655172	0.000000	-1.000000	-1.000000	757775.000000	1774905450.141092
19104.165000	-17682.120000	12451.005000	26657.865000	10152.045000	-43460.235000	-36168.120000	-20304.990000	-9.461299	-10.268859	-16.829682	-11.731115	0.314485	-8.251587	-9.332675	-6.754985	-2.777320	2.868880	-2.685760	0.843137	-0.243591	0.468138	-1.000000	-1.000000	-1.000000	-1.000000	-1.000000	-1.000000	-1.000000	81.655172	0.000000	-1.000000	-1.000000	757776.000000	1774905450.141104
19075.095000	-17696.790000	12467.205000	26662.950000	10163.835000	-43470.630000	-36173.790000	-20335.275000	-11.417683	-12.799254	-17.845702	-12.495620	-13.300699	-12.718095	-11.670141	-18.320741	-2.777320	2.868880	-2.685760	0.843137	-0.243591	0.468138	-1.000000	-1.000000	-1.000000	-1.000000	-1.000000	-1.000000	-1.000000	81.655172	0.000000	-1.000000	-1.000000	757777.000000	1774905450.141117
19020.420000	-17758.800000	12440.160000	26606.160000	10085.985000	-43543.305000	-36201.195000	-20377.530000	-13.580657	-11.656153	-11.638083	-7.118880	-18.534041	-11.325836	-9.737162	-26.109700	-2.777320	2.868880	-2.685760	0.843137	-0.243591	0.468138	-1.000000	-1.000000	-1.000000	-1.000000	-1.000000	-1.000000	-1.000000	81.655172	0.000000	-1.000000	-1.000000	757778.000000	1774905450.141122
18992.790000	-17792.640000	12410.685000	26582.580000	10059.930000	-43563.960000	-36202.545000	-20387.790000	-18.278378	-11.186180	-2.444293	-2.328893	-18.138367	-10.321410	-6.461684	-29.076949	-2.777320	2.868880	-2.685760	0.843137	-0.243591	0.468138	-1.000000	-1.000000	-1.000000	-1.000000	-1.000000	-1.000000	-1.000000	81.655172	0.000000	-1.000000	-1.000000	757779.000000	1774905450.145531
