Channel1	Channel2	Channel3	Channel4	Channel5	Channel6	Channel7	Channel8	FilteredChannel1	FilteredChannel2	FilteredChannel3	FilteredChannel4	FilteredChannel5	FilteredChannel6	FilteredChannel7	FilteredChannel8	GyroX	GyroY	GyroZ	AccX	AccY	AccZ	PPG1	PPG2	rawPPG1	rawPPG2	rawPPG3	Hr	Hrv	Battery	Trigger	PhysicalTrigger	AutoTrigger	NumMeasurements	Timestamp
4554.495000	13239.765000	17777.295000	32249.295000	6578.100000	-9178.155000	-19174.140000	241467.210000	-14.497676	-13.241435	-14.400121	-15.016054	-13.348777	-6.607096	-0.875496	-3.003128	-14.161280	17.350620	-0.228900	-0.825743	-0.203308	0.471312	-1.000000	-1.000000	-1.000000	-1.000000	-1.000000	-1.000000	-1.000000	80.344828	0.000000	-1.000000	-1.000000	1317558.000000	1769636446.555451
4603.005000	13282.515000	17814.465000	32281.245000	6603.480000	-9162.360000	-19124.280000	241483.275000	-8.975091	-2.332084	-1.764708	-2.343846	-1.762147	-1.364227	-6.413966	-1.829112	-14.161280	17.350620	-0.228900	-0.825743	-0.203308	0.471312	-1.000000	-1.000000	-1.000000	-1.000000	-1.000000	-1.000000	-1.000000	80.344828	0.000000	-1.000000	-1.000000	1317559.000000	1769636446.559296
4620.330000	13305.915000	17835.660000	32298.570000	6616.755000	-9168.120000	-19164.600000	241491.330000	2.439598	10.035819	11.368064	10.642387	10.295870	7.216752	-2.960230	0.021788	-14.161280	17.350620	-0.228900	-0.825743	-0.203308	0.471312	-1.000000	-1.000000	-1.000000	-1.000000	-1.000000	-1.000000	-1.000000	80.344828	0.000000	-1.000000	-1.000000	1317560.000000	1769636446.559307
4575.465000	13264.380000	17800.245000	32270.535000	6599.970000	-9169.875000	-19203.795000	241496.955000	13.347260	17.543974	18.318126	17.323967	16.395687	12.398983	3.119009	1.005377	-14.161280	17.350620	-0.228900	-0.825743	-0.203308	0.471312	-1.000000	-1.000000	-1.000000	-1.000000	-1.000000	-1.000000	-1.000000	80.344828	0.000000	-1.000000	-1.000000	1317561.000000	1769636446.567532
4548.780000	13232.025000	17768.160000	32241.195000	6577.335000	-9170.820000	-19171.890000	241502.085000	15.427879	14.876797	14.807682	14.188507	13.587582	10.748182	4.167153	0.367180	-14.161280	17.350620	-0.228900	-0.825743	-0.203308	0.471312	-1.000000	-1.000000	-1.000000	-1.000000	-1.000000	-1.000000	-1.000000	80.344828	0.000000	-1.000000	-1.000000	1317562.000000	1769636446.567544
4577.985000	13280.400000	17816.760000	32284.305000	6608.610000	-9152.955000	-19095.210000	241507.530000	7.845190	4.371713	4.282657	5.021376	5.739202	5.924204	2.566168	-1.201644	-14.161280	17.350620	-0.228900	-0.825743	-0.203308	0.471312	-1.000000	-1.000000	-1.000000	-1.000000	-1.000000	-1.000000	-1.000000	80.344828	0.000000	-1.000000	-1.000000	1317563.000000	1769636446.567555
4648.365000	13351.905000	17888.580000	32357.970000	6679.485000	-9079.470000	-19053.225000	241508.205000	-0.012577	-3.166856	-2.497235	-0.423869	1.120082	4.089279	5.938070	-2.474469	-14.161280	17.350620	-0.228900	-0.825743	-0.203308	0.471312	-1.000000	-1.000000	-1.000000	-1.000000	-1.000000	-1.000000	-1.000000	80.344828	0.000000	-1.000000	-1.000000	1317564.000000	1769636446.567561
4595.670000	13295.160000	17844.480000	32326.830000	6660.270000	-9097.020000	-19126.620000	241503.030000	-0.335002	-1.498622	-0.111727	2.318694	3.133951	6.417039	13.161551	-2.943326	-14.161280	17.350620	-0.228900	-0.825743	-0.203308	0.471312	-1.000000	-1.000000	-1.000000	-1.000000	-1.000000	-1.000000	-1.000000	80.344828	0.000000	-1.000000	-1.000000	1317565.000000	1769636446.571325
4571.595000	13252.320000	17786.340000	32256.900000	6584.085000	-9175.455000	-19164.915000	241496.370000	2.921428	2.233259	3.513211	5.398965	4.914298	6.592634	14.312094	-2.950118	-14.161280	17.350620	-0.228900	-0.825743	-0.203308	0.471312	-1.000000	-1.000000	-1.000000	-1.000000	-1.000000	-1.000000	-1.000000	80.344828	0.000000	-1.000000	-1.000000	1317566.000000	1769636446.571336
4567.230000	13250.655000	17782.110000	32253.795000	6583.230000	-9166.365000	-19138.320000	241491.510000	0.899445	-1.911608	-2.029397	-1.393412	-2.427299	-2.012889	4.259062	-2.848310	-20.051640	14.161280	1.464960	-0.830808	-0.191894	0.465270	-1.000000	-1.000000	-1.000000	-1.000000	-1.000000	-1.000000	-1.000000	80.344828	0.000000	-1.000000	-1.000000	1317567.000000	1769636446.575606
4571.550000	13252.545000	17785.980000	32262.120000	6599.880000	-9143.910000	-19143.315000	241479.225000	-8.078667	-13.251366	-15.439549	-16.393592	-16.900414	-16.060393	-11.236165	-2.420317	-20.051640	14.161280	1.464960	-0.830808	-0.191894	0.465270	-1.000000	-1.000000	-1.000000	-1.000000	-1.000000	-1.000000	-1.000000	80.344828	0.000000	-1.000000	-1.000000	1317568.000000	1769636446.575615
4558.635000	13235.535000	17779.005000	32268.690000	6622.605000	-9110.340000	-19105.785000	241458.120000	-17.723056	-22.918325	-26.147454	-27.944291	-26.994500	-24.489416	-21.535771	-1.364661	-20.051640	14.161280	1.464960	-0.830808	-0.191894	0.465270	-1.000000	-1.000000	-1.000000	-1.000000	-1.000000	-1.000000	-1.000000	80.344828	0.000000	-1.000000	-1.000000	1317569.000000	1769636446.588703
4560.615000	13241.835000	17779.815000	32260.230000	6604.065000	-9136.440000	-19118.655000	241408.395000	-20.084121	-22.700006	-24.978376	-26.294237	-23.827282	-20.491925	-19.563569	-0.317877	-20.051640	14.161280	1.464960	-0.830808	-0.191894	0.465270	-1.000000	-1.000000	-1.000000	-1.000000	-1.000000	-1.000000	-1.000000	80.344828	0.000000	-1.000000	-1.000000	1317570.000000	1769636446.588716
4574.925000	13257.360000	17786.880000	32252.085000	6579.450000	-9167.265000	-19142.100000	241363.125000	-11.317813	-9.895994	-10.147636	-10.747278	-8.525320	-7.519929	-8.447075	-0.727917	-20.051640	14.161280	1.464960	-0.830808	-0.191894	0.465270	-1.000000	-1.000000	-1.000000	-1.000000	-1.000000	-1.000000	-1.000000	80.344828	0.000000	-1.000000	-1.000000	1317571.000000	1769636446.588729
4582.620000	13267.755000	17799.660000	32265.585000	6592.230000	-9161.460000	-19146.420000	241334.820000	4.528489	9.655025	10.894473	9.910265	9.352083	5.099880	0.971155	-2.804578	-20.051640	14.161280	1.464960	-0.830808	-0.191894	0.465270	-1.000000	-1.000000	-1.000000	-1.000000	-1.000000	-1.000000	-1.000000	80.344828	0.000000	-1.000000	-1.000000	1317572.000000	1769636446.588735
4586.355000	13271.445000	17805.555000	32272.335000	6599.250000	-9156.465000	-19140.795000	241288.650000	17.780214	24.402803	25.929012	23.749100	19.629862	10.359170	2.346166	-4.583473	-20.051640	14.161280	1.464960	-0.830808	-0.191894	0.465270	-1.000000	-1.000000	-1.000000	-1.000000	-1.000000	-1.000000	-1.000000	80.344828	0.000000	-1.000000	-1.000000	1317573.000000	1769636446.588741
4583.070000	13263.795000	17801.235000	32270.580000	6601.455000	-9151.515000	-19127.205000	241235.010000	21.875541	27.261542	28.246654	25.431178	19.548774	8.888109	0.641275	-4.253045	-20.051640	14.161280	1.464960	-0.830808	-0.191894	0.465270	-1.000000	-1.000000	-1.000000	-1.000000	-1.000000	-1.000000	-1.000000	80.344828	0.000000	-1.000000	-1.000000	1317574.000000	1769636446.588746
4581.945000	13259.205000	17794.755000	32263.380000	6596.460000	-9154.845000	-19130.580000	241167.240000	17.438313	20.001738	20.464515	18.600105	14.061957	6.986767	3.833802	-2.253196	-20.051640	14.161280	1.464960	-0.830808	-0.191894	0.465270	-1.000000	-1.000000	-1.000000	-1.000000	-1.000000	-1.000000	-1.000000	80.344828	0.000000	-1.000000	-1.000000	1317575.000000	1769636446.594543
4585.545000	13273.515000	17814.420000	32283.675000	6613.830000	-9143.190000	-19126.305000	241084.935000	8.071142	8.019789	8.684479	9.245103	8.478987	8.225206	11.188372	-0.619364	-20.051640	14.161280	1.464960	-0.830808	-0.191894	0.465270	-1.000000	-1.000000	-1.000000	-1.000000	-1.000000	-1.000000	-1.000000	80.344828	0.000000	-1.000000	-1.000000	1317576.000000	1769636446.594558
4587.570000	13272.525000	17815.455000	32291.190000	6627.330000	-9129.150000	-19114.155000	241005.735000	-2.635500	-3.922941	-2.519350	0.611699	3.733910	9.730184	15.459224	-0.844234	-23.988720	14.954800	-0.503580	-0.832090	-0.186279	0.460936	-1.000000	-1.000000	-1.000000	-1.000000	-1.000000	-1.000000	-1.000000	80.344828	0.000000	-1.000000	-1.000000	1317577.000000	1769636446.595550
4592.385000	13272.705000	17815.005000	32291.820000	6630.435000	-9121.140000	-19101.015000	240921.585000	-10.720357	-12.114480	-10.422815	-6.077070	-1.132322	7.605304	12.739163	-2.180400	-23.988720	14.954800	-0.503580	-0.832090	-0.186279	0.460936	-1.000000	-1.000000	-1.000000	-1.000000	-1.000000	-1.000000	-1.000000	80.344828	0.000000	-1.000000	-1.000000	1317578.000000	1769636446.595561
4616.955000	13297.455000	17837.910000	32311.665000	6644.070000	-9117.630000	-19121.670000	240833.430000	-12.744453	-14.155830	-13.233070	-9.448611	-5.128671	2.371851	4.755193	-2.242558	-23.988720	14.954800	-0.503580	-0.832090	-0.186279	0.460936	-1.000000	-1.000000	-1.000000	-1.000000	-1.000000	-1.000000	-1.000000	80.344828	0.000000	-1.000000	-1.000000	1317579.000000	1769636446.599426
4614.525000	13309.695000	17854.920000	32326.470000	6651.945000	-9121.815000	-19137.285000	240744.960000	-8.621752	-10.306922	-10.645967	-8.429938	-6.015126	-2.388880	-4.894442	0.340234	-23.988720	14.954800	-0.503580	-0.832090	-0.186279	0.460936	-1.000000	-1.000000	-1.000000	-1.000000	-1.000000	-1.000000	-1.000000	80.344828	0.000000	-1.000000	-1.000000	1317580.000000	1769636446.599439
4629.600000	13318.470000	17854.110000	32318.595000	6639.435000	-9132.705000	-19138.455000	240641.325000	-2.388033	-4.128361	-5.432355	-5.017241	-4.622912	-5.383574	-13.082609	4.161839	-23.988720	14.954800	-0.503580	-0.832090	-0.186279	0.460936	-1.000000	-1.000000	-1.000000	-1.000000	-1.000000	-1.000000	-1.000000	80.344828	0.000000	-1.000000	-1.000000	1317581.000000	1769636446.603522
4601.610000	13281.030000	17809.830000	32269.635000	6587.280000	-9182.880000	-19174.770000	240529.455000	1.485284	-0.036663	-2.178994	-3.755766	-5.128936	-8.650446	-17.201233	6.338786	-23.988720	14.954800	-0.503580	-0.832090	-0.186279	0.460936	-1.000000	-1.000000	-1.000000	-1.000000	-1.000000	-1.000000	-1.000000	80.344828	0.000000	-1.000000	-1.000000	1317582.000000	1769636446.603534
4588.650000	13264.920000	17805.195000	32273.370000	6598.755000	-9161.235000	-19163.430000	240424.560000	1.356909	-0.048938	-3.020782	-6.450409	-9.061858	-12.486158	-15.550918	5.458323	-23.988720	14.954800	-0.503580	-0.832090	-0.186279	0.460936	-1.000000	-1.000000	-1.000000	-1.000000	-1.000000	-1.000000	-1.000000	80.344828	0.000000	-1.000000	-1.000000	1317583.000000	1769636446.607495
4619.340000	13306.860000	17846.055000	32311.710000	6635.070000	-9119.925000	-19105.335000	240317.685000	-1.192489	-2.308667	-5.091586	-9.071894	-11.754651	-12.559474	-7.561536	2.906824	-23.988720	14.954800	-0.503580	-0.832090	-0.186279	0.460936	-1.000000	-1.000000	-1.000000	-1.000000	-1.000000	-1.000000	-1.000000	80.344828	0.000000	-1.000000	-1.000000	1317584.000000	1769636446.607506
4612.725000	13326.165000	17870.895000	32334.930000	6652.440000	-9119.970000	-19110.105000	240201.405000	-2.806311	-2.575891	-3.555809	-6.311701	-7.871103	-5.527560	5.128083	1.234422	-23.988720	14.954800	-0.503580	-0.832090	-0.186279	0.460936	-1.000000	-1.000000	-1.000000	-1.000000	-1.000000	-1.000000	-1.000000	80.344828	0.000000	-1.000000	-1.000000	1317585.000000	1769636446.611588
4591.710000	13290.435000	17829.360000	32288.580000	6606.405000	-9163.035000	-19145.025000	240082.155000	-2.018456	0.709485	2.099607	1.238566	0.924327	4.342263	16.046881	1.566944	-23.988720	14.954800	-0.503580	-0.832090	-0.186279	0.460936	-1.000000	-1.000000	-1.000000	-1.000000	-1.000000	-1.000000	-1.000000	80.344828	0.000000	-1.000000	-1.000000	1317586.000000	1769636446.611600
4603.815000	13285.170000	17823.555000	32286.285000	6611.445000	-9144.990000	-19127.655000	239958.225000	-0.282156	4.163556	6.951908	7.420645	7.734699	9.458870	17.774518	3.081274	-18.281480	17.564260	2.334780	-0.824766	-0.196594	0.470397	-1.000000	-1.000000	-1.000000	-1.000000	-1.000000	-1.000000	-1.000000	80.344828	0.000000	-1.000000	-1.000000	1317587.000000	1769636446.615594
4595.130000	13271.085000	17807.985000	32272.110000	6599.160000	-9150.210000	-19118.970000	239831.460000	0.854042	3.792261	6.424656	7.709898	8.678275	8.146314	10.596039	4.291227	-18.281480	17.564260	2.334780	-0.824766	-0.196594	0.470397	-1.000000	-1.000000	-1.000000	-1.000000	-1.000000	-1.000000	-1.000000	80.344828	0.000000	-1.000000	-1.000000	1317588.000000	1769636446.615608
4589.730000	13285.215000	17827.290000	32293.485000	6618.330000	-9139.680000	-19118.835000	239705.190000	0.822252	-0.574995	0.920301	3.146516	5.450806	4.388509	1.352032	4.108835	-18.281480	17.564260	2.334780	-0.824766	-0.196594	0.470397	-1.000000	-1.000000	-1.000000	-1.000000	-1.000000	-1.000000	-1.000000	80.344828	0.000000	-1.000000	-1.000000	1317589.000000	1769636446.620898
4599.405000	13298.220000	17838.135000	32302.710000	6625.710000	-9134.010000	-19111.905000	239570.865000	0.093471	-4.842713	-4.425336	-1.222076	2.340505	2.078885	-4.491898	2.502930	-18.281480	17.564260	2.334780	-0.824766	-0.196594	0.470397	-1.000000	-1.000000	-1.000000	-1.000000	-1.000000	-1.000000	-1.000000	80.344828	0.000000	-1.000000	-1.000000	1317590.000000	1769636446.620909
4594.545000	13289.175000	17836.380000	32308.470000	6635.385000	-9123.930000	-19098.180000	239432.895000	0.571422	-4.030899	-3.973571	-0.463281	2.970715	2.969347	-5.134404	0.435684	-18.281480	17.564260	2.334780	-0.824766	-0.196594	0.470397	-1.000000	-1.000000	-1.000000	-1.000000	-1.000000	-1.000000	-1.000000	80.344828	0.000000	-1.000000	-1.000000	1317591.000000	1769636446.623529
4565.970000	13258.980000	17809.740000	32287.410000	6622.020000	-9125.325000	-19088.910000	239291.235000	2.791151	1.773668	2.048048	4.781831	6.432551	5.460033	-2.137853	-1.192895	-18.281480	17.564260	2.334780	-0.824766	-0.196594	0.470397	-1.000000	-1.000000	-1.000000	-1.000000	-1.000000	-1.000000	-1.000000	80.344828	0.000000	-1.000000	-1.000000	1317592.000000	1769636446.623540
4582.080000	13273.650000	17816.265000	32283.360000	6608.520000	-9145.440000	-19114.290000	239166.270000	4.073316	6.512341	6.836688	7.801948	6.928370	4.723381	-0.416234	-1.820269	-18.281480	17.564260	2.334780	-0.824766	-0.196594	0.470397	-1.000000	-1.000000	-1.000000	-1.000000	-1.000000	-1.000000	-1.000000	80.344828	0.000000	-1.000000	-1.000000	1317593.000000	1769636446.627534
4617.135000	13301.820000	17836.920000	32294.655000	6610.770000	-9157.095000	-19135.395000	239039.505000	3.353414	6.199594	5.603935	4.007203	0.805201	-1.831044	-3.696905	-0.681050	-18.281480	17.564260	2.334780	-0.824766	-0.196594	0.470397	-1.000000	-1.000000	-1.000000	-1.000000	-1.000000	-1.000000	-1.000000	80.344828	0.000000	-1.000000	-1.000000	1317594.000000	1769636446.627546
4604.220000	13290.570000	17824.230000	32279.805000	6591.735000	-9176.625000	-19144.170000	238902.840000	3.073096	3.574155	1.204334	-3.170427	-8.109209	-10.528405	-9.797833	2.389138	-18.281480	17.564260	2.334780	-0.824766	-0.196594	0.470397	-1.000000	-1.000000	-1.000000	-1.000000	-1.000000	-1.000000	-1.000000	80.344828	0.000000	-1.000000	-1.000000	1317595.000000	1769636446.631598
4574.610000	13270.140000	17807.670000	32265.855000	6576.570000	-9217.440000	-19210.770000	238763.745000	3.290043	1.870147	-1.725263	-7.720371	-13.354603	-15.879556	-14.046803	5.888312	-18.281480	17.564260	2.334780	-0.824766	-0.196594	0.470397	-1.000000	-1.000000	-1.000000	-1.000000	-1.000000	-1.000000	-1.000000	80.344828	0.000000	-1.000000	-1.000000	1317596.000000	1769636446.631609
4581.405000	13269.735000	17804.295000	32262.840000	6576.435000	-9232.920000	-19261.170000	238634.280000	1.151237	0.326382	-2.674745	-7.869545	-12.421579	-15.897082	-15.101544	7.687034	-4.578000	20.906200	1.632820	-0.818785	-0.211669	0.478209	-1.000000	-1.000000	-1.000000	-1.000000	-1.000000	-1.000000	-1.000000	80.344828	0.000000	-1.000000	-1.000000	1317597.000000	1769636446.635573
4600.530000	13293.495000	17831.295000	32292.585000	6605.550000	-9195.795000	-19244.025000	238513.005000	-3.055659	-2.122026	-2.923618	-4.982635	-6.442772	-10.573487	-12.999034	7.073930	-4.578000	20.906200	1.632820	-0.818785	-0.211669	0.478209	-1.000000	-1.000000	-1.000000	-1.000000	-1.000000	-1.000000	-1.000000	80.344828	0.000000	-1.000000	-1.000000	1317598.000000	1769636446.635588
4619.385000	13319.460000	17863.065000	32332.590000	6660.540000	-9106.470000	-19112.715000	238403.070000	-5.441385	-3.629338	-1.774248	0.277277	3.044436	1.140566	-3.972455	5.435661	-4.578000	20.906200	1.632820	-0.818785	-0.211669	0.478209	-1.000000	-1.000000	-1.000000	-1.000000	-1.000000	-1.000000	-1.000000	80.344828	0.000000	-1.000000	-1.000000	1317599.000000	1769636446.639666
4627.755000	13312.260000	17851.635000	32325.660000	6671.385000	-9039.060000	-18955.035000	238298.355000	-3.229092	-1.690070	2.011153	7.331854	13.968712	18.836624	16.820021	4.872144	-4.578000	20.906200	1.632820	-0.818785	-0.211669	0.478209	-1.000000	-1.000000	-1.000000	-1.000000	-1.000000	-1.000000	-1.000000	80.344828	0.000000	-1.000000	-1.000000	1317600.000000	1769636446.639678
4623.120000	13312.035000	17851.410000	32322.420000	6659.460000	-9071.415000	-19011.465000	238184.100000	2.201753	2.678751	6.401761	12.664085	21.206685	34.971497	43.495356	5.941128	-4.578000	20.906200	1.632820	-0.818785	-0.211669	0.478209	-1.000000	-1.000000	-1.000000	-1.000000	-1.000000	-1.000000	-1.000000	80.344828	0.000000	-1.000000	-1.000000	1317601.000000	1769636446.643474
4607.820000	13300.920000	17841.240000	32311.980000	6643.440000	-9121.905000	-19081.170000	238066.470000	5.783445	4.853644	6.953658	11.608718	18.808101	36.768343	55.913514	6.756166	-4.578000	20.906200	1.632820	-0.818785	-0.211669	0.478209	-1.000000	-1.000000	-1.000000	-1.000000	-1.000000	-1.000000	-1.000000	80.344828	0.000000	-1.000000	-1.000000	1317602.000000	1769636446.643485
4605.210000	13293.180000	17831.070000	32300.010000	6628.455000	-9140.220000	-19105.335000	237951.900000	3.263800	1.518437	1.699538	3.404177	6.210093	18.406143	38.282548	4.904718	-4.578000	20.906200	1.632820	-0.818785	-0.211669	0.478209	-1.000000	-1.000000	-1.000000	-1.000000	-1.000000	-1.000000	-1.000000	80.344828	0.000000	-1.000000	-1.000000	1317603.000000	1769636446.648782
4602.015000	13281.570000	17817.480000	32285.205000	6613.425000	-9124.965000	-19093.140000	237841.020000	-3.810308	-5.344179	-6.358827	-7.494658	-10.139062	-10.792180	-2.046172	0.321619	-4.578000	20.906200	1.632820	-0.818785	-0.211669	0.478209	-1.000000	-1.000000	-1.000000	-1.000000	-1.000000	-1.000000	-1.000000	80.344828	0.000000	-1.000000	-1.000000	1317604.000000	1769636446.648794
4605.930000	13285.035000	17824.635000	32295.420000	6626.070000	-9116.415000	-19088.595000	237724.785000	-9.319024	-10.258538	-11.677162	-14.730405	-21.380811	-33.066260	-40.153216	-4.650221	-4.578000	20.906200	1.632820	-0.818785	-0.211669	0.478209	-1.000000	-1.000000	-1.000000	-1.000000	-1.000000	-1.000000	-1.000000	80.344828	0.000000	-1.000000	-1.000000	1317605.000000	1769636446.654366
4603.590000	13293.405000	17836.830000	32308.785000	6641.370000	-9115.245000	-19097.595000	237602.565000	-9.048228	-9.505856	-10.733453	-14.449484	-22.065739	-36.869653	-54.806365	-7.922090	-4.578000	20.906200	1.632820	-0.818785	-0.211669	0.478209	-1.000000	-1.000000	-1.000000	-1.000000	-1.000000	-1.000000	-1.000000	80.344828	0.000000	-1.000000	-1.000000	1317606.000000	1769636446.654382
4594.230000	13285.260000	17829.135000	32299.560000	6628.680000	-9130.455000	-19106.415000	237488.445000	-4.424382	-4.243045	-4.878322	-8.095137	-13.758195	-25.142058	-43.984209	-9.132071	-3.464020	15.870400	1.846460	-0.827390	-0.209167	0.467650	-1.000000	-1.000000	-1.000000	-1.000000	-1.000000	-1.000000	-1.000000	80.344828	0.000000	-1.000000	-1.000000	1317607.000000	1769636446.655506
4601.385000	13287.645000	17828.460000	32295.960000	6622.335000	-9137.250000	-19110.240000	237376.530000	0.428973	1.472606	1.315988	-0.945312	-3.586956	-10.391681	-22.959951	-8.747618	-3.464020	15.870400	1.846460	-0.827390	-0.209167	0.467650	-1.000000	-1.000000	-1.000000	-1.000000	-1.000000	-1.000000	-1.000000	80.344828	0.000000	-1.000000	-1.000000	1317608.000000	1769636446.655518
4622.895000	13309.830000	17849.790000	32315.715000	6641.190000	-9119.115000	-19097.460000	237266.505000	3.689577	5.428924	5.156591	3.548717	2.906725	-1.948870	-7.961790	-7.096488	-3.464020	15.870400	1.846460	-0.827390	-0.209167	0.467650	-1.000000	-1.000000	-1.000000	-1.000000	-1.000000	-1.000000	-1.000000	80.344828	0.000000	-1.000000	-1.000000	1317609.000000	1769636446.659546
4617.720000	13303.935000	17848.125000	32314.995000	6641.505000	-9117.495000	-19098.270000	237151.710000	6.092911	7.951692	7.241800	6.105932	6.237898	1.783945	-0.811364	-4.373451	-3.464020	15.870400	1.846460	-0.827390	-0.209167	0.467650	-1.000000	-1.000000	-1.000000	-1.000000	-1.000000	-1.000000	-1.000000	80.344828	0.000000	-1.000000	-1.000000	1317610.000000	1769636446.659558
4577.130000	13245.750000	17783.505000	32251.545000	6586.020000	-9152.640000	-19086.030000	237040.695000	7.128490	8.052531	7.257469	7.162078	8.381086	7.200835	7.948839	-1.000456	-3.464020	15.870400	1.846460	-0.827390	-0.209167	0.467650	-1.000000	-1.000000	-1.000000	-1.000000	-1.000000	-1.000000	-1.000000	80.344828	0.000000	-1.000000	-1.000000	1317611.000000	1769636446.663576
4592.475000	13254.030000	17792.235000	32264.730000	6598.215000	-9148.815000	-19096.695000	236923.155000	5.015217	3.896172	3.547163	5.294025	8.751573	15.041259	22.397710	2.208458	-3.464020	15.870400	1.846460	-0.827390	-0.209167	0.467650	-1.000000	-1.000000	-1.000000	-1.000000	-1.000000	-1.000000	-1.000000	80.344828	0.000000	-1.000000	-1.000000	1317612.000000	1769636446.663589
4635.315000	13310.910000	17852.625000	32324.310000	6650.100000	-9119.745000	-19111.995000	236796.435000	1.330737	-1.626762	-1.275355	2.367584	7.943951	20.841766	34.905159	4.128316	-3.464020	15.870400	1.846460	-0.827390	-0.209167	0.467650	-1.000000	-1.000000	-1.000000	-1.000000	-1.000000	-1.000000	-1.000000	80.344828	0.000000	-1.000000	-1.000000	1317613.000000	1769636446.667551
4648.095000	13354.965000	17903.835000	32370.165000	6689.790000	-9082.530000	-19075.680000	236660.040000	0.342458	-2.034763	-0.973046	3.321997	8.775655	21.730966	36.342779	3.724595	-3.464020	15.870400	1.846460	-0.827390	-0.209167	0.467650	-1.000000	-1.000000	-1.000000	-1.000000	-1.000000	-1.000000	-1.000000	80.344828	0.000000	-1.000000	-1.000000	1317614.000000	1769636446.667563
4639.185000	13373.190000	17930.970000	32397.210000	6713.370000	-9060.930000	-19069.515000	236511.855000	2.618546	4.196032	5.864070	8.773831	11.229904	17.965231	25.835239	0.699417	-3.464020	15.870400	1.846460	-0.827390	-0.209167	0.467650	-1.000000	-1.000000	-1.000000	-1.000000	-1.000000	-1.000000	-1.000000	80.344828	0.000000	-1.000000	-1.000000	1317615.000000	1769636446.672574
4562.955000	13284.405000	17840.385000	32310.630000	6638.400000	-9116.865000	-19110.690000	236353.095000	3.221166	9.960124	11.956490	12.131105	10.479161	9.549591	7.768237	-4.350919	-3.464020	15.870400	1.846460	-0.827390	-0.209167	0.467650	-1.000000	-1.000000	-1.000000	-1.000000	-1.000000	-1.000000	-1.000000	80.344828	0.000000	-1.000000	-1.000000	1317616.000000	1769636446.672587
4586.175000	13286.070000	17831.160000	32297.400000	6621.120000	-9156.510000	-19161.990000	236194.605000	-2.361211	6.293137	7.836977	5.565502	1.289329	-4.829017	-14.384695	-10.062535	-9.751140	11.322920	6.348160	-0.834287	-0.195983	0.455138	-1.000000	-1.000000	-1.000000	-1.000000	-1.000000	-1.000000	-1.000000	80.344828	0.000000	-1.000000	-1.000000	1317617.000000	1769636446.675322
4617.270000	13317.660000	17860.185000	32320.620000	6631.875000	-9166.185000	-19166.445000	236028.060000	-10.972461	-6.444276	-6.575769	-9.937528	-14.370321	-22.684859	-35.232782	-14.329666	-9.751140	11.322920	6.348160	-0.834287	-0.195983	0.455138	-1.000000	-1.000000	-1.000000	-1.000000	-1.000000	-1.000000	-1.000000	80.344828	0.000000	-1.000000	-1.000000	1317618.000000	1769636446.675334
4619.700000	13305.195000	17841.915000	32304.060000	6627.285000	-9146.025000	-19126.215000	235851.480000	-13.989628	-17.699868	-20.233549	-23.295582	-26.203794	-34.238245	-43.853983	-15.196290	-9.751140	11.322920	6.348160	-0.834287	-0.195983	0.455138	-1.000000	-1.000000	-1.000000	-1.000000	-1.000000	-1.000000	-1.000000	80.344828	0.000000	-1.000000	-1.000000	1317619.000000	1769636446.679392
4605.570000	13285.530000	17821.395000	32284.305000	6608.520000	-9151.920000	-19116.090000	235650.645000	-7.433265	-18.374311	-22.619251	-24.391416	-25.011771	-29.689989	-31.828161	-12.495261	-9.751140	11.322920	6.348160	-0.834287	-0.195983	0.455138	-1.000000	-1.000000	-1.000000	-1.000000	-1.000000	-1.000000	-1.000000	80.344828	0.000000	-1.000000	-1.000000	1317620.000000	1769636446.679401
4607.370000	13281.030000	17817.120000	32281.245000	6605.640000	-9153.315000	-19113.030000	235432.080000	3.687791	-9.295345	-13.333758	-13.381900	-11.639427	-10.193482	-3.730057	-8.253769	-9.751140	11.322920	6.348160	-0.834287	-0.195983	0.455138	-1.000000	-1.000000	-1.000000	-1.000000	-1.000000	-1.000000	-1.000000	80.344828	0.000000	-1.000000	-1.000000	1317621.000000	1769636446.685054
4605.525000	13282.695000	17821.395000	32286.510000	6609.960000	-9151.245000	-19106.640000	235198.890000	10.805830	1.344102	-0.596391	0.884209	4.286111	12.030544	25.166219	-4.997196	-9.751140	11.322920	6.348160	-0.834287	-0.195983	0.455138	-1.000000	-1.000000	-1.000000	-1.000000	-1.000000	-1.000000	-1.000000	80.344828	0.000000	-1.000000	-1.000000	1317622.000000	1769636446.685063
4595.940000	13295.835000	17841.780000	32311.980000	6637.050000	-9132.120000	-19116.495000	234955.935000	9.574226	6.405392	7.280003	9.739810	13.570782	24.494283	39.730390	-3.713809	-9.751140	11.322920	6.348160	-0.834287	-0.195983	0.455138	-1.000000	-1.000000	-1.000000	-1.000000	-1.000000	-1.000000	-1.000000	80.344828	0.000000	-1.000000	-1.000000	1317623.000000	1769636446.687427
4600.800000	13306.725000	17854.920000	32326.065000	6653.610000	-9122.220000	-19126.530000	234689.895000	3.040783	6.006254	9.091515	11.883430	14.840747	23.630535	33.846264	-3.674005	-9.751140	11.322920	6.348160	-0.834287	-0.195983	0.455138	-1.000000	-1.000000	-1.000000	-1.000000	-1.000000	-1.000000	-1.000000	80.344828	0.000000	-1.000000	-1.000000	1317624.000000	1769636446.687434
4619.835000	13317.120000	17863.695000	32336.280000	6665.085000	-9108.810000	-19082.745000	234401.895000	-1.549978	5.960648	9.960255	12.284805	13.289475	15.081724	14.104575	-3.987486	-9.751140	11.322920	6.348160	-0.834287	-0.195983	0.455138	-1.000000	-1.000000	-1.000000	-1.000000	-1.000000	-1.000000	-1.000000	80.344828	0.000000	-1.000000	-1.000000	1317625.000000	1769636446.691340
4621.095000	13313.385000	17861.850000	32340.645000	6675.795000	-9098.820000	-19085.490000	234096.075000	-0.567126	9.266358	12.992005	14.199240	12.969705	6.821782	-5.364435	-4.658595	-9.751140	11.322920	6.348160	-0.834287	-0.195983	0.455138	-1.000000	-1.000000	-1.000000	-1.000000	-1.000000	-1.000000	-1.000000	80.344828	0.000000	-1.000000	-1.000000	1317626.000000	1769636446.691351
4620.240000	13326.435000	17881.965000	32358.060000	6686.055000	-9102.465000	-19113.570000	233769.555000	2.411593	11.998667	14.841185	14.921587	12.389344	2.112745	-15.415538	-5.990582	-21.501340	8.408260	3.860780	-0.831480	-0.182312	0.452513	-1.000000	-1.000000	-1.000000	-1.000000	-1.000000	-1.000000	-1.000000	80.344828	0.000000	-1.000000	-1.000000	1317627.000000	1769636446.696970
4632.300000	13328.010000	17871.210000	32334.345000	6656.805000	-9116.055000	-19065.960000	233427.780000	2.967730	10.190668	11.899800	10.978475	8.206345	-1.101923	-16.823392	-7.589851	-21.501340	8.408260	3.860780	-0.831480	-0.182312	0.452513	-1.000000	-1.000000	-1.000000	-1.000000	-1.000000	-1.000000	-1.000000	80.344828	0.000000	-1.000000	-1.000000	1317628.000000	1769636446.696982
4627.395000	13316.400000	17858.430000	32323.635000	6650.955000	-9112.590000	-19053.180000	233073.585000	1.114425	4.671003	4.773689	2.508114	-0.252681	-5.375383	-13.085189	-8.107905	-21.501340	8.408260	3.860780	-0.831480	-0.182312	0.452513	-1.000000	-1.000000	-1.000000	-1.000000	-1.000000	-1.000000	-1.000000	80.344828	0.000000	-1.000000	-1.000000	1317629.000000	1769636446.699324
4629.465000	13325.130000	17869.095000	32336.010000	6664.410000	-9104.625000	-19065.330000	232693.965000	-1.501750	-2.279298	-4.284490	-7.895556	-10.340667	-10.181354	-6.578546	-6.154320	-21.501340	8.408260	3.860780	-0.831480	-0.182312	0.452513	-1.000000	-1.000000	-1.000000	-1.000000	-1.000000	-1.000000	-1.000000	80.344828	0.000000	-1.000000	-1.000000	1317630.000000	1769636446.699332
4629.690000	13314.420000	17850.555000	32312.520000	6637.860000	-9126.630000	-19079.955000	232301.205000	-4.045895	-9.183236	-13.149237	-17.035024	-18.306724	-13.541546	-0.924102	-1.810955	-21.501340	8.408260	3.860780	-0.831480	-0.182312	0.452513	-1.000000	-1.000000	-1.000000	-1.000000	-1.000000	-1.000000	-1.000000	80.344828	0.000000	-1.000000	-1.000000	1317631.000000	1769636446.703459
4629.825000	13320.360000	17865.000000	32331.240000	6657.210000	-9113.445000	-19079.550000	231897.195000	-5.480297	-14.484827	-19.529418	-22.233488	-21.788682	-14.571628	0.805591	3.301675	-21.501340	8.408260	3.860780	-0.831480	-0.182312	0.452513	-1.000000	-1.000000	-1.000000	-1.000000	-1.000000	-1.000000	-1.000000	80.344828	0.000000	-1.000000	-1.000000	1317632.000000	1769636446.703469
4640.850000	13345.245000	17893.170000	32356.530000	6678.855000	-9092.655000	-19050.255000	231475.635000	-4.560140	-15.464500	-19.981365	-20.579179	-18.866982	-12.180832	-0.301462	7.459446	-21.501340	8.408260	3.860780	-0.831480	-0.182312	0.452513	-1.000000	-1.000000	-1.000000	-1.000000	-1.000000	-1.000000	-1.000000	80.344828	0.000000	-1.000000	-1.000000	1317633.000000	1769636446.707398
4668.930000	13387.545000	17937.270000	32396.130000	6711.570000	-9072.855000	-19052.280000	231029.955000	-1.171927	-9.360542	-11.336767	-9.880937	-8.158069	-4.856409	-0.961141	9.590287	-21.501340	8.408260	3.860780	-0.831480	-0.182312	0.452513	-1.000000	-1.000000	-1.000000	-1.000000	-1.000000	-1.000000	-1.000000	80.344828	0.000000	-1.000000	-1.000000	1317634.000000	1769636446.707405
4704.030000	13421.070000	17971.380000	32429.970000	6740.910000	-9067.140000	-19086.480000	230575.320000	3.480575	2.828155	4.497599	7.037771	7.559575	5.940139	-0.077754	9.245585	-21.501340	8.408260	3.860780	-0.831480	-0.182312	0.452513	-1.000000	-1.000000	-1.000000	-1.000000	-1.000000	-1.000000	-1.000000	80.344828	0.000000	-1.000000	-1.000000	1317635.000000	1769636446.712807
4688.910000	13413.105000	17972.055000	32439.060000	6758.640000	-9040.455000	-19035.900000	230101.110000	7.355873	14.978873	19.631194	22.316601	21.584250	15.610662	1.457909	6.859789	-21.501340	8.408260	3.860780	-0.831480	-0.182312	0.452513	-1.000000	-1.000000	-1.000000	-1.000000	-1.000000	-1.000000	-1.000000	80.344828	0.000000	-1.000000	-1.000000	1317636.000000	1769636446.712815
4640.130000	13341.465000	17891.190000	32353.110000	6670.080000	-9105.705000	-19054.440000	229604.805000	7.144926	18.886029	24.699611	27.417749	26.724705	19.210703	2.807133	3.528690	-24.705940	9.674840	4.562740	-0.825926	-0.185852	0.457518	-1.000000	-1.000000	-1.000000	-1.000000	-1.000000	-1.000000	-1.000000	80.344828	0.000000	-1.000000	-1.000000	1317637.000000	1769636446.721353
4616.010000	13301.505000	17843.850000	32306.310000	6626.700000	-9144.405000	-19092.915000	229110.255000	0.303529	9.668297	14.353778	17.109415	17.780434	12.855030	2.355250	0.495134	-24.705940	9.674840	4.562740	-0.825926	-0.185852	0.457518	-1.000000	-1.000000	-1.000000	-1.000000	-1.000000	-1.000000	-1.000000	80.344828	0.000000	-1.000000	-1.000000	1317638.000000	1769636446.721365
4628.745000	13310.460000	17849.250000	32311.530000	6633.045000	-9139.095000	-19084.770000	228625.785000	-10.252461	-8.586825	-7.204835	-5.107551	-2.904813	-2.203250	-0.813172	-0.482849	-24.705940	9.674840	4.562740	-0.825926	-0.185852	0.457518	-1.000000	-1.000000	-1.000000	-1.000000	-1.000000	-1.000000	-1.000000	80.344828	0.000000	-1.000000	-1.000000	1317639.000000	1769636446.721378
4610.925000	13300.515000	17843.355000	32307.300000	6633.495000	-9133.560000	-19080.450000	228143.025000	-17.018395	-23.944974	-26.608870	-26.028482	-23.093785	-16.912533	-3.857565	2.461000	-24.705940	9.674840	4.562740	-0.825926	-0.185852	0.457518	-1.000000	-1.000000	-1.000000	-1.000000	-1.000000	-1.000000	-1.000000	80.344828	0.000000	-1.000000	-1.000000	1317640.000000	1769636446.721384
4623.930000	13303.485000	17844.030000	32307.975000	6634.665000	-9132.390000	-19091.340000	227662.650000	-14.812136	-26.404288	-31.770692	-32.957589	-30.368318	-21.744208	-3.447630	9.404659	-24.705940	9.674840	4.562740	-0.825926	-0.185852	0.457518	-1.000000	-1.000000	-1.000000	-1.000000	-1.000000	-1.000000	-1.000000	80.344828	0.000000	-1.000000	-1.000000	1317641.000000	1769636446.723333
4658.895000	13327.830000	17866.845000	32330.250000	6657.660000	-9109.800000	-19084.770000	227184.390000	-4.339913	-15.108303	-20.737221	-23.199807	-21.859039	-14.725710	-0.405518	18.014654	-24.705940	9.674840	4.562740	-0.825926	-0.185852	0.457518	-1.000000	-1.000000	-1.000000	-1.000000	-1.000000	-1.000000	-1.000000	80.344828	0.000000	-1.000000	-1.000000	1317642.000000	1769636446.723345
4660.110000	13346.100000	17887.590000	32348.565000	6666.930000	-9114.705000	-19080.405000	226714.590000	8.914869	2.990585	-0.672040	-3.443549	-3.815665	-0.952192	2.804405	25.096202	-24.705940	9.674840	4.562740	-0.825926	-0.185852	0.457518	-1.000000	-1.000000	-1.000000	-1.000000	-1.000000	-1.000000	-1.000000	80.344828	0.000000	-1.000000	-1.000000	1317643.000000	1769636446.739685
4633.335000	13351.410000	17905.275000	32366.520000	6672.780000	-9126.855000	-19081.980000	226251.180000	17.201376	18.477182	18.123009	15.933092	13.691085	11.581471	5.481298	28.363690	-24.705940	9.674840	4.562740	-0.825926	-0.185852	0.457518	-1.000000	-1.000000	-1.000000	-1.000000	-1.000000	-1.000000	-1.000000	80.344828	0.000000	-1.000000	-1.000000	1317644.000000	1769636446.739699
4633.245000	13345.830000	17898.705000	32363.370000	6674.535000	-9129.330000	-19136.295000	225792.810000	16.105285	25.336093	28.483544	27.338103	23.323786	16.825535	5.839879	27.271405	-24.705940	9.674840	4.562740	-0.825926	-0.185852	0.457518	-1.000000	-1.000000	-1.000000	-1.000000	-1.000000	-1.000000	-1.000000	80.344828	0.000000	-1.000000	-1.000000	1317645.000000	1769636446.739714
4652.280000	13345.470000	17890.830000	32360.580000	6691.905000	-9080.280000	-19098.945000	225345.060000	9.104797	23.853876	29.355435	29.488941	24.934169	15.616274	1.920435	22.925856	-24.705940	9.674840	4.562740	-0.825926	-0.185852	0.457518	-1.000000	-1.000000	-1.000000	-1.000000	-1.000000	-1.000000	-1.000000	80.344828	0.000000	-1.000000	-1.000000	1317646.000000	1769636446.739719
4648.635000	13333.995000	17881.785000	32355.495000	6696.990000	-9038.745000	-18971.910000	224909.325000	3.020128	17.311637	22.957395	24.473945	22.040844	13.915368	-0.915218	17.128361	-13.413540	10.193680	0.991900	-0.825559	-0.205139	0.462157	-1.000000	-1.000000	-1.000000	-1.000000	-1.000000	-1.000000	-1.000000	80.344828	0.000000	-1.000000	-1.000000	1317647.000000	1769636446.739725
4655.565000	13344.075000	17890.965000	32363.190000	6697.935000	-9048.015000	-18979.335000	224469.585000	0.317504	7.680463	11.287207	13.792025	15.486555	13.840434	4.914082	10.995589	-13.413540	10.193680	0.991900	-0.825559	-0.205139	0.462157	-1.000000	-1.000000	-1.000000	-1.000000	-1.000000	-1.000000	-1.000000	80.344828	0.000000	-1.000000	-1.000000	1317648.000000	1769636446.739730
4664.520000	13350.105000	17889.615000	32354.145000	6678.495000	-9079.290000	-19026.945000	224044.335000	-0.655372	-3.294321	-3.018231	-0.719234	4.034209	10.318007	14.830222	4.622825	-13.413540	10.193680	0.991900	-0.825559	-0.205139	0.462157	-1.000000	-1.000000	-1.000000	-1.000000	-1.000000	-1.000000	-1.000000	80.344828	0.000000	-1.000000	-1.000000	1317649.000000	1769636446.739736
4659.975000	13346.325000	17889.615000	32354.460000	6675.660000	-9088.470000	-19039.545000	223627.770000	-1.982410	-12.713637	-15.859982	-15.274390	-11.074829	-1.386263	15.669185	-1.639061	-13.413540	10.193680	0.991900	-0.825559	-0.205139	0.462157	-1.000000	-1.000000	-1.000000	-1.000000	-1.000000	-1.000000	-1.000000	80.344828	0.000000	-1.000000	-1.000000	1317650.000000	1769636446.739742
4649.670000	13331.655000	17881.740000	32353.785000	6683.895000	-9082.035000	-19038.915000	223212.105000	-5.440096	-18.839847	-23.918869	-25.525624	-24.769043	-18.105859	2.577784	-6.527141	-13.413540	10.193680	0.991900	-0.825559	-0.205139	0.462157	-1.000000	-1.000000	-1.000000	-1.000000	-1.000000	-1.000000	-1.000000	80.344828	0.000000	-1.000000	-1.000000	1317651.000000	1769636446.745937
4651.020000	13326.795000	17871.255000	32339.520000	6667.920000	-9108.225000	-19072.620000	222795.270000	-10.690157	-21.559634	-26.146458	-28.778448	-31.129175	-30.660116	-16.511008	-9.082745	-13.413540	10.193680	0.991900	-0.825559	-0.205139	0.462157	-1.000000	-1.000000	-1.000000	-1.000000	-1.000000	-1.000000	-1.000000	80.344828	0.000000	-1.000000	-1.000000	1317652.000000	1769636446.745951
4636.080000	13322.295000	17870.400000	32336.730000	6659.820000	-9135.135000	-19127.565000	222385.095000	-13.869551	-19.994620	-22.537560	-24.592482	-27.450163	-32.036177	-30.578809	-9.508583	-13.413540	10.193680	0.991900	-0.825559	-0.205139	0.462157	-1.000000	-1.000000	-1.000000	-1.000000	-1.000000	-1.000000	-1.000000	80.344828	0.000000	-1.000000	-1.000000	1317653.000000	1769636446.753702
4642.875000	13346.505000	17899.785000	32368.185000	6689.430000	-9091.215000	-19059.930000	221986.170000	-11.286253	-12.142356	-12.386275	-13.168295	-14.656177	-21.406443	-32.225667	-8.382652	-13.413540	10.193680	0.991900	-0.825559	-0.205139	0.462157	-1.000000	-1.000000	-1.000000	-1.000000	-1.000000	-1.000000	-1.000000	80.344828	0.000000	-1.000000	-1.000000	1317654.000000	1769636446.753714
4674.780000	13381.875000	17932.005000	32399.055000	6719.085000	-9040.905000	-18987.165000	221585.310000	-2.949069	2.380659	4.277457	4.502434	3.999361	-2.328352	-18.510613	-6.139846	-13.413540	10.193680	0.991900	-0.825559	-0.205139	0.462157	-1.000000	-1.000000	-1.000000	-1.000000	-1.000000	-1.000000	-1.000000	80.344828	0.000000	-1.000000	-1.000000	1317655.000000	1769636446.753726
4693.590000	13389.930000	17930.205000	32390.910000	6709.770000	-9058.455000	-19024.065000	221183.235000	8.046389	19.178852	22.474579	22.960865	21.953382	17.794529	4.241342	-3.680485	-13.413540	10.193680	0.991900	-0.825559	-0.205139	0.462157	-1.000000	-1.000000	-1.000000	-1.000000	-1.000000	-1.000000	-1.000000	80.344828	0.000000	-1.000000	-1.000000	1317656.000000	1769636446.753731
4663.755000	13360.005000	17903.295000	32363.145000	6681.285000	-9081.495000	-19031.580000	220785.345000	16.443196	29.279590	32.330500	32.409308	30.471428	29.366745	22.030542	-2.238849	-1.571780	8.576120	0.778260	-0.828428	-0.217163	0.455382	-1.000000	-1.000000	-1.000000	-1.000000	-1.000000	-1.000000	-1.000000	80.344828	0.000000	-1.000000	-1.000000	1317657.000000	1769636446.755607
4641.255000	13326.795000	17872.245000	32341.005000	6671.430000	-9073.395000	-19011.600000	220388.265000	16.486314	24.923610	26.362164	26.183199	24.817818	27.467758	27.000137	-2.397371	-1.571780	8.576120	0.778260	-0.828428	-0.217163	0.455382	-1.000000	-1.000000	-1.000000	-1.000000	-1.000000	-1.000000	-1.000000	80.344828	0.000000	-1.000000	-1.000000	1317658.000000	1769636446.755618
4648.725000	13330.530000	17878.185000	32354.685000	6690.060000	-9073.170000	-19023.390000	219992.310000	7.015428	7.044758	6.787466	7.412214	8.808608	15.414394	21.765043	-3.787008	-1.571780	8.576120	0.778260	-0.828428	-0.217163	0.455382	-1.000000	-1.000000	-1.000000	-1.000000	-1.000000	-1.000000	-1.000000	80.344828	0.000000	-1.000000	-1.000000	1317659.000000	1769636446.759548
4657.410000	13351.635000	17897.310000	32362.830000	6686.685000	-9118.080000	-19103.265000	219594.645000	-5.820013	-13.591728	-14.844759	-12.735144	-8.087578	0.029957	10.528258	-5.403685	-1.571780	8.576120	0.778260	-0.828428	-0.217163	0.455382	-1.000000	-1.000000	-1.000000	-1.000000	-1.000000	-1.000000	-1.000000	80.344828	0.000000	-1.000000	-1.000000	1317660.000000	1769636446.759560
4695.435000	13392.045000	17938.845000	32401.980000	6721.470000	-9077.085000	-19092.105000	219200.400000	-13.009638	-23.980672	-25.532538	-22.838227	-17.171880	-12.190588	-3.462486	-6.107675	-1.571780	8.576120	0.778260	-0.828428	-0.217163	0.455382	-1.000000	-1.000000	-1.000000	-1.000000	-1.000000	-1.000000	-1.000000	80.344828	0.000000	-1.000000	-1.000000	1317661.000000	1769636446.774525
4688.820000	13379.715000	17924.445000	32386.860000	6707.970000	-9057.645000	-19031.805000	218804.175000	-9.867231	-18.836215	-20.241987	-18.721585	-15.183860	-15.484751	-13.198930	-5.316742	-1.571780	8.576120	0.778260	-0.828428	-0.217163	0.455382	-1.000000	-1.000000	-1.000000	-1.000000	-1.000000	-1.000000	-1.000000	80.344828	0.000000	-1.000000	-1.000000	1317662.000000	1769636446.774535
4668.750000	13352.445000	17897.310000	32363.235000	6688.665000	-9082.395000	-19045.620000	218398.770000	-0.403336	-4.791948	-5.820779	-6.449146	-6.647755	-9.996825	-13.112685	-3.606549	-1.571780	8.576120	0.778260	-0.828428	-0.217163	0.455382	-1.000000	-1.000000	-1.000000	-1.000000	-1.000000	-1.000000	-1.000000	80.344828	0.000000	-1.000000	-1.000000	1317663.000000	1769636446.774547
4669.920000	13337.370000	17875.485000	32340.555000	6666.570000	-9101.340000	-19053.270000	217996.380000	6.182945	5.901137	5.410819	3.130355	-0.195466	-3.837980	-7.824055	-2.327199	-1.571780	8.576120	0.778260	-0.828428	-0.217163	0.455382	-1.000000	-1.000000	-1.000000	-1.000000	-1.000000	-1.000000	-1.000000	80.344828	0.000000	-1.000000	-1.000000	1317664.000000	1769636446.774553
4667.130000	13342.455000	17883.000000	32348.250000	6671.880000	-9096.525000	-19052.775000	217599.705000	4.958635	7.013528	7.227448	4.773546	0.281899	-2.800817	-4.518100	-2.109513	-1.571780	8.576120	0.778260	-0.828428	-0.217163	0.455382	-1.000000	-1.000000	-1.000000	-1.000000	-1.000000	-1.000000	-1.000000	80.344828	0.000000	-1.000000	-1.000000	1317665.000000	1769636446.774559
4659.885000	13357.305000	17903.880000	32369.625000	6689.880000	-9083.160000	-19045.845000	217201.860000	-0.867252	2.675165	3.728606	2.484716	-1.213553	-3.650946	-2.898837	-2.282435	-1.571780	8.576120	0.778260	-0.828428	-0.217163	0.455382	-1.000000	-1.000000	-1.000000	-1.000000	-1.000000	-1.000000	-1.000000	80.344828	0.000000	-1.000000	-1.000000	1317666.000000	1769636446.774564
4649.670000	13356.945000	17906.130000	32372.190000	6690.780000	-9079.110000	-19035.765000	216796.320000	-5.293539	0.496979	2.334192	2.602065	0.546022	-1.194766	0.263362	-2.070840	-1.022420	8.255660	2.319520	-0.828245	-0.211181	0.452575	-1.000000	-1.000000	-1.000000	-1.000000	-1.000000	-1.000000	-1.000000	80.344828	0.000000	-1.000000	-1.000000	1317667.000000	1769636446.777021
4661.055000	13362.795000	17910.585000	32376.780000	6693.390000	-9081.945000	-19041.840000	216387.315000	-5.491324	2.829390	4.921691	5.873771	5.164146	4.637857	5.381358	-1.563781	-1.022420	8.255660	2.319520	-0.828245	-0.211181	0.452575	-1.000000	-1.000000	-1.000000	-1.000000	-1.000000	-1.000000	-1.000000	80.344828	0.000000	-1.000000	-1.000000	1317668.000000	1769636446.777034
4667.625000	13366.620000	17916.615000	32384.655000	6705.045000	-9069.840000	-19037.205000	215983.305000	-2.368984	5.897337	7.355153	8.139335	8.448162	10.538490	11.179247	-1.194223	-1.022420	8.255660	2.319520	-0.828245	-0.211181	0.452575	-1.000000	-1.000000	-1.000000	-1.000000	-1.000000	-1.000000	-1.000000	80.344828	0.000000	-1.000000	-1.000000	1317669.000000	1769636446.779711
4668.210000	13357.530000	17903.700000	32373.855000	6704.460000	-9063.090000	-19023.480000	215577.540000	1.536462	5.266715	5.395831	6.004934	7.765429	13.106261	15.132723	-0.961335	-1.022420	8.255660	2.319520	-0.828245	-0.211181	0.452575	-1.000000	-1.000000	-1.000000	-1.000000	-1.000000	-1.000000	-1.000000	80.344828	0.000000	-1.000000	-1.000000	1317670.000000	1769636446.779723
4662.810000	13354.425000	17905.905000	32382.630000	6716.160000	-9056.745000	-19023.165000	215165.970000	4.106325	0.563353	-0.702661	0.173016	3.839132	10.104402	13.078313	-0.618731	-1.022420	8.255660	2.319520	-0.828245	-0.211181	0.452575	-1.000000	-1.000000	-1.000000	-1.000000	-1.000000	-1.000000	-1.000000	80.344828	0.000000	-1.000000	-1.000000	1317671.000000	1769636446.783668
4657.320000	13346.145000	17891.820000	32362.245000	6692.490000	-9079.605000	-19032.750000	214750.845000	4.688562	-4.585812	-6.593645	-5.420649	-0.726957	2.130372	2.979882	-0.172870	-1.022420	8.255660	2.319520	-0.828245	-0.211181	0.452575	-1.000000	-1.000000	-1.000000	-1.000000	-1.000000	-1.000000	-1.000000	80.344828	0.000000	-1.000000	-1.000000	1317672.000000	1769636446.783680
4683.195000	13389.480000	17943.030000	32406.840000	6726.150000	-9063.585000	-19036.260000	214334.910000	3.811249	-6.052940	-7.709839	-6.980406	-3.576895	-6.937012	-10.987562	0.098269	-1.022420	8.255660	2.319520	-0.828245	-0.211181	0.452575	-1.000000	-1.000000	-1.000000	-1.000000	-1.000000	-1.000000	-1.000000	80.344828	0.000000	-1.000000	-1.000000	1317673.000000	1769636446.787442
4700.565000	13406.985000	17961.030000	32423.085000	6740.910000	-9047.970000	-19027.395000	213919.515000	3.071865	-2.112018	-2.497500	-3.186658	-3.265440	-11.970831	-20.592161	-0.106305	-1.022420	8.255660	2.319520	-0.828245	-0.211181	0.452575	-1.000000	-1.000000	-1.000000	-1.000000	-1.000000	-1.000000	-1.000000	80.344828	0.000000	-1.000000	-1.000000	1317674.000000	1769636446.787454
4656.015000	13333.860000	17878.005000	32343.435000	6674.310000	-9088.290000	-19027.215000	213507.720000	3.221506	3.901468	4.658688	2.359037	-1.308337	-11.017060	-20.316542	-0.705917	-1.022420	8.255660	2.319520	-0.828245	-0.211181	0.452575	-1.000000	-1.000000	-1.000000	-1.000000	-1.000000	-1.000000	-1.000000	80.344828	0.000000	-1.000000	-1.000000	1317675.000000	1769636446.791574
4646.475000	13323.645000	17869.680000	32333.805000	6660.540000	-9117.630000	-19081.980000	213090.525000	2.039387	4.928827	5.504878	2.524702	-2.424324	-7.529628	-11.954497	-1.052331	-1.022420	8.255660	2.319520	-0.828245	-0.211181	0.452575	-1.000000	-1.000000	-1.000000	-1.000000	-1.000000	-1.000000	-1.000000	80.344828	0.000000	-1.000000	-1.000000	1317676.000000	1769636446.791586
4653.855000	13336.020000	17879.445000	32340.375000	6669.405000	-9099.810000	-19064.295000	212669.550000	-2.267404	-1.303722	-2.073221	-4.359860	-7.742925	-4.991229	-1.541239	-0.602685	-9.690100	10.254720	3.204600	-0.827513	-0.200256	0.455443	-1.000000	-1.000000	-1.000000	-1.000000	-1.000000	-1.000000	-1.000000	80.344828	0.000000	-1.000000	-1.000000	1317677.000000	1769636446.796889
4659.705000	13347.810000	17893.035000	32354.595000	6681.375000	-9089.325000	-19050.390000	212245.965000	-7.487818	-8.900982	-10.828331	-11.482490	-11.961112	-2.502635	7.178940	0.303125	-9.690100	10.254720	3.204600	-0.827513	-0.200256	0.455443	-1.000000	-1.000000	-1.000000	-1.000000	-1.000000	-1.000000	-1.000000	80.344828	0.000000	-1.000000	-1.000000	1317678.000000	1769636446.796901
4665.825000	13350.195000	17891.460000	32349.510000	6670.620000	-9107.055000	-19062.315000	211826.205000	-9.604740	-10.708734	-12.588091	-11.581303	-9.988001	1.238379	12.651711	0.872729	-9.690100	10.254720	3.204600	-0.827513	-0.200256	0.455443	-1.000000	-1.000000	-1.000000	-1.000000	-1.000000	-1.000000	-1.000000	80.344828	0.000000	-1.000000	-1.000000	1317679.000000	1769636446.808844
4663.395000	13353.930000	17899.920000	32356.935000	6674.895000	-9106.335000	-19053.945000	211412.385000	-6.571841	-4.750638	-5.378859	-3.547322	-2.028835	4.856312	13.099548	1.031186	-9.690100	10.254720	3.204600	-0.827513	-0.200256	0.455443	-1.000000	-1.000000	-1.000000	-1.000000	-1.000000	-1.000000	-1.000000	80.344828	0.000000	-1.000000	-1.000000	1317680.000000	1769636446.808868
4655.025000	13337.505000	17881.110000	32342.490000	6670.395000	-9112.905000	-19058.310000	211004.820000	-0.218454	4.814792	6.001709	7.778185	7.838020	6.944841	8.891641	1.626407	-9.690100	10.254720	3.204600	-0.827513	-0.200256	0.455443	-1.000000	-1.000000	-1.000000	-1.000000	-1.000000	-1.000000	-1.000000	80.344828	0.000000	-1.000000	-1.000000	1317681.000000	1769636446.808881
4650.030000	13339.620000	17890.650000	32359.050000	6692.985000	-9098.145000	-19076.985000	210598.380000	4.844045	10.813499	13.524859	15.268088	14.740352	7.391431	2.870501	3.297559	-9.690100	10.254720	3.204600	-0.827513	-0.200256	0.455443	-1.000000	-1.000000	-1.000000	-1.000000	-1.000000	-1.000000	-1.000000	80.344828	0.000000	-1.000000	-1.000000	1317682.000000	1769636446.808886
4664.250000	13360.995000	17919.045000	32387.355000	6719.445000	-9062.370000	-19033.290000	210204.585000	5.861910	9.828197	13.185646	15.444763	16.250330	6.944322	-2.087118	5.628785	-9.690100	10.254720	3.204600	-0.827513	-0.200256	0.455443	-1.000000	-1.000000	-1.000000	-1.000000	-1.000000	-1.000000	-1.000000	80.344828	0.000000	-1.000000	-1.000000	1317683.000000	1769636446.808892
4674.960000	13363.785000	17912.970000	32376.780000	6710.085000	-9054.990000	-19003.905000	209807.865000	4.989491	5.844551	8.893477	11.410008	13.972187	7.356564	-2.961350	7.570088	-9.690100	10.254720	3.204600	-0.827513	-0.200256	0.455443	-1.000000	-1.000000	-1.000000	-1.000000	-1.000000	-1.000000	-1.000000	80.344828	0.000000	-1.000000	-1.000000	1317684.000000	1769636446.808897
4676.220000	13364.550000	17907.210000	32361.525000	6683.535000	-9089.505000	-19040.535000	209402.325000	5.295221	3.792116	5.432110	6.777677	9.464183	8.459045	1.338718	8.045516	-9.690100	10.254720	3.204600	-0.827513	-0.200256	0.455443	-1.000000	-1.000000	-1.000000	-1.000000	-1.000000	-1.000000	-1.000000	80.344828	0.000000	-1.000000	-1.000000	1317685.000000	1769636446.811482
4676.985000	13364.145000	17910.990000	32366.700000	6687.180000	-9094.635000	-19059.705000	209004.345000	5.881294	2.945824	2.170433	0.973517	1.665771	6.187888	5.945956	6.375585	-9.690100	10.254720	3.204600	-0.827513	-0.200256	0.455443	-1.000000	-1.000000	-1.000000	-1.000000	-1.000000	-1.000000	-1.000000	80.344828	0.000000	-1.000000	-1.000000	1317686.000000	1769636446.811491
4677.570000	13363.470000	17912.700000	32370.570000	6693.795000	-9089.865000	-19066.455000	208617.705000	3.933375	0.142329	-2.862637	-6.464237	-8.598606	-1.884621	4.126712	3.064759	-13.734000	14.329140	7.797860	-0.823118	-0.201660	0.458678	-1.000000	-1.000000	-1.000000	-1.000000	-1.000000	-1.000000	-1.000000	80.344828	0.000000	-1.000000	-1.000000	1317687.000000	1769636446.815567
4672.800000	13370.670000	17919.135000	32372.640000	6691.005000	-9097.920000	-19083.600000	208230.660000	-0.948485	-4.702660	-8.379551	-12.696325	-16.533220	-11.845958	-4.550446	-0.221471	-13.734000	14.329140	7.797860	-0.823118	-0.201660	0.458678	-1.000000	-1.000000	-1.000000	-1.000000	-1.000000	-1.000000	-1.000000	80.344828	0.000000	-1.000000	-1.000000	1317688.000000	1769636446.815578
4661.280000	13361.805000	17910.180000	32365.935000	6691.230000	-9084.555000	-19032.435000	207854.640000	-6.460827	-8.698771	-11.325240	-14.395279	-17.763781	-17.127720	-13.422262	-2.013274	-13.734000	14.329140	7.797860	-0.823118	-0.201660	0.458678	-1.000000	-1.000000	-1.000000	-1.000000	-1.000000	-1.000000	-1.000000	80.344828	0.000000	-1.000000	-1.000000	1317689.000000	1769636446.819530
4660.560000	13351.815000	17899.695000	32360.220000	6689.430000	-9077.805000	-19005.165000	207479.070000	-9.878967	-9.636491	-10.423539	-11.100442	-12.239191	-14.324073	-14.207825	-1.991177	-13.734000	14.329140	7.797860	-0.823118	-0.201660	0.458678	-1.000000	-1.000000	-1.000000	-1.000000	-1.000000	-1.000000	-1.000000	80.344828	0.000000	-1.000000	-1.000000	1317690.000000	1769636446.819536
4666.770000	13354.470000	17904.240000	32368.185000	6702.750000	-9064.305000	-19017.900000	207103.050000	-9.615688	-7.827748	-7.168187	-5.423488	-3.820962	-5.521086	-4.872029	-0.978506	-13.734000	14.329140	7.797860	-0.823118	-0.201660	0.458678	-1.000000	-1.000000	-1.000000	-1.000000	-1.000000	-1.000000	-1.000000	80.344828	0.000000	-1.000000	-1.000000	1317691.000000	1769636446.825381
4662.000000	13352.175000	17903.025000	32364.585000	6694.830000	-9076.005000	-19045.980000	206733.285000	-5.768413	-4.489229	-3.362291	-0.157259	3.293328	3.530713	6.521004	-0.349790	-13.734000	14.329140	7.797860	-0.823118	-0.201660	0.458678	-1.000000	-1.000000	-1.000000	-1.000000	-1.000000	-1.000000	-1.000000	80.344828	0.000000	-1.000000	-1.000000	1317692.000000	1769636446.825392
4653.270000	13343.985000	17896.860000	32356.890000	6685.335000	-9088.515000	-19070.685000	206370.900000	-0.319869	-0.433988	0.638703	3.881858	7.371683	8.144477	9.943668	-0.707719	-13.734000	14.329140	7.797860	-0.823118	-0.201660	0.458678	-1.000000	-1.000000	-1.000000	-1.000000	-1.000000	-1.000000	-1.000000	80.344828	0.000000	-1.000000	-1.000000	1317693.000000	1769636446.827746
4665.240000	13346.775000	17891.505000	32347.170000	6675.210000	-9092.205000	-19041.570000	206005.320000	4.095197	3.279328	4.411755	6.545713	8.518839	7.846386	4.818812	-1.245363	-13.734000	14.329140	7.797860	-0.823118	-0.201660	0.458678	-1.000000	-1.000000	-1.000000	-1.000000	-1.000000	-1.000000	-1.000000	80.344828	0.000000	-1.000000	-1.000000	1317694.000000	1769636446.827759
4667.625000	13358.880000	17906.760000	32362.290000	6685.830000	-9084.555000	-19017.720000	205649.685000	6.238120	5.673211	6.769852	7.233937	7.195462	5.051647	-0.801286	-0.974700	-13.734000	14.329140	7.797860	-0.823118	-0.201660	0.458678	-1.000000	-1.000000	-1.000000	-1.000000	-1.000000	-1.000000	-1.000000	80.344828	0.000000	-1.000000	-1.000000	1317695.000000	1769636446.831603
4658.580000	13358.160000	17912.070000	32369.670000	6691.410000	-9089.820000	-19033.875000	205305.165000	6.211116	6.626437	7.270477	6.105569	4.373079	2.111129	-0.913322	0.205407	-13.734000	14.329140	7.797860	-0.823118	-0.201660	0.458678	-1.000000	-1.000000	-1.000000	-1.000000	-1.000000	-1.000000	-1.000000	80.344828	0.000000	-1.000000	-1.000000	1317696.000000	1769636446.831615
4659.345000	13353.390000	17901.720000	32355.720000	6676.290000	-9110.520000	-19054.710000	204950.565000	4.498673	6.128631	6.197139	4.081220	1.411922	-0.158418	2.302454	1.630982	-6.424460	14.344400	4.501700	-0.827146	-0.213561	0.456176	-1.000000	-1.000000	-1.000000	-1.000000	-1.000000	-1.000000	-1.000000	80.344828	0.000000	-1.000000	-1.000000	1317697.000000	1769636446.835834
4662.990000	13356.720000	17909.100000	32369.085000	6696.720000	-9074.565000	-19038.375000	204591.465000	2.208494	4.253994	3.918765	1.836170	-0.760163	-1.730753	2.802700	1.986696	-6.424460	14.344400	4.501700	-0.827146	-0.213561	0.456176	-1.000000	-1.000000	-1.000000	-1.000000	-1.000000	-1.000000	-1.000000	80.344828	0.000000	-1.000000	-1.000000	1317698.000000	1769636446.835845
4672.485000	13354.110000	17905.590000	32367.555000	6696.990000	-9064.440000	-19020.240000	204250.095000	0.626336	1.758066	1.206820	-0.092943	-1.700221	-1.884383	-1.091034	0.287381	-6.424460	14.344400	4.501700	-0.827146	-0.213561	0.456176	-1.000000	-1.000000	-1.000000	-1.000000	-1.000000	-1.000000	-1.000000	80.344828	0.000000	-1.000000	-1.000000	1317699.000000	1769636446.839638
4684.320000	13359.825000	17910.270000	32370.030000	6690.510000	-9095.445000	-19055.565000	203916.645000	0.184191	-0.568085	-1.259293	-1.571005	-1.865301	-0.832209	-5.630116	-2.508861	-6.424460	14.344400	4.501700	-0.827146	-0.213561	0.456176	-1.000000	-1.000000	-1.000000	-1.000000	-1.000000	-1.000000	-1.000000	80.344828	0.000000	-1.000000	-1.000000	1317700.000000	1769636446.839649
4674.375000	13356.360000	17907.750000	32369.940000	6700.185000	-9078.255000	-19052.595000	203590.170000	0.394442	-2.202674	-3.029690	-2.597165	-1.905747	-0.307736	-7.189387	-4.116156	-6.424460	14.344400	4.501700	-0.827146	-0.213561	0.456176	-1.000000	-1.000000	-1.000000	-1.000000	-1.000000	-1.000000	-1.000000	80.344828	0.000000	-1.000000	-1.000000	1317701.000000	1769636446.843682
4644.720000	13339.395000	17891.055000	32353.110000	6692.445000	-9061.605000	-19017.135000	203263.245000	-0.224879	-3.052738	-3.778422	-2.837737	-1.284365	0.066706	-4.102817	-3.131051	-6.424460	14.344400	4.501700	-0.827146	-0.213561	0.456176	-1.000000	-1.000000	-1.000000	-1.000000	-1.000000	-1.000000	-1.000000	80.344828	0.000000	-1.000000	-1.000000	1317702.000000	1769636446.843693
4608.225000	13306.455000	17858.610000	32324.355000	6666.120000	-9073.575000	-18984.645000	202935.420000	-3.631162	-4.204414	-4.331563	-2.925491	-0.151692	1.802348	3.315370	-0.131157	-6.424460	14.344400	4.501700	-0.827146	-0.213561	0.456176	-1.000000	-1.000000	-1.000000	-1.000000	-1.000000	-1.000000	-1.000000	80.344828	0.000000	-1.000000	-1.000000	1317703.000000	1769636446.847661
4617.450000	13320.180000	17882.550000	32352.525000	6688.980000	-9075.195000	-19001.790000	202606.560000	-9.268524	-6.421672	-5.607902	-3.861524	-0.125857	3.484335	10.948566	2.710534	-6.424460	14.344400	4.501700	-0.827146	-0.213561	0.456176	-1.000000	-1.000000	-1.000000	-1.000000	-1.000000	-1.000000	-1.000000	80.344828	0.000000	-1.000000	-1.000000	1317704.000000	1769636446.847674
4681.935000	13386.420000	17941.050000	32399.595000	6720.705000	-9079.245000	-19075.860000	202279.005000	-11.646929	-6.841735	-5.300307	-3.769410	-0.735148	2.877570	12.371678	3.129899	-6.424460	14.344400	4.501700	-0.827146	-0.213561	0.456176	-1.000000	-1.000000	-1.000000	-1.000000	-1.000000	-1.000000	-1.000000	80.344828	0.000000	-1.000000	-1.000000	1317705.000000	1769636446.851598
4669.650000	13361.985000	17910.540000	32370.210000	6704.910000	-9077.445000	-19094.670000	201950.280000	-5.340497	-1.597629	-0.248106	0.076805	0.299232	0.220071	3.986506	0.638060	-6.424460	14.344400	4.501700	-0.827146	-0.213561	0.456176	-1.000000	-1.000000	-1.000000	-1.000000	-1.000000	-1.000000	-1.000000	80.344828	0.000000	-1.000000	-1.000000	1317706.000000	1769636446.851610
4666.410000	13359.510000	17908.245000	32366.340000	6696.495000	-9089.325000	-19096.785000	201625.425000	6.761281	7.048547	7.048015	5.416107	2.159795	-3.367581	-10.601849	-3.135436	-0.274680	13.856080	4.700080	-0.835325	-0.215454	0.449889	-1.000000	-1.000000	-1.000000	-1.000000	-1.000000	-1.000000	-1.000000	80.344828	0.000000	-1.000000	-1.000000	1317707.000000	1769636446.855546
4661.145000	13349.610000	17900.370000	32359.320000	6691.545000	-9067.680000	-18994.995000	201298.005000	15.416701	12.126928	10.409033	7.088848	1.746172	-6.685028	-20.499167	-6.126554	-0.274680	13.856080	4.700080	-0.835325	-0.215454	0.449889	-1.000000	-1.000000	-1.000000	-1.000000	-1.000000	-1.000000	-1.000000	80.344828	0.000000	-1.000000	-1.000000	1317708.000000	1769636446.855558
4667.040000	13356.045000	17903.340000	32355.945000	6681.915000	-9083.160000	-19022.850000	200971.260000	14.743447	9.911942	7.334514	3.612138	-1.406357	-7.290382	-15.442407	-7.485246	-0.274680	13.856080	4.700080	-0.835325	-0.215454	0.449889	-1.000000	-1.000000	-1.000000	-1.000000	-1.000000	-1.000000	-1.000000	80.344828	0.000000	-1.000000	-1.000000	1317709.000000	1769636446.861440
4674.150000	13365.855000	17910.990000	32357.700000	6679.890000	-9092.385000	-19060.695000	200647.800000	6.792592	2.844255	0.746312	-1.933983	-4.814474	-4.243336	1.740949	-7.444863	-0.274680	13.856080	4.700080	-0.835325	-0.215454	0.449889	-1.000000	-1.000000	-1.000000	-1.000000	-1.000000	-1.000000	-1.000000	80.344828	0.000000	-1.000000	-1.000000	1317710.000000	1769636446.861451
4669.110000	13357.350000	17905.005000	32356.665000	6682.365000	-9091.350000	-19061.505000	200322.090000	-1.808480	-3.666966	-4.340173	-5.130614	-5.584341	0.045343	16.077753	-6.309914	-0.274680	13.856080	4.700080	-0.835325	-0.215454	0.449889	-1.000000	-1.000000	-1.000000	-1.000000	-1.000000	-1.000000	-1.000000	80.344828	0.000000	-1.000000	-1.000000	1317711.000000	1769636446.863679
4662.495000	13362.705000	17917.245000	32369.310000	6690.150000	-9081.225000	-19045.125000	199993.905000	-6.140801	-6.041572	-4.985934	-3.701011	-2.396435	3.373801	16.947459	-4.280833	-0.274680	13.856080	4.700080	-0.835325	-0.215454	0.449889	-1.000000	-1.000000	-1.000000	-1.000000	-1.000000	-1.000000	-1.000000	80.344828	0.000000	-1.000000	-1.000000	1317712.000000	1769636446.863691
4641.345000	13344.345000	17900.595000	32353.920000	6678.495000	-9070.470000	-19005.930000	199662.255000	-6.748928	-5.268978	-2.849092	0.117034	2.620234	5.735656	8.225993	-1.922536	-0.274680	13.856080	4.700080	-0.835325	-0.215454	0.449889	-1.000000	-1.000000	-1.000000	-1.000000	-1.000000	-1.000000	-1.000000	80.344828	0.000000	-1.000000	-1.000000	1317713.000000	1769636446.867668
4671.045000	13375.080000	17929.800000	32384.385000	6706.710000	-9064.170000	-19040.715000	199327.770000	-7.158592	-4.772165	-1.835152	2.047736	5.568760	7.492122	1.050439	-0.071189	-0.274680	13.856080	4.700080	-0.835325	-0.215454	0.449889	-1.000000	-1.000000	-1.000000	-1.000000	-1.000000	-1.000000	-1.000000	80.344828	0.000000	-1.000000	-1.000000	1317714.000000	1769636446.867681
4718.835000	13429.260000	17983.035000	32432.940000	6737.985000	-9081.405000	-19094.895000	198996.435000	-7.180919	-4.188978	-1.639174	2.180649	5.905836	7.604850	-0.665480	0.822605	-0.274680	13.856080	4.700080	-0.835325	-0.215454	0.449889	-1.000000	-1.000000	-1.000000	-1.000000	-1.000000	-1.000000	-1.000000	80.344828	0.000000	-1.000000	-1.000000	1317715.000000	1769636446.872302
4661.325000	13357.440000	17907.570000	32361.570000	6680.835000	-9106.065000	-19083.150000	198662.130000	-3.979923	-0.791333	0.551278	3.106198	5.262864	4.064460	-2.521603	0.909165	-0.274680	13.856080	4.700080	-0.835325	-0.215454	0.449889	-1.000000	-1.000000	-1.000000	-1.000000	-1.000000	-1.000000	-1.000000	80.344828	0.000000	-1.000000	-1.000000	1317716.000000	1769636446.872315
4594.815000	13279.905000	17831.070000	32294.385000	6633.045000	-9101.655000	-19021.815000	198333.000000	-0.244189	1.956034	1.496541	2.096590	2.135587	-3.050705	-7.696474	0.587809	-1.602300	12.711580	5.783540	-0.839720	-0.207458	0.444213	-1.000000	-1.000000	-1.000000	-1.000000	-1.000000	-1.000000	-1.000000	80.344828	0.000000	-1.000000	-1.000000	1317717.000000	1769636446.875586
4625.235000	13319.415000	17874.405000	32339.385000	6671.160000	-9087.255000	-19023.120000	198006.930000	-0.998828	-1.287146	-3.345450	-4.095637	-4.453419	-9.435642	-10.806348	0.319553	-1.602300	12.711580	5.783540	-0.839720	-0.207458	0.444213	-1.000000	-1.000000	-1.000000	-1.000000	-1.000000	-1.000000	-1.000000	80.344828	0.000000	-1.000000	-1.000000	1317718.000000	1769636446.875598
4677.705000	13371.480000	17918.730000	32374.935000	6689.880000	-9114.480000	-19115.820000	197682.885000	-3.426025	-6.394792	-8.989627	-9.991690	-9.415106	-10.416769	-7.562348	0.525550	-1.602300	12.711580	5.783540	-0.839720	-0.207458	0.444213	-1.000000	-1.000000	-1.000000	-1.000000	-1.000000	-1.000000	-1.000000	80.344828	0.000000	-1.000000	-1.000000	1317719.000000	1769636446.879535
4664.520000	13356.180000	17902.800000	32359.365000	6681.780000	-9077.805000	-19033.560000	197351.370000	-0.473313	-4.685907	-6.878229	-7.973527	-7.452340	-5.766623	-1.671858	1.240532	-1.602300	12.711580	5.783540	-0.839720	-0.207458	0.444213	-1.000000	-1.000000	-1.000000	-1.000000	-1.000000	-1.000000	-1.000000	80.344828	0.000000	-1.000000	-1.000000	1317720.000000	1769636446.879560
4665.555000	13360.545000	17907.570000	32364.855000	6688.620000	-9067.140000	-19021.545000	197017.740000	7.990387	4.270036	2.632288	0.782922	-0.215565	1.689056	3.191152	1.914031	-1.602300	12.711580	5.783540	-0.839720	-0.207458	0.444213	-1.000000	-1.000000	-1.000000	-1.000000	-1.000000	-1.000000	-1.000000	80.344828	0.000000	-1.000000	-1.000000	1317721.000000	1769636446.883533
4658.535000	13353.705000	17902.620000	32359.995000	6683.625000	-9080.055000	-19036.755000	196677.405000	14.882880	12.741745	11.559634	8.774603	6.373751	8.216748	6.965508	1.798636	-1.602300	12.711580	5.783540	-0.839720	-0.207458	0.444213	-1.000000	-1.000000	-1.000000	-1.000000	-1.000000	-1.000000	-1.000000	80.344828	0.000000	-1.000000	-1.000000	1317722.000000	1769636446.883544
4655.970000	13347.405000	17896.770000	32354.325000	6679.710000	-9085.410000	-19044.315000	196344.360000	13.564056	13.395781	13.022802	10.117220	7.659868	9.994684	9.128898	0.691895	-1.602300	12.711580	5.783540	-0.839720	-0.207458	0.444213	-1.000000	-1.000000	-1.000000	-1.000000	-1.000000	-1.000000	-1.000000	80.344828	0.000000	-1.000000	-1.000000	1317723.000000	1769636446.887511
4658.625000	13352.445000	17902.170000	32361.120000	6688.980000	-9076.320000	-19053.585000	196012.620000	3.612734	5.241808	6.244209	4.419636	3.306817	6.426957	8.993668	-0.737180	-1.602300	12.711580	5.783540	-0.839720	-0.207458	0.444213	-1.000000	-1.000000	-1.000000	-1.000000	-1.000000	-1.000000	-1.000000	80.344828	0.000000	-1.000000	-1.000000	1317724.000000	1769636446.887527
4657.050000	13351.410000	17902.080000	32363.370000	6696.225000	-9063.720000	-19057.995000	195686.235000	-7.790689	-4.699697	-2.278581	-2.321590	-1.670752	1.179237	5.417403	-1.453720	-1.602300	12.711580	5.783540	-0.839720	-0.207458	0.444213	-1.000000	-1.000000	-1.000000	-1.000000	-1.000000	-1.000000	-1.000000	80.344828	0.000000	-1.000000	-1.000000	1317725.000000	1769636446.891436
4645.935000	13341.555000	17897.715000	32362.875000	6700.410000	-9052.245000	-19027.485000	195357.645000	-12.025901	-7.793492	-4.637927	-3.133571	-1.682693	-1.956437	-2.339038	-0.958229	-1.602300	12.711580	5.783540	-0.839720	-0.207458	0.444213	-1.000000	-1.000000	-1.000000	-1.000000	-1.000000	-1.000000	-1.000000	80.344828	0.000000	-1.000000	-1.000000	1317726.000000	1769636446.891451
4657.050000	13351.365000	17902.395000	32360.625000	6688.305000	-9100.350000	-19043.910000	195028.605000	-8.132180	-3.776256	-0.955168	1.229798	2.167736	-2.920635	-10.028047	0.221282	-10.315760	13.428800	7.217980	-0.838072	-0.200012	0.447326	-1.000000	-1.000000	-1.000000	-1.000000	-1.000000	-1.000000	-1.000000	80.344828	0.000000	-1.000000	-1.000000	1317727.000000	1769636446.898176
4663.665000	13350.195000	17896.635000	32349.960000	6676.425000	-9113.715000	-19063.440000	194700.240000	-2.097144	0.483036	1.915390	3.798211	3.705284	-4.473249	-11.630580	1.062785	-10.315760	13.428800	7.217980	-0.838072	-0.200012	0.447326	-1.000000	-1.000000	-1.000000	-1.000000	-1.000000	-1.000000	-1.000000	80.344828	0.000000	-1.000000	-1.000000	1317728.000000	1769636446.898190
4674.330000	13344.660000	17886.465000	32344.380000	6678.585000	-9100.710000	-19052.415000	194374.755000	1.652580	0.642147	-0.035392	0.842354	0.037529	-7.783589	-7.691258	1.155180	-10.315760	13.428800	7.217980	-0.838072	-0.200012	0.447326	-1.000000	-1.000000	-1.000000	-1.000000	-1.000000	-1.000000	-1.000000	80.344828	0.000000	-1.000000	-1.000000	1317729.000000	1769636446.901495
4671.720000	13336.785000	17881.245000	32344.605000	6681.735000	-9101.925000	-19049.895000	194040.585000	3.111847	-2.135576	-4.926807	-5.024211	-5.765064	-10.309005	-3.185948	0.908473	-10.315760	13.428800	7.217980	-0.838072	-0.200012	0.447326	-1.000000	-1.000000	-1.000000	-1.000000	-1.000000	-1.000000	-1.000000	80.344828	0.000000	-1.000000	-1.000000	1317730.000000	1769636446.901511
4674.195000	13377.195000	17928.180000	32385.150000	6711.345000	-9078.480000	-19049.895000	193703.535000	3.151136	-4.378191	-8.148773	-8.552366	-8.653588	-8.284795	0.249036	0.683439	-10.315760	13.428800	7.217980	-0.838072	-0.200012	0.447326	-1.000000	-1.000000	-1.000000	-1.000000	-1.000000	-1.000000	-1.000000	80.344828	0.000000	-1.000000	-1.000000	1317731.000000	1769636446.903619
4680.945000	13403.385000	17958.645000	32414.895000	6740.235000	-9038.655000	-19027.755000	193371.165000	1.882984	-2.891872	-5.639813	-5.887468	-5.636462	-0.117903	4.375936	0.321647	-10.315760	13.428800	7.217980	-0.838072	-0.200012	0.447326	-1.000000	-1.000000	-1.000000	-1.000000	-1.000000	-1.000000	-1.000000	80.344828	0.000000	-1.000000	-1.000000	1317732.000000	1769636446.903635
4647.150000	13354.605000	17907.660000	32368.995000	6697.935000	-9095.310000	-19108.800000	193038.435000	-0.417568	2.062989	1.889529	1.737180	1.578875	10.645217	8.426856	-0.404136	-10.315760	13.428800	7.217980	-0.838072	-0.200012	0.447326	-1.000000	-1.000000	-1.000000	-1.000000	-1.000000	-1.000000	-1.000000	80.344828	0.000000	-1.000000	-1.000000	1317733.000000	1769636446.907482
4621.095000	13313.160000	17867.340000	32335.155000	6670.710000	-9134.955000	-19160.100000	192704.310000	-3.126178	5.667429	7.949902	7.810826	6.918882	15.350945	6.624511	-1.425374	-10.315760	13.428800	7.217980	-0.838072	-0.200012	0.447326	-1.000000	-1.000000	-1.000000	-1.000000	-1.000000	-1.000000	-1.000000	80.344828	0.000000	-1.000000	-1.000000	1317734.000000	1769636446.907497
4626.045000	13310.550000	17858.205000	32321.610000	6662.430000	-9092.745000	-19008.945000	192374.820000	-5.308751	3.594424	6.623790	6.612938	5.553639	9.355139	-1.806329	-2.400867	-10.315760	13.428800	7.217980	-0.838072	-0.200012	0.447326	-1.000000	-1.000000	-1.000000	-1.000000	-1.000000	-1.000000	-1.000000	80.344828	0.000000	-1.000000	-1.000000	1317735.000000	1769636446.911409
4679.010000	13361.535000	17900.235000	32350.410000	6680.925000	-9063.720000	-18978.300000	192035.160000	-5.185292	-2.432981	-0.738086	-0.666217	-0.738427	-0.199262	-5.280279	-2.906351	-10.315760	13.428800	7.217980	-0.838072	-0.200012	0.447326	-1.000000	-1.000000	-1.000000	-1.000000	-1.000000	-1.000000	-1.000000	80.344828	0.000000	-1.000000	-1.000000	1317736.000000	1769636446.911417
4678.560000	13383.090000	17939.115000	32396.220000	6719.895000	-9070.290000	-19066.410000	191696.580000	-1.115908	-5.751492	-6.212781	-6.387819	-5.067563	-3.607347	2.811542	-2.848520	-14.039200	15.061620	8.957620	-0.833494	-0.200561	0.454345	-1.000000	-1.000000	-1.000000	-1.000000	-1.000000	-1.000000	-1.000000	80.344828	0.000000	-1.000000	-1.000000	1317737.000000	1769636446.915579
4646.835000	13361.130000	17928.405000	32393.475000	6723.630000	-9074.970000	-19084.050000	191367.000000	4.929398	-2.482986	-3.755091	-4.234599	-2.604857	-0.867956	11.164628	-2.293078	-14.039200	15.061620	8.957620	-0.833494	-0.200561	0.454345	-1.000000	-1.000000	-1.000000	-1.000000	-1.000000	-1.000000	-1.000000	80.344828	0.000000	-1.000000	-1.000000	1317738.000000	1769636446.915592
4637.745000	13329.180000	17883.225000	32343.390000	6682.770000	-9080.505000	-19013.310000	191049.030000	7.714729	3.244701	3.162714	2.823001	3.635874	1.606260	8.993939	-0.702219	-14.039200	15.061620	8.957620	-0.833494	-0.200561	0.454345	-1.000000	-1.000000	-1.000000	-1.000000	-1.000000	-1.000000	-1.000000	80.344828	0.000000	-1.000000	-1.000000	1317739.000000	1769636446.919614
4643.145000	13329.225000	17877.060000	32334.435000	6676.065000	-9097.245000	-19063.170000	190711.305000	4.760419	4.141917	5.235649	5.372641	5.711977	-0.473795	-0.066346	2.358676	-14.039200	15.061620	8.957620	-0.833494	-0.200561	0.454345	-1.000000	-1.000000	-1.000000	-1.000000	-1.000000	-1.000000	-1.000000	80.344828	0.000000	-1.000000	-1.000000	1317740.000000	1769636446.919624
4638.645000	13345.110000	17908.605000	32369.445000	6704.730000	-9097.065000	-19101.420000	190372.320000	-0.992471	-1.085820	-0.583523	-0.099521	0.728166	-6.541988	-8.849636	5.490880	-14.039200	15.061620	8.957620	-0.833494	-0.200561	0.454345	-1.000000	-1.000000	-1.000000	-1.000000	-1.000000	-1.000000	-1.000000	80.344828	0.000000	-1.000000	-1.000000	1317741.000000	1769636446.923530
4636.530000	13328.595000	17886.015000	32348.880000	6688.485000	-9085.590000	-19019.025000	190040.985000	-4.396299	-5.872782	-6.863534	-6.417022	-5.274313	-11.106242	-12.414683	6.309993	-14.039200	15.061620	8.957620	-0.833494	-0.200561	0.454345	-1.000000	-1.000000	-1.000000	-1.000000	-1.000000	-1.000000	-1.000000	80.344828	0.000000	-1.000000	-1.000000	1317742.000000	1769636446.923536
4645.170000	13336.020000	17885.655000	32340.915000	6677.910000	-9075.555000	-18987.030000	189712.395000	-2.445002	-3.882978	-5.835639	-5.917650	-5.756027	-8.326787	-6.528681	4.126029	-14.039200	15.061620	8.957620	-0.833494	-0.200561	0.454345	-1.000000	-1.000000	-1.000000	-1.000000	-1.000000	-1.000000	-1.000000	80.344828	0.000000	-1.000000	-1.000000	1317743.000000	1769636446.930534
4666.275000	13369.680000	17918.910000	32367.060000	6698.565000	-9054.270000	-18980.955000	189388.530000	2.999649	3.876375	1.827047	0.881754	-0.882105	0.933883	4.649426	0.525532	-14.039200	15.061620	8.957620	-0.833494	-0.200561	0.454345	-1.000000	-1.000000	-1.000000	-1.000000	-1.000000	-1.000000	-1.000000	80.344828	0.000000	-1.000000	-1.000000	1317744.000000	1769636446.930547
4699.890000	13412.430000	17965.665000	32413.545000	6736.860000	-9033.795000	-18994.860000	189071.460000	7.058697	11.308413	10.075325	8.619149	5.345097	10.278858	10.353586	-2.030377	-14.039200	15.061620	8.957620	-0.833494	-0.200561	0.454345	-1.000000	-1.000000	-1.000000	-1.000000	-1.000000	-1.000000	-1.000000	80.344828	0.000000	-1.000000	-1.000000	1317745.000000	1769636446.931489
4680.405000	13386.600000	17941.005000	32392.440000	6714.540000	-9080.325000	-19068.435000	188751.060000	6.771022	13.139667	13.273503	12.195441	8.839601	13.734126	6.320412	-1.937747	-14.039200	15.061620	8.957620	-0.833494	-0.200561	0.454345	-1.000000	-1.000000	-1.000000	-1.000000	-1.000000	-1.000000	-1.000000	80.344828	0.000000	-1.000000	-1.000000	1317746.000000	1769636446.931500
4655.610000	13349.835000	17900.505000	32352.210000	6676.830000	-9134.640000	-19134.405000	188432.685000	2.496925	7.571000	8.605045	8.498481	6.395626	8.116566	-4.846930	0.266095	-13.383020	15.153180	8.743980	-0.833677	-0.203552	0.450805	-1.000000	-1.000000	-1.000000	-1.000000	-1.000000	-1.000000	-1.000000	80.344828	0.000000	-1.000000	-1.000000	1317747.000000	1769636446.935526
4657.410000	13345.875000	17894.205000	32347.485000	6678.270000	-9116.280000	-19111.545000	188119.755000	-3.777520	-3.207787	-2.161904	-1.219488	-1.416683	-4.486742	-18.249840	2.566895	-13.383020	15.153180	8.743980	-0.833677	-0.203552	0.450805	-1.000000	-1.000000	-1.000000	-1.000000	-1.000000	-1.000000	-1.000000	80.344828	0.000000	-1.000000	-1.000000	1317748.000000	1769636446.935536
4673.205000	13365.720000	17915.670000	32371.245000	6706.845000	-9054.990000	-19025.955000	187818.525000	-8.978780	-13.553096	-12.873191	-11.011038	-9.131001	-14.839633	-23.626583	3.760438	-13.383020	15.153180	8.743980	-0.833677	-0.203552	0.450805	-1.000000	-1.000000	-1.000000	-1.000000	-1.000000	-1.000000	-1.000000	80.344828	0.000000	-1.000000	-1.000000	1317749.000000	1769636446.939579
4651.335000	13340.295000	17890.380000	32347.035000	6687.135000	-9065.250000	-19017.945000	187505.145000	-10.105803	-17.689688	-17.365975	-15.032451	-11.285000	-13.661529	-11.146282	4.120347	-13.383020	15.153180	8.743980	-0.833677	-0.203552	0.450805	-1.000000	-1.000000	-1.000000	-1.000000	-1.000000	-1.000000	-1.000000	80.344828	0.000000	-1.000000	-1.000000	1317750.000000	1769636446.939591
4626.180000	13309.380000	17856.540000	32311.980000	6652.395000	-9103.230000	-19038.465000	187193.475000	-7.081692	-14.031645	-13.973042	-12.081042	-7.437689	-2.374036	13.048885	3.759592	-13.383020	15.153180	8.743980	-0.833677	-0.203552	0.450805	-1.000000	-1.000000	-1.000000	-1.000000	-1.000000	-1.000000	-1.000000	80.344828	0.000000	-1.000000	-1.000000	1317751.000000	1769636446.943605
4627.305000	13317.930000	17873.190000	32333.130000	6675.705000	-9089.865000	-19044.720000	186876.180000	-2.950875	-5.944962	-5.708636	-4.958520	-1.070483	8.436685	29.255085	2.000865	-13.383020	15.153180	8.743980	-0.833677	-0.203552	0.450805	-1.000000	-1.000000	-1.000000	-1.000000	-1.000000	-1.000000	-1.000000	80.344828	0.000000	-1.000000	-1.000000	1317752.000000	1769636446.943612
4652.235000	13346.370000	17901.855000	32360.085000	6697.845000	-9081.720000	-19051.380000	186564.690000	-0.405642	1.747443	2.895551	2.775637	4.586239	10.975720	25.266491	-1.386928	-13.383020	15.153180	8.743980	-0.833677	-0.203552	0.450805	-1.000000	-1.000000	-1.000000	-1.000000	-1.000000	-1.000000	-1.000000	80.344828	0.000000	-1.000000	-1.000000	1317753.000000	1769636446.947591
4676.940000	13369.185000	17918.460000	32368.050000	6699.555000	-9082.350000	-19039.770000	186254.100000	0.922102	6.625132	8.640968	8.221353	7.632808	6.048702	7.559136	-5.320644	-13.383020	15.153180	8.743980	-0.833677	-0.203552	0.450805	-1.000000	-1.000000	-1.000000	-1.000000	-1.000000	-1.000000	-1.000000	80.344828	0.000000	-1.000000	-1.000000	1317754.000000	1769636446.947605
4663.710000	13336.965000	17879.895000	32331.645000	6671.385000	-9097.290000	-19036.620000	185951.295000	3.379194	9.261363	10.665750	9.693636	7.182438	-0.300062	-7.467528	-7.878749	-13.383020	15.153180	8.743980	-0.833677	-0.203552	0.450805	-1.000000	-1.000000	-1.000000	-1.000000	-1.000000	-1.000000	-1.000000	80.344828	0.000000	-1.000000	-1.000000	1317755.000000	1769636446.951630
4622.445000	13302.810000	17853.300000	32305.770000	6645.600000	-9114.615000	-19042.110000	185643.945000	7.022742	10.207607	9.514001	7.466689	3.989762	-2.869209	-9.817278	-7.650973	-13.383020	15.153180	8.743980	-0.833677	-0.203552	0.450805	-1.000000	-1.000000	-1.000000	-1.000000	-1.000000	-1.000000	-1.000000	80.344828	0.000000	-1.000000	-1.000000	1317756.000000	1769636446.951636
4608.045000	13317.210000	17877.375000	32331.645000	6664.905000	-9099.225000	-19032.840000	185341.500000	8.046579	8.414504	6.084593	3.352367	-0.160753	-1.777245	-3.363494	-4.849020	-5.234180	15.153180	7.248500	-0.835935	-0.208435	0.445067	-1.000000	-1.000000	-1.000000	-1.000000	-1.000000	-1.000000	-1.000000	80.344828	0.000000	-1.000000	-1.000000	1317757.000000	1769636446.955541
4623.390000	13327.155000	17887.995000	32348.835000	6690.195000	-9078.255000	-19014.570000	185040.630000	4.178755	4.051132	2.086177	-0.111004	-3.132266	-0.472980	1.750757	-0.997761	-5.234180	15.153180	7.248500	-0.835935	-0.208435	0.445067	-1.000000	-1.000000	-1.000000	-1.000000	-1.000000	-1.000000	-1.000000	80.344828	0.000000	-1.000000	-1.000000	1317758.000000	1769636446.955550
4648.905000	13347.810000	17905.275000	32361.210000	6694.605000	-9098.865000	-19063.035000	184742.820000	-0.682832	0.458171	0.243995	-0.353523	-2.511848	-0.347517	-0.211779	2.382344	-5.234180	15.153180	7.248500	-0.835935	-0.208435	0.445067	-1.000000	-1.000000	-1.000000	-1.000000	-1.000000	-1.000000	-1.000000	80.344828	0.000000	-1.000000	-1.000000	1317759.000000	1769636446.959709
4664.835000	13361.535000	17913.960000	32367.420000	6703.425000	-9087.570000	-19073.610000	184441.545000	-0.849391	0.992627	2.182780	3.244797	2.238087	-0.230458	-8.140056	4.494978	-5.234180	15.153180	7.248500	-0.835935	-0.208435	0.445067	-1.000000	-1.000000	-1.000000	-1.000000	-1.000000	-1.000000	-1.000000	80.344828	0.000000	-1.000000	-1.000000	1317760.000000	1769636446.959724
4663.305000	13366.485000	17917.290000	32364.630000	6696.360000	-9088.920000	-19061.910000	184150.755000	3.466891	4.091865	5.180281	6.946657	7.226502	0.398337	-16.090247	5.183998	-5.234180	15.153180	7.248500	-0.835935	-0.208435	0.445067	-1.000000	-1.000000	-1.000000	-1.000000	-1.000000	-1.000000	-1.000000	80.344828	0.000000	-1.000000	-1.000000	1317761.000000	1769636446.963802
4656.060000	13356.000000	17906.535000	32356.395000	6690.330000	-9085.680000	-19048.545000	183856.545000	5.919472	3.835111	3.494121	4.879037	6.584697	0.474062	-16.756077	4.730447	-5.234180	15.153180	7.248500	-0.835935	-0.208435	0.445067	-1.000000	-1.000000	-1.000000	-1.000000	-1.000000	-1.000000	-1.000000	80.344828	0.000000	-1.000000	-1.000000	1317762.000000	1769636446.963815
4660.380000	13357.755000	17913.735000	32373.495000	6713.955000	-9060.930000	-19031.040000	183564.675000	1.885454	-2.779178	-4.504684	-3.703280	-0.497644	-0.023409	-6.986550	3.459648	-5.234180	15.153180	7.248500	-0.835935	-0.208435	0.445067	-1.000000	-1.000000	-1.000000	-1.000000	-1.000000	-1.000000	-1.000000	80.344828	0.000000	-1.000000	-1.000000	1317763.000000	1769636446.967430
4659.030000	13355.145000	17907.030000	32362.200000	6697.620000	-9087.345000	-19058.940000	183274.695000	-5.663518	-10.955680	-12.697409	-11.863937	-7.737661	0.719437	8.810208	1.558257	-5.234180	15.153180	7.248500	-0.835935	-0.208435	0.445067	-1.000000	-1.000000	-1.000000	-1.000000	-1.000000	-1.000000	-1.000000	80.344828	0.000000	-1.000000	-1.000000	1317764.000000	1769636446.967442
4667.805000	13364.820000	17915.985000	32365.890000	6700.005000	-9085.950000	-19066.320000	182989.800000	-9.680049	-13.213269	-13.768468	-12.707433	-9.220625	2.597801	20.908137	-0.554785	-5.234180	15.153180	7.248500	-0.835935	-0.208435	0.445067	-1.000000	-1.000000	-1.000000	-1.000000	-1.000000	-1.000000	-1.000000	80.344828	0.000000	-1.000000	-1.000000	1317765.000000	1769636446.971432
4664.070000	13349.700000	17895.735000	32342.310000	6678.810000	-9085.995000	-19038.915000	182698.020000	-6.946588	-8.146893	-7.717835	-7.274742	-6.011364	2.579901	21.782928	-2.267929	-5.234180	15.153180	7.248500	-0.835935	-0.208435	0.445067	-1.000000	-1.000000	-1.000000	-1.000000	-1.000000	-1.000000	-1.000000	80.344828	0.000000	-1.000000	-1.000000	1317766.000000	1769636446.971445
4626.630000	13310.910000	17861.220000	32315.985000	6659.865000	-9096.570000	-19039.995000	182410.020000	-1.252317	-1.424700	-1.044246	-2.107968	-3.363527	-1.051917	12.322413	-3.313864	0.915600	14.268100	6.607580	-0.831846	-0.209533	0.440184	-1.000000	-1.000000	-1.000000	-1.000000	-1.000000	-1.000000	-1.000000	80.344828	0.000000	-1.000000	-1.000000	1317767.000000	1769636446.975544
4649.220000	13333.230000	17880.030000	32328.000000	6662.250000	-9112.230000	-19081.845000	182116.845000	1.446056	1.458639	1.403556	-0.856326	-3.577120	-6.108671	-0.560205	-3.768914	0.915600	14.268100	6.607580	-0.831846	-0.209533	0.440184	-1.000000	-1.000000	-1.000000	-1.000000	-1.000000	-1.000000	-1.000000	80.344828	0.000000	-1.000000	-1.000000	1317768.000000	1769636446.975557
4661.775000	13350.735000	17897.580000	32342.310000	6670.530000	-9102.240000	-19042.065000	181831.050000	0.088577	0.916256	0.988435	-1.187567	-4.119522	-8.880163	-10.227423	-3.685160	0.915600	14.268100	6.607580	-0.831846	-0.209533	0.440184	-1.000000	-1.000000	-1.000000	-1.000000	-1.000000	-1.000000	-1.000000	80.344828	0.000000	-1.000000	-1.000000	1317769.000000	1769636446.979530
4644.945000	13354.785000	17907.120000	32354.505000	6683.445000	-9089.190000	-19026.945000	181541.655000	-2.089439	0.611894	1.497364	0.575081	-1.854914	-7.264658	-12.820160	-3.074793	0.915600	14.268100	6.607580	-0.831846	-0.209533	0.440184	-1.000000	-1.000000	-1.000000	-1.000000	-1.000000	-1.000000	-1.000000	80.344828	0.000000	-1.000000	-1.000000	1317770.000000	1769636446.979545
4649.175000	13354.515000	17906.985000	32358.015000	6688.035000	-9093.510000	-19049.760000	181253.790000	-2.845627	2.164019	4.038364	4.847613	3.380473	-1.852228	-8.723658	-2.116352	0.915600	14.268100	6.607580	-0.831846	-0.209533	0.440184	-1.000000	-1.000000	-1.000000	-1.000000	-1.000000	-1.000000	-1.000000	80.344828	0.000000	-1.000000	-1.000000	1317771.000000	1769636446.983588
4654.710000	13357.980000	17909.595000	32360.310000	6692.085000	-9095.445000	-19073.205000	180971.550000	-1.618913	4.766744	7.075639	9.179758	8.977666	4.444304	-2.867649	-1.056986	0.915600	14.268100	6.607580	-0.831846	-0.209533	0.440184	-1.000000	-1.000000	-1.000000	-1.000000	-1.000000	-1.000000	-1.000000	80.344828	0.000000	-1.000000	-1.000000	1317772.000000	1769636446.983601
4649.985000	13358.385000	17914.185000	32365.575000	6698.115000	-9076.680000	-19046.115000	180688.995000	1.584360	7.084691	8.857231	11.176562	12.190843	9.033211	0.778293	-0.003907	0.915600	14.268100	6.607580	-0.831846	-0.209533	0.440184	-1.000000	-1.000000	-1.000000	-1.000000	-1.000000	-1.000000	-1.000000	80.344828	0.000000	-1.000000	-1.000000	1317773.000000	1769636446.993799
4656.060000	13355.730000	17909.280000	32360.895000	6690.960000	-9075.825000	-19021.905000	180407.700000	5.409771	7.576969	8.110994	9.752327	11.622139	10.972056	2.865547	0.941447	0.915600	14.268100	6.607580	-0.831846	-0.209533	0.440184	-1.000000	-1.000000	-1.000000	-1.000000	-1.000000	-1.000000	-1.000000	80.344828	0.000000	-1.000000	-1.000000	1317774.000000	1769636446.993815
4645.485000	13347.855000	17899.245000	32347.890000	6670.125000	-9113.445000	-19048.590000	180135.405000	7.698509	5.309643	4.415314	4.975178	6.848623	8.934780	4.154402	1.728736	0.915600	14.268100	6.607580	-0.831846	-0.209533	0.440184	-1.000000	-1.000000	-1.000000	-1.000000	-1.000000	-1.000000	-1.000000	80.344828	0.000000	-1.000000	-1.000000	1317775.000000	1769636446.998028
4657.185000	13362.255000	17916.165000	32367.465000	6694.560000	-9091.440000	-19056.690000	179856.090000	7.372858	1.484004	-0.563595	-1.232186	-0.490999	2.592410	3.252646	2.477886	0.915600	14.268100	6.607580	-0.831846	-0.209533	0.440184	-1.000000	-1.000000	-1.000000	-1.000000	-1.000000	-1.000000	-1.000000	80.344828	0.000000	-1.000000	-1.000000	1317776.000000	1769636446.998040
4644.720000	13336.515000	17888.490000	32343.795000	6683.580000	-9075.240000	-19053.495000	179575.470000	4.354176	-2.385239	-4.809476	-6.320252	-6.752834	-4.192597	0.540325	3.022332	-0.076300	13.993420	8.103060	-0.833372	-0.204711	0.436522	-1.000000	-1.000000	-1.000000	-1.000000	-1.000000	-1.000000	-1.000000	80.344828	0.000000	-1.000000	-1.000000	1317777.000000	1769636446.998052
4634.100000	13324.545000	17876.160000	32328.045000	6663.510000	-9093.330000	-19070.190000	179302.950000	-1.158187	-6.772779	-8.652475	-9.972156	-10.060036	-7.272812	-2.264833	2.839978	-0.076300	13.993420	8.103060	-0.833372	-0.204711	0.436522	-1.000000	-1.000000	-1.000000	-1.000000	-1.000000	-1.000000	-1.000000	80.344828	0.000000	-1.000000	-1.000000	1317778.000000	1769636446.998057
4647.285000	13340.970000	17893.665000	32343.930000	6674.580000	-9093.780000	-19063.035000	179031.195000	-7.126912	-11.170517	-12.058982	-12.491350	-11.096677	-7.055058	-4.693081	1.833790	-0.076300	13.993420	8.103060	-0.833372	-0.204711	0.436522	-1.000000	-1.000000	-1.000000	-1.000000	-1.000000	-1.000000	-1.000000	80.344828	0.000000	-1.000000	-1.000000	1317779.000000	1769636447.000966
4665.330000	13361.265000	17915.130000	32363.145000	6684.840000	-9113.040000	-19098.855000	178759.980000	-9.587442	-11.794917	-11.786538	-11.738564	-9.801066	-5.953752	-5.851686	0.530101	-0.076300	13.993420	8.103060	-0.833372	-0.204711	0.436522	-1.000000	-1.000000	-1.000000	-1.000000	-1.000000	-1.000000	-1.000000	80.344828	0.000000	-1.000000	-1.000000	1317780.000000	1769636447.000979
4642.965000	13332.960000	17890.155000	32344.875000	6676.785000	-9112.500000	-19083.375000	178485.075000	-6.701622	-6.272355	-5.601981	-5.878704	-5.400595	-4.858564	-4.308689	-0.659365	-0.076300	13.993420	8.103060	-0.833372	-0.204711	0.436522	-1.000000	-1.000000	-1.000000	-1.000000	-1.000000	-1.000000	-1.000000	80.344828	0.000000	-1.000000	-1.000000	1317781.000000	1769636447.004866
4648.185000	13334.445000	17890.380000	32347.395000	6685.155000	-9081.630000	-19040.760000	178203.555000	-1.017242	2.209608	3.315866	2.682938	1.032783	-2.978188	0.204806	-1.871163	-0.076300	13.993420	8.103060	-0.833372	-0.204711	0.436522	-1.000000	-1.000000	-1.000000	-1.000000	-1.000000	-1.000000	-1.000000	80.344828	0.000000	-1.000000	-1.000000	1317782.000000	1769636447.004878
4648.320000	13340.160000	17894.340000	32347.845000	6682.950000	-9065.565000	-18995.265000	177933.870000	3.691611	8.638610	9.833282	9.519919	7.060772	1.092678	6.769944	-3.272331	-0.076300	13.993420	8.103060	-0.833372	-0.204711	0.436522	-1.000000	-1.000000	-1.000000	-1.000000	-1.000000	-1.000000	-1.000000	80.344828	0.000000	-1.000000	-1.000000	1317783.000000	1769636447.008876
4648.410000	13339.710000	17895.150000	32347.845000	6681.600000	-9075.555000	-19012.770000	177668.550000	5.756107	10.997555	11.879872	12.237432	10.650682	7.153109	13.169005	-4.297911	-0.076300	13.993420	8.103060	-0.833372	-0.204711	0.436522	-1.000000	-1.000000	-1.000000	-1.000000	-1.000000	-1.000000	-1.000000	80.344828	0.000000	-1.000000	-1.000000	1317784.000000	1769636447.008887
4648.590000	13336.830000	17892.090000	32344.605000	6680.430000	-9079.245000	-19019.835000	177406.110000	5.199485	9.520266	9.878501	10.547057	10.362873	11.589324	15.613703	-3.822016	-0.076300	13.993420	8.103060	-0.833372	-0.204711	0.436522	-1.000000	-1.000000	-1.000000	-1.000000	-1.000000	-1.000000	-1.000000	80.344828	0.000000	-1.000000	-1.000000	1317785.000000	1769636447.011554
4637.430000	13332.330000	17889.660000	32343.975000	6681.690000	-9074.340000	-19017.270000	177143.670000	2.581537	5.182439	5.115521	5.566755	6.162445	10.244168	11.003624	-1.336697	-0.076300	13.993420	8.103060	-0.833372	-0.204711	0.436522	-1.000000	-1.000000	-1.000000	-1.000000	-1.000000	-1.000000	-1.000000	80.344828	0.000000	-1.000000	-1.000000	1317786.000000	1769636447.011563
4648.455000	13337.820000	17893.980000	32345.730000	6678.855000	-9082.305000	-19036.800000	176876.505000	-0.714222	-0.068665	-0.293543	-0.216010	0.300987	3.322469	0.191650	2.091000	-9.537500	11.948580	7.813120	-0.837034	-0.194519	0.433165	-1.000000	-1.000000	-1.000000	-1.000000	-1.000000	-1.000000	-1.000000	80.344828	0.000000	-1.000000	-1.000000	1317787.000000	1769636447.018203
4658.760000	13332.735000	17883.540000	32333.535000	6668.235000	-9088.425000	-19028.070000	176607.810000	-2.864531	-4.411056	-4.743250	-4.894568	-4.778169	-4.930260	-11.740740	4.346957	-9.537500	11.948580	7.813120	-0.837034	-0.194519	0.433165	-1.000000	-1.000000	-1.000000	-1.000000	-1.000000	-1.000000	-1.000000	80.344828	0.000000	-1.000000	-1.000000	1317788.000000	1769636447.018214
4664.700000	13346.865000	17905.185000	32358.195000	6690.015000	-9079.245000	-19046.610000	176344.695000	-2.948966	-6.852489	-7.477222	-7.715331	-7.772788	-9.920955	-18.405150	4.026941	-9.537500	11.948580	7.813120	-0.837034	-0.194519	0.433165	-1.000000	-1.000000	-1.000000	-1.000000	-1.000000	-1.000000	-1.000000	80.344828	0.000000	-1.000000	-1.000000	1317789.000000	1769636447.020010
4649.085000	13348.620000	17913.195000	32366.835000	6698.610000	-9075.330000	-19049.490000	176084.370000	-1.353123	-6.238750	-6.989288	-7.237325	-7.341117	-9.488393	-17.263396	1.687718	-9.537500	11.948580	7.813120	-0.837034	-0.194519	0.433165	-1.000000	-1.000000	-1.000000	-1.000000	-1.000000	-1.000000	-1.000000	80.344828	0.000000	-1.000000	-1.000000	1317790.000000	1769636447.020021
4640.490000	13347.450000	17909.865000	32361.885000	6693.210000	-9077.130000	-19043.595000	175827.510000	0.330581	-2.470495	-2.700933	-2.925431	-3.349733	-5.438414	-11.675843	-0.705891	-9.537500	11.948580	7.813120	-0.837034	-0.194519	0.433165	-1.000000	-1.000000	-1.000000	-1.000000	-1.000000	-1.000000	-1.000000	80.344828	0.000000	-1.000000	-1.000000	1317791.000000	1769636447.023743
4653.360000	13355.010000	17911.665000	32356.710000	6682.320000	-9086.715000	-19044.810000	175567.230000	0.680751	2.101434	2.707648	2.467540	1.571584	-1.418677	-5.942759	-1.699065	-9.537500	11.948580	7.813120	-0.837034	-0.194519	0.433165	-1.000000	-1.000000	-1.000000	-1.000000	-1.000000	-1.000000	-1.000000	80.344828	0.000000	-1.000000	-1.000000	1317792.000000	1769636447.023755
4647.555000	13345.515000	17906.985000	32358.510000	6689.385000	-9075.555000	-19031.940000	175309.515000	0.089452	4.643247	5.591547	5.313297	4.316196	1.022690	-0.470803	-1.470520	-9.537500	11.948580	7.813120	-0.837034	-0.194519	0.433165	-1.000000	-1.000000	-1.000000	-1.000000	-1.000000	-1.000000	-1.000000	80.344828	0.000000	-1.000000	-1.000000	1317793.000000	1769636447.027670
4642.425000	13337.685000	17900.730000	32354.685000	6686.955000	-9082.080000	-19041.705000	175054.500000	-0.481182	3.834125	4.449968	4.380404	3.945517	2.480147	6.080202	-0.969055	-9.537500	11.948580	7.813120	-0.837034	-0.194519	0.433165	-1.000000	-1.000000	-1.000000	-1.000000	-1.000000	-1.000000	-1.000000	80.344828	0.000000	-1.000000	-1.000000	1317794.000000	1769636447.027682
4648.095000	13348.035000	17910.585000	32355.945000	6676.335000	-9102.555000	-19060.110000	174796.245000	-0.611133	0.577174	0.638518	1.079353	1.530820	3.080194	12.124740	-0.761800	-9.537500	11.948580	7.813120	-0.837034	-0.194519	0.433165	-1.000000	-1.000000	-1.000000	-1.000000	-1.000000	-1.000000	-1.000000	80.344828	0.000000	-1.000000	-1.000000	1317795.000000	1769636447.031784
4630.455000	13329.360000	17892.495000	32341.095000	6667.650000	-9097.380000	-19028.340000	174534.120000	-0.467541	-2.892720	-3.235788	-2.446155	-1.423379	2.434577	14.640982	-0.927698	-9.537500	11.948580	7.813120	-0.837034	-0.194519	0.433165	-1.000000	-1.000000	-1.000000	-1.000000	-1.000000	-1.000000	-1.000000	80.344828	0.000000	-1.000000	-1.000000	1317796.000000	1769636447.031797
4648.320000	13348.215000	17910.945000	32359.635000	6683.580000	-9097.065000	-19060.515000	174280.410000	-0.833993	-4.954997	-5.420768	-4.698408	-3.511302	1.368844	13.036279	-1.242753	-16.053520	10.483620	9.033920	-0.840818	-0.192565	0.428588	-1.000000	-1.000000	-1.000000	-1.000000	-1.000000	-1.000000	-1.000000	80.344828	0.000000	-1.000000	-1.000000	1317797.000000	1769636447.035867
4670.685000	13363.020000	17919.360000	32363.010000	6685.020000	-9098.685000	-19076.895000	174029.175000	-1.031042	-4.489089	-5.059814	-4.742141	-3.597257	1.021519	7.935454	-1.236871	-16.053520	10.483620	9.033920	-0.840818	-0.192565	0.428588	-1.000000	-1.000000	-1.000000	-1.000000	-1.000000	-1.000000	-1.000000	80.344828	0.000000	-1.000000	-1.000000	1317798.000000	1769636447.035879
4678.470000	13369.320000	17925.030000	32370.210000	6698.115000	-9070.560000	-19041.975000	173777.670000	1.091998	-1.013541	-2.132103	-2.513601	-1.639746	1.410057	0.455945	-0.556040	-16.053520	10.483620	9.033920	-0.840818	-0.192565	0.428588	-1.000000	-1.000000	-1.000000	-1.000000	-1.000000	-1.000000	-1.000000	80.344828	0.000000	-1.000000	-1.000000	1317799.000000	1769636447.039637
4671.045000	13351.230000	17902.080000	32347.620000	6681.105000	-9068.715000	-19037.745000	173525.445000	5.115382	3.499500	1.657122	0.691713	1.308631	2.348396	-6.289476	0.549789	-16.053520	10.483620	9.033920	-0.840818	-0.192565	0.428588	-1.000000	-1.000000	-1.000000	-1.000000	-1.000000	-1.000000	-1.000000	80.344828	0.000000	-1.000000	-1.000000	1317800.000000	1769636447.039648
4683.960000	13370.085000	17925.120000	32371.290000	6697.710000	-9068.895000	-19056.735000	173273.760000	7.498658	5.784979	3.970869	3.172209	3.848470	3.484055	-9.455047	1.355450	-16.053520	10.483620	9.033920	-0.840818	-0.192565	0.428588	-1.000000	-1.000000	-1.000000	-1.000000	-1.000000	-1.000000	-1.000000	80.344828	0.000000	-1.000000	-1.000000	1317801.000000	1769636447.043653
4679.820000	13376.610000	17935.785000	32382.855000	6706.575000	-9070.065000	-19035.630000	173021.175000	5.831199	5.039280	4.490479	4.526562	5.049589	3.474136	-8.797944	1.295086	-16.053520	10.483620	9.033920	-0.840818	-0.192565	0.428588	-1.000000	-1.000000	-1.000000	-1.000000	-1.000000	-1.000000	-1.000000	80.344828	0.000000	-1.000000	-1.000000	1317802.000000	1769636447.043666
4630.545000	13322.835000	17881.065000	32330.520000	6658.605000	-9105.615000	-19044.045000	172766.835000	0.325758	2.243647	3.680211	4.531123	4.148196	0.968500	-5.184777	0.303114	-16.053520	10.483620	9.033920	-0.840818	-0.192565	0.428588	-1.000000	-1.000000	-1.000000	-1.000000	-1.000000	-1.000000	-1.000000	80.344828	0.000000	-1.000000	-1.000000	1317803.000000	1769636447.047720
4619.520000	13307.310000	17864.955000	32318.280000	6651.405000	-9108.270000	-19051.515000	172509.435000	-7.566913	-2.744986	0.253064	1.587202	0.314598	-3.690674	-0.208097	-1.195924	-16.053520	10.483620	9.033920	-0.840818	-0.192565	0.428588	-1.000000	-1.000000	-1.000000	-1.000000	-1.000000	-1.000000	-1.000000	80.344828	0.000000	-1.000000	-1.000000	1317804.000000	1769636447.047733
4630.680000	13318.020000	17874.720000	32326.560000	6660.315000	-9099.495000	-19049.130000	172254.330000	-14.307086	-8.639193	-5.391607	-3.885505	-5.010829	-7.847015	3.414191	-2.454047	-16.053520	10.483620	9.033920	-0.840818	-0.192565	0.428588	-1.000000	-1.000000	-1.000000	-1.000000	-1.000000	-1.000000	-1.000000	80.344828	0.000000	-1.000000	-1.000000	1317805.000000	1769636447.053504
4633.785000	13319.055000	17877.510000	32331.375000	6664.680000	-9096.570000	-19048.545000	172000.395000	-15.281279	-11.328387	-9.161950	-7.979056	-8.139513	-8.334233	4.491456	-2.888003	-16.053520	10.483620	9.033920	-0.840818	-0.192565	0.428588	-1.000000	-1.000000	-1.000000	-1.000000	-1.000000	-1.000000	-1.000000	80.344828	0.000000	-1.000000	-1.000000	1317806.000000	1769636447.053515
4627.710000	13331.475000	17901.855000	32358.870000	6685.785000	-9082.170000	-19039.545000	171752.130000	-9.376519	-8.303792	-7.663812	-7.298827	-6.744486	-4.493449	4.153228	-2.400123	-18.464600	7.660520	8.393000	-0.842405	-0.195373	0.426635	-1.000000	-1.000000	-1.000000	-1.000000	-1.000000	-1.000000	-1.000000	80.344828	0.000000	-1.000000	-1.000000	1317807.000000	1769636447.055688
4640.310000	13339.035000	17905.680000	32362.335000	6691.815000	-9078.930000	-19042.740000	171510.120000	0.316368	-0.689088	-0.924406	-1.457709	-1.278809	1.200492	2.683651	-1.084196	-18.464600	7.660520	8.393000	-0.842405	-0.195373	0.426635	-1.000000	-1.000000	-1.000000	-1.000000	-1.000000	-1.000000	-1.000000	80.344828	0.000000	-1.000000	-1.000000	1317808.000000	1769636447.055699
4657.230000	13350.870000	17908.155000	32357.520000	6685.560000	-9079.965000	-19045.485000	171269.055000	9.876563	8.301375	7.884760	6.619643	5.557660	5.468476	-0.451943	0.942006	-18.464600	7.660520	8.393000	-0.842405	-0.195373	0.426635	-1.000000	-1.000000	-1.000000	-1.000000	-1.000000	-1.000000	-1.000000	80.344828	0.000000	-1.000000	-1.000000	1317809.000000	1769636447.060197
4650.390000	13355.955000	17923.410000	32375.205000	6696.180000	-9081.855000	-19051.965000	171018.450000	15.991230	14.549685	13.774343	11.881133	9.790775	6.550869	-4.024859	3.086777	-18.464600	7.660520	8.393000	-0.842405	-0.195373	0.426635	-1.000000	-1.000000	-1.000000	-1.000000	-1.000000	-1.000000	-1.000000	80.344828	0.000000	-1.000000	-1.000000	1317810.000000	1769636447.060209
4633.380000	13329.135000	17892.495000	32344.650000	6671.205000	-9094.455000	-19050.750000	170774.145000	16.234259	14.747333	13.165828	10.893606	8.800523	4.696974	-5.977233	4.225027	-18.464600	7.660520	8.393000	-0.842405	-0.195373	0.426635	-1.000000	-1.000000	-1.000000	-1.000000	-1.000000	-1.000000	-1.000000	80.344828	0.000000	-1.000000	-1.000000	1317811.000000	1769636447.063796
4639.680000	13329.585000	17890.155000	32338.170000	6661.260000	-9098.370000	-19047.150000	170527.185000	11.074952	9.003038	6.666154	4.592221	3.584354	1.742765	-5.126851	3.693299	-18.464600	7.660520	8.393000	-0.842405	-0.195373	0.426635	-1.000000	-1.000000	-1.000000	-1.000000	-1.000000	-1.000000	-1.000000	80.344828	0.000000	-1.000000	-1.000000	1317812.000000	1769636447.063807
4635.810000	13326.705000	17885.880000	32333.895000	6655.140000	-9118.215000	-19096.875000	170281.395000	3.772913	0.913796	-1.651069	-2.961066	-2.465913	-0.633342	-2.201961	1.956306	-18.464600	7.660520	8.393000	-0.842405	-0.195373	0.426635	-1.000000	-1.000000	-1.000000	-1.000000	-1.000000	-1.000000	-1.000000	80.344828	0.000000	-1.000000	-1.000000	1317813.000000	1769636447.067824
4645.215000	13342.230000	17902.710000	32350.860000	6672.555000	-9101.745000	-19094.985000	170036.235000	-2.934814	-5.722495	-7.721841	-7.976192	-6.462145	-2.298943	0.063041	0.013505	-18.464600	7.660520	8.393000	-0.842405	-0.195373	0.426635	-1.000000	-1.000000	-1.000000	-1.000000	-1.000000	-1.000000	-1.000000	80.344828	0.000000	-1.000000	-1.000000	1317814.000000	1769636447.067835
4650.390000	13350.870000	17916.885000	32368.410000	6692.040000	-9070.965000	-19025.820000	169790.985000	-7.775787	-9.013439	-9.696567	-8.810440	-6.979581	-2.852521	1.392487	-1.453819	-18.464600	7.660520	8.393000	-0.842405	-0.195373	0.426635	-1.000000	-1.000000	-1.000000	-1.000000	-1.000000	-1.000000	-1.000000	80.344828	0.000000	-1.000000	-1.000000	1317815.000000	1769636447.076380
4645.305000	13346.820000	17915.445000	32370.930000	6698.655000	-9065.880000	-19015.740000	169548.705000	-9.902146	-8.923252	-8.004781	-6.077260	-4.212958	-1.364749	4.731136	-2.324792	-18.464600	7.660520	8.393000	-0.842405	-0.195373	0.426635	-1.000000	-1.000000	-1.000000	-1.000000	-1.000000	-1.000000	-1.000000	80.344828	0.000000	-1.000000	-1.000000	1317816.000000	1769636447.076394
4657.905000	13358.700000	17918.730000	32363.370000	6681.555000	-9106.425000	-19086.120000	169304.355000	-9.231609	-6.674260	-4.511261	-1.995768	-0.286648	0.688994	8.826561	-2.809368	-14.985320	7.950460	8.057280	-0.841429	-0.200317	0.425841	-1.000000	-1.000000	-1.000000	-1.000000	-1.000000	-1.000000	-1.000000	80.344828	0.000000	-1.000000	-1.000000	1317817.000000	1769636447.078330
4630.275000	13319.325000	17876.430000	32321.655000	6644.745000	-9127.710000	-19088.730000	169056.720000	-6.969246	-4.178666	-1.697146	0.515652	1.579377	0.010968	7.810257	-3.112702	-14.985320	7.950460	8.057280	-0.841429	-0.200317	0.425841	-1.000000	-1.000000	-1.000000	-1.000000	-1.000000	-1.000000	-1.000000	80.344828	0.000000	-1.000000	-1.000000	1317818.000000	1769636447.078341
4607.190000	13288.410000	17843.400000	32289.930000	6616.845000	-9124.875000	-19030.095000	168815.610000	-4.896486	-3.574618	-2.014662	-0.971695	-0.782525	-3.802024	1.148233	-3.090667	-14.985320	7.950460	8.057280	-0.841429	-0.200317	0.425841	-1.000000	-1.000000	-1.000000	-1.000000	-1.000000	-1.000000	-1.000000	80.344828	0.000000	-1.000000	-1.000000	1317819.000000	1769636447.080370
4623.255000	13309.470000	17870.040000	32324.535000	6653.880000	-9099.405000	-19024.740000	168563.880000	-3.109207	-4.292864	-4.375494	-4.601293	-4.885188	-6.345616	-4.313851	-2.419008	-14.985320	7.950460	8.057280	-0.841429	-0.200317	0.425841	-1.000000	-1.000000	-1.000000	-1.000000	-1.000000	-1.000000	-1.000000	80.344828	0.000000	-1.000000	-1.000000	1317820.000000	1769636447.080382
4665.645000	13344.435000	17904.105000	32361.480000	6693.885000	-9070.515000	-19033.470000	168311.565000	0.737445	-1.991810	-3.125088	-3.766059	-4.018833	-2.704351	-3.875139	-1.275618	-14.985320	7.950460	8.057280	-0.841429	-0.200317	0.425841	-1.000000	-1.000000	-1.000000	-1.000000	-1.000000	-1.000000	-1.000000	80.344828	0.000000	-1.000000	-1.000000	1317821.000000	1769636447.083654
4669.605000	13351.230000	17910.900000	32367.060000	6699.510000	-9057.825000	-19019.430000	168064.920000	7.630282	5.482779	4.621409	4.546300	4.499763	6.731662	0.784938	-0.223389	-14.985320	7.950460	8.057280	-0.841429	-0.200317	0.425841	-1.000000	-1.000000	-1.000000	-1.000000	-1.000000	-1.000000	-1.000000	80.344828	0.000000	-1.000000	-1.000000	1317822.000000	1769636447.083665
4650.705000	13357.080000	17925.120000	32381.595000	6710.670000	-9059.355000	-19032.120000	167821.560000	13.615772	13.746389	14.000273	14.576938	14.476996	15.307300	4.982488	0.550963	-14.985320	7.950460	8.057280	-0.841429	-0.200317	0.425841	-1.000000	-1.000000	-1.000000	-1.000000	-1.000000	-1.000000	-1.000000	80.344828	0.000000	-1.000000	-1.000000	1317823.000000	1769636447.087691
4641.435000	13347.810000	17909.685000	32360.130000	6688.350000	-9075.105000	-19026.720000	167570.685000	12.999618	16.104757	17.278861	17.584804	16.854820	15.172321	3.698818	1.147612	-14.985320	7.950460	8.057280	-0.841429	-0.200317	0.425841	-1.000000	-1.000000	-1.000000	-1.000000	-1.000000	-1.000000	-1.000000	80.344828	0.000000	-1.000000	-1.000000	1317824.000000	1769636447.087703
4632.210000	13322.970000	17875.080000	32319.765000	6647.445000	-9114.930000	-19061.055000	167316.255000	4.714416	9.704664	10.644628	9.529900	7.806640	4.163454	-4.117107	1.267125	-14.985320	7.950460	8.057280	-0.841429	-0.200317	0.425841	-1.000000	-1.000000	-1.000000	-1.000000	-1.000000	-1.000000	-1.000000	80.344828	0.000000	-1.000000	-1.000000	1317825.000000	1769636447.091640
4619.025000	13310.910000	17867.385000	32315.805000	6644.880000	-9122.355000	-19069.200000	167055.705000	-6.721969	-2.684040	-3.058068	-5.739716	-8.016276	-11.462021	-12.656347	0.356180	-14.985320	7.950460	8.057280	-0.841429	-0.200317	0.425841	-1.000000	-1.000000	-1.000000	-1.000000	-1.000000	-1.000000	-1.000000	80.344828	0.000000	-1.000000	-1.000000	1317826.000000	1769636447.091654
4628.205000	13321.080000	17875.665000	32319.720000	6647.805000	-9116.775000	-19048.185000	166812.435000	-14.576854	-13.795373	-15.303018	-18.272379	-20.044217	-21.416336	-14.785463	-1.331328	-11.750200	7.599480	6.454980	-0.836912	-0.202636	0.428405	-1.000000	-1.000000	-1.000000	-1.000000	-1.000000	-1.000000	-1.000000	80.344828	0.000000	-1.000000	-1.000000	1317827.000000	1769636447.095685
4639.905000	13335.705000	17893.395000	32337.720000	6665.535000	-9100.485000	-19059.795000	166589.550000	-13.648102	-16.011840	-17.524595	-19.299883	-19.851306	-19.404626	-9.431069	-2.079821	-11.750200	7.599480	6.454980	-0.836912	-0.202636	0.428405	-1.000000	-1.000000	-1.000000	-1.000000	-1.000000	-1.000000	-1.000000	80.344828	0.000000	-1.000000	-1.000000	1317828.000000	1769636447.095696
4647.600000	13344.750000	17903.970000	32346.135000	6671.565000	-9100.845000	-19072.800000	166352.220000	-4.601400	-8.152932	-8.688300	-8.816518	-8.314655	-7.569972	-1.203429	0.037082	-11.750200	7.599480	6.454980	-0.836912	-0.202636	0.428405	-1.000000	-1.000000	-1.000000	-1.000000	-1.000000	-1.000000	-1.000000	80.344828	0.000000	-1.000000	-1.000000	1317829.000000	1769636447.102978
4653.450000	13355.100000	17917.380000	32362.155000	6688.980000	-9087.885000	-19057.455000	166112.910000	5.711347	3.119161	3.883794	4.941829	5.840453	6.129145	5.749514	4.640477	-11.750200	7.599480	6.454980	-0.836912	-0.202636	0.428405	-1.000000	-1.000000	-1.000000	-1.000000	-1.000000	-1.000000	-1.000000	80.344828	0.000000	-1.000000	-1.000000	1317830.000000	1769636447.102989
4645.215000	13332.780000	17887.320000	32330.925000	6661.170000	-9104.220000	-19041.570000	165864.015000	10.542184	9.661776	11.249344	12.880204	13.758635	14.181529	10.567090	8.560204	-11.750200	7.599480	6.454980	-0.836912	-0.202636	0.428405	-1.000000	-1.000000	-1.000000	-1.000000	-1.000000	-1.000000	-1.000000	80.344828	0.000000	-1.000000	-1.000000	1317831.000000	1769636447.105380
4638.150000	13316.715000	17865.765000	32306.805000	6639.795000	-9116.325000	-19041.480000	165621.600000	8.491573	7.770136	8.874208	10.650383	11.676164	13.498026	12.969545	8.509358	-11.750200	7.599480	6.454980	-0.836912	-0.202636	0.428405	-1.000000	-1.000000	-1.000000	-1.000000	-1.000000	-1.000000	-1.000000	80.344828	0.000000	-1.000000	-1.000000	1317832.000000	1769636447.105392
4620.960000	13309.470000	17862.210000	32304.375000	6639.255000	-9114.750000	-19056.780000	165379.275000	2.505439	-0.107127	-0.653612	0.986629	2.514262	6.429926	11.574462	4.062393	-11.750200	7.599480	6.454980	-0.836912	-0.202636	0.428405	-1.000000	-1.000000	-1.000000	-1.000000	-1.000000	-1.000000	-1.000000	80.344828	0.000000	-1.000000	-1.000000	1317833.000000	1769636447.113130
4613.895000	13325.805000	17889.390000	32335.110000	6664.905000	-9103.455000	-19060.335000	165134.475000	-3.634153	-7.161146	-8.783609	-7.284378	-5.400750	-0.485718	6.580873	-2.120711	-11.750200	7.599480	6.454980	-0.836912	-0.202636	0.428405	-1.000000	-1.000000	-1.000000	-1.000000	-1.000000	-1.000000	-1.000000	80.344828	0.000000	-1.000000	-1.000000	1317834.000000	1769636447.113137
4636.305000	13340.790000	17903.295000	32349.330000	6678.585000	-9096.705000	-19041.840000	164894.940000	-6.695757	-7.364995	-8.049213	-6.526569	-5.107644	-1.894104	0.942557	-6.608383	-11.750200	7.599480	6.454980	-0.836912	-0.202636	0.428405	-1.000000	-1.000000	-1.000000	-1.000000	-1.000000	-1.000000	-1.000000	80.344828	0.000000	-1.000000	-1.000000	1317835.000000	1769636447.113224
4642.245000	13343.580000	17906.535000	32354.190000	6685.695000	-9086.175000	-19034.190000	164653.470000	-4.736312	-0.453113	1.001154	2.411701	2.495700	1.505008	-3.000220	-7.719658	-11.750200	7.599480	6.454980	-0.836912	-0.202636	0.428405	-1.000000	-1.000000	-1.000000	-1.000000	-1.000000	-1.000000	-1.000000	80.344828	0.000000	-1.000000	-1.000000	1317836.000000	1769636447.113229
4640.130000	13338.000000	17901.315000	32352.795000	6688.620000	-9080.010000	-19032.705000	164412.810000	0.667854	7.815139	10.597632	11.423969	10.110933	4.808047	-5.022886	-6.301950	-9.919000	7.462140	7.126420	-0.835325	-0.203613	0.429137	-1.000000	-1.000000	-1.000000	-1.000000	-1.000000	-1.000000	-1.000000	80.344828	0.000000	-1.000000	-1.000000	1317837.000000	1769636447.115654
4642.920000	13342.815000	17904.780000	32354.595000	6688.710000	-9079.875000	-19031.490000	164166.705000	4.900187	10.691855	12.854721	12.661240	10.789097	4.072266	-5.345180	-4.145511	-9.919000	7.462140	7.126420	-0.835325	-0.203613	0.429137	-1.000000	-1.000000	-1.000000	-1.000000	-1.000000	-1.000000	-1.000000	80.344828	0.000000	-1.000000	-1.000000	1317838.000000	1769636447.115661
4634.415000	13333.950000	17893.665000	32339.520000	6670.350000	-9095.535000	-19033.965000	163924.110000	4.692894	6.144766	6.127491	4.678929	3.128563	-1.151155	-4.618776	-2.190501	-9.919000	7.462140	7.126420	-0.835325	-0.203613	0.429137	-1.000000	-1.000000	-1.000000	-1.000000	-1.000000	-1.000000	-1.000000	80.344828	0.000000	-1.000000	-1.000000	1317839.000000	1769636447.119878
4634.055000	13330.710000	17885.430000	32328.090000	6652.710000	-9120.915000	-19066.095000	163680.795000	0.872236	-2.133555	-4.539167	-7.200894	-8.294541	-8.348980	-4.645124	-0.424401	-9.919000	7.462140	7.126420	-0.835325	-0.203613	0.429137	-1.000000	-1.000000	-1.000000	-1.000000	-1.000000	-1.000000	-1.000000	80.344828	0.000000	-1.000000	-1.000000	1317840.000000	1769636447.119892
4650.345000	13352.895000	17910.720000	32355.585000	6680.655000	-9096.345000	-19062.090000	163444.725000	-2.781761	-8.039119	-11.663750	-14.938035	-16.010979	-13.270144	-6.416643	1.386895	-9.919000	7.462140	7.126420	-0.835325	-0.203613	0.429137	-1.000000	-1.000000	-1.000000	-1.000000	-1.000000	-1.000000	-1.000000	80.344828	0.000000	-1.000000	-1.000000	1317841.000000	1769636447.124703
4662.360000	13373.055000	17929.980000	32370.300000	6689.970000	-9092.430000	-19054.845000	163206.765000	-2.700552	-7.359143	-10.437841	-13.209242	-14.485007	-11.853015	-7.405638	3.231375	-9.919000	7.462140	7.126420	-0.835325	-0.203613	0.429137	-1.000000	-1.000000	-1.000000	-1.000000	-1.000000	-1.000000	-1.000000	80.344828	0.000000	-1.000000	-1.000000	1317842.000000	1769636447.124714
4662.765000	13366.530000	17924.040000	32367.960000	6690.150000	-9090.495000	-19046.565000	162975.420000	1.180809	-1.190301	-2.526615	-3.836732	-4.871426	-3.906286	-3.963593	4.844533	-9.919000	7.462140	7.126420	-0.835325	-0.203613	0.429137	-1.000000	-1.000000	-1.000000	-1.000000	-1.000000	-1.000000	-1.000000	80.344828	0.000000	-1.000000	-1.000000	1317843.000000	1769636447.127750
4639.410000	13326.885000	17884.980000	32336.010000	6671.790000	-9089.865000	-19035.720000	162742.005000	4.697098	4.292389	4.781473	5.333392	5.545109	5.743027	3.233360	5.759540	-9.919000	7.462140	7.126420	-0.835325	-0.203613	0.429137	-1.000000	-1.000000	-1.000000	-1.000000	-1.000000	-1.000000	-1.000000	80.344828	0.000000	-1.000000	-1.000000	1317844.000000	1769636447.127761
4595.085000	13280.130000	17842.635000	32299.110000	6639.435000	-9125.100000	-19072.890000	162500.670000	2.862682	2.958347	4.719326	7.084988	9.480799	10.810253	9.071679	5.204192	-9.919000	7.462140	7.126420	-0.835325	-0.203613	0.429137	-1.000000	-1.000000	-1.000000	-1.000000	-1.000000	-1.000000	-1.000000	80.344828	0.000000	-1.000000	-1.000000	1317845.000000	1769636447.131775
4620.195000	13330.080000	17895.330000	32347.890000	6682.095000	-9099.000000	-19076.355000	162260.820000	-4.630811	-4.649244	-2.238212	1.262820	5.568795	8.398947	9.125277	2.642943	-9.919000	7.462140	7.126420	-0.835325	-0.203613	0.429137	-1.000000	-1.000000	-1.000000	-1.000000	-1.000000	-1.000000	-1.000000	80.344828	0.000000	-1.000000	-1.000000	1317846.000000	1769636447.131786
4670.910000	13380.615000	17940.960000	32387.355000	6717.960000	-9062.415000	-19035.855000	162025.965000	-11.110316	-10.080177	-7.659500	-4.504974	-0.227745	2.186809	4.354143	-1.133575	-12.146960	7.263760	7.889420	-0.838438	-0.198364	0.428161	-1.000000	-1.000000	-1.000000	-1.000000	-1.000000	-1.000000	-1.000000	80.344828	0.000000	-1.000000	-1.000000	1317847.000000	1769636447.135681
4661.865000	13366.170000	17925.525000	32371.605000	6701.895000	-9080.955000	-19042.965000	161787.690000	-9.168583	-5.922488	-4.208334	-2.945780	-0.989400	-1.184425	0.053485	-4.217869	-12.146960	7.263760	7.889420	-0.838438	-0.198364	0.428161	-1.000000	-1.000000	-1.000000	-1.000000	-1.000000	-1.000000	-1.000000	80.344828	0.000000	-1.000000	-1.000000	1317848.000000	1769636447.135693
4645.035000	13344.795000	17908.020000	32358.690000	6693.480000	-9081.270000	-19034.640000	161558.280000	0.254469	4.836810	5.420971	4.394859	3.218306	0.206210	-0.295147	-5.111738	-12.146960	7.263760	7.889420	-0.838438	-0.198364	0.428161	-1.000000	-1.000000	-1.000000	-1.000000	-1.000000	-1.000000	-1.000000	80.344828	0.000000	-1.000000	-1.000000	1317849.000000	1769636447.142141
4641.570000	13332.870000	17891.415000	32340.510000	6673.095000	-9099.180000	-19044.630000	161330.085000	8.963592	12.244291	11.814102	9.526766	6.298035	2.495793	1.996676	-3.611025	-12.146960	7.263760	7.889420	-0.838438	-0.198364	0.428161	-1.000000	-1.000000	-1.000000	-1.000000	-1.000000	-1.000000	-1.000000	80.344828	0.000000	-1.000000	-1.000000	1317850.000000	1769636447.142155
4648.185000	13344.300000	17902.575000	32347.395000	6671.430000	-9108.270000	-19062.810000	161106.615000	10.797183	10.319188	9.129920	7.000314	3.494255	1.453715	3.090770	-0.590832	-12.146960	7.263760	7.889420	-0.838438	-0.198364	0.428161	-1.000000	-1.000000	-1.000000	-1.000000	-1.000000	-1.000000	-1.000000	80.344828	0.000000	-1.000000	-1.000000	1317851.000000	1769636447.143688
4651.920000	13353.210000	17910.405000	32353.065000	6677.010000	-9101.565000	-19054.350000	160876.890000	6.365214	2.167641	0.403477	-0.930645	-3.660177	-3.024828	0.331751	2.455679	-12.146960	7.263760	7.889420	-0.838438	-0.198364	0.428161	-1.000000	-1.000000	-1.000000	-1.000000	-1.000000	-1.000000	-1.000000	80.344828	0.000000	-1.000000	-1.000000	1317852.000000	1769636447.143700
4635.135000	13340.970000	17902.485000	32347.710000	6675.120000	-9101.970000	-19047.870000	160641.495000	0.324765	-4.410335	-6.344160	-7.172488	-9.100269	-7.131532	-4.850269	3.894449	-12.146960	7.263760	7.889420	-0.838438	-0.198364	0.428161	-1.000000	-1.000000	-1.000000	-1.000000	-1.000000	-1.000000	-1.000000	80.344828	0.000000	-1.000000	-1.000000	1317853.000000	1769636447.147835
4622.040000	13317.255000	17876.655000	32324.670000	6657.840000	-9110.340000	-19054.845000	160413.750000	-3.497511	-5.268105	-6.755752	-7.481207	-8.742112	-7.282870	-7.924780	2.982497	-12.146960	7.263760	7.889420	-0.838438	-0.198364	0.428161	-1.000000	-1.000000	-1.000000	-1.000000	-1.000000	-1.000000	-1.000000	80.344828	0.000000	-1.000000	-1.000000	1317854.000000	1769636447.147847
4626.135000	13323.870000	17885.070000	32338.260000	6675.345000	-9083.385000	-19040.715000	160188.255000	-4.929715	-3.423133	-4.027246	-4.356195	-4.403297	-3.585298	-6.226019	0.677261	-12.146960	7.263760	7.889420	-0.838438	-0.198364	0.428161	-1.000000	-1.000000	-1.000000	-1.000000	-1.000000	-1.000000	-1.000000	80.344828	0.000000	-1.000000	-1.000000	1317855.000000	1769636447.151794
4635.270000	13330.620000	17887.725000	32334.795000	6668.460000	-9100.845000	-19081.620000	159953.715000	-5.745664	-3.458458	-3.058283	-2.192112	-0.254090	1.028457	-2.160514	-1.362160	-12.146960	7.263760	7.889420	-0.838438	-0.198364	0.428161	-1.000000	-1.000000	-1.000000	-1.000000	-1.000000	-1.000000	-1.000000	80.344828	0.000000	-1.000000	-1.000000	1317856.000000	1769636447.151807
4648.050000	13343.220000	17899.965000	32342.445000	6664.275000	-9151.335000	-19173.645000	159717.645000	-5.611723	-4.656122	-3.439145	-1.267734	2.243541	3.414286	-1.236207	-2.425680	-14.847980	4.913720	6.699140	-0.841795	-0.194824	0.424926	-1.000000	-1.000000	-1.000000	-1.000000	-1.000000	-1.000000	-1.000000	80.344828	0.000000	-1.000000	-1.000000	1317857.000000	1769636447.155969
4646.115000	13328.370000	17881.920000	32325.885000	6652.215000	-9152.730000	-19142.820000	159484.185000	-2.525291	-3.159370	-1.678917	0.674019	3.861797	2.045895	-5.664892	-2.902414	-14.847980	4.913720	6.699140	-0.841795	-0.194824	0.424926	-1.000000	-1.000000	-1.000000	-1.000000	-1.000000	-1.000000	-1.000000	80.344828	0.000000	-1.000000	-1.000000	1317858.000000	1769636447.155982
4621.905000	13304.250000	17860.050000	32306.760000	6639.570000	-9108.360000	-19014.570000	159262.965000	2.623502	1.105640	2.213035	3.492444	4.781105	-0.579637	-8.074454	-3.145767	-14.847980	4.913720	6.699140	-0.841795	-0.194824	0.424926	-1.000000	-1.000000	-1.000000	-1.000000	-1.000000	-1.000000	-1.000000	80.344828	0.000000	-1.000000	-1.000000	1317859.000000	1769636447.159904
4626.810000	13332.960000	17900.775000	32355.405000	6692.580000	-9051.570000	-18967.590000	159033.330000	5.847430	4.547319	5.201209	5.301596	5.045671	1.089789	2.050680	-2.868776	-14.847980	4.913720	6.699140	-0.841795	-0.194824	0.424926	-1.000000	-1.000000	-1.000000	-1.000000	-1.000000	-1.000000	-1.000000	80.344828	0.000000	-1.000000	-1.000000	1317860.000000	1769636447.159917
4628.070000	13333.230000	17898.345000	32351.715000	6690.870000	-9053.010000	-18998.820000	158799.780000	5.178281	5.649164	6.385167	6.153574	5.761827	8.578364	21.688425	-1.850905	-14.847980	4.913720	6.699140	-0.841795	-0.194824	0.424926	-1.000000	-1.000000	-1.000000	-1.000000	-1.000000	-1.000000	-1.000000	80.344828	0.000000	-1.000000	-1.000000	1317861.000000	1769636447.163862
4635.135000	13340.655000	17901.990000	32348.205000	6677.730000	-9066.420000	-19004.850000	158567.670000	2.899866	5.978492	6.951314	6.822292	6.758102	15.754278	34.066454	-0.436520	-14.847980	4.913720	6.699140	-0.841795	-0.194824	0.424926	-1.000000	-1.000000	-1.000000	-1.000000	-1.000000	-1.000000	-1.000000	80.344828	0.000000	-1.000000	-1.000000	1317862.000000	1769636447.163874
4633.380000	13335.255000	17894.970000	32340.645000	6663.330000	-9087.930000	-19015.245000	158338.440000	1.821430	6.322223	6.753279	6.103359	5.312299	14.563282	27.188960	0.850842	-14.847980	4.913720	6.699140	-0.841795	-0.194824	0.424926	-1.000000	-1.000000	-1.000000	-1.000000	-1.000000	-1.000000	-1.000000	80.344828	0.000000	-1.000000	-1.000000	1317863.000000	1769636447.167802
4641.075000	13345.380000	17903.610000	32347.260000	6662.520000	-9104.985000	-19034.820000	158105.790000	1.645629	5.027940	4.098841	2.241005	-0.530120	2.507214	4.000130	1.621612	-14.847980	4.913720	6.699140	-0.841795	-0.194824	0.424926	-1.000000	-1.000000	-1.000000	-1.000000	-1.000000	-1.000000	-1.000000	80.344828	0.000000	-1.000000	-1.000000	1317864.000000	1769636447.167814
4645.800000	13352.760000	17918.370000	32367.960000	6689.385000	-9083.655000	-19033.965000	157879.710000	0.551000	0.912938	-1.133704	-3.693251	-8.097939	-13.865194	-21.728940	1.875384	-14.847980	4.913720	6.699140	-0.841795	-0.194824	0.424926	-1.000000	-1.000000	-1.000000	-1.000000	-1.000000	-1.000000	-1.000000	80.344828	0.000000	-1.000000	-1.000000	1317865.000000	1769636447.171622
4622.805000	13327.785000	17899.605000	32354.235000	6677.145000	-9082.980000	-19038.780000	157650.030000	-2.003388	-4.578934	-6.362452	-7.970461	-11.655447	-22.737606	-34.693466	2.019799	-14.847980	4.913720	6.699140	-0.841795	-0.194824	0.424926	-1.000000	-1.000000	-1.000000	-1.000000	-1.000000	-1.000000	-1.000000	80.344828	0.000000	-1.000000	-1.000000	1317866.000000	1769636447.171633
4635.945000	13340.970000	17907.480000	32350.770000	6659.235000	-9112.995000	-19075.185000	157429.395000	-4.897606	-8.675527	-8.819738	-8.230660	-8.866299	-18.669772	-30.582357	2.241839	-12.925220	4.333840	7.065380	-0.842100	-0.195312	0.427611	-1.000000	-1.000000	-1.000000	-1.000000	-1.000000	-1.000000	-1.000000	80.344828	0.000000	-1.000000	-1.000000	1317867.000000	1769636447.175638
4636.170000	13345.200000	17916.480000	32357.115000	6659.145000	-9127.530000	-19126.125000	157205.880000	-5.791994	-8.898398	-7.392771	-5.262901	-2.974412	-8.193284	-19.852410	2.212880	-12.925220	4.333840	7.065380	-0.842100	-0.195312	0.427611	-1.000000	-1.000000	-1.000000	-1.000000	-1.000000	-1.000000	-1.000000	80.344828	0.000000	-1.000000	-1.000000	1317868.000000	1769636447.175646
4624.290000	13320.000000	17894.070000	32346.495000	6653.970000	-9145.935000	-19160.415000	156986.595000	-3.581209	-5.583969	-3.767469	-1.938676	1.133170	-1.161036	-13.937030	1.677049	-12.925220	4.333840	7.065380	-0.842100	-0.195312	0.427611	-1.000000	-1.000000	-1.000000	-1.000000	-1.000000	-1.000000	-1.000000	80.344828	0.000000	-1.000000	-1.000000	1317869.000000	1769636447.179564
