Channel1	Channel2	Channel3	Channel4	Channel5	Channel6	Channel7	Channel8	FilteredChannel1	FilteredChannel2	FilteredChannel3	FilteredChannel4	FilteredChannel5	FilteredChannel6	FilteredChannel7	FilteredChannel8	GyroX	GyroY	GyroZ	AccX	AccY	AccZ	PPG1	PPG2	rawPPG1	rawPPG2	rawPPG3	Hr	Hrv	Battery	Trigger	PhysicalTrigger	AutoTrigger	NumMeasurements	Timestamp
19658.205000	-8890.155000	14468.580000	27935.505000	11249.685000	-43028.955000	-36631.575000	-19666.395000	16.052479	9.647951	29.795487	13.970116	5.171952	3.555756	0.603581	0.152004	1.083460	2.426340	-2.258480	0.738890	-0.347167	0.555480	-1.000000	-1.000000	-1.000000	-1.000000	-1.000000	-1.000000	-1.000000	81.931034	0.000000	-1.000000	-1.000000	714033.000000	1774905362.633780
19683.315000	-8874.360000	14477.985000	27947.070000	11260.305000	-43017.705000	-36613.305000	-19605.105000	31.050508	28.223724	41.055900	32.492510	24.660902	22.594923	10.822027	26.327600	1.083460	2.426340	-2.258480	0.738890	-0.347167	0.555480	-1.000000	-1.000000	-1.000000	-1.000000	-1.000000	-1.000000	-1.000000	81.931034	0.000000	-1.000000	-1.000000	714034.000000	1774905362.633789
19741.230000	-8815.725000	14562.180000	27992.835000	11296.665000	-42985.170000	-36587.655000	-19552.905000	28.265407	29.724496	32.612025	33.074089	29.053679	27.535458	14.793578	39.238791	1.083460	2.426340	-2.258480	0.738890	-0.347167	0.555480	-1.000000	-1.000000	-1.000000	-1.000000	-1.000000	-1.000000	-1.000000	81.931034	0.000000	-1.000000	-1.000000	714035.000000	1774905362.641565
19726.380000	-8820.540000	14554.845000	27975.105000	11283.480000	-42995.115000	-36610.020000	-19592.910000	17.650422	20.602200	17.940980	21.978931	22.007268	21.484816	13.444116	39.847041	1.083460	2.426340	-2.258480	0.738890	-0.347167	0.555480	-1.000000	-1.000000	-1.000000	-1.000000	-1.000000	-1.000000	-1.000000	81.931034	0.000000	-1.000000	-1.000000	714036.000000	1774905362.641587
19665.810000	-8886.105000	14484.825000	27931.140000	11245.230000	-43030.665000	-36644.310000	-19654.245000	8.187918	9.925902	7.010333	8.483131	11.254237	11.676057	8.254940	29.360824	1.083460	2.426340	-2.258480	0.738890	-0.347167	0.555480	-1.000000	-1.000000	-1.000000	-1.000000	-1.000000	-1.000000	-1.000000	81.931034	0.000000	-1.000000	-1.000000	714037.000000	1774905362.641611
19663.920000	-8905.725000	14464.935000	27914.670000	11226.870000	-43048.170000	-36665.145000	-19670.670000	-0.557516	-0.184216	-2.818087	-3.594009	0.858177	2.034429	0.213121	8.912466	1.083460	2.426340	-2.258480	0.738890	-0.347167	0.555480	-1.000000	-1.000000	-1.000000	-1.000000	-1.000000	-1.000000	-1.000000	81.931034	0.000000	-1.000000	-1.000000	714038.000000	1774905362.641622
19666.125000	-8883.765000	14483.070000	27932.355000	11243.340000	-43031.835000	-36651.780000	-19656.135000	-10.792872	-10.004506	-15.646280	-13.332147	-7.679836	-6.028423	-7.574077	-14.609468	1.083460	2.426340	-2.258480	0.738890	-0.347167	0.555480	-1.000000	-1.000000	-1.000000	-1.000000	-1.000000	-1.000000	-1.000000	81.931034	0.000000	-1.000000	-1.000000	714039.000000	1774905362.642951
19670.220000	-8879.310000	14482.035000	27934.785000	11248.020000	-43024.455000	-36634.500000	-19640.790000	-19.118303	-16.397044	-27.420363	-19.023203	-12.953336	-11.282541	-10.975292	-30.425602	1.083460	2.426340	-2.258480	0.738890	-0.347167	0.555480	-1.000000	-1.000000	-1.000000	-1.000000	-1.000000	-1.000000	-1.000000	81.931034	0.000000	-1.000000	-1.000000	714040.000000	1774905362.642960
19674.495000	-8874.675000	14488.605000	27945.090000	11261.745000	-43010.370000	-36613.530000	-19623.015000	-20.566653	-16.493011	-31.210982	-19.350644	-14.305595	-13.086220	-8.419396	-31.812839	-5.768280	2.441600	-2.838360	0.743650	-0.343078	0.555846	-1.000000	-1.000000	-1.000000	-1.000000	-1.000000	-1.000000	-1.000000	81.931034	0.000000	-1.000000	-1.000000	714041.000000	1774905362.648197
19699.650000	-8838.585000	14517.630000	27972.810000	11290.725000	-42988.140000	-36595.980000	-19608.885000	-14.246507	-11.127022	-23.874375	-14.186614	-11.597177	-11.227650	-1.702014	-20.768507	-5.768280	2.441600	-2.838360	0.743650	-0.343078	0.555846	-1.000000	-1.000000	-1.000000	-1.000000	-1.000000	-1.000000	-1.000000	81.931034	0.000000	-1.000000	-1.000000	714042.000000	1774905362.648210
19713.285000	-8815.950000	14518.620000	27969.345000	11290.050000	-42987.555000	-36601.920000	-19615.815000	-3.655453	-3.208623	-7.827621	-4.980309	-5.456654	-6.265274	5.044766	-6.086722	-5.768280	2.441600	-2.838360	0.743650	-0.343078	0.555846	-1.000000	-1.000000	-1.000000	-1.000000	-1.000000	-1.000000	-1.000000	81.931034	0.000000	-1.000000	-1.000000	714043.000000	1774905362.651066
19708.200000	-8820.315000	14499.720000	27952.875000	11276.145000	-42999.075000	-36624.420000	-19629.765000	5.722956	3.505498	8.683323	3.934301	0.931341	-0.900288	7.155458	3.572549	-5.768280	2.441600	-2.838360	0.743650	-0.343078	0.555846	-1.000000	-1.000000	-1.000000	-1.000000	-1.000000	-1.000000	-1.000000	81.931034	0.000000	-1.000000	-1.000000	714044.000000	1774905362.651078
19698.705000	-8841.645000	14507.955000	27955.215000	11267.910000	-43015.275000	-36628.470000	-19625.175000	10.655196	6.456349	18.039054	8.840283	4.405702	2.249494	3.453903	6.876246	-5.768280	2.441600	-2.838360	0.743650	-0.343078	0.555846	-1.000000	-1.000000	-1.000000	-1.000000	-1.000000	-1.000000	-1.000000	81.931034	0.000000	-1.000000	-1.000000	714045.000000	1774905362.654997
19684.755000	-8885.295000	14517.045000	27964.755000	11277.720000	-43004.565000	-36617.085000	-19620.855000	11.869977	6.198859	20.399432	10.789205	5.717845	3.815853	-1.682579	9.112784	-5.768280	2.441600	-2.838360	0.743650	-0.343078	0.555846	-1.000000	-1.000000	-1.000000	-1.000000	-1.000000	-1.000000	-1.000000	81.931034	0.000000	-1.000000	-1.000000	714046.000000	1774905362.655009
19736.550000	-8812.620000	14556.510000	27991.575000	11304.495000	-42978.195000	-36596.295000	-19582.425000	11.082950	5.067171	19.653086	12.272020	7.424698	6.098318	-2.682365	13.889536	-5.768280	2.441600	-2.838360	0.743650	-0.343078	0.555846	-1.000000	-1.000000	-1.000000	-1.000000	-1.000000	-1.000000	-1.000000	81.931034	0.000000	-1.000000	-1.000000	714047.000000	1774905362.662225
19798.020000	-8757.990000	14572.800000	28039.320000	11355.705000	-42925.095000	-36567.090000	-19541.115000	10.065656	5.894667	16.838191	13.110940	9.946200	9.566329	1.367858	18.970779	-5.768280	2.441600	-2.838360	0.743650	-0.343078	0.555846	-1.000000	-1.000000	-1.000000	-1.000000	-1.000000	-1.000000	-1.000000	81.931034	0.000000	-1.000000	-1.000000	714048.000000	1774905362.662238
19776.870000	-8774.730000	14554.530000	28042.335000	11360.430000	-42924.600000	-36568.350000	-19544.085000	9.534400	8.919894	10.181573	11.350455	11.116224	11.891720	6.112747	19.313636	-5.768280	2.441600	-2.838360	0.743650	-0.343078	0.555846	-1.000000	-1.000000	-1.000000	-1.000000	-1.000000	-1.000000	-1.000000	81.931034	0.000000	-1.000000	-1.000000	714049.000000	1774905362.663063
19718.055000	-8847.585000	14495.445000	27960.525000	11282.130000	-42999.570000	-36624.060000	-19598.670000	5.606161	8.281158	-2.128443	4.090135	6.789857	8.483255	5.482659	10.441382	-5.768280	2.441600	-2.838360	0.743650	-0.343078	0.555846	-1.000000	-1.000000	-1.000000	-1.000000	-1.000000	-1.000000	-1.000000	81.931034	0.000000	-1.000000	-1.000000	714050.000000	1774905362.663074
19643.130000	-8909.595000	14464.125000	27906.210000	11228.895000	-43051.410000	-36658.845000	-19663.245000	-7.115409	-3.089170	-18.907682	-10.931023	-6.577374	-4.376854	-3.638994	-8.637142	-3.982860	3.570840	-0.930860	0.744139	-0.350829	0.556090	-1.000000	-1.000000	-1.000000	-1.000000	-1.000000	-1.000000	-1.000000	81.931034	0.000000	-1.000000	-1.000000	714051.000000	1774905362.668394
19697.850000	-8862.120000	14514.750000	27967.635000	11287.755000	-42995.655000	-36606.780000	-19593.540000	-25.751764	-22.456147	-32.864020	-28.370163	-24.243467	-21.962147	-16.225184	-30.287178	-3.982860	3.570840	-0.930860	0.744139	-0.350829	0.556090	-1.000000	-1.000000	-1.000000	-1.000000	-1.000000	-1.000000	-1.000000	81.931034	0.000000	-1.000000	-1.000000	714052.000000	1774905362.668402
19767.285000	-8792.550000	14575.230000	28037.430000	11355.435000	-42927.930000	-36544.230000	-19519.965000	-35.725524	-34.168252	-32.455680	-33.657626	-31.398121	-29.686612	-19.964873	-38.308938	-3.982860	3.570840	-0.930860	0.744139	-0.350829	0.556090	-1.000000	-1.000000	-1.000000	-1.000000	-1.000000	-1.000000	-1.000000	81.931034	0.000000	-1.000000	-1.000000	714053.000000	1774905362.672222
19724.850000	-8827.785000	14562.585000	28005.705000	11318.580000	-42964.470000	-36585.990000	-19593.990000	-24.500699	-23.983682	-12.989047	-17.790342	-18.061063	-17.504289	-8.107152	-23.372543	-3.982860	3.570840	-0.930860	0.744139	-0.350829	0.556090	-1.000000	-1.000000	-1.000000	-1.000000	-1.000000	-1.000000	-1.000000	81.931034	0.000000	-1.000000	-1.000000	714054.000000	1774905362.672258
19618.560000	-8932.905000	14458.770000	27905.760000	11222.280000	-43055.820000	-36653.040000	-19689.795000	0.715827	2.443598	13.396320	8.336638	6.148899	5.589975	9.950458	2.476722	-3.982860	3.570840	-0.930860	0.744139	-0.350829	0.556090	-1.000000	-1.000000	-1.000000	-1.000000	-1.000000	-1.000000	-1.000000	81.931034	0.000000	-1.000000	-1.000000	714055.000000	1774905362.676390
19601.370000	-8944.560000	14434.425000	27889.065000	11208.735000	-43069.185000	-36661.140000	-19701.765000	18.528997	22.874551	26.097153	23.221458	20.642961	19.561980	17.979585	17.427542	-3.982860	3.570840	-0.930860	0.744139	-0.350829	0.556090	-1.000000	-1.000000	-1.000000	-1.000000	-1.000000	-1.000000	-1.000000	81.931034	0.000000	-1.000000	-1.000000	714056.000000	1774905362.676403
19652.175000	-8891.910000	14465.295000	27920.430000	11239.020000	-43041.150000	-36638.730000	-19661.445000	17.830570	23.261758	17.677680	17.702480	16.196633	15.147858	10.730152	13.859708	-3.982860	3.570840	-0.930860	0.744139	-0.350829	0.556090	-1.000000	-1.000000	-1.000000	-1.000000	-1.000000	-1.000000	-1.000000	81.931034	0.000000	-1.000000	-1.000000	714057.000000	1774905362.679066
19676.430000	-8872.740000	14481.315000	27934.290000	11251.530000	-43028.415000	-36633.555000	-19638.225000	8.057789	11.419815	0.877382	2.456538	2.432397	1.562198	-2.568625	3.110717	-3.982860	3.570840	-0.930860	0.744139	-0.350829	0.556090	-1.000000	-1.000000	-1.000000	-1.000000	-1.000000	-1.000000	-1.000000	81.931034	0.000000	-1.000000	-1.000000	714058.000000	1774905362.679077
19670.310000	-8869.140000	14497.110000	27953.595000	11268.225000	-43012.440000	-36623.205000	-19652.580000	4.440278	3.572383	-7.024549	-5.407607	-4.690781	-5.488443	-9.191047	-0.232628	-3.982860	3.570840	-0.930860	0.744139	-0.350829	0.556090	-1.000000	-1.000000	-1.000000	-1.000000	-1.000000	-1.000000	-1.000000	81.931034	0.000000	-1.000000	-1.000000	714059.000000	1774905362.687698
19671.345000	-8853.075000	14519.655000	27974.295000	11290.500000	-42989.265000	-36610.875000	-19649.250000	10.815840	6.038242	-0.660052	1.241020	1.664065	0.872329	-4.232002	7.052414	-3.982860	3.570840	-0.930860	0.744139	-0.350829	0.556090	-1.000000	-1.000000	-1.000000	-1.000000	-1.000000	-1.000000	-1.000000	81.931034	0.000000	-1.000000	-1.000000	714060.000000	1774905362.687707
19717.155000	-8817.660000	14555.430000	28011.285000	11330.010000	-42950.070000	-36593.370000	-19595.070000	18.652802	12.352535	11.763084	14.686238	14.480947	13.824484	6.415132	16.703688	0.900340	3.845520	-2.426340	0.746214	-0.358642	0.553038	-1.000000	-1.000000	-1.000000	-1.000000	-1.000000	-1.000000	-1.000000	81.931034	0.000000	-1.000000	-1.000000	714061.000000	1774905362.687854
19755.675000	-8813.520000	14553.135000	28001.070000	11320.020000	-42960.060000	-36591.165000	-19543.320000	18.879513	13.093453	18.259966	21.437897	21.206449	20.947474	12.894022	20.192575	0.900340	3.845520	-2.426340	0.746214	-0.358642	0.553038	-1.000000	-1.000000	-1.000000	-1.000000	-1.000000	-1.000000	-1.000000	81.931034	0.000000	-1.000000	-1.000000	714062.000000	1774905362.687865
19717.020000	-8844.840000	14508.045000	27954.270000	11271.645000	-43010.910000	-36612.090000	-19579.725000	10.995399	5.961825	13.251195	15.006775	15.559064	15.784818	11.092047	16.889807	0.900340	3.845520	-2.426340	0.746214	-0.358642	0.553038	-1.000000	-1.000000	-1.000000	-1.000000	-1.000000	-1.000000	-1.000000	81.931034	0.000000	-1.000000	-1.000000	714063.000000	1774905362.695584
19673.460000	-8887.995000	14445.585000	27911.520000	11235.600000	-43044.840000	-36634.410000	-19643.850000	-0.294698	-4.524032	-0.279431	-0.571131	0.928486	1.354841	4.097798	9.283460	0.900340	3.845520	-2.426340	0.746214	-0.358642	0.553038	-1.000000	-1.000000	-1.000000	-1.000000	-1.000000	-1.000000	-1.000000	81.931034	0.000000	-1.000000	-1.000000	714064.000000	1774905362.695594
19664.415000	-8891.865000	14441.985000	27914.445000	11242.485000	-43036.290000	-36630.540000	-19659.510000	-12.165370	-14.428553	-15.439475	-16.851057	-14.945914	-14.650853	-3.826140	-3.186651	0.900340	3.845520	-2.426340	0.746214	-0.358642	0.553038	-1.000000	-1.000000	-1.000000	-1.000000	-1.000000	-1.000000	-1.000000	81.931034	0.000000	-1.000000	-1.000000	714065.000000	1774905362.695606
19694.520000	-8857.530000	14488.560000	27947.385000	11269.530000	-43009.110000	-36610.425000	-19610.730000	-22.901464	-21.784487	-24.996594	-26.576690	-25.101114	-24.891132	-10.077928	-19.132362	0.900340	3.845520	-2.426340	0.746214	-0.358642	0.553038	-1.000000	-1.000000	-1.000000	-1.000000	-1.000000	-1.000000	-1.000000	81.931034	0.000000	-1.000000	-1.000000	714066.000000	1774905362.695611
19718.235000	-8826.705000	14543.730000	27994.635000	11311.695000	-42968.745000	-36590.760000	-19581.795000	-27.719842	-22.701574	-22.604523	-24.597391	-24.443697	-24.072808	-12.064318	-29.981852	0.900340	3.845520	-2.426340	0.746214	-0.358642	0.553038	-1.000000	-1.000000	-1.000000	-1.000000	-1.000000	-1.000000	-1.000000	81.931034	0.000000	-1.000000	-1.000000	714067.000000	1774905362.699160
19728.090000	-8804.970000	14553.360000	28030.815000	11352.285000	-42928.515000	-36564.480000	-19575.990000	-21.468344	-13.654361	-7.526278	-10.097739	-11.734335	-11.208466	-7.952679	-26.916429	0.900340	3.845520	-2.426340	0.746214	-0.358642	0.553038	-1.000000	-1.000000	-1.000000	-1.000000	-1.000000	-1.000000	-1.000000	81.931034	0.000000	-1.000000	-1.000000	714068.000000	1774905362.699169
19691.280000	-8821.305000	14501.430000	27982.485000	11310.615000	-42970.095000	-36603.090000	-19628.505000	-6.586550	1.632827	10.495873	8.838452	6.066263	6.475574	-0.439701	-12.184050	0.900340	3.845520	-2.426340	0.746214	-0.358642	0.553038	-1.000000	-1.000000	-1.000000	-1.000000	-1.000000	-1.000000	-1.000000	81.931034	0.000000	-1.000000	-1.000000	714069.000000	1774905362.703137
19729.800000	-8815.905000	14513.445000	27976.500000	11304.045000	-42978.780000	-36622.350000	-19617.795000	6.765262	13.005435	17.734753	18.520556	16.158082	16.209702	3.517622	1.533183	0.900340	3.845520	-2.426340	0.746214	-0.358642	0.553038	-1.000000	-1.000000	-1.000000	-1.000000	-1.000000	-1.000000	-1.000000	81.931034	0.000000	-1.000000	-1.000000	714070.000000	1774905362.703143
19721.970000	-8850.645000	14524.740000	27964.305000	11280.285000	-43003.440000	-36635.580000	-19598.715000	11.751495	13.926835	11.068715	13.262641	12.412347	12.057183	0.405804	5.966341	-3.067260	3.631880	-3.753960	0.751097	-0.356078	0.550414	-1.000000	-1.000000	-1.000000	-1.000000	-1.000000	-1.000000	-1.000000	81.931034	0.000000	-1.000000	-1.000000	714071.000000	1774905362.707034
19679.130000	-8867.700000	14527.755000	27954.900000	11266.155000	-43013.700000	-36635.175000	-19623.375000	10.552979	7.348797	0.892456	1.380194	1.694100	1.122926	-4.929363	5.602512	-3.067260	3.631880	-3.753960	0.751097	-0.356078	0.550414	-1.000000	-1.000000	-1.000000	-1.000000	-1.000000	-1.000000	-1.000000	81.931034	0.000000	-1.000000	-1.000000	714072.000000	1774905362.707048
19587.960000	-8926.380000	14471.235000	27909.495000	11222.100000	-43054.515000	-36643.905000	-19675.620000	6.887844	-0.023704	-2.587114	-6.120572	-5.930611	-6.311718	-5.538011	7.369496	-3.067260	3.631880	-3.753960	0.751097	-0.356078	0.550414	-1.000000	-1.000000	-1.000000	-1.000000	-1.000000	-1.000000	-1.000000	81.931034	0.000000	-1.000000	-1.000000	714073.000000	1774905362.710962
19578.690000	-8946.765000	14433.435000	27894.060000	11212.515000	-43062.660000	-36637.020000	-19689.840000	0.499958	-5.630970	-0.965709	-7.283132	-7.910255	-7.723089	-0.485959	9.979838	-3.067260	3.631880	-3.753960	0.751097	-0.356078	0.550414	-1.000000	-1.000000	-1.000000	-1.000000	-1.000000	-1.000000	-1.000000	81.931034	0.000000	-1.000000	-1.000000	714074.000000	1774905362.710973
19667.880000	-8906.130000	14436.450000	27916.560000	11243.970000	-43030.575000	-36620.415000	-19666.980000	-6.690435	-9.546007	-2.343473	-6.332843	-6.886592	-6.082297	5.882902	8.282645	-3.067260	3.631880	-3.753960	0.751097	-0.356078	0.550414	-1.000000	-1.000000	-1.000000	-1.000000	-1.000000	-1.000000	-1.000000	81.931034	0.000000	-1.000000	-1.000000	714075.000000	1774905362.714937
19729.170000	-8876.565000	14441.985000	27922.680000	11244.510000	-43032.375000	-36625.725000	-19624.860000	-6.845277	-9.241179	-8.874677	-5.428402	-4.288497	-3.236458	9.265980	2.759932	-3.067260	3.631880	-3.753960	0.751097	-0.356078	0.550414	-1.000000	-1.000000	-1.000000	-1.000000	-1.000000	-1.000000	-1.000000	81.931034	0.000000	-1.000000	-1.000000	714076.000000	1774905362.714947
19702.080000	-8863.290000	14517.630000	27938.160000	11246.130000	-43032.780000	-36628.200000	-19599.480000	3.766662	-2.343342	-13.449217	-3.519593	-0.574042	0.084572	7.899027	-0.312144	-3.067260	3.631880	-3.753960	0.751097	-0.356078	0.550414	-1.000000	-1.000000	-1.000000	-1.000000	-1.000000	-1.000000	-1.000000	81.931034	0.000000	-1.000000	-1.000000	714077.000000	1774905362.719069
19691.055000	-8858.070000	14520.015000	27947.070000	11257.560000	-43022.430000	-36622.125000	-19604.790000	16.732853	8.265672	-7.600770	1.013649	3.651818	3.373194	3.354288	2.610448	-3.067260	3.631880	-3.753960	0.751097	-0.356078	0.550414	-1.000000	-1.000000	-1.000000	-1.000000	-1.000000	-1.000000	-1.000000	81.931034	0.000000	-1.000000	-1.000000	714078.000000	1774905362.719080
19691.055000	-8860.590000	14500.080000	27949.815000	11265.795000	-43016.130000	-36622.710000	-19628.010000	19.797039	16.336665	7.081609	7.959166	8.299476	7.053215	-0.514620	7.004790	-3.067260	3.631880	-3.753960	0.751097	-0.356078	0.550414	-1.000000	-1.000000	-1.000000	-1.000000	-1.000000	-1.000000	-1.000000	81.931034	0.000000	-1.000000	-1.000000	714079.000000	1774905362.724160
19685.520000	-8876.070000	14480.415000	27951.615000	11271.285000	-43010.190000	-36623.925000	-19633.050000	10.149828	17.814314	19.131193	14.452249	12.964644	11.278822	-1.221837	6.058952	-3.067260	3.631880	-3.753960	0.751097	-0.356078	0.550414	-1.000000	-1.000000	-1.000000	-1.000000	-1.000000	-1.000000	-1.000000	81.931034	0.000000	-1.000000	-1.000000	714080.000000	1774905362.724172
19713.825000	-8845.425000	14491.035000	27966.960000	11297.205000	-42982.335000	-36612.180000	-19612.125000	-3.006030	13.685575	20.458878	17.559018	16.520413	15.100433	0.696464	0.257991	-5.157880	4.455920	-2.395820	0.751707	-0.351562	0.549193	-1.000000	-1.000000	-1.000000	-1.000000	-1.000000	-1.000000	-1.000000	81.931034	0.000000	-1.000000	-1.000000	714081.000000	1774905362.726971
19801.035000	-8766.045000	14570.595000	28035.090000	11369.790000	-42911.910000	-36566.640000	-19512.810000	-7.182029	9.050678	14.428446	17.096456	18.228985	17.523830	3.523607	-2.414476	-5.157880	4.455920	-2.395820	0.751707	-0.351562	0.549193	-1.000000	-1.000000	-1.000000	-1.000000	-1.000000	-1.000000	-1.000000	81.931034	0.000000	-1.000000	-1.000000	714082.000000	1774905362.726982
19824.705000	-8724.870000	14630.850000	28078.110000	11396.565000	-42888.420000	-36545.940000	-19494.225000	0.889480	7.917451	9.812337	14.574250	17.293075	17.286841	5.790222	3.182915	-5.157880	4.455920	-2.395820	0.751707	-0.351562	0.549193	-1.000000	-1.000000	-1.000000	-1.000000	-1.000000	-1.000000	-1.000000	81.931034	0.000000	-1.000000	-1.000000	714083.000000	1774905362.731001
19769.535000	-8751.690000	14602.545000	28045.620000	11362.005000	-42923.115000	-36574.380000	-19578.465000	9.285013	6.739705	8.622724	8.738337	10.344172	10.723693	5.192224	9.827019	-5.157880	4.455920	-2.395820	0.751707	-0.351562	0.549193	-1.000000	-1.000000	-1.000000	-1.000000	-1.000000	-1.000000	-1.000000	81.931034	0.000000	-1.000000	-1.000000	714084.000000	1774905362.731009
19678.410000	-8857.800000	14477.760000	27942.480000	11262.060000	-43018.200000	-36620.955000	-19635.795000	2.067202	-3.456316	2.074343	-5.183001	-6.885206	-6.242202	-1.106606	3.824432	-5.157880	4.455920	-2.395820	0.751707	-0.351562	0.549193	-1.000000	-1.000000	-1.000000	-1.000000	-1.000000	-1.000000	-1.000000	81.931034	0.000000	-1.000000	-1.000000	714085.000000	1774905362.735040
19645.245000	-8898.210000	14414.445000	27888.885000	11215.305000	-43060.005000	-36631.755000	-19652.670000	-21.576647	-25.529902	-18.350555	-28.036398	-32.275539	-31.047141	-12.303016	-17.132047	-5.157880	4.455920	-2.395820	0.751707	-0.351562	0.549193	-1.000000	-1.000000	-1.000000	-1.000000	-1.000000	-1.000000	-1.000000	81.931034	0.000000	-1.000000	-1.000000	714086.000000	1774905362.735054
19665.720000	-8886.555000	14421.195000	27892.260000	11218.230000	-43056.720000	-36639.945000	-19633.995000	-44.259875	-48.202672	-45.498329	-49.606401	-53.478383	-51.339886	-21.963506	-38.126203	-5.157880	4.455920	-2.395820	0.751707	-0.351562	0.549193	-1.000000	-1.000000	-1.000000	-1.000000	-1.000000	-1.000000	-1.000000	81.931034	0.000000	-1.000000	-1.000000	714087.000000	1774905362.741821
19645.605000	-8906.400000	14442.435000	27908.595000	11222.145000	-43057.665000	-36645.390000	-19652.850000	-46.925548	-53.515208	-58.055338	-53.692092	-55.121328	-52.479723	-22.845957	-41.374205	-5.157880	4.455920	-2.395820	0.751707	-0.351562	0.549193	-1.000000	-1.000000	-1.000000	-1.000000	-1.000000	-1.000000	-1.000000	81.931034	0.000000	-1.000000	-1.000000	714088.000000	1774905362.741833
19623.645000	-8903.880000	14505.300000	27930.195000	11236.365000	-43045.695000	-36639.090000	-19664.415000	-25.355619	-33.482507	-40.250906	-32.284975	-31.723487	-29.870024	-12.956594	-22.548772	-5.157880	4.455920	-2.395820	0.751707	-0.351562	0.549193	-1.000000	-1.000000	-1.000000	-1.000000	-1.000000	-1.000000	-1.000000	81.931034	0.000000	-1.000000	-1.000000	714089.000000	1774905362.742953
19632.285000	-8896.095000	14502.195000	27935.865000	11248.245000	-43032.870000	-36631.170000	-19654.245000	8.345233	2.666431	2.406181	6.014586	6.603343	6.349849	3.054924	7.182674	-5.157880	4.455920	-2.395820	0.751707	-0.351562	0.549193	-1.000000	-1.000000	-1.000000	-1.000000	-1.000000	-1.000000	-1.000000	81.931034	0.000000	-1.000000	-1.000000	714090.000000	1774905362.742964
19660.860000	-8878.410000	14472.810000	27931.185000	11251.260000	-43027.740000	-36631.620000	-19641.150000	36.326779	35.887790	44.836431	40.744311	40.353926	37.859675	16.703311	30.978391	-5.997180	3.525060	-2.563680	0.749022	-0.354552	0.549315	-1.000000	-1.000000	-1.000000	-1.000000	-1.000000	-1.000000	-1.000000	81.931034	0.000000	-1.000000	-1.000000	714091.000000	1774905362.746979
19693.665000	-8879.175000	14467.680000	27937.620000	11260.530000	-43018.920000	-36631.440000	-19629.405000	47.135514	50.587050	61.204098	54.003311	53.791404	50.377124	21.319140	38.528952	-5.997180	3.525060	-2.563680	0.749022	-0.354552	0.549315	-1.000000	-1.000000	-1.000000	-1.000000	-1.000000	-1.000000	-1.000000	81.931034	0.000000	-1.000000	-1.000000	714092.000000	1774905362.746989
19712.295000	-8865.090000	14509.395000	27952.065000	11271.150000	-43009.245000	-36624.375000	-19625.220000	41.588521	44.402957	46.979350	43.728445	45.501230	42.898068	17.197319	32.077306	-5.997180	3.525060	-2.563680	0.749022	-0.354552	0.549315	-1.000000	-1.000000	-1.000000	-1.000000	-1.000000	-1.000000	-1.000000	81.931034	0.000000	-1.000000	-1.000000	714093.000000	1774905362.750987
19687.815000	-8862.795000	14511.330000	27957.870000	11273.805000	-43006.320000	-36616.320000	-19623.780000	28.235867	27.473792	19.967193	22.882961	26.733623	25.826259	10.297113	20.455252	-5.997180	3.525060	-2.563680	0.749022	-0.354552	0.549315	-1.000000	-1.000000	-1.000000	-1.000000	-1.000000	-1.000000	-1.000000	81.931034	0.000000	-1.000000	-1.000000	714094.000000	1774905362.750999
19714.545000	-8838.585000	14532.210000	27984.870000	11297.610000	-42986.340000	-36599.220000	-19590.300000	13.787132	11.472261	-0.455008	5.653933	9.553217	10.018780	5.670572	9.652843	-5.997180	3.525060	-2.563680	0.749022	-0.354552	0.549315	-1.000000	-1.000000	-1.000000	-1.000000	-1.000000	-1.000000	-1.000000	81.931034	0.000000	-1.000000	-1.000000	714095.000000	1774905362.755008
19746.675000	-8818.020000	14579.685000	28018.620000	11329.245000	-42955.065000	-36577.080000	-19543.095000	0.403743	0.881179	-8.302418	-3.051892	-1.479597	-0.558898	3.998547	1.534471	-5.997180	3.525060	-2.563680	0.749022	-0.354552	0.549315	-1.000000	-1.000000	-1.000000	-1.000000	-1.000000	-1.000000	-1.000000	81.931034	0.000000	-1.000000	-1.000000	714096.000000	1774905362.755020
19750.230000	-8813.970000	14577.120000	28021.095000	11333.160000	-42950.790000	-36578.115000	-19534.230000	-10.437121	-5.477457	-8.618416	-6.575467	-7.968268	-7.182785	3.131145	-3.349805	-5.997180	3.525060	-2.563680	0.749022	-0.354552	0.549315	-1.000000	-1.000000	-1.000000	-1.000000	-1.000000	-1.000000	-1.000000	81.931034	0.000000	-1.000000	-1.000000	714097.000000	1774905362.760685
19698.030000	-8854.245000	14516.145000	27961.830000	11273.805000	-43009.515000	-36610.650000	-19590.570000	-17.882358	-10.770731	-10.452006	-11.129570	-14.084170	-13.385503	-0.185649	-6.862172	-5.997180	3.525060	-2.563680	0.749022	-0.354552	0.549315	-1.000000	-1.000000	-1.000000	-1.000000	-1.000000	-1.000000	-1.000000	81.931034	0.000000	-1.000000	-1.000000	714098.000000	1774905362.760696
19653.210000	-8887.905000	14465.520000	27916.920000	11234.160000	-43044.795000	-36641.565000	-19672.605000	-24.358867	-18.581350	-19.739067	-20.920975	-23.577302	-22.681391	-8.420557	-14.499304	-5.997180	3.525060	-2.563680	0.749022	-0.354552	0.549315	-1.000000	-1.000000	-1.000000	-1.000000	-1.000000	-1.000000	-1.000000	81.931034	0.000000	-1.000000	-1.000000	714099.000000	1774905362.762989
19668.060000	-8876.430000	14479.560000	27936.810000	11255.805000	-43019.730000	-36624.465000	-19661.175000	-31.643926	-28.632394	-32.418821	-32.941085	-34.299363	-33.049338	-19.338257	-28.288266	-5.997180	3.525060	-2.563680	0.749022	-0.354552	0.549315	-1.000000	-1.000000	-1.000000	-1.000000	-1.000000	-1.000000	-1.000000	81.931034	0.000000	-1.000000	-1.000000	714100.000000	1774905362.762997
19729.260000	-8813.295000	14548.095000	28003.455000	11317.320000	-42960.915000	-36584.415000	-19587.420000	-34.416952	-33.320142	-36.081013	-36.463598	-36.496864	-35.025361	-24.900553	-38.323950	-4.501700	3.738700	-4.257540	0.749266	-0.355834	0.548461	-1.000000	-1.000000	-1.000000	-1.000000	-1.000000	-1.000000	-1.000000	81.931034	0.000000	-1.000000	-1.000000	714101.000000	1774905362.768476
19750.095000	-8792.730000	14576.580000	28024.470000	11336.535000	-42947.190000	-36582.480000	-19570.905000	-23.873028	-23.652471	-21.516386	-22.392883	-21.705969	-20.620029	-18.188669	-30.506145	-4.501700	3.738700	-4.257540	0.749266	-0.355834	0.548461	-1.000000	-1.000000	-1.000000	-1.000000	-1.000000	-1.000000	-1.000000	81.931034	0.000000	-1.000000	-1.000000	714102.000000	1774905362.768489
19763.505000	-8776.215000	14585.985000	28026.360000	11341.260000	-42942.555000	-36576.855000	-19578.510000	0.707137	-0.429651	7.056541	5.531781	6.266203	6.112580	-1.562936	-4.436648	-4.501700	3.738700	-4.257540	0.749266	-0.355834	0.548461	-1.000000	-1.000000	-1.000000	-1.000000	-1.000000	-1.000000	-1.000000	81.931034	0.000000	-1.000000	-1.000000	714103.000000	1774905362.770993
19666.485000	-8831.205000	14526.090000	27966.555000	11285.235000	-42993.135000	-36617.895000	-19667.745000	26.069078	23.037307	32.910735	30.645124	31.246877	29.654334	14.330217	22.654103	-4.501700	3.738700	-4.257540	0.749266	-0.355834	0.548461	-1.000000	-1.000000	-1.000000	-1.000000	-1.000000	-1.000000	-1.000000	81.931034	0.000000	-1.000000	-1.000000	714104.000000	1774905362.771000
19643.535000	-8832.465000	14523.660000	27965.655000	11283.705000	-42994.395000	-36618.930000	-19676.340000	34.312307	31.567446	39.051790	36.475816	37.243144	35.162386	19.477567	31.574726	-4.501700	3.738700	-4.257540	0.749266	-0.355834	0.548461	-1.000000	-1.000000	-1.000000	-1.000000	-1.000000	-1.000000	-1.000000	81.931034	0.000000	-1.000000	-1.000000	714105.000000	1774905362.776706
19650.465000	-8871.435000	14503.545000	27960.840000	11279.655000	-43002.225000	-36622.755000	-19681.110000	21.467595	21.454870	22.911566	21.565462	22.691304	21.364930	12.824357	19.788125	-4.501700	3.738700	-4.257540	0.749266	-0.355834	0.548461	-1.000000	-1.000000	-1.000000	-1.000000	-1.000000	-1.000000	-1.000000	81.931034	0.000000	-1.000000	-1.000000	714106.000000	1774905362.776716
19673.145000	-8884.710000	14508.045000	27974.700000	11294.145000	-42987.330000	-36601.020000	-19648.305000	1.876649	1.934248	-1.558982	0.078974	1.163018	0.973041	2.330823	2.538725	-4.501700	3.738700	-4.257540	0.749266	-0.355834	0.548461	-1.000000	-1.000000	-1.000000	-1.000000	-1.000000	-1.000000	-1.000000	81.931034	0.000000	-1.000000	-1.000000	714107.000000	1774905362.779032
19687.050000	-8876.925000	14498.280000	27954.000000	11271.555000	-43008.975000	-36603.855000	-19605.690000	-8.128503	-13.948290	-17.230971	-12.726929	-12.543700	-12.138888	-3.330583	-3.409865	-4.501700	3.738700	-4.257540	0.749266	-0.355834	0.548461	-1.000000	-1.000000	-1.000000	-1.000000	-1.000000	-1.000000	-1.000000	81.931034	0.000000	-1.000000	-1.000000	714108.000000	1774905362.779038
19676.340000	-8885.655000	14479.605000	27935.055000	11252.925000	-43026.705000	-36614.205000	-19587.780000	-5.588762	-18.694234	-18.208823	-13.672678	-14.989832	-14.687695	-2.746455	4.862986	-4.501700	3.738700	-4.257540	0.749266	-0.355834	0.548461	-1.000000	-1.000000	-1.000000	-1.000000	-1.000000	-1.000000	-1.000000	81.931034	0.000000	-1.000000	-1.000000	714109.000000	1774905362.783135
19734.660000	-8830.485000	14518.665000	27971.730000	11289.960000	-42988.815000	-36598.230000	-19563.210000	1.290825	-13.130757	-10.707117	-9.318920	-11.722657	-11.695199	-0.623044	15.946141	-4.501700	3.738700	-4.257540	0.749266	-0.355834	0.548461	-1.000000	-1.000000	-1.000000	-1.000000	-1.000000	-1.000000	-1.000000	81.931034	0.000000	-1.000000	-1.000000	714110.000000	1774905362.783145
19781.100000	-8798.355000	14548.680000	28000.980000	11319.930000	-42956.550000	-36583.065000	-19545.975000	6.107844	-1.569249	-1.931855	-4.308096	-6.491804	-6.305818	-0.134865	17.737838	-5.081580	2.823100	-7.813120	0.748106	-0.351317	0.548033	-1.000000	-1.000000	-1.000000	-1.000000	-1.000000	-1.000000	-1.000000	81.931034	0.000000	-1.000000	-1.000000	714111.000000	1774905362.794032
19760.040000	-8808.165000	14540.445000	27999.495000	11318.670000	-42958.890000	-36587.295000	-19571.175000	8.376693	11.232292	5.791789	1.701407	0.876005	1.667271	-0.356811	8.280635	-5.081580	2.823100	-7.813120	0.748106	-0.351317	0.548033	-1.000000	-1.000000	-1.000000	-1.000000	-1.000000	-1.000000	-1.000000	81.931034	0.000000	-1.000000	-1.000000	714112.000000	1774905362.794059
19696.185000	-8855.910000	14489.595000	27947.520000	11267.100000	-43012.485000	-36623.115000	-19634.850000	7.580847	19.017628	10.767182	7.762400	8.461992	9.628910	-0.235134	-6.850303	-5.081580	2.823100	-7.813120	0.748106	-0.351317	0.548033	-1.000000	-1.000000	-1.000000	-1.000000	-1.000000	-1.000000	-1.000000	81.931034	0.000000	-1.000000	-1.000000	714113.000000	1774905362.794080
19653.255000	-8880.750000	14464.305000	27910.935000	11232.180000	-43048.305000	-36650.115000	-19665.855000	1.396113	16.654273	9.775278	9.225426	10.836553	11.578095	-0.995264	-21.459918	-5.081580	2.823100	-7.813120	0.748106	-0.351317	0.548033	-1.000000	-1.000000	-1.000000	-1.000000	-1.000000	-1.000000	-1.000000	81.931034	0.000000	-1.000000	-1.000000	714114.000000	1774905362.794091
19690.560000	-8872.155000	14493.330000	27932.445000	11251.440000	-43030.530000	-36641.340000	-19628.820000	-9.255924	5.657342	3.129230	3.831105	5.512453	5.260388	-3.559481	-29.811125	-5.081580	2.823100	-7.813120	0.748106	-0.351317	0.548033	-1.000000	-1.000000	-1.000000	-1.000000	-1.000000	-1.000000	-1.000000	81.931034	0.000000	-1.000000	-1.000000	714115.000000	1774905362.796783
19696.455000	-8876.205000	14502.960000	27951.390000	11268.405000	-43017.075000	-36634.860000	-19611.315000	-17.710382	-6.118457	-3.001551	-3.362130	-2.403593	-3.597639	-5.814058	-26.639429	-5.081580	2.823100	-7.813120	0.748106	-0.351317	0.548033	-1.000000	-1.000000	-1.000000	-1.000000	-1.000000	-1.000000	-1.000000	81.931034	0.000000	-1.000000	-1.000000	714116.000000	1774905362.796794
19688.670000	-8852.670000	14515.560000	27966.735000	11284.200000	-42999.660000	-36637.470000	-19621.980000	-17.993244	-11.813254	-3.262324	-5.218018	-5.436285	-7.139405	-4.887811	-12.672003	-5.081580	2.823100	-7.813120	0.748106	-0.351317	0.548033	-1.000000	-1.000000	-1.000000	-1.000000	-1.000000	-1.000000	-1.000000	81.931034	0.000000	-1.000000	-1.000000	714117.000000	1774905362.801463
19690.470000	-8839.980000	14512.590000	27982.485000	11306.745000	-42972.795000	-36623.655000	-19645.695000	-11.066308	-10.350395	0.944336	-0.512137	-1.572136	-3.081449	-0.601243	3.272190	-5.081580	2.823100	-7.813120	0.748106	-0.351317	0.548033	-1.000000	-1.000000	-1.000000	-1.000000	-1.000000	-1.000000	-1.000000	81.931034	0.000000	-1.000000	-1.000000	714118.000000	1774905362.801479
19741.005000	-8809.965000	14516.055000	27990.315000	11317.635000	-42961.770000	-36596.790000	-19613.880000	-2.051126	-5.269137	3.540855	5.403040	4.588851	4.120217	4.876853	12.388050	-5.081580	2.823100	-7.813120	0.748106	-0.351317	0.548033	-1.000000	-1.000000	-1.000000	-1.000000	-1.000000	-1.000000	-1.000000	81.931034	0.000000	-1.000000	-1.000000	714119.000000	1774905362.803241
19722.645000	-8838.495000	14469.795000	27944.640000	11281.005000	-42994.440000	-36588.105000	-19592.685000	5.150641	-1.224824	-0.084698	5.905273	6.393313	7.418538	9.087528	14.007289	-5.081580	2.823100	-7.813120	0.748106	-0.351317	0.548033	-1.000000	-1.000000	-1.000000	-1.000000	-1.000000	-1.000000	-1.000000	81.931034	0.000000	-1.000000	-1.000000	714120.000000	1774905362.803253
19696.005000	-8865.450000	14469.795000	27929.070000	11261.790000	-43014.015000	-36591.165000	-19588.455000	9.382182	-0.499235	-8.226826	-0.762206	1.179897	3.381355	10.475575	13.769713	-7.553700	3.570840	-2.777320	0.750059	-0.345885	0.543150	-1.000000	-1.000000	-1.000000	-1.000000	-1.000000	-1.000000	-1.000000	81.931034	0.000000	-1.000000	-1.000000	714121.000000	1774905362.806986
19686.060000	-8881.515000	14496.300000	27932.490000	11249.370000	-43028.415000	-36614.295000	-19607.490000	11.632190	-1.567037	-12.977794	-8.889087	-6.743254	-4.308549	8.687060	15.635240	-7.553700	3.570840	-2.777320	0.750059	-0.345885	0.543150	-1.000000	-1.000000	-1.000000	-1.000000	-1.000000	-1.000000	-1.000000	81.931034	0.000000	-1.000000	-1.000000	714122.000000	1774905362.806998
19673.370000	-8883.495000	14489.460000	27928.935000	11245.455000	-43031.880000	-36622.305000	-19629.315000	12.676842	-1.248637	-7.946971	-10.757472	-10.523102	-8.932551	4.053016	17.011605	-7.553700	3.570840	-2.777320	0.750059	-0.345885	0.543150	-1.000000	-1.000000	-1.000000	-1.000000	-1.000000	-1.000000	-1.000000	81.931034	0.000000	-1.000000	-1.000000	714123.000000	1774905362.811126
19688.490000	-8871.570000	14487.255000	27946.890000	11265.255000	-43012.665000	-36616.095000	-19633.905000	10.854604	1.765324	3.709794	-4.924355	-7.664947	-7.519231	-2.478247	11.849598	-7.553700	3.570840	-2.777320	0.750059	-0.345885	0.543150	-1.000000	-1.000000	-1.000000	-1.000000	-1.000000	-1.000000	-1.000000	81.931034	0.000000	-1.000000	-1.000000	714124.000000	1774905362.811140
19698.750000	-8877.690000	14478.255000	27942.120000	11265.435000	-43008.165000	-36618.705000	-19631.430000	5.030324	5.771382	12.676978	3.521755	-0.875822	-1.978457	-8.741130	-1.368521	-7.553700	3.570840	-2.777320	0.750059	-0.345885	0.543150	-1.000000	-1.000000	-1.000000	-1.000000	-1.000000	-1.000000	-1.000000	81.931034	0.000000	-1.000000	-1.000000	714125.000000	1774905362.816219
19700.370000	-8873.730000	14482.845000	27930.780000	11256.390000	-43014.960000	-36619.020000	-19630.575000	-2.338322	7.432159	13.058369	8.436385	5.088814	3.512055	-12.130142	-16.272072	-7.553700	3.570840	-2.777320	0.750059	-0.345885	0.543150	-1.000000	-1.000000	-1.000000	-1.000000	-1.000000	-1.000000	-1.000000	81.931034	0.000000	-1.000000	-1.000000	714126.000000	1774905362.816231
19690.515000	-8868.555000	14475.870000	27943.245000	11267.100000	-43006.590000	-36600.750000	-19588.815000	-8.386621	4.504641	5.823036	6.822496	6.416412	5.081437	-11.376435	-23.673019	-7.553700	3.570840	-2.777320	0.750059	-0.345885	0.543150	-1.000000	-1.000000	-1.000000	-1.000000	-1.000000	-1.000000	-1.000000	81.931034	0.000000	-1.000000	-1.000000	714127.000000	1774905362.821093
19744.875000	-8801.595000	14597.235000	28038.285000	11351.790000	-42925.905000	-36549.225000	-19514.430000	-12.019835	-1.068093	-2.253340	2.024091	4.200595	3.224222	-6.617448	-18.457356	-7.553700	3.570840	-2.777320	0.750059	-0.345885	0.543150	-1.000000	-1.000000	-1.000000	-1.000000	-1.000000	-1.000000	-1.000000	81.931034	0.000000	-1.000000	-1.000000	714128.000000	1774905362.821100
19754.955000	-8784.135000	14623.155000	28047.195000	11361.105000	-42915.465000	-36547.380000	-19526.850000	-10.918984	-3.217513	-2.143152	1.779867	4.374501	3.410328	1.192535	-3.175508	-7.553700	3.570840	-2.777320	0.750059	-0.345885	0.543150	-1.000000	-1.000000	-1.000000	-1.000000	-1.000000	-1.000000	-1.000000	81.931034	0.000000	-1.000000	-1.000000	714129.000000	1774905362.824309
19713.555000	-8822.790000	14534.055000	27977.580000	11297.655000	-42975.765000	-36593.055000	-19594.845000	-3.404414	1.269769	6.133164	7.359966	8.619560	7.577698	8.799734	12.164197	-7.553700	3.570840	-2.777320	0.750059	-0.345885	0.543150	-1.000000	-1.000000	-1.000000	-1.000000	-1.000000	-1.000000	-1.000000	81.931034	0.000000	-1.000000	-1.000000	714130.000000	1774905362.824315
19650.285000	-8883.720000	14474.070000	27922.770000	11240.910000	-43034.220000	-36642.690000	-19665.585000	5.593130	6.789956	9.550807	9.465410	9.746913	9.147410	10.896568	16.233417	-5.875100	2.853620	-3.296160	0.747862	-0.346801	0.542601	-1.000000	-1.000000	-1.000000	-1.000000	-1.000000	-1.000000	-1.000000	81.931034	0.000000	-1.000000	-1.000000	714131.000000	1774905362.828194
19660.410000	-8879.895000	14478.030000	27927.225000	11249.370000	-43022.385000	-36638.280000	-19659.690000	8.143429	5.212399	-1.106419	0.706472	1.515690	1.975011	5.152768	6.200554	-5.875100	2.853620	-3.296160	0.747862	-0.346801	0.542601	-1.000000	-1.000000	-1.000000	-1.000000	-1.000000	-1.000000	-1.000000	81.931034	0.000000	-1.000000	-1.000000	714132.000000	1774905362.828205
19697.220000	-8846.865000	14482.530000	27940.770000	11265.975000	-43008.210000	-36630.990000	-19623.915000	3.163356	-3.379899	-18.518655	-14.139244	-12.115597	-10.539544	-4.246912	-8.832007	-5.875100	2.853620	-3.296160	0.747862	-0.346801	0.542601	-1.000000	-1.000000	-1.000000	-1.000000	-1.000000	-1.000000	-1.000000	81.931034	0.000000	-1.000000	-1.000000	714133.000000	1774905362.832336
19695.690000	-8829.180000	14473.305000	27942.705000	11268.855000	-43008.885000	-36625.905000	-19619.190000	-3.042378	-10.969851	-28.311105	-23.572535	-21.063445	-19.127174	-10.089099	-16.170843	-5.875100	2.853620	-3.296160	0.747862	-0.346801	0.542601	-1.000000	-1.000000	-1.000000	-1.000000	-1.000000	-1.000000	-1.000000	81.931034	0.000000	-1.000000	-1.000000	714134.000000	1774905362.832347
19679.895000	-8829.360000	14487.840000	27946.755000	11274.030000	-43001.415000	-36615.330000	-19617.255000	-5.295466	-11.417022	-23.262407	-20.610523	-19.059315	-17.932131	-8.529148	-11.133080	-5.875100	2.853620	-3.296160	0.747862	-0.346801	0.542601	-1.000000	-1.000000	-1.000000	-1.000000	-1.000000	-1.000000	-1.000000	81.931034	0.000000	-1.000000	-1.000000	714135.000000	1774905362.835047
19687.185000	-8835.480000	14533.470000	27963.270000	11288.970000	-42986.025000	-36601.740000	-19607.175000	-4.103521	-6.409981	-6.571144	-7.876193	-8.295764	-8.527890	-1.733759	0.183441	-5.875100	2.853620	-3.296160	0.747862	-0.346801	0.542601	-1.000000	-1.000000	-1.000000	-1.000000	-1.000000	-1.000000	-1.000000	81.931034	0.000000	-1.000000	-1.000000	714136.000000	1774905362.835057
19715.085000	-8854.290000	14516.730000	27964.305000	11303.280000	-42971.940000	-36592.875000	-19592.190000	-2.160657	-2.186774	11.633096	5.792457	3.725682	2.668481	4.785141	8.336244	-5.875100	2.853620	-3.296160	0.747862	-0.346801	0.542601	-1.000000	-1.000000	-1.000000	-1.000000	-1.000000	-1.000000	-1.000000	81.931034	0.000000	-1.000000	-1.000000	714137.000000	1774905362.839308
19754.640000	-8832.960000	14472.045000	27988.605000	11329.380000	-42943.050000	-36559.665000	-19540.755000	0.774627	-1.542352	20.852370	14.015425	11.814942	10.897004	8.003481	10.683651	-5.875100	2.853620	-3.296160	0.747862	-0.346801	0.542601	-1.000000	-1.000000	-1.000000	-1.000000	-1.000000	-1.000000	-1.000000	81.931034	0.000000	-1.000000	-1.000000	714138.000000	1774905362.839330
19729.935000	-8833.725000	14485.410000	27987.705000	11321.100000	-42950.565000	-36567.540000	-19567.980000	6.932307	-0.312181	19.118363	17.822352	16.743912	16.591048	9.829181	12.270944	-5.875100	2.853620	-3.296160	0.747862	-0.346801	0.542601	-1.000000	-1.000000	-1.000000	-1.000000	-1.000000	-1.000000	-1.000000	81.931034	0.000000	-1.000000	-1.000000	714139.000000	1774905362.843166
19676.610000	-8855.055000	14519.160000	27966.285000	11283.885000	-42991.830000	-36609.615000	-19633.815000	13.918401	5.654507	13.791951	19.777475	19.442346	20.032578	11.466408	14.882665	-5.875100	2.853620	-3.296160	0.747862	-0.346801	0.542601	-1.000000	-1.000000	-1.000000	-1.000000	-1.000000	-1.000000	-1.000000	81.931034	0.000000	-1.000000	-1.000000	714140.000000	1774905362.843188
19654.695000	-8876.745000	14494.095000	27929.430000	11234.475000	-43040.745000	-36649.440000	-19660.230000	13.863761	12.674888	10.754726	17.076093	15.699340	16.433305	8.930102	12.081892	-2.853620	2.823100	-3.021480	0.745665	-0.348632	0.542723	-1.000000	-1.000000	-1.000000	-1.000000	-1.000000	-1.000000	-1.000000	81.931034	0.000000	-1.000000	-1.000000	714141.000000	1774905362.849507
19758.735000	-8817.480000	14582.115000	27996.885000	11298.150000	-42982.380000	-36609.480000	-19581.120000	3.931786	13.796720	9.112219	6.814262	2.965096	3.142117	-0.501200	0.335801	-2.853620	2.823100	-3.021480	0.745665	-0.348632	0.542723	-1.000000	-1.000000	-1.000000	-1.000000	-1.000000	-1.000000	-1.000000	81.931034	0.000000	-1.000000	-1.000000	714142.000000	1774905362.849529
19828.035000	-8754.120000	14641.470000	28058.355000	11367.405000	-42915.420000	-36568.800000	-19533.285000	-6.519783	8.995881	7.846687	-5.358825	-10.898925	-11.605633	-11.112019	-12.204794	-2.853620	2.823100	-3.021480	0.745665	-0.348632	0.542723	-1.000000	-1.000000	-1.000000	-1.000000	-1.000000	-1.000000	-1.000000	81.931034	0.000000	-1.000000	-1.000000	714143.000000	1774905362.856784
19781.280000	-8775.090000	14602.815000	28035.180000	11347.560000	-42933.645000	-36580.455000	-19579.770000	-7.708004	3.618298	6.158719	-11.205166	-15.365219	-16.749436	-14.893820	-16.083542	-2.853620	2.823100	-3.021480	0.745665	-0.348632	0.542723	-1.000000	-1.000000	-1.000000	-1.000000	-1.000000	-1.000000	-1.000000	81.931034	0.000000	-1.000000	-1.000000	714144.000000	1774905362.856794
19671.345000	-8880.795000	14500.980000	27942.120000	11256.705000	-43021.710000	-36628.605000	-19647.540000	-4.480462	-1.971481	-2.285445	-12.321589	-11.945101	-13.266692	-11.953820	-13.721435	-2.853620	2.823100	-3.021480	0.745665	-0.348632	0.542723	-1.000000	-1.000000	-1.000000	-1.000000	-1.000000	-1.000000	-1.000000	81.931034	0.000000	-1.000000	-1.000000	714145.000000	1774905362.856806
19622.880000	-8929.350000	14450.535000	27893.385000	11208.690000	-43068.420000	-36645.705000	-19660.500000	-9.239209	-12.104598	-21.610705	-16.729907	-11.192653	-11.534526	-8.656521	-13.458662	-2.853620	2.823100	-3.021480	0.745665	-0.348632	0.542723	-1.000000	-1.000000	-1.000000	-1.000000	-1.000000	-1.000000	-1.000000	81.931034	0.000000	-1.000000	-1.000000	714146.000000	1774905362.856811
19695.195000	-8859.465000	14515.695000	27957.285000	11270.070000	-43008.975000	-36600.885000	-19597.095000	-21.677160	-23.921698	-40.794585	-23.814030	-15.542014	-14.553133	-7.249250	-15.033807	-2.853620	2.823100	-3.021480	0.745665	-0.348632	0.542723	-1.000000	-1.000000	-1.000000	-1.000000	-1.000000	-1.000000	-1.000000	81.931034	0.000000	-1.000000	-1.000000	714147.000000	1774905362.859016
19749.285000	-8801.730000	14572.035000	28016.235000	11331.180000	-42946.965000	-36561.690000	-19556.190000	-25.333914	-24.841814	-40.783956	-21.695512	-14.154431	-12.358886	-2.555049	-8.729798	-2.853620	2.823100	-3.021480	0.745665	-0.348632	0.542723	-1.000000	-1.000000	-1.000000	-1.000000	-1.000000	-1.000000	-1.000000	81.931034	0.000000	-1.000000	-1.000000	714148.000000	1774905362.859026
19747.935000	-8789.400000	14581.980000	28029.285000	11348.055000	-42926.940000	-36558.135000	-19590.345000	-7.960521	-7.320119	-16.006483	-2.703242	2.022645	3.794802	9.553770	10.038578	-2.853620	2.823100	-3.021480	0.745665	-0.348632	0.542723	-1.000000	-1.000000	-1.000000	-1.000000	-1.000000	-1.000000	-1.000000	81.931034	0.000000	-1.000000	-1.000000	714149.000000	1774905362.864562
19704.150000	-8830.080000	14540.310000	27990.405000	11309.445000	-42968.385000	-36583.380000	-19651.365000	20.562817	18.624325	18.040926	23.812200	25.628186	26.852734	23.497212	29.571143	-2.853620	2.823100	-3.021480	0.745665	-0.348632	0.542723	-1.000000	-1.000000	-1.000000	-1.000000	-1.000000	-1.000000	-1.000000	81.931034	0.000000	-1.000000	-1.000000	714150.000000	1774905362.864573
19655.100000	-8885.250000	14482.755000	27933.930000	11253.960000	-43021.980000	-36629.820000	-19682.505000	35.879318	32.032700	37.406992	37.370961	36.969370	37.499250	26.771861	31.233128	-3.784480	2.411080	-1.938020	0.747618	-0.348327	0.541808	-1.000000	-1.000000	-1.000000	-1.000000	-1.000000	-1.000000	-1.000000	81.931034	0.000000	-1.000000	-1.000000	714151.000000	1774905362.866955
19682.505000	-8872.965000	14489.370000	27935.685000	11253.510000	-43022.835000	-36641.655000	-19614.330000	24.563753	20.942904	29.552799	25.588253	23.240086	23.168941	12.277245	11.139429	-3.784480	2.411080	-1.938020	0.747618	-0.348327	0.541808	-1.000000	-1.000000	-1.000000	-1.000000	-1.000000	-1.000000	-1.000000	81.931034	0.000000	-1.000000	-1.000000	714152.000000	1774905362.866965
19692.225000	-8862.525000	14505.120000	27953.550000	11272.005000	-43005.375000	-36632.655000	-19612.395000	-1.249073	-4.474121	4.906558	-2.056754	-6.397789	-6.965830	-12.193751	-13.425643	-3.784480	2.411080	-1.938020	0.747618	-0.348327	0.541808	-1.000000	-1.000000	-1.000000	-1.000000	-1.000000	-1.000000	-1.000000	81.931034	0.000000	-1.000000	-1.000000	714153.000000	1774905362.871157
19691.820000	-8860.050000	14504.310000	27952.785000	11270.745000	-43008.255000	-36630.990000	-19613.565000	-17.798015	-21.551810	-13.455515	-22.649671	-28.487686	-29.608965	-29.344103	-22.862698	-3.784480	2.411080	-1.938020	0.747618	-0.348327	0.541808	-1.000000	-1.000000	-1.000000	-1.000000	-1.000000	-1.000000	-1.000000	81.931034	0.000000	-1.000000	-1.000000	714154.000000	1774905362.871169
19681.560000	-8858.790000	14497.695000	27943.785000	11261.385000	-43017.165000	-36641.790000	-19626.840000	-14.462406	-17.837522	-12.277891	-22.384795	-28.356700	-30.042369	-28.416256	-14.398340	-3.784480	2.411080	-1.938020	0.747618	-0.348327	0.541808	-1.000000	-1.000000	-1.000000	-1.000000	-1.000000	-1.000000	-1.000000	81.931034	0.000000	-1.000000	-1.000000	714155.000000	1774905362.875184
19673.460000	-8861.940000	14500.350000	27951.030000	11270.025000	-43007.490000	-36628.605000	-19623.870000	-0.594586	-1.156568	1.832527	-7.290672	-11.581130	-13.445169	-13.277605	-0.080584	-3.784480	2.411080	-1.938020	0.747618	-0.348327	0.541808	-1.000000	-1.000000	-1.000000	-1.000000	-1.000000	-1.000000	-1.000000	81.931034	0.000000	-1.000000	-1.000000	714156.000000	1774905362.875197
19712.925000	-8832.465000	14523.795000	27977.445000	11298.060000	-42978.510000	-36589.905000	-19590.570000	9.208079	12.309884	13.101681	7.598115	6.477942	5.167996	5.201711	8.765781	-3.784480	2.411080	-1.938020	0.747618	-0.348327	0.541808	-1.000000	-1.000000	-1.000000	-1.000000	-1.000000	-1.000000	-1.000000	81.931034	0.000000	-1.000000	-1.000000	714157.000000	1774905362.880388
19743.120000	-8820.045000	14527.980000	27983.520000	11305.845000	-42970.680000	-36561.690000	-19561.320000	10.586536	14.874438	13.356992	13.839484	16.232241	16.048026	19.557420	11.375880	-3.784480	2.411080	-1.938020	0.747618	-0.348327	0.541808	-1.000000	-1.000000	-1.000000	-1.000000	-1.000000	-1.000000	-1.000000	81.931034	0.000000	-1.000000	-1.000000	714158.000000	1774905362.880395
19742.310000	-8812.440000	14536.485000	27988.830000	11311.155000	-42962.985000	-36563.355000	-19547.730000	7.930179	9.917069	6.073359	12.532148	17.343694	18.363523	26.838744	12.372980	-3.784480	2.411080	-1.938020	0.747618	-0.348327	0.541808	-1.000000	-1.000000	-1.000000	-1.000000	-1.000000	-1.000000	-1.000000	81.931034	0.000000	-1.000000	-1.000000	714159.000000	1774905362.883006
19736.820000	-8805.735000	14556.825000	28003.770000	11323.035000	-42954.930000	-36583.740000	-19562.670000	4.343292	3.527013	-1.373713	8.099102	13.229339	15.046045	25.129876	11.883974	-3.784480	2.411080	-1.938020	0.747618	-0.348327	0.541808	-1.000000	-1.000000	-1.000000	-1.000000	-1.000000	-1.000000	-1.000000	81.931034	0.000000	-1.000000	-1.000000	714160.000000	1774905362.883017
19762.335000	-8796.195000	14572.575000	28018.305000	11333.205000	-42946.380000	-36579.825000	-19547.190000	-0.368998	-1.392759	-4.741210	3.480036	6.729228	8.507289	14.019528	5.693186	-2.502640	3.601360	-2.029580	0.749876	-0.347533	0.540099	-1.000000	-1.000000	-1.000000	-1.000000	-1.000000	-1.000000	-1.000000	81.931034	0.000000	-1.000000	-1.000000	714161.000000	1774905362.887031
19735.830000	-8847.810000	14517.495000	27980.955000	11298.735000	-42978.690000	-36597.420000	-19600.920000	-5.588235	-5.123942	-4.993481	-0.967322	-0.799543	0.093579	-2.750400	-6.769202	-2.502640	3.601360	-2.029580	0.749876	-0.347533	0.540099	-1.000000	-1.000000	-1.000000	-1.000000	-1.000000	-1.000000	-1.000000	81.931034	0.000000	-1.000000	-1.000000	714162.000000	1774905362.887038
19663.200000	-8897.490000	14467.635000	27932.580000	11252.745000	-43021.485000	-36612.135000	-19663.380000	-10.294773	-9.297888	-6.223304	-6.457132	-8.879983	-9.054791	-18.348637	-20.704666	-2.502640	3.601360	-2.029580	0.749876	-0.347533	0.540099	-1.000000	-1.000000	-1.000000	-1.000000	-1.000000	-1.000000	-1.000000	81.931034	0.000000	-1.000000	-1.000000	714163.000000	1774905362.891681
19632.195000	-8916.390000	14449.410000	27895.275000	11212.830000	-43061.985000	-36645.120000	-19672.110000	-15.163332	-14.654221	-10.733364	-13.652581	-16.894196	-17.607485	-27.156067	-30.198043	-2.502640	3.601360	-2.029580	0.749876	-0.347533	0.540099	-1.000000	-1.000000	-1.000000	-1.000000	-1.000000	-1.000000	-1.000000	81.931034	0.000000	-1.000000	-1.000000	714164.000000	1774905362.891689
19668.195000	-8883.360000	14483.295000	27925.830000	11241.900000	-43034.580000	-36629.955000	-19639.170000	-18.894281	-18.384176	-15.708321	-20.167134	-22.477527	-23.142059	-27.309396	-29.679207	-2.502640	3.601360	-2.029580	0.749876	-0.347533	0.540099	-1.000000	-1.000000	-1.000000	-1.000000	-1.000000	-1.000000	-1.000000	81.931034	0.000000	-1.000000	-1.000000	714165.000000	1774905362.897434
19679.265000	-8854.515000	14505.885000	27957.150000	11271.870000	-43005.960000	-36612.180000	-19630.170000	-16.734567	-15.275064	-15.202661	-20.314838	-20.978308	-21.459243	-19.581487	-16.420562	-2.502640	3.601360	-2.029580	0.749876	-0.347533	0.540099	-1.000000	-1.000000	-1.000000	-1.000000	-1.000000	-1.000000	-1.000000	81.931034	0.000000	-1.000000	-1.000000	714166.000000	1774905362.897447
19696.905000	-8823.285000	14529.555000	27980.055000	11292.435000	-42989.490000	-36606.195000	-19620.360000	-6.391109	-3.154106	-5.832642	-9.944781	-9.316509	-9.851823	-6.202530	5.155693	-2.502640	3.601360	-2.029580	0.749876	-0.347533	0.540099	-1.000000	-1.000000	-1.000000	-1.000000	-1.000000	-1.000000	-1.000000	81.931034	0.000000	-1.000000	-1.000000	714167.000000	1774905362.901700
19701.135000	-8810.325000	14546.700000	27991.350000	11304.045000	-42979.365000	-36608.715000	-19609.515000	8.678131	13.799497	9.346813	7.980200	9.076174	8.248604	8.881354	25.245259	-2.502640	3.601360	-2.029580	0.749876	-0.347533	0.540099	-1.000000	-1.000000	-1.000000	-1.000000	-1.000000	-1.000000	-1.000000	81.931034	0.000000	-1.000000	-1.000000	714168.000000	1774905362.901713
19708.065000	-8837.190000	14519.250000	27964.305000	11280.510000	-42997.365000	-36613.620000	-19602.450000	21.669523	26.506556	21.801691	23.639331	24.661162	23.739824	20.667607	35.069442	-2.502640	3.601360	-2.029580	0.749876	-0.347533	0.540099	-1.000000	-1.000000	-1.000000	-1.000000	-1.000000	-1.000000	-1.000000	81.931034	0.000000	-1.000000	-1.000000	714169.000000	1774905362.904099
19708.605000	-8857.710000	14496.030000	27942.120000	11257.605000	-43017.705000	-36618.750000	-19593.045000	26.368075	26.803578	23.265521	27.163670	28.149793	27.894492	24.905656	31.598597	-2.502640	3.601360	-2.029580	0.749876	-0.347533	0.540099	-1.000000	-1.000000	-1.000000	-1.000000	-1.000000	-1.000000	-1.000000	81.931034	0.000000	-1.000000	-1.000000	714170.000000	1774905362.904107
19694.295000	-8871.165000	14487.705000	27938.385000	11256.885000	-43015.275000	-36614.250000	-19607.085000	21.484284	14.961183	13.560549	17.411872	18.504043	19.575989	20.564495	18.940168	-4.074420	4.578000	-1.678600	0.752073	-0.348998	0.537901	-1.000000	-1.000000	-1.000000	-1.000000	-1.000000	-1.000000	-1.000000	81.931034	0.000000	-1.000000	-1.000000	714171.000000	1774905362.907052
19699.245000	-8855.280000	14505.705000	27962.505000	11282.580000	-42990.705000	-36600.705000	-19606.725000	11.557654	-0.180849	1.192126	3.315608	4.341661	6.507494	11.109502	4.716950	-4.074420	4.578000	-1.678600	0.752073	-0.348998	0.537901	-1.000000	-1.000000	-1.000000	-1.000000	-1.000000	-1.000000	-1.000000	81.931034	0.000000	-1.000000	-1.000000	714172.000000	1774905362.907064
19747.260000	-8818.695000	14509.980000	27988.380000	11320.695000	-42951.600000	-36589.095000	-19580.445000	2.592390	-9.556745	-5.917814	-5.122398	-4.287212	-2.082043	1.838608	-5.904981	-4.074420	4.578000	-1.678600	0.752073	-0.348998	0.537901	-1.000000	-1.000000	-1.000000	-1.000000	-1.000000	-1.000000	-1.000000	81.931034	0.000000	-1.000000	-1.000000	714173.000000	1774905362.910974
19751.895000	-8800.290000	14500.170000	27994.005000	11327.175000	-42948.720000	-36585.540000	-19575.765000	-3.068686	-10.768607	-7.688821	-5.977045	-5.071186	-3.945675	-4.652902	-12.196400	-4.074420	4.578000	-1.678600	0.752073	-0.348998	0.537901	-1.000000	-1.000000	-1.000000	-1.000000	-1.000000	-1.000000	-1.000000	81.931034	0.000000	-1.000000	-1.000000	714174.000000	1774905362.910985
19724.265000	-8830.170000	14495.130000	27970.785000	11290.770000	-42984.585000	-36597.015000	-19601.370000	-7.878813	-8.348494	-8.714089	-5.011760	-4.086533	-4.559396	-9.405671	-15.987933	-4.074420	4.578000	-1.678600	0.752073	-0.348998	0.537901	-1.000000	-1.000000	-1.000000	-1.000000	-1.000000	-1.000000	-1.000000	81.931034	0.000000	-1.000000	-1.000000	714175.000000	1774905362.915108
19683.090000	-8858.115000	14511.330000	27955.215000	11269.080000	-43005.105000	-36600.840000	-19618.425000	-15.001088	-8.588753	-10.890068	-7.822395	-7.947421	-9.647934	-13.481889	-18.931032	-4.074420	4.578000	-1.678600	0.752073	-0.348998	0.537901	-1.000000	-1.000000	-1.000000	-1.000000	-1.000000	-1.000000	-1.000000	81.931034	0.000000	-1.000000	-1.000000	714176.000000	1774905362.915119
19715.805000	-8836.965000	14558.085000	27996.570000	11306.070000	-42968.340000	-36593.370000	-19590.030000	-22.752714	-12.482598	-11.117349	-13.158977	-15.566464	-17.499743	-15.209373	-19.987833	-4.074420	4.578000	-1.678600	0.752073	-0.348998	0.537901	-1.000000	-1.000000	-1.000000	-1.000000	-1.000000	-1.000000	-1.000000	81.931034	0.000000	-1.000000	-1.000000	714177.000000	1774905362.919442
19752.300000	-8817.885000	14573.025000	28016.595000	11325.915000	-42950.295000	-36604.800000	-19573.470000	-24.189210	-13.864364	-5.194094	-13.889357	-18.489753	-19.846265	-12.287824	-15.855304	-4.074420	4.578000	-1.678600	0.752073	-0.348998	0.537901	-1.000000	-1.000000	-1.000000	-1.000000	-1.000000	-1.000000	-1.000000	81.931034	0.000000	-1.000000	-1.000000	714178.000000	1774905362.919452
19787.580000	-8753.220000	14608.845000	28050.120000	11360.970000	-42918.210000	-36576.720000	-19545.435000	-13.740722	-5.754404	6.944482	-5.005463	-10.059674	-10.788414	-4.906484	-4.815199	-4.074420	4.578000	-1.678600	0.752073	-0.348998	0.537901	-1.000000	-1.000000	-1.000000	-1.000000	-1.000000	-1.000000	-1.000000	81.931034	0.000000	-1.000000	-1.000000	714179.000000	1774905362.922974
19774.260000	-8762.985000	14597.235000	28031.895000	11345.535000	-42931.305000	-36555.165000	-19533.690000	5.978984	11.307488	19.541765	9.882174	6.736074	6.216483	4.625495	10.646991	-4.074420	4.578000	-1.678600	0.752073	-0.348998	0.537901	-1.000000	-1.000000	-1.000000	-1.000000	-1.000000	-1.000000	-1.000000	81.931034	0.000000	-1.000000	-1.000000	714180.000000	1774905362.922996
19706.355000	-8832.060000	14513.310000	27964.485000	11282.085000	-42991.335000	-36570.555000	-19577.070000	23.197260	25.834192	22.847626	19.526753	19.826369	19.397879	12.584027	23.257244	-3.143560	3.845520	-2.578940	0.751097	-0.349731	0.540343	-1.000000	-1.000000	-1.000000	-1.000000	-1.000000	-1.000000	-1.000000	81.931034	0.000000	-1.000000	-1.000000	714181.000000	1774905362.927989
19650.510000	-8883.495000	14445.315000	27911.880000	11232.945000	-43038.720000	-36619.740000	-19649.970000	24.068488	23.149341	9.348800	13.529762	17.108918	17.239324	13.793066	23.145792	-3.143560	3.845520	-2.578940	0.751097	-0.349731	0.540343	-1.000000	-1.000000	-1.000000	-1.000000	-1.000000	-1.000000	-1.000000	81.931034	0.000000	-1.000000	-1.000000	714182.000000	1774905362.928000
19629.405000	-8907.165000	14434.695000	27902.475000	11224.080000	-43048.620000	-36643.905000	-19675.350000	5.935585	0.922501	-16.615335	-6.631823	-1.345585	-0.154354	5.357041	6.796521	-3.143560	3.845520	-2.578940	0.751097	-0.349731	0.540343	-1.000000	-1.000000	-1.000000	-1.000000	-1.000000	-1.000000	-1.000000	81.931034	0.000000	-1.000000	-1.000000	714183.000000	1774905362.931008
19614.510000	-8899.425000	14476.500000	27930.600000	11245.500000	-43030.125000	-36634.230000	-19660.455000	-17.572420	-25.681733	-38.056338	-25.969084	-20.855076	-18.781901	-8.122104	-15.524483	-3.143560	3.845520	-2.578940	0.751097	-0.349731	0.540343	-1.000000	-1.000000	-1.000000	-1.000000	-1.000000	-1.000000	-1.000000	81.931034	0.000000	-1.000000	-1.000000	714184.000000	1774905362.931013
19621.710000	-8873.865000	14515.290000	27949.140000	11258.145000	-43017.435000	-36625.815000	-19646.055000	-28.501855	-36.775015	-38.770784	-28.714308	-25.279557	-23.258626	-16.656667	-27.235653	-3.143560	3.845520	-2.578940	0.751097	-0.349731	0.540343	-1.000000	-1.000000	-1.000000	-1.000000	-1.000000	-1.000000	-1.000000	81.931034	0.000000	-1.000000	-1.000000	714185.000000	1774905362.935033
19670.445000	-8873.730000	14489.955000	27936.360000	11251.080000	-43017.705000	-36622.350000	-19634.265000	-19.572835	-24.673194	-17.744837	-12.837241	-11.947836	-10.902231	-13.823281	-20.755525	-3.143560	3.845520	-2.578940	0.751097	-0.349731	0.540343	-1.000000	-1.000000	-1.000000	-1.000000	-1.000000	-1.000000	-1.000000	81.931034	0.000000	-1.000000	-1.000000	714186.000000	1774905362.935047
19733.580000	-8850.645000	14479.560000	27946.395000	11273.310000	-42996.870000	-36614.430000	-19615.365000	3.209814	1.538545	10.717054	9.830137	8.498880	8.428396	-1.775953	-2.086185	-3.143560	3.845520	-2.578940	0.751097	-0.349731	0.540343	-1.000000	-1.000000	-1.000000	-1.000000	-1.000000	-1.000000	-1.000000	81.931034	0.000000	-1.000000	-1.000000	714187.000000	1774905362.939125
19752.660000	-8819.100000	14469.030000	27964.575000	11300.760000	-42969.420000	-36596.655000	-19595.655000	27.386263	25.790939	30.082389	25.996278	23.979254	23.249295	11.629617	17.072460	-3.143560	3.845520	-2.578940	0.751097	-0.349731	0.540343	-1.000000	-1.000000	-1.000000	-1.000000	-1.000000	-1.000000	-1.000000	81.931034	0.000000	-1.000000	-1.000000	714188.000000	1774905362.939137
19752.435000	-8815.815000	14473.530000	27973.395000	11299.680000	-42970.995000	-36596.430000	-19590.345000	41.177563	37.217292	33.607655	30.373625	29.045096	28.035303	18.792001	27.786909	-3.143560	3.845520	-2.578940	0.751097	-0.349731	0.540343	-1.000000	-1.000000	-1.000000	-1.000000	-1.000000	-1.000000	-1.000000	81.931034	0.000000	-1.000000	-1.000000	714189.000000	1774905362.944830
19717.155000	-8847.180000	14554.755000	27972.045000	11271.870000	-43004.790000	-36621.180000	-19597.095000	38.277734	33.838036	27.085336	25.348072	24.142572	22.856640	16.762498	27.261894	-3.143560	3.845520	-2.578940	0.751097	-0.349731	0.540343	-1.000000	-1.000000	-1.000000	-1.000000	-1.000000	-1.000000	-1.000000	81.931034	0.000000	-1.000000	-1.000000	714190.000000	1774905362.944840
19688.895000	-8870.805000	14507.505000	27961.020000	11273.220000	-43002.225000	-36621.360000	-19629.045000	19.722507	19.029847	20.171614	15.371640	12.291562	10.599047	8.101740	17.837414	-1.907500	4.043900	-2.960440	0.751158	-0.351378	0.541014	-1.000000	-1.000000	-1.000000	-1.000000	-1.000000	-1.000000	-1.000000	81.931034	0.000000	-1.000000	-1.000000	714191.000000	1774905362.947102
19678.995000	-8859.060000	14500.485000	27973.530000	11292.705000	-42981.075000	-36606.420000	-19651.095000	-6.679371	-0.930604	13.693342	3.248345	-1.898150	-3.677096	-1.423045	3.535337	-1.907500	4.043900	-2.960440	0.751158	-0.351378	0.541014	-1.000000	-1.000000	-1.000000	-1.000000	-1.000000	-1.000000	-1.000000	81.931034	0.000000	-1.000000	-1.000000	714192.000000	1774905362.947112
19677.465000	-8845.515000	14535.090000	27981.540000	11292.345000	-42983.550000	-36603.540000	-19643.850000	-29.275456	-17.919940	2.029494	-9.073338	-13.425395	-14.428962	-7.160014	-11.567378	-1.907500	4.043900	-2.960440	0.751158	-0.351378	0.541014	-1.000000	-1.000000	-1.000000	-1.000000	-1.000000	-1.000000	-1.000000	81.931034	0.000000	-1.000000	-1.000000	714193.000000	1774905362.951095
19674.810000	-8844.570000	14559.480000	27978.615000	11284.110000	-42992.370000	-36609.885000	-19618.965000	-39.139893	-25.929379	-14.267475	-19.082199	-19.665377	-19.295104	-8.554980	-22.487214	-1.907500	4.043900	-2.960440	0.751158	-0.351378	0.541014	-1.000000	-1.000000	-1.000000	-1.000000	-1.000000	-1.000000	-1.000000	81.931034	0.000000	-1.000000	-1.000000	714194.000000	1774905362.951102
19714.365000	-8839.935000	14540.760000	27977.490000	11289.960000	-42983.280000	-36599.085000	-19572.795000	-35.096136	-24.187374	-27.240377	-24.003301	-20.522356	-19.039610	-7.554750	-24.293898	-1.907500	4.043900	-2.960440	0.751158	-0.351378	0.541014	-1.000000	-1.000000	-1.000000	-1.000000	-1.000000	-1.000000	-1.000000	81.931034	0.000000	-1.000000	-1.000000	714195.000000	1774905362.955021
19722.510000	-8842.050000	14522.535000	27965.070000	11278.485000	-42996.510000	-36593.640000	-19570.545000	-21.809398	-16.291622	-30.493402	-22.465191	-17.095951	-15.260154	-5.729739	-16.003766	-1.907500	4.043900	-2.960440	0.751158	-0.351378	0.541014	-1.000000	-1.000000	-1.000000	-1.000000	-1.000000	-1.000000	-1.000000	81.931034	0.000000	-1.000000	-1.000000	714196.000000	1774905362.955034
19701.405000	-8854.740000	14507.640000	27952.830000	11266.245000	-43007.715000	-36600.930000	-19596.060000	-5.561818	-7.435819	-24.101127	-15.904085	-11.472332	-9.959613	-4.126992	-3.213325	-1.907500	4.043900	-2.960440	0.751158	-0.351378	0.541014	-1.000000	-1.000000	-1.000000	-1.000000	-1.000000	-1.000000	-1.000000	81.931034	0.000000	-1.000000	-1.000000	714197.000000	1774905362.985221
19693.170000	-8857.530000	14501.565000	27947.430000	11261.655000	-43012.035000	-36623.385000	-19617.390000	8.464513	-0.539188	-12.492174	-6.978361	-4.999755	-4.149995	-3.447786	5.808189	-1.907500	4.043900	-2.960440	0.751158	-0.351378	0.541014	-1.000000	-1.000000	-1.000000	-1.000000	-1.000000	-1.000000	-1.000000	81.931034	0.000000	-1.000000	-1.000000	714198.000000	1774905362.985234
19707.885000	-8844.255000	14514.975000	27962.370000	11276.235000	-43000.020000	-36610.425000	-19617.345000	18.285462	5.519742	-0.623789	2.802570	2.945100	3.162332	-2.728316	7.791810	-1.907500	4.043900	-2.960440	0.751158	-0.351378	0.541014	-1.000000	-1.000000	-1.000000	-1.000000	-1.000000	-1.000000	-1.000000	81.931034	0.000000	-1.000000	-1.000000	714199.000000	1774905362.985249
19742.535000	-8808.705000	14552.460000	28001.700000	11316.510000	-42957.855000	-36567.945000	-19567.845000	24.615607	12.727789	9.615394	12.775890	12.455055	12.246194	0.458501	6.890882	-1.907500	4.043900	-2.960440	0.751158	-0.351378	0.541014	-1.000000	-1.000000	-1.000000	-1.000000	-1.000000	-1.000000	-1.000000	81.931034	0.000000	-1.000000	-1.000000	714200.000000	1774905362.985254
19740.060000	-8809.605000	14552.730000	28003.500000	11319.885000	-42952.275000	-36561.645000	-19546.065000	27.326726	19.467589	18.146856	20.798423	20.507126	20.102055	6.614542	8.790933	-1.220800	4.944240	-2.441600	0.753172	-0.353026	0.540709	-1.000000	-1.000000	-1.000000	-1.000000	-1.000000	-1.000000	-1.000000	81.931034	0.000000	-1.000000	-1.000000	714201.000000	1774905362.985260
19718.235000	-8821.845000	14539.950000	27991.035000	11306.160000	-42968.385000	-36588.870000	-19582.515000	23.462227	20.332969	21.347337	22.431232	22.050592	21.688533	11.745809	12.409568	-1.220800	4.944240	-2.441600	0.753172	-0.353026	0.540709	-1.000000	-1.000000	-1.000000	-1.000000	-1.000000	-1.000000	-1.000000	81.931034	0.000000	-1.000000	-1.000000	714202.000000	1774905362.985264
19702.350000	-8841.105000	14518.710000	27970.065000	11285.955000	-42987.915000	-36611.730000	-19619.550000	10.148890	11.576826	14.854787	14.701410	14.209497	13.945641	10.426175	9.885238	-1.220800	4.944240	-2.441600	0.753172	-0.353026	0.540709	-1.000000	-1.000000	-1.000000	-1.000000	-1.000000	-1.000000	-1.000000	81.931034	0.000000	-1.000000	-1.000000	714203.000000	1774905362.985270
19741.680000	-8800.740000	14556.960000	28007.775000	11322.180000	-42953.220000	-36596.655000	-19582.785000	-9.946612	-3.479458	1.892830	0.835854	0.042121	-0.342672	1.869162	-2.591872	-1.220800	4.944240	-2.441600	0.753172	-0.353026	0.540709	-1.000000	-1.000000	-1.000000	-1.000000	-1.000000	-1.000000	-1.000000	81.931034	0.000000	-1.000000	-1.000000	714204.000000	1774905362.985274
19750.455000	-8779.770000	14581.890000	28031.085000	11344.410000	-42932.070000	-36588.780000	-19551.780000	-27.097495	-15.769484	-7.582257	-10.654032	-12.251898	-12.961155	-8.455945	-17.008098	-1.220800	4.944240	-2.441600	0.753172	-0.353026	0.540709	-1.000000	-1.000000	-1.000000	-1.000000	-1.000000	-1.000000	-1.000000	81.931034	0.000000	-1.000000	-1.000000	714205.000000	1774905362.985280
19712.070000	-8802.225000	14566.005000	28015.290000	11328.705000	-42947.595000	-36584.190000	-19571.355000	-31.696982	-18.334676	-7.310227	-13.386915	-15.887986	-16.842470	-13.480367	-21.329407	-1.220800	4.944240	-2.441600	0.753172	-0.353026	0.540709	-1.000000	-1.000000	-1.000000	-1.000000	-1.000000	-1.000000	-1.000000	81.931034	0.000000	-1.000000	-1.000000	714206.000000	1774905362.985284
19684.125000	-8855.550000	14506.920000	27955.440000	11269.350000	-43005.195000	-36598.410000	-19605.870000	-22.992281	-12.698788	-1.752514	-9.458996	-11.961402	-12.761246	-10.216060	-12.817413	-1.220800	4.944240	-2.441600	0.753172	-0.353026	0.540709	-1.000000	-1.000000	-1.000000	-1.000000	-1.000000	-1.000000	-1.000000	81.931034	0.000000	-1.000000	-1.000000	714207.000000	1774905362.985290
19664.010000	-8901.225000	14462.685000	27915.885000	11232.495000	-43039.755000	-36617.535000	-19640.970000	-8.391114	-6.569723	-0.722908	-6.725752	-7.860069	-7.940258	-2.189791	0.301039	-1.220800	4.944240	-2.441600	0.753172	-0.353026	0.540709	-1.000000	-1.000000	-1.000000	-1.000000	-1.000000	-1.000000	-1.000000	81.931034	0.000000	-1.000000	-1.000000	714208.000000	1774905362.985294
19649.295000	-8900.415000	14464.260000	27919.170000	11235.465000	-43037.370000	-36630.495000	-19655.820000	3.767027	-5.408754	-7.832707	-9.546281	-8.642849	-7.728368	3.428449	7.777975	-1.220800	4.944240	-2.441600	0.753172	-0.353026	0.540709	-1.000000	-1.000000	-1.000000	-1.000000	-1.000000	-1.000000	-1.000000	81.931034	0.000000	-1.000000	-1.000000	714209.000000	1774905362.985300
19678.455000	-8871.885000	14483.295000	27935.640000	11249.910000	-43024.680000	-36633.915000	-19641.420000	10.291052	-6.660031	-16.444686	-13.570664	-11.139790	-9.633241	3.002677	6.481877	-1.220800	4.944240	-2.441600	0.753172	-0.353026	0.540709	-1.000000	-1.000000	-1.000000	-1.000000	-1.000000	-1.000000	-1.000000	81.931034	0.000000	-1.000000	-1.000000	714210.000000	1774905362.985304
19715.355000	-8845.290000	14500.260000	27953.730000	11271.240000	-43004.430000	-36616.725000	-19612.170000	14.083071	-3.104666	-16.646656	-10.629376	-7.817139	-6.561983	0.133983	2.496437	-0.885080	4.578000	-2.807840	0.751341	-0.351745	0.541197	-1.000000	-1.000000	-1.000000	-1.000000	-1.000000	-1.000000	-1.000000	81.931034	0.000000	-1.000000	-1.000000	714211.000000	1774905362.989484
19715.535000	-8841.105000	14487.435000	27953.730000	11284.425000	-42988.590000	-36604.530000	-19602.990000	17.767831	7.779089	-5.152964	1.774013	4.089410	4.452724	0.662934	3.219037	-0.885080	4.578000	-2.807840	0.751341	-0.351745	0.541197	-1.000000	-1.000000	-1.000000	-1.000000	-1.000000	-1.000000	-1.000000	81.931034	0.000000	-1.000000	-1.000000	714212.000000	1774905362.989496
19713.195000	-8845.515000	14482.305000	27952.110000	11283.255000	-42991.155000	-36608.535000	-19594.665000	18.266330	19.363073	11.044221	16.694603	18.326032	17.791848	5.236474	8.199452	-0.885080	4.578000	-2.807840	0.751341	-0.351745	0.541197	-1.000000	-1.000000	-1.000000	-1.000000	-1.000000	-1.000000	-1.000000	81.931034	0.000000	-1.000000	-1.000000	714213.000000	1774905362.993135
19691.730000	-8864.685000	14492.880000	27956.295000	11271.600000	-43004.925000	-36615.330000	-19624.365000	11.693463	22.338462	21.528447	24.284682	25.067929	24.101620	9.055942	10.838091	-0.885080	4.578000	-2.807840	0.751341	-0.351745	0.541197	-1.000000	-1.000000	-1.000000	-1.000000	-1.000000	-1.000000	-1.000000	81.931034	0.000000	-1.000000	-1.000000	714214.000000	1774905362.993146
19664.955000	-8870.265000	14508.810000	27956.610000	11267.730000	-43008.255000	-36614.025000	-19645.470000	0.093215	14.585284	22.399814	21.311640	20.433079	19.495004	8.243540	7.104118	-0.885080	4.578000	-2.807840	0.751341	-0.351745	0.541197	-1.000000	-1.000000	-1.000000	-1.000000	-1.000000	-1.000000	-1.000000	81.931034	0.000000	-1.000000	-1.000000	714215.000000	1774905362.994917
19656.810000	-8852.580000	14528.610000	27970.470000	11274.885000	-43002.180000	-36612.270000	-19650.420000	-10.322377	2.977655	17.587582	12.627357	9.403672	8.737673	3.705967	-0.393593	-0.885080	4.578000	-2.807840	0.751341	-0.351745	0.541197	-1.000000	-1.000000	-1.000000	-1.000000	-1.000000	-1.000000	-1.000000	81.931034	0.000000	-1.000000	-1.000000	714216.000000	1774905362.994923
19693.845000	-8850.825000	14509.170000	27958.320000	11269.710000	-43006.050000	-36611.505000	-19620.810000	-14.165400	-4.191147	11.705799	4.254363	-0.657963	-0.989965	-1.213630	-5.613784	-0.885080	4.578000	-2.807840	0.751341	-0.351745	0.541197	-1.000000	-1.000000	-1.000000	-1.000000	-1.000000	-1.000000	-1.000000	81.931034	0.000000	-1.000000	-1.000000	714217.000000	1774905363.004136
19713.060000	-8848.395000	14509.845000	27962.280000	11276.550000	-43000.110000	-36614.340000	-19592.865000	-9.601067	-5.243301	4.589979	-2.437764	-6.886994	-6.903574	-4.306390	-4.720403	-0.885080	4.578000	-2.807840	0.751341	-0.351745	0.541197	-1.000000	-1.000000	-1.000000	-1.000000	-1.000000	-1.000000	-1.000000	81.931034	0.000000	-1.000000	-1.000000	714218.000000	1774905363.004150
19694.475000	-8842.590000	14522.265000	27977.400000	11289.285000	-42989.040000	-36613.215000	-19611.675000	-0.563358	-4.575984	-5.394192	-8.606898	-10.165599	-9.882083	-5.224707	0.346880	-0.885080	4.578000	-2.807840	0.751341	-0.351745	0.541197	-1.000000	-1.000000	-1.000000	-1.000000	-1.000000	-1.000000	-1.000000	81.931034	0.000000	-1.000000	-1.000000	714219.000000	1774905363.004167
19697.985000	-8838.000000	14520.015000	27975.690000	11289.420000	-42986.880000	-36611.505000	-19608.705000	5.100327	-5.949422	-15.847698	-13.570983	-11.416941	-10.886246	-4.701345	3.492991	-0.885080	4.578000	-2.807840	0.751341	-0.351745	0.541197	-1.000000	-1.000000	-1.000000	-1.000000	-1.000000	-1.000000	-1.000000	81.931034	0.000000	-1.000000	-1.000000	714220.000000	1774905363.004172
19741.905000	-8815.410000	14537.115000	27989.550000	11305.485000	-42969.015000	-36610.065000	-19592.100000	3.749276	-8.724833	-21.510479	-15.299247	-10.888707	-10.216037	-3.816218	0.940754	-2.884140	3.662400	-3.433500	0.749693	-0.348022	0.542113	-1.000000	-1.000000	-1.000000	-1.000000	-1.000000	-1.000000	-1.000000	81.931034	0.000000	-1.000000	-1.000000	714221.000000	1774905363.010872
19773.540000	-8793.945000	14560.335000	28008.585000	11323.170000	-42954.030000	-36593.325000	-19551.015000	-0.174099	-9.354752	-18.903179	-12.566857	-8.279295	-7.578385	-2.837763	-4.496653	-2.884140	3.662400	-3.433500	0.749693	-0.348022	0.542113	-1.000000	-1.000000	-1.000000	-1.000000	-1.000000	-1.000000	-1.000000	81.931034	0.000000	-1.000000	-1.000000	714222.000000	1774905363.010883
19776.420000	-8784.045000	14572.350000	28024.200000	11336.760000	-42942.240000	-36574.290000	-19535.265000	-0.355846	-5.070080	-9.042971	-5.689323	-2.969393	-2.428354	-0.735766	-6.287357	-2.884140	3.662400	-3.433500	0.749693	-0.348022	0.542113	-1.000000	-1.000000	-1.000000	-1.000000	-1.000000	-1.000000	-1.000000	81.931034	0.000000	-1.000000	-1.000000	714223.000000	1774905363.012612
19740.240000	-8805.780000	14555.610000	28018.845000	11335.185000	-42939.630000	-36570.330000	-19569.510000	3.681573	2.675009	2.682781	3.006083	4.200110	4.375935	2.969287	-1.735058	-2.884140	3.662400	-3.433500	0.749693	-0.348022	0.542113	-1.000000	-1.000000	-1.000000	-1.000000	-1.000000	-1.000000	-1.000000	81.931034	0.000000	-1.000000	-1.000000	714224.000000	1774905363.012619
19701.045000	-8833.095000	14517.630000	27979.785000	11298.870000	-42970.140000	-36596.655000	-19599.795000	5.883047	8.137236	9.499805	9.072495	9.494673	9.404514	6.081383	3.979306	-2.884140	3.662400	-3.433500	0.749693	-0.348022	0.542113	-1.000000	-1.000000	-1.000000	-1.000000	-1.000000	-1.000000	-1.000000	81.931034	0.000000	-1.000000	-1.000000	714225.000000	1774905363.017854
19681.920000	-8850.420000	14501.790000	27959.040000	11275.245000	-42997.860000	-36625.995000	-19624.455000	0.323366	6.364720	7.965431	8.312869	8.340569	8.328928	4.961528	3.251233	-2.884140	3.662400	-3.433500	0.749693	-0.348022	0.542113	-1.000000	-1.000000	-1.000000	-1.000000	-1.000000	-1.000000	-1.000000	81.931034	0.000000	-1.000000	-1.000000	714226.000000	1774905363.017864
19681.155000	-8853.930000	14503.680000	27949.050000	11259.900000	-43017.030000	-36641.790000	-19649.655000	-11.430088	-1.760053	0.578125	0.838646	0.035975	0.124428	-1.340041	-5.556821	-2.884140	3.662400	-3.433500	0.749693	-0.348022	0.542113	-1.000000	-1.000000	-1.000000	-1.000000	-1.000000	-1.000000	-1.000000	81.931034	0.000000	-1.000000	-1.000000	714227.000000	1774905363.020368
19651.320000	-8898.390000	14456.655000	27904.635000	11214.225000	-43061.400000	-36644.085000	-19652.760000	-21.067273	-10.919704	-7.157601	-8.832854	-11.065202	-11.269963	-9.120287	-16.091510	-2.884140	3.662400	-3.433500	0.749693	-0.348022	0.542113	-1.000000	-1.000000	-1.000000	-1.000000	-1.000000	-1.000000	-1.000000	81.931034	0.000000	-1.000000	-1.000000	714228.000000	1774905363.020380
19655.415000	-8892.315000	14463.855000	27921.780000	11233.935000	-43038.405000	-36608.670000	-19649.475000	-21.712919	-16.105019	-11.098091	-15.135010	-18.662804	-19.399810	-12.496323	-19.621225	-2.884140	3.662400	-3.433500	0.749693	-0.348022	0.542113	-1.000000	-1.000000	-1.000000	-1.000000	-1.000000	-1.000000	-1.000000	81.931034	0.000000	-1.000000	-1.000000	714229.000000	1774905363.023027
19695.645000	-8855.640000	14480.775000	27956.925000	11271.375000	-43004.340000	-36604.845000	-19631.115000	-12.601207	-14.064870	-9.079505	-13.399087	-17.123937	-18.167647	-7.942493	-12.561700	-2.884140	3.662400	-3.433500	0.749693	-0.348022	0.542113	-1.000000	-1.000000	-1.000000	-1.000000	-1.000000	-1.000000	-1.000000	81.931034	0.000000	-1.000000	-1.000000	714230.000000	1774905363.023043
19702.755000	-8850.105000	14462.280000	27950.535000	11271.510000	-43003.305000	-36609.975000	-19613.790000	2.732010	-3.954551	-1.611675	-2.838723	-5.043285	-5.922227	2.015588	1.617964	-4.059160	3.067260	-3.616620	0.749937	-0.344359	0.543089	-1.000000	-1.000000	-1.000000	-1.000000	-1.000000	-1.000000	-1.000000	81.931034	0.000000	-1.000000	-1.000000	714231.000000	1774905363.027553
19696.815000	-8853.705000	14460.525000	27934.785000	11257.650000	-43014.645000	-36610.650000	-19597.275000	18.578174	10.422100	7.228081	10.765171	11.557900	11.283090	10.477049	16.526571	-4.059160	3.067260	-3.616620	0.749937	-0.344359	0.543089	-1.000000	-1.000000	-1.000000	-1.000000	-1.000000	-1.000000	-1.000000	81.931034	0.000000	-1.000000	-1.000000	714232.000000	1774905363.027562
19683.720000	-8843.715000	14508.720000	27950.895000	11267.010000	-43007.985000	-36612.585000	-19605.195000	28.846677	22.265397	14.043720	19.750116	23.462847	23.886939	12.636541	26.849599	-4.059160	3.067260	-3.616620	0.749937	-0.344359	0.543089	-1.000000	-1.000000	-1.000000	-1.000000	-1.000000	-1.000000	-1.000000	81.931034	0.000000	-1.000000	-1.000000	714233.000000	1774905363.034176
19686.510000	-8841.150000	14530.905000	27954.540000	11270.745000	-43002.315000	-36609.480000	-19615.995000	29.667951	26.636593	19.276179	21.454245	26.007058	26.684995	9.328490	28.906445	-4.059160	3.067260	-3.616620	0.749937	-0.344359	0.543089	-1.000000	-1.000000	-1.000000	-1.000000	-1.000000	-1.000000	-1.000000	81.931034	0.000000	-1.000000	-1.000000	714234.000000	1774905363.034199
19669.185000	-8822.520000	14524.785000	27972.540000	11289.780000	-42985.260000	-36598.365000	-19624.140000	20.665696	22.422173	22.440320	17.701548	20.539925	20.957153	4.774965	21.122159	-4.059160	3.067260	-3.616620	0.749937	-0.344359	0.543089	-1.000000	-1.000000	-1.000000	-1.000000	-1.000000	-1.000000	-1.000000	81.931034	0.000000	-1.000000	-1.000000	714235.000000	1774905363.037855
19655.505000	-8811.720000	14513.805000	27986.535000	11305.170000	-42972.615000	-36596.340000	-19628.055000	4.870778	11.907210	19.329602	10.984866	11.074315	11.160654	2.119528	6.106793	-4.059160	3.067260	-3.616620	0.749937	-0.344359	0.543089	-1.000000	-1.000000	-1.000000	-1.000000	-1.000000	-1.000000	-1.000000	81.931034	0.000000	-1.000000	-1.000000	714236.000000	1774905363.037868
19706.760000	-8821.755000	14521.455000	27988.920000	11305.800000	-42970.905000	-36595.035000	-19593.630000	-10.969126	-0.580765	8.031735	3.352986	1.435320	1.348672	0.848453	-9.477143	-4.059160	3.067260	-3.616620	0.749937	-0.344359	0.543089	-1.000000	-1.000000	-1.000000	-1.000000	-1.000000	-1.000000	-1.000000	81.931034	0.000000	-1.000000	-1.000000	714237.000000	1774905363.041660
19800.720000	-8786.205000	14585.175000	28034.865000	11344.635000	-42933.555000	-36556.110000	-19517.040000	-18.275332	-11.224793	-6.568096	-3.864318	-6.573734	-6.770485	-1.186003	-18.047078	-4.059160	3.067260	-3.616620	0.749937	-0.344359	0.543089	-1.000000	-1.000000	-1.000000	-1.000000	-1.000000	-1.000000	-1.000000	81.931034	0.000000	-1.000000	-1.000000	714238.000000	1774905363.041681
19813.005000	-8755.785000	14633.910000	28072.260000	11377.800000	-42898.590000	-36530.730000	-19519.245000	-13.613296	-17.622028	-16.365034	-9.583331	-12.418064	-12.635778	-3.702437	-16.231833	-4.059160	3.067260	-3.616620	0.749937	-0.344359	0.543089	-1.000000	-1.000000	-1.000000	-1.000000	-1.000000	-1.000000	-1.000000	81.931034	0.000000	-1.000000	-1.000000	714239.000000	1774905363.049217
19746.360000	-8791.380000	14579.550000	28014.480000	11324.970000	-42947.640000	-36577.170000	-19585.215000	-3.802807	-18.842917	-17.600949	-13.130411	-15.741227	-15.691710	-5.253762	-9.382362	-4.059160	3.067260	-3.616620	0.749937	-0.344359	0.543089	-1.000000	-1.000000	-1.000000	-1.000000	-1.000000	-1.000000	-1.000000	81.931034	0.000000	-1.000000	-1.000000	714240.000000	1774905363.049230
19638.945000	-8894.340000	14445.945000	27900.630000	11219.580000	-43054.335000	-36651.195000	-19669.095000	-0.745005	-17.509841	-16.149494	-16.897342	-18.475426	-17.913447	-7.658203	-7.516791	-3.845520	3.113040	-2.060100	0.748289	-0.346374	0.542479	-1.000000	-1.000000	-1.000000	-1.000000	-1.000000	-1.000000	-1.000000	81.931034	0.000000	-1.000000	-1.000000	714241.000000	1774905363.049242
19642.860000	-8912.430000	14393.790000	27880.290000	11212.110000	-43059.735000	-36650.295000	-19661.400000	-9.187859	-17.788970	-21.280284	-23.643142	-22.821726	-21.906798	-12.892267	-13.621276	-3.845520	3.113040	-2.060100	0.748289	-0.346374	0.542479	-1.000000	-1.000000	-1.000000	-1.000000	-1.000000	-1.000000	-1.000000	81.931034	0.000000	-1.000000	-1.000000	714242.000000	1774905363.049247
19678.005000	-8864.865000	14454.135000	27938.610000	11263.185000	-43008.030000	-36614.970000	-19619.730000	-20.248821	-17.834512	-30.653941	-28.303983	-24.366384	-23.545463	-16.567099	-18.783134	-3.845520	3.113040	-2.060100	0.748289	-0.346374	0.542479	-1.000000	-1.000000	-1.000000	-1.000000	-1.000000	-1.000000	-1.000000	81.931034	0.000000	-1.000000	-1.000000	714243.000000	1774905363.052430
19698.480000	-8851.635000	14515.875000	27966.015000	11278.800000	-42993.900000	-36602.775000	-19596.555000	-20.112607	-10.697435	-28.946453	-20.734985	-15.180993	-14.777780	-11.626021	-12.014234	-3.845520	3.113040	-2.060100	0.748289	-0.346374	0.542479	-1.000000	-1.000000	-1.000000	-1.000000	-1.000000	-1.000000	-1.000000	81.931034	0.000000	-1.000000	-1.000000	714244.000000	1774905363.052436
19744.020000	-8801.460000	14588.685000	28014.210000	11318.130000	-42960.780000	-36583.965000	-19572.795000	-4.303734	5.880612	-5.592355	1.449177	5.223051	5.062725	2.348589	6.934138	-3.845520	3.113040	-2.060100	0.748289	-0.346374	0.542479	-1.000000	-1.000000	-1.000000	-1.000000	-1.000000	-1.000000	-1.000000	81.931034	0.000000	-1.000000	-1.000000	714245.000000	1774905363.056350
19758.915000	-8804.115000	14552.280000	27998.280000	11307.645000	-42968.655000	-36587.430000	-19560.240000	17.853759	25.554593	30.295783	28.007496	27.365671	26.520964	17.578564	26.419001	-3.845520	3.113040	-2.060100	0.748289	-0.346374	0.542479	-1.000000	-1.000000	-1.000000	-1.000000	-1.000000	-1.000000	-1.000000	81.931034	0.000000	-1.000000	-1.000000	714246.000000	1774905363.056361
19717.785000	-8823.195000	14493.420000	27961.785000	11288.790000	-42986.880000	-36604.890000	-19577.700000	29.973285	36.559452	53.795327	42.177861	37.848734	36.475314	23.984933	32.549941	-3.845520	3.113040	-2.060100	0.748289	-0.346374	0.542479	-1.000000	-1.000000	-1.000000	-1.000000	-1.000000	-1.000000	-1.000000	81.931034	0.000000	-1.000000	-1.000000	714247.000000	1774905363.059034
19672.155000	-8876.880000	14411.205000	27918.360000	11256.300000	-43018.920000	-36630.405000	-19621.035000	22.159280	29.541469	45.330813	33.226487	29.034913	27.717253	16.855999	20.432724	-3.845520	3.113040	-2.060100	0.748289	-0.346374	0.542479	-1.000000	-1.000000	-1.000000	-1.000000	-1.000000	-1.000000	-1.000000	81.931034	0.000000	-1.000000	-1.000000	714248.000000	1774905363.059040
19688.130000	-8903.925000	14414.085000	27930.645000	11256.705000	-43018.650000	-36629.640000	-19635.390000	1.794287	7.298177	10.709854	8.027713	7.337701	6.619324	1.765397	-1.313183	-3.845520	3.113040	-2.060100	0.748289	-0.346374	0.542479	-1.000000	-1.000000	-1.000000	-1.000000	-1.000000	-1.000000	-1.000000	81.931034	0.000000	-1.000000	-1.000000	714249.000000	1774905363.063159
19688.355000	-8851.005000	14559.210000	27969.885000	11267.910000	-43012.800000	-36623.565000	-19633.275000	-12.745863	-14.524336	-20.976673	-12.999184	-10.890845	-10.946392	-9.443874	-17.392883	-3.845520	3.113040	-2.060100	0.748289	-0.346374	0.542479	-1.000000	-1.000000	-1.000000	-1.000000	-1.000000	-1.000000	-1.000000	81.931034	0.000000	-1.000000	-1.000000	714250.000000	1774905363.063168
19671.795000	-8841.195000	14554.755000	27977.130000	11282.985000	-42996.195000	-36618.210000	-19631.565000	-11.721282	-20.865399	-24.285040	-15.705492	-14.831359	-14.583367	-9.949829	-19.087461	-0.228900	3.341940	-1.739640	0.747068	-0.348388	0.542296	-1.000000	-1.000000	-1.000000	-1.000000	-1.000000	-1.000000	-1.000000	81.931034	0.000000	-1.000000	-1.000000	714251.000000	1774905363.067169
19685.205000	-8844.345000	14526.360000	27987.390000	11301.525000	-42974.955000	-36611.820000	-19608.795000	-1.764399	-11.849305	-3.974642	-5.007697	-7.786224	-7.517892	-3.369566	-9.909800	-0.228900	3.341940	-1.739640	0.747068	-0.348388	0.542296	-1.000000	-1.000000	-1.000000	-1.000000	-1.000000	-1.000000	-1.000000	81.931034	0.000000	-1.000000	-1.000000	714252.000000	1774905363.067178
19749.105000	-8831.835000	14522.805000	27989.505000	11305.710000	-42968.790000	-36600.885000	-19576.800000	6.617265	0.230575	13.373679	4.284333	0.019508	0.545738	2.597885	1.527884	-0.228900	3.341940	-1.739640	0.747068	-0.348388	0.542296	-1.000000	-1.000000	-1.000000	-1.000000	-1.000000	-1.000000	-1.000000	81.931034	0.000000	-1.000000	-1.000000	714253.000000	1774905363.073677
19747.035000	-8821.755000	14543.820000	27988.830000	11297.475000	-42980.715000	-36596.295000	-19575.900000	9.079831	5.440336	10.789747	3.403268	1.726824	2.925724	3.834180	8.926416	-0.228900	3.341940	-1.739640	0.747068	-0.348388	0.542296	-1.000000	-1.000000	-1.000000	-1.000000	-1.000000	-1.000000	-1.000000	81.931034	0.000000	-1.000000	-1.000000	714254.000000	1774905363.073691
19698.840000	-8821.305000	14561.910000	27982.845000	11285.010000	-42994.755000	-36601.470000	-19597.410000	4.505881	2.702639	-5.772046	-5.474859	-3.013384	-1.347972	0.811422	8.921749	-0.228900	3.341940	-1.739640	0.747068	-0.348388	0.542296	-1.000000	-1.000000	-1.000000	-1.000000	-1.000000	-1.000000	-1.000000	81.931034	0.000000	-1.000000	-1.000000	714255.000000	1774905363.084845
19692.990000	-8828.055000	14536.980000	27966.870000	11274.435000	-43005.690000	-36608.130000	-19609.470000	-5.669517	-3.171293	-19.527514	-14.134249	-9.685148	-8.447362	-3.607036	1.995305	-0.228900	3.341940	-1.739640	0.747068	-0.348388	0.542296	-1.000000	-1.000000	-1.000000	-1.000000	-1.000000	-1.000000	-1.000000	81.862069	0.000000	-1.000000	-1.000000	714256.000000	1774905363.084858
19724.310000	-8826.840000	14528.970000	27962.820000	11273.805000	-43005.960000	-36612.000000	-19600.290000	-13.891912	-6.038769	-19.634078	-15.411565	-12.242164	-12.228145	-5.996780	-5.760758	-0.228900	3.341940	-1.739640	0.747068	-0.348388	0.542296	-1.000000	-1.000000	-1.000000	-1.000000	-1.000000	-1.000000	-1.000000	81.862069	0.000000	-1.000000	-1.000000	714257.000000	1774905363.084871
19704.330000	-8844.840000	14512.770000	27957.330000	11274.975000	-42996.735000	-36600.435000	-19615.140000	-12.227035	-2.953508	-8.220977	-7.968737	-7.232934	-8.352902	-4.187302	-7.287703	-0.228900	3.341940	-1.739640	0.747068	-0.348388	0.542296	-1.000000	-1.000000	-1.000000	-1.000000	-1.000000	-1.000000	-1.000000	81.862069	0.000000	-1.000000	-1.000000	714258.000000	1774905363.084876
19710.810000	-8833.680000	14524.425000	27975.285000	11294.145000	-42980.040000	-36594.945000	-19614.420000	-1.720987	2.828315	3.469700	3.350156	3.261965	2.021849	1.010810	-2.019478	-0.228900	3.341940	-1.739640	0.747068	-0.348388	0.542296	-1.000000	-1.000000	-1.000000	-1.000000	-1.000000	-1.000000	-1.000000	81.862069	0.000000	-1.000000	-1.000000	714259.000000	1774905363.084882
19725.480000	-8831.205000	14523.570000	27974.835000	11295.405000	-42980.490000	-36604.485000	-19607.805000	9.633062	5.550327	6.882064	11.676888	12.711804	12.262833	5.736475	4.389964	-0.228900	3.341940	-1.739640	0.747068	-0.348388	0.542296	-1.000000	-1.000000	-1.000000	-1.000000	-1.000000	-1.000000	-1.000000	81.862069	0.000000	-1.000000	-1.000000	714260.000000	1774905363.084886
19716.660000	-8837.280000	14517.360000	27968.085000	11288.160000	-42986.520000	-36607.230000	-19604.925000	14.397354	3.119897	3.408795	12.728445	14.806151	15.071575	5.938861	6.352623	-1.892240	3.296160	-1.876980	0.749632	-0.345519	0.540953	-1.000000	-1.000000	-1.000000	-1.000000	-1.000000	-1.000000	-1.000000	81.862069	0.000000	-1.000000	-1.000000	714261.000000	1774905363.087374
19748.385000	-8770.230000	14586.705000	28038.015000	11357.055000	-42918.930000	-36538.515000	-19514.970000	9.412914	-1.611802	-0.322881	7.664866	9.111197	9.427857	1.963014	3.498310	-1.892240	3.296160	-1.876980	0.749632	-0.345519	0.540953	-1.000000	-1.000000	-1.000000	-1.000000	-1.000000	-1.000000	-1.000000	81.862069	0.000000	-1.000000	-1.000000	714262.000000	1774905363.087385
19820.520000	-8710.110000	14655.330000	28108.665000	11427.345000	-42852.150000	-36488.340000	-19440.225000	-0.821301	-3.004351	1.402086	3.217367	2.698263	2.583025	-0.709333	1.577672	-1.892240	3.296160	-1.876980	0.749632	-0.345519	0.540953	-1.000000	-1.000000	-1.000000	-1.000000	-1.000000	-1.000000	-1.000000	81.862069	0.000000	-1.000000	-1.000000	714263.000000	1774905363.091232
19823.895000	-8719.425000	14645.295000	28096.785000	11414.070000	-42867.855000	-36528.795000	-19494.765000	-6.189834	1.818706	9.306772	4.727266	2.190614	1.536327	1.370096	4.759391	-1.892240	3.296160	-1.876980	0.749632	-0.345519	0.540953	-1.000000	-1.000000	-1.000000	-1.000000	-1.000000	-1.000000	-1.000000	81.862069	0.000000	-1.000000	-1.000000	714264.000000	1774905363.091243
19710.315000	-8824.095000	14533.695000	27986.535000	11306.385000	-42971.715000	-36640.395000	-19646.910000	-3.874237	7.351059	16.145172	7.810341	4.036021	3.068424	2.991070	6.480002	-1.892240	3.296160	-1.876980	0.749632	-0.345519	0.540953	-1.000000	-1.000000	-1.000000	-1.000000	-1.000000	-1.000000	-1.000000	81.862069	0.000000	-1.000000	-1.000000	714265.000000	1774905363.095218
19649.385000	-8883.180000	14463.090000	27912.690000	11232.720000	-43044.660000	-36691.605000	-19719.360000	-3.080606	4.217611	11.617606	2.248060	-1.706173	-2.499014	-3.818037	-3.827414	-1.892240	3.296160	-1.876980	0.749632	-0.345519	0.540953	-1.000000	-1.000000	-1.000000	-1.000000	-1.000000	-1.000000	-1.000000	81.862069	0.000000	-1.000000	-1.000000	714266.000000	1774905363.095236
19620.450000	-8918.325000	14409.315000	27875.700000	11206.125000	-43069.725000	-36677.025000	-19729.485000	-10.420978	-9.225724	-6.801532	-14.600119	-17.406725	-17.594592	-17.489955	-23.946497	-1.892240	3.296160	-1.876980	0.749632	-0.345519	0.540953	-1.000000	-1.000000	-1.000000	-1.000000	-1.000000	-1.000000	-1.000000	81.862069	0.000000	-1.000000	-1.000000	714267.000000	1774905363.099352
19630.125000	-8906.625000	14380.695000	27877.635000	11222.775000	-43048.890000	-36640.980000	-19702.755000	-19.792111	-23.756067	-29.598128	-32.617199	-32.803074	-32.219817	-25.847212	-37.558596	-1.892240	3.296160	-1.876980	0.749632	-0.345519	0.540953	-1.000000	-1.000000	-1.000000	-1.000000	-1.000000	-1.000000	-1.000000	81.862069	0.000000	-1.000000	-1.000000	714268.000000	1774905363.099363
19631.835000	-8903.025000	14386.050000	27876.420000	11215.260000	-43055.370000	-36626.805000	-19661.400000	-20.699352	-27.454454	-41.451555	-37.700329	-34.638984	-33.308052	-18.470230	-30.463024	-1.892240	3.296160	-1.876980	0.749632	-0.345519	0.540953	-1.000000	-1.000000	-1.000000	-1.000000	-1.000000	-1.000000	-1.000000	81.862069	0.000000	-1.000000	-1.000000	714269.000000	1774905363.106635
19664.910000	-8851.770000	14478.345000	27926.685000	11245.320000	-43034.490000	-36622.260000	-19621.710000	-9.343506	-15.273220	-31.452595	-23.398125	-18.666710	-17.028645	2.212369	-3.636201	-1.892240	3.296160	-1.876980	0.749632	-0.345519	0.540953	-1.000000	-1.000000	-1.000000	-1.000000	-1.000000	-1.000000	-1.000000	81.862069	0.000000	-1.000000	-1.000000	714270.000000	1774905363.106645
19684.935000	-8854.695000	14540.895000	27969.795000	11274.480000	-43008.795000	-36610.110000	-19598.625000	8.905886	6.577603	-1.408708	4.320839	7.238718	8.187780	22.515326	27.246994	-2.060100	4.578000	-2.151660	0.750547	-0.344054	0.539244	-1.000000	-1.000000	-1.000000	-1.000000	-1.000000	-1.000000	-1.000000	81.862069	0.000000	-1.000000	-1.000000	714271.000000	1774905363.107189
19700.370000	-8867.205000	14522.580000	27967.950000	11281.095000	-42995.430000	-36600.345000	-19604.565000	24.119990	24.588857	32.828402	31.013465	29.512314	29.088023	29.956175	43.955295	-2.060100	4.578000	-2.151660	0.750547	-0.344054	0.539244	-1.000000	-1.000000	-1.000000	-1.000000	-1.000000	-1.000000	-1.000000	81.862069	0.000000	-1.000000	-1.000000	714272.000000	1774905363.107195
19710.225000	-8852.355000	14507.685000	27951.075000	11272.545000	-43003.395000	-36607.230000	-19628.820000	29.954884	29.919644	52.268107	44.054167	39.021580	37.729516	23.915128	40.365018	-2.060100	4.578000	-2.151660	0.750547	-0.344054	0.539244	-1.000000	-1.000000	-1.000000	-1.000000	-1.000000	-1.000000	-1.000000	81.862069	0.000000	-1.000000	-1.000000	714273.000000	1774905363.111142
19703.610000	-8842.230000	14497.965000	27960.435000	11284.335000	-42994.845000	-36607.275000	-19635.975000	27.805668	25.916127	49.884517	41.410690	36.540886	35.431721	13.515679	25.130203	-2.060100	4.578000	-2.151660	0.750547	-0.344054	0.539244	-1.000000	-1.000000	-1.000000	-1.000000	-1.000000	-1.000000	-1.000000	81.862069	0.000000	-1.000000	-1.000000	714274.000000	1774905363.111152
19686.420000	-8838.540000	14511.465000	27984.420000	11306.835000	-42974.055000	-36592.020000	-19618.830000	21.605900	20.463217	32.263023	29.802110	28.411094	27.878965	6.557806	10.304723	-2.060100	4.578000	-2.151660	0.750547	-0.344054	0.539244	-1.000000	-1.000000	-1.000000	-1.000000	-1.000000	-1.000000	-1.000000	81.862069	0.000000	-1.000000	-1.000000	714275.000000	1774905363.116471
19707.930000	-8818.560000	14562.945000	28006.605000	11322.135000	-42960.105000	-36574.830000	-19579.950000	12.304091	15.467133	10.310541	15.733074	18.213822	17.901146	2.825485	0.785952	-2.060100	4.578000	-2.151660	0.750547	-0.344054	0.539244	-1.000000	-1.000000	-1.000000	-1.000000	-1.000000	-1.000000	-1.000000	81.862069	0.000000	-1.000000	-1.000000	714276.000000	1774905363.116481
19734.840000	-8782.605000	14589.360000	28027.890000	11338.740000	-42944.490000	-36555.615000	-19530.360000	0.062527	8.063298	-7.366411	1.357174	5.174892	4.642930	-2.104152	-5.315322	-2.060100	4.578000	-2.151660	0.750547	-0.344054	0.539244	-1.000000	-1.000000	-1.000000	-1.000000	-1.000000	-1.000000	-1.000000	81.862069	0.000000	-1.000000	-1.000000	714277.000000	1774905363.119139
19745.505000	-8794.755000	14570.055000	28011.105000	11324.970000	-42957.990000	-36573.255000	-19535.085000	-12.740485	-3.391398	-18.620941	-13.296422	-10.958088	-11.699594	-10.109836	-11.563715	-2.060100	4.578000	-2.151660	0.750547	-0.344054	0.539244	-1.000000	-1.000000	-1.000000	-1.000000	-1.000000	-1.000000	-1.000000	81.862069	0.000000	-1.000000	-1.000000	714278.000000	1774905363.119149
19735.965000	-8839.710000	14506.920000	27959.580000	11280.195000	-43003.170000	-36619.290000	-19586.025000	-23.324462	-18.619649	-29.000759	-28.759610	-28.120796	-28.453907	-19.835777	-21.027392	-2.060100	4.578000	-2.151660	0.750547	-0.344054	0.539244	-1.000000	-1.000000	-1.000000	-1.000000	-1.000000	-1.000000	-1.000000	81.862069	0.000000	-1.000000	-1.000000	714279.000000	1774905363.123127
19683.585000	-8874.945000	14465.295000	27925.470000	11248.380000	-43033.050000	-36639.945000	-19635.435000	-30.786660	-35.024748	-43.314766	-44.117683	-43.063870	-42.219932	-28.693334	-34.038762	-2.060100	4.578000	-2.151660	0.750547	-0.344054	0.539244	-1.000000	-1.000000	-1.000000	-1.000000	-1.000000	-1.000000	-1.000000	81.862069	0.000000	-1.000000	-1.000000	714280.000000	1774905363.123137
19706.940000	-8836.425000	14506.155000	27961.785000	11279.430000	-43002.630000	-36620.280000	-19595.340000	-33.874702	-44.597855	-54.106155	-52.028087	-49.251150	-47.187716	-31.588047	-43.206369	-1.113980	5.753020	-3.128300	0.751280	-0.345275	0.540404	-1.000000	-1.000000	-1.000000	-1.000000	-1.000000	-1.000000	-1.000000	81.862069	0.000000	-1.000000	-1.000000	714281.000000	1774905363.128569
19720.485000	-8819.460000	14557.680000	27999.585000	11312.685000	-42969.870000	-36621.495000	-19599.075000	-27.998388	-37.403356	-45.119473	-40.927459	-37.937341	-35.597274	-22.224739	-35.914527	-1.113980	5.753020	-3.128300	0.751280	-0.345275	0.540404	-1.000000	-1.000000	-1.000000	-1.000000	-1.000000	-1.000000	-1.000000	81.862069	0.000000	-1.000000	-1.000000	714282.000000	1774905363.128581
19740.240000	-8805.420000	14571.045000	28012.095000	11326.050000	-42957.630000	-36620.685000	-19599.255000	-9.733169	-12.155638	-10.464089	-8.580638	-8.151985	-6.727184	-0.779071	-8.757838	-1.113980	5.753020	-3.128300	0.751280	-0.345275	0.540404	-1.000000	-1.000000	-1.000000	-1.000000	-1.000000	-1.000000	-1.000000	81.862069	0.000000	-1.000000	-1.000000	714283.000000	1774905363.131135
19712.700000	-8824.725000	14532.525000	27980.505000	11296.215000	-42985.665000	-36616.770000	-19605.420000	15.420714	19.358477	33.621302	29.858891	26.620515	26.564810	22.696245	24.863920	-1.113980	5.753020	-3.128300	0.751280	-0.345275	0.540404	-1.000000	-1.000000	-1.000000	-1.000000	-1.000000	-1.000000	-1.000000	81.862069	0.000000	-1.000000	-1.000000	714284.000000	1774905363.131140
19663.110000	-8877.105000	14484.915000	27939.735000	11260.035000	-43019.910000	-36601.425000	-19631.430000	33.371087	39.257572	59.851485	51.838931	46.534077	45.325571	35.654839	44.918304	-1.113980	5.753020	-3.128300	0.751280	-0.345275	0.540404	-1.000000	-1.000000	-1.000000	-1.000000	-1.000000	-1.000000	-1.000000	81.862069	0.000000	-1.000000	-1.000000	714285.000000	1774905363.136133
19669.635000	-8885.745000	14475.600000	27930.510000	11250.855000	-43028.145000	-36593.550000	-19624.410000	32.515840	36.240274	52.865760	45.600569	41.216160	39.713114	32.688906	40.335832	-1.113980	5.753020	-3.128300	0.751280	-0.345275	0.540404	-1.000000	-1.000000	-1.000000	-1.000000	-1.000000	-1.000000	-1.000000	81.862069	0.000000	-1.000000	-1.000000	714286.000000	1774905363.136146
19674.810000	-8862.480000	14501.070000	27954.090000	11271.420000	-43008.660000	-36599.715000	-19621.845000	14.996710	15.226189	21.333952	19.108781	17.848152	16.836707	18.062710	17.039487	-1.113980	5.753020	-3.128300	0.751280	-0.345275	0.540404	-1.000000	-1.000000	-1.000000	-1.000000	-1.000000	-1.000000	-1.000000	81.862069	0.000000	-1.000000	-1.000000	714287.000000	1774905363.140184
19658.340000	-8855.640000	14518.395000	27976.185000	11297.295000	-42979.995000	-36601.605000	-19632.915000	-5.847439	-6.587527	-11.196164	-7.712422	-5.731842	-5.916193	0.976635	-7.783680	-1.113980	5.753020	-3.128300	0.751280	-0.345275	0.540404	-1.000000	-1.000000	-1.000000	-1.000000	-1.000000	-1.000000	-1.000000	81.862069	0.000000	-1.000000	-1.000000	714288.000000	1774905363.140194
19689.615000	-8851.500000	14514.120000	27968.985000	11288.835000	-42987.870000	-36598.950000	-19620.855000	-17.061079	-15.194368	-26.072322	-19.643205	-16.019144	-15.541324	-10.991092	-19.719315	-1.113980	5.753020	-3.128300	0.751280	-0.345275	0.540404	-1.000000	-1.000000	-1.000000	-1.000000	-1.000000	-1.000000	-1.000000	81.862069	0.000000	-1.000000	-1.000000	714289.000000	1774905363.145020
19717.470000	-8848.665000	14502.960000	27958.410000	11278.035000	-42999.345000	-36602.280000	-19606.185000	-13.687025	-10.011386	-21.689858	-16.203345	-12.976575	-12.354956	-15.280768	-15.639003	-1.113980	5.753020	-3.128300	0.751280	-0.345275	0.540404	-1.000000	-1.000000	-1.000000	-1.000000	-1.000000	-1.000000	-1.000000	81.862069	0.000000	-1.000000	-1.000000	714290.000000	1774905363.145031
19719.765000	-8845.830000	14474.520000	27949.005000	11273.535000	-43003.620000	-36602.235000	-19598.265000	-0.325341	0.113524	-9.457190	-7.115180	-5.588225	-5.356286	-13.346837	-1.954159	-1.724380	5.234180	-2.929920	0.751707	-0.348998	0.544371	-1.000000	-1.000000	-1.000000	-1.000000	-1.000000	-1.000000	-1.000000	81.862069	0.000000	-1.000000	-1.000000	714291.000000	1774905363.154419
19729.575000	-8838.585000	14446.980000	27948.960000	11287.260000	-42986.700000	-36592.785000	-19604.385000	13.025458	6.959351	-0.910552	-0.889046	-0.959556	-1.275157	-8.120424	11.386134	-1.724380	5.234180	-2.929920	0.751707	-0.348998	0.544371	-1.000000	-1.000000	-1.000000	-1.000000	-1.000000	-1.000000	-1.000000	81.862069	0.000000	-1.000000	-1.000000	714292.000000	1774905363.154428
19726.920000	-8828.460000	14466.645000	27964.125000	11301.390000	-42975.765000	-36587.205000	-19602.450000	18.636120	8.221771	1.251257	1.286092	0.728485	0.090331	-2.674896	16.312118	-1.724380	5.234180	-2.929920	0.751707	-0.348998	0.544371	-1.000000	-1.000000	-1.000000	-1.000000	-1.000000	-1.000000	-1.000000	81.862069	0.000000	-1.000000	-1.000000	714293.000000	1774905363.154438
19676.385000	-8828.730000	14515.560000	27977.220000	11295.405000	-42986.205000	-36600.930000	-19595.655000	14.241770	6.057138	2.463011	2.899173	2.393735	1.594912	0.275429	10.709493	-1.724380	5.234180	-2.929920	0.751707	-0.348998	0.544371	-1.000000	-1.000000	-1.000000	-1.000000	-1.000000	-1.000000	-1.000000	81.862069	0.000000	-1.000000	-1.000000	714294.000000	1774905363.154443
19707.750000	-8817.570000	14566.545000	28000.035000	11311.425000	-42972.975000	-36600.840000	-19566.720000	1.761966	2.721191	8.068551	5.935124	4.557789	3.509579	-0.267506	-0.914329	-1.724380	5.234180	-2.929920	0.751707	-0.348998	0.544371	-1.000000	-1.000000	-1.000000	-1.000000	-1.000000	-1.000000	-1.000000	81.862069	0.000000	-1.000000	-1.000000	714295.000000	1774905363.155059
19771.830000	-8767.215000	14621.445000	28050.615000	11359.395000	-42926.940000	-36575.910000	-19539.855000	-11.635127	-0.661089	16.736077	8.974137	5.707475	4.436093	-1.851522	-10.657813	-1.724380	5.234180	-2.929920	0.751707	-0.348998	0.544371	-1.000000	-1.000000	-1.000000	-1.000000	-1.000000	-1.000000	-1.000000	81.862069	0.000000	-1.000000	-1.000000	714296.000000	1774905363.155068
19843.740000	-8718.660000	14652.045000	28080.720000	11386.935000	-42898.860000	-36540.000000	-19493.235000	-15.644540	-2.028989	22.437587	10.147930	5.531597	4.411191	-0.205786	-12.064273	-1.724380	5.234180	-2.929920	0.751707	-0.348998	0.544371	-1.000000	-1.000000	-1.000000	-1.000000	-1.000000	-1.000000	-1.000000	81.862069	0.000000	-1.000000	-1.000000	714297.000000	1774905363.159095
19820.025000	-8740.665000	14617.980000	28055.385000	11367.135000	-42916.905000	-36535.995000	-19487.880000	-7.558901	-0.544720	19.426560	8.179552	4.227924	3.809611	5.733365	-4.941580	-1.724380	5.234180	-2.929920	0.751707	-0.348998	0.544371	-1.000000	-1.000000	-1.000000	-1.000000	-1.000000	-1.000000	-1.000000	81.862069	0.000000	-1.000000	-1.000000	714298.000000	1774905363.159110
19819.170000	-8736.975000	14624.730000	28071.810000	11387.610000	-42897.915000	-36527.715000	-19471.590000	3.097847	0.293889	5.774948	2.043753	1.045567	1.754373	11.963567	4.177471	-1.724380	5.234180	-2.929920	0.751707	-0.348998	0.544371	-1.000000	-1.000000	-1.000000	-1.000000	-1.000000	-1.000000	-1.000000	81.862069	0.000000	-1.000000	-1.000000	714299.000000	1774905363.163169
19761.660000	-8798.580000	14559.345000	28005.030000	11319.300000	-42965.955000	-36586.710000	-19571.265000	5.091926	-3.694704	-14.062320	-7.604666	-4.694928	-2.910432	12.544912	6.876438	-1.724380	5.234180	-2.929920	0.751707	-0.348998	0.544371	-1.000000	-1.000000	-1.000000	-1.000000	-1.000000	-1.000000	-1.000000	81.862069	0.000000	-1.000000	-1.000000	714300.000000	1774905363.163179
19666.665000	-8879.490000	14477.895000	27925.605000	11241.945000	-43038.495000	-36650.250000	-19683.405000	-4.882291	-13.445238	-32.376148	-19.083879	-13.644495	-11.350775	3.314511	-2.569831	-0.289940	5.264700	-1.922760	0.751280	-0.354308	0.545592	-1.000000	-1.000000	-1.000000	-1.000000	-1.000000	-1.000000	-1.000000	81.862069	0.000000	-1.000000	-1.000000	714301.000000	1774905363.167183
19569.330000	-8958.240000	14399.370000	27848.430000	11166.525000	-43109.955000	-36705.105000	-19737.765000	-21.945931	-26.004397	-43.992674	-30.319179	-24.945225	-22.722427	-14.208472	-22.217190	-0.289940	5.264700	-1.922760	0.751280	-0.354308	0.545592	-1.000000	-1.000000	-1.000000	-1.000000	-1.000000	-1.000000	-1.000000	81.862069	0.000000	-1.000000	-1.000000	714302.000000	1774905363.167192
19579.905000	-8935.020000	14422.410000	27882.360000	11201.220000	-43078.860000	-36672.930000	-19697.445000	-34.997475	-33.712274	-45.790234	-35.956191	-32.247051	-30.391950	-30.189387	-39.157604	-0.289940	5.264700	-1.922760	0.751280	-0.354308	0.545592	-1.000000	-1.000000	-1.000000	-1.000000	-1.000000	-1.000000	-1.000000	81.862069	0.000000	-1.000000	-1.000000	714303.000000	1774905363.173512
19680.345000	-8883.945000	14449.185000	27924.705000	11252.205000	-43028.145000	-36620.325000	-19623.825000	-31.452293	-27.109609	-34.286372	-28.172130	-26.007776	-24.817533	-31.286607	-36.889011	-0.289940	5.264700	-1.922760	0.751280	-0.354308	0.545592	-1.000000	-1.000000	-1.000000	-1.000000	-1.000000	-1.000000	-1.000000	81.862069	0.000000	-1.000000	-1.000000	714304.000000	1774905363.173525
19745.775000	-8842.275000	14464.935000	27959.985000	11290.365000	-42988.815000	-36575.595000	-19561.095000	-6.965887	-3.834646	-9.494783	-5.054823	-3.648817	-3.518860	-12.336651	-9.673508	-0.289940	5.264700	-1.922760	0.751280	-0.354308	0.545592	-1.000000	-1.000000	-1.000000	-1.000000	-1.000000	-1.000000	-1.000000	81.862069	0.000000	-1.000000	-1.000000	714305.000000	1774905363.185421
19726.020000	-8815.860000	14549.220000	27995.625000	11309.670000	-42972.570000	-36573.795000	-19562.760000	27.393144	26.588478	22.141051	24.841030	25.464541	24.305634	16.940843	29.920492	-0.289940	5.264700	-1.922760	0.751280	-0.354308	0.545592	-1.000000	-1.000000	-1.000000	-1.000000	-1.000000	-1.000000	-1.000000	81.862069	0.000000	-1.000000	-1.000000	714306.000000	1774905363.185442
19688.490000	-8829.090000	14546.070000	27974.835000	11287.710000	-42995.385000	-36613.260000	-19617.075000	51.058470	48.994608	50.845512	47.928563	46.454317	44.115758	38.439241	58.042537	-0.289940	5.264700	-1.922760	0.751280	-0.354308	0.545592	-1.000000	-1.000000	-1.000000	-1.000000	-1.000000	-1.000000	-1.000000	81.862069	0.000000	-1.000000	-1.000000	714307.000000	1774905363.185465
19659.420000	-8868.150000	14479.335000	27931.095000	11250.495000	-43030.170000	-36657.855000	-19684.890000	50.158760	52.060829	64.886855	52.738446	48.122298	45.197014	39.015944	56.827689	-0.289940	5.264700	-1.922760	0.751280	-0.354308	0.545592	-1.000000	-1.000000	-1.000000	-1.000000	-1.000000	-1.000000	-1.000000	81.862069	0.000000	-1.000000	-1.000000	714308.000000	1774905363.185476
19661.580000	-8860.140000	14472.945000	27940.410000	11266.020000	-43015.860000	-36647.640000	-19711.530000	28.139489	35.161715	55.876383	37.151101	30.523012	27.991691	20.320362	28.727241	-0.289940	5.264700	-1.922760	0.751280	-0.354308	0.545592	-1.000000	-1.000000	-1.000000	-1.000000	-1.000000	-1.000000	-1.000000	81.862069	0.000000	-1.000000	-1.000000	714309.000000	1774905363.185488
19683.270000	-8847.270000	14487.885000	27957.600000	11285.820000	-42996.690000	-36623.070000	-19672.515000	2.111272	9.802152	28.892959	12.093853	6.366282	4.972715	-2.591626	-5.156468	-0.289940	5.264700	-1.922760	0.751280	-0.354308	0.545592	-1.000000	-1.000000	-1.000000	-1.000000	-1.000000	-1.000000	-1.000000	81.862069	0.000000	-1.000000	-1.000000	714310.000000	1774905363.185497
19703.700000	-8851.050000	14468.310000	27946.305000	11271.825000	-43008.705000	-36607.005000	-19596.780000	-11.438776	-9.841661	-1.375873	-8.134694	-10.364493	-10.482594	-14.651137	-22.783375	-0.320460	3.860780	-2.929920	0.752378	-0.353332	0.547240	-1.000000	-1.000000	-1.000000	-1.000000	-1.000000	-1.000000	-1.000000	81.862069	0.000000	-1.000000	-1.000000	714311.000000	1774905363.187806
19721.700000	-8836.065000	14496.570000	27954.045000	11267.235000	-43012.620000	-36605.430000	-19547.595000	-10.464557	-19.008290	-24.458590	-18.887256	-17.151891	-16.137750	-13.443282	-18.590849	-0.320460	3.860780	-2.929920	0.752378	-0.353332	0.547240	-1.000000	-1.000000	-1.000000	-1.000000	-1.000000	-1.000000	-1.000000	81.862069	0.000000	-1.000000	-1.000000	714312.000000	1774905363.187816
19703.610000	-8848.890000	14537.745000	27978.300000	11292.615000	-42986.295000	-36608.130000	-19587.420000	-7.379042	-22.597140	-36.909267	-24.081296	-20.346407	-18.414969	-8.019234	-5.602147	-0.320460	3.860780	-2.929920	0.752378	-0.353332	0.547240	-1.000000	-1.000000	-1.000000	-1.000000	-1.000000	-1.000000	-1.000000	81.862069	0.000000	-1.000000	-1.000000	714313.000000	1774905363.193990
19710.765000	-8860.680000	14487.795000	27950.445000	11271.780000	-43006.095000	-36627.390000	-19605.735000	-13.657562	-26.237084	-38.923867	-27.219086	-23.982818	-21.605119	-7.503388	-1.556559	-0.320460	3.860780	-2.929920	0.752378	-0.353332	0.547240	-1.000000	-1.000000	-1.000000	-1.000000	-1.000000	-1.000000	-1.000000	81.862069	0.000000	-1.000000	-1.000000	714314.000000	1774905363.194026
19707.885000	-8867.250000	14438.340000	27924.210000	11253.645000	-43022.880000	-36623.970000	-19603.530000	-26.110014	-29.558782	-34.893917	-28.350864	-26.259165	-24.115850	-12.379259	-11.176845	-0.320460	3.860780	-2.929920	0.752378	-0.353332	0.547240	-1.000000	-1.000000	-1.000000	-1.000000	-1.000000	-1.000000	-1.000000	81.862069	0.000000	-1.000000	-1.000000	714315.000000	1774905363.197968
19690.155000	-8865.990000	14446.395000	27919.485000	11251.260000	-43023.285000	-36613.935000	-19608.075000	-31.696508	-26.857506	-28.395409	-24.859669	-22.871645	-21.517670	-15.125108	-22.817453	-0.320460	3.860780	-2.929920	0.752378	-0.353332	0.547240	-1.000000	-1.000000	-1.000000	-1.000000	-1.000000	-1.000000	-1.000000	81.862069	0.000000	-1.000000	-1.000000	714316.000000	1774905363.197975
19683.135000	-8845.470000	14515.920000	27950.355000	11271.330000	-43007.130000	-36616.365000	-19620.765000	-22.651161	-13.391212	-15.214017	-13.005244	-10.747135	-10.498226	-8.779743	-22.356531	-0.320460	3.860780	-2.929920	0.752378	-0.353332	0.547240	-1.000000	-1.000000	-1.000000	-1.000000	-1.000000	-1.000000	-1.000000	81.862069	0.000000	-1.000000	-1.000000	714317.000000	1774905363.199056
19709.100000	-8826.795000	14566.545000	27977.760000	11283.030000	-43002.090000	-36623.115000	-19616.580000	-2.245783	8.699447	9.422307	7.237769	8.149023	7.066522	4.901806	-6.939485	-0.320460	3.860780	-2.929920	0.752378	-0.353332	0.547240	-1.000000	-1.000000	-1.000000	-1.000000	-1.000000	-1.000000	-1.000000	81.862069	0.000000	-1.000000	-1.000000	714318.000000	1774905363.199066
19705.770000	-8835.300000	14548.860000	27987.435000	11293.830000	-42991.200000	-36611.640000	-19597.905000	19.839494	29.975059	38.153517	28.630291	26.124332	23.684024	17.073900	13.564490	-0.320460	3.860780	-2.929920	0.752378	-0.353332	0.547240	-1.000000	-1.000000	-1.000000	-1.000000	-1.000000	-1.000000	-1.000000	81.862069	0.000000	-1.000000	-1.000000	714319.000000	1774905363.216850
19662.165000	-8851.680000	14542.605000	28003.050000	11315.745000	-42971.895000	-36592.470000	-19600.470000	32.301202	39.049945	53.639468	40.404169	34.824882	31.602050	20.520441	24.841859	-0.320460	3.860780	-2.929920	0.752378	-0.353332	0.547240	-1.000000	-1.000000	-1.000000	-1.000000	-1.000000	-1.000000	-1.000000	81.862069	0.000000	-1.000000	-1.000000	714320.000000	1774905363.216862
19677.420000	-8836.785000	14545.620000	27999.180000	11317.185000	-42968.250000	-36584.730000	-19592.280000	27.598423	30.355802	43.665378	35.460728	30.200754	27.379291	14.539013	19.359689	-4.227020	3.143560	-1.983800	0.750181	-0.346740	0.550902	-1.000000	-1.000000	-1.000000	-1.000000	-1.000000	-1.000000	-1.000000	81.862069	0.000000	-1.000000	-1.000000	714321.000000	1774905363.216875
19730.880000	-8813.880000	14554.755000	28003.545000	11322.540000	-42958.980000	-36584.235000	-19564.020000	9.581258	9.158710	12.182590	14.997122	13.735893	12.572864	3.267683	2.959340	-4.227020	3.143560	-1.983800	0.750181	-0.346740	0.550902	-1.000000	-1.000000	-1.000000	-1.000000	-1.000000	-1.000000	-1.000000	81.862069	0.000000	-1.000000	-1.000000	714322.000000	1774905363.216880
19762.245000	-8807.130000	14552.145000	28004.580000	11322.945000	-42956.730000	-36579.780000	-19577.205000	-7.909077	-11.994033	-22.914423	-10.926334	-7.328266	-6.151669	-7.518220	-11.033819	-4.227020	3.143560	-1.983800	0.750181	-0.346740	0.550902	-1.000000	-1.000000	-1.000000	-1.000000	-1.000000	-1.000000	-1.000000	81.862069	0.000000	-1.000000	-1.000000	714323.000000	1774905363.216886
19761.705000	-8815.185000	14543.595000	27998.190000	11317.410000	-42961.500000	-36576.675000	-19579.005000	-13.701063	-23.011200	-42.734096	-28.961548	-22.879788	-19.718913	-13.066784	-14.410692	-4.227020	3.143560	-1.983800	0.750181	-0.346740	0.550902	-1.000000	-1.000000	-1.000000	-1.000000	-1.000000	-1.000000	-1.000000	81.862069	0.000000	-1.000000	-1.000000	714324.000000	1774905363.216891
19694.520000	-8866.395000	14495.670000	27947.970000	11268.945000	-43007.220000	-36598.950000	-19588.500000	-8.471757	-22.538370	-40.875232	-32.267009	-27.220682	-23.361918	-12.129764	-7.995038	-4.227020	3.143560	-1.983800	0.750181	-0.346740	0.550902	-1.000000	-1.000000	-1.000000	-1.000000	-1.000000	-1.000000	-1.000000	81.862069	0.000000	-1.000000	-1.000000	714325.000000	1774905363.216897
19674.720000	-8876.520000	14477.445000	27924.435000	11252.430000	-43019.460000	-36604.665000	-19603.890000	-1.687070	-16.206418	-25.735766	-24.591215	-22.596771	-19.415080	-7.223703	2.569613	-4.227020	3.143560	-1.983800	0.750181	-0.346740	0.550902	-1.000000	-1.000000	-1.000000	-1.000000	-1.000000	-1.000000	-1.000000	81.862069	0.000000	-1.000000	-1.000000	714326.000000	1774905363.216902
19709.955000	-8834.445000	14498.460000	27962.055000	11289.150000	-42984.135000	-36580.230000	-19569.465000	-0.306160	-8.863760	-9.221887	-13.196740	-13.730577	-11.923481	-1.540947	10.867845	-4.227020	3.143560	-1.983800	0.750181	-0.346740	0.550902	-1.000000	-1.000000	-1.000000	-1.000000	-1.000000	-1.000000	-1.000000	81.862069	0.000000	-1.000000	-1.000000	714327.000000	1774905363.220532
19812.195000	-8721.270000	14598.990000	28072.575000	11397.780000	-42879.465000	-36490.950000	-19451.880000	-1.000003	1.052487	5.475220	0.145384	-1.294992	-1.041804	4.271311	14.135159	-4.227020	3.143560	-1.983800	0.750181	-0.346740	0.550902	-1.000000	-1.000000	-1.000000	-1.000000	-1.000000	-1.000000	-1.000000	81.862069	0.000000	-1.000000	-1.000000	714328.000000	1774905363.220541
19802.520000	-8731.485000	14589.405000	28057.185000	11391.795000	-42887.835000	-36511.560000	-19490.400000	3.345162	15.579055	20.620685	16.055906	14.639511	13.250335	10.246168	13.482006	-4.227020	3.143560	-1.983800	0.750181	-0.346740	0.550902	-1.000000	-1.000000	-1.000000	-1.000000	-1.000000	-1.000000	-1.000000	81.862069	0.000000	-1.000000	-1.000000	714329.000000	1774905363.223059
19714.545000	-8835.615000	14481.540000	27951.435000	11290.095000	-42986.790000	-36602.505000	-19612.845000	9.508849	26.311384	30.712206	27.165175	25.918088	23.054718	11.735089	6.619144	-4.227020	3.143560	-1.983800	0.750181	-0.346740	0.550902	-1.000000	-1.000000	-1.000000	-1.000000	-1.000000	-1.000000	-1.000000	81.862069	0.000000	-1.000000	-1.000000	714330.000000	1774905363.223066
19619.505000	-8939.565000	14414.580000	27863.910000	11181.735000	-43098.390000	-36678.960000	-19682.190000	4.639899	18.875033	24.404424	21.425022	19.998731	16.352571	2.133301	-10.946968	-7.797860	2.243220	-1.693860	0.748472	-0.345519	0.551146	-1.000000	-1.000000	-1.000000	-1.000000	-1.000000	-1.000000	-1.000000	81.862069	0.000000	-1.000000	-1.000000	714331.000000	1774905363.227289
19652.490000	-8884.980000	14503.230000	27932.760000	11247.975000	-43034.580000	-36640.755000	-19628.955000	-14.694527	-7.233564	3.018313	-0.437327	-2.949921	-6.404325	-15.760504	-32.648175	-7.797860	2.243220	-1.693860	0.748472	-0.345519	0.551146	-1.000000	-1.000000	-1.000000	-1.000000	-1.000000	-1.000000	-1.000000	81.862069	0.000000	-1.000000	-1.000000	714332.000000	1774905363.227295
19673.685000	-8826.075000	14551.245000	27989.550000	11302.605000	-42981.795000	-36619.830000	-19614.465000	-32.518048	-31.305633	-14.814176	-19.641522	-23.755048	-26.191516	-27.579726	-40.538407	-7.797860	2.243220	-1.693860	0.748472	-0.345519	0.551146	-1.000000	-1.000000	-1.000000	-1.000000	-1.000000	-1.000000	-1.000000	81.862069	0.000000	-1.000000	-1.000000	714333.000000	1774905363.231144
19713.555000	-8794.350000	14566.410000	28006.470000	11319.660000	-42963.795000	-36602.730000	-19582.965000	-28.932717	-31.039009	-13.336546	-18.109379	-22.791785	-23.731548	-21.075639	-23.673521	-7.797860	2.243220	-1.693860	0.748472	-0.345519	0.551146	-1.000000	-1.000000	-1.000000	-1.000000	-1.000000	-1.000000	-1.000000	81.862069	0.000000	-1.000000	-1.000000	714334.000000	1774905363.231149
19742.265000	-8791.425000	14577.435000	28015.470000	11329.290000	-42954.255000	-36584.460000	-19583.370000	-1.381726	-5.728289	3.668460	2.401498	-0.688532	0.002495	1.515556	9.983881	-7.797860	2.243220	-1.693860	0.748472	-0.345519	0.551146	-1.000000	-1.000000	-1.000000	-1.000000	-1.000000	-1.000000	-1.000000	81.862069	0.000000	-1.000000	-1.000000	714335.000000	1774905363.235032
19700.100000	-8851.815000	14533.425000	27984.780000	11300.715000	-42981.030000	-36581.580000	-19617.165000	31.364845	23.050015	18.504870	22.720896	23.097778	25.272665	25.324706	38.755568	-7.797860	2.243220	-1.693860	0.748472	-0.345519	0.551146	-1.000000	-1.000000	-1.000000	-1.000000	-1.000000	-1.000000	-1.000000	81.862069	0.000000	-1.000000	-1.000000	714336.000000	1774905363.235046
19661.805000	-8892.630000	14481.360000	27931.005000	11248.155000	-43033.590000	-36619.470000	-19652.895000	44.389985	30.946096	15.281675	23.443416	27.665349	30.940160	33.846097	42.520416	-7.797860	2.243220	-1.693860	0.748472	-0.345519	0.551146	-1.000000	-1.000000	-1.000000	-1.000000	-1.000000	-1.000000	-1.000000	81.862069	0.000000	-1.000000	-1.000000	714337.000000	1774905363.241618
19651.905000	-8884.170000	14476.545000	27921.735000	11236.950000	-43045.920000	-36637.920000	-19654.425000	28.865146	13.334241	-6.047723	2.429666	8.873147	12.522532	21.814017	20.483798	-7.797860	2.243220	-1.693860	0.748472	-0.345519	0.551146	-1.000000	-1.000000	-1.000000	-1.000000	-1.000000	-1.000000	-1.000000	81.862069	0.000000	-1.000000	-1.000000	714338.000000	1774905363.241641
19683.405000	-8860.725000	14499.540000	27948.195000	11266.290000	-43014.735000	-36620.730000	-19635.570000	0.125376	-10.332425	-27.106577	-21.442018	-15.513013	-12.575988	0.733562	-6.582223	-7.797860	2.243220	-1.693860	0.748472	-0.345519	0.551146	-1.000000	-1.000000	-1.000000	-1.000000	-1.000000	-1.000000	-1.000000	81.862069	0.000000	-1.000000	-1.000000	714339.000000	1774905363.247440
19690.830000	-8863.020000	14489.910000	27938.790000	11259.360000	-43019.055000	-36624.690000	-19636.290000	-18.673386	-17.910222	-29.085032	-27.101332	-23.479287	-22.153944	-12.450497	-17.531718	-7.797860	2.243220	-1.693860	0.748472	-0.345519	0.551146	-1.000000	-1.000000	-1.000000	-1.000000	-1.000000	-1.000000	-1.000000	81.862069	0.000000	-1.000000	-1.000000	714340.000000	1774905363.247457
19697.670000	-8866.530000	14485.005000	27933.120000	11254.005000	-43025.445000	-36626.580000	-19628.190000	-18.419382	-7.162869	-12.717698	-13.186264	-11.856887	-12.247020	-12.299011	-10.352451	-1.236060	2.365300	-1.571780	0.747740	-0.348937	0.548033	-1.000000	-1.000000	-1.000000	-1.000000	-1.000000	-1.000000	-1.000000	81.862069	0.000000	-1.000000	-1.000000	714341.000000	1774905363.247479
19699.335000	-8865.360000	14489.415000	27940.050000	11261.880000	-43017.930000	-36617.760000	-19621.350000	-6.985737	7.136154	6.457983	5.018194	4.776196	3.200132	-5.747913	2.303325	-1.236060	2.365300	-1.571780	0.747740	-0.348937	0.548033	-1.000000	-1.000000	-1.000000	-1.000000	-1.000000	-1.000000	-1.000000	81.862069	0.000000	-1.000000	-1.000000	714342.000000	1774905363.247490
