Channel1	Channel2	Channel3	Channel4	Channel5	Channel6	Channel7	Channel8	FilteredChannel1	FilteredChannel2	FilteredChannel3	FilteredChannel4	FilteredChannel5	FilteredChannel6	FilteredChannel7	FilteredChannel8	GyroX	GyroY	GyroZ	AccX	AccY	AccZ	PPG1	PPG2	rawPPG1	rawPPG2	rawPPG3	Hr	Hrv	Battery	Trigger	PhysicalTrigger	AutoTrigger	NumMeasurements	Timestamp
-22144.005000	-16242.615000	-20663.640000	-14488.380000	-25227.360000	-15363.765000	-1508.895000	-10118.205000	-15.355861	-7.785116	-3.700417	0.202425	1.049840	1.756595	1.603710	-0.003882	-1.571780	6.714400	2.121140	0.918394	-0.214355	0.326903	-1.000000	-1.000000	-1.000000	-1.000000	-1.000000	-1.000000	-1.000000	69.931034	0.000000	-1.000000	-1.000000	2550852.000000	1770066599.184572
-22130.505000	-16243.785000	-20670.345000	-14498.775000	-25238.745000	-15374.745000	-1511.190000	-10101.870000	-9.389602	-5.934780	-3.689253	-0.399948	-0.661819	0.291069	0.918247	0.411158	-1.571780	6.714400	2.121140	0.918394	-0.214355	0.326903	-1.000000	-1.000000	-1.000000	-1.000000	-1.000000	-1.000000	-1.000000	69.931034	0.000000	-1.000000	-1.000000	2550853.000000	1770066599.187293
-22112.910000	-16251.930000	-20679.345000	-14507.370000	-25246.080000	-15381.585000	-1512.135000	-10094.130000	1.404584	0.839028	-1.779891	-0.682358	-2.294723	-1.428133	-0.047843	1.240633	-1.571780	6.714400	2.121140	0.918394	-0.214355	0.326903	-1.000000	-1.000000	-1.000000	-1.000000	-1.000000	-1.000000	-1.000000	69.931034	0.000000	-1.000000	-1.000000	2550854.000000	1770066599.187302
-22104.810000	-16247.250000	-20680.470000	-14510.340000	-25244.595000	-15378.615000	-1506.915000	-10084.770000	11.459693	8.313373	-0.032367	-1.856697	-3.951438	-3.249781	-0.988033	2.649522	-1.571780	6.714400	2.121140	0.918394	-0.214355	0.326903	-1.000000	-1.000000	-1.000000	-1.000000	-1.000000	-1.000000	-1.000000	69.931034	0.000000	-1.000000	-1.000000	2550855.000000	1770066599.193585
-22101.660000	-16237.845000	-20676.195000	-14508.585000	-25244.415000	-15380.955000	-1509.390000	-10088.865000	15.838408	11.826168	0.466016	-3.583571	-4.716355	-4.221718	-1.575465	3.465587	-1.571780	6.714400	2.121140	0.918394	-0.214355	0.326903	-1.000000	-1.000000	-1.000000	-1.000000	-1.000000	-1.000000	-1.000000	69.931034	0.000000	-1.000000	-1.000000	2550856.000000	1770066599.193592
-22114.080000	-16248.915000	-20681.415000	-14507.865000	-25243.110000	-15381.135000	-1507.320000	-10092.645000	13.531967	10.611654	0.211943	-4.390247	-3.724285	-3.600908	-1.700621	2.535945	-1.571780	6.714400	2.121140	0.918394	-0.214355	0.326903	-1.000000	-1.000000	-1.000000	-1.000000	-1.000000	-1.000000	-1.000000	69.931034	0.000000	-1.000000	-1.000000	2550857.000000	1770066599.194818
-22151.115000	-16268.985000	-20686.815000	-14508.225000	-25241.940000	-15380.505000	-1510.425000	-10115.370000	6.310690	6.057578	-0.068488	-3.211116	-1.086861	-1.508660	-1.378348	-0.190735	-1.571780	6.714400	2.121140	0.918394	-0.214355	0.326903	-1.000000	-1.000000	-1.000000	-1.000000	-1.000000	-1.000000	-1.000000	69.931034	0.000000	-1.000000	-1.000000	2550858.000000	1770066599.194824
-22155.840000	-16267.095000	-20688.480000	-14507.685000	-25239.060000	-15376.320000	-1513.305000	-10132.470000	-3.030860	-0.669859	-0.406785	-0.555148	1.983281	1.144770	-0.719887	-3.830238	-1.571780	6.714400	2.121140	0.918394	-0.214355	0.326903	-1.000000	-1.000000	-1.000000	-1.000000	-1.000000	-1.000000	-1.000000	69.931034	0.000000	-1.000000	-1.000000	2550859.000000	1770066599.200190
-22139.100000	-16245.540000	-20685.420000	-14505.120000	-25229.925000	-15367.545000	-1513.755000	-10137.555000	-10.503616	-7.569918	-1.042434	1.931936	3.952346	3.169713	-0.016264	-6.846770	-1.571780	6.714400	2.121140	0.918394	-0.214355	0.326903	-1.000000	-1.000000	-1.000000	-1.000000	-1.000000	-1.000000	-1.000000	69.931034	0.000000	-1.000000	-1.000000	2550860.000000	1770066599.200199
-22136.220000	-16229.745000	-20669.490000	-14489.460000	-25216.965000	-15358.590000	-1507.995000	-10137.060000	-12.629873	-11.067938	-1.283605	3.387702	4.489041	4.123842	0.594588	-7.728286	0.091560	6.256600	0.106820	0.917539	-0.216308	0.327880	-1.000000	-1.000000	-1.000000	-1.000000	-1.000000	-1.000000	-1.000000	69.931034	0.000000	-1.000000	-1.000000	2550861.000000	1770066599.202795
-22125.240000	-16232.130000	-20654.865000	-14485.455000	-25216.335000	-15357.915000	-1497.915000	-10114.380000	-9.284804	-8.785103	0.314795	4.396110	4.421198	4.372068	1.367967	-5.716285	0.091560	6.256600	0.106820	0.917539	-0.216308	0.327880	-1.000000	-1.000000	-1.000000	-1.000000	-1.000000	-1.000000	-1.000000	69.931034	0.000000	-1.000000	-1.000000	2550862.000000	1770066599.202805
-22115.970000	-16250.040000	-20673.405000	-14503.680000	-25236.945000	-15377.220000	-1504.665000	-10081.260000	-3.240728	-2.503428	3.656068	5.044234	3.751375	3.725173	2.292552	-0.630263	0.091560	6.256600	0.106820	0.917539	-0.216308	0.327880	-1.000000	-1.000000	-1.000000	-1.000000	-1.000000	-1.000000	-1.000000	69.931034	0.000000	-1.000000	-1.000000	2550863.000000	1770066599.209550
-22129.740000	-16272.180000	-20681.595000	-14512.770000	-25253.460000	-15394.050000	-1513.620000	-10076.040000	2.177150	2.784853	5.836209	3.844425	1.124973	1.045507	2.345300	6.416917	0.091560	6.256600	0.106820	0.917539	-0.216308	0.327880	-1.000000	-1.000000	-1.000000	-1.000000	-1.000000	-1.000000	-1.000000	69.931034	0.000000	-1.000000	-1.000000	2550864.000000	1770066599.209557
-22136.220000	-16274.340000	-20675.520000	-14504.580000	-25248.195000	-15389.910000	-1514.430000	-10104.480000	4.816212	3.523504	4.268936	0.125034	-3.622055	-3.595214	0.614567	11.751101	0.091560	6.256600	0.106820	0.917539	-0.216308	0.327880	-1.000000	-1.000000	-1.000000	-1.000000	-1.000000	-1.000000	-1.000000	69.931034	0.000000	-1.000000	-1.000000	2550865.000000	1770066599.210833
-22119.300000	-16236.720000	-20672.595000	-14496.615000	-25237.530000	-15380.730000	-1511.955000	-10111.860000	5.194479	1.584144	0.053899	-3.994478	-7.671434	-7.384237	-2.028330	11.308730	0.091560	6.256600	0.106820	0.917539	-0.216308	0.327880	-1.000000	-1.000000	-1.000000	-1.000000	-1.000000	-1.000000	-1.000000	69.931034	0.000000	-1.000000	-1.000000	2550866.000000	1770066599.210844
-22110.615000	-16221.015000	-20659.815000	-14485.095000	-25227.720000	-15373.665000	-1510.020000	-10108.620000	6.022168	1.977710	-3.442584	-5.543919	-7.675891	-7.204569	-3.557681	5.275383	0.091560	6.256600	0.106820	0.917539	-0.216308	0.327880	-1.000000	-1.000000	-1.000000	-1.000000	-1.000000	-1.000000	-1.000000	69.931034	0.000000	-1.000000	-1.000000	2550867.000000	1770066599.214789
-22119.660000	-16250.265000	-20677.770000	-14502.555000	-25241.445000	-15383.880000	-1508.985000	-10080.900000	8.042348	5.369691	-4.355991	-3.949603	-3.574979	-3.168775	-2.784416	-1.393425	0.091560	6.256600	0.106820	0.917539	-0.216308	0.327880	-1.000000	-1.000000	-1.000000	-1.000000	-1.000000	-1.000000	-1.000000	69.931034	0.000000	-1.000000	-1.000000	2550868.000000	1770066599.214796
-22115.160000	-16261.830000	-20685.555000	-14507.415000	-25243.155000	-15382.620000	-1504.035000	-10065.780000	8.057569	6.329954	-3.822383	-1.536712	1.227547	1.512726	-0.263127	-3.935842	0.091560	6.256600	0.106820	0.917539	-0.216308	0.327880	-1.000000	-1.000000	-1.000000	-1.000000	-1.000000	-1.000000	-1.000000	69.931034	0.000000	-1.000000	-1.000000	2550869.000000	1770066599.220036
-22104.540000	-16250.490000	-20675.610000	-14497.515000	-25232.715000	-15375.330000	-1500.975000	-10061.415000	3.496004	1.307120	-3.630477	-0.525247	3.680005	4.066215	2.329054	-2.307301	0.091560	6.256600	0.106820	0.917539	-0.216308	0.327880	-1.000000	-1.000000	-1.000000	-1.000000	-1.000000	-1.000000	-1.000000	69.931034	0.000000	-1.000000	-1.000000	2550870.000000	1770066599.220048
-22109.445000	-16249.860000	-20672.595000	-14493.915000	-25228.755000	-15370.965000	-1497.555000	-10069.380000	-4.064066	-5.993915	-3.453244	-0.443098	3.926188	4.465746	3.468184	-0.709472	-0.534100	4.333840	-0.503580	0.916013	-0.212524	0.330688	-1.000000	-1.000000	-1.000000	-1.000000	-1.000000	-1.000000	-1.000000	69.931034	0.000000	-1.000000	-1.000000	2550871.000000	1770066599.222825
-22142.745000	-16279.515000	-20685.780000	-14505.120000	-25238.835000	-15380.505000	-1507.230000	-10104.120000	-11.316862	-9.623916	-1.815618	0.433228	3.777191	4.138453	2.711872	-3.423579	-0.534100	4.333840	-0.503580	0.916013	-0.212524	0.330688	-1.000000	-1.000000	-1.000000	-1.000000	-1.000000	-1.000000	-1.000000	69.931034	0.000000	-1.000000	-1.000000	2550872.000000	1770066599.222836
-22153.095000	-16299.180000	-20700.810000	-14521.815000	-25256.565000	-15397.515000	-1516.365000	-10104.840000	-15.574718	-7.965883	1.042263	2.013993	3.626537	3.480465	0.577416	-10.183745	-0.534100	4.333840	-0.503580	0.916013	-0.212524	0.330688	-1.000000	-1.000000	-1.000000	-1.000000	-1.000000	-1.000000	-1.000000	69.931034	0.000000	-1.000000	-1.000000	2550873.000000	1770066599.228224
-22164.030000	-16283.475000	-20695.320000	-14516.865000	-25251.390000	-15393.060000	-1513.530000	-10109.655000	-14.797804	-3.331984	3.187845	2.487431	2.271671	1.657871	-1.934837	-15.079801	-0.534100	4.333840	-0.503580	0.916013	-0.212524	0.330688	-1.000000	-1.000000	-1.000000	-1.000000	-1.000000	-1.000000	-1.000000	69.931034	0.000000	-1.000000	-1.000000	2550874.000000	1770066599.228229
-22153.455000	-16260.030000	-20679.570000	-14502.330000	-25236.180000	-15376.410000	-1505.340000	-10122.705000	-8.495417	1.795895	3.747380	1.280242	-0.467596	-1.185335	-3.450826	-12.373082	-0.534100	4.333840	-0.503580	0.916013	-0.212524	0.330688	-1.000000	-1.000000	-1.000000	-1.000000	-1.000000	-1.000000	-1.000000	69.931034	0.000000	-1.000000	-1.000000	2550875.000000	1770066599.230670
-22101.795000	-16249.815000	-20685.780000	-14511.555000	-25247.205000	-15386.805000	-1512.180000	-10105.290000	2.082133	6.186483	3.480511	-0.231804	-3.015288	-3.423162	-3.010595	-2.529342	-0.534100	4.333840	-0.503580	0.916013	-0.212524	0.330688	-1.000000	-1.000000	-1.000000	-1.000000	-1.000000	-1.000000	-1.000000	69.931034	0.000000	-1.000000	-1.000000	2550876.000000	1770066599.230677
-22099.230000	-16238.115000	-20687.040000	-14517.360000	-25253.235000	-15394.410000	-1517.265000	-10093.140000	14.188617	9.358560	3.036410	-0.826304	-4.078901	-4.078393	-1.213667	9.069332	-0.534100	4.333840	-0.503580	0.916013	-0.212524	0.330688	-1.000000	-1.000000	-1.000000	-1.000000	-1.000000	-1.000000	-1.000000	69.931034	0.000000	-1.000000	-1.000000	2550877.000000	1770066599.234848
-22123.170000	-16243.290000	-20677.005000	-14508.090000	-25243.155000	-15384.150000	-1508.625000	-10091.745000	22.095759	10.486625	2.470933	-0.385842	-3.511622	-3.428783	0.477475	16.579758	-0.534100	4.333840	-0.503580	0.916013	-0.212524	0.330688	-1.000000	-1.000000	-1.000000	-1.000000	-1.000000	-1.000000	-1.000000	69.931034	0.000000	-1.000000	-1.000000	2550878.000000	1770066599.234859
-22141.440000	-16255.710000	-20674.080000	-14506.425000	-25241.850000	-15383.520000	-1506.870000	-10097.460000	19.480031	7.899525	1.590663	0.567406	-1.719825	-1.884789	1.370008	16.678847	-0.534100	4.333840	-0.503580	0.916013	-0.212524	0.330688	-1.000000	-1.000000	-1.000000	-1.000000	-1.000000	-1.000000	-1.000000	69.931034	0.000000	-1.000000	-1.000000	2550879.000000	1770066599.240172
-22177.305000	-16267.050000	-20674.440000	-14508.675000	-25243.515000	-15386.355000	-1510.290000	-10110.195000	6.007252	1.259151	0.293296	1.383529	0.597047	0.171429	1.609788	9.954568	-0.534100	4.333840	-0.503580	0.916013	-0.212524	0.330688	-1.000000	-1.000000	-1.000000	-1.000000	-1.000000	-1.000000	-1.000000	69.931034	0.000000	-1.000000	-1.000000	2550880.000000	1770066599.240182
-22164.345000	-16257.690000	-20673.675000	-14500.665000	-25233.885000	-15380.910000	-1510.155000	-10116.045000	-10.558412	-6.016760	-0.866713	1.963878	2.936712	2.363662	1.589394	0.472732	-1.861720	4.089680	-2.029580	0.915525	-0.208984	0.329711	-1.000000	-1.000000	-1.000000	-1.000000	-1.000000	-1.000000	-1.000000	69.931034	0.000000	-1.000000	-1.000000	2550881.000000	1770066599.245776
-22114.485000	-16247.520000	-20686.230000	-14509.530000	-25243.650000	-15390.990000	-1512.045000	-10108.125000	-19.092449	-9.048667	-1.361324	2.487879	4.913589	4.260259	1.658529	-6.606333	-1.861720	4.089680	-2.029580	0.915525	-0.208984	0.329711	-1.000000	-1.000000	-1.000000	-1.000000	-1.000000	-1.000000	-1.000000	69.931034	0.000000	-1.000000	-1.000000	2550882.000000	1770066599.245787
-22116.285000	-16247.385000	-20693.115000	-14507.370000	-25242.525000	-15387.840000	-1507.185000	-10102.545000	-13.753739	-6.859829	-1.943308	2.182159	5.185593	4.644701	1.644752	-8.027678	-1.861720	4.089680	-2.029580	0.915525	-0.208984	0.329711	-1.000000	-1.000000	-1.000000	-1.000000	-1.000000	-1.000000	-1.000000	69.931034	0.000000	-1.000000	-1.000000	2550883.000000	1770066599.250564
-22138.245000	-16245.135000	-20690.190000	-14507.325000	-25239.195000	-15387.795000	-1518.345000	-10151.145000	-0.241618	-3.178435	-3.554082	0.062717	2.522971	2.442484	0.923493	-4.901235	-1.861720	4.089680	-2.029580	0.915525	-0.208984	0.329711	-1.000000	-1.000000	-1.000000	-1.000000	-1.000000	-1.000000	-1.000000	69.931034	0.000000	-1.000000	-1.000000	2550884.000000	1770066599.250572
-22135.005000	-16252.740000	-20697.840000	-14513.490000	-25239.060000	-15390.270000	-1526.400000	-10156.365000	9.237387	-1.566559	-5.281140	-3.049516	-1.778865	-1.296439	-0.772597	-2.261316	-1.861720	4.089680	-2.029580	0.915525	-0.208984	0.329711	-1.000000	-1.000000	-1.000000	-1.000000	-1.000000	-1.000000	-1.000000	69.931034	0.000000	-1.000000	-1.000000	2550885.000000	1770066599.255333
-22142.700000	-16280.820000	-20695.635000	-14510.970000	-25245.315000	-15396.795000	-1527.255000	-10118.970000	8.291138	-2.580435	-5.210566	-5.032358	-4.938800	-4.204657	-2.810927	-2.948052	-1.861720	4.089680	-2.029580	0.915525	-0.208984	0.329711	-1.000000	-1.000000	-1.000000	-1.000000	-1.000000	-1.000000	-1.000000	69.931034	0.000000	-1.000000	-1.000000	2550886.000000	1770066599.255340
-22143.195000	-16271.415000	-20685.690000	-14506.605000	-25241.760000	-15390.315000	-1507.995000	-10078.965000	0.715055	-4.569596	-2.728748	-4.710693	-5.693610	-5.008555	-3.831679	-3.435414	-1.861720	4.089680	-2.029580	0.915525	-0.208984	0.329711	-1.000000	-1.000000	-1.000000	-1.000000	-1.000000	-1.000000	-1.000000	69.931034	0.000000	-1.000000	-1.000000	2550887.000000	1770066599.255349
-22128.165000	-16236.045000	-20670.480000	-14495.220000	-25229.025000	-15377.580000	-1494.720000	-10074.240000	-5.436472	-4.049724	1.357188	-2.358793	-4.290583	-3.617830	-2.482021	0.639028	-1.861720	4.089680	-2.029580	0.915525	-0.208984	0.329711	-1.000000	-1.000000	-1.000000	-1.000000	-1.000000	-1.000000	-1.000000	69.931034	0.000000	-1.000000	-1.000000	2550888.000000	1770066599.255354
-22122.540000	-16243.605000	-20673.585000	-14499.675000	-25235.415000	-15385.500000	-1500.885000	-10082.880000	-4.761262	1.657666	5.689175	1.057272	-1.260614	-0.457773	1.145568	7.849102	-1.861720	4.089680	-2.029580	0.915525	-0.208984	0.329711	-1.000000	-1.000000	-1.000000	-1.000000	-1.000000	-1.000000	-1.000000	69.931034	0.000000	-1.000000	-1.000000	2550889.000000	1770066599.267004
-22129.425000	-16254.090000	-20677.230000	-14501.520000	-25237.530000	-15388.290000	-1501.740000	-10090.350000	1.391780	9.746265	8.409890	3.963870	2.090564	2.950406	4.788960	12.408361	-1.861720	4.089680	-2.029580	0.915525	-0.208984	0.329711	-1.000000	-1.000000	-1.000000	-1.000000	-1.000000	-1.000000	-1.000000	69.931034	0.000000	-1.000000	-1.000000	2550890.000000	1770066599.267017
-22138.695000	-16255.305000	-20680.290000	-14502.780000	-25238.655000	-15390.270000	-1504.620000	-10102.050000	6.130860	13.588864	7.959992	4.818276	4.025214	4.640675	5.780909	9.902766	-5.081580	2.731540	-2.914660	0.915525	-0.211730	0.330016	-1.000000	-1.000000	-1.000000	-1.000000	-1.000000	-1.000000	-1.000000	69.931034	0.000000	-1.000000	-1.000000	2550891.000000	1770066599.267029
-22120.605000	-16251.705000	-20676.375000	-14499.900000	-25235.100000	-15387.300000	-1506.015000	-10098.945000	4.860512	9.721289	4.374671	3.270264	3.756601	3.777809	3.328576	1.285187	-5.081580	2.731540	-2.914660	0.915525	-0.211730	0.330016	-1.000000	-1.000000	-1.000000	-1.000000	-1.000000	-1.000000	-1.000000	69.931034	0.000000	-1.000000	-1.000000	2550892.000000	1770066599.267034
-22099.725000	-16245.270000	-20675.700000	-14500.530000	-25235.640000	-15388.380000	-1506.330000	-10083.780000	0.153930	0.833815	-0.658926	0.380112	1.791678	1.108753	-0.900531	-7.365046	-5.081580	2.731540	-2.914660	0.915525	-0.211730	0.330016	-1.000000	-1.000000	-1.000000	-1.000000	-1.000000	-1.000000	-1.000000	69.931034	0.000000	-1.000000	-1.000000	2550893.000000	1770066599.267120
-22115.295000	-16255.215000	-20684.745000	-14504.220000	-25237.800000	-15391.260000	-1510.155000	-10095.390000	-3.175136	-7.263217	-4.899412	-2.110143	-0.519298	-1.610990	-4.160284	-10.714357	-5.081580	2.731540	-2.914660	0.915525	-0.211730	0.330016	-1.000000	-1.000000	-1.000000	-1.000000	-1.000000	-1.000000	-1.000000	69.931034	0.000000	-1.000000	-1.000000	2550894.000000	1770066599.267131
-22120.740000	-16251.795000	-20682.540000	-14501.835000	-25234.245000	-15388.020000	-1507.230000	-10096.020000	-3.798055	-10.214766	-7.036900	-3.141093	-1.905232	-2.934792	-5.021524	-9.624275	-5.081580	2.731540	-2.914660	0.915525	-0.211730	0.330016	-1.000000	-1.000000	-1.000000	-1.000000	-1.000000	-1.000000	-1.000000	69.931034	0.000000	-1.000000	-1.000000	2550895.000000	1770066599.270784
-22121.235000	-16247.430000	-20678.490000	-14502.690000	-25236.090000	-15388.830000	-1504.395000	-10089.990000	-2.998433	-7.672384	-7.058956	-2.918661	-2.057286	-2.723280	-4.137021	-7.979981	-5.081580	2.731540	-2.914660	0.915525	-0.211730	0.330016	-1.000000	-1.000000	-1.000000	-1.000000	-1.000000	-1.000000	-1.000000	69.931034	0.000000	-1.000000	-1.000000	2550896.000000	1770066599.270792
-22141.575000	-16281.495000	-20680.245000	-14498.190000	-25231.950000	-15385.725000	-1502.640000	-10106.865000	-2.160131	-3.140724	-5.439141	-2.061351	-1.502649	-1.740590	-2.688785	-6.792483	-5.081580	2.731540	-2.914660	0.915525	-0.211730	0.330016	-1.000000	-1.000000	-1.000000	-1.000000	-1.000000	-1.000000	-1.000000	69.931034	0.000000	-1.000000	-1.000000	2550897.000000	1770066599.276058
-22184.145000	-16282.440000	-20673.900000	-14491.260000	-25226.595000	-15386.085000	-1511.910000	-10149.300000	-2.614296	-0.577973	-2.544884	-0.693632	-0.572035	-0.493790	-1.098799	-4.924108	-5.081580	2.731540	-2.914660	0.915525	-0.211730	0.330016	-1.000000	-1.000000	-1.000000	-1.000000	-1.000000	-1.000000	-1.000000	69.931034	0.000000	-1.000000	-1.000000	2550898.000000	1770066599.276066
-22177.620000	-16244.955000	-20669.895000	-14492.880000	-25229.970000	-15392.475000	-1520.055000	-10151.370000	-4.786732	0.130657	1.333696	1.243747	0.765754	0.863657	0.441242	-2.156332	-5.081580	2.731540	-2.914660	0.915525	-0.211730	0.330016	-1.000000	-1.000000	-1.000000	-1.000000	-1.000000	-1.000000	-1.000000	69.931034	0.000000	-1.000000	-1.000000	2550899.000000	1770066599.292745
-22124.790000	-16243.065000	-20679.345000	-14502.870000	-25236.855000	-15395.580000	-1513.125000	-10100.295000	-5.678594	2.030049	5.109938	2.878206	1.862001	1.733164	1.579168	2.136816	-5.081580	2.731540	-2.914660	0.915525	-0.211730	0.330016	-1.000000	-1.000000	-1.000000	-1.000000	-1.000000	-1.000000	-1.000000	69.931034	0.000000	-1.000000	-1.000000	2550900.000000	1770066599.292756
-22112.550000	-16252.290000	-20684.430000	-14505.345000	-25238.205000	-15393.690000	-1504.755000	-10082.205000	-1.200354	5.338862	6.663475	2.752861	1.590873	1.466199	2.518175	9.388770	-4.806900	2.487380	-1.846460	0.917844	-0.212585	0.330810	-1.000000	-1.000000	-1.000000	-1.000000	-1.000000	-1.000000	-1.000000	69.931034	0.000000	-1.000000	-1.000000	2550901.000000	1770066599.292770
-22121.145000	-16225.020000	-20681.055000	-14504.940000	-25238.835000	-15394.950000	-1505.520000	-10090.260000	7.250945	7.309086	4.966589	0.795279	-0.043037	0.412129	3.694478	17.383734	-4.806900	2.487380	-1.846460	0.917844	-0.212585	0.330810	-1.000000	-1.000000	-1.000000	-1.000000	-1.000000	-1.000000	-1.000000	69.931034	0.000000	-1.000000	-1.000000	2550902.000000	1770066599.292775
-22142.025000	-16242.480000	-20680.785000	-14501.835000	-25234.920000	-15392.700000	-1509.030000	-10099.755000	13.259635	6.666528	1.540388	-1.325549	-1.644057	-0.407317	4.547665	19.815062	-4.806900	2.487380	-1.846460	0.917844	-0.212585	0.330810	-1.000000	-1.000000	-1.000000	-1.000000	-1.000000	-1.000000	-1.000000	69.931034	0.000000	-1.000000	-1.000000	2550903.000000	1770066599.292781
-22107.105000	-16249.365000	-20687.985000	-14508.765000	-25241.265000	-15399.000000	-1511.730000	-10085.625000	12.773405	3.593690	-1.531910	-2.198887	-2.043815	-0.560493	3.721638	12.921637	-4.806900	2.487380	-1.846460	0.917844	-0.212585	0.330810	-1.000000	-1.000000	-1.000000	-1.000000	-1.000000	-1.000000	-1.000000	69.931034	0.000000	-1.000000	-1.000000	2550904.000000	1770066599.292786
-22096.395000	-16245.990000	-20693.610000	-14515.470000	-25247.565000	-15403.860000	-1510.155000	-10079.730000	7.643223	-1.356324	-3.572289	-1.978516	-1.469604	-0.570546	0.729423	-0.051541	-4.806900	2.487380	-1.846460	0.917844	-0.212585	0.330810	-1.000000	-1.000000	-1.000000	-1.000000	-1.000000	-1.000000	-1.000000	69.931034	0.000000	-1.000000	-1.000000	2550905.000000	1770066599.292792
-22133.655000	-16279.380000	-20699.370000	-14515.560000	-25245.360000	-15400.980000	-1506.870000	-10089.090000	1.768513	-6.157099	-4.596013	-1.522520	-0.788601	-0.864681	-2.932032	-11.544499	-4.806900	2.487380	-1.846460	0.917844	-0.212585	0.330810	-1.000000	-1.000000	-1.000000	-1.000000	-1.000000	-1.000000	-1.000000	69.931034	0.000000	-1.000000	-1.000000	2550906.000000	1770066599.292796
-22139.910000	-16274.295000	-20692.395000	-14509.305000	-25239.555000	-15397.200000	-1505.565000	-10094.535000	-3.252322	-8.817741	-4.281462	-1.016285	-0.160753	-0.889441	-4.764137	-15.664848	-4.806900	2.487380	-1.846460	0.917844	-0.212585	0.330810	-1.000000	-1.000000	-1.000000	-1.000000	-1.000000	-1.000000	-1.000000	69.931034	0.000000	-1.000000	-1.000000	2550907.000000	1770066599.294849
-22128.255000	-16245.270000	-20681.550000	-14503.770000	-25236.945000	-15396.930000	-1507.950000	-10099.215000	-7.454529	-8.682236	-2.100488	0.157443	0.930505	0.112440	-3.630078	-12.338072	-4.806900	2.487380	-1.846460	0.917844	-0.212585	0.330810	-1.000000	-1.000000	-1.000000	-1.000000	-1.000000	-1.000000	-1.000000	69.931034	0.000000	-1.000000	-1.000000	2550908.000000	1770066599.294854
-22124.430000	-16247.790000	-20690.145000	-14511.915000	-25244.730000	-15403.635000	-1512.495000	-10101.150000	-10.740758	-5.361421	1.680127	2.164863	2.422396	1.710248	-0.924280	-6.603560	-4.806900	2.487380	-1.846460	0.917844	-0.212585	0.330810	-1.000000	-1.000000	-1.000000	-1.000000	-1.000000	-1.000000	-1.000000	69.931034	0.000000	-1.000000	-1.000000	2550909.000000	1770066599.308398
-22117.590000	-16242.705000	-20687.400000	-14507.685000	-25239.870000	-15400.260000	-1511.820000	-10097.865000	-12.317284	0.343706	5.248119	3.934631	3.317708	2.546363	0.987641	-3.125177	-4.806900	2.487380	-1.846460	0.917844	-0.212585	0.330810	-1.000000	-1.000000	-1.000000	-1.000000	-1.000000	-1.000000	-1.000000	69.931034	0.000000	-1.000000	-1.000000	2550910.000000	1770066599.308409
-22128.030000	-16244.280000	-20680.020000	-14498.730000	-25230.330000	-15392.835000	-1506.825000	-10099.530000	-10.472227	5.642267	6.604316	4.335547	3.013088	2.075343	1.254609	-1.951926	-3.189340	2.823100	-1.022420	0.921812	-0.214538	0.330077	-1.000000	-1.000000	-1.000000	-1.000000	-1.000000	-1.000000	-1.000000	69.931034	0.000000	-1.000000	-1.000000	2550911.000000	1770066599.308421
-22150.710000	-16246.305000	-20673.990000	-14492.790000	-25223.940000	-15386.130000	-1500.750000	-10111.680000	-4.856581	8.085773	5.378233	3.347794	1.981348	1.064349	0.859357	-0.790280	-3.189340	2.823100	-1.022420	0.921812	-0.214538	0.330077	-1.000000	-1.000000	-1.000000	-1.000000	-1.000000	-1.000000	-1.000000	69.931034	0.000000	-1.000000	-1.000000	2550912.000000	1770066599.308426
-22139.280000	-16232.715000	-20669.580000	-14485.680000	-25213.455000	-15376.905000	-1496.295000	-10106.595000	1.574336	7.420000	2.653544	1.735774	1.040832	0.504832	0.876703	1.012503	-3.189340	2.823100	-1.022420	0.921812	-0.214538	0.330077	-1.000000	-1.000000	-1.000000	-1.000000	-1.000000	-1.000000	-1.000000	69.931034	0.000000	-1.000000	-1.000000	2550913.000000	1770066599.308432
-22103.730000	-16225.920000	-20678.805000	-14492.565000	-25218.945000	-15384.645000	-1501.155000	-10090.530000	6.413159	5.223160	-0.312053	0.137926	0.503084	0.547592	1.216975	3.146171	-3.189340	2.823100	-1.022420	0.921812	-0.214538	0.330077	-1.000000	-1.000000	-1.000000	-1.000000	-1.000000	-1.000000	-1.000000	69.931034	0.000000	-1.000000	-1.000000	2550914.000000	1770066599.308436
-22104.090000	-16238.970000	-20685.555000	-14500.395000	-25229.385000	-15396.975000	-1510.695000	-10092.690000	10.826871	3.238085	-2.993931	-1.648820	-0.405904	0.111278	0.940814	6.077197	-3.189340	2.823100	-1.022420	0.921812	-0.214538	0.330077	-1.000000	-1.000000	-1.000000	-1.000000	-1.000000	-1.000000	-1.000000	69.931034	0.000000	-1.000000	-1.000000	2550915.000000	1770066599.312747
-22124.970000	-16239.375000	-20679.975000	-14506.200000	-25240.095000	-15408.135000	-1514.430000	-10103.265000	14.588160	1.069848	-5.254855	-4.079756	-2.728926	-1.941220	-0.470572	9.166116	-3.189340	2.823100	-1.022420	0.921812	-0.214538	0.330077	-1.000000	-1.000000	-1.000000	-1.000000	-1.000000	-1.000000	-1.000000	69.931034	0.000000	-1.000000	-1.000000	2550916.000000	1770066599.312767
-22132.845000	-16261.110000	-20687.130000	-14515.110000	-25250.310000	-15414.165000	-1512.495000	-10101.960000	13.222161	-3.194830	-6.496080	-6.541890	-5.993271	-5.002671	-2.241184	9.655138	-3.189340	2.823100	-1.022420	0.921812	-0.214538	0.330077	-1.000000	-1.000000	-1.000000	-1.000000	-1.000000	-1.000000	-1.000000	69.931034	0.000000	-1.000000	-1.000000	2550917.000000	1770066599.315321
-22127.805000	-16290.045000	-20691.900000	-14508.495000	-25240.995000	-15405.030000	-1508.220000	-10093.230000	4.325915	-9.578013	-5.958805	-7.317383	-7.938188	-6.742934	-2.899556	5.857113	-3.189340	2.823100	-1.022420	0.921812	-0.214538	0.330077	-1.000000	-1.000000	-1.000000	-1.000000	-1.000000	-1.000000	-1.000000	69.931034	0.000000	-1.000000	-1.000000	2550918.000000	1770066599.315331
-22159.845000	-16313.130000	-20695.950000	-14502.465000	-25231.230000	-15394.905000	-1506.465000	-10107.720000	-8.075302	-15.340717	-3.696742	-5.043280	-6.319778	-5.069942	-1.727666	-0.679072	-3.189340	2.823100	-1.022420	0.921812	-0.214538	0.330077	-1.000000	-1.000000	-1.000000	-1.000000	-1.000000	-1.000000	-1.000000	69.931034	0.000000	-1.000000	-1.000000	2550919.000000	1770066599.326097
-22171.365000	-16277.130000	-20704.815000	-14506.920000	-25232.445000	-15395.895000	-1509.615000	-10119.105000	-17.197737	-16.222320	-0.851962	-0.425193	-1.304796	-0.319501	0.459292	-6.937492	-3.189340	2.823100	-1.022420	0.921812	-0.214538	0.330077	-1.000000	-1.000000	-1.000000	-1.000000	-1.000000	-1.000000	-1.000000	69.931034	0.000000	-1.000000	-1.000000	2550920.000000	1770066599.326105
-22141.260000	-16265.340000	-20718.630000	-14523.120000	-25246.215000	-15404.580000	-1511.190000	-10109.655000	-17.973553	-8.758767	1.063658	3.747724	4.064271	4.532683	1.986831	-10.314624	-2.273740	1.999060	-1.358140	0.925352	-0.217224	0.328185	-1.000000	-1.000000	-1.000000	-1.000000	-1.000000	-1.000000	-1.000000	69.931034	0.000000	-1.000000	-1.000000	2550921.000000	1770066599.326115
-22137.795000	-16298.055000	-20739.060000	-14538.870000	-25259.715000	-15413.580000	-1509.795000	-10096.605000	-9.774096	4.693439	1.250226	4.822503	6.287187	6.304157	1.901115	-9.277169	-2.273740	1.999060	-1.358140	0.925352	-0.217224	0.328185	-1.000000	-1.000000	-1.000000	-1.000000	-1.000000	-1.000000	-1.000000	69.931034	0.000000	-1.000000	-1.000000	2550922.000000	1770066599.326120
-22139.010000	-16269.705000	-20748.915000	-14540.220000	-25256.790000	-15412.455000	-1509.075000	-10101.555000	2.458179	16.406989	0.290119	2.722130	4.573747	4.440105	0.832772	-4.361067	-2.273740	1.999060	-1.358140	0.925352	-0.217224	0.328185	-1.000000	-1.000000	-1.000000	-1.000000	-1.000000	-1.000000	-1.000000	69.931034	0.000000	-1.000000	-1.000000	2550923.000000	1770066599.327037
-22127.580000	-16236.540000	-20739.870000	-14534.100000	-25253.235000	-15416.190000	-1521.045000	-10119.105000	12.123738	21.464124	-0.117530	0.088758	1.494149	1.239675	0.005436	1.620719	-2.273740	1.999060	-1.358140	0.925352	-0.217224	0.328185	-1.000000	-1.000000	-1.000000	-1.000000	-1.000000	-1.000000	-1.000000	69.931034	0.000000	-1.000000	-1.000000	2550924.000000	1770066599.327043
-22127.130000	-16240.365000	-20711.340000	-14510.655000	-25234.740000	-15402.735000	-1513.170000	-10120.275000	15.868168	19.997837	1.742768	-0.008999	0.410705	-0.502148	-0.120736	5.437922	-2.273740	1.999060	-1.358140	0.925352	-0.217224	0.328185	-1.000000	-1.000000	-1.000000	-1.000000	-1.000000	-1.000000	-1.000000	69.931034	0.000000	-1.000000	-1.000000	2550925.000000	1770066599.333867
-22132.080000	-16276.680000	-20704.455000	-14500.980000	-25228.350000	-15395.805000	-1502.910000	-10104.300000	13.436078	12.902630	6.190253	3.372173	2.497049	0.339017	0.381787	5.869566	-2.273740	1.999060	-1.358140	0.925352	-0.217224	0.328185	-1.000000	-1.000000	-1.000000	-1.000000	-1.000000	-1.000000	-1.000000	69.931034	0.000000	-1.000000	-1.000000	2550926.000000	1770066599.333879
-22134.960000	-16301.520000	-20717.280000	-14521.815000	-25247.700000	-15410.340000	-1511.415000	-10105.875000	6.257935	1.320382	10.767167	7.488476	5.305350	2.220128	1.157958	4.094962	-2.273740	1.999060	-1.358140	0.925352	-0.217224	0.328185	-1.000000	-1.000000	-1.000000	-1.000000	-1.000000	-1.000000	-1.000000	69.931034	0.000000	-1.000000	-1.000000	2550927.000000	1770066599.334915
-22127.670000	-16284.555000	-20705.490000	-14536.620000	-25265.655000	-15427.620000	-1523.205000	-10112.355000	-1.958788	-11.077427	11.533097	7.487447	4.492201	1.914406	1.128030	1.946808	-2.273740	1.999060	-1.358140	0.925352	-0.217224	0.328185	-1.000000	-1.000000	-1.000000	-1.000000	-1.000000	-1.000000	-1.000000	69.931034	0.000000	-1.000000	-1.000000	2550928.000000	1770066599.334921
-22119.255000	-16257.330000	-20664.180000	-14505.660000	-25241.580000	-15414.390000	-1524.105000	-10127.295000	-6.819713	-18.760418	7.679379	2.077893	-0.928446	-1.667378	-0.465015	0.247485	-2.273740	1.999060	-1.358140	0.925352	-0.217224	0.328185	-1.000000	-1.000000	-1.000000	-1.000000	-1.000000	-1.000000	-1.000000	69.931034	0.000000	-1.000000	-1.000000	2550929.000000	1770066599.338840
-22164.120000	-16253.415000	-20647.935000	-14478.390000	-25218.540000	-15399.540000	-1517.445000	-10137.330000	-7.953385	-18.040893	2.692362	-3.788535	-6.178291	-5.300326	-2.603423	-1.599533	-2.273740	1.999060	-1.358140	0.925352	-0.217224	0.328185	-1.000000	-1.000000	-1.000000	-1.000000	-1.000000	-1.000000	-1.000000	69.931034	0.000000	-1.000000	-1.000000	2550930.000000	1770066599.338845
-22134.600000	-16216.650000	-20675.430000	-14506.380000	-25244.280000	-15420.240000	-1519.920000	-10095.030000	-8.406713	-9.314933	-0.742243	-5.070267	-6.440519	-5.333321	-3.411441	-3.591574	-1.434440	-0.640920	-2.716280	0.928159	-0.217040	0.327392	-1.000000	-1.000000	-1.000000	-1.000000	-1.000000	-1.000000	-1.000000	69.931034	0.000000	-1.000000	-1.000000	2550931.000000	1770066599.352357
-22102.155000	-16199.370000	-20684.880000	-14521.815000	-25254.090000	-15425.595000	-1518.390000	-10084.770000	-8.057005	3.120063	-3.941595	-3.060745	-2.903089	-2.213681	-2.076339	-3.272843	-1.434440	-0.640920	-2.716280	0.928159	-0.217040	0.327392	-1.000000	-1.000000	-1.000000	-1.000000	-1.000000	-1.000000	-1.000000	69.931034	0.000000	-1.000000	-1.000000	2550932.000000	1770066599.352368
-22127.085000	-16245.450000	-20702.565000	-14522.895000	-25247.520000	-15415.290000	-1509.390000	-10101.870000	-4.396204	11.733558	-9.121239	-2.327173	0.060613	1.213875	0.853716	0.734028	-1.434440	-0.640920	-2.716280	0.928159	-0.217040	0.327392	-1.000000	-1.000000	-1.000000	-1.000000	-1.000000	-1.000000	-1.000000	69.931034	0.000000	-1.000000	-1.000000	2550933.000000	1770066599.352379
-22169.880000	-16307.505000	-20746.215000	-14536.710000	-25253.820000	-15416.415000	-1506.555000	-10104.480000	0.680000	9.812211	-16.173399	-4.622449	0.403580	3.199494	3.907495	5.139446	-1.434440	-0.640920	-2.716280	0.928159	-0.217040	0.327392	-1.000000	-1.000000	-1.000000	-1.000000	-1.000000	-1.000000	-1.000000	69.931034	0.000000	-1.000000	-1.000000	2550934.000000	1770066599.352384
-22151.115000	-16286.220000	-20790.405000	-14562.450000	-25266.150000	-15423.210000	-1509.615000	-10091.970000	2.858267	-1.049317	-22.559335	-8.259086	-1.187099	3.216105	5.120726	5.632977	-1.434440	-0.640920	-2.716280	0.928159	-0.217040	0.327392	-1.000000	-1.000000	-1.000000	-1.000000	-1.000000	-1.000000	-1.000000	69.931034	0.000000	-1.000000	-1.000000	2550935.000000	1770066599.352390
-22144.005000	-16284.240000	-20809.890000	-14561.055000	-25265.070000	-15422.805000	-1512.045000	-10100.340000	2.278559	-10.710320	-24.185146	-10.007813	-2.757321	1.690079	3.572140	1.889960	-1.434440	-0.640920	-2.716280	0.928159	-0.217040	0.327392	-1.000000	-1.000000	-1.000000	-1.000000	-1.000000	-1.000000	-1.000000	69.931034	0.000000	-1.000000	-1.000000	2550936.000000	1770066599.352395
-22119.930000	-16309.755000	-20845.845000	-14571.810000	-25270.605000	-15426.720000	-1513.575000	-10100.340000	2.488425	-11.810121	-18.264161	-7.226199	-2.379404	0.008851	0.398558	-2.941803	-1.434440	-0.640920	-2.716280	0.928159	-0.217040	0.327392	-1.000000	-1.000000	-1.000000	-1.000000	-1.000000	-1.000000	-1.000000	69.931034	0.000000	-1.000000	-1.000000	2550937.000000	1770066599.357375
-22126.185000	-16335.315000	-20873.295000	-14602.590000	-25287.030000	-15436.485000	-1515.105000	-10097.190000	4.935964	-6.889892	-6.669748	-1.153119	-0.453212	-1.134165	-2.525146	-5.530349	-1.434440	-0.640920	-2.716280	0.928159	-0.217040	0.327392	-1.000000	-1.000000	-1.000000	-1.000000	-1.000000	-1.000000	-1.000000	69.931034	0.000000	-1.000000	-1.000000	2550938.000000	1770066599.357387
-22156.875000	-16365.645000	-20850.615000	-14590.620000	-25277.985000	-15431.490000	-1515.645000	-10114.695000	7.282798	-2.216931	6.560932	4.167836	0.947879	-2.062681	-4.160217	-5.102280	-1.434440	-0.640920	-2.716280	0.928159	-0.217040	0.327392	-1.000000	-1.000000	-1.000000	-1.000000	-1.000000	-1.000000	-1.000000	69.931034	0.000000	-1.000000	-1.000000	2550939.000000	1770066599.358863
-22183.830000	-16392.465000	-20796.795000	-14555.070000	-25257.240000	-15423.840000	-1512.765000	-10119.465000	5.292995	-1.015312	20.294016	8.008478	2.049591	-2.096141	-4.215256	-4.023091	-1.434440	-0.640920	-2.716280	0.928159	-0.217040	0.327392	-1.000000	-1.000000	-1.000000	-1.000000	-1.000000	-1.000000	-1.000000	69.931034	0.000000	-1.000000	-1.000000	2550940.000000	1770066599.358873
-22204.665000	-16353.270000	-20752.065000	-14535.405000	-25250.535000	-15422.580000	-1511.505000	-10122.165000	-2.856014	-1.798377	34.258671	12.823111	4.754537	-0.135114	-2.728997	-4.107333	-1.876980	-2.243220	-1.724380	0.935728	-0.213867	0.329223	-1.000000	-1.000000	-1.000000	-1.000000	-1.000000	-1.000000	-1.000000	69.931034	0.000000	-1.000000	-1.000000	2550941.000000	1770066599.363497
-22174.380000	-16288.200000	-20739.555000	-14542.290000	-25260.480000	-15428.700000	-1512.180000	-10108.080000	-12.044078	1.955874	43.898355	17.661625	8.011412	2.653038	-0.473691	-3.579219	-1.876980	-2.243220	-1.724380	0.935728	-0.213867	0.329223	-1.000000	-1.000000	-1.000000	-1.000000	-1.000000	-1.000000	-1.000000	69.931034	0.000000	-1.000000	-1.000000	2550942.000000	1770066599.363507
-22135.365000	-16264.035000	-20745.945000	-14546.295000	-25260.840000	-15428.205000	-1512.180000	-10100.070000	-12.891353	15.319425	42.261021	17.764917	8.324651	3.713207	1.234755	-0.128613	-1.876980	-2.243220	-1.724380	0.935728	-0.213867	0.329223	-1.000000	-1.000000	-1.000000	-1.000000	-1.000000	-1.000000	-1.000000	69.931034	0.000000	-1.000000	-1.000000	2550943.000000	1770066599.366823
-22102.020000	-16222.140000	-20768.355000	-14555.790000	-25264.935000	-15432.705000	-1521.540000	-10105.515000	-1.848441	32.475365	26.347537	10.649724	4.444217	2.244275	1.667420	5.122377	-1.876980	-2.243220	-1.724380	0.935728	-0.213867	0.329223	-1.000000	-1.000000	-1.000000	-1.000000	-1.000000	-1.000000	-1.000000	69.931034	0.000000	-1.000000	-1.000000	2550944.000000	1770066599.366831
-22099.365000	-16191.540000	-20755.620000	-14542.740000	-25255.845000	-15426.315000	-1519.695000	-10116.450000	13.865044	40.420152	0.461847	-1.026499	-1.379366	-0.292368	1.144207	8.673286	-1.876980	-2.243220	-1.724380	0.935728	-0.213867	0.329223	-1.000000	-1.000000	-1.000000	-1.000000	-1.000000	-1.000000	-1.000000	69.931034	0.000000	-1.000000	-1.000000	2550945.000000	1770066599.370926
-22093.470000	-16215.705000	-20743.200000	-14532.300000	-25248.465000	-15417.540000	-1506.060000	-10096.245000	22.642461	31.026810	-25.039610	-11.590738	-5.788911	-1.863418	0.723351	8.492143	-1.876980	-2.243220	-1.724380	0.935728	-0.213867	0.329223	-1.000000	-1.000000	-1.000000	-1.000000	-1.000000	-1.000000	-1.000000	69.931034	0.000000	-1.000000	-1.000000	2550946.000000	1770066599.370933
-22142.340000	-16270.965000	-20737.665000	-14536.170000	-25251.300000	-15416.190000	-1495.125000	-10080.720000	18.002215	5.759327	-39.681483	-16.323550	-6.882923	-1.493348	1.426085	5.794872	-1.876980	-2.243220	-1.724380	0.935728	-0.213867	0.329223	-1.000000	-1.000000	-1.000000	-1.000000	-1.000000	-1.000000	-1.000000	69.931034	0.000000	-1.000000	-1.000000	2550947.000000	1770066599.376072
-22187.430000	-16343.415000	-20713.995000	-14518.620000	-25245.495000	-15421.005000	-1505.295000	-10106.370000	2.021801	-26.580374	-39.624722	-14.578905	-5.279198	-0.030460	2.891933	2.568435	-1.876980	-2.243220	-1.724380	0.935728	-0.213867	0.329223	-1.000000	-1.000000	-1.000000	-1.000000	-1.000000	-1.000000	-1.000000	69.931034	0.000000	-1.000000	-1.000000	2550948.000000	1770066599.376085
-22160.475000	-16333.380000	-20708.235000	-14514.840000	-25248.555000	-15426.765000	-1508.400000	-10106.955000	-16.506431	-53.138000	-28.815208	-9.312591	-3.055314	0.685848	3.264665	-1.058079	-1.876980	-2.243220	-1.724380	0.935728	-0.213867	0.329223	-1.000000	-1.000000	-1.000000	-1.000000	-1.000000	-1.000000	-1.000000	69.931034	0.000000	-1.000000	-1.000000	2550949.000000	1770066599.382215
-22119.300000	-16283.430000	-20729.925000	-14534.505000	-25263.495000	-15436.215000	-1512.180000	-10104.390000	-25.940028	-61.107678	-15.027845	-4.402723	-1.988109	-0.435439	1.262975	-4.977943	-1.876980	-2.243220	-1.724380	0.935728	-0.213867	0.329223	-1.000000	-1.000000	-1.000000	-1.000000	-1.000000	-1.000000	-1.000000	69.931034	0.000000	-1.000000	-1.000000	2550950.000000	1770066599.382222
-22142.745000	-16342.515000	-20744.910000	-14537.745000	-25260.390000	-15431.760000	-1503.540000	-10103.535000	-20.482241	-45.785286	-4.363324	-2.018666	-2.261483	-2.678723	-2.172019	-7.675310	-9.018660	-5.417300	0.259420	0.942869	-0.209167	0.333251	-1.000000	-1.000000	-1.000000	-1.000000	-1.000000	-1.000000	-1.000000	69.931034	0.000000	-1.000000	-1.000000	2550951.000000	1770066599.382866
-22146.795000	-16327.080000	-20751.930000	-14542.695000	-25266.960000	-15435.945000	-1495.035000	-10099.395000	-6.499116	-15.944387	2.378563	-1.195242	-2.384464	-4.059995	-4.514823	-7.950354	-9.018660	-5.417300	0.259420	0.942869	-0.209167	0.333251	-1.000000	-1.000000	-1.000000	-1.000000	-1.000000	-1.000000	-1.000000	69.931034	0.000000	-1.000000	-1.000000	2550952.000000	1770066599.382877
-22165.380000	-16308.765000	-20774.745000	-14562.765000	-25277.130000	-15436.620000	-1488.510000	-10125.495000	4.603916	13.772691	7.526669	0.041761	-1.195385	-3.237355	-3.768531	-5.872102	-9.018660	-5.417300	0.259420	0.942869	-0.209167	0.333251	-1.000000	-1.000000	-1.000000	-1.000000	-1.000000	-1.000000	-1.000000	69.931034	0.000000	-1.000000	-1.000000	2550953.000000	1770066599.386896
-22196.115000	-16358.940000	-20780.055000	-14569.830000	-25276.365000	-15431.355000	-1477.485000	-10135.845000	6.951972	32.752075	11.700174	1.654523	0.715437	-0.651222	-0.303207	-2.758287	-9.018660	-5.417300	0.259420	0.942869	-0.209167	0.333251	-1.000000	-1.000000	-1.000000	-1.000000	-1.000000	-1.000000	-1.000000	69.931034	0.000000	-1.000000	-1.000000	2550954.000000	1770066599.386904
-22153.500000	-16320.600000	-20754.765000	-14548.365000	-25260.345000	-15422.940000	-1478.970000	-10092.690000	3.264070	37.718738	13.886010	2.928144	2.481504	2.287605	3.235673	0.151864	-9.018660	-5.417300	0.259420	0.942869	-0.209167	0.333251	-1.000000	-1.000000	-1.000000	-1.000000	-1.000000	-1.000000	-1.000000	69.931034	0.000000	-1.000000	-1.000000	2550955.000000	1770066599.400421
-22194.180000	-16328.745000	-20795.040000	-14547.780000	-25243.245000	-15416.145000	-1519.065000	-10115.865000	1.346327	33.465226	13.383066	4.468647	4.349720	4.470714	3.585193	3.008605	-9.018660	-5.417300	0.259420	0.942869	-0.209167	0.333251	-1.000000	-1.000000	-1.000000	-1.000000	-1.000000	-1.000000	-1.000000	69.931034	0.000000	-1.000000	-1.000000	2550956.000000	1770066599.400434
-22197.870000	-16404.030000	-20851.110000	-14559.165000	-25239.915000	-15415.380000	-1528.380000	-10145.565000	5.190404	25.824578	8.291267	5.950611	6.349600	5.395488	-0.587807	5.287526	-9.018660	-5.417300	0.259420	0.942869	-0.209167	0.333251	-1.000000	-1.000000	-1.000000	-1.000000	-1.000000	-1.000000	-1.000000	69.931034	0.000000	-1.000000	-1.000000	2550957.000000	1770066599.400448
-22127.625000	-16433.010000	-20869.245000	-14579.685000	-25267.230000	-15436.620000	-1515.330000	-10113.705000	11.506041	13.558717	-2.341115	5.203836	6.801412	4.565440	-6.385626	5.593965	-9.018660	-5.417300	0.259420	0.942869	-0.209167	0.333251	-1.000000	-1.000000	-1.000000	-1.000000	-1.000000	-1.000000	-1.000000	69.931034	0.000000	-1.000000	-1.000000	2550958.000000	1770066599.400453
-22123.170000	-16405.740000	-20892.915000	-14618.295000	-25309.530000	-15466.455000	-1517.355000	-10086.255000	15.557833	-4.734431	-13.388605	1.244384	3.401289	1.223733	-8.702904	4.812801	-9.018660	-5.417300	0.259420	0.942869	-0.209167	0.333251	-1.000000	-1.000000	-1.000000	-1.000000	-1.000000	-1.000000	-1.000000	69.931034	0.000000	-1.000000	-1.000000	2550959.000000	1770066599.400460
-22117.320000	-16235.595000	-20872.305000	-14631.615000	-25320.600000	-15475.905000	-1533.285000	-10098.495000	14.478724	-19.122779	-16.383205	-4.253206	-3.929594	-4.353304	-5.722320	4.590476	-9.018660	-5.417300	0.259420	0.942869	-0.209167	0.333251	-1.000000	-1.000000	-1.000000	-1.000000	-1.000000	-1.000000	-1.000000	69.931034	0.000000	-1.000000	-1.000000	2550960.000000	1770066599.400464
-22110.795000	-16195.680000	-20806.245000	-14590.755000	-25291.665000	-15461.820000	-1537.920000	-10106.235000	7.612468	-16.113872	-6.465606	-7.290656	-10.854406	-9.207177	-0.255520	3.995993	-22.920520	-9.735880	-2.029580	0.944578	-0.203369	0.334594	-1.000000	-1.000000	-1.000000	-1.000000	-1.000000	-1.000000	-1.000000	69.931034	0.000000	-1.000000	-1.000000	2550961.000000	1770066599.404714
-22113.855000	-16243.875000	-20804.130000	-14574.465000	-25270.245000	-15444.540000	-1526.940000	-10104.300000	-2.443392	1.346100	13.354117	-3.648637	-11.064425	-9.157626	4.269473	1.803593	-22.920520	-9.735880	-2.029580	0.944578	-0.203369	0.334594	-1.000000	-1.000000	-1.000000	-1.000000	-1.000000	-1.000000	-1.000000	69.931034	0.000000	-1.000000	-1.000000	2550962.000000	1770066599.404728
-22150.395000	-16298.010000	-20830.995000	-14584.770000	-25270.830000	-15441.075000	-1520.370000	-10108.080000	-11.882014	14.470522	31.018608	5.639704	-3.092742	-3.150097	6.607986	-1.443758	-22.920520	-9.735880	-2.029580	0.944578	-0.203369	0.334594	-1.000000	-1.000000	-1.000000	-1.000000	-1.000000	-1.000000	-1.000000	69.931034	0.000000	-1.000000	-1.000000	2550963.000000	1770066599.408338
-22154.985000	-16359.750000	-20823.660000	-14573.070000	-25266.105000	-15438.555000	-1515.825000	-10113.030000	-18.394105	8.978954	33.138625	13.381516	7.249741	5.077499	7.236860	-5.219842	-22.920520	-9.735880	-2.029580	0.944578	-0.203369	0.334594	-1.000000	-1.000000	-1.000000	-1.000000	-1.000000	-1.000000	-1.000000	69.931034	0.000000	-1.000000	-1.000000	2550964.000000	1770066599.408351
-22167.225000	-16474.680000	-20876.895000	-14576.445000	-25264.170000	-15431.850000	-1497.780000	-10111.500000	-19.724446	-13.183992	17.138320	13.472493	12.546961	10.424740	7.550383	-8.263292	-22.920520	-9.735880	-2.029580	0.944578	-0.203369	0.334594	-1.000000	-1.000000	-1.000000	-1.000000	-1.000000	-1.000000	-1.000000	69.931034	0.000000	-1.000000	-1.000000	2550965.000000	1770066599.410798
-22224.915000	-16504.335000	-20920.995000	-14595.885000	-25279.425000	-15427.890000	-1478.025000	-10132.065000	-15.307770	-37.265261	-7.950739	5.902697	9.978993	10.618903	8.468808	-8.151962	-22.920520	-9.735880	-2.029580	0.944578	-0.203369	0.334594	-1.000000	-1.000000	-1.000000	-1.000000	-1.000000	-1.000000	-1.000000	69.931034	0.000000	-1.000000	-1.000000	2550966.000000	1770066599.410810
-22249.305000	-16462.980000	-20875.590000	-14611.050000	-25318.620000	-15454.530000	-1482.165000	-10143.720000	-9.963081	-45.847357	-28.739888	-4.675542	2.094888	6.746936	8.514017	-5.361143	-22.920520	-9.735880	-2.029580	0.944578	-0.203369	0.334594	-1.000000	-1.000000	-1.000000	-1.000000	-1.000000	-1.000000	-1.000000	69.931034	0.000000	-1.000000	-1.000000	2550967.000000	1770066599.414855
-22164.525000	-16379.955000	-20905.920000	-14675.580000	-25395.390000	-15513.660000	-1503.405000	-10119.690000	-6.430701	-30.342359	-34.390191	-12.978373	-6.950046	0.432459	4.822504	-2.705564	-22.920520	-9.735880	-2.029580	0.944578	-0.203369	0.334594	-1.000000	-1.000000	-1.000000	-1.000000	-1.000000	-1.000000	-1.000000	69.931034	0.000000	-1.000000	-1.000000	2550968.000000	1770066599.414863
-22153.455000	-16333.740000	-20930.850000	-14717.565000	-25420.410000	-15521.445000	-1517.355000	-10122.255000	0.332490	1.860031	-24.739557	-17.197756	-14.617647	-7.341034	-3.241479	-0.329319	-22.920520	-9.735880	-2.029580	0.944578	-0.203369	0.334594	-1.000000	-1.000000	-1.000000	-1.000000	-1.000000	-1.000000	-1.000000	69.931034	0.000000	-1.000000	-1.000000	2550969.000000	1770066599.423768
-22175.865000	-16278.930000	-20851.425000	-14681.070000	-25395.120000	-15505.785000	-1524.240000	-10129.590000	12.515645	33.459155	-8.771446	-17.750111	-18.426597	-13.820909	-12.544615	3.208663	-22.920520	-9.735880	-2.029580	0.944578	-0.203369	0.334594	-1.000000	-1.000000	-1.000000	-1.000000	-1.000000	-1.000000	-1.000000	69.931034	0.000000	-1.000000	-1.000000	2550970.000000	1770066599.423779
-22185.045000	-16367.805000	-20911.095000	-14679.495000	-25379.550000	-15512.130000	-1545.120000	-10140.795000	23.337680	50.523969	5.929866	-13.124343	-14.738900	-14.896349	-18.736531	6.931586	-33.251540	-18.144140	1.205540	0.939390	-0.211791	0.338378	-1.000000	-1.000000	-1.000000	-1.000000	-1.000000	-1.000000	-1.000000	69.931034	0.000000	-1.000000	-1.000000	2550971.000000	1770066599.423790
-22160.610000	-16358.895000	-20896.290000	-14622.570000	-25312.905000	-15480.855000	-1532.610000	-10128.690000	26.025470	47.578094	15.132897	-1.696331	-2.015324	-8.936951	-19.035057	8.294527	-33.251540	-18.144140	1.205540	0.939390	-0.211791	0.338378	-1.000000	-1.000000	-1.000000	-1.000000	-1.000000	-1.000000	-1.000000	69.931034	0.000000	-1.000000	-1.000000	2550972.000000	1770066599.423795
-22179.375000	-16319.385000	-20822.130000	-14554.215000	-25260.210000	-15455.160000	-1528.605000	-10146.465000	20.178186	29.497798	18.051395	14.658916	16.503668	2.216334	-12.522665	6.362544	-33.251540	-18.144140	1.205540	0.939390	-0.211791	0.338378	-1.000000	-1.000000	-1.000000	-1.000000	-1.000000	-1.000000	-1.000000	69.931034	0.000000	-1.000000	-1.000000	2550973.000000	1770066599.430603
-22186.755000	-16338.960000	-20811.645000	-14562.540000	-25265.520000	-15442.695000	-1519.650000	-10153.530000	9.164292	9.488431	19.117215	29.887389	32.643835	14.097798	-0.985077	2.408512	-33.251540	-18.144140	1.205540	0.939390	-0.211791	0.338378	-1.000000	-1.000000	-1.000000	-1.000000	-1.000000	-1.000000	-1.000000	69.931034	0.000000	-1.000000	-1.000000	2550974.000000	1770066599.430618
-22217.445000	-16350.795000	-20759.580000	-14536.620000	-25239.780000	-15417.180000	-1515.285000	-10159.065000	-3.169612	-4.184749	21.221869	35.811612	37.267005	21.416532	10.624574	-1.516124	-33.251540	-18.144140	1.205540	0.939390	-0.211791	0.338378	-1.000000	-1.000000	-1.000000	-1.000000	-1.000000	-1.000000	-1.000000	69.931034	0.000000	-1.000000	-1.000000	2550975.000000	1770066599.430791
-22200.930000	-16354.395000	-20772.000000	-14578.830000	-25254.540000	-15418.260000	-1506.825000	-10117.980000	-13.758160	-14.788024	20.461877	27.912062	27.798071	21.696686	17.501339	-3.481048	-33.251540	-18.144140	1.205540	0.939390	-0.211791	0.338378	-1.000000	-1.000000	-1.000000	-1.000000	-1.000000	-1.000000	-1.000000	69.931034	0.000000	-1.000000	-1.000000	2550976.000000	1770066599.430798
-22208.535000	-16360.965000	-20783.385000	-14594.265000	-25261.110000	-15419.655000	-1501.245000	-10110.870000	-20.914148	-28.178071	11.390407	8.984139	9.578349	15.976352	18.353087	-2.407082	-33.251540	-18.144140	1.205540	0.939390	-0.211791	0.338378	-1.000000	-1.000000	-1.000000	-1.000000	-1.000000	-1.000000	-1.000000	69.931034	0.000000	-1.000000	-1.000000	2550977.000000	1770066599.434980
-22216.680000	-16284.870000	-20676.150000	-14543.280000	-25250.940000	-15431.715000	-1512.360000	-10124.865000	-23.478005	-42.109258	-4.849568	-12.436075	-9.976510	5.815593	14.426720	0.558383	-33.251540	-18.144140	1.205540	0.939390	-0.211791	0.338378	-1.000000	-1.000000	-1.000000	-1.000000	-1.000000	-1.000000	-1.000000	69.931034	0.000000	-1.000000	-1.000000	2550978.000000	1770066599.434990
-22163.040000	-16138.080000	-20566.980000	-14478.390000	-25235.145000	-15452.775000	-1537.695000	-10123.515000	-18.832002	-43.263730	-18.582830	-26.296664	-25.438534	-7.714467	6.893719	2.639321	-33.251540	-18.144140	1.205540	0.939390	-0.211791	0.338378	-1.000000	-1.000000	-1.000000	-1.000000	-1.000000	-1.000000	-1.000000	69.931034	0.000000	-1.000000	-1.000000	2550979.000000	1770066599.441865
-22155.345000	-16202.205000	-20602.755000	-14462.190000	-25221.690000	-15449.220000	-1540.890000	-10129.950000	-5.213249	-20.448048	-20.688570	-27.254669	-33.610733	-21.552242	-2.874805	2.076535	-33.251540	-18.144140	1.205540	0.939390	-0.211791	0.338378	-1.000000	-1.000000	-1.000000	-1.000000	-1.000000	-1.000000	-1.000000	69.931034	0.000000	-1.000000	-1.000000	2550980.000000	1770066599.441876
-22125.780000	-16221.240000	-20640.915000	-14476.095000	-25228.665000	-15453.315000	-1531.395000	-10118.745000	12.786261	15.962680	-14.592448	-19.429296	-33.914604	-30.211895	-11.657813	-0.688373	-30.977800	-21.516600	-8.057280	0.937192	-0.226684	0.347716	-1.000000	-1.000000	-1.000000	-1.000000	-1.000000	-1.000000	-1.000000	69.931034	0.000000	-1.000000	-1.000000	2550981.000000	1770066599.442789
-22175.145000	-16276.590000	-20706.750000	-14522.220000	-25264.980000	-15465.195000	-1522.755000	-10122.930000	25.503980	40.594996	-12.794274	-12.842021	-28.603353	-29.732860	-15.525024	-3.422547	-30.977800	-21.516600	-8.057280	0.937192	-0.226684	0.347716	-1.000000	-1.000000	-1.000000	-1.000000	-1.000000	-1.000000	-1.000000	69.931034	0.000000	-1.000000	-1.000000	2550982.000000	1770066599.442795
-22166.820000	-16319.655000	-20781.045000	-14562.720000	-25320.465000	-15498.900000	-1521.315000	-10130.085000	25.720968	38.380338	-21.405223	-13.116123	-20.565367	-20.839502	-13.015761	-4.010504	-30.977800	-21.516600	-8.057280	0.937192	-0.226684	0.347716	-1.000000	-1.000000	-1.000000	-1.000000	-1.000000	-1.000000	-1.000000	69.931034	0.000000	-1.000000	-1.000000	2550983.000000	1770066599.450895
-22156.155000	-16397.010000	-20940.570000	-14669.820000	-25432.290000	-15552.585000	-1486.170000	-10140.975000	14.358516	13.313265	-35.852646	-17.627296	-12.239549	-8.296556	-5.802988	-2.915940	-30.977800	-21.516600	-8.057280	0.937192	-0.226684	0.347716	-1.000000	-1.000000	-1.000000	-1.000000	-1.000000	-1.000000	-1.000000	69.931034	0.000000	-1.000000	-1.000000	2550984.000000	1770066599.450904
-22156.785000	-16450.740000	-21019.455000	-14744.340000	-25517.790000	-15588.855000	-1434.690000	-10129.410000	-1.507671	-20.010429	-46.688042	-20.362640	-5.640057	2.727846	3.828227	-2.484769	-30.977800	-21.516600	-8.057280	0.937192	-0.226684	0.347716	-1.000000	-1.000000	-1.000000	-1.000000	-1.000000	-1.000000	-1.000000	69.931034	0.000000	-1.000000	-1.000000	2550985.000000	1770066599.452655
-22119.660000	-16428.330000	-21039.300000	-14794.020000	-25530.255000	-15569.010000	-1426.590000	-10091.790000	-14.370500	-44.856183	-43.301546	-16.495989	0.003203	10.673486	13.451692	-2.839213	-30.977800	-21.516600	-8.057280	0.937192	-0.226684	0.347716	-1.000000	-1.000000	-1.000000	-1.000000	-1.000000	-1.000000	-1.000000	69.931034	0.000000	-1.000000	-1.000000	2550986.000000	1770066599.452663
-22089.915000	-16298.865000	-21017.205000	-14813.595000	-25519.680000	-15556.275000	-1499.940000	-10084.095000	-18.583307	-47.665827	-20.962880	-5.684318	8.237846	17.449531	18.041831	-0.925762	-30.977800	-21.516600	-8.057280	0.937192	-0.226684	0.347716	-1.000000	-1.000000	-1.000000	-1.000000	-1.000000	-1.000000	-1.000000	69.931034	0.000000	-1.000000	-1.000000	2550987.000000	1770066599.454823
-22130.325000	-16349.535000	-21087.765000	-14838.300000	-25520.760000	-15605.640000	-1579.230000	-10103.580000	-13.978387	-25.229020	13.073618	7.757973	20.303444	23.259968	11.434207	3.972396	-30.977800	-21.516600	-8.057280	0.937192	-0.226684	0.347716	-1.000000	-1.000000	-1.000000	-1.000000	-1.000000	-1.000000	-1.000000	69.931034	0.000000	-1.000000	-1.000000	2550988.000000	1770066599.454838
-22145.805000	-16324.380000	-21070.215000	-14778.135000	-25401.420000	-15555.015000	-1579.455000	-10114.290000	-7.371575	11.506165	45.732826	20.250233	33.452370	24.675679	-6.157944	7.608335	-30.977800	-21.516600	-8.057280	0.937192	-0.226684	0.347716	-1.000000	-1.000000	-1.000000	-1.000000	-1.000000	-1.000000	-1.000000	69.931034	0.000000	-1.000000	-1.000000	2550989.000000	1770066599.458794
-22168.755000	-16318.890000	-20903.850000	-14630.580000	-25272.270000	-15477.255000	-1551.240000	-10134.135000	-4.678189	45.179012	69.803727	33.537389	45.492836	20.990146	-24.104205	5.859834	-30.977800	-21.516600	-8.057280	0.937192	-0.226684	0.347716	-1.000000	-1.000000	-1.000000	-1.000000	-1.000000	-1.000000	-1.000000	69.931034	0.000000	-1.000000	-1.000000	2550990.000000	1770066599.458806
-22204.215000	-16379.640000	-20787.615000	-14518.890000	-25185.105000	-15399.495000	-1487.430000	-10143.270000	-5.015672	61.549202	86.126795	50.983230	55.087479	16.958473	-28.526891	-0.639010	-15.137920	-18.693500	-19.334420	0.935850	-0.232543	0.325500	-1.000000	-1.000000	-1.000000	-1.000000	-1.000000	-1.000000	-1.000000	69.931034	0.000000	-1.000000	-1.000000	2550991.000000	1770066599.465675
-22211.730000	-16392.690000	-20811.960000	-14560.155000	-25211.205000	-15420.105000	-1506.555000	-10159.470000	-4.566478	53.945653	92.356674	66.880626	56.439401	15.327581	-14.838035	-7.459662	-15.137920	-18.693500	-19.334420	0.935850	-0.232543	0.325500	-1.000000	-1.000000	-1.000000	-1.000000	-1.000000	-1.000000	-1.000000	69.931034	0.000000	-1.000000	-1.000000	2550992.000000	1770066599.465691
-22203.180000	-16290.135000	-20644.425000	-14495.760000	-25198.515000	-15430.365000	-1539.045000	-10151.280000	-1.388172	28.587743	80.498372	66.890257	41.586963	12.066636	6.540362	-10.379615	-15.137920	-18.693500	-19.334420	0.935850	-0.232543	0.325500	-1.000000	-1.000000	-1.000000	-1.000000	-1.000000	-1.000000	-1.000000	69.931034	0.000000	-1.000000	-1.000000	2550993.000000	1770066599.466927
-22219.290000	-16284.105000	-20597.355000	-14454.675000	-25185.195000	-15423.480000	-1545.120000	-10158.930000	3.772901	1.615173	49.291157	44.272670	10.350150	2.168782	19.414130	-8.376741	-15.137920	-18.693500	-19.334420	0.935850	-0.232543	0.325500	-1.000000	-1.000000	-1.000000	-1.000000	-1.000000	-1.000000	-1.000000	69.931034	0.000000	-1.000000	-1.000000	2550994.000000	1770066599.466937
-22232.430000	-16271.955000	-20631.825000	-14452.515000	-25185.015000	-15423.705000	-1534.590000	-10186.290000	7.925632	-17.581749	3.320996	5.639980	-27.984295	-13.898077	17.825839	-3.949600	-15.137920	-18.693500	-19.334420	0.935850	-0.232543	0.325500	-1.000000	-1.000000	-1.000000	-1.000000	-1.000000	-1.000000	-1.000000	69.931034	0.000000	-1.000000	-1.000000	2550995.000000	1770066599.478511
-22187.430000	-16353.855000	-20749.815000	-14533.020000	-25244.640000	-15442.245000	-1524.195000	-10161.180000	8.991913	-32.903852	-53.565242	-38.442467	-62.113747	-30.323537	10.046418	0.126329	-15.137920	-18.693500	-19.334420	0.935850	-0.232543	0.325500	-1.000000	-1.000000	-1.000000	-1.000000	-1.000000	-1.000000	-1.000000	69.931034	0.000000	-1.000000	-1.000000	2550996.000000	1770066599.478523
-22140.315000	-16450.875000	-20884.455000	-14600.340000	-25306.200000	-15468.390000	-1512.270000	-10098.180000	9.723974	-48.346131	-110.406777	-78.181557	-84.083131	-39.818288	6.986221	5.019678	-15.137920	-18.693500	-19.334420	0.935850	-0.232543	0.325500	-1.000000	-1.000000	-1.000000	-1.000000	-1.000000	-1.000000	-1.000000	69.931034	0.000000	-1.000000	-1.000000	2550997.000000	1770066599.478641
-22113.765000	-16403.130000	-20956.365000	-14668.920000	-25382.520000	-15527.745000	-1525.950000	-10084.680000	13.911389	-57.265698	-147.130608	-104.044589	-90.896900	-39.690670	9.684299	13.166288	-15.137920	-18.693500	-19.334420	0.935850	-0.232543	0.325500	-1.000000	-1.000000	-1.000000	-1.000000	-1.000000	-1.000000	-1.000000	69.931034	0.000000	-1.000000	-1.000000	2550998.000000	1770066599.478647
-22163.895000	-16344.135000	-20919.465000	-14649.750000	-25364.205000	-15524.100000	-1511.820000	-10100.925000	19.056338	-46.781372	-146.310999	-107.812242	-81.815053	-33.305661	9.991121	21.397321	-15.137920	-18.693500	-19.334420	0.935850	-0.232543	0.325500	-1.000000	-1.000000	-1.000000	-1.000000	-1.000000	-1.000000	-1.000000	69.931034	0.000000	-1.000000	-1.000000	2550999.000000	1770066599.478972
-22156.515000	-16345.485000	-20930.130000	-14709.420000	-25373.160000	-15503.040000	-1487.745000	-10077.930000	18.031900	-11.914419	-102.072603	-84.399046	-54.068321	-22.639223	2.166234	22.681174	-15.137920	-18.693500	-19.334420	0.935850	-0.232543	0.325500	-1.000000	-1.000000	-1.000000	-1.000000	-1.000000	-1.000000	-1.000000	69.931034	0.000000	-1.000000	-1.000000	2551000.000000	1770066599.478983
-22196.880000	-16304.355000	-20869.650000	-14708.655000	-25386.480000	-15530.220000	-1538.640000	-10122.750000	7.027225	33.735758	-23.967598	-35.610579	-7.311371	-5.387534	-10.666414	13.639776	-9.049180	-3.708180	-22.645840	0.933591	-0.237609	0.286132	-1.000000	-1.000000	-1.000000	-1.000000	-1.000000	-1.000000	-1.000000	69.931034	0.000000	-1.000000	-1.000000	2551001.000000	1770066599.482867
-22208.130000	-16322.085000	-20839.500000	-14681.205000	-25411.770000	-15547.590000	-1548.090000	-10148.985000	-11.056515	64.903511	62.064901	26.208905	47.330636	17.359264	-21.416436	-3.739681	-9.049180	-3.708180	-22.645840	0.933591	-0.237609	0.286132	-1.000000	-1.000000	-1.000000	-1.000000	-1.000000	-1.000000	-1.000000	69.931034	0.000000	-1.000000	-1.000000	2551002.000000	1770066599.482876
-22142.025000	-16257.915000	-20793.645000	-14632.470000	-25417.665000	-15546.375000	-1538.280000	-10141.605000	-27.071171	64.596340	123.654503	80.986085	88.867311	37.263323	-24.604792	-22.761151	-9.049180	-3.708180	-22.645840	0.933591	-0.237609	0.286132	-1.000000	-1.000000	-1.000000	-1.000000	-1.000000	-1.000000	-1.000000	69.931034	0.000000	-1.000000	-1.000000	2551003.000000	1770066599.486784
-22148.685000	-16327.665000	-20891.880000	-14676.390000	-25416.720000	-15527.385000	-1516.230000	-10135.395000	-30.745667	35.556165	139.403614	109.755483	100.301266	45.685692	-17.638465	-33.376714	-9.049180	-3.708180	-22.645840	0.933591	-0.237609	0.286132	-1.000000	-1.000000	-1.000000	-1.000000	-1.000000	-1.000000	-1.000000	69.931034	0.000000	-1.000000	-1.000000	2551004.000000	1770066599.486790
-22154.040000	-16350.165000	-21015.360000	-14754.780000	-25411.365000	-15505.110000	-1475.460000	-10120.005000	-21.015185	-4.748824	107.975764	102.759276	80.580756	41.154852	-1.803205	-29.517923	-9.049180	-3.708180	-22.645840	0.933591	-0.237609	0.286132	-1.000000	-1.000000	-1.000000	-1.000000	-1.000000	-1.000000	-1.000000	69.931034	0.000000	-1.000000	-1.000000	2551005.000000	1770066599.490840
-22159.800000	-16354.710000	-21007.710000	-14758.245000	-25356.555000	-15485.940000	-1484.460000	-10133.370000	-6.807088	-35.290367	47.559173	64.234737	43.333401	28.540446	16.518650	-14.820006	-9.049180	-3.708180	-22.645840	0.933591	-0.237609	0.286132	-1.000000	-1.000000	-1.000000	-1.000000	-1.000000	-1.000000	-1.000000	69.931034	0.000000	-1.000000	-1.000000	2551006.000000	1770066599.490846
-22215.555000	-16316.055000	-20794.995000	-14647.320000	-25312.770000	-15479.370000	-1517.625000	-10175.220000	3.056662	-43.756945	-10.659718	12.991677	6.073043	13.222422	27.124187	1.221012	-9.049180	-3.708180	-22.645840	0.933591	-0.237609	0.286132	-1.000000	-1.000000	-1.000000	-1.000000	-1.000000	-1.000000	-1.000000	69.931034	0.000000	-1.000000	-1.000000	2551007.000000	1770066599.504179
-22219.155000	-16356.510000	-20841.480000	-14609.835000	-25315.605000	-15499.890000	-1554.615000	-10173.690000	6.436280	-32.692105	-41.283047	-27.065525	-20.693848	-2.751693	21.861314	11.289225	-9.049180	-3.708180	-22.645840	0.933591	-0.237609	0.286132	-1.000000	-1.000000	-1.000000	-1.000000	-1.000000	-1.000000	-1.000000	69.931034	0.000000	-1.000000	-1.000000	2551008.000000	1770066599.504191
-22169.295000	-16426.845000	-20992.320000	-14690.430000	-25375.365000	-15541.515000	-1542.555000	-10134.855000	7.509657	-14.509829	-45.526246	-43.508846	-36.440874	-19.171589	2.695781	14.931737	-9.049180	-3.708180	-22.645840	0.933591	-0.237609	0.286132	-1.000000	-1.000000	-1.000000	-1.000000	-1.000000	-1.000000	-1.000000	69.931034	0.000000	-1.000000	-1.000000	2551009.000000	1770066599.504434
-22155.570000	-16339.050000	-20817.720000	-14642.820000	-25396.965000	-15581.385000	-1559.205000	-10119.060000	11.587278	-0.671080	-41.716207	-41.082676	-44.328930	-33.159027	-17.164792	16.687743	-9.049180	-3.708180	-22.645840	0.933591	-0.237609	0.286132	-1.000000	-1.000000	-1.000000	-1.000000	-1.000000	-1.000000	-1.000000	69.931034	0.000000	-1.000000	-1.000000	2551010.000000	1770066599.504440
-22224.915000	-16366.680000	-20765.790000	-14601.285000	-25346.295000	-15528.420000	-1526.670000	-10162.215000	17.120900	6.519959	-36.605519	-30.646150	-44.107155	-38.187978	-24.151344	18.571899	15.076880	13.566140	-6.775440	0.921995	-0.223937	0.259216	-1.000000	-1.000000	-1.000000	-1.000000	-1.000000	-1.000000	-1.000000	69.931034	0.000000	-1.000000	-1.000000	2551011.000000	1770066599.504448
-22191.840000	-16309.755000	-20749.815000	-14567.985000	-25289.595000	-15466.230000	-1472.625000	-10165.185000	15.934172	10.250130	-24.805029	-18.794543	-32.499967	-28.472399	-14.691244	16.632659	15.076880	13.566140	-6.775440	0.921995	-0.223937	0.259216	-1.000000	-1.000000	-1.000000	-1.000000	-1.000000	-1.000000	-1.000000	69.931034	0.000000	-1.000000	-1.000000	2551012.000000	1770066599.504453
-22112.640000	-16224.615000	-20724.840000	-14554.980000	-25259.940000	-15423.390000	-1403.685000	-10112.985000	6.349199	15.008487	-4.276617	-6.819902	-10.146419	-5.370787	5.128447	8.268969	15.076880	13.566140	-6.775440	0.921995	-0.223937	0.259216	-1.000000	-1.000000	-1.000000	-1.000000	-1.000000	-1.000000	-1.000000	69.931034	0.000000	-1.000000	-1.000000	2551013.000000	1770066599.510378
-22073.895000	-16253.460000	-20827.170000	-14576.670000	-25259.670000	-15426.045000	-1419.120000	-10081.890000	-2.524984	24.169035	19.593505	5.412153	13.968186	20.130905	23.766147	-2.229459	15.076880	13.566140	-6.775440	0.921995	-0.223937	0.259216	-1.000000	-1.000000	-1.000000	-1.000000	-1.000000	-1.000000	-1.000000	69.931034	0.000000	-1.000000	-1.000000	2551014.000000	1770066599.510384
-22079.790000	-16308.765000	-20940.480000	-14624.730000	-25276.500000	-15443.595000	-1455.255000	-10066.995000	-3.648667	30.669542	31.179499	13.082560	26.616169	33.568672	29.326515	-8.486069	15.076880	13.566140	-6.775440	0.921995	-0.223937	0.259216	-1.000000	-1.000000	-1.000000	-1.000000	-1.000000	-1.000000	-1.000000	69.931034	0.000000	-1.000000	-1.000000	2551015.000000	1770066599.510873
-22142.115000	-16338.555000	-20957.445000	-14671.530000	-25301.880000	-15474.780000	-1521.945000	-10114.110000	0.085364	21.376806	14.140139	7.195574	20.099139	27.263588	16.899679	-8.652754	15.076880	13.566140	-6.775440	0.921995	-0.223937	0.259216	-1.000000	-1.000000	-1.000000	-1.000000	-1.000000	-1.000000	-1.000000	69.931034	0.000000	-1.000000	-1.000000	2551016.000000	1770066599.510879
-22178.340000	-16354.755000	-20905.515000	-14675.580000	-25328.835000	-15496.245000	-1534.095000	-10150.425000	0.390089	-3.683171	-22.179020	-11.977791	-0.386724	5.783826	-7.516004	-7.305948	15.076880	13.566140	-6.775440	0.921995	-0.223937	0.259216	-1.000000	-1.000000	-1.000000	-1.000000	-1.000000	-1.000000	-1.000000	69.931034	0.000000	-1.000000	-1.000000	2551017.000000	1770066599.515020
-22200.660000	-16348.905000	-20791.215000	-14622.525000	-25315.605000	-15487.965000	-1524.375000	-10155.690000	-7.914770	-29.064866	-43.629874	-27.965412	-19.146191	-16.657904	-29.828256	-9.984763	15.076880	13.566140	-6.775440	0.921995	-0.223937	0.259216	-1.000000	-1.000000	-1.000000	-1.000000	-1.000000	-1.000000	-1.000000	69.931034	0.000000	-1.000000	-1.000000	2551018.000000	1770066599.515030
-22253.985000	-16343.775000	-20773.980000	-14609.475000	-25323.840000	-15499.395000	-1542.555000	-10178.010000	-21.019721	-40.514690	-30.421418	-24.646175	-22.639219	-26.312961	-36.884154	-15.505031	15.076880	13.566140	-6.775440	0.921995	-0.223937	0.259216	-1.000000	-1.000000	-1.000000	-1.000000	-1.000000	-1.000000	-1.000000	69.931034	0.000000	-1.000000	-1.000000	2551019.000000	1770066599.523125
-22210.695000	-16285.815000	-20748.015000	-14595.030000	-25333.335000	-15517.935000	-1540.980000	-10169.190000	-28.397275	-34.164616	3.279350	-4.273676	-11.377724	-21.258054	-26.520908	-16.953879	15.076880	13.566140	-6.775440	0.921995	-0.223937	0.259216	-1.000000	-1.000000	-1.000000	-1.000000	-1.000000	-1.000000	-1.000000	69.931034	0.000000	-1.000000	-1.000000	2551020.000000	1770066599.523136
-22156.830000	-16351.470000	-20774.655000	-14572.440000	-25306.380000	-15486.840000	-1517.040000	-10126.080000	-21.567784	-15.562956	31.845438	18.501611	3.394001	-10.229000	-7.515877	-9.352027	-19.044480	3.433500	11.292400	0.871092	-0.177551	0.299987	-1.000000	-1.000000	-1.000000	-1.000000	-1.000000	-1.000000	-1.000000	70.068966	0.000000	-1.000000	-1.000000	2551021.000000	1770066599.523204
-22165.470000	-16415.865000	-20873.205000	-14614.020000	-25328.790000	-15475.095000	-1503.405000	-10112.175000	-2.625122	2.598959	40.522338	31.743248	12.381912	-0.709108	9.596707	4.854792	-19.044480	3.433500	11.292400	0.871092	-0.177551	0.299987	-1.000000	-1.000000	-1.000000	-1.000000	-1.000000	-1.000000	-1.000000	70.068966	0.000000	-1.000000	-1.000000	2551022.000000	1770066599.523211
-22150.980000	-16427.070000	-21007.125000	-14712.930000	-25407.720000	-15543.630000	-1534.005000	-10100.385000	16.889670	10.718229	27.853451	30.002948	12.258744	5.166729	19.269816	17.413948	-19.044480	3.433500	11.292400	0.871092	-0.177551	0.299987	-1.000000	-1.000000	-1.000000	-1.000000	-1.000000	-1.000000	-1.000000	70.068966	0.000000	-1.000000	-1.000000	2551023.000000	1770066599.526853
-22111.605000	-16335.855000	-21007.395000	-14781.735000	-25494.525000	-15605.910000	-1551.960000	-10099.080000	28.219609	12.485008	2.062605	13.025790	2.966959	6.264028	21.486488	21.980554	-19.044480	3.433500	11.292400	0.871092	-0.177551	0.299987	-1.000000	-1.000000	-1.000000	-1.000000	-1.000000	-1.000000	-1.000000	70.068966	0.000000	-1.000000	-1.000000	2551024.000000	1770066599.526868
-22131.945000	-16350.570000	-20961.540000	-14784.255000	-25496.505000	-15570.405000	-1511.640000	-10112.760000	31.286239	17.624761	-21.688188	-11.330111	-10.414864	3.675289	19.800158	18.629849	-19.044480	3.433500	11.292400	0.871092	-0.177551	0.299987	-1.000000	-1.000000	-1.000000	-1.000000	-1.000000	-1.000000	-1.000000	70.068966	0.000000	-1.000000	-1.000000	2551025.000000	1770066599.530877
-22130.010000	-16355.205000	-20962.620000	-14744.745000	-25462.845000	-15545.745000	-1482.165000	-10138.905000	27.514310	26.696784	-29.521346	-27.819787	-16.512098	3.476347	18.028639	10.440975	-19.044480	3.433500	11.292400	0.871092	-0.177551	0.299987	-1.000000	-1.000000	-1.000000	-1.000000	-1.000000	-1.000000	-1.000000	70.068966	0.000000	-1.000000	-1.000000	2551026.000000	1770066599.530885
-22127.445000	-16334.865000	-20963.115000	-14690.565000	-25393.770000	-15511.230000	-1476.135000	-10110.105000	16.895973	30.293627	-21.288023	-25.123052	-6.134316	10.332019	16.253629	0.443848	-19.044480	3.433500	11.292400	0.871092	-0.177551	0.299987	-1.000000	-1.000000	-1.000000	-1.000000	-1.000000	-1.000000	-1.000000	70.068966	0.000000	-1.000000	-1.000000	2551027.000000	1770066599.534886
-22187.970000	-16303.095000	-21025.530000	-14755.815000	-25389.630000	-15534.090000	-1532.565000	-10127.025000	1.400227	21.545604	-8.960085	-6.821828	17.296294	20.319351	10.451858	-7.571435	-19.044480	3.433500	11.292400	0.871092	-0.177551	0.299987	-1.000000	-1.000000	-1.000000	-1.000000	-1.000000	-1.000000	-1.000000	70.068966	0.000000	-1.000000	-1.000000	2551028.000000	1770066599.534892
-22232.970000	-16268.265000	-20859.840000	-14670.585000	-25328.655000	-15513.615000	-1555.785000	-10184.985000	-16.833511	3.403546	0.570357	12.949631	38.900205	23.944070	-3.172474	-12.047116	-19.044480	3.433500	11.292400	0.871092	-0.177551	0.299987	-1.000000	-1.000000	-1.000000	-1.000000	-1.000000	-1.000000	-1.000000	70.068966	0.000000	-1.000000	-1.000000	2551029.000000	1770066599.542758
-22328.640000	-16335.090000	-20789.820000	-14583.465000	-25301.070000	-15491.340000	-1536.345000	-10256.535000	-36.448973	-15.136300	13.662885	25.364978	44.693581	15.617234	-22.101207	-16.736986	-19.044480	3.433500	11.292400	0.871092	-0.177551	0.299987	-1.000000	-1.000000	-1.000000	-1.000000	-1.000000	-1.000000	-1.000000	70.068966	0.000000	-1.000000	-1.000000	2551030.000000	1770066599.542768
-22363.695000	-16362.540000	-20776.950000	-14567.940000	-25267.185000	-15470.865000	-1550.520000	-10293.885000	-52.019385	-26.532589	36.157162	31.741169	31.990889	-0.630766	-36.301517	-24.401878	-49.289800	-11.689160	15.473640	0.854063	-0.130554	0.360106	-1.000000	-1.000000	-1.000000	-1.000000	-1.000000	-1.000000	-1.000000	70.068966	0.000000	-1.000000	-1.000000	2551031.000000	1770066599.542982
-22193.505000	-16364.520000	-20819.115000	-14597.190000	-25265.565000	-15468.075000	-1491.345000	-10162.620000	-51.075278	-28.611856	58.100872	33.327480	9.395101	-14.185772	-34.849480	-28.009898	-49.289800	-11.689160	15.473640	0.854063	-0.130554	0.360106	-1.000000	-1.000000	-1.000000	-1.000000	-1.000000	-1.000000	-1.000000	70.068966	0.000000	-1.000000	-1.000000	2551032.000000	1770066599.542989
-22102.875000	-16432.605000	-20908.620000	-14650.380000	-25284.465000	-15454.755000	-1409.850000	-10063.800000	-21.798492	-24.499095	57.880770	25.735067	-11.798824	-17.019822	-13.834678	-14.217908	-49.289800	-11.689160	15.473640	0.854063	-0.130554	0.360106	-1.000000	-1.000000	-1.000000	-1.000000	-1.000000	-1.000000	-1.000000	70.068966	0.000000	-1.000000	-1.000000	2551033.000000	1770066599.552579
-22124.430000	-16410.690000	-20935.305000	-14669.550000	-25292.385000	-15455.295000	-1396.260000	-10066.230000	29.101694	-18.161274	22.597818	4.955987	-26.195361	-10.823302	18.050804	18.884916	-49.289800	-11.689160	15.473640	0.854063	-0.130554	0.360106	-1.000000	-1.000000	-1.000000	-1.000000	-1.000000	-1.000000	-1.000000	70.068966	0.000000	-1.000000	-1.000000	2551034.000000	1770066599.552591
-22103.460000	-16255.215000	-20949.660000	-14678.280000	-25325.730000	-15483.105000	-1465.065000	-10100.295000	73.192264	-7.291359	-35.075331	-25.079825	-34.943053	-4.517451	40.911910	52.047503	-49.289800	-11.689160	15.473640	0.854063	-0.130554	0.360106	-1.000000	-1.000000	-1.000000	-1.000000	-1.000000	-1.000000	-1.000000	70.068966	0.000000	-1.000000	-1.000000	2551035.000000	1770066599.552944
-22069.215000	-16244.730000	-20908.440000	-14644.395000	-25332.885000	-15470.595000	-1432.530000	-10109.295000	84.526984	12.020757	-82.916303	-51.405771	-40.228688	-4.670736	39.102955	60.630495	-49.289800	-11.689160	15.473640	0.854063	-0.130554	0.360106	-1.000000	-1.000000	-1.000000	-1.000000	-1.000000	-1.000000	-1.000000	70.068966	0.000000	-1.000000	-1.000000	2551036.000000	1770066599.552953
-22135.905000	-16343.100000	-20844.225000	-14656.545000	-25384.995000	-15485.580000	-1428.210000	-10141.830000	59.233942	30.813061	-92.377401	-59.082635	-41.108019	-9.540779	16.648150	37.374527	-49.289800	-11.689160	15.473640	0.854063	-0.130554	0.360106	-1.000000	-1.000000	-1.000000	-1.000000	-1.000000	-1.000000	-1.000000	70.068966	0.000000	-1.000000	-1.000000	2551037.000000	1770066599.554778
-22176.315000	-16282.395000	-20675.565000	-14575.365000	-25379.820000	-15498.000000	-1459.845000	-10160.595000	11.045911	33.234244	-57.955145	-43.133894	-35.134759	-13.537309	-9.883494	-3.329342	-49.289800	-11.689160	15.473640	0.854063	-0.130554	0.360106	-1.000000	-1.000000	-1.000000	-1.000000	-1.000000	-1.000000	-1.000000	70.068966	0.000000	-1.000000	-1.000000	2551038.000000	1770066599.554792
-22163.625000	-16298.595000	-20742.570000	-14614.785000	-25436.790000	-15541.515000	-1471.500000	-10116.360000	-37.806599	18.949836	0.702451	-12.803312	-21.782795	-14.217912	-28.389524	-37.724744	-49.289800	-11.689160	15.473640	0.854063	-0.130554	0.360106	-1.000000	-1.000000	-1.000000	-1.000000	-1.000000	-1.000000	-1.000000	70.068966	0.000000	-1.000000	-1.000000	2551039.000000	1770066599.565079
-22225.230000	-16427.430000	-20918.880000	-14760.450000	-25566.930000	-15650.235000	-1509.480000	-10156.815000	-67.033073	-0.116204	50.038777	14.990364	-4.744936	-12.938616	-34.871563	-49.557027	-49.289800	-11.689160	15.473640	0.854063	-0.130554	0.360106	-1.000000	-1.000000	-1.000000	-1.000000	-1.000000	-1.000000	-1.000000	70.068966	0.000000	-1.000000	-1.000000	2551040.000000	1770066599.565089
-22232.160000	-16377.480000	-20952.810000	-14814.675000	-25589.115000	-15633.765000	-1471.680000	-10136.295000	-72.061957	-16.632503	63.040300	26.574149	10.062597	-10.624221	-29.977407	-41.204930	-14.909020	-1.266580	11.765460	0.898740	-0.156433	0.344970	-1.000000	-1.000000	-1.000000	-1.000000	-1.000000	-1.000000	-1.000000	70.068966	0.000000	-1.000000	-1.000000	2551041.000000	1770066599.565336
-22126.365000	-16233.345000	-20918.655000	-14778.450000	-25487.370000	-15567.705000	-1497.375000	-10077.345000	-58.408429	-23.029268	40.750244	22.677549	22.729577	-3.691411	-17.701569	-24.807994	-14.909020	-1.266580	11.765460	0.898740	-0.156433	0.344970	-1.000000	-1.000000	-1.000000	-1.000000	-1.000000	-1.000000	-1.000000	70.068966	0.000000	-1.000000	-1.000000	2551042.000000	1770066599.565342
-22170.915000	-16323.885000	-20933.010000	-14788.260000	-25425.720000	-15556.725000	-1546.740000	-10126.260000	-28.930364	-13.455127	7.554718	15.514166	38.765189	11.666588	-3.817333	-7.087491	-14.909020	-1.266580	11.765460	0.898740	-0.156433	0.344970	-1.000000	-1.000000	-1.000000	-1.000000	-1.000000	-1.000000	-1.000000	70.068966	0.000000	-1.000000	-1.000000	2551043.000000	1770066599.566825
-22204.980000	-16366.680000	-20855.070000	-14687.685000	-25295.805000	-15520.455000	-1579.455000	-10154.700000	8.456159	-0.045354	-14.065622	14.147064	57.749698	31.169756	7.263582	8.921739	-14.909020	-1.266580	11.765460	0.898740	-0.156433	0.344970	-1.000000	-1.000000	-1.000000	-1.000000	-1.000000	-1.000000	-1.000000	70.068966	0.000000	-1.000000	-1.000000	2551044.000000	1770066599.566836
-22272.705000	-16343.280000	-20844.540000	-14597.415000	-25221.330000	-15478.740000	-1564.380000	-10199.880000	37.005354	1.061541	-16.633830	20.072787	70.726899	44.485985	14.406348	18.731856	-14.909020	-1.266580	11.765460	0.898740	-0.156433	0.344970	-1.000000	-1.000000	-1.000000	-1.000000	-1.000000	-1.000000	-1.000000	70.068966	0.000000	-1.000000	-1.000000	2551045.000000	1770066599.573386
-22344.795000	-16332.210000	-20809.755000	-14568.615000	-25240.095000	-15466.005000	-1553.265000	-10260.180000	45.115762	-6.392270	-7.687322	28.639456	66.067580	43.795301	18.870734	19.570808	-14.909020	-1.266580	11.765460	0.898740	-0.156433	0.344970	-1.000000	-1.000000	-1.000000	-1.000000	-1.000000	-1.000000	-1.000000	70.068966	0.000000	-1.000000	-1.000000	2551046.000000	1770066599.573397
-22297.410000	-16362.945000	-20821.995000	-14662.890000	-25362.270000	-15505.020000	-1529.145000	-10225.125000	35.530172	-9.399064	-1.644201	27.694089	34.832498	27.360264	22.242074	13.563730	-14.909020	-1.266580	11.765460	0.898740	-0.156433	0.344970	-1.000000	-1.000000	-1.000000	-1.000000	-1.000000	-1.000000	-1.000000	70.068966	0.000000	-1.000000	-1.000000	2551047.000000	1770066599.574896
-22161.150000	-16431.570000	-20876.265000	-14699.295000	-25376.670000	-15543.090000	-1515.195000	-10110.735000	22.543528	-4.121924	-3.649739	8.226534	-18.715371	0.091577	24.545134	8.245637	-14.909020	-1.266580	11.765460	0.898740	-0.156433	0.344970	-1.000000	-1.000000	-1.000000	-1.000000	-1.000000	-1.000000	-1.000000	70.068966	0.000000	-1.000000	-1.000000	2551048.000000	1770066599.574902
-22103.685000	-16368.480000	-20976.075000	-14707.620000	-25331.265000	-15547.095000	-1531.125000	-10091.970000	19.423005	6.392855	-6.345835	-20.137569	-69.528965	-26.487168	23.198297	10.642518	-14.909020	-1.266580	11.765460	0.898740	-0.156433	0.344970	-1.000000	-1.000000	-1.000000	-1.000000	-1.000000	-1.000000	-1.000000	70.068966	0.000000	-1.000000	-1.000000	2551049.000000	1770066599.585423
-22102.515000	-16277.715000	-20941.965000	-14658.390000	-25304.670000	-15523.200000	-1507.995000	-10120.365000	23.603274	18.602808	-3.547442	-36.830268	-88.874209	-40.858624	14.479191	16.569069	-14.909020	-1.266580	11.765460	0.898740	-0.156433	0.344970	-1.000000	-1.000000	-1.000000	-1.000000	-1.000000	-1.000000	-1.000000	70.068966	0.000000	-1.000000	-1.000000	2551050.000000	1770066599.585435
-22104.630000	-16284.690000	-20879.235000	-14640.390000	-25280.820000	-15459.570000	-1427.580000	-10104.300000	19.954771	26.737241	4.223788	-31.976103	-70.873356	-39.158401	0.285720	14.389674	41.003620	13.230420	4.257540	0.937681	-0.261413	0.284423	-1.000000	-1.000000	-1.000000	-1.000000	-1.000000	-1.000000	-1.000000	70.068966	0.000000	-1.000000	-1.000000	2551051.000000	1770066599.585573
-22164.570000	-16362.180000	-20811.375000	-14616.360000	-25275.060000	-15447.105000	-1412.910000	-10112.040000	0.234971	23.327715	14.136689	-13.213588	-33.664142	-24.579932	-9.838464	1.677164	41.003620	13.230420	4.257540	0.937681	-0.261413	0.284423	-1.000000	-1.000000	-1.000000	-1.000000	-1.000000	-1.000000	-1.000000	70.068966	0.000000	-1.000000	-1.000000	2551052.000000	1770066599.585583
-22154.355000	-16293.645000	-20798.100000	-14616.540000	-25311.555000	-15475.815000	-1450.260000	-10144.215000	-27.377340	7.465945	21.163909	3.378047	-1.049361	-5.525695	-10.793915	-12.810057	41.003620	13.230420	4.257540	0.937681	-0.261413	0.284423	-1.000000	-1.000000	-1.000000	-1.000000	-1.000000	-1.000000	-1.000000	70.068966	0.000000	-1.000000	-1.000000	2551053.000000	1770066599.586828
-22128.120000	-16239.465000	-20838.420000	-14634.630000	-25396.470000	-15507.630000	-1401.390000	-10132.875000	-45.135834	-10.543993	17.960020	5.820086	12.425721	6.909385	-8.259264	-20.168195	41.003620	13.230420	4.257540	0.937681	-0.261413	0.284423	-1.000000	-1.000000	-1.000000	-1.000000	-1.000000	-1.000000	-1.000000	70.068966	0.000000	-1.000000	-1.000000	2551054.000000	1770066599.586833
-22115.925000	-16336.170000	-21024.315000	-14763.825000	-25496.235000	-15543.090000	-1410.345000	-10115.235000	-40.125533	-20.035477	-1.536575	-6.616658	7.806257	7.219328	-8.591793	-16.656263	41.003620	13.230420	4.257540	0.937681	-0.261413	0.284423	-1.000000	-1.000000	-1.000000	-1.000000	-1.000000	-1.000000	-1.000000	70.068966	0.000000	-1.000000	-1.000000	2551055.000000	1770066599.592410
-22090.725000	-16471.305000	-21086.505000	-14836.365000	-25550.640000	-15564.960000	-1429.155000	-10105.290000	-16.972689	-22.264251	-33.985238	-24.128950	-1.345726	0.413914	-12.664669	-6.056506	41.003620	13.230420	4.257540	0.937681	-0.261413	0.284423	-1.000000	-1.000000	-1.000000	-1.000000	-1.000000	-1.000000	-1.000000	70.068966	0.000000	-1.000000	-1.000000	2551056.000000	1770066599.592420
-22092.930000	-16388.595000	-20951.190000	-14811.255000	-25570.530000	-15610.410000	-1448.595000	-10085.130000	5.569910	-21.891113	-56.849666	-30.968708	-0.927400	-3.722496	-18.155320	1.810653	41.003620	13.230420	4.257540	0.937681	-0.261413	0.284423	-1.000000	-1.000000	-1.000000	-1.000000	-1.000000	-1.000000	-1.000000	70.068966	0.000000	-1.000000	-1.000000	2551057.000000	1770066599.601889
-22141.440000	-16401.780000	-20878.560000	-14704.785000	-25421.895000	-15542.145000	-1490.040000	-10073.115000	11.853104	-17.107376	-42.028313	-14.882653	13.904025	0.335107	-21.590535	1.266951	41.003620	13.230420	4.257540	0.937681	-0.261413	0.284423	-1.000000	-1.000000	-1.000000	-1.000000	-1.000000	-1.000000	-1.000000	70.068966	0.000000	-1.000000	-1.000000	2551058.000000	1770066599.601902
-22263.480000	-16455.105000	-20981.385000	-14739.930000	-25381.215000	-15522.705000	-1523.970000	-10176.975000	-0.233705	-8.874232	7.726321	19.737487	37.827558	10.574725	-21.238516	-5.338713	41.003620	13.230420	4.257540	0.937681	-0.261413	0.284423	-1.000000	-1.000000	-1.000000	-1.000000	-1.000000	-1.000000	-1.000000	70.068966	0.000000	-1.000000	-1.000000	2551059.000000	1770066599.602232
-22257.360000	-16339.680000	-20788.695000	-14612.940000	-25285.905000	-15498.090000	-1520.865000	-10212.795000	-19.857767	-0.850857	56.327670	52.423072	57.913460	19.656948	-17.235663	-13.817051	41.003620	13.230420	4.257540	0.937681	-0.261413	0.284423	-1.000000	-1.000000	-1.000000	-1.000000	-1.000000	-1.000000	-1.000000	70.068966	0.000000	-1.000000	-1.000000	2551060.000000	1770066599.602239
-22213.305000	-16179.930000	-20745.900000	-14599.980000	-25313.490000	-15524.370000	-1552.365000	-10170.360000	-28.137790	12.446720	74.217393	64.618409	60.043889	20.524371	-8.592409	-18.240261	55.775300	-4.654300	-7.691040	0.910825	-0.293090	0.266784	-1.000000	-1.000000	-1.000000	-1.000000	-1.000000	-1.000000	-1.000000	70.068966	0.000000	-1.000000	-1.000000	2551061.000000	1770066599.606575
-22163.625000	-16226.190000	-20932.380000	-14714.550000	-25427.970000	-15588.450000	-1607.940000	-10140.930000	-11.865796	33.516728	55.357165	48.961322	36.959578	11.193905	4.353805	-10.475656	55.775300	-4.654300	-7.691040	0.910825	-0.293090	0.266784	-1.000000	-1.000000	-1.000000	-1.000000	-1.000000	-1.000000	-1.000000	70.068966	0.000000	-1.000000	-1.000000	2551062.000000	1770066599.606590
-22177.980000	-16341.165000	-21003.030000	-14755.230000	-25446.780000	-15620.220000	-1600.425000	-10144.440000	22.380904	45.669479	7.787215	9.235865	-5.129778	-4.623548	16.677697	9.950689	55.775300	-4.654300	-7.691040	0.910825	-0.293090	0.266784	-1.000000	-1.000000	-1.000000	-1.000000	-1.000000	-1.000000	-1.000000	70.068966	0.000000	-1.000000	-1.000000	2551063.000000	1770066599.606769
-22148.595000	-16392.510000	-20869.380000	-14693.715000	-25385.400000	-15576.660000	-1534.950000	-10124.145000	52.474114	32.196583	-42.626635	-34.010532	-43.882903	-17.854281	24.669991	31.060585	55.775300	-4.654300	-7.691040	0.910825	-0.293090	0.266784	-1.000000	-1.000000	-1.000000	-1.000000	-1.000000	-1.000000	-1.000000	70.068966	0.000000	-1.000000	-1.000000	2551064.000000	1770066599.606779
-22155.570000	-16432.920000	-20873.520000	-14671.665000	-25325.640000	-15515.415000	-1435.005000	-10111.680000	58.553622	-0.052555	-61.891748	-52.702276	-54.812940	-17.558667	31.029884	38.479006	55.775300	-4.654300	-7.691040	0.910825	-0.293090	0.266784	-1.000000	-1.000000	-1.000000	-1.000000	-1.000000	-1.000000	-1.000000	70.068966	0.000000	-1.000000	-1.000000	2551065.000000	1770066599.610865
-22112.280000	-16323.705000	-20881.575000	-14708.970000	-25357.095000	-15495.435000	-1372.545000	-10104.840000	37.320088	-29.753186	-42.583403	-39.096033	-35.213669	-1.103583	38.877166	27.146937	55.775300	-4.654300	-7.691040	0.910825	-0.293090	0.266784	-1.000000	-1.000000	-1.000000	-1.000000	-1.000000	-1.000000	-1.000000	70.068966	0.000000	-1.000000	-1.000000	2551066.000000	1770066599.610875
-22115.070000	-16284.600000	-20940.705000	-14712.435000	-25349.715000	-15494.220000	-1405.845000	-10075.095000	3.555638	-40.069144	-8.956984	-12.525041	-7.853436	19.088281	43.345948	4.704185	55.775300	-4.654300	-7.691040	0.910825	-0.293090	0.266784	-1.000000	-1.000000	-1.000000	-1.000000	-1.000000	-1.000000	-1.000000	70.068966	0.000000	-1.000000	-1.000000	2551067.000000	1770066599.623868
-22200.930000	-16382.475000	-20925.135000	-14695.065000	-25379.055000	-15566.580000	-1589.175000	-10141.245000	-23.572919	-29.119268	13.133805	4.901652	3.040038	24.409615	31.505005	-14.740139	55.775300	-4.654300	-7.691040	0.910825	-0.293090	0.266784	-1.000000	-1.000000	-1.000000	-1.000000	-1.000000	-1.000000	-1.000000	70.068966	0.000000	-1.000000	-1.000000	2551068.000000	1770066599.623879
-22236.525000	-16385.265000	-20822.850000	-14625.135000	-25344.045000	-15544.440000	-1605.015000	-10174.230000	-36.437563	-11.967338	15.117398	7.054214	-6.295989	7.917146	-4.170189	-23.191247	55.775300	-4.654300	-7.691040	0.910825	-0.293090	0.266784	-1.000000	-1.000000	-1.000000	-1.000000	-1.000000	-1.000000	-1.000000	70.068966	0.000000	-1.000000	-1.000000	2551069.000000	1770066599.623889
-22238.595000	-16335.045000	-20899.665000	-14676.165000	-25358.040000	-15540.300000	-1547.190000	-10146.870000	-38.388397	-4.385515	4.242579	0.843656	-20.056878	-17.627904	-48.225146	-22.601940	55.775300	-4.654300	-7.691040	0.910825	-0.293090	0.266784	-1.000000	-1.000000	-1.000000	-1.000000	-1.000000	-1.000000	-1.000000	70.068966	0.000000	-1.000000	-1.000000	2551070.000000	1770066599.623894
-22298.715000	-16359.300000	-20974.860000	-14707.890000	-25385.715000	-15549.480000	-1545.570000	-10214.550000	-33.903766	-4.960069	-5.621449	-3.804245	-19.539236	-31.613773	-70.655544	-17.798871	7.340060	-6.821220	-6.973820	0.888242	-0.211486	0.299499	-1.000000	-1.000000	-1.000000	-1.000000	-1.000000	-1.000000	-1.000000	70.068966	0.000000	-1.000000	-1.000000	2551071.000000	1770066599.626667
-22391.505000	-16522.245000	-21007.845000	-14729.490000	-25392.870000	-15531.570000	-1533.420000	-10262.880000	-26.095622	-2.964795	-6.021862	-1.643172	-0.614599	-24.574657	-57.431871	-13.067381	7.340060	-6.821220	-6.973820	0.888242	-0.211486	0.299499	-1.000000	-1.000000	-1.000000	-1.000000	-1.000000	-1.000000	-1.000000	70.068966	0.000000	-1.000000	-1.000000	2551072.000000	1770066599.626678
-22205.835000	-16255.305000	-20889.405000	-14682.195000	-25400.340000	-15566.895000	-1535.895000	-10157.400000	-14.983886	8.481652	1.922049	5.779564	23.618909	-4.438196	-21.644473	-9.393471	7.340060	-6.821220	-6.973820	0.888242	-0.211486	0.299499	-1.000000	-1.000000	-1.000000	-1.000000	-1.000000	-1.000000	-1.000000	70.068966	0.000000	-1.000000	-1.000000	2551073.000000	1770066599.626760
-22169.880000	-16188.390000	-20967.750000	-14718.870000	-25440.660000	-15612.660000	-1574.595000	-10166.130000	4.383267	31.587553	12.385216	13.255369	35.780925	12.002597	11.776249	-2.510834	7.340060	-6.821220	-6.973820	0.888242	-0.211486	0.299499	-1.000000	-1.000000	-1.000000	-1.000000	-1.000000	-1.000000	-1.000000	70.068966	0.000000	-1.000000	-1.000000	2551074.000000	1770066599.626766
-22108.770000	-16326.225000	-21072.015000	-14790.780000	-25467.345000	-15608.970000	-1554.075000	-10135.980000	31.342612	53.046907	16.721074	14.495307	27.813927	13.585875	26.257531	9.221182	7.340060	-6.821220	-6.973820	0.888242	-0.211486	0.299499	-1.000000	-1.000000	-1.000000	-1.000000	-1.000000	-1.000000	-1.000000	70.068966	0.000000	-1.000000	-1.000000	2551075.000000	1770066599.630761
-22036.455000	-16357.185000	-20998.035000	-14755.950000	-25414.560000	-15543.900000	-1462.635000	-10062.900000	54.930780	47.285096	10.099915	6.372200	6.137323	4.423500	25.770070	22.031821	7.340060	-6.821220	-6.973820	0.888242	-0.211486	0.299499	-1.000000	-1.000000	-1.000000	-1.000000	-1.000000	-1.000000	-1.000000	70.068966	0.000000	-1.000000	-1.000000	2551076.000000	1770066599.630772
-22092.705000	-16363.710000	-20727.990000	-14589.450000	-25286.220000	-15474.465000	-1423.665000	-10080.675000	63.683463	9.891375	1.735029	-4.580277	-12.264729	-0.955798	27.186769	32.378011	7.340060	-6.821220	-6.973820	0.888242	-0.211486	0.299499	-1.000000	-1.000000	-1.000000	-1.000000	-1.000000	-1.000000	-1.000000	70.068966	0.000000	-1.000000	-1.000000	2551077.000000	1770066599.638685
-22173.300000	-16323.255000	-20697.165000	-14587.020000	-25285.320000	-15487.830000	-1441.935000	-10133.955000	49.108077	-35.245871	4.799790	-7.256743	-13.595305	5.542584	36.101882	34.611989	7.340060	-6.821220	-6.973820	0.888242	-0.211486	0.299499	-1.000000	-1.000000	-1.000000	-1.000000	-1.000000	-1.000000	-1.000000	70.068966	0.000000	-1.000000	-1.000000	2551078.000000	1770066599.638695
-22195.575000	-16319.430000	-20774.340000	-14643.720000	-25362.270000	-15526.080000	-1430.640000	-10167.840000	10.175417	-61.777331	17.696604	0.256131	-0.649060	16.416413	39.038704	21.304726	7.340060	-6.821220	-6.973820	0.888242	-0.211486	0.299499	-1.000000	-1.000000	-1.000000	-1.000000	-1.000000	-1.000000	-1.000000	70.068966	0.000000	-1.000000	-1.000000	2551079.000000	1770066599.638950
-22144.995000	-16276.995000	-20777.535000	-14607.315000	-25352.730000	-15508.125000	-1430.190000	-10119.420000	-36.195295	-56.056094	26.298352	10.033140	11.967761	19.258052	23.333276	-4.178152	7.340060	-6.821220	-6.973820	0.888242	-0.211486	0.299499	-1.000000	-1.000000	-1.000000	-1.000000	-1.000000	-1.000000	-1.000000	70.068966	0.000000	-1.000000	-1.000000	2551080.000000	1770066599.638957
-22144.995000	-16374.015000	-20914.425000	-14705.325000	-25429.365000	-15526.665000	-1490.220000	-10079.055000	-64.059163	-22.047456	17.262144	13.107897	12.898606	10.194337	-8.292222	-26.087270	-29.543360	3.525060	13.093080	0.914426	-0.137024	0.301269	-1.000000	-1.000000	-1.000000	-1.000000	-1.000000	-1.000000	-1.000000	70.068966	0.000000	-1.000000	-1.000000	2551081.000000	1770066599.642937
-22186.755000	-16430.580000	-21028.905000	-14847.840000	-25566.300000	-15630.165000	-1562.715000	-10131.660000	-64.207263	14.248086	-14.596778	2.189818	-1.001099	-6.546116	-43.210712	-34.070054	-29.543360	3.525060	13.093080	0.914426	-0.137024	0.301269	-1.000000	-1.000000	-1.000000	-1.000000	-1.000000	-1.000000	-1.000000	70.068966	0.000000	-1.000000	-1.000000	2551082.000000	1770066599.642946
-22180.500000	-16334.145000	-20903.850000	-14776.335000	-25455.285000	-15586.515000	-1556.640000	-10160.325000	-47.618154	26.426090	-54.627179	-20.450323	-22.484085	-23.426638	-66.423498	-31.672462	-29.543360	3.525060	13.093080	0.914426	-0.137024	0.301269	-1.000000	-1.000000	-1.000000	-1.000000	-1.000000	-1.000000	-1.000000	70.068966	0.000000	-1.000000	-1.000000	2551083.000000	1770066599.650262
-22262.040000	-16387.065000	-20816.595000	-14668.785000	-25301.790000	-15509.070000	-1526.040000	-10173.510000	-27.116118	17.492949	-68.977516	-35.046582	-32.004567	-30.420119	-65.466125	-25.766652	-29.543360	3.525060	13.093080	0.914426	-0.137024	0.301269	-1.000000	-1.000000	-1.000000	-1.000000	-1.000000	-1.000000	-1.000000	70.068966	0.000000	-1.000000	-1.000000	2551084.000000	1770066599.650275
-22237.020000	-16315.515000	-20847.015000	-14644.215000	-25277.130000	-15524.190000	-1529.190000	-10176.750000	-8.156898	8.345688	-41.974162	-24.516925	-16.133799	-21.880970	-38.483154	-18.162911	-29.543360	3.525060	13.093080	0.914426	-0.137024	0.301269	-1.000000	-1.000000	-1.000000	-1.000000	-1.000000	-1.000000	-1.000000	70.068966	0.000000	-1.000000	-1.000000	2551085.000000	1770066599.650842
-22219.515000	-16327.665000	-20877.165000	-14623.515000	-25275.780000	-15524.505000	-1522.620000	-10178.415000	11.377524	9.398103	0.061047	1.904369	12.711195	-4.492965	2.479233	-6.595694	-29.543360	3.525060	13.093080	0.914426	-0.137024	0.301269	-1.000000	-1.000000	-1.000000	-1.000000	-1.000000	-1.000000	-1.000000	70.068966	0.000000	-1.000000	-1.000000	2551086.000000	1770066599.650857
-22175.145000	-16331.445000	-20938.455000	-14669.910000	-25335.900000	-15552.855000	-1511.595000	-10152.315000	35.063639	14.540396	23.042838	22.154511	30.378959	10.052746	39.274303	10.601809	-29.543360	3.525060	13.093080	0.914426	-0.137024	0.301269	-1.000000	-1.000000	-1.000000	-1.000000	-1.000000	-1.000000	-1.000000	70.068966	0.000000	-1.000000	-1.000000	2551087.000000	1770066599.657847
-22078.080000	-16325.460000	-20934.180000	-14692.860000	-25373.745000	-15569.505000	-1503.405000	-10090.305000	58.755567	13.531219	23.056593	25.911456	26.457061	16.190888	57.983404	30.540559	-29.543360	3.525060	13.093080	0.914426	-0.137024	0.301269	-1.000000	-1.000000	-1.000000	-1.000000	-1.000000	-1.000000	-1.000000	70.068966	0.000000	-1.000000	-1.000000	2551088.000000	1770066599.657858
-22126.140000	-16336.170000	-20862.540000	-14668.650000	-25360.785000	-15560.190000	-1501.470000	-10102.275000	70.211773	5.306525	18.572313	17.139345	8.091592	14.654208	54.354401	44.731631	-29.543360	3.525060	13.093080	0.914426	-0.137024	0.301269	-1.000000	-1.000000	-1.000000	-1.000000	-1.000000	-1.000000	-1.000000	70.068966	0.000000	-1.000000	-1.000000	2551089.000000	1770066599.661733
-22211.415000	-16368.975000	-20846.520000	-14654.970000	-25341.795000	-15561.630000	-1500.480000	-10162.035000	55.666777	-3.953227	24.667769	6.801000	-9.111616	9.697832	34.539082	41.845560	-29.543360	3.525060	13.093080	0.914426	-0.137024	0.301269	-1.000000	-1.000000	-1.000000	-1.000000	-1.000000	-1.000000	-1.000000	70.068966	0.000000	-1.000000	-1.000000	2551090.000000	1770066599.661750
-22153.230000	-16262.955000	-20776.140000	-14611.455000	-25294.815000	-15508.620000	-1449.090000	-10129.635000	13.972835	-9.521993	40.212137	4.878186	-12.037501	7.524090	11.096424	19.005709	-29.451800	4.425400	4.043900	0.945676	-0.205139	0.286010	-1.000000	-1.000000	-1.000000	-1.000000	-1.000000	-1.000000	-1.000000	70.068966	0.000000	-1.000000	-1.000000	2551091.000000	1770066599.662862
-22137.885000	-16300.665000	-20894.625000	-14676.075000	-25342.335000	-15530.895000	-1489.770000	-10111.815000	-34.048758	-9.872142	48.194626	9.218812	-3.216549	9.413225	-6.469863	-10.575754	-29.451800	4.425400	4.043900	0.945676	-0.205139	0.286010	-1.000000	-1.000000	-1.000000	-1.000000	-1.000000	-1.000000	-1.000000	70.068966	0.000000	-1.000000	-1.000000	2551092.000000	1770066599.662880
-22147.515000	-16312.995000	-20960.730000	-14725.665000	-25433.415000	-15599.070000	-1561.095000	-10122.030000	-61.604856	-6.844826	28.792921	5.334840	-0.867342	7.099454	-18.976695	-29.849590	-29.451800	4.425400	4.043900	0.945676	-0.205139	0.286010	-1.000000	-1.000000	-1.000000	-1.000000	-1.000000	-1.000000	-1.000000	70.068966	0.000000	-1.000000	-1.000000	2551093.000000	1770066599.666862
-22115.520000	-16275.240000	-20927.520000	-14744.790000	-25486.740000	-15621.030000	-1540.215000	-10116.135000	-57.969844	-4.364585	-17.658471	-15.313226	-17.060078	-6.461774	-30.366778	-32.335217	-29.451800	4.425400	4.043900	0.945676	-0.205139	0.286010	-1.000000	-1.000000	-1.000000	-1.000000	-1.000000	-1.000000	-1.000000	70.068966	0.000000	-1.000000	-1.000000	2551094.000000	1770066599.666870
-22140.720000	-16337.205000	-20947.230000	-14733.315000	-25426.665000	-15587.640000	-1492.200000	-10105.830000	-31.617110	-4.667142	-63.834138	-41.283183	-39.562939	-24.194591	-36.351826	-21.570490	-29.451800	4.425400	4.043900	0.945676	-0.205139	0.286010	-1.000000	-1.000000	-1.000000	-1.000000	-1.000000	-1.000000	-1.000000	70.068966	0.000000	-1.000000	-1.000000	2551095.000000	1770066599.670893
-22242.915000	-16526.925000	-21150.900000	-14844.915000	-25440.345000	-15592.815000	-1493.730000	-10114.335000	-2.629290	-10.067472	-80.981623	-51.647559	-42.424844	-30.481601	-29.464347	-5.970321	-29.451800	4.425400	4.043900	0.945676	-0.205139	0.286010	-1.000000	-1.000000	-1.000000	-1.000000	-1.000000	-1.000000	-1.000000	70.068966	0.000000	-1.000000	-1.000000	2551096.000000	1770066599.670901
-22207.005000	-16494.840000	-21207.330000	-14833.935000	-25389.630000	-15568.020000	-1528.515000	-10150.290000	10.711232	-21.111806	-65.382269	-37.306737	-14.003815	-18.002668	-11.561140	4.592479	-29.451800	4.425400	4.043900	0.945676	-0.205139	0.286010	-1.000000	-1.000000	-1.000000	-1.000000	-1.000000	-1.000000	-1.000000	70.068966	0.000000	-1.000000	-1.000000	2551097.000000	1770066599.679271
-22158.495000	-16363.215000	-21030.165000	-14756.805000	-25388.370000	-15572.970000	-1534.725000	-10167.390000	8.913624	-25.975391	-29.322322	-4.765090	31.093222	5.675812	7.057158	4.886066	-29.451800	4.425400	4.043900	0.945676	-0.205139	0.286010	-1.000000	-1.000000	-1.000000	-1.000000	-1.000000	-1.000000	-1.000000	70.068966	0.000000	-1.000000	-1.000000	2551098.000000	1770066599.679281
-22198.230000	-16316.460000	-20861.955000	-14718.420000	-25404.840000	-15556.545000	-1490.805000	-10171.980000	6.749110	-9.171564	19.601402	33.635265	65.551268	26.333555	18.643469	-0.941826	-29.451800	4.425400	4.043900	0.945676	-0.205139	0.286010	-1.000000	-1.000000	-1.000000	-1.000000	-1.000000	-1.000000	-1.000000	70.068966	0.000000	-1.000000	-1.000000	2551099.000000	1770066599.679459
-22188.825000	-16324.740000	-20902.140000	-14703.480000	-25376.490000	-15537.510000	-1490.175000	-10170.045000	10.593936	23.721452	70.617561	62.840580	69.307315	33.421217	22.193145	-4.631915	-29.451800	4.425400	4.043900	0.945676	-0.205139	0.286010	-1.000000	-1.000000	-1.000000	-1.000000	-1.000000	-1.000000	-1.000000	70.068966	0.000000	-1.000000	-1.000000	2551100.000000	1770066599.679470
-22123.845000	-16192.980000	-20728.125000	-14609.295000	-25317.450000	-15529.005000	-1527.345000	-10153.125000	15.893689	51.013619	102.390157	70.310767	42.777179	25.155108	19.320177	-2.295469	-5.630940	-6.332900	-12.787880	0.932798	-0.262939	0.289001	-1.000000	-1.000000	-1.000000	-1.000000	-1.000000	-1.000000	-1.000000	70.068966	0.000000	-1.000000	-1.000000	2551101.000000	1770066599.684232
-22145.805000	-16284.870000	-20736.990000	-14621.130000	-25330.680000	-15553.620000	-1531.440000	-10137.195000	18.956996	57.717823	99.988670	54.574961	4.735998	8.208566	12.056558	4.943858	-5.630940	-6.332900	-12.787880	0.932798	-0.262939	0.289001	-1.000000	-1.000000	-1.000000	-1.000000	-1.000000	-1.000000	-1.000000	70.068966	0.000000	-1.000000	-1.000000	2551102.000000	1770066599.684245
-22207.275000	-16316.955000	-20781.765000	-14626.665000	-25323.300000	-15559.425000	-1529.415000	-10142.055000	16.504536	38.593747	61.730824	22.193078	-25.315488	-8.598644	2.755994	13.320906	-5.630940	-6.332900	-12.787880	0.932798	-0.262939	0.289001	-1.000000	-1.000000	-1.000000	-1.000000	-1.000000	-1.000000	-1.000000	70.068966	0.000000	-1.000000	-1.000000	2551103.000000	1770066599.686925
-22245.840000	-16335.495000	-20810.160000	-14629.860000	-25326.180000	-15566.355000	-1527.615000	-10153.440000	5.573175	0.642206	-1.058862	-16.085108	-39.579749	-19.939723	-6.708974	17.402128	-5.630940	-6.332900	-12.787880	0.932798	-0.262939	0.289001	-1.000000	-1.000000	-1.000000	-1.000000	-1.000000	-1.000000	-1.000000	70.068966	0.000000	-1.000000	-1.000000	2551104.000000	1770066599.686935
-22177.305000	-16310.475000	-20814.930000	-14630.445000	-25353.945000	-15555.960000	-1533.690000	-10130.760000	-8.780914	-33.678146	-60.451028	-45.060366	-39.695716	-23.531862	-13.845364	13.920227	-5.630940	-6.332900	-12.787880	0.932798	-0.262939	0.289001	-1.000000	-1.000000	-1.000000	-1.000000	-1.000000	-1.000000	-1.000000	70.068966	0.000000	-1.000000	-1.000000	2551105.000000	1770066599.690912
-22128.750000	-16309.440000	-20875.005000	-14662.890000	-25400.340000	-15568.605000	-1522.305000	-10119.870000	-15.868721	-45.782294	-90.434902	-54.711001	-31.978552	-19.394855	-14.950154	5.614280	-5.630940	-6.332900	-12.787880	0.932798	-0.262939	0.289001	-1.000000	-1.000000	-1.000000	-1.000000	-1.000000	-1.000000	-1.000000	70.068966	0.000000	-1.000000	-1.000000	2551106.000000	1770066599.690920
-22146.795000	-16342.200000	-20920.455000	-14690.430000	-25406.865000	-15579.765000	-1504.665000	-10121.670000	-11.386591	-38.589775	-90.391517	-48.716820	-22.613893	-10.479162	-8.514386	-1.771445	-5.630940	-6.332900	-12.787880	0.932798	-0.262939	0.289001	-1.000000	-1.000000	-1.000000	-1.000000	-1.000000	-1.000000	-1.000000	70.068966	0.000000	-1.000000	-1.000000	2551107.000000	1770066599.694931
-22173.615000	-16391.790000	-20962.530000	-14720.850000	-25397.820000	-15590.295000	-1518.345000	-10128.015000	-1.553950	-27.213625	-75.849249	-36.738477	-12.838379	-1.410858	1.272600	-5.618330	-5.630940	-6.332900	-12.787880	0.932798	-0.262939	0.289001	-1.000000	-1.000000	-1.000000	-1.000000	-1.000000	-1.000000	-1.000000	70.068966	0.000000	-1.000000	-1.000000	2551108.000000	1770066599.694940
-22167.540000	-16396.020000	-20919.240000	-14705.550000	-25394.580000	-15588.045000	-1516.545000	-10124.280000	4.066822	-20.491673	-54.088968	-23.764667	-1.861047	4.065471	7.787210	-7.449617	-5.630940	-6.332900	-12.787880	0.932798	-0.262939	0.289001	-1.000000	-1.000000	-1.000000	-1.000000	-1.000000	-1.000000	-1.000000	70.068966	0.000000	-1.000000	-1.000000	2551109.000000	1770066599.700433
-22211.235000	-16359.480000	-20904.570000	-14680.170000	-25349.805000	-15549.255000	-1493.685000	-10153.440000	0.745797	-15.435119	-22.455528	-9.299060	9.299052	6.404081	9.412480	-9.552888	-5.630940	-6.332900	-12.787880	0.932798	-0.262939	0.289001	-1.000000	-1.000000	-1.000000	-1.000000	-1.000000	-1.000000	-1.000000	70.068966	0.000000	-1.000000	-1.000000	2551110.000000	1770066599.700442
-22216.770000	-16269.570000	-20819.385000	-14620.590000	-25282.575000	-15504.975000	-1484.325000	-10159.335000	-8.352252	-2.825187	18.208799	8.636101	20.339951	10.101093	9.059982	-12.388172	3.616620	0.000000	-3.937080	0.933103	-0.238403	0.297240	-1.000000	-1.000000	-1.000000	-1.000000	-1.000000	-1.000000	-1.000000	70.068966	0.000000	-1.000000	-1.000000	2551111.000000	1770066599.703008
-22198.680000	-16282.980000	-20795.220000	-14596.425000	-25241.490000	-15491.475000	-1510.920000	-10168.560000	-13.735322	21.899801	60.253982	29.475424	31.019687	16.989944	7.172248	-13.869329	3.616620	0.000000	-3.937080	0.933103	-0.238403	0.297240	-1.000000	-1.000000	-1.000000	-1.000000	-1.000000	-1.000000	-1.000000	70.068966	0.000000	-1.000000	-1.000000	2551112.000000	1770066599.703014
-22195.125000	-16282.665000	-20796.210000	-14597.190000	-25264.980000	-15510.420000	-1524.015000	-10185.660000	-7.761795	49.158143	91.418128	47.161623	36.789749	21.920682	1.516399	-11.395535	3.616620	0.000000	-3.937080	0.933103	-0.238403	0.297240	-1.000000	-1.000000	-1.000000	-1.000000	-1.000000	-1.000000	-1.000000	70.068966	0.000000	-1.000000	-1.000000	2551113.000000	1770066599.707147
-22161.150000	-16336.305000	-20846.475000	-14644.440000	-25330.320000	-15553.395000	-1523.520000	-10130.040000	6.003919	60.169827	97.295235	51.823322	30.423218	17.296218	-6.934508	-4.338463	3.616620	0.000000	-3.937080	0.933103	-0.238403	0.297240	-1.000000	-1.000000	-1.000000	-1.000000	-1.000000	-1.000000	-1.000000	70.068966	0.000000	-1.000000	-1.000000	2551114.000000	1770066599.707158
-22188.600000	-16360.740000	-20908.845000	-14701.680000	-25370.505000	-15574.185000	-1522.755000	-10128.240000	16.112344	42.846199	69.378353	36.588987	9.512137	1.312198	-13.340467	6.195380	3.616620	0.000000	-3.937080	0.933103	-0.238403	0.297240	-1.000000	-1.000000	-1.000000	-1.000000	-1.000000	-1.000000	-1.000000	70.068966	0.000000	-1.000000	-1.000000	2551115.000000	1770066599.710921
-22212.765000	-16321.905000	-20892.555000	-14713.245000	-25378.515000	-15573.780000	-1525.320000	-10169.730000	15.347880	4.333856	15.004666	5.264472	-18.378659	-18.410402	-14.152029	16.211684	3.616620	0.000000	-3.937080	0.933103	-0.238403	0.297240	-1.000000	-1.000000	-1.000000	-1.000000	-1.000000	-1.000000	-1.000000	70.068966	0.000000	-1.000000	-1.000000	2551116.000000	1770066599.710928
-22189.275000	-16301.745000	-20848.545000	-14676.930000	-25350.030000	-15561.720000	-1519.245000	-10173.555000	6.183984	-32.128614	-41.303954	-26.712439	-39.430054	-30.296840	-9.394260	19.277561	3.616620	0.000000	-3.937080	0.933103	-0.238403	0.297240	-1.000000	-1.000000	-1.000000	-1.000000	-1.000000	-1.000000	-1.000000	70.068966	0.000000	-1.000000	-1.000000	2551117.000000	1770066599.714855
-22134.510000	-16335.495000	-20864.790000	-14669.955000	-25349.670000	-15558.660000	-1496.205000	-10122.570000	-2.843794	-47.694424	-73.871988	-42.994492	-43.278912	-27.944930	-0.779791	13.719957	3.616620	0.000000	-3.937080	0.933103	-0.238403	0.297240	-1.000000	-1.000000	-1.000000	-1.000000	-1.000000	-1.000000	-1.000000	70.068966	0.000000	-1.000000	-1.000000	2551118.000000	1770066599.714865
-22155.930000	-16346.565000	-20904.300000	-14701.500000	-25386.795000	-15584.130000	-1511.955000	-10105.470000	-4.674586	-42.255628	-75.113291	-39.325219	-30.632417	-14.548687	8.480754	5.602509	3.616620	0.000000	-3.937080	0.933103	-0.238403	0.297240	-1.000000	-1.000000	-1.000000	-1.000000	-1.000000	-1.000000	-1.000000	70.068966	0.000000	-1.000000	-1.000000	2551119.000000	1770066599.718984
-22140.855000	-16334.100000	-20916.540000	-14715.675000	-25391.880000	-15591.555000	-1530.450000	-10118.340000	0.282558	-26.480443	-54.759868	-24.138779	-11.877035	0.367268	13.342350	0.732223	3.616620	0.000000	-3.937080	0.933103	-0.238403	0.297240	-1.000000	-1.000000	-1.000000	-1.000000	-1.000000	-1.000000	-1.000000	70.068966	0.000000	-1.000000	-1.000000	2551120.000000	1770066599.718992
-22140.540000	-16310.385000	-20978.640000	-14767.290000	-25428.555000	-15598.485000	-1508.940000	-10119.330000	5.941207	-7.900758	-26.192049	-8.316362	2.907332	9.475652	11.347105	-1.217214	5.127360	4.974760	5.707240	0.956235	-0.236999	0.291442	-1.000000	-1.000000	-1.000000	-1.000000	-1.000000	-1.000000	-1.000000	70.068966	0.000000	-1.000000	-1.000000	2551121.000000	1770066599.722941
-22151.970000	-16283.475000	-21074.175000	-14818.680000	-25503.570000	-15614.370000	-1475.820000	-10127.385000	6.270646	11.175896	0.356008	2.434535	10.680919	12.391180	6.154744	-3.455424	5.127360	4.974760	5.707240	0.956235	-0.236999	0.291442	-1.000000	-1.000000	-1.000000	-1.000000	-1.000000	-1.000000	-1.000000	70.068966	0.000000	-1.000000	-1.000000	2551122.000000	1770066599.722952
-22133.655000	-16258.725000	-20936.880000	-14738.670000	-25451.505000	-15587.370000	-1473.525000	-10126.125000	-0.870352	28.077546	21.050207	9.789553	14.844185	13.006843	2.809718	-7.980516	5.127360	4.974760	5.707240	0.956235	-0.236999	0.291442	-1.000000	-1.000000	-1.000000	-1.000000	-1.000000	-1.000000	-1.000000	70.068966	0.000000	-1.000000	-1.000000	2551123.000000	1770066599.732341
-22207.230000	-16290.810000	-20765.430000	-14652.810000	-25336.980000	-15560.370000	-1538.730000	-10166.355000	-11.763550	36.818038	41.298239	20.791739	22.470456	14.930900	0.883407	-13.775700	5.127360	4.974760	5.707240	0.956235	-0.236999	0.291442	-1.000000	-1.000000	-1.000000	-1.000000	-1.000000	-1.000000	-1.000000	70.068966	0.000000	-1.000000	-1.000000	2551124.000000	1770066599.732351
-22246.020000	-16318.620000	-20757.645000	-14606.415000	-25264.080000	-15546.960000	-1577.970000	-10202.220000	-20.343575	30.609285	63.154246	37.321096	36.467452	17.779049	-4.278493	-17.297288	5.127360	4.974760	5.707240	0.956235	-0.236999	0.291442	-1.000000	-1.000000	-1.000000	-1.000000	-1.000000	-1.000000	-1.000000	70.068966	0.000000	-1.000000	-1.000000	2551125.000000	1770066599.732552
-22228.065000	-16390.665000	-20855.745000	-14633.190000	-25260.930000	-15538.545000	-1562.310000	-10188.090000	-22.923487	8.495752	70.927002	48.047597	47.743065	17.164006	-13.181653	-15.697531	5.127360	4.974760	5.707240	0.956235	-0.236999	0.291442	-1.000000	-1.000000	-1.000000	-1.000000	-1.000000	-1.000000	-1.000000	70.068966	0.000000	-1.000000	-1.000000	2551126.000000	1770066599.732562
-22179.195000	-16448.445000	-20889.765000	-14654.790000	-25295.760000	-15543.270000	-1525.905000	-10132.920000	-17.154345	-20.852785	46.307257	38.326025	41.618488	9.701845	-18.909745	-8.205873	5.127360	4.974760	5.707240	0.956235	-0.236999	0.291442	-1.000000	-1.000000	-1.000000	-1.000000	-1.000000	-1.000000	-1.000000	70.068966	0.000000	-1.000000	-1.000000	2551127.000000	1770066599.737865
-22139.820000	-16347.015000	-20866.230000	-14645.880000	-25300.710000	-15555.645000	-1531.800000	-10118.070000	-1.608733	-41.752379	-4.833007	7.471725	13.353926	-3.195191	-14.411455	4.258801	5.127360	4.974760	5.707240	0.956235	-0.236999	0.291442	-1.000000	-1.000000	-1.000000	-1.000000	-1.000000	-1.000000	-1.000000	70.068966	0.000000	-1.000000	-1.000000	2551128.000000	1770066599.737878
-22131.180000	-16265.610000	-20865.555000	-14663.340000	-25322.940000	-15568.515000	-1538.370000	-10125.630000	19.542484	-39.026246	-53.670813	-28.716386	-25.742275	-16.495164	-0.728924	17.691862	5.127360	4.974760	5.707240	0.956235	-0.236999	0.291442	-1.000000	-1.000000	-1.000000	-1.000000	-1.000000	-1.000000	-1.000000	70.068966	0.000000	-1.000000	-1.000000	2551129.000000	1770066599.741184
-22213.395000	-16374.420000	-20911.230000	-14670.450000	-25321.995000	-15557.490000	-1524.015000	-10142.820000	34.365995	-12.688066	-73.457350	-50.941336	-55.809265	-24.328324	13.651569	25.233583	5.127360	4.974760	5.707240	0.956235	-0.236999	0.291442	-1.000000	-1.000000	-1.000000	-1.000000	-1.000000	-1.000000	-1.000000	70.068966	0.000000	-1.000000	-1.000000	2551130.000000	1770066599.741191
-22175.010000	-16402.365000	-20934.495000	-14674.725000	-25315.290000	-15546.555000	-1516.230000	-10136.520000	31.658116	16.742980	-58.556502	-49.605933	-61.013412	-22.541361	20.345760	21.904954	7.446880	2.533160	0.457800	0.953245	-0.241760	0.294738	-1.000000	-1.000000	-1.000000	-1.000000	-1.000000	-1.000000	-1.000000	70.068966	0.000000	-1.000000	-1.000000	2551131.000000	1770066599.744158
-22165.695000	-16342.335000	-20898.090000	-14678.820000	-25337.880000	-15563.115000	-1522.080000	-10141.965000	13.511399	29.604818	-25.142282	-30.158415	-41.321283	-12.280925	17.185250	9.331736	7.446880	2.533160	0.457800	0.953245	-0.241760	0.294738	-1.000000	-1.000000	-1.000000	-1.000000	-1.000000	-1.000000	-1.000000	70.068966	0.000000	-1.000000	-1.000000	2551132.000000	1770066599.744164
-22159.305000	-16252.515000	-20891.025000	-14701.230000	-25385.715000	-15597.720000	-1536.705000	-10146.060000	-5.646673	26.909506	3.766890	-7.801963	-13.836677	-0.818745	8.476121	-4.723872	7.446880	2.533160	0.457800	0.953245	-0.241760	0.294738	-1.000000	-1.000000	-1.000000	-1.000000	-1.000000	-1.000000	-1.000000	70.068966	0.000000	-1.000000	-1.000000	2551133.000000	1770066599.746970
-22128.705000	-16268.940000	-20939.670000	-14733.180000	-25429.500000	-15618.465000	-1539.135000	-10145.475000	-13.621160	20.850443	16.308718	5.083923	2.593306	4.380464	0.111828	-12.507958	7.446880	2.533160	0.457800	0.953245	-0.241760	0.294738	-1.000000	-1.000000	-1.000000	-1.000000	-1.000000	-1.000000	-1.000000	70.068966	0.000000	-1.000000	-1.000000	2551134.000000	1770066599.746976
-22160.295000	-16357.275000	-20968.200000	-14754.375000	-25462.440000	-15625.575000	-1515.015000	-10145.520000	-10.882748	15.904885	16.304491	7.157928	3.926212	2.386217	-5.281611	-12.811494	7.446880	2.533160	0.457800	0.953245	-0.241760	0.294738	-1.000000	-1.000000	-1.000000	-1.000000	-1.000000	-1.000000	-1.000000	70.068966	0.000000	-1.000000	-1.000000	2551135.000000	1770066599.751084
-22130.955000	-16246.845000	-20845.125000	-14678.640000	-25403.940000	-15590.610000	-1448.460000	-10143.675000	-6.626689	8.479104	15.214515	6.606087	1.499842	-0.866877	-7.266785	-10.378115	7.446880	2.533160	0.457800	0.953245	-0.241760	0.294738	-1.000000	-1.000000	-1.000000	-1.000000	-1.000000	-1.000000	-1.000000	70.068966	0.000000	-1.000000	-1.000000	2551136.000000	1770066599.751095
-22093.290000	-16219.620000	-20845.305000	-14654.430000	-25339.815000	-15539.535000	-1411.245000	-10113.885000	-6.421831	-2.589864	20.915243	12.333375	9.051660	2.012166	-4.529014	-8.485228	7.446880	2.533160	0.457800	0.953245	-0.241760	0.294738	-1.000000	-1.000000	-1.000000	-1.000000	-1.000000	-1.000000	-1.000000	70.068966	0.000000	-1.000000	-1.000000	2551137.000000	1770066599.756120
-22132.755000	-16353.000000	-20891.745000	-14676.795000	-25341.120000	-15579.045000	-1547.910000	-10113.345000	-7.868574	-16.193632	29.474689	24.158583	28.617728	11.991123	0.393485	-5.389434	7.446880	2.533160	0.457800	0.953245	-0.241760	0.294738	-1.000000	-1.000000	-1.000000	-1.000000	-1.000000	-1.000000	-1.000000	70.068966	0.000000	-1.000000	-1.000000	2551138.000000	1770066599.756128
-22208.805000	-16437.105000	-20877.345000	-14687.145000	-25348.275000	-15618.510000	-1603.755000	-10149.345000	-8.108467	-31.291502	30.770378	32.645470	47.762624	20.338813	-1.963175	0.113395	7.446880	2.533160	0.457800	0.953245	-0.241760	0.294738	-1.000000	-1.000000	-1.000000	-1.000000	-1.000000	-1.000000	-1.000000	70.068966	0.000000	-1.000000	-1.000000	2551139.000000	1770066599.759019
-22186.890000	-16330.230000	-20861.550000	-14664.105000	-25339.365000	-15583.455000	-1539.630000	-10149.840000	-8.190184	-40.819564	20.423014	29.126789	50.924082	17.960514	-14.246184	4.800110	7.446880	2.533160	0.457800	0.953245	-0.241760	0.294738	-1.000000	-1.000000	-1.000000	-1.000000	-1.000000	-1.000000	-1.000000	70.068966	0.000000	-1.000000	-1.000000	2551140.000000	1770066599.759026
-22176.270000	-16315.290000	-20869.920000	-14685.705000	-25363.440000	-15576.930000	-1520.415000	-10144.125000	-7.664252	-34.390022	0.401261	13.088289	32.422910	6.522490	-23.345178	6.043029	1.648080	4.471180	4.379620	0.946653	-0.229492	0.287902	-1.000000	-1.000000	-1.000000	-1.000000	-1.000000	-1.000000	-1.000000	70.068966	0.000000	-1.000000	-1.000000	2551141.000000	1770066599.766392
-22184.595000	-16312.995000	-20861.910000	-14686.695000	-25348.275000	-15584.805000	-1542.240000	-10148.175000	-3.245171	-12.151993	-22.982600	-8.692636	0.105716	-5.093276	-16.555026	5.322920	1.648080	4.471180	4.379620	0.946653	-0.229492	0.287902	-1.000000	-1.000000	-1.000000	-1.000000	-1.000000	-1.000000	-1.000000	70.068966	0.000000	-1.000000	-1.000000	2551142.000000	1770066599.766403
-22177.350000	-16321.725000	-20863.800000	-14658.345000	-25293.645000	-15566.310000	-1538.190000	-10148.265000	4.768751	14.723935	-38.057851	-25.697636	-29.172917	-10.708033	2.670124	4.447503	1.648080	4.471180	4.379620	0.946653	-0.229492	0.287902	-1.000000	-1.000000	-1.000000	-1.000000	-1.000000	-1.000000	-1.000000	70.068966	0.000000	-1.000000	-1.000000	2551143.000000	1770066599.767062
-22179.105000	-16345.395000	-20892.195000	-14686.065000	-25324.560000	-15574.770000	-1517.715000	-10147.500000	12.028387	34.939190	-36.372966	-30.006682	-41.085864	-9.969066	20.394601	2.958808	1.648080	4.471180	4.379620	0.946653	-0.229492	0.287902	-1.000000	-1.000000	-1.000000	-1.000000	-1.000000	-1.000000	-1.000000	70.068966	0.000000	-1.000000	-1.000000	2551144.000000	1770066599.767069
-22165.605000	-16309.485000	-20867.580000	-14669.505000	-25322.805000	-15567.300000	-1486.620000	-10146.015000	14.492444	39.821336	-22.416285	-23.255099	-35.716055	-6.812233	25.932400	0.061412	1.648080	4.471180	4.379620	0.946653	-0.229492	0.287902	-1.000000	-1.000000	-1.000000	-1.000000	-1.000000	-1.000000	-1.000000	70.068966	0.000000	-1.000000	-1.000000	2551145.000000	1770066599.771044
-22152.645000	-16273.665000	-20832.930000	-14647.455000	-25309.125000	-15557.895000	-1495.890000	-10140.705000	11.042231	27.570822	-5.606981	-12.296546	-23.539308	-5.201368	19.031515	-3.528496	1.648080	4.471180	4.379620	0.946653	-0.229492	0.287902	-1.000000	-1.000000	-1.000000	-1.000000	-1.000000	-1.000000	-1.000000	70.068966	0.000000	-1.000000	-1.000000	2551146.000000	1770066599.771053
-22169.115000	-16313.580000	-20863.080000	-14658.165000	-25320.015000	-15585.390000	-1557.090000	-10151.010000	5.315202	9.315926	10.217593	-0.654758	-11.785648	-4.918644	7.456868	-5.699208	1.648080	4.471180	4.379620	0.946653	-0.229492	0.287902	-1.000000	-1.000000	-1.000000	-1.000000	-1.000000	-1.000000	-1.000000	70.068966	0.000000	-1.000000	-1.000000	2551147.000000	1770066599.783472
-22197.195000	-16363.125000	-20877.345000	-14653.845000	-25316.505000	-15581.565000	-1549.800000	-10157.895000	1.921332	-2.886601	21.908854	9.747212	-1.640497	-3.595672	-1.924902	-4.625613	1.648080	4.471180	4.379620	0.946653	-0.229492	0.287902	-1.000000	-1.000000	-1.000000	-1.000000	-1.000000	-1.000000	-1.000000	70.068966	0.000000	-1.000000	-1.000000	2551148.000000	1770066599.783485
-22175.415000	-16327.665000	-20873.880000	-14658.480000	-25321.545000	-15578.055000	-1532.205000	-10152.765000	0.618263	-9.760951	23.689757	15.304669	6.686124	-0.966338	-7.824106	-0.688258	1.648080	4.471180	4.379620	0.946653	-0.229492	0.287902	-1.000000	-1.000000	-1.000000	-1.000000	-1.000000	-1.000000	-1.000000	70.068966	0.000000	-1.000000	-1.000000	2551149.000000	1770066599.783564
-22197.330000	-16312.275000	-20860.830000	-14658.075000	-25325.460000	-15586.425000	-1536.975000	-10160.145000	-1.343356	-16.315476	14.539766	13.970820	12.261328	1.520345	-10.819938	3.722417	1.648080	4.471180	4.379620	0.946653	-0.229492	0.287902	-1.000000	-1.000000	-1.000000	-1.000000	-1.000000	-1.000000	-1.000000	70.068966	0.000000	-1.000000	-1.000000	2551150.000000	1770066599.783571
-22201.560000	-16296.930000	-20851.470000	-14653.800000	-25314.120000	-15575.715000	-1539.270000	-10176.570000	-4.873954	-20.396750	1.451028	7.736892	14.108024	3.135583	-10.406776	5.856648	-5.753020	6.485500	2.716280	0.947813	-0.230285	0.291320	-1.000000	-1.000000	-1.000000	-1.000000	-1.000000	-1.000000	-1.000000	70.068966	0.000000	-1.000000	-1.000000	2551151.000000	1770066599.783579
-22213.755000	-16306.155000	-20840.400000	-14637.465000	-25301.295000	-15562.890000	-1530.630000	-10183.095000	-8.855038	-16.648167	-6.643174	0.750842	12.112953	4.223483	-6.885295	4.120671	-5.753020	6.485500	2.716280	0.947813	-0.230285	0.291320	-1.000000	-1.000000	-1.000000	-1.000000	-1.000000	-1.000000	-1.000000	70.068966	0.000000	-1.000000	-1.000000	2551152.000000	1770066599.783584
-22184.550000	-16356.015000	-20847.015000	-14634.405000	-25304.445000	-15565.095000	-1519.920000	-10160.505000	-10.835411	-6.295140	-6.672044	-3.602564	7.859820	4.910062	-2.788744	-0.289973	-5.753020	6.485500	2.716280	0.947813	-0.230285	0.291320	-1.000000	-1.000000	-1.000000	-1.000000	-1.000000	-1.000000	-1.000000	70.068966	0.000000	-1.000000	-1.000000	2551153.000000	1770066599.797163
-22163.715000	-16417.440000	-20866.995000	-14648.895000	-25315.515000	-15568.155000	-1509.030000	-10131.840000	-8.606016	0.877065	-3.375183	-5.090901	2.940300	4.174404	-0.598899	-3.526441	-5.753020	6.485500	2.716280	0.947813	-0.230285	0.291320	-1.000000	-1.000000	-1.000000	-1.000000	-1.000000	-1.000000	-1.000000	70.068966	0.000000	-1.000000	-1.000000	2551154.000000	1770066599.797176
-22160.205000	-16312.590000	-20868.840000	-14668.470000	-25342.380000	-15592.545000	-1521.495000	-10128.465000	-2.058661	-0.037160	-2.514842	-5.934872	-2.498431	1.167535	0.665763	-2.581992	-5.753020	6.485500	2.716280	0.947813	-0.230285	0.291320	-1.000000	-1.000000	-1.000000	-1.000000	-1.000000	-1.000000	-1.000000	70.068966	0.000000	-1.000000	-1.000000	2551155.000000	1770066599.797482
-22174.425000	-16303.680000	-20914.470000	-14701.860000	-25362.945000	-15610.410000	-1535.490000	-10139.715000	6.604076	0.625473	-4.440207	-7.353597	-7.871982	-2.896454	3.945777	1.644670	-5.753020	6.485500	2.716280	0.947813	-0.230285	0.291320	-1.000000	-1.000000	-1.000000	-1.000000	-1.000000	-1.000000	-1.000000	70.068966	0.000000	-1.000000	-1.000000	2551156.000000	1770066599.797493
