Channel1	Channel2	Channel3	Channel4	Channel5	Channel6	Channel7	Channel8	FilteredChannel1	FilteredChannel2	FilteredChannel3	FilteredChannel4	FilteredChannel5	FilteredChannel6	FilteredChannel7	FilteredChannel8	GyroX	GyroY	GyroZ	AccX	AccY	AccZ	PPG1	PPG2	rawPPG1	rawPPG2	rawPPG3	Hr	Hrv	Battery	Trigger	PhysicalTrigger	AutoTrigger	NumMeasurements	Timestamp
-16969.005000	-31384.170000	-1087.605000	4593.780000	-14507.640000	-13784.850000	11953.035000	-226.305000	2.776496	2.007801	2.817155	4.437536	3.486208	1.330551	-6.521493	2.969442	-3.219860	4.333840	-2.868880	0.835630	0.509032	0.171936	-1.000000	-1.000000	-1.000000	-1.000000	-1.000000	-1.000000	-1.000000	64.689655	0.000000	-1.000000	-1.000000	2710265.000000	1772663310.248980
-16969.005000	-31384.170000	-1087.605000	4593.780000	-14507.640000	-13784.850000	11953.035000	-226.305000	2.776496	2.007801	2.817155	4.437536	3.486208	1.330551	-6.521493	2.969442	-3.219860	4.333840	-2.868880	0.835630	0.509032	0.171936	-1.000000	-1.000000	-1.000000	-1.000000	-1.000000	-1.000000	-1.000000	64.689655	0.000000	-1.000000	-1.000000	2710265.000000	1772663310.248980
-16969.005000	-31384.170000	-1087.605000	4593.780000	-14507.640000	-13784.850000	11953.035000	-226.305000	2.776496	2.007801	2.817155	4.437536	3.486208	1.330551	-6.521493	2.969442	-3.219860	4.333840	-2.868880	0.835630	0.509032	0.171936	-1.000000	-1.000000	-1.000000	-1.000000	-1.000000	-1.000000	-1.000000	64.689655	0.000000	-1.000000	-1.000000	2710265.000000	1772663310.248980
-16951.455000	-31376.970000	-1083.195000	4592.475000	-14507.640000	-13790.790000	11955.645000	-222.480000	13.515170	17.627646	17.650251	16.884397	15.499775	11.432044	4.869633	6.928384	-3.219860	4.333840	-2.868880	0.835630	0.509032	0.171936	-1.000000	-1.000000	-1.000000	-1.000000	-1.000000	-1.000000	-1.000000	64.689655	0.000000	-1.000000	-1.000000	2710266.000000	1772663310.248986
-16951.455000	-31376.970000	-1083.195000	4592.475000	-14507.640000	-13790.790000	11955.645000	-222.480000	13.515170	17.627646	17.650251	16.884397	15.499775	11.432044	4.869633	6.928384	-3.219860	4.333840	-2.868880	0.835630	0.509032	0.171936	-1.000000	-1.000000	-1.000000	-1.000000	-1.000000	-1.000000	-1.000000	64.689655	0.000000	-1.000000	-1.000000	2710266.000000	1772663310.248986
-16951.455000	-31376.970000	-1083.195000	4592.475000	-14507.640000	-13790.790000	11955.645000	-222.480000	13.515170	17.627646	17.650251	16.884397	15.499775	11.432044	4.869633	6.928384	-3.219860	4.333840	-2.868880	0.835630	0.509032	0.171936	-1.000000	-1.000000	-1.000000	-1.000000	-1.000000	-1.000000	-1.000000	64.689655	0.000000	-1.000000	-1.000000	2710266.000000	1772663310.248986
-16961.040000	-31390.380000	-1095.570000	4579.380000	-14522.940000	-13823.055000	11925.045000	-224.910000	17.511908	24.153944	23.305395	20.069269	19.067667	15.779793	14.622989	6.064695	-3.219860	4.333840	-2.868880	0.835630	0.509032	0.171936	-1.000000	-1.000000	-1.000000	-1.000000	-1.000000	-1.000000	-1.000000	64.689655	0.000000	-1.000000	-1.000000	2710267.000000	1772663310.252960
-16961.040000	-31390.380000	-1095.570000	4579.380000	-14522.940000	-13823.055000	11925.045000	-224.910000	17.511908	24.153944	23.305395	20.069269	19.067667	15.779793	14.622989	6.064695	-3.219860	4.333840	-2.868880	0.835630	0.509032	0.171936	-1.000000	-1.000000	-1.000000	-1.000000	-1.000000	-1.000000	-1.000000	64.689655	0.000000	-1.000000	-1.000000	2710267.000000	1772663310.252960
-16961.040000	-31390.380000	-1095.570000	4579.380000	-14522.940000	-13823.055000	11925.045000	-224.910000	17.511908	24.153944	23.305395	20.069269	19.067667	15.779793	14.622989	6.064695	-3.219860	4.333840	-2.868880	0.835630	0.509032	0.171936	-1.000000	-1.000000	-1.000000	-1.000000	-1.000000	-1.000000	-1.000000	64.689655	0.000000	-1.000000	-1.000000	2710267.000000	1772663310.252960
-16966.890000	-31392.270000	-1098.450000	4575.555000	-14527.080000	-13826.880000	11901.015000	-178.065000	13.027546	18.946991	17.726846	13.517497	13.718874	11.534424	15.626649	2.294191	-3.219860	4.333840	-2.868880	0.835630	0.509032	0.171936	-1.000000	-1.000000	-1.000000	-1.000000	-1.000000	-1.000000	-1.000000	64.689655	0.000000	-1.000000	-1.000000	2710268.000000	1772663310.252964
-16966.890000	-31392.270000	-1098.450000	4575.555000	-14527.080000	-13826.880000	11901.015000	-178.065000	13.027546	18.946991	17.726846	13.517497	13.718874	11.534424	15.626649	2.294191	-3.219860	4.333840	-2.868880	0.835630	0.509032	0.171936	-1.000000	-1.000000	-1.000000	-1.000000	-1.000000	-1.000000	-1.000000	64.689655	0.000000	-1.000000	-1.000000	2710268.000000	1772663310.252964
-16966.890000	-31392.270000	-1098.450000	4575.555000	-14527.080000	-13826.880000	11901.015000	-178.065000	13.027546	18.946991	17.726846	13.517497	13.718874	11.534424	15.626649	2.294191	-3.219860	4.333840	-2.868880	0.835630	0.509032	0.171936	-1.000000	-1.000000	-1.000000	-1.000000	-1.000000	-1.000000	-1.000000	64.689655	0.000000	-1.000000	-1.000000	2710268.000000	1772663310.252964
-16955.730000	-31383.675000	-1090.620000	4592.115000	-14504.580000	-13799.430000	11881.935000	-164.070000	2.573671	5.921649	5.077041	2.090881	3.436101	1.602686	6.123074	-0.584760	-3.219860	4.333840	-2.868880	0.835630	0.509032	0.171936	-1.000000	-1.000000	-1.000000	-1.000000	-1.000000	-1.000000	-1.000000	64.689655	0.000000	-1.000000	-1.000000	2710269.000000	1772663310.256972
-16955.730000	-31383.675000	-1090.620000	4592.115000	-14504.580000	-13799.430000	11881.935000	-164.070000	2.573671	5.921649	5.077041	2.090881	3.436101	1.602686	6.123074	-0.584760	-3.219860	4.333840	-2.868880	0.835630	0.509032	0.171936	-1.000000	-1.000000	-1.000000	-1.000000	-1.000000	-1.000000	-1.000000	64.689655	0.000000	-1.000000	-1.000000	2710269.000000	1772663310.256972
-16955.730000	-31383.675000	-1090.620000	4592.115000	-14504.580000	-13799.430000	11881.935000	-164.070000	2.573671	5.921649	5.077041	2.090881	3.436101	1.602686	6.123074	-0.584760	-3.219860	4.333840	-2.868880	0.835630	0.509032	0.171936	-1.000000	-1.000000	-1.000000	-1.000000	-1.000000	-1.000000	-1.000000	64.689655	0.000000	-1.000000	-1.000000	2710269.000000	1772663310.256972
-16913.925000	-31347.270000	-1054.890000	4631.310000	-14464.980000	-13757.805000	11949.075000	-286.605000	-6.787813	-5.863510	-5.986266	-6.185264	-4.410585	-5.767885	-6.966735	-2.123016	-3.219860	4.333840	-2.868880	0.835630	0.509032	0.171936	-1.000000	-1.000000	-1.000000	-1.000000	-1.000000	-1.000000	-1.000000	64.689655	0.000000	-1.000000	-1.000000	2710270.000000	1772663310.256980
-16913.925000	-31347.270000	-1054.890000	4631.310000	-14464.980000	-13757.805000	11949.075000	-286.605000	-6.787813	-5.863510	-5.986266	-6.185264	-4.410585	-5.767885	-6.966735	-2.123016	-3.219860	4.333840	-2.868880	0.835630	0.509032	0.171936	-1.000000	-1.000000	-1.000000	-1.000000	-1.000000	-1.000000	-1.000000	64.689655	0.000000	-1.000000	-1.000000	2710270.000000	1772663310.256980
-16913.925000	-31347.270000	-1054.890000	4631.310000	-14464.980000	-13757.805000	11949.075000	-286.605000	-6.787813	-5.863510	-5.986266	-6.185264	-4.410585	-5.767885	-6.966735	-2.123016	-3.219860	4.333840	-2.868880	0.835630	0.509032	0.171936	-1.000000	-1.000000	-1.000000	-1.000000	-1.000000	-1.000000	-1.000000	64.689655	0.000000	-1.000000	-1.000000	2710270.000000	1772663310.256980
-16943.400000	-31366.665000	-1072.845000	4613.310000	-14491.215000	-13782.825000	11975.715000	-211.725000	-8.504168	-8.983870	-8.523684	-5.897106	-4.548709	-4.418109	-12.021604	-5.128675	-2.914660	4.043900	-0.793520	0.833189	0.510619	0.173278	-1.000000	-1.000000	-1.000000	-1.000000	-1.000000	-1.000000	-1.000000	64.689655	0.000000	-1.000000	-1.000000	2710271.000000	1772663310.260944
-16943.400000	-31366.665000	-1072.845000	4613.310000	-14491.215000	-13782.825000	11975.715000	-211.725000	-8.504168	-8.983870	-8.523684	-5.897106	-4.548709	-4.418109	-12.021604	-5.128675	-2.914660	4.043900	-0.793520	0.833189	0.510619	0.173278	-1.000000	-1.000000	-1.000000	-1.000000	-1.000000	-1.000000	-1.000000	64.689655	0.000000	-1.000000	-1.000000	2710271.000000	1772663310.260944
-16943.400000	-31366.665000	-1072.845000	4613.310000	-14491.215000	-13782.825000	11975.715000	-211.725000	-8.504168	-8.983870	-8.523684	-5.897106	-4.548709	-4.418109	-12.021604	-5.128675	-2.914660	4.043900	-0.793520	0.833189	0.510619	0.173278	-1.000000	-1.000000	-1.000000	-1.000000	-1.000000	-1.000000	-1.000000	64.689655	0.000000	-1.000000	-1.000000	2710271.000000	1772663310.260944
-16986.420000	-31401.000000	-1105.155000	4578.930000	-14530.680000	-13830.165000	11906.775000	-259.200000	-4.414442	-5.260988	-4.427200	-0.511825	-0.409473	1.977331	-5.684526	-8.905218	-2.914660	4.043900	-0.793520	0.833189	0.510619	0.173278	-1.000000	-1.000000	-1.000000	-1.000000	-1.000000	-1.000000	-1.000000	64.689655	0.000000	-1.000000	-1.000000	2710272.000000	1772663310.260950
-16986.420000	-31401.000000	-1105.155000	4578.930000	-14530.680000	-13830.165000	11906.775000	-259.200000	-4.414442	-5.260988	-4.427200	-0.511825	-0.409473	1.977331	-5.684526	-8.905218	-2.914660	4.043900	-0.793520	0.833189	0.510619	0.173278	-1.000000	-1.000000	-1.000000	-1.000000	-1.000000	-1.000000	-1.000000	64.689655	0.000000	-1.000000	-1.000000	2710272.000000	1772663310.260950
-16986.420000	-31401.000000	-1105.155000	4578.930000	-14530.680000	-13830.165000	11906.775000	-259.200000	-4.414442	-5.260988	-4.427200	-0.511825	-0.409473	1.977331	-5.684526	-8.905218	-2.914660	4.043900	-0.793520	0.833189	0.510619	0.173278	-1.000000	-1.000000	-1.000000	-1.000000	-1.000000	-1.000000	-1.000000	64.689655	0.000000	-1.000000	-1.000000	2710272.000000	1772663310.260950
-16978.185000	-31386.195000	-1089.315000	4589.730000	-14518.395000	-13813.200000	11914.110000	-258.615000	-1.401442	-1.799112	-0.755896	2.171388	0.662382	4.576703	2.378999	-10.645735	-2.914660	4.043900	-0.793520	0.833189	0.510619	0.173278	-1.000000	-1.000000	-1.000000	-1.000000	-1.000000	-1.000000	-1.000000	64.689655	0.000000	-1.000000	-1.000000	2710273.000000	1772663310.265000
-16978.185000	-31386.195000	-1089.315000	4589.730000	-14518.395000	-13813.200000	11914.110000	-258.615000	-1.401442	-1.799112	-0.755896	2.171388	0.662382	4.576703	2.378999	-10.645735	-2.914660	4.043900	-0.793520	0.833189	0.510619	0.173278	-1.000000	-1.000000	-1.000000	-1.000000	-1.000000	-1.000000	-1.000000	64.689655	0.000000	-1.000000	-1.000000	2710273.000000	1772663310.265000
-16978.185000	-31386.195000	-1089.315000	4589.730000	-14518.395000	-13813.200000	11914.110000	-258.615000	-1.401442	-1.799112	-0.755896	2.171388	0.662382	4.576703	2.378999	-10.645735	-2.914660	4.043900	-0.793520	0.833189	0.510619	0.173278	-1.000000	-1.000000	-1.000000	-1.000000	-1.000000	-1.000000	-1.000000	64.689655	0.000000	-1.000000	-1.000000	2710273.000000	1772663310.265000
-16946.055000	-31357.440000	-1061.730000	4618.260000	-14500.620000	-13773.780000	11950.110000	-258.210000	-1.063947	-0.704754	0.276028	0.595915	-2.034784	1.385930	3.651407	-9.014629	-2.914660	4.043900	-0.793520	0.833189	0.510619	0.173278	-1.000000	-1.000000	-1.000000	-1.000000	-1.000000	-1.000000	-1.000000	64.689655	0.000000	-1.000000	-1.000000	2710274.000000	1772663310.265007
-16946.055000	-31357.440000	-1061.730000	4618.260000	-14500.620000	-13773.780000	11950.110000	-258.210000	-1.063947	-0.704754	0.276028	0.595915	-2.034784	1.385930	3.651407	-9.014629	-2.914660	4.043900	-0.793520	0.833189	0.510619	0.173278	-1.000000	-1.000000	-1.000000	-1.000000	-1.000000	-1.000000	-1.000000	64.689655	0.000000	-1.000000	-1.000000	2710274.000000	1772663310.265007
-16946.055000	-31357.440000	-1061.730000	4618.260000	-14500.620000	-13773.780000	11950.110000	-258.210000	-1.063947	-0.704754	0.276028	0.595915	-2.034784	1.385930	3.651407	-9.014629	-2.914660	4.043900	-0.793520	0.833189	0.510619	0.173278	-1.000000	-1.000000	-1.000000	-1.000000	-1.000000	-1.000000	-1.000000	64.689655	0.000000	-1.000000	-1.000000	2710274.000000	1772663310.265007
-16942.815000	-31369.815000	-1079.010000	4600.890000	-14500.530000	-13786.110000	11943.945000	-258.345000	0.087942	0.644941	1.158494	-0.971293	-3.459719	-1.926607	0.561977	-3.036786	-2.914660	4.043900	-0.793520	0.833189	0.510619	0.173278	-1.000000	-1.000000	-1.000000	-1.000000	-1.000000	-1.000000	-1.000000	64.689655	0.000000	-1.000000	-1.000000	2710275.000000	1772663310.268969
-16942.815000	-31369.815000	-1079.010000	4600.890000	-14500.530000	-13786.110000	11943.945000	-258.345000	0.087942	0.644941	1.158494	-0.971293	-3.459719	-1.926607	0.561977	-3.036786	-2.914660	4.043900	-0.793520	0.833189	0.510619	0.173278	-1.000000	-1.000000	-1.000000	-1.000000	-1.000000	-1.000000	-1.000000	64.689655	0.000000	-1.000000	-1.000000	2710275.000000	1772663310.268969
-16942.815000	-31369.815000	-1079.010000	4600.890000	-14500.530000	-13786.110000	11943.945000	-258.345000	0.087942	0.644941	1.158494	-0.971293	-3.459719	-1.926607	0.561977	-3.036786	-2.914660	4.043900	-0.793520	0.833189	0.510619	0.173278	-1.000000	-1.000000	-1.000000	-1.000000	-1.000000	-1.000000	-1.000000	64.689655	0.000000	-1.000000	-1.000000	2710275.000000	1772663310.268969
-16966.980000	-31385.520000	-1091.205000	4586.400000	-14516.595000	-13806.090000	11930.805000	-263.115000	2.912020	2.500031	2.241263	-0.664106	-1.318631	-1.617787	-1.008630	5.500637	-2.914660	4.043900	-0.793520	0.833189	0.510619	0.173278	-1.000000	-1.000000	-1.000000	-1.000000	-1.000000	-1.000000	-1.000000	64.689655	0.000000	-1.000000	-1.000000	2710276.000000	1772663310.268977
-16966.980000	-31385.520000	-1091.205000	4586.400000	-14516.595000	-13806.090000	11930.805000	-263.115000	2.912020	2.500031	2.241263	-0.664106	-1.318631	-1.617787	-1.008630	5.500637	-2.914660	4.043900	-0.793520	0.833189	0.510619	0.173278	-1.000000	-1.000000	-1.000000	-1.000000	-1.000000	-1.000000	-1.000000	64.689655	0.000000	-1.000000	-1.000000	2710276.000000	1772663310.268977
-16966.980000	-31385.520000	-1091.205000	4586.400000	-14516.595000	-13806.090000	11930.805000	-263.115000	2.912020	2.500031	2.241263	-0.664106	-1.318631	-1.617787	-1.008630	5.500637	-2.914660	4.043900	-0.793520	0.833189	0.510619	0.173278	-1.000000	-1.000000	-1.000000	-1.000000	-1.000000	-1.000000	-1.000000	64.689655	0.000000	-1.000000	-1.000000	2710276.000000	1772663310.268977
-16997.535000	-31411.890000	-1114.335000	4569.480000	-14527.575000	-13822.920000	11920.635000	-257.715000	3.986393	2.107601	1.286418	-0.596395	1.583682	-0.002582	0.488794	11.466397	-2.914660	4.043900	-0.793520	0.833189	0.510619	0.173278	-1.000000	-1.000000	-1.000000	-1.000000	-1.000000	-1.000000	-1.000000	64.689655	0.000000	-1.000000	-1.000000	2710277.000000	1772663310.272879
-16997.535000	-31411.890000	-1114.335000	4569.480000	-14527.575000	-13822.920000	11920.635000	-257.715000	3.986393	2.107601	1.286418	-0.596395	1.583682	-0.002582	0.488794	11.466397	-2.914660	4.043900	-0.793520	0.833189	0.510619	0.173278	-1.000000	-1.000000	-1.000000	-1.000000	-1.000000	-1.000000	-1.000000	64.689655	0.000000	-1.000000	-1.000000	2710277.000000	1772663310.272879
-16997.535000	-31411.890000	-1114.335000	4569.480000	-14527.575000	-13822.920000	11920.635000	-257.715000	3.986393	2.107601	1.286418	-0.596395	1.583682	-0.002582	0.488794	11.466397	-2.914660	4.043900	-0.793520	0.833189	0.510619	0.173278	-1.000000	-1.000000	-1.000000	-1.000000	-1.000000	-1.000000	-1.000000	64.689655	0.000000	-1.000000	-1.000000	2710277.000000	1772663310.272879
-16979.940000	-31411.755000	-1120.365000	4567.995000	-14528.430000	-13831.020000	11911.860000	-250.155000	0.792764	-1.825756	-2.607265	-2.640235	1.551108	-1.100952	2.569664	12.273700	-2.914660	4.043900	-0.793520	0.833189	0.510619	0.173278	-1.000000	-1.000000	-1.000000	-1.000000	-1.000000	-1.000000	-1.000000	64.689655	0.000000	-1.000000	-1.000000	2710278.000000	1772663310.272890
-16979.940000	-31411.755000	-1120.365000	4567.995000	-14528.430000	-13831.020000	11911.860000	-250.155000	0.792764	-1.825756	-2.607265	-2.640235	1.551108	-1.100952	2.569664	12.273700	-2.914660	4.043900	-0.793520	0.833189	0.510619	0.173278	-1.000000	-1.000000	-1.000000	-1.000000	-1.000000	-1.000000	-1.000000	64.689655	0.000000	-1.000000	-1.000000	2710278.000000	1772663310.272890
-16979.940000	-31411.755000	-1120.365000	4567.995000	-14528.430000	-13831.020000	11911.860000	-250.155000	0.792764	-1.825756	-2.607265	-2.640235	1.551108	-1.100952	2.569664	12.273700	-2.914660	4.043900	-0.793520	0.833189	0.510619	0.173278	-1.000000	-1.000000	-1.000000	-1.000000	-1.000000	-1.000000	-1.000000	64.689655	0.000000	-1.000000	-1.000000	2710278.000000	1772663310.272890
-16980.705000	-31406.355000	-1117.080000	4564.215000	-14531.490000	-13807.845000	11930.805000	-292.320000	-4.328240	-6.748249	-7.223081	-5.847001	-1.765900	-5.006207	2.049554	10.385450	-2.914660	4.043900	-0.793520	0.833189	0.510619	0.173278	-1.000000	-1.000000	-1.000000	-1.000000	-1.000000	-1.000000	-1.000000	64.689655	0.000000	-1.000000	-1.000000	2710279.000000	1772663310.276914
-16980.705000	-31406.355000	-1117.080000	4564.215000	-14531.490000	-13807.845000	11930.805000	-292.320000	-4.328240	-6.748249	-7.223081	-5.847001	-1.765900	-5.006207	2.049554	10.385450	-2.914660	4.043900	-0.793520	0.833189	0.510619	0.173278	-1.000000	-1.000000	-1.000000	-1.000000	-1.000000	-1.000000	-1.000000	64.689655	0.000000	-1.000000	-1.000000	2710279.000000	1772663310.276914
-16980.705000	-31406.355000	-1117.080000	4564.215000	-14531.490000	-13807.845000	11930.805000	-292.320000	-4.328240	-6.748249	-7.223081	-5.847001	-1.765900	-5.006207	2.049554	10.385450	-2.914660	4.043900	-0.793520	0.833189	0.510619	0.173278	-1.000000	-1.000000	-1.000000	-1.000000	-1.000000	-1.000000	-1.000000	64.689655	0.000000	-1.000000	-1.000000	2710279.000000	1772663310.276914
-16965.945000	-31378.680000	-1084.545000	4596.615000	-14499.180000	-13787.685000	11943.180000	-306.945000	-6.104295	-7.716732	-8.053247	-6.577209	-4.415149	-6.594093	-0.937032	7.053059	-2.914660	4.043900	-0.793520	0.833189	0.510619	0.173278	-1.000000	-1.000000	-1.000000	-1.000000	-1.000000	-1.000000	-1.000000	64.689655	0.000000	-1.000000	-1.000000	2710280.000000	1772663310.276920
-16965.945000	-31378.680000	-1084.545000	4596.615000	-14499.180000	-13787.685000	11943.180000	-306.945000	-6.104295	-7.716732	-8.053247	-6.577209	-4.415149	-6.594093	-0.937032	7.053059	-2.914660	4.043900	-0.793520	0.833189	0.510619	0.173278	-1.000000	-1.000000	-1.000000	-1.000000	-1.000000	-1.000000	-1.000000	64.689655	0.000000	-1.000000	-1.000000	2710280.000000	1772663310.276920
-16965.945000	-31378.680000	-1084.545000	4596.615000	-14499.180000	-13787.685000	11943.180000	-306.945000	-6.104295	-7.716732	-8.053247	-6.577209	-4.415149	-6.594093	-0.937032	7.053059	-2.914660	4.043900	-0.793520	0.833189	0.510619	0.173278	-1.000000	-1.000000	-1.000000	-1.000000	-1.000000	-1.000000	-1.000000	64.689655	0.000000	-1.000000	-1.000000	2710280.000000	1772663310.276920
-16954.830000	-31357.620000	-1060.875000	4620.105000	-14478.165000	-13771.305000	11943.180000	-309.600000	-1.239782	-1.451662	-1.682524	-1.218843	-1.527722	-1.139028	-2.444677	0.995849	-3.006220	3.967600	-0.564620	0.833616	0.513487	0.172180	-1.000000	-1.000000	-1.000000	-1.000000	-1.000000	-1.000000	-1.000000	64.689655	0.000000	-1.000000	-1.000000	2710281.000000	1772663310.281100
-16954.830000	-31357.620000	-1060.875000	4620.105000	-14478.165000	-13771.305000	11943.180000	-309.600000	-1.239782	-1.451662	-1.682524	-1.218843	-1.527722	-1.139028	-2.444677	0.995849	-3.006220	3.967600	-0.564620	0.833616	0.513487	0.172180	-1.000000	-1.000000	-1.000000	-1.000000	-1.000000	-1.000000	-1.000000	64.689655	0.000000	-1.000000	-1.000000	2710281.000000	1772663310.281100
-16954.830000	-31357.620000	-1060.875000	4620.105000	-14478.165000	-13771.305000	11943.180000	-309.600000	-1.239782	-1.451662	-1.682524	-1.218843	-1.527722	-1.139028	-2.444677	0.995849	-3.006220	3.967600	-0.564620	0.833616	0.513487	0.172180	-1.000000	-1.000000	-1.000000	-1.000000	-1.000000	-1.000000	-1.000000	64.689655	0.000000	-1.000000	-1.000000	2710281.000000	1772663310.281100
-16973.595000	-31381.965000	-1086.210000	4594.905000	-14506.335000	-13791.510000	11933.145000	-282.735000	7.466032	8.935452	9.019608	8.417826	6.117403	8.406603	-0.634964	-5.454318	-3.006220	3.967600	-0.564620	0.833616	0.513487	0.172180	-1.000000	-1.000000	-1.000000	-1.000000	-1.000000	-1.000000	-1.000000	64.689655	0.000000	-1.000000	-1.000000	2710282.000000	1772663310.281108
-16973.595000	-31381.965000	-1086.210000	4594.905000	-14506.335000	-13791.510000	11933.145000	-282.735000	7.466032	8.935452	9.019608	8.417826	6.117403	8.406603	-0.634964	-5.454318	-3.006220	3.967600	-0.564620	0.833616	0.513487	0.172180	-1.000000	-1.000000	-1.000000	-1.000000	-1.000000	-1.000000	-1.000000	64.689655	0.000000	-1.000000	-1.000000	2710282.000000	1772663310.281108
-16973.595000	-31381.965000	-1086.210000	4594.905000	-14506.335000	-13791.510000	11933.145000	-282.735000	7.466032	8.935452	9.019608	8.417826	6.117403	8.406603	-0.634964	-5.454318	-3.006220	3.967600	-0.564620	0.833616	0.513487	0.172180	-1.000000	-1.000000	-1.000000	-1.000000	-1.000000	-1.000000	-1.000000	64.689655	0.000000	-1.000000	-1.000000	2710282.000000	1772663310.281108
-16970.850000	-31389.165000	-1098.495000	4578.795000	-14517.315000	-13803.615000	11925.630000	-258.615000	12.351504	14.878511	15.327542	14.409917	11.143979	13.107807	1.222708	-7.305781	-3.006220	3.967600	-0.564620	0.833616	0.513487	0.172180	-1.000000	-1.000000	-1.000000	-1.000000	-1.000000	-1.000000	-1.000000	64.689655	0.000000	-1.000000	-1.000000	2710283.000000	1772663310.284914
-16970.850000	-31389.165000	-1098.495000	4578.795000	-14517.315000	-13803.615000	11925.630000	-258.615000	12.351504	14.878511	15.327542	14.409917	11.143979	13.107807	1.222708	-7.305781	-3.006220	3.967600	-0.564620	0.833616	0.513487	0.172180	-1.000000	-1.000000	-1.000000	-1.000000	-1.000000	-1.000000	-1.000000	64.689655	0.000000	-1.000000	-1.000000	2710283.000000	1772663310.284914
-16970.850000	-31389.165000	-1098.495000	4578.795000	-14517.315000	-13803.615000	11925.630000	-258.615000	12.351504	14.878511	15.327542	14.409917	11.143979	13.107807	1.222708	-7.305781	-3.006220	3.967600	-0.564620	0.833616	0.513487	0.172180	-1.000000	-1.000000	-1.000000	-1.000000	-1.000000	-1.000000	-1.000000	64.689655	0.000000	-1.000000	-1.000000	2710283.000000	1772663310.284914
-16952.040000	-31379.175000	-1089.315000	4593.105000	-14506.695000	-13796.865000	11928.195000	-265.500000	9.168881	11.419519	11.950168	11.503109	8.351868	8.540472	0.427339	-3.275847	-3.006220	3.967600	-0.564620	0.833616	0.513487	0.172180	-1.000000	-1.000000	-1.000000	-1.000000	-1.000000	-1.000000	-1.000000	64.689655	0.000000	-1.000000	-1.000000	2710284.000000	1772663310.284922
-16952.040000	-31379.175000	-1089.315000	4593.105000	-14506.695000	-13796.865000	11928.195000	-265.500000	9.168881	11.419519	11.950168	11.503109	8.351868	8.540472	0.427339	-3.275847	-3.006220	3.967600	-0.564620	0.833616	0.513487	0.172180	-1.000000	-1.000000	-1.000000	-1.000000	-1.000000	-1.000000	-1.000000	64.689655	0.000000	-1.000000	-1.000000	2710284.000000	1772663310.284922
-16952.040000	-31379.175000	-1089.315000	4593.105000	-14506.695000	-13796.865000	11928.195000	-265.500000	9.168881	11.419519	11.950168	11.503109	8.351868	8.540472	0.427339	-3.275847	-3.006220	3.967600	-0.564620	0.833616	0.513487	0.172180	-1.000000	-1.000000	-1.000000	-1.000000	-1.000000	-1.000000	-1.000000	64.689655	0.000000	-1.000000	-1.000000	2710284.000000	1772663310.284922
-16955.730000	-31380.525000	-1090.395000	4588.110000	-14517.000000	-13800.600000	11933.820000	-269.820000	1.644172	2.309024	2.528155	2.944728	0.422283	-0.605868	-1.097692	2.314902	-3.006220	3.967600	-0.564620	0.833616	0.513487	0.172180	-1.000000	-1.000000	-1.000000	-1.000000	-1.000000	-1.000000	-1.000000	64.689655	0.000000	-1.000000	-1.000000	2710285.000000	1772663310.289012
-16955.730000	-31380.525000	-1090.395000	4588.110000	-14517.000000	-13800.600000	11933.820000	-269.820000	1.644172	2.309024	2.528155	2.944728	0.422283	-0.605868	-1.097692	2.314902	-3.006220	3.967600	-0.564620	0.833616	0.513487	0.172180	-1.000000	-1.000000	-1.000000	-1.000000	-1.000000	-1.000000	-1.000000	64.689655	0.000000	-1.000000	-1.000000	2710285.000000	1772663310.289012
-16955.730000	-31380.525000	-1090.395000	4588.110000	-14517.000000	-13800.600000	11933.820000	-269.820000	1.644172	2.309024	2.528155	2.944728	0.422283	-0.605868	-1.097692	2.314902	-3.006220	3.967600	-0.564620	0.833616	0.513487	0.172180	-1.000000	-1.000000	-1.000000	-1.000000	-1.000000	-1.000000	-1.000000	64.689655	0.000000	-1.000000	-1.000000	2710285.000000	1772663310.289012
-16920.090000	-31344.570000	-1054.530000	4619.295000	-14505.210000	-13775.130000	11949.255000	-255.015000	-3.797692	-5.072632	-5.342346	-4.460821	-6.683708	-6.992604	-0.214665	4.225604	-3.006220	3.967600	-0.564620	0.833616	0.513487	0.172180	-1.000000	-1.000000	-1.000000	-1.000000	-1.000000	-1.000000	-1.000000	64.689655	0.000000	-1.000000	-1.000000	2710286.000000	1772663310.289024
-16920.090000	-31344.570000	-1054.530000	4619.295000	-14505.210000	-13775.130000	11949.255000	-255.015000	-3.797692	-5.072632	-5.342346	-4.460821	-6.683708	-6.992604	-0.214665	4.225604	-3.006220	3.967600	-0.564620	0.833616	0.513487	0.172180	-1.000000	-1.000000	-1.000000	-1.000000	-1.000000	-1.000000	-1.000000	64.689655	0.000000	-1.000000	-1.000000	2710286.000000	1772663310.289024
-16920.090000	-31344.570000	-1054.530000	4619.295000	-14505.210000	-13775.130000	11949.255000	-255.015000	-3.797692	-5.072632	-5.342346	-4.460821	-6.683708	-6.992604	-0.214665	4.225604	-3.006220	3.967600	-0.564620	0.833616	0.513487	0.172180	-1.000000	-1.000000	-1.000000	-1.000000	-1.000000	-1.000000	-1.000000	64.689655	0.000000	-1.000000	-1.000000	2710286.000000	1772663310.289024
-16915.815000	-31338.225000	-1042.065000	4645.800000	-14460.255000	-13769.055000	11948.445000	-292.005000	-4.449469	-6.428534	-6.843474	-6.399767	-8.764176	-7.311810	2.962385	1.716677	-3.006220	3.967600	-0.564620	0.833616	0.513487	0.172180	-1.000000	-1.000000	-1.000000	-1.000000	-1.000000	-1.000000	-1.000000	64.689655	0.000000	-1.000000	-1.000000	2710287.000000	1772663310.297188
-16915.815000	-31338.225000	-1042.065000	4645.800000	-14460.255000	-13769.055000	11948.445000	-292.005000	-4.449469	-6.428534	-6.843474	-6.399767	-8.764176	-7.311810	2.962385	1.716677	-3.006220	3.967600	-0.564620	0.833616	0.513487	0.172180	-1.000000	-1.000000	-1.000000	-1.000000	-1.000000	-1.000000	-1.000000	64.689655	0.000000	-1.000000	-1.000000	2710287.000000	1772663310.297188
-16915.815000	-31338.225000	-1042.065000	4645.800000	-14460.255000	-13769.055000	11948.445000	-292.005000	-4.449469	-6.428534	-6.843474	-6.399767	-8.764176	-7.311810	2.962385	1.716677	-3.006220	3.967600	-0.564620	0.833616	0.513487	0.172180	-1.000000	-1.000000	-1.000000	-1.000000	-1.000000	-1.000000	-1.000000	64.689655	0.000000	-1.000000	-1.000000	2710287.000000	1772663310.297188
-16978.140000	-31392.675000	-1095.750000	4586.310000	-14518.170000	-13819.005000	11908.530000	-302.355000	-3.161962	-3.984797	-3.796862	-3.959978	-5.567374	-4.183020	4.378147	-2.463236	-3.006220	3.967600	-0.564620	0.833616	0.513487	0.172180	-1.000000	-1.000000	-1.000000	-1.000000	-1.000000	-1.000000	-1.000000	64.689655	0.000000	-1.000000	-1.000000	2710288.000000	1772663310.297196
-16978.140000	-31392.675000	-1095.750000	4586.310000	-14518.170000	-13819.005000	11908.530000	-302.355000	-3.161962	-3.984797	-3.796862	-3.959978	-5.567374	-4.183020	4.378147	-2.463236	-3.006220	3.967600	-0.564620	0.833616	0.513487	0.172180	-1.000000	-1.000000	-1.000000	-1.000000	-1.000000	-1.000000	-1.000000	64.689655	0.000000	-1.000000	-1.000000	2710288.000000	1772663310.297196
-16978.140000	-31392.675000	-1095.750000	4586.310000	-14518.170000	-13819.005000	11908.530000	-302.355000	-3.161962	-3.984797	-3.796862	-3.959978	-5.567374	-4.183020	4.378147	-2.463236	-3.006220	3.967600	-0.564620	0.833616	0.513487	0.172180	-1.000000	-1.000000	-1.000000	-1.000000	-1.000000	-1.000000	-1.000000	64.689655	0.000000	-1.000000	-1.000000	2710288.000000	1772663310.297196
-16969.455000	-31400.145000	-1115.865000	4552.920000	-14561.280000	-13832.145000	11887.110000	-282.645000	-4.590497	-3.893624	-2.974228	-3.298087	-2.369495	-3.135534	0.308926	-5.389944	-3.006220	3.967600	-0.564620	0.833616	0.513487	0.172180	-1.000000	-1.000000	-1.000000	-1.000000	-1.000000	-1.000000	-1.000000	64.689655	0.000000	-1.000000	-1.000000	2710289.000000	1772663310.297204
-16969.455000	-31400.145000	-1115.865000	4552.920000	-14561.280000	-13832.145000	11887.110000	-282.645000	-4.590497	-3.893624	-2.974228	-3.298087	-2.369495	-3.135534	0.308926	-5.389944	-3.006220	3.967600	-0.564620	0.833616	0.513487	0.172180	-1.000000	-1.000000	-1.000000	-1.000000	-1.000000	-1.000000	-1.000000	64.689655	0.000000	-1.000000	-1.000000	2710289.000000	1772663310.297204
-16969.455000	-31400.145000	-1115.865000	4552.920000	-14561.280000	-13832.145000	11887.110000	-282.645000	-4.590497	-3.893624	-2.974228	-3.298087	-2.369495	-3.135534	0.308926	-5.389944	-3.006220	3.967600	-0.564620	0.833616	0.513487	0.172180	-1.000000	-1.000000	-1.000000	-1.000000	-1.000000	-1.000000	-1.000000	64.689655	0.000000	-1.000000	-1.000000	2710289.000000	1772663310.297204
-16956.450000	-31356.585000	-1066.905000	4599.045000	-14525.415000	-13795.560000	11908.935000	-261.720000	-8.438170	-7.542163	-6.927872	-7.528819	-3.781211	-5.375606	-7.088014	-4.844332	-3.006220	3.967600	-0.564620	0.833616	0.513487	0.172180	-1.000000	-1.000000	-1.000000	-1.000000	-1.000000	-1.000000	-1.000000	64.689655	0.000000	-1.000000	-1.000000	2710290.000000	1772663310.297209
-16956.450000	-31356.585000	-1066.905000	4599.045000	-14525.415000	-13795.560000	11908.935000	-261.720000	-8.438170	-7.542163	-6.927872	-7.528819	-3.781211	-5.375606	-7.088014	-4.844332	-3.006220	3.967600	-0.564620	0.833616	0.513487	0.172180	-1.000000	-1.000000	-1.000000	-1.000000	-1.000000	-1.000000	-1.000000	64.689655	0.000000	-1.000000	-1.000000	2710290.000000	1772663310.297209
-16956.450000	-31356.585000	-1066.905000	4599.045000	-14525.415000	-13795.560000	11908.935000	-261.720000	-8.438170	-7.542163	-6.927872	-7.528819	-3.781211	-5.375606	-7.088014	-4.844332	-3.006220	3.967600	-0.564620	0.833616	0.513487	0.172180	-1.000000	-1.000000	-1.000000	-1.000000	-1.000000	-1.000000	-1.000000	64.689655	0.000000	-1.000000	-1.000000	2710290.000000	1772663310.297209
-16908.390000	-31307.670000	-1013.175000	4662.765000	-14432.760000	-13742.955000	11980.080000	-212.940000	-9.124251	-8.533989	-9.064673	-10.157811	-5.027414	-5.418177	-10.230903	-0.573848	-4.898460	2.853620	-0.457800	0.833067	0.514647	0.172912	-1.000000	-1.000000	-1.000000	-1.000000	-1.000000	-1.000000	-1.000000	64.689655	0.000000	-1.000000	-1.000000	2710291.000000	1772663310.301106
-16908.390000	-31307.670000	-1013.175000	4662.765000	-14432.760000	-13742.955000	11980.080000	-212.940000	-9.124251	-8.533989	-9.064673	-10.157811	-5.027414	-5.418177	-10.230903	-0.573848	-4.898460	2.853620	-0.457800	0.833067	0.514647	0.172912	-1.000000	-1.000000	-1.000000	-1.000000	-1.000000	-1.000000	-1.000000	64.689655	0.000000	-1.000000	-1.000000	2710291.000000	1772663310.301106
-16908.390000	-31307.670000	-1013.175000	4662.765000	-14432.760000	-13742.955000	11980.080000	-212.940000	-9.124251	-8.533989	-9.064673	-10.157811	-5.027414	-5.418177	-10.230903	-0.573848	-4.898460	2.853620	-0.457800	0.833067	0.514647	0.172912	-1.000000	-1.000000	-1.000000	-1.000000	-1.000000	-1.000000	-1.000000	64.689655	0.000000	-1.000000	-1.000000	2710291.000000	1772663310.301106
-16942.590000	-31355.100000	-1059.210000	4633.425000	-14449.725000	-13754.655000	11979.495000	-244.035000	-3.551877	-2.219240	-3.265373	-3.893334	1.501532	1.304877	-3.660762	4.563147	-4.898460	2.853620	-0.457800	0.833067	0.514647	0.172912	-1.000000	-1.000000	-1.000000	-1.000000	-1.000000	-1.000000	-1.000000	64.689655	0.000000	-1.000000	-1.000000	2710292.000000	1772663310.301114
-16942.590000	-31355.100000	-1059.210000	4633.425000	-14449.725000	-13754.655000	11979.495000	-244.035000	-3.551877	-2.219240	-3.265373	-3.893334	1.501532	1.304877	-3.660762	4.563147	-4.898460	2.853620	-0.457800	0.833067	0.514647	0.172912	-1.000000	-1.000000	-1.000000	-1.000000	-1.000000	-1.000000	-1.000000	64.689655	0.000000	-1.000000	-1.000000	2710292.000000	1772663310.301114
-16942.590000	-31355.100000	-1059.210000	4633.425000	-14449.725000	-13754.655000	11979.495000	-244.035000	-3.551877	-2.219240	-3.265373	-3.893334	1.501532	1.304877	-3.660762	4.563147	-4.898460	2.853620	-0.457800	0.833067	0.514647	0.172912	-1.000000	-1.000000	-1.000000	-1.000000	-1.000000	-1.000000	-1.000000	64.689655	0.000000	-1.000000	-1.000000	2710292.000000	1772663310.301114
-16948.620000	-31370.040000	-1073.745000	4618.395000	-14474.520000	-13778.865000	11952.180000	-246.870000	4.124951	6.419951	6.141473	7.579527	12.712264	10.911795	8.574063	6.180112	-4.898460	2.853620	-0.457800	0.833067	0.514647	0.172912	-1.000000	-1.000000	-1.000000	-1.000000	-1.000000	-1.000000	-1.000000	64.689655	0.000000	-1.000000	-1.000000	2710293.000000	1772663310.312898
-16948.620000	-31370.040000	-1073.745000	4618.395000	-14474.520000	-13778.865000	11952.180000	-246.870000	4.124951	6.419951	6.141473	7.579527	12.712264	10.911795	8.574063	6.180112	-4.898460	2.853620	-0.457800	0.833067	0.514647	0.172912	-1.000000	-1.000000	-1.000000	-1.000000	-1.000000	-1.000000	-1.000000	64.689655	0.000000	-1.000000	-1.000000	2710293.000000	1772663310.312898
-16948.620000	-31370.040000	-1073.745000	4618.395000	-14474.520000	-13778.865000	11952.180000	-246.870000	4.124951	6.419951	6.141473	7.579527	12.712264	10.911795	8.574063	6.180112	-4.898460	2.853620	-0.457800	0.833067	0.514647	0.172912	-1.000000	-1.000000	-1.000000	-1.000000	-1.000000	-1.000000	-1.000000	64.689655	0.000000	-1.000000	-1.000000	2710293.000000	1772663310.312898
-16952.175000	-31365.360000	-1071.990000	4616.055000	-14488.020000	-13800.015000	11899.485000	-264.465000	7.784775	9.502428	10.414767	14.149002	17.687573	14.607462	15.326770	2.128359	-4.898460	2.853620	-0.457800	0.833067	0.514647	0.172912	-1.000000	-1.000000	-1.000000	-1.000000	-1.000000	-1.000000	-1.000000	64.689655	0.000000	-1.000000	-1.000000	2710294.000000	1772663310.312907
-16952.175000	-31365.360000	-1071.990000	4616.055000	-14488.020000	-13800.015000	11899.485000	-264.465000	7.784775	9.502428	10.414767	14.149002	17.687573	14.607462	15.326770	2.128359	-4.898460	2.853620	-0.457800	0.833067	0.514647	0.172912	-1.000000	-1.000000	-1.000000	-1.000000	-1.000000	-1.000000	-1.000000	64.689655	0.000000	-1.000000	-1.000000	2710294.000000	1772663310.312907
-16952.175000	-31365.360000	-1071.990000	4616.055000	-14488.020000	-13800.015000	11899.485000	-264.465000	7.784775	9.502428	10.414767	14.149002	17.687573	14.607462	15.326770	2.128359	-4.898460	2.853620	-0.457800	0.833067	0.514647	0.172912	-1.000000	-1.000000	-1.000000	-1.000000	-1.000000	-1.000000	-1.000000	64.689655	0.000000	-1.000000	-1.000000	2710294.000000	1772663310.312907
-16984.440000	-31396.365000	-1105.290000	4577.580000	-14534.685000	-13826.340000	11878.560000	-272.070000	5.148481	4.923231	6.221287	10.218111	10.151179	7.779169	9.193866	-5.217546	-4.898460	2.853620	-0.457800	0.833067	0.514647	0.172912	-1.000000	-1.000000	-1.000000	-1.000000	-1.000000	-1.000000	-1.000000	64.689655	0.000000	-1.000000	-1.000000	2710295.000000	1772663310.320274
-16984.440000	-31396.365000	-1105.290000	4577.580000	-14534.685000	-13826.340000	11878.560000	-272.070000	5.148481	4.923231	6.221287	10.218111	10.151179	7.779169	9.193866	-5.217546	-4.898460	2.853620	-0.457800	0.833067	0.514647	0.172912	-1.000000	-1.000000	-1.000000	-1.000000	-1.000000	-1.000000	-1.000000	64.689655	0.000000	-1.000000	-1.000000	2710295.000000	1772663310.320274
-16984.440000	-31396.365000	-1105.290000	4577.580000	-14534.685000	-13826.340000	11878.560000	-272.070000	5.148481	4.923231	6.221287	10.218111	10.151179	7.779169	9.193866	-5.217546	-4.898460	2.853620	-0.457800	0.833067	0.514647	0.172912	-1.000000	-1.000000	-1.000000	-1.000000	-1.000000	-1.000000	-1.000000	64.689655	0.000000	-1.000000	-1.000000	2710295.000000	1772663310.320274
-16953.120000	-31373.370000	-1082.880000	4599.405000	-14509.530000	-13802.355000	11943.945000	-238.005000	-1.257894	-3.409499	-2.978233	-1.643852	-6.423988	-5.473185	-5.160776	-9.793792	-4.898460	2.853620	-0.457800	0.833067	0.514647	0.172912	-1.000000	-1.000000	-1.000000	-1.000000	-1.000000	-1.000000	-1.000000	64.689655	0.000000	-1.000000	-1.000000	2710296.000000	1772663310.320282
-16953.120000	-31373.370000	-1082.880000	4599.405000	-14509.530000	-13802.355000	11943.945000	-238.005000	-1.257894	-3.409499	-2.978233	-1.643852	-6.423988	-5.473185	-5.160776	-9.793792	-4.898460	2.853620	-0.457800	0.833067	0.514647	0.172912	-1.000000	-1.000000	-1.000000	-1.000000	-1.000000	-1.000000	-1.000000	64.689655	0.000000	-1.000000	-1.000000	2710296.000000	1772663310.320282
-16953.120000	-31373.370000	-1082.880000	4599.405000	-14509.530000	-13802.355000	11943.945000	-238.005000	-1.257894	-3.409499	-2.978233	-1.643852	-6.423988	-5.473185	-5.160776	-9.793792	-4.898460	2.853620	-0.457800	0.833067	0.514647	0.172912	-1.000000	-1.000000	-1.000000	-1.000000	-1.000000	-1.000000	-1.000000	64.689655	0.000000	-1.000000	-1.000000	2710296.000000	1772663310.320282
-16955.370000	-31389.660000	-1101.195000	4578.885000	-14526.225000	-13821.345000	11931.750000	-198.180000	-4.817922	-8.428946	-9.498162	-12.199452	-20.503497	-15.084457	-14.533950	-6.124998	-4.898460	2.853620	-0.457800	0.833067	0.514647	0.172912	-1.000000	-1.000000	-1.000000	-1.000000	-1.000000	-1.000000	-1.000000	64.689655	0.000000	-1.000000	-1.000000	2710297.000000	1772663310.320290
-16955.370000	-31389.660000	-1101.195000	4578.885000	-14526.225000	-13821.345000	11931.750000	-198.180000	-4.817922	-8.428946	-9.498162	-12.199452	-20.503497	-15.084457	-14.533950	-6.124998	-4.898460	2.853620	-0.457800	0.833067	0.514647	0.172912	-1.000000	-1.000000	-1.000000	-1.000000	-1.000000	-1.000000	-1.000000	64.689655	0.000000	-1.000000	-1.000000	2710297.000000	1772663310.320290
-16955.370000	-31389.660000	-1101.195000	4578.885000	-14526.225000	-13821.345000	11931.750000	-198.180000	-4.817922	-8.428946	-9.498162	-12.199452	-20.503497	-15.084457	-14.533950	-6.124998	-4.898460	2.853620	-0.457800	0.833067	0.514647	0.172912	-1.000000	-1.000000	-1.000000	-1.000000	-1.000000	-1.000000	-1.000000	64.689655	0.000000	-1.000000	-1.000000	2710297.000000	1772663310.320290
-16942.410000	-31367.520000	-1078.695000	4604.985000	-14501.250000	-13804.515000	11921.220000	-233.640000	-1.326754	-5.931645	-7.958046	-13.172455	-21.401871	-14.218552	-11.402691	3.925072	-4.898460	2.853620	-0.457800	0.833067	0.514647	0.172912	-1.000000	-1.000000	-1.000000	-1.000000	-1.000000	-1.000000	-1.000000	64.689655	0.000000	-1.000000	-1.000000	2710298.000000	1772663310.320294
-16942.410000	-31367.520000	-1078.695000	4604.985000	-14501.250000	-13804.515000	11921.220000	-233.640000	-1.326754	-5.931645	-7.958046	-13.172455	-21.401871	-14.218552	-11.402691	3.925072	-4.898460	2.853620	-0.457800	0.833067	0.514647	0.172912	-1.000000	-1.000000	-1.000000	-1.000000	-1.000000	-1.000000	-1.000000	64.689655	0.000000	-1.000000	-1.000000	2710298.000000	1772663310.320294
-16942.410000	-31367.520000	-1078.695000	4604.985000	-14501.250000	-13804.515000	11921.220000	-233.640000	-1.326754	-5.931645	-7.958046	-13.172455	-21.401871	-14.218552	-11.402691	3.925072	-4.898460	2.853620	-0.457800	0.833067	0.514647	0.172912	-1.000000	-1.000000	-1.000000	-1.000000	-1.000000	-1.000000	-1.000000	64.689655	0.000000	-1.000000	-1.000000	2710298.000000	1772663310.320294
-16937.325000	-31357.395000	-1071.675000	4606.245000	-14497.650000	-13784.580000	11939.085000	-296.415000	5.593515	1.117556	-0.692476	-5.296521	-9.550720	-5.126829	-1.007573	10.032754	-4.898460	2.853620	-0.457800	0.833067	0.514647	0.172912	-1.000000	-1.000000	-1.000000	-1.000000	-1.000000	-1.000000	-1.000000	64.689655	0.000000	-1.000000	-1.000000	2710299.000000	1772663310.321978
-16937.325000	-31357.395000	-1071.675000	4606.245000	-14497.650000	-13784.580000	11939.085000	-296.415000	5.593515	1.117556	-0.692476	-5.296521	-9.550720	-5.126829	-1.007573	10.032754	-4.898460	2.853620	-0.457800	0.833067	0.514647	0.172912	-1.000000	-1.000000	-1.000000	-1.000000	-1.000000	-1.000000	-1.000000	64.689655	0.000000	-1.000000	-1.000000	2710299.000000	1772663310.321978
-16937.325000	-31357.395000	-1071.675000	4606.245000	-14497.650000	-13784.580000	11939.085000	-296.415000	5.593515	1.117556	-0.692476	-5.296521	-9.550720	-5.126829	-1.007573	10.032754	-4.898460	2.853620	-0.457800	0.833067	0.514647	0.172912	-1.000000	-1.000000	-1.000000	-1.000000	-1.000000	-1.000000	-1.000000	64.689655	0.000000	-1.000000	-1.000000	2710299.000000	1772663310.321978
-16970.580000	-31394.565000	-1105.110000	4576.095000	-14523.660000	-13806.900000	11929.590000	-312.615000	8.798856	6.257837	5.452866	3.463766	4.404970	4.588392	6.608360	3.602171	-4.898460	2.853620	-0.457800	0.833067	0.514647	0.172912	-1.000000	-1.000000	-1.000000	-1.000000	-1.000000	-1.000000	-1.000000	64.689655	0.000000	-1.000000	-1.000000	2710300.000000	1772663310.321985
-16970.580000	-31394.565000	-1105.110000	4576.095000	-14523.660000	-13806.900000	11929.590000	-312.615000	8.798856	6.257837	5.452866	3.463766	4.404970	4.588392	6.608360	3.602171	-4.898460	2.853620	-0.457800	0.833067	0.514647	0.172912	-1.000000	-1.000000	-1.000000	-1.000000	-1.000000	-1.000000	-1.000000	64.689655	0.000000	-1.000000	-1.000000	2710300.000000	1772663310.321985
-16970.580000	-31394.565000	-1105.110000	4576.095000	-14523.660000	-13806.900000	11929.590000	-312.615000	8.798856	6.257837	5.452866	3.463766	4.404970	4.588392	6.608360	3.602171	-4.898460	2.853620	-0.457800	0.833067	0.514647	0.172912	-1.000000	-1.000000	-1.000000	-1.000000	-1.000000	-1.000000	-1.000000	64.689655	0.000000	-1.000000	-1.000000	2710300.000000	1772663310.321985
-16986.105000	-31411.395000	-1117.845000	4570.155000	-14531.175000	-13815.990000	11926.035000	-327.555000	4.757203	5.849366	6.269796	6.695773	10.765660	8.935147	6.635574	-11.169834	-3.235120	3.189340	-0.671440	0.833372	0.512816	0.173950	-1.000000	-1.000000	-1.000000	-1.000000	-1.000000	-1.000000	-1.000000	64.689655	0.000000	-1.000000	-1.000000	2710301.000000	1772663310.321992
-16986.105000	-31411.395000	-1117.845000	4570.155000	-14531.175000	-13815.990000	11926.035000	-327.555000	4.757203	5.849366	6.269796	6.695773	10.765660	8.935147	6.635574	-11.169834	-3.235120	3.189340	-0.671440	0.833372	0.512816	0.173950	-1.000000	-1.000000	-1.000000	-1.000000	-1.000000	-1.000000	-1.000000	64.689655	0.000000	-1.000000	-1.000000	2710301.000000	1772663310.321992
-16986.105000	-31411.395000	-1117.845000	4570.155000	-14531.175000	-13815.990000	11926.035000	-327.555000	4.757203	5.849366	6.269796	6.695773	10.765660	8.935147	6.635574	-11.169834	-3.235120	3.189340	-0.671440	0.833372	0.512816	0.173950	-1.000000	-1.000000	-1.000000	-1.000000	-1.000000	-1.000000	-1.000000	64.689655	0.000000	-1.000000	-1.000000	2710301.000000	1772663310.321992
-16972.470000	-31384.845000	-1092.510000	4592.430000	-14524.380000	-13795.245000	11944.530000	-280.935000	-3.266398	2.019326	3.575284	5.220928	9.336597	7.944768	2.453721	-20.517132	-3.235120	3.189340	-0.671440	0.833372	0.512816	0.173950	-1.000000	-1.000000	-1.000000	-1.000000	-1.000000	-1.000000	-1.000000	64.689655	0.000000	-1.000000	-1.000000	2710302.000000	1772663310.321997
-16972.470000	-31384.845000	-1092.510000	4592.430000	-14524.380000	-13795.245000	11944.530000	-280.935000	-3.266398	2.019326	3.575284	5.220928	9.336597	7.944768	2.453721	-20.517132	-3.235120	3.189340	-0.671440	0.833372	0.512816	0.173950	-1.000000	-1.000000	-1.000000	-1.000000	-1.000000	-1.000000	-1.000000	64.689655	0.000000	-1.000000	-1.000000	2710302.000000	1772663310.321997
-16972.470000	-31384.845000	-1092.510000	4592.430000	-14524.380000	-13795.245000	11944.530000	-280.935000	-3.266398	2.019326	3.575284	5.220928	9.336597	7.944768	2.453721	-20.517132	-3.235120	3.189340	-0.671440	0.833372	0.512816	0.173950	-1.000000	-1.000000	-1.000000	-1.000000	-1.000000	-1.000000	-1.000000	64.689655	0.000000	-1.000000	-1.000000	2710302.000000	1772663310.321997
-16959.240000	-31360.365000	-1066.590000	4619.250000	-14478.840000	-13778.640000	11947.320000	-284.715000	-8.439975	-0.146492	2.104142	4.087981	6.704930	6.062685	0.789709	-14.681825	-3.235120	3.189340	-0.671440	0.833372	0.512816	0.173950	-1.000000	-1.000000	-1.000000	-1.000000	-1.000000	-1.000000	-1.000000	64.689655	0.000000	-1.000000	-1.000000	2710303.000000	1772663310.324923
-16959.240000	-31360.365000	-1066.590000	4619.250000	-14478.840000	-13778.640000	11947.320000	-284.715000	-8.439975	-0.146492	2.104142	4.087981	6.704930	6.062685	0.789709	-14.681825	-3.235120	3.189340	-0.671440	0.833372	0.512816	0.173950	-1.000000	-1.000000	-1.000000	-1.000000	-1.000000	-1.000000	-1.000000	64.689655	0.000000	-1.000000	-1.000000	2710303.000000	1772663310.324923
-16959.240000	-31360.365000	-1066.590000	4619.250000	-14478.840000	-13778.640000	11947.320000	-284.715000	-8.439975	-0.146492	2.104142	4.087981	6.704930	6.062685	0.789709	-14.681825	-3.235120	3.189340	-0.671440	0.833372	0.512816	0.173950	-1.000000	-1.000000	-1.000000	-1.000000	-1.000000	-1.000000	-1.000000	64.689655	0.000000	-1.000000	-1.000000	2710303.000000	1772663310.324923
-16977.330000	-31387.320000	-1093.320000	4591.080000	-14510.250000	-13810.365000	11927.790000	-291.105000	-7.082808	1.478821	3.687067	5.608024	7.372228	5.617407	3.226537	3.375422	-3.235120	3.189340	-0.671440	0.833372	0.512816	0.173950	-1.000000	-1.000000	-1.000000	-1.000000	-1.000000	-1.000000	-1.000000	64.689655	0.000000	-1.000000	-1.000000	2710304.000000	1772663310.324928
-16977.330000	-31387.320000	-1093.320000	4591.080000	-14510.250000	-13810.365000	11927.790000	-291.105000	-7.082808	1.478821	3.687067	5.608024	7.372228	5.617407	3.226537	3.375422	-3.235120	3.189340	-0.671440	0.833372	0.512816	0.173950	-1.000000	-1.000000	-1.000000	-1.000000	-1.000000	-1.000000	-1.000000	64.689655	0.000000	-1.000000	-1.000000	2710304.000000	1772663310.324928
-16977.330000	-31387.320000	-1093.320000	4591.080000	-14510.250000	-13810.365000	11927.790000	-291.105000	-7.082808	1.478821	3.687067	5.608024	7.372228	5.617407	3.226537	3.375422	-3.235120	3.189340	-0.671440	0.833372	0.512816	0.173950	-1.000000	-1.000000	-1.000000	-1.000000	-1.000000	-1.000000	-1.000000	64.689655	0.000000	-1.000000	-1.000000	2710304.000000	1772663310.324928
-16961.445000	-31380.120000	-1089.135000	4593.960000	-14522.220000	-13807.305000	11932.335000	-266.220000	-1.279910	4.119148	5.497907	7.094750	8.853250	4.392214	4.637773	21.257760	-3.235120	3.189340	-0.671440	0.833372	0.512816	0.173950	-1.000000	-1.000000	-1.000000	-1.000000	-1.000000	-1.000000	-1.000000	64.689655	0.000000	-1.000000	-1.000000	2710305.000000	1772663310.342989
-16961.445000	-31380.120000	-1089.135000	4593.960000	-14522.220000	-13807.305000	11932.335000	-266.220000	-1.279910	4.119148	5.497907	7.094750	8.853250	4.392214	4.637773	21.257760	-3.235120	3.189340	-0.671440	0.833372	0.512816	0.173950	-1.000000	-1.000000	-1.000000	-1.000000	-1.000000	-1.000000	-1.000000	64.689655	0.000000	-1.000000	-1.000000	2710305.000000	1772663310.342989
-16961.445000	-31380.120000	-1089.135000	4593.960000	-14522.220000	-13807.305000	11932.335000	-266.220000	-1.279910	4.119148	5.497907	7.094750	8.853250	4.392214	4.637773	21.257760	-3.235120	3.189340	-0.671440	0.833372	0.512816	0.173950	-1.000000	-1.000000	-1.000000	-1.000000	-1.000000	-1.000000	-1.000000	64.689655	0.000000	-1.000000	-1.000000	2710305.000000	1772663310.342989
-16940.430000	-31357.485000	-1069.830000	4610.835000	-14496.390000	-13793.400000	11936.430000	-272.655000	4.835108	4.678896	4.665576	5.697779	6.804482	0.805402	1.570146	27.895833	-3.235120	3.189340	-0.671440	0.833372	0.512816	0.173950	-1.000000	-1.000000	-1.000000	-1.000000	-1.000000	-1.000000	-1.000000	64.689655	0.000000	-1.000000	-1.000000	2710306.000000	1772663310.343000
-16940.430000	-31357.485000	-1069.830000	4610.835000	-14496.390000	-13793.400000	11936.430000	-272.655000	4.835108	4.678896	4.665576	5.697779	6.804482	0.805402	1.570146	27.895833	-3.235120	3.189340	-0.671440	0.833372	0.512816	0.173950	-1.000000	-1.000000	-1.000000	-1.000000	-1.000000	-1.000000	-1.000000	64.689655	0.000000	-1.000000	-1.000000	2710306.000000	1772663310.343000
-16940.430000	-31357.485000	-1069.830000	4610.835000	-14496.390000	-13793.400000	11936.430000	-272.655000	4.835108	4.678896	4.665576	5.697779	6.804482	0.805402	1.570146	27.895833	-3.235120	3.189340	-0.671440	0.833372	0.512816	0.173950	-1.000000	-1.000000	-1.000000	-1.000000	-1.000000	-1.000000	-1.000000	64.689655	0.000000	-1.000000	-1.000000	2710306.000000	1772663310.343000
-16947.270000	-31373.505000	-1085.175000	4593.870000	-14509.170000	-13808.520000	11921.355000	-257.670000	8.267440	2.460154	1.020390	1.342887	1.021784	-3.833678	-3.630141	21.497479	-3.235120	3.189340	-0.671440	0.833372	0.512816	0.173950	-1.000000	-1.000000	-1.000000	-1.000000	-1.000000	-1.000000	-1.000000	64.689655	0.000000	-1.000000	-1.000000	2710307.000000	1772663310.343009
-16947.270000	-31373.505000	-1085.175000	4593.870000	-14509.170000	-13808.520000	11921.355000	-257.670000	8.267440	2.460154	1.020390	1.342887	1.021784	-3.833678	-3.630141	21.497479	-3.235120	3.189340	-0.671440	0.833372	0.512816	0.173950	-1.000000	-1.000000	-1.000000	-1.000000	-1.000000	-1.000000	-1.000000	64.689655	0.000000	-1.000000	-1.000000	2710307.000000	1772663310.343009
-16947.270000	-31373.505000	-1085.175000	4593.870000	-14509.170000	-13808.520000	11921.355000	-257.670000	8.267440	2.460154	1.020390	1.342887	1.021784	-3.833678	-3.630141	21.497479	-3.235120	3.189340	-0.671440	0.833372	0.512816	0.173950	-1.000000	-1.000000	-1.000000	-1.000000	-1.000000	-1.000000	-1.000000	64.689655	0.000000	-1.000000	-1.000000	2710307.000000	1772663310.343009
-16939.800000	-31372.515000	-1086.435000	4593.420000	-14513.625000	-13795.470000	11921.805000	-299.295000	7.336501	-2.308260	-4.614114	-4.997823	-6.466505	-8.180249	-7.967905	8.157373	-3.235120	3.189340	-0.671440	0.833372	0.512816	0.173950	-1.000000	-1.000000	-1.000000	-1.000000	-1.000000	-1.000000	-1.000000	64.689655	0.000000	-1.000000	-1.000000	2710308.000000	1772663310.343014
-16939.800000	-31372.515000	-1086.435000	4593.420000	-14513.625000	-13795.470000	11921.805000	-299.295000	7.336501	-2.308260	-4.614114	-4.997823	-6.466505	-8.180249	-7.967905	8.157373	-3.235120	3.189340	-0.671440	0.833372	0.512816	0.173950	-1.000000	-1.000000	-1.000000	-1.000000	-1.000000	-1.000000	-1.000000	64.689655	0.000000	-1.000000	-1.000000	2710308.000000	1772663310.343014
-16939.800000	-31372.515000	-1086.435000	4593.420000	-14513.625000	-13795.470000	11921.805000	-299.295000	7.336501	-2.308260	-4.614114	-4.997823	-6.466505	-8.180249	-7.967905	8.157373	-3.235120	3.189340	-0.671440	0.833372	0.512816	0.173950	-1.000000	-1.000000	-1.000000	-1.000000	-1.000000	-1.000000	-1.000000	64.689655	0.000000	-1.000000	-1.000000	2710308.000000	1772663310.343014
-16932.105000	-31362.075000	-1074.555000	4614.930000	-14485.095000	-13769.415000	11944.035000	-295.425000	3.236896	-6.992059	-9.338840	-10.228895	-12.316500	-9.968755	-9.606407	-5.200614	-3.235120	3.189340	-0.671440	0.833372	0.512816	0.173950	-1.000000	-1.000000	-1.000000	-1.000000	-1.000000	-1.000000	-1.000000	64.689655	0.000000	-1.000000	-1.000000	2710309.000000	1772663310.343018
-16932.105000	-31362.075000	-1074.555000	4614.930000	-14485.095000	-13769.415000	11944.035000	-295.425000	3.236896	-6.992059	-9.338840	-10.228895	-12.316500	-9.968755	-9.606407	-5.200614	-3.235120	3.189340	-0.671440	0.833372	0.512816	0.173950	-1.000000	-1.000000	-1.000000	-1.000000	-1.000000	-1.000000	-1.000000	64.689655	0.000000	-1.000000	-1.000000	2710309.000000	1772663310.343018
-16932.105000	-31362.075000	-1074.555000	4614.930000	-14485.095000	-13769.415000	11944.035000	-295.425000	3.236896	-6.992059	-9.338840	-10.228895	-12.316500	-9.968755	-9.606407	-5.200614	-3.235120	3.189340	-0.671440	0.833372	0.512816	0.173950	-1.000000	-1.000000	-1.000000	-1.000000	-1.000000	-1.000000	-1.000000	64.689655	0.000000	-1.000000	-1.000000	2710309.000000	1772663310.343018
-16981.785000	-31385.070000	-1086.480000	4607.865000	-14488.380000	-13781.655000	11942.235000	-272.295000	-1.194417	-7.674318	-9.218728	-10.155985	-12.158959	-6.518402	-6.653144	-13.984386	-3.235120	3.189340	-0.671440	0.833372	0.512816	0.173950	-1.000000	-1.000000	-1.000000	-1.000000	-1.000000	-1.000000	-1.000000	64.689655	0.000000	-1.000000	-1.000000	2710310.000000	1772663310.343022
-16981.785000	-31385.070000	-1086.480000	4607.865000	-14488.380000	-13781.655000	11942.235000	-272.295000	-1.194417	-7.674318	-9.218728	-10.155985	-12.158959	-6.518402	-6.653144	-13.984386	-3.235120	3.189340	-0.671440	0.833372	0.512816	0.173950	-1.000000	-1.000000	-1.000000	-1.000000	-1.000000	-1.000000	-1.000000	64.689655	0.000000	-1.000000	-1.000000	2710310.000000	1772663310.343022
-16981.785000	-31385.070000	-1086.480000	4607.865000	-14488.380000	-13781.655000	11942.235000	-272.295000	-1.194417	-7.674318	-9.218728	-10.155985	-12.158959	-6.518402	-6.653144	-13.984386	-3.235120	3.189340	-0.671440	0.833372	0.512816	0.173950	-1.000000	-1.000000	-1.000000	-1.000000	-1.000000	-1.000000	-1.000000	64.689655	0.000000	-1.000000	-1.000000	2710310.000000	1772663310.343022
-16984.530000	-31386.690000	-1092.105000	4592.925000	-14509.215000	-13798.260000	11931.255000	-268.920000	-5.593686	-4.957213	-4.946139	-5.434893	-6.180554	0.091060	0.061516	-16.109231	-3.113040	3.692920	-1.419180	0.832762	0.510924	0.173400	-1.000000	-1.000000	-1.000000	-1.000000	-1.000000	-1.000000	-1.000000	64.689655	0.000000	-1.000000	-1.000000	2710311.000000	1772663310.343026
-16984.530000	-31386.690000	-1092.105000	4592.925000	-14509.215000	-13798.260000	11931.255000	-268.920000	-5.593686	-4.957213	-4.946139	-5.434893	-6.180554	0.091060	0.061516	-16.109231	-3.113040	3.692920	-1.419180	0.832762	0.510924	0.173400	-1.000000	-1.000000	-1.000000	-1.000000	-1.000000	-1.000000	-1.000000	64.689655	0.000000	-1.000000	-1.000000	2710311.000000	1772663310.343026
-16984.530000	-31386.690000	-1092.105000	4592.925000	-14509.215000	-13798.260000	11931.255000	-268.920000	-5.593686	-4.957213	-4.946139	-5.434893	-6.180554	0.091060	0.061516	-16.109231	-3.113040	3.692920	-1.419180	0.832762	0.510924	0.173400	-1.000000	-1.000000	-1.000000	-1.000000	-1.000000	-1.000000	-1.000000	64.689655	0.000000	-1.000000	-1.000000	2710311.000000	1772663310.343026
-16966.890000	-31379.355000	-1090.530000	4589.370000	-14521.590000	-13805.505000	11925.945000	-254.790000	-9.682007	-2.418509	-0.838506	-0.954076	-0.142598	4.356373	6.403590	-12.390406	-3.113040	3.692920	-1.419180	0.832762	0.510924	0.173400	-1.000000	-1.000000	-1.000000	-1.000000	-1.000000	-1.000000	-1.000000	64.689655	0.000000	-1.000000	-1.000000	2710312.000000	1772663310.343029
-16966.890000	-31379.355000	-1090.530000	4589.370000	-14521.590000	-13805.505000	11925.945000	-254.790000	-9.682007	-2.418509	-0.838506	-0.954076	-0.142598	4.356373	6.403590	-12.390406	-3.113040	3.692920	-1.419180	0.832762	0.510924	0.173400	-1.000000	-1.000000	-1.000000	-1.000000	-1.000000	-1.000000	-1.000000	64.689655	0.000000	-1.000000	-1.000000	2710312.000000	1772663310.343029
-16966.890000	-31379.355000	-1090.530000	4589.370000	-14521.590000	-13805.505000	11925.945000	-254.790000	-9.682007	-2.418509	-0.838506	-0.954076	-0.142598	4.356373	6.403590	-12.390406	-3.113040	3.692920	-1.419180	0.832762	0.510924	0.173400	-1.000000	-1.000000	-1.000000	-1.000000	-1.000000	-1.000000	-1.000000	64.689655	0.000000	-1.000000	-1.000000	2710312.000000	1772663310.343029
-16929.585000	-31341.195000	-1051.875000	4624.515000	-14496.570000	-13775.895000	11942.595000	-253.080000	-9.794760	-0.231372	1.822800	1.413492	2.369202	4.604736	9.062632	-5.479001	-3.113040	3.692920	-1.419180	0.832762	0.510924	0.173400	-1.000000	-1.000000	-1.000000	-1.000000	-1.000000	-1.000000	-1.000000	64.689655	0.000000	-1.000000	-1.000000	2710313.000000	1772663310.350344
-16929.585000	-31341.195000	-1051.875000	4624.515000	-14496.570000	-13775.895000	11942.595000	-253.080000	-9.794760	-0.231372	1.822800	1.413492	2.369202	4.604736	9.062632	-5.479001	-3.113040	3.692920	-1.419180	0.832762	0.510924	0.173400	-1.000000	-1.000000	-1.000000	-1.000000	-1.000000	-1.000000	-1.000000	64.689655	0.000000	-1.000000	-1.000000	2710313.000000	1772663310.350344
-16929.585000	-31341.195000	-1051.875000	4624.515000	-14496.570000	-13775.895000	11942.595000	-253.080000	-9.794760	-0.231372	1.822800	1.413492	2.369202	4.604736	9.062632	-5.479001	-3.113040	3.692920	-1.419180	0.832762	0.510924	0.173400	-1.000000	-1.000000	-1.000000	-1.000000	-1.000000	-1.000000	-1.000000	64.689655	0.000000	-1.000000	-1.000000	2710313.000000	1772663310.350344
-16886.475000	-31292.145000	-1001.070000	4672.080000	-14431.770000	-13728.690000	11944.035000	-246.600000	-3.075205	4.182946	5.509664	4.400687	4.177882	4.331123	7.861595	0.843098	-3.113040	3.692920	-1.419180	0.832762	0.510924	0.173400	-1.000000	-1.000000	-1.000000	-1.000000	-1.000000	-1.000000	-1.000000	64.689655	0.000000	-1.000000	-1.000000	2710314.000000	1772663310.350355
-16886.475000	-31292.145000	-1001.070000	4672.080000	-14431.770000	-13728.690000	11944.035000	-246.600000	-3.075205	4.182946	5.509664	4.400687	4.177882	4.331123	7.861595	0.843098	-3.113040	3.692920	-1.419180	0.832762	0.510924	0.173400	-1.000000	-1.000000	-1.000000	-1.000000	-1.000000	-1.000000	-1.000000	64.689655	0.000000	-1.000000	-1.000000	2710314.000000	1772663310.350355
-16886.475000	-31292.145000	-1001.070000	4672.080000	-14431.770000	-13728.690000	11944.035000	-246.600000	-3.075205	4.182946	5.509664	4.400687	4.177882	4.331123	7.861595	0.843098	-3.113040	3.692920	-1.419180	0.832762	0.510924	0.173400	-1.000000	-1.000000	-1.000000	-1.000000	-1.000000	-1.000000	-1.000000	64.689655	0.000000	-1.000000	-1.000000	2710314.000000	1772663310.350355
-16819.020000	-31224.015000	-933.390000	4740.930000	-14362.695000	-13681.080000	11922.885000	-121.140000	8.378755	11.258202	11.581554	10.191370	9.305192	6.825026	4.197255	5.246194	-3.113040	3.692920	-1.419180	0.832762	0.510924	0.173400	-1.000000	-1.000000	-1.000000	-1.000000	-1.000000	-1.000000	-1.000000	64.689655	0.000000	-1.000000	-1.000000	2710315.000000	1772663310.350366
-16819.020000	-31224.015000	-933.390000	4740.930000	-14362.695000	-13681.080000	11922.885000	-121.140000	8.378755	11.258202	11.581554	10.191370	9.305192	6.825026	4.197255	5.246194	-3.113040	3.692920	-1.419180	0.832762	0.510924	0.173400	-1.000000	-1.000000	-1.000000	-1.000000	-1.000000	-1.000000	-1.000000	64.689655	0.000000	-1.000000	-1.000000	2710315.000000	1772663310.350366
-16819.020000	-31224.015000	-933.390000	4740.930000	-14362.695000	-13681.080000	11922.885000	-121.140000	8.378755	11.258202	11.581554	10.191370	9.305192	6.825026	4.197255	5.246194	-3.113040	3.692920	-1.419180	0.832762	0.510924	0.173400	-1.000000	-1.000000	-1.000000	-1.000000	-1.000000	-1.000000	-1.000000	64.689655	0.000000	-1.000000	-1.000000	2710315.000000	1772663310.350366
-16859.520000	-31258.260000	-968.895000	4711.455000	-14387.175000	-13701.465000	11992.905000	-130.005000	18.215217	17.159191	16.895209	16.257341	16.118418	10.518593	0.207301	10.624199	-3.113040	3.692920	-1.419180	0.832762	0.510924	0.173400	-1.000000	-1.000000	-1.000000	-1.000000	-1.000000	-1.000000	-1.000000	64.689655	0.000000	-1.000000	-1.000000	2710316.000000	1772663310.350370
-16859.520000	-31258.260000	-968.895000	4711.455000	-14387.175000	-13701.465000	11992.905000	-130.005000	18.215217	17.159191	16.895209	16.257341	16.118418	10.518593	0.207301	10.624199	-3.113040	3.692920	-1.419180	0.832762	0.510924	0.173400	-1.000000	-1.000000	-1.000000	-1.000000	-1.000000	-1.000000	-1.000000	64.689655	0.000000	-1.000000	-1.000000	2710316.000000	1772663310.350370
-16859.520000	-31258.260000	-968.895000	4711.455000	-14387.175000	-13701.465000	11992.905000	-130.005000	18.215217	17.159191	16.895209	16.257341	16.118418	10.518593	0.207301	10.624199	-3.113040	3.692920	-1.419180	0.832762	0.510924	0.173400	-1.000000	-1.000000	-1.000000	-1.000000	-1.000000	-1.000000	-1.000000	64.689655	0.000000	-1.000000	-1.000000	2710316.000000	1772663310.350370
-17000.190000	-31417.650000	-1132.830000	4555.620000	-14541.345000	-13815.270000	12003.795000	-283.950000	17.022138	13.683295	13.184436	14.238659	15.423315	8.386555	-1.074291	14.524406	-3.113040	3.692920	-1.419180	0.832762	0.510924	0.173400	-1.000000	-1.000000	-1.000000	-1.000000	-1.000000	-1.000000	-1.000000	64.689655	0.000000	-1.000000	-1.000000	2710317.000000	1772663310.353652
-17000.190000	-31417.650000	-1132.830000	4555.620000	-14541.345000	-13815.270000	12003.795000	-283.950000	17.022138	13.683295	13.184436	14.238659	15.423315	8.386555	-1.074291	14.524406	-3.113040	3.692920	-1.419180	0.832762	0.510924	0.173400	-1.000000	-1.000000	-1.000000	-1.000000	-1.000000	-1.000000	-1.000000	64.689655	0.000000	-1.000000	-1.000000	2710317.000000	1772663310.353652
-17000.190000	-31417.650000	-1132.830000	4555.620000	-14541.345000	-13815.270000	12003.795000	-283.950000	17.022138	13.683295	13.184436	14.238659	15.423315	8.386555	-1.074291	14.524406	-3.113040	3.692920	-1.419180	0.832762	0.510924	0.173400	-1.000000	-1.000000	-1.000000	-1.000000	-1.000000	-1.000000	-1.000000	64.689655	0.000000	-1.000000	-1.000000	2710317.000000	1772663310.353652
-17014.635000	-31440.645000	-1154.520000	4529.160000	-14566.770000	-13845.150000	11944.080000	-335.700000	-0.350161	-4.847335	-5.637259	-3.044686	-1.175783	-5.378822	-0.026421	6.854966	-3.113040	3.692920	-1.419180	0.832762	0.510924	0.173400	-1.000000	-1.000000	-1.000000	-1.000000	-1.000000	-1.000000	-1.000000	64.689655	0.000000	-1.000000	-1.000000	2710318.000000	1772663310.353662
-17014.635000	-31440.645000	-1154.520000	4529.160000	-14566.770000	-13845.150000	11944.080000	-335.700000	-0.350161	-4.847335	-5.637259	-3.044686	-1.175783	-5.378822	-0.026421	6.854966	-3.113040	3.692920	-1.419180	0.832762	0.510924	0.173400	-1.000000	-1.000000	-1.000000	-1.000000	-1.000000	-1.000000	-1.000000	64.689655	0.000000	-1.000000	-1.000000	2710318.000000	1772663310.353662
-17014.635000	-31440.645000	-1154.520000	4529.160000	-14566.770000	-13845.150000	11944.080000	-335.700000	-0.350161	-4.847335	-5.637259	-3.044686	-1.175783	-5.378822	-0.026421	6.854966	-3.113040	3.692920	-1.419180	0.832762	0.510924	0.173400	-1.000000	-1.000000	-1.000000	-1.000000	-1.000000	-1.000000	-1.000000	64.689655	0.000000	-1.000000	-1.000000	2710318.000000	1772663310.353662
-16994.610000	-31402.935000	-1114.605000	4569.975000	-14532.165000	-13823.865000	11935.080000	-311.715000	-23.783679	-29.336313	-30.599921	-27.928266	-26.568733	-24.637232	-1.489268	-13.736414	-3.113040	3.692920	-1.419180	0.832762	0.510924	0.173400	-1.000000	-1.000000	-1.000000	-1.000000	-1.000000	-1.000000	-1.000000	64.689655	0.000000	-1.000000	-1.000000	2710319.000000	1772663310.365875
-16994.610000	-31402.935000	-1114.605000	4569.975000	-14532.165000	-13823.865000	11935.080000	-311.715000	-23.783679	-29.336313	-30.599921	-27.928266	-26.568733	-24.637232	-1.489268	-13.736414	-3.113040	3.692920	-1.419180	0.832762	0.510924	0.173400	-1.000000	-1.000000	-1.000000	-1.000000	-1.000000	-1.000000	-1.000000	64.689655	0.000000	-1.000000	-1.000000	2710319.000000	1772663310.365875
-16994.610000	-31402.935000	-1114.605000	4569.975000	-14532.165000	-13823.865000	11935.080000	-311.715000	-23.783679	-29.336313	-30.599921	-27.928266	-26.568733	-24.637232	-1.489268	-13.736414	-3.113040	3.692920	-1.419180	0.832762	0.510924	0.173400	-1.000000	-1.000000	-1.000000	-1.000000	-1.000000	-1.000000	-1.000000	64.689655	0.000000	-1.000000	-1.000000	2710319.000000	1772663310.365875
-17011.530000	-31407.480000	-1115.190000	4576.635000	-14521.275000	-13817.205000	11932.875000	-303.345000	-34.961559	-40.607915	-41.982364	-40.551088	-40.482703	-33.693577	-6.776098	-32.583840	-3.113040	3.692920	-1.419180	0.832762	0.510924	0.173400	-1.000000	-1.000000	-1.000000	-1.000000	-1.000000	-1.000000	-1.000000	64.689655	0.000000	-1.000000	-1.000000	2710320.000000	1772663310.365886
-17011.530000	-31407.480000	-1115.190000	4576.635000	-14521.275000	-13817.205000	11932.875000	-303.345000	-34.961559	-40.607915	-41.982364	-40.551088	-40.482703	-33.693577	-6.776098	-32.583840	-3.113040	3.692920	-1.419180	0.832762	0.510924	0.173400	-1.000000	-1.000000	-1.000000	-1.000000	-1.000000	-1.000000	-1.000000	64.689655	0.000000	-1.000000	-1.000000	2710320.000000	1772663310.365886
-17011.530000	-31407.480000	-1115.190000	4576.635000	-14521.275000	-13817.205000	11932.875000	-303.345000	-34.961559	-40.607915	-41.982364	-40.551088	-40.482703	-33.693577	-6.776098	-32.583840	-3.113040	3.692920	-1.419180	0.832762	0.510924	0.173400	-1.000000	-1.000000	-1.000000	-1.000000	-1.000000	-1.000000	-1.000000	64.689655	0.000000	-1.000000	-1.000000	2710320.000000	1772663310.365886
-16977.915000	-31388.940000	-1095.300000	4596.705000	-14501.115000	-13796.010000	11947.635000	-285.525000	-26.004262	-29.175638	-29.631529	-29.343350	-30.251931	-23.232187	-11.008812	-33.865297	-1.709120	3.723440	-2.105880	0.831419	0.510558	0.173645	-1.000000	-1.000000	-1.000000	-1.000000	-1.000000	-1.000000	-1.000000	64.689655	0.000000	-1.000000	-1.000000	2710321.000000	1772663310.365898
-16977.915000	-31388.940000	-1095.300000	4596.705000	-14501.115000	-13796.010000	11947.635000	-285.525000	-26.004262	-29.175638	-29.631529	-29.343350	-30.251931	-23.232187	-11.008812	-33.865297	-1.709120	3.723440	-2.105880	0.831419	0.510558	0.173645	-1.000000	-1.000000	-1.000000	-1.000000	-1.000000	-1.000000	-1.000000	64.689655	0.000000	-1.000000	-1.000000	2710321.000000	1772663310.365898
-16977.915000	-31388.940000	-1095.300000	4596.705000	-14501.115000	-13796.010000	11947.635000	-285.525000	-26.004262	-29.175638	-29.631529	-29.343350	-30.251931	-23.232187	-11.008812	-33.865297	-1.709120	3.723440	-2.105880	0.831419	0.510558	0.173645	-1.000000	-1.000000	-1.000000	-1.000000	-1.000000	-1.000000	-1.000000	64.689655	0.000000	-1.000000	-1.000000	2710321.000000	1772663310.365898
-16942.545000	-31370.265000	-1086.120000	4595.895000	-14518.170000	-13804.965000	11940.930000	-274.365000	-3.376169	-2.529185	-1.427722	-1.536461	-2.550774	0.748617	-9.904155	-15.297859	-1.709120	3.723440	-2.105880	0.831419	0.510558	0.173645	-1.000000	-1.000000	-1.000000	-1.000000	-1.000000	-1.000000	-1.000000	64.689655	0.000000	-1.000000	-1.000000	2710322.000000	1772663310.365902
-16942.545000	-31370.265000	-1086.120000	4595.895000	-14518.170000	-13804.965000	11940.930000	-274.365000	-3.376169	-2.529185	-1.427722	-1.536461	-2.550774	0.748617	-9.904155	-15.297859	-1.709120	3.723440	-2.105880	0.831419	0.510558	0.173645	-1.000000	-1.000000	-1.000000	-1.000000	-1.000000	-1.000000	-1.000000	64.689655	0.000000	-1.000000	-1.000000	2710322.000000	1772663310.365902
-16942.545000	-31370.265000	-1086.120000	4595.895000	-14518.170000	-13804.965000	11940.930000	-274.365000	-3.376169	-2.529185	-1.427722	-1.536461	-2.550774	0.748617	-9.904155	-15.297859	-1.709120	3.723440	-2.105880	0.831419	0.510558	0.173645	-1.000000	-1.000000	-1.000000	-1.000000	-1.000000	-1.000000	-1.000000	64.689655	0.000000	-1.000000	-1.000000	2710322.000000	1772663310.365902
-16979.040000	-31398.255000	-1109.115000	4574.520000	-14527.530000	-13815.810000	11923.965000	-280.215000	19.129298	22.676952	24.695955	24.309034	23.321522	22.421806	-4.096208	11.294812	-1.709120	3.723440	-2.105880	0.831419	0.510558	0.173645	-1.000000	-1.000000	-1.000000	-1.000000	-1.000000	-1.000000	-1.000000	64.689655	0.000000	-1.000000	-1.000000	2710323.000000	1772663310.365906
-16979.040000	-31398.255000	-1109.115000	4574.520000	-14527.530000	-13815.810000	11923.965000	-280.215000	19.129298	22.676952	24.695955	24.309034	23.321522	22.421806	-4.096208	11.294812	-1.709120	3.723440	-2.105880	0.831419	0.510558	0.173645	-1.000000	-1.000000	-1.000000	-1.000000	-1.000000	-1.000000	-1.000000	64.689655	0.000000	-1.000000	-1.000000	2710323.000000	1772663310.365906
-16979.040000	-31398.255000	-1109.115000	4574.520000	-14527.530000	-13815.810000	11923.965000	-280.215000	19.129298	22.676952	24.695955	24.309034	23.321522	22.421806	-4.096208	11.294812	-1.709120	3.723440	-2.105880	0.831419	0.510558	0.173645	-1.000000	-1.000000	-1.000000	-1.000000	-1.000000	-1.000000	-1.000000	64.689655	0.000000	-1.000000	-1.000000	2710323.000000	1772663310.365906
-16987.860000	-31406.490000	-1111.185000	4576.680000	-14524.605000	-13814.820000	11917.395000	-285.480000	28.312150	32.146389	33.942021	32.946518	31.589239	29.085860	2.497752	29.040419	-1.709120	3.723440	-2.105880	0.831419	0.510558	0.173645	-1.000000	-1.000000	-1.000000	-1.000000	-1.000000	-1.000000	-1.000000	64.689655	0.000000	-1.000000	-1.000000	2710324.000000	1772663310.365910
-16987.860000	-31406.490000	-1111.185000	4576.680000	-14524.605000	-13814.820000	11917.395000	-285.480000	28.312150	32.146389	33.942021	32.946518	31.589239	29.085860	2.497752	29.040419	-1.709120	3.723440	-2.105880	0.831419	0.510558	0.173645	-1.000000	-1.000000	-1.000000	-1.000000	-1.000000	-1.000000	-1.000000	64.689655	0.000000	-1.000000	-1.000000	2710324.000000	1772663310.365910
-16987.860000	-31406.490000	-1111.185000	4576.680000	-14524.605000	-13814.820000	11917.395000	-285.480000	28.312150	32.146389	33.942021	32.946518	31.589239	29.085860	2.497752	29.040419	-1.709120	3.723440	-2.105880	0.831419	0.510558	0.173645	-1.000000	-1.000000	-1.000000	-1.000000	-1.000000	-1.000000	-1.000000	64.689655	0.000000	-1.000000	-1.000000	2710324.000000	1772663310.365910
-16959.870000	-31384.395000	-1095.255000	4584.285000	-14520.015000	-13800.420000	11936.250000	-271.260000	22.570387	25.352231	26.381529	24.597789	22.982562	21.355359	5.898017	30.251829	-1.709120	3.723440	-2.105880	0.831419	0.510558	0.173645	-1.000000	-1.000000	-1.000000	-1.000000	-1.000000	-1.000000	-1.000000	64.689655	0.000000	-1.000000	-1.000000	2710325.000000	1772663310.375424
-16959.870000	-31384.395000	-1095.255000	4584.285000	-14520.015000	-13800.420000	11936.250000	-271.260000	22.570387	25.352231	26.381529	24.597789	22.982562	21.355359	5.898017	30.251829	-1.709120	3.723440	-2.105880	0.831419	0.510558	0.173645	-1.000000	-1.000000	-1.000000	-1.000000	-1.000000	-1.000000	-1.000000	64.689655	0.000000	-1.000000	-1.000000	2710325.000000	1772663310.375424
-16959.870000	-31384.395000	-1095.255000	4584.285000	-14520.015000	-13800.420000	11936.250000	-271.260000	22.570387	25.352231	26.381529	24.597789	22.982562	21.355359	5.898017	30.251829	-1.709120	3.723440	-2.105880	0.831419	0.510558	0.173645	-1.000000	-1.000000	-1.000000	-1.000000	-1.000000	-1.000000	-1.000000	64.689655	0.000000	-1.000000	-1.000000	2710325.000000	1772663310.375424
-16949.520000	-31368.195000	-1080.630000	4599.855000	-14502.195000	-13790.025000	11946.645000	-253.305000	13.558115	15.448775	15.610639	12.947275	11.578651	10.673008	5.581916	23.001526	-1.709120	3.723440	-2.105880	0.831419	0.510558	0.173645	-1.000000	-1.000000	-1.000000	-1.000000	-1.000000	-1.000000	-1.000000	64.689655	0.000000	-1.000000	-1.000000	2710326.000000	1772663310.375436
-16949.520000	-31368.195000	-1080.630000	4599.855000	-14502.195000	-13790.025000	11946.645000	-253.305000	13.558115	15.448775	15.610639	12.947275	11.578651	10.673008	5.581916	23.001526	-1.709120	3.723440	-2.105880	0.831419	0.510558	0.173645	-1.000000	-1.000000	-1.000000	-1.000000	-1.000000	-1.000000	-1.000000	64.689655	0.000000	-1.000000	-1.000000	2710326.000000	1772663310.375436
-16949.520000	-31368.195000	-1080.630000	4599.855000	-14502.195000	-13790.025000	11946.645000	-253.305000	13.558115	15.448775	15.610639	12.947275	11.578651	10.673008	5.581916	23.001526	-1.709120	3.723440	-2.105880	0.831419	0.510558	0.173645	-1.000000	-1.000000	-1.000000	-1.000000	-1.000000	-1.000000	-1.000000	64.689655	0.000000	-1.000000	-1.000000	2710326.000000	1772663310.375436
-16970.400000	-31372.875000	-1078.830000	4608.180000	-14502.600000	-13800.330000	11931.570000	-262.170000	10.363836	12.393880	11.654306	8.515510	7.823694	5.796792	4.958734	17.686685	-1.709120	3.723440	-2.105880	0.831419	0.510558	0.173645	-1.000000	-1.000000	-1.000000	-1.000000	-1.000000	-1.000000	-1.000000	64.689655	0.000000	-1.000000	-1.000000	2710327.000000	1772663310.375447
-16970.400000	-31372.875000	-1078.830000	4608.180000	-14502.600000	-13800.330000	11931.570000	-262.170000	10.363836	12.393880	11.654306	8.515510	7.823694	5.796792	4.958734	17.686685	-1.709120	3.723440	-2.105880	0.831419	0.510558	0.173645	-1.000000	-1.000000	-1.000000	-1.000000	-1.000000	-1.000000	-1.000000	64.689655	0.000000	-1.000000	-1.000000	2710327.000000	1772663310.375447
-16970.400000	-31372.875000	-1078.830000	4608.180000	-14502.600000	-13800.330000	11931.570000	-262.170000	10.363836	12.393880	11.654306	8.515510	7.823694	5.796792	4.958734	17.686685	-1.709120	3.723440	-2.105880	0.831419	0.510558	0.173645	-1.000000	-1.000000	-1.000000	-1.000000	-1.000000	-1.000000	-1.000000	64.689655	0.000000	-1.000000	-1.000000	2710327.000000	1772663310.375447
-16974.045000	-31384.530000	-1092.780000	4595.535000	-14509.620000	-13808.520000	11916.945000	-256.950000	9.352394	11.829529	10.409167	8.193815	8.468161	4.633937	6.077225	13.328947	-1.709120	3.723440	-2.105880	0.831419	0.510558	0.173645	-1.000000	-1.000000	-1.000000	-1.000000	-1.000000	-1.000000	-1.000000	64.689655	0.000000	-1.000000	-1.000000	2710328.000000	1772663310.375451
-16974.045000	-31384.530000	-1092.780000	4595.535000	-14509.620000	-13808.520000	11916.945000	-256.950000	9.352394	11.829529	10.409167	8.193815	8.468161	4.633937	6.077225	13.328947	-1.709120	3.723440	-2.105880	0.831419	0.510558	0.173645	-1.000000	-1.000000	-1.000000	-1.000000	-1.000000	-1.000000	-1.000000	64.689655	0.000000	-1.000000	-1.000000	2710328.000000	1772663310.375451
-16974.045000	-31384.530000	-1092.780000	4595.535000	-14509.620000	-13808.520000	11916.945000	-256.950000	9.352394	11.829529	10.409167	8.193815	8.468161	4.633937	6.077225	13.328947	-1.709120	3.723440	-2.105880	0.831419	0.510558	0.173645	-1.000000	-1.000000	-1.000000	-1.000000	-1.000000	-1.000000	-1.000000	64.689655	0.000000	-1.000000	-1.000000	2710328.000000	1772663310.375451
-16958.745000	-31370.535000	-1080.855000	4604.175000	-14503.095000	-13804.245000	11910.510000	-240.165000	3.585062	5.129098	3.468583	3.538285	4.916411	0.820564	6.729347	4.108560	-1.709120	3.723440	-2.105880	0.831419	0.510558	0.173645	-1.000000	-1.000000	-1.000000	-1.000000	-1.000000	-1.000000	-1.000000	64.689655	0.000000	-1.000000	-1.000000	2710329.000000	1772663310.376934
-16958.745000	-31370.535000	-1080.855000	4604.175000	-14503.095000	-13804.245000	11910.510000	-240.165000	3.585062	5.129098	3.468583	3.538285	4.916411	0.820564	6.729347	4.108560	-1.709120	3.723440	-2.105880	0.831419	0.510558	0.173645	-1.000000	-1.000000	-1.000000	-1.000000	-1.000000	-1.000000	-1.000000	64.689655	0.000000	-1.000000	-1.000000	2710329.000000	1772663310.376934
-16958.745000	-31370.535000	-1080.855000	4604.175000	-14503.095000	-13804.245000	11910.510000	-240.165000	3.585062	5.129098	3.468583	3.538285	4.916411	0.820564	6.729347	4.108560	-1.709120	3.723440	-2.105880	0.831419	0.510558	0.173645	-1.000000	-1.000000	-1.000000	-1.000000	-1.000000	-1.000000	-1.000000	64.689655	0.000000	-1.000000	-1.000000	2710329.000000	1772663310.376934
-16954.920000	-31361.535000	-1069.020000	4621.140000	-14479.830000	-13777.965000	11938.410000	-290.700000	-7.537631	-8.229029	-9.658511	-7.180203	-4.705282	-6.849967	4.571676	-10.452268	-1.709120	3.723440	-2.105880	0.831419	0.510558	0.173645	-1.000000	-1.000000	-1.000000	-1.000000	-1.000000	-1.000000	-1.000000	64.689655	0.000000	-1.000000	-1.000000	2710330.000000	1772663310.376949
-16954.920000	-31361.535000	-1069.020000	4621.140000	-14479.830000	-13777.965000	11938.410000	-290.700000	-7.537631	-8.229029	-9.658511	-7.180203	-4.705282	-6.849967	4.571676	-10.452268	-1.709120	3.723440	-2.105880	0.831419	0.510558	0.173645	-1.000000	-1.000000	-1.000000	-1.000000	-1.000000	-1.000000	-1.000000	64.689655	0.000000	-1.000000	-1.000000	2710330.000000	1772663310.376949
-16954.920000	-31361.535000	-1069.020000	4621.140000	-14479.830000	-13777.965000	11938.410000	-290.700000	-7.537631	-8.229029	-9.658511	-7.180203	-4.705282	-6.849967	4.571676	-10.452268	-1.709120	3.723440	-2.105880	0.831419	0.510558	0.173645	-1.000000	-1.000000	-1.000000	-1.000000	-1.000000	-1.000000	-1.000000	64.689655	0.000000	-1.000000	-1.000000	2710330.000000	1772663310.376949
-16956.405000	-31365.585000	-1072.350000	4619.925000	-14479.920000	-13775.265000	11940.930000	-288.630000	-19.602807	-21.856439	-22.463332	-18.371839	-14.990180	-14.037763	0.838755	-25.793797	-3.479280	3.952340	-2.365300	0.832945	0.510680	0.173034	-1.000000	-1.000000	-1.000000	-1.000000	-1.000000	-1.000000	-1.000000	64.689655	0.000000	-1.000000	-1.000000	2710331.000000	1772663310.384802
-16956.405000	-31365.585000	-1072.350000	4619.925000	-14479.920000	-13775.265000	11940.930000	-288.630000	-19.602807	-21.856439	-22.463332	-18.371839	-14.990180	-14.037763	0.838755	-25.793797	-3.479280	3.952340	-2.365300	0.832945	0.510680	0.173034	-1.000000	-1.000000	-1.000000	-1.000000	-1.000000	-1.000000	-1.000000	64.689655	0.000000	-1.000000	-1.000000	2710331.000000	1772663310.384802
-16956.405000	-31365.585000	-1072.350000	4619.925000	-14479.920000	-13775.265000	11940.930000	-288.630000	-19.602807	-21.856439	-22.463332	-18.371839	-14.990180	-14.037763	0.838755	-25.793797	-3.479280	3.952340	-2.365300	0.832945	0.510680	0.173034	-1.000000	-1.000000	-1.000000	-1.000000	-1.000000	-1.000000	-1.000000	64.689655	0.000000	-1.000000	-1.000000	2710331.000000	1772663310.384802
-16947.540000	-31363.380000	-1075.680000	4604.310000	-14517.945000	-13786.515000	11938.815000	-267.345000	-26.516997	-28.891643	-28.380941	-24.030745	-20.903937	-16.663396	-1.636810	-34.911137	-3.479280	3.952340	-2.365300	0.832945	0.510680	0.173034	-1.000000	-1.000000	-1.000000	-1.000000	-1.000000	-1.000000	-1.000000	64.689655	0.000000	-1.000000	-1.000000	2710332.000000	1772663310.384809
-16947.540000	-31363.380000	-1075.680000	4604.310000	-14517.945000	-13786.515000	11938.815000	-267.345000	-26.516997	-28.891643	-28.380941	-24.030745	-20.903937	-16.663396	-1.636810	-34.911137	-3.479280	3.952340	-2.365300	0.832945	0.510680	0.173034	-1.000000	-1.000000	-1.000000	-1.000000	-1.000000	-1.000000	-1.000000	64.689655	0.000000	-1.000000	-1.000000	2710332.000000	1772663310.384809
-16947.540000	-31363.380000	-1075.680000	4604.310000	-14517.945000	-13786.515000	11938.815000	-267.345000	-26.516997	-28.891643	-28.380941	-24.030745	-20.903937	-16.663396	-1.636810	-34.911137	-3.479280	3.952340	-2.365300	0.832945	0.510680	0.173034	-1.000000	-1.000000	-1.000000	-1.000000	-1.000000	-1.000000	-1.000000	64.689655	0.000000	-1.000000	-1.000000	2710332.000000	1772663310.384809
-16937.505000	-31346.595000	-1066.815000	4597.875000	-14555.295000	-13785.390000	11938.770000	-259.155000	-23.441095	-25.432434	-24.505086	-22.076438	-21.961538	-14.286898	-2.437267	-31.548447	-3.479280	3.952340	-2.365300	0.832945	0.510680	0.173034	-1.000000	-1.000000	-1.000000	-1.000000	-1.000000	-1.000000	-1.000000	64.689655	0.000000	-1.000000	-1.000000	2710333.000000	1772663310.384966
-16937.505000	-31346.595000	-1066.815000	4597.875000	-14555.295000	-13785.390000	11938.770000	-259.155000	-23.441095	-25.432434	-24.505086	-22.076438	-21.961538	-14.286898	-2.437267	-31.548447	-3.479280	3.952340	-2.365300	0.832945	0.510680	0.173034	-1.000000	-1.000000	-1.000000	-1.000000	-1.000000	-1.000000	-1.000000	64.689655	0.000000	-1.000000	-1.000000	2710333.000000	1772663310.384966
-16937.505000	-31346.595000	-1066.815000	4597.875000	-14555.295000	-13785.390000	11938.770000	-259.155000	-23.441095	-25.432434	-24.505086	-22.076438	-21.961538	-14.286898	-2.437267	-31.548447	-3.479280	3.952340	-2.365300	0.832945	0.510680	0.173034	-1.000000	-1.000000	-1.000000	-1.000000	-1.000000	-1.000000	-1.000000	64.689655	0.000000	-1.000000	-1.000000	2710333.000000	1772663310.384966
-16916.445000	-31321.845000	-1037.340000	4632.255000	-14477.130000	-13798.260000	11905.515000	-223.335000	-10.354506	-11.773437	-11.486694	-12.889014	-17.629502	-8.484048	-4.003493	-14.685057	-3.479280	3.952340	-2.365300	0.832945	0.510680	0.173034	-1.000000	-1.000000	-1.000000	-1.000000	-1.000000	-1.000000	-1.000000	64.689655	0.000000	-1.000000	-1.000000	2710334.000000	1772663310.384974
-16916.445000	-31321.845000	-1037.340000	4632.255000	-14477.130000	-13798.260000	11905.515000	-223.335000	-10.354506	-11.773437	-11.486694	-12.889014	-17.629502	-8.484048	-4.003493	-14.685057	-3.479280	3.952340	-2.365300	0.832945	0.510680	0.173034	-1.000000	-1.000000	-1.000000	-1.000000	-1.000000	-1.000000	-1.000000	64.689655	0.000000	-1.000000	-1.000000	2710334.000000	1772663310.384974
-16916.445000	-31321.845000	-1037.340000	4632.255000	-14477.130000	-13798.260000	11905.515000	-223.335000	-10.354506	-11.773437	-11.486694	-12.889014	-17.629502	-8.484048	-4.003493	-14.685057	-3.479280	3.952340	-2.365300	0.832945	0.510680	0.173034	-1.000000	-1.000000	-1.000000	-1.000000	-1.000000	-1.000000	-1.000000	64.689655	0.000000	-1.000000	-1.000000	2710334.000000	1772663310.384974
-16869.240000	-31277.790000	-989.460000	4686.840000	-14414.310000	-13749.885000	11937.510000	-162.990000	7.867179	7.396747	6.958161	2.190067	-4.640073	-0.556760	-7.192802	10.303699	-3.479280	3.952340	-2.365300	0.832945	0.510680	0.173034	-1.000000	-1.000000	-1.000000	-1.000000	-1.000000	-1.000000	-1.000000	64.689655	0.000000	-1.000000	-1.000000	2710335.000000	1772663310.388978
-16869.240000	-31277.790000	-989.460000	4686.840000	-14414.310000	-13749.885000	11937.510000	-162.990000	7.867179	7.396747	6.958161	2.190067	-4.640073	-0.556760	-7.192802	10.303699	-3.479280	3.952340	-2.365300	0.832945	0.510680	0.173034	-1.000000	-1.000000	-1.000000	-1.000000	-1.000000	-1.000000	-1.000000	64.689655	0.000000	-1.000000	-1.000000	2710335.000000	1772663310.388978
-16869.240000	-31277.790000	-989.460000	4686.840000	-14414.310000	-13749.885000	11937.510000	-162.990000	7.867179	7.396747	6.958161	2.190067	-4.640073	-0.556760	-7.192802	10.303699	-3.479280	3.952340	-2.365300	0.832945	0.510680	0.173034	-1.000000	-1.000000	-1.000000	-1.000000	-1.000000	-1.000000	-1.000000	64.689655	0.000000	-1.000000	-1.000000	2710335.000000	1772663310.388978
-16910.460000	-31332.555000	-1044.945000	4638.195000	-14460.480000	-13757.715000	11975.760000	-233.730000	23.386800	23.265824	22.893894	17.716315	14.589496	8.248305	-7.791400	32.087100	-3.479280	3.952340	-2.365300	0.832945	0.510680	0.173034	-1.000000	-1.000000	-1.000000	-1.000000	-1.000000	-1.000000	-1.000000	64.689655	0.000000	-1.000000	-1.000000	2710336.000000	1772663310.388987
-16910.460000	-31332.555000	-1044.945000	4638.195000	-14460.480000	-13757.715000	11975.760000	-233.730000	23.386800	23.265824	22.893894	17.716315	14.589496	8.248305	-7.791400	32.087100	-3.479280	3.952340	-2.365300	0.832945	0.510680	0.173034	-1.000000	-1.000000	-1.000000	-1.000000	-1.000000	-1.000000	-1.000000	64.689655	0.000000	-1.000000	-1.000000	2710336.000000	1772663310.388987
-16910.460000	-31332.555000	-1044.945000	4638.195000	-14460.480000	-13757.715000	11975.760000	-233.730000	23.386800	23.265824	22.893894	17.716315	14.589496	8.248305	-7.791400	32.087100	-3.479280	3.952340	-2.365300	0.832945	0.510680	0.173034	-1.000000	-1.000000	-1.000000	-1.000000	-1.000000	-1.000000	-1.000000	64.689655	0.000000	-1.000000	-1.000000	2710336.000000	1772663310.388987
-16960.455000	-31388.715000	-1098.270000	4594.725000	-14501.835000	-13791.690000	11954.745000	-312.165000	27.068773	25.714713	26.066298	23.821696	27.548100	14.351931	-1.971181	36.339192	-3.479280	3.952340	-2.365300	0.832945	0.510680	0.173034	-1.000000	-1.000000	-1.000000	-1.000000	-1.000000	-1.000000	-1.000000	64.689655	0.000000	-1.000000	-1.000000	2710337.000000	1772663310.394199
-16960.455000	-31388.715000	-1098.270000	4594.725000	-14501.835000	-13791.690000	11954.745000	-312.165000	27.068773	25.714713	26.066298	23.821696	27.548100	14.351931	-1.971181	36.339192	-3.479280	3.952340	-2.365300	0.832945	0.510680	0.173034	-1.000000	-1.000000	-1.000000	-1.000000	-1.000000	-1.000000	-1.000000	64.689655	0.000000	-1.000000	-1.000000	2710337.000000	1772663310.394199
-16960.455000	-31388.715000	-1098.270000	4594.725000	-14501.835000	-13791.690000	11954.745000	-312.165000	27.068773	25.714713	26.066298	23.821696	27.548100	14.351931	-1.971181	36.339192	-3.479280	3.952340	-2.365300	0.832945	0.510680	0.173034	-1.000000	-1.000000	-1.000000	-1.000000	-1.000000	-1.000000	-1.000000	64.689655	0.000000	-1.000000	-1.000000	2710337.000000	1772663310.394199
-16980.390000	-31402.890000	-1103.985000	4594.095000	-14497.155000	-13791.015000	11942.460000	-269.190000	14.289480	11.257437	12.558513	14.914697	23.542329	12.921861	6.364941	18.201262	-3.479280	3.952340	-2.365300	0.832945	0.510680	0.173034	-1.000000	-1.000000	-1.000000	-1.000000	-1.000000	-1.000000	-1.000000	64.689655	0.000000	-1.000000	-1.000000	2710338.000000	1772663310.394208
-16980.390000	-31402.890000	-1103.985000	4594.095000	-14497.155000	-13791.015000	11942.460000	-269.190000	14.289480	11.257437	12.558513	14.914697	23.542329	12.921861	6.364941	18.201262	-3.479280	3.952340	-2.365300	0.832945	0.510680	0.173034	-1.000000	-1.000000	-1.000000	-1.000000	-1.000000	-1.000000	-1.000000	64.689655	0.000000	-1.000000	-1.000000	2710338.000000	1772663310.394208
-16980.390000	-31402.890000	-1103.985000	4594.095000	-14497.155000	-13791.015000	11942.460000	-269.190000	14.289480	11.257437	12.558513	14.914697	23.542329	12.921861	6.364941	18.201262	-3.479280	3.952340	-2.365300	0.832945	0.510680	0.173034	-1.000000	-1.000000	-1.000000	-1.000000	-1.000000	-1.000000	-1.000000	64.689655	0.000000	-1.000000	-1.000000	2710338.000000	1772663310.394208
-16978.005000	-31406.220000	-1110.375000	4576.680000	-14525.640000	-13821.615000	11892.780000	-271.800000	-8.566801	-11.536989	-9.429323	-3.547963	4.959041	3.232242	8.791241	-8.736069	-3.479280	3.952340	-2.365300	0.832945	0.510680	0.173034	-1.000000	-1.000000	-1.000000	-1.000000	-1.000000	-1.000000	-1.000000	64.689655	0.000000	-1.000000	-1.000000	2710339.000000	1772663310.398920
-16978.005000	-31406.220000	-1110.375000	4576.680000	-14525.640000	-13821.615000	11892.780000	-271.800000	-8.566801	-11.536989	-9.429323	-3.547963	4.959041	3.232242	8.791241	-8.736069	-3.479280	3.952340	-2.365300	0.832945	0.510680	0.173034	-1.000000	-1.000000	-1.000000	-1.000000	-1.000000	-1.000000	-1.000000	64.689655	0.000000	-1.000000	-1.000000	2710339.000000	1772663310.398920
-16978.005000	-31406.220000	-1110.375000	4576.680000	-14525.640000	-13821.615000	11892.780000	-271.800000	-8.566801	-11.536989	-9.429323	-3.547963	4.959041	3.232242	8.791241	-8.736069	-3.479280	3.952340	-2.365300	0.832945	0.510680	0.173034	-1.000000	-1.000000	-1.000000	-1.000000	-1.000000	-1.000000	-1.000000	64.689655	0.000000	-1.000000	-1.000000	2710339.000000	1772663310.398920
-16931.295000	-31339.440000	-1047.870000	4635.045000	-14477.130000	-13777.065000	11928.465000	-252.675000	-26.577814	-26.908116	-24.774712	-18.814819	-15.360511	-8.903602	2.374602	-25.325116	-3.479280	3.952340	-2.365300	0.832945	0.510680	0.173034	-1.000000	-1.000000	-1.000000	-1.000000	-1.000000	-1.000000	-1.000000	64.689655	0.000000	-1.000000	-1.000000	2710340.000000	1772663310.398932
-16931.295000	-31339.440000	-1047.870000	4635.045000	-14477.130000	-13777.065000	11928.465000	-252.675000	-26.577814	-26.908116	-24.774712	-18.814819	-15.360511	-8.903602	2.374602	-25.325116	-3.479280	3.952340	-2.365300	0.832945	0.510680	0.173034	-1.000000	-1.000000	-1.000000	-1.000000	-1.000000	-1.000000	-1.000000	64.689655	0.000000	-1.000000	-1.000000	2710340.000000	1772663310.398932
-16931.295000	-31339.440000	-1047.870000	4635.045000	-14477.130000	-13777.065000	11928.465000	-252.675000	-26.577814	-26.908116	-24.774712	-18.814819	-15.360511	-8.903602	2.374602	-25.325116	-3.479280	3.952340	-2.365300	0.832945	0.510680	0.173034	-1.000000	-1.000000	-1.000000	-1.000000	-1.000000	-1.000000	-1.000000	64.689655	0.000000	-1.000000	-1.000000	2710340.000000	1772663310.398932
-16945.740000	-31373.910000	-1087.515000	4593.015000	-14520.330000	-13802.715000	11925.315000	-275.040000	-27.758214	-24.090949	-23.180799	-20.558860	-24.005454	-14.981782	-6.593229	-24.618102	-3.860780	3.845520	-1.403920	0.832762	0.510619	0.173278	-1.000000	-1.000000	-1.000000	-1.000000	-1.000000	-1.000000	-1.000000	64.689655	0.000000	-1.000000	-1.000000	2710341.000000	1772663310.401530
-16945.740000	-31373.910000	-1087.515000	4593.015000	-14520.330000	-13802.715000	11925.315000	-275.040000	-27.758214	-24.090949	-23.180799	-20.558860	-24.005454	-14.981782	-6.593229	-24.618102	-3.860780	3.845520	-1.403920	0.832762	0.510619	0.173278	-1.000000	-1.000000	-1.000000	-1.000000	-1.000000	-1.000000	-1.000000	64.689655	0.000000	-1.000000	-1.000000	2710341.000000	1772663310.401530
-16945.740000	-31373.910000	-1087.515000	4593.015000	-14520.330000	-13802.715000	11925.315000	-275.040000	-27.758214	-24.090949	-23.180799	-20.558860	-24.005454	-14.981782	-6.593229	-24.618102	-3.860780	3.845520	-1.403920	0.832762	0.510619	0.173278	-1.000000	-1.000000	-1.000000	-1.000000	-1.000000	-1.000000	-1.000000	64.689655	0.000000	-1.000000	-1.000000	2710341.000000	1772663310.401530
-16941.240000	-31372.110000	-1082.520000	4600.980000	-14502.915000	-13798.440000	11929.005000	-282.015000	-12.914345	-6.688220	-7.693117	-9.253294	-17.026855	-11.280570	-10.151760	-12.654079	-3.860780	3.845520	-1.403920	0.832762	0.510619	0.173278	-1.000000	-1.000000	-1.000000	-1.000000	-1.000000	-1.000000	-1.000000	64.689655	0.000000	-1.000000	-1.000000	2710342.000000	1772663310.401537
-16941.240000	-31372.110000	-1082.520000	4600.980000	-14502.915000	-13798.440000	11929.005000	-282.015000	-12.914345	-6.688220	-7.693117	-9.253294	-17.026855	-11.280570	-10.151760	-12.654079	-3.860780	3.845520	-1.403920	0.832762	0.510619	0.173278	-1.000000	-1.000000	-1.000000	-1.000000	-1.000000	-1.000000	-1.000000	64.689655	0.000000	-1.000000	-1.000000	2710342.000000	1772663310.401537
-16941.240000	-31372.110000	-1082.520000	4600.980000	-14502.915000	-13798.440000	11929.005000	-282.015000	-12.914345	-6.688220	-7.693117	-9.253294	-17.026855	-11.280570	-10.151760	-12.654079	-3.860780	3.845520	-1.403920	0.832762	0.510619	0.173278	-1.000000	-1.000000	-1.000000	-1.000000	-1.000000	-1.000000	-1.000000	64.689655	0.000000	-1.000000	-1.000000	2710342.000000	1772663310.401537
-16955.145000	-31348.485000	-1056.015000	4627.170000	-14477.805000	-13766.805000	11942.280000	-246.690000	6.477741	12.243033	9.850350	5.773961	-1.976123	-0.958791	-6.041019	0.988055	-3.860780	3.845520	-1.403920	0.832762	0.510619	0.173278	-1.000000	-1.000000	-1.000000	-1.000000	-1.000000	-1.000000	-1.000000	64.689655	0.000000	-1.000000	-1.000000	2710343.000000	1772663310.405020
-16955.145000	-31348.485000	-1056.015000	4627.170000	-14477.805000	-13766.805000	11942.280000	-246.690000	6.477741	12.243033	9.850350	5.773961	-1.976123	-0.958791	-6.041019	0.988055	-3.860780	3.845520	-1.403920	0.832762	0.510619	0.173278	-1.000000	-1.000000	-1.000000	-1.000000	-1.000000	-1.000000	-1.000000	64.689655	0.000000	-1.000000	-1.000000	2710343.000000	1772663310.405020
-16955.145000	-31348.485000	-1056.015000	4627.170000	-14477.805000	-13766.805000	11942.280000	-246.690000	6.477741	12.243033	9.850350	5.773961	-1.976123	-0.958791	-6.041019	0.988055	-3.860780	3.845520	-1.403920	0.832762	0.510619	0.173278	-1.000000	-1.000000	-1.000000	-1.000000	-1.000000	-1.000000	-1.000000	64.689655	0.000000	-1.000000	-1.000000	2710343.000000	1772663310.405020
-16946.145000	-31352.535000	-1064.025000	4617.675000	-14486.580000	-13782.645000	11950.560000	-261.630000	18.758750	22.492919	19.847661	15.379334	10.206759	9.643707	2.351387	10.086664	-3.860780	3.845520	-1.403920	0.832762	0.510619	0.173278	-1.000000	-1.000000	-1.000000	-1.000000	-1.000000	-1.000000	-1.000000	64.689655	0.000000	-1.000000	-1.000000	2710344.000000	1772663310.405027
-16946.145000	-31352.535000	-1064.025000	4617.675000	-14486.580000	-13782.645000	11950.560000	-261.630000	18.758750	22.492919	19.847661	15.379334	10.206759	9.643707	2.351387	10.086664	-3.860780	3.845520	-1.403920	0.832762	0.510619	0.173278	-1.000000	-1.000000	-1.000000	-1.000000	-1.000000	-1.000000	-1.000000	64.689655	0.000000	-1.000000	-1.000000	2710344.000000	1772663310.405027
-16946.145000	-31352.535000	-1064.025000	4617.675000	-14486.580000	-13782.645000	11950.560000	-261.630000	18.758750	22.492919	19.847661	15.379334	10.206759	9.643707	2.351387	10.086664	-3.860780	3.845520	-1.403920	0.832762	0.510619	0.173278	-1.000000	-1.000000	-1.000000	-1.000000	-1.000000	-1.000000	-1.000000	64.689655	0.000000	-1.000000	-1.000000	2710344.000000	1772663310.405027
-16947.315000	-31352.940000	-1062.900000	4619.520000	-14487.840000	-13788.900000	11973.420000	-256.545000	20.474323	22.189783	20.138100	16.465992	14.303765	14.582478	9.414133	13.876816	-3.860780	3.845520	-1.403920	0.832762	0.510619	0.173278	-1.000000	-1.000000	-1.000000	-1.000000	-1.000000	-1.000000	-1.000000	64.689655	0.000000	-1.000000	-1.000000	2710345.000000	1772663310.411137
-16947.315000	-31352.940000	-1062.900000	4619.520000	-14487.840000	-13788.900000	11973.420000	-256.545000	20.474323	22.189783	20.138100	16.465992	14.303765	14.582478	9.414133	13.876816	-3.860780	3.845520	-1.403920	0.832762	0.510619	0.173278	-1.000000	-1.000000	-1.000000	-1.000000	-1.000000	-1.000000	-1.000000	64.689655	0.000000	-1.000000	-1.000000	2710345.000000	1772663310.411137
-16947.315000	-31352.940000	-1062.900000	4619.520000	-14487.840000	-13788.900000	11973.420000	-256.545000	20.474323	22.189783	20.138100	16.465992	14.303765	14.582478	9.414133	13.876816	-3.860780	3.845520	-1.403920	0.832762	0.510619	0.173278	-1.000000	-1.000000	-1.000000	-1.000000	-1.000000	-1.000000	-1.000000	64.689655	0.000000	-1.000000	-1.000000	2710345.000000	1772663310.411137
-16954.380000	-31357.215000	-1064.880000	4619.835000	-14485.905000	-13779.315000	11956.815000	-258.030000	15.732960	15.557847	14.489142	11.973118	12.343981	12.279357	11.658680	14.852901	-3.860780	3.845520	-1.403920	0.832762	0.510619	0.173278	-1.000000	-1.000000	-1.000000	-1.000000	-1.000000	-1.000000	-1.000000	64.689655	0.000000	-1.000000	-1.000000	2710346.000000	1772663310.411149
-16954.380000	-31357.215000	-1064.880000	4619.835000	-14485.905000	-13779.315000	11956.815000	-258.030000	15.732960	15.557847	14.489142	11.973118	12.343981	12.279357	11.658680	14.852901	-3.860780	3.845520	-1.403920	0.832762	0.510619	0.173278	-1.000000	-1.000000	-1.000000	-1.000000	-1.000000	-1.000000	-1.000000	64.689655	0.000000	-1.000000	-1.000000	2710346.000000	1772663310.411149
-16954.380000	-31357.215000	-1064.880000	4619.835000	-14485.905000	-13779.315000	11956.815000	-258.030000	15.732960	15.557847	14.489142	11.973118	12.343981	12.279357	11.658680	14.852901	-3.860780	3.845520	-1.403920	0.832762	0.510619	0.173278	-1.000000	-1.000000	-1.000000	-1.000000	-1.000000	-1.000000	-1.000000	64.689655	0.000000	-1.000000	-1.000000	2710346.000000	1772663310.411149
-16992.855000	-31395.285000	-1099.665000	4590.360000	-14508.990000	-13793.265000	11936.385000	-287.055000	8.476312	6.528143	6.531697	5.441545	7.694880	5.698286	8.787224	13.146892	-3.860780	3.845520	-1.403920	0.832762	0.510619	0.173278	-1.000000	-1.000000	-1.000000	-1.000000	-1.000000	-1.000000	-1.000000	64.689655	0.000000	-1.000000	-1.000000	2710347.000000	1772663310.413071
-16992.855000	-31395.285000	-1099.665000	4590.360000	-14508.990000	-13793.265000	11936.385000	-287.055000	8.476312	6.528143	6.531697	5.441545	7.694880	5.698286	8.787224	13.146892	-3.860780	3.845520	-1.403920	0.832762	0.510619	0.173278	-1.000000	-1.000000	-1.000000	-1.000000	-1.000000	-1.000000	-1.000000	64.689655	0.000000	-1.000000	-1.000000	2710347.000000	1772663310.413071
-16992.855000	-31395.285000	-1099.665000	4590.360000	-14508.990000	-13793.265000	11936.385000	-287.055000	8.476312	6.528143	6.531697	5.441545	7.694880	5.698286	8.787224	13.146892	-3.860780	3.845520	-1.403920	0.832762	0.510619	0.173278	-1.000000	-1.000000	-1.000000	-1.000000	-1.000000	-1.000000	-1.000000	64.689655	0.000000	-1.000000	-1.000000	2710347.000000	1772663310.413071
-16990.515000	-31400.550000	-1105.245000	4582.440000	-14517.045000	-13804.740000	11934.360000	-281.115000	-0.739745	-4.269510	-3.276196	-2.391129	1.372060	-1.873989	2.352309	6.381806	-3.860780	3.845520	-1.403920	0.832762	0.510619	0.173278	-1.000000	-1.000000	-1.000000	-1.000000	-1.000000	-1.000000	-1.000000	64.689655	0.000000	-1.000000	-1.000000	2710348.000000	1772663310.413079
-16990.515000	-31400.550000	-1105.245000	4582.440000	-14517.045000	-13804.740000	11934.360000	-281.115000	-0.739745	-4.269510	-3.276196	-2.391129	1.372060	-1.873989	2.352309	6.381806	-3.860780	3.845520	-1.403920	0.832762	0.510619	0.173278	-1.000000	-1.000000	-1.000000	-1.000000	-1.000000	-1.000000	-1.000000	64.689655	0.000000	-1.000000	-1.000000	2710348.000000	1772663310.413079
-16990.515000	-31400.550000	-1105.245000	4582.440000	-14517.045000	-13804.740000	11934.360000	-281.115000	-0.739745	-4.269510	-3.276196	-2.391129	1.372060	-1.873989	2.352309	6.381806	-3.860780	3.845520	-1.403920	0.832762	0.510619	0.173278	-1.000000	-1.000000	-1.000000	-1.000000	-1.000000	-1.000000	-1.000000	64.689655	0.000000	-1.000000	-1.000000	2710348.000000	1772663310.413079
-16973.145000	-31384.530000	-1091.475000	4594.815000	-14506.515000	-13796.955000	11935.620000	-270.900000	-10.430632	-15.348517	-13.550021	-10.419765	-5.411722	-8.346850	-4.874977	-4.132075	-3.860780	3.845520	-1.403920	0.832762	0.510619	0.173278	-1.000000	-1.000000	-1.000000	-1.000000	-1.000000	-1.000000	-1.000000	64.689655	0.000000	-1.000000	-1.000000	2710349.000000	1772663310.418806
-16973.145000	-31384.530000	-1091.475000	4594.815000	-14506.515000	-13796.955000	11935.620000	-270.900000	-10.430632	-15.348517	-13.550021	-10.419765	-5.411722	-8.346850	-4.874977	-4.132075	-3.860780	3.845520	-1.403920	0.832762	0.510619	0.173278	-1.000000	-1.000000	-1.000000	-1.000000	-1.000000	-1.000000	-1.000000	64.689655	0.000000	-1.000000	-1.000000	2710349.000000	1772663310.418806
-16973.145000	-31384.530000	-1091.475000	4594.815000	-14506.515000	-13796.955000	11935.620000	-270.900000	-10.430632	-15.348517	-13.550021	-10.419765	-5.411722	-8.346850	-4.874977	-4.132075	-3.860780	3.845520	-1.403920	0.832762	0.510619	0.173278	-1.000000	-1.000000	-1.000000	-1.000000	-1.000000	-1.000000	-1.000000	64.689655	0.000000	-1.000000	-1.000000	2710349.000000	1772663310.418806
-16964.730000	-31379.130000	-1087.020000	4597.155000	-14512.185000	-13807.890000	11925.675000	-266.985000	-15.876811	-21.339396	-19.128806	-14.530396	-9.195853	-11.535772	-10.162307	-12.418546	-3.860780	3.845520	-1.403920	0.832762	0.510619	0.173278	-1.000000	-1.000000	-1.000000	-1.000000	-1.000000	-1.000000	-1.000000	64.689655	0.000000	-1.000000	-1.000000	2710350.000000	1772663310.418811
-16964.730000	-31379.130000	-1087.020000	4597.155000	-14512.185000	-13807.890000	11925.675000	-266.985000	-15.876811	-21.339396	-19.128806	-14.530396	-9.195853	-11.535772	-10.162307	-12.418546	-3.860780	3.845520	-1.403920	0.832762	0.510619	0.173278	-1.000000	-1.000000	-1.000000	-1.000000	-1.000000	-1.000000	-1.000000	64.689655	0.000000	-1.000000	-1.000000	2710350.000000	1772663310.418811
-16964.730000	-31379.130000	-1087.020000	4597.155000	-14512.185000	-13807.890000	11925.675000	-266.985000	-15.876811	-21.339396	-19.128806	-14.530396	-9.195853	-11.535772	-10.162307	-12.418546	-3.860780	3.845520	-1.403920	0.832762	0.510619	0.173278	-1.000000	-1.000000	-1.000000	-1.000000	-1.000000	-1.000000	-1.000000	64.689655	0.000000	-1.000000	-1.000000	2710350.000000	1772663310.418811
-16957.395000	-31368.825000	-1078.785000	4598.820000	-14527.170000	-13812.480000	11926.620000	-253.755000	-13.342534	-17.715411	-15.826621	-11.599690	-8.221328	-10.134539	-11.694566	-13.704145	-4.349100	4.211760	-1.159760	0.834898	0.508483	0.172729	-1.000000	-1.000000	-1.000000	-1.000000	-1.000000	-1.000000	-1.000000	64.689655	0.000000	-1.000000	-1.000000	2710351.000000	1772663310.421015
-16957.395000	-31368.825000	-1078.785000	4598.820000	-14527.170000	-13812.480000	11926.620000	-253.755000	-13.342534	-17.715411	-15.826621	-11.599690	-8.221328	-10.134539	-11.694566	-13.704145	-4.349100	4.211760	-1.159760	0.834898	0.508483	0.172729	-1.000000	-1.000000	-1.000000	-1.000000	-1.000000	-1.000000	-1.000000	64.689655	0.000000	-1.000000	-1.000000	2710351.000000	1772663310.421015
-16957.395000	-31368.825000	-1078.785000	4598.820000	-14527.170000	-13812.480000	11926.620000	-253.755000	-13.342534	-17.715411	-15.826621	-11.599690	-8.221328	-10.134539	-11.694566	-13.704145	-4.349100	4.211760	-1.159760	0.834898	0.508483	0.172729	-1.000000	-1.000000	-1.000000	-1.000000	-1.000000	-1.000000	-1.000000	64.689655	0.000000	-1.000000	-1.000000	2710351.000000	1772663310.421015
-16947.585000	-31342.320000	-1047.600000	4634.055000	-14478.840000	-13780.710000	11935.845000	-240.660000	-4.317093	-6.330437	-5.597321	-3.746965	-4.898400	-5.334836	-8.990076	-8.750541	-4.349100	4.211760	-1.159760	0.834898	0.508483	0.172729	-1.000000	-1.000000	-1.000000	-1.000000	-1.000000	-1.000000	-1.000000	64.689655	0.000000	-1.000000	-1.000000	2710352.000000	1772663310.421020
-16947.585000	-31342.320000	-1047.600000	4634.055000	-14478.840000	-13780.710000	11935.845000	-240.660000	-4.317093	-6.330437	-5.597321	-3.746965	-4.898400	-5.334836	-8.990076	-8.750541	-4.349100	4.211760	-1.159760	0.834898	0.508483	0.172729	-1.000000	-1.000000	-1.000000	-1.000000	-1.000000	-1.000000	-1.000000	64.689655	0.000000	-1.000000	-1.000000	2710352.000000	1772663310.421020
-16947.585000	-31342.320000	-1047.600000	4634.055000	-14478.840000	-13780.710000	11935.845000	-240.660000	-4.317093	-6.330437	-5.597321	-3.746965	-4.898400	-5.334836	-8.990076	-8.750541	-4.349100	4.211760	-1.159760	0.834898	0.508483	0.172729	-1.000000	-1.000000	-1.000000	-1.000000	-1.000000	-1.000000	-1.000000	64.689655	0.000000	-1.000000	-1.000000	2710352.000000	1772663310.421020
-16938.810000	-31318.965000	-1018.260000	4666.410000	-14437.665000	-13742.955000	11951.055000	-282.690000	5.960871	7.074210	6.492183	5.220163	-0.293105	1.501516	-3.348906	-1.959419	-4.349100	4.211760	-1.159760	0.834898	0.508483	0.172729	-1.000000	-1.000000	-1.000000	-1.000000	-1.000000	-1.000000	-1.000000	64.689655	0.000000	-1.000000	-1.000000	2710353.000000	1772663310.429304
-16938.810000	-31318.965000	-1018.260000	4666.410000	-14437.665000	-13742.955000	11951.055000	-282.690000	5.960871	7.074210	6.492183	5.220163	-0.293105	1.501516	-3.348906	-1.959419	-4.349100	4.211760	-1.159760	0.834898	0.508483	0.172729	-1.000000	-1.000000	-1.000000	-1.000000	-1.000000	-1.000000	-1.000000	64.689655	0.000000	-1.000000	-1.000000	2710353.000000	1772663310.429304
-16938.810000	-31318.965000	-1018.260000	4666.410000	-14437.665000	-13742.955000	11951.055000	-282.690000	5.960871	7.074210	6.492183	5.220163	-0.293105	1.501516	-3.348906	-1.959419	-4.349100	4.211760	-1.159760	0.834898	0.508483	0.172729	-1.000000	-1.000000	-1.000000	-1.000000	-1.000000	-1.000000	-1.000000	64.689655	0.000000	-1.000000	-1.000000	2710353.000000	1772663310.429304
-16969.815000	-31375.620000	-1078.065000	4609.395000	-14493.870000	-13794.705000	11934.315000	-276.345000	12.269127	16.742947	15.566085	12.228296	5.935224	8.867354	2.683867	2.851991	-4.349100	4.211760	-1.159760	0.834898	0.508483	0.172729	-1.000000	-1.000000	-1.000000	-1.000000	-1.000000	-1.000000	-1.000000	64.689655	0.000000	-1.000000	-1.000000	2710354.000000	1772663310.429313
-16969.815000	-31375.620000	-1078.065000	4609.395000	-14493.870000	-13794.705000	11934.315000	-276.345000	12.269127	16.742947	15.566085	12.228296	5.935224	8.867354	2.683867	2.851991	-4.349100	4.211760	-1.159760	0.834898	0.508483	0.172729	-1.000000	-1.000000	-1.000000	-1.000000	-1.000000	-1.000000	-1.000000	64.689655	0.000000	-1.000000	-1.000000	2710354.000000	1772663310.429313
-16969.815000	-31375.620000	-1078.065000	4609.395000	-14493.870000	-13794.705000	11934.315000	-276.345000	12.269127	16.742947	15.566085	12.228296	5.935224	8.867354	2.683867	2.851991	-4.349100	4.211760	-1.159760	0.834898	0.508483	0.172729	-1.000000	-1.000000	-1.000000	-1.000000	-1.000000	-1.000000	-1.000000	64.689655	0.000000	-1.000000	-1.000000	2710354.000000	1772663310.429313
-16936.290000	-31377.735000	-1095.570000	4584.105000	-14526.270000	-13817.835000	11911.365000	-191.115000	12.258915	17.768001	16.446520	12.805867	9.455640	11.943750	6.566823	5.700489	-4.349100	4.211760	-1.159760	0.834898	0.508483	0.172729	-1.000000	-1.000000	-1.000000	-1.000000	-1.000000	-1.000000	-1.000000	64.689655	0.000000	-1.000000	-1.000000	2710355.000000	1772663310.429533
-16936.290000	-31377.735000	-1095.570000	4584.105000	-14526.270000	-13817.835000	11911.365000	-191.115000	12.258915	17.768001	16.446520	12.805867	9.455640	11.943750	6.566823	5.700489	-4.349100	4.211760	-1.159760	0.834898	0.508483	0.172729	-1.000000	-1.000000	-1.000000	-1.000000	-1.000000	-1.000000	-1.000000	64.689655	0.000000	-1.000000	-1.000000	2710355.000000	1772663310.429533
-16936.290000	-31377.735000	-1095.570000	4584.105000	-14526.270000	-13817.835000	11911.365000	-191.115000	12.258915	17.768001	16.446520	12.805867	9.455640	11.943750	6.566823	5.700489	-4.349100	4.211760	-1.159760	0.834898	0.508483	0.172729	-1.000000	-1.000000	-1.000000	-1.000000	-1.000000	-1.000000	-1.000000	64.689655	0.000000	-1.000000	-1.000000	2710355.000000	1772663310.429533
-16934.985000	-31359.645000	-1074.690000	4599.585000	-14516.415000	-13787.550000	11912.400000	-196.290000	8.009201	10.259136	8.338743	5.503117	5.975748	7.611034	7.350210	9.502445	-4.349100	4.211760	-1.159760	0.834898	0.508483	0.172729	-1.000000	-1.000000	-1.000000	-1.000000	-1.000000	-1.000000	-1.000000	64.689655	0.000000	-1.000000	-1.000000	2710356.000000	1772663310.429541
-16934.985000	-31359.645000	-1074.690000	4599.585000	-14516.415000	-13787.550000	11912.400000	-196.290000	8.009201	10.259136	8.338743	5.503117	5.975748	7.611034	7.350210	9.502445	-4.349100	4.211760	-1.159760	0.834898	0.508483	0.172729	-1.000000	-1.000000	-1.000000	-1.000000	-1.000000	-1.000000	-1.000000	64.689655	0.000000	-1.000000	-1.000000	2710356.000000	1772663310.429541
-16934.985000	-31359.645000	-1074.690000	4599.585000	-14516.415000	-13787.550000	11912.400000	-196.290000	8.009201	10.259136	8.338743	5.503117	5.975748	7.611034	7.350210	9.502445	-4.349100	4.211760	-1.159760	0.834898	0.508483	0.172729	-1.000000	-1.000000	-1.000000	-1.000000	-1.000000	-1.000000	-1.000000	64.689655	0.000000	-1.000000	-1.000000	2710356.000000	1772663310.429541
-16948.755000	-31365.630000	-1074.735000	4607.460000	-14511.015000	-13780.890000	11956.185000	-285.480000	2.472910	-0.039288	-2.610262	-4.193571	-1.581186	0.069002	6.541351	12.119299	-4.349100	4.211760	-1.159760	0.834898	0.508483	0.172729	-1.000000	-1.000000	-1.000000	-1.000000	-1.000000	-1.000000	-1.000000	64.689655	0.000000	-1.000000	-1.000000	2710357.000000	1772663310.433037
-16948.755000	-31365.630000	-1074.735000	4607.460000	-14511.015000	-13780.890000	11956.185000	-285.480000	2.472910	-0.039288	-2.610262	-4.193571	-1.581186	0.069002	6.541351	12.119299	-4.349100	4.211760	-1.159760	0.834898	0.508483	0.172729	-1.000000	-1.000000	-1.000000	-1.000000	-1.000000	-1.000000	-1.000000	64.689655	0.000000	-1.000000	-1.000000	2710357.000000	1772663310.433037
-16948.755000	-31365.630000	-1074.735000	4607.460000	-14511.015000	-13780.890000	11956.185000	-285.480000	2.472910	-0.039288	-2.610262	-4.193571	-1.581186	0.069002	6.541351	12.119299	-4.349100	4.211760	-1.159760	0.834898	0.508483	0.172729	-1.000000	-1.000000	-1.000000	-1.000000	-1.000000	-1.000000	-1.000000	64.689655	0.000000	-1.000000	-1.000000	2710357.000000	1772663310.433037
-16977.735000	-31398.660000	-1106.055000	4574.970000	-14525.775000	-13816.215000	11929.185000	-264.330000	-4.349409	-8.550163	-10.396592	-10.217789	-7.245739	-5.221942	5.935041	6.637435	-4.349100	4.211760	-1.159760	0.834898	0.508483	0.172729	-1.000000	-1.000000	-1.000000	-1.000000	-1.000000	-1.000000	-1.000000	64.689655	0.000000	-1.000000	-1.000000	2710358.000000	1772663310.433041
-16977.735000	-31398.660000	-1106.055000	4574.970000	-14525.775000	-13816.215000	11929.185000	-264.330000	-4.349409	-8.550163	-10.396592	-10.217789	-7.245739	-5.221942	5.935041	6.637435	-4.349100	4.211760	-1.159760	0.834898	0.508483	0.172729	-1.000000	-1.000000	-1.000000	-1.000000	-1.000000	-1.000000	-1.000000	64.689655	0.000000	-1.000000	-1.000000	2710358.000000	1772663310.433041
-16977.735000	-31398.660000	-1106.055000	4574.970000	-14525.775000	-13816.215000	11929.185000	-264.330000	-4.349409	-8.550163	-10.396592	-10.217789	-7.245739	-5.221942	5.935041	6.637435	-4.349100	4.211760	-1.159760	0.834898	0.508483	0.172729	-1.000000	-1.000000	-1.000000	-1.000000	-1.000000	-1.000000	-1.000000	64.689655	0.000000	-1.000000	-1.000000	2710358.000000	1772663310.433041
-16949.655000	-31364.055000	-1073.070000	4605.615000	-14497.785000	-13785.120000	11943.225000	-261.990000	-11.843198	-13.529361	-13.027435	-10.798386	-7.723415	-6.802465	5.028529	-6.219892	-4.349100	4.211760	-1.159760	0.834898	0.508483	0.172729	-1.000000	-1.000000	-1.000000	-1.000000	-1.000000	-1.000000	-1.000000	64.689655	0.000000	-1.000000	-1.000000	2710359.000000	1772663310.440452
-16949.655000	-31364.055000	-1073.070000	4605.615000	-14497.785000	-13785.120000	11943.225000	-261.990000	-11.843198	-13.529361	-13.027435	-10.798386	-7.723415	-6.802465	5.028529	-6.219892	-4.349100	4.211760	-1.159760	0.834898	0.508483	0.172729	-1.000000	-1.000000	-1.000000	-1.000000	-1.000000	-1.000000	-1.000000	64.689655	0.000000	-1.000000	-1.000000	2710359.000000	1772663310.440452
-16949.655000	-31364.055000	-1073.070000	4605.615000	-14497.785000	-13785.120000	11943.225000	-261.990000	-11.843198	-13.529361	-13.027435	-10.798386	-7.723415	-6.802465	5.028529	-6.219892	-4.349100	4.211760	-1.159760	0.834898	0.508483	0.172729	-1.000000	-1.000000	-1.000000	-1.000000	-1.000000	-1.000000	-1.000000	64.689655	0.000000	-1.000000	-1.000000	2710359.000000	1772663310.440452
-16933.770000	-31355.955000	-1074.015000	4598.370000	-14511.195000	-13783.230000	11953.485000	-280.935000	-15.626771	-13.302901	-10.430321	-6.936069	-3.579341	-5.036980	2.712007	-17.687259	-4.349100	4.211760	-1.159760	0.834898	0.508483	0.172729	-1.000000	-1.000000	-1.000000	-1.000000	-1.000000	-1.000000	-1.000000	64.689655	0.000000	-1.000000	-1.000000	2710360.000000	1772663310.440458
-16933.770000	-31355.955000	-1074.015000	4598.370000	-14511.195000	-13783.230000	11953.485000	-280.935000	-15.626771	-13.302901	-10.430321	-6.936069	-3.579341	-5.036980	2.712007	-17.687259	-4.349100	4.211760	-1.159760	0.834898	0.508483	0.172729	-1.000000	-1.000000	-1.000000	-1.000000	-1.000000	-1.000000	-1.000000	64.689655	0.000000	-1.000000	-1.000000	2710360.000000	1772663310.440458
-16933.770000	-31355.955000	-1074.015000	4598.370000	-14511.195000	-13783.230000	11953.485000	-280.935000	-15.626771	-13.302901	-10.430321	-6.936069	-3.579341	-5.036980	2.712007	-17.687259	-4.349100	4.211760	-1.159760	0.834898	0.508483	0.172729	-1.000000	-1.000000	-1.000000	-1.000000	-1.000000	-1.000000	-1.000000	64.689655	0.000000	-1.000000	-1.000000	2710360.000000	1772663310.440458
-16985.025000	-31394.835000	-1105.470000	4573.125000	-14523.750000	-13821.705000	11912.220000	-302.355000	-12.813358	-8.534712	-5.077755	-2.006267	0.674875	-2.324615	-1.398729	-21.361233	-2.395820	3.921820	-1.251320	0.834837	0.509276	0.171447	-1.000000	-1.000000	-1.000000	-1.000000	-1.000000	-1.000000	-1.000000	64.689655	0.000000	-1.000000	-1.000000	2710361.000000	1772663310.441034
-16985.025000	-31394.835000	-1105.470000	4573.125000	-14523.750000	-13821.705000	11912.220000	-302.355000	-12.813358	-8.534712	-5.077755	-2.006267	0.674875	-2.324615	-1.398729	-21.361233	-2.395820	3.921820	-1.251320	0.834837	0.509276	0.171447	-1.000000	-1.000000	-1.000000	-1.000000	-1.000000	-1.000000	-1.000000	64.689655	0.000000	-1.000000	-1.000000	2710361.000000	1772663310.441034
-16985.025000	-31394.835000	-1105.470000	4573.125000	-14523.750000	-13821.705000	11912.220000	-302.355000	-12.813358	-8.534712	-5.077755	-2.006267	0.674875	-2.324615	-1.398729	-21.361233	-2.395820	3.921820	-1.251320	0.834837	0.509276	0.171447	-1.000000	-1.000000	-1.000000	-1.000000	-1.000000	-1.000000	-1.000000	64.689655	0.000000	-1.000000	-1.000000	2710361.000000	1772663310.441034
-16987.455000	-31395.870000	-1104.480000	4575.510000	-14529.465000	-13834.080000	11890.755000	-276.975000	-6.145516	-2.951263	-0.838563	0.410427	0.830790	-2.391033	-7.710221	-15.284650	-2.395820	3.921820	-1.251320	0.834837	0.509276	0.171447	-1.000000	-1.000000	-1.000000	-1.000000	-1.000000	-1.000000	-1.000000	64.689655	0.000000	-1.000000	-1.000000	2710362.000000	1772663310.441039
-16987.455000	-31395.870000	-1104.480000	4575.510000	-14529.465000	-13834.080000	11890.755000	-276.975000	-6.145516	-2.951263	-0.838563	0.410427	0.830790	-2.391033	-7.710221	-15.284650	-2.395820	3.921820	-1.251320	0.834837	0.509276	0.171447	-1.000000	-1.000000	-1.000000	-1.000000	-1.000000	-1.000000	-1.000000	64.689655	0.000000	-1.000000	-1.000000	2710362.000000	1772663310.441039
-16987.455000	-31395.870000	-1104.480000	4575.510000	-14529.465000	-13834.080000	11890.755000	-276.975000	-6.145516	-2.951263	-0.838563	0.410427	0.830790	-2.391033	-7.710221	-15.284650	-2.395820	3.921820	-1.251320	0.834837	0.509276	0.171447	-1.000000	-1.000000	-1.000000	-1.000000	-1.000000	-1.000000	-1.000000	64.689655	0.000000	-1.000000	-1.000000	2710362.000000	1772663310.441039
-16976.970000	-31393.395000	-1106.415000	4569.030000	-14535.765000	-13818.105000	11889.135000	-281.115000	0.841556	1.968662	2.159777	1.299128	-1.332286	-4.259344	-13.988996	-1.601538	-2.395820	3.921820	-1.251320	0.834837	0.509276	0.171447	-1.000000	-1.000000	-1.000000	-1.000000	-1.000000	-1.000000	-1.000000	64.689655	0.000000	-1.000000	-1.000000	2710363.000000	1772663310.448782
-16976.970000	-31393.395000	-1106.415000	4569.030000	-14535.765000	-13818.105000	11889.135000	-281.115000	0.841556	1.968662	2.159777	1.299128	-1.332286	-4.259344	-13.988996	-1.601538	-2.395820	3.921820	-1.251320	0.834837	0.509276	0.171447	-1.000000	-1.000000	-1.000000	-1.000000	-1.000000	-1.000000	-1.000000	64.689655	0.000000	-1.000000	-1.000000	2710363.000000	1772663310.448782
-16976.970000	-31393.395000	-1106.415000	4569.030000	-14535.765000	-13818.105000	11889.135000	-281.115000	0.841556	1.968662	2.159777	1.299128	-1.332286	-4.259344	-13.988996	-1.601538	-2.395820	3.921820	-1.251320	0.834837	0.509276	0.171447	-1.000000	-1.000000	-1.000000	-1.000000	-1.000000	-1.000000	-1.000000	64.689655	0.000000	-1.000000	-1.000000	2710363.000000	1772663310.448782
-16976.655000	-31383.720000	-1090.980000	4585.320000	-14527.215000	-13811.040000	11926.935000	-265.410000	6.962557	7.375970	6.462996	4.252521	-0.696227	-2.767682	-14.275146	12.026867	-2.395820	3.921820	-1.251320	0.834837	0.509276	0.171447	-1.000000	-1.000000	-1.000000	-1.000000	-1.000000	-1.000000	-1.000000	64.689655	0.000000	-1.000000	-1.000000	2710364.000000	1772663310.448789
-16976.655000	-31383.720000	-1090.980000	4585.320000	-14527.215000	-13811.040000	11926.935000	-265.410000	6.962557	7.375970	6.462996	4.252521	-0.696227	-2.767682	-14.275146	12.026867	-2.395820	3.921820	-1.251320	0.834837	0.509276	0.171447	-1.000000	-1.000000	-1.000000	-1.000000	-1.000000	-1.000000	-1.000000	64.689655	0.000000	-1.000000	-1.000000	2710364.000000	1772663310.448789
-16976.655000	-31383.720000	-1090.980000	4585.320000	-14527.215000	-13811.040000	11926.935000	-265.410000	6.962557	7.375970	6.462996	4.252521	-0.696227	-2.767682	-14.275146	12.026867	-2.395820	3.921820	-1.251320	0.834837	0.509276	0.171447	-1.000000	-1.000000	-1.000000	-1.000000	-1.000000	-1.000000	-1.000000	64.689655	0.000000	-1.000000	-1.000000	2710364.000000	1772663310.448789
-16972.560000	-31378.005000	-1083.240000	4595.220000	-14509.305000	-13805.955000	11938.365000	-257.130000	11.039334	12.209226	11.505154	9.321804	4.152897	3.217833	-5.291616	18.819458	-2.395820	3.921820	-1.251320	0.834837	0.509276	0.171447	-1.000000	-1.000000	-1.000000	-1.000000	-1.000000	-1.000000	-1.000000	64.689655	0.000000	-1.000000	-1.000000	2710365.000000	1772663310.456421
-16972.560000	-31378.005000	-1083.240000	4595.220000	-14509.305000	-13805.955000	11938.365000	-257.130000	11.039334	12.209226	11.505154	9.321804	4.152897	3.217833	-5.291616	18.819458	-2.395820	3.921820	-1.251320	0.834837	0.509276	0.171447	-1.000000	-1.000000	-1.000000	-1.000000	-1.000000	-1.000000	-1.000000	64.689655	0.000000	-1.000000	-1.000000	2710365.000000	1772663310.456421
-16972.560000	-31378.005000	-1083.240000	4595.220000	-14509.305000	-13805.955000	11938.365000	-257.130000	11.039334	12.209226	11.505154	9.321804	4.152897	3.217833	-5.291616	18.819458	-2.395820	3.921820	-1.251320	0.834837	0.509276	0.171447	-1.000000	-1.000000	-1.000000	-1.000000	-1.000000	-1.000000	-1.000000	64.689655	0.000000	-1.000000	-1.000000	2710365.000000	1772663310.456421
-16974.270000	-31379.085000	-1086.840000	4598.100000	-14507.730000	-13784.130000	11936.520000	-259.695000	11.984907	13.534205	13.653036	12.762472	9.747973	9.613026	7.967394	19.022367	-2.395820	3.921820	-1.251320	0.834837	0.509276	0.171447	-1.000000	-1.000000	-1.000000	-1.000000	-1.000000	-1.000000	-1.000000	64.689655	0.000000	-1.000000	-1.000000	2710366.000000	1772663310.456431
-16974.270000	-31379.085000	-1086.840000	4598.100000	-14507.730000	-13784.130000	11936.520000	-259.695000	11.984907	13.534205	13.653036	12.762472	9.747973	9.613026	7.967394	19.022367	-2.395820	3.921820	-1.251320	0.834837	0.509276	0.171447	-1.000000	-1.000000	-1.000000	-1.000000	-1.000000	-1.000000	-1.000000	64.689655	0.000000	-1.000000	-1.000000	2710366.000000	1772663310.456431
-16974.270000	-31379.085000	-1086.840000	4598.100000	-14507.730000	-13784.130000	11936.520000	-259.695000	11.984907	13.534205	13.653036	12.762472	9.747973	9.613026	7.967394	19.022367	-2.395820	3.921820	-1.251320	0.834837	0.509276	0.171447	-1.000000	-1.000000	-1.000000	-1.000000	-1.000000	-1.000000	-1.000000	64.689655	0.000000	-1.000000	-1.000000	2710366.000000	1772663310.456431
-16941.105000	-31342.635000	-1051.200000	4633.920000	-14454.765000	-13751.730000	11955.195000	-243.855000	10.400950	10.731592	11.147121	12.020304	12.419611	13.345163	17.026414	15.338529	-2.395820	3.921820	-1.251320	0.834837	0.509276	0.171447	-1.000000	-1.000000	-1.000000	-1.000000	-1.000000	-1.000000	-1.000000	64.689655	0.000000	-1.000000	-1.000000	2710367.000000	1772663310.456440
-16941.105000	-31342.635000	-1051.200000	4633.920000	-14454.765000	-13751.730000	11955.195000	-243.855000	10.400950	10.731592	11.147121	12.020304	12.419611	13.345163	17.026414	15.338529	-2.395820	3.921820	-1.251320	0.834837	0.509276	0.171447	-1.000000	-1.000000	-1.000000	-1.000000	-1.000000	-1.000000	-1.000000	64.689655	0.000000	-1.000000	-1.000000	2710367.000000	1772663310.456440
-16941.105000	-31342.635000	-1051.200000	4633.920000	-14454.765000	-13751.730000	11955.195000	-243.855000	10.400950	10.731592	11.147121	12.020304	12.419611	13.345163	17.026414	15.338529	-2.395820	3.921820	-1.251320	0.834837	0.509276	0.171447	-1.000000	-1.000000	-1.000000	-1.000000	-1.000000	-1.000000	-1.000000	64.689655	0.000000	-1.000000	-1.000000	2710367.000000	1772663310.456440
-16890.165000	-31298.265000	-1006.245000	4678.650000	-14417.820000	-13732.740000	11970.855000	-234.405000	8.030779	6.049288	5.937866	8.126586	11.613443	13.694586	17.833592	8.690285	-2.395820	3.921820	-1.251320	0.834837	0.509276	0.171447	-1.000000	-1.000000	-1.000000	-1.000000	-1.000000	-1.000000	-1.000000	64.689655	0.000000	-1.000000	-1.000000	2710368.000000	1772663310.456445
-16890.165000	-31298.265000	-1006.245000	4678.650000	-14417.820000	-13732.740000	11970.855000	-234.405000	8.030779	6.049288	5.937866	8.126586	11.613443	13.694586	17.833592	8.690285	-2.395820	3.921820	-1.251320	0.834837	0.509276	0.171447	-1.000000	-1.000000	-1.000000	-1.000000	-1.000000	-1.000000	-1.000000	64.689655	0.000000	-1.000000	-1.000000	2710368.000000	1772663310.456445
-16890.165000	-31298.265000	-1006.245000	4678.650000	-14417.820000	-13732.740000	11970.855000	-234.405000	8.030779	6.049288	5.937866	8.126586	11.613443	13.694586	17.833592	8.690285	-2.395820	3.921820	-1.251320	0.834837	0.509276	0.171447	-1.000000	-1.000000	-1.000000	-1.000000	-1.000000	-1.000000	-1.000000	64.689655	0.000000	-1.000000	-1.000000	2710368.000000	1772663310.456445
