Channel1	Channel2	Channel3	Channel4	Channel5	Channel6	Channel7	Channel8	FilteredChannel1	FilteredChannel2	FilteredChannel3	FilteredChannel4	FilteredChannel5	FilteredChannel6	FilteredChannel7	FilteredChannel8	GyroX	GyroY	GyroZ	AccX	AccY	AccZ	PPG1	PPG2	rawPPG1	rawPPG2	rawPPG3	Hr	Hrv	Battery	Trigger	PhysicalTrigger	AutoTrigger	NumMeasurements	Timestamp
-24741.585000	-27706.635000	-29868.075000	-12723.930000	-28356.570000	-15454.530000	-140.805000	-11966.895000	-9.721094	3.087222	6.827383	9.875661	8.040063	6.310296	1.276359	-14.956282	-3.219860	4.471180	-3.708180	0.877866	-0.365356	0.303832	-1.000000	-1.000000	-1.000000	-1.000000	-1.000000	-1.000000	-1.000000	71.448276	0.000000	-1.000000	-1.000000	2359250.000000	1770066215.848930
-24742.440000	-27715.770000	-29865.150000	-12716.730000	-28348.470000	-15448.635000	-140.175000	-11972.610000	-6.272029	3.185298	5.787085	7.331415	5.832957	5.234382	1.157734	-14.730303	-3.464020	6.897520	-3.692920	0.880491	-0.364196	0.300475	-1.000000	-1.000000	-1.000000	-1.000000	-1.000000	-1.000000	-1.000000	71.448276	0.000000	-1.000000	-1.000000	2359251.000000	1770066215.859454
-24746.760000	-27708.615000	-29860.830000	-12712.590000	-28344.690000	-15443.955000	-136.170000	-11972.745000	-1.055405	2.649611	2.267090	2.167770	1.500706	2.056381	0.761514	-7.538776	-3.464020	6.897520	-3.692920	0.880491	-0.364196	0.300475	-1.000000	-1.000000	-1.000000	-1.000000	-1.000000	-1.000000	-1.000000	71.448276	0.000000	-1.000000	-1.000000	2359252.000000	1770066215.859462
-24718.095000	-27675.225000	-29835.855000	-12691.890000	-28325.295000	-15426.855000	-123.255000	-11951.820000	3.896860	3.718088	0.014845	-1.374119	-1.273867	-0.148730	0.600130	0.459021	-3.464020	6.897520	-3.692920	0.880491	-0.364196	0.300475	-1.000000	-1.000000	-1.000000	-1.000000	-1.000000	-1.000000	-1.000000	71.448276	0.000000	-1.000000	-1.000000	2359253.000000	1770066215.859471
-24717.015000	-27687.780000	-29846.430000	-12704.715000	-28339.065000	-15444.990000	-138.960000	-11963.430000	6.080697	5.876285	0.636947	-1.464692	-1.060374	0.005991	0.870869	5.028215	-3.464020	6.897520	-3.692920	0.880491	-0.364196	0.300475	-1.000000	-1.000000	-1.000000	-1.000000	-1.000000	-1.000000	-1.000000	71.448276	0.000000	-1.000000	-1.000000	2359254.000000	1770066215.859476
-24714.990000	-27706.590000	-29860.200000	-12720.015000	-28352.115000	-15455.385000	-137.340000	-11956.590000	5.285853	6.316740	2.020161	-0.277290	0.055715	0.735593	0.847911	5.969176	-3.464020	6.897520	-3.692920	0.880491	-0.364196	0.300475	-1.000000	-1.000000	-1.000000	-1.000000	-1.000000	-1.000000	-1.000000	71.448276	0.000000	-1.000000	-1.000000	2359255.000000	1770066215.859482
-24728.580000	-27710.190000	-29862.495000	-12720.870000	-28351.665000	-15451.380000	-130.590000	-11968.380000	3.159493	3.003588	0.973162	-1.090010	-0.727616	-0.293969	-0.062637	4.899435	-3.464020	6.897520	-3.692920	0.880491	-0.364196	0.300475	-1.000000	-1.000000	-1.000000	-1.000000	-1.000000	-1.000000	-1.000000	71.448276	0.000000	-1.000000	-1.000000	2359256.000000	1770066215.859487
-24744.870000	-27714.105000	-29870.820000	-12730.185000	-28360.260000	-15457.815000	-138.195000	-11996.055000	-0.039293	-3.158882	-2.938519	-4.217525	-3.479571	-2.881588	-1.299194	2.736522	-3.464020	6.897520	-3.692920	0.880491	-0.364196	0.300475	-1.000000	-1.000000	-1.000000	-1.000000	-1.000000	-1.000000	-1.000000	71.448276	0.000000	-1.000000	-1.000000	2359257.000000	1770066215.863503
-24761.160000	-27713.250000	-29869.830000	-12728.160000	-28358.595000	-15455.205000	-144.405000	-12027.555000	-4.660598	-9.033733	-7.033065	-7.014284	-5.859057	-4.978797	-2.130503	-0.961362	-3.464020	6.897520	-3.692920	0.880491	-0.364196	0.300475	-1.000000	-1.000000	-1.000000	-1.000000	-1.000000	-1.000000	-1.000000	71.448276	0.000000	-1.000000	-1.000000	2359258.000000	1770066215.863514
-24764.670000	-27727.380000	-29873.475000	-12730.770000	-28362.690000	-15457.995000	-146.115000	-11990.205000	-8.825948	-11.483578	-8.213426	-6.858699	-5.774343	-5.000560	-2.385745	-5.393895	-3.464020	6.897520	-3.692920	0.880491	-0.364196	0.300475	-1.000000	-1.000000	-1.000000	-1.000000	-1.000000	-1.000000	-1.000000	71.448276	0.000000	-1.000000	-1.000000	2359259.000000	1770066215.870598
-24748.965000	-27742.365000	-29872.170000	-12725.415000	-28355.760000	-15451.560000	-134.550000	-11944.755000	-9.102981	-9.290009	-5.447821	-3.316684	-2.980475	-2.832252	-1.895465	-6.408618	-3.464020	6.897520	-3.692920	0.880491	-0.364196	0.300475	-1.000000	-1.000000	-1.000000	-1.000000	-1.000000	-1.000000	-1.000000	71.448276	0.000000	-1.000000	-1.000000	2359260.000000	1770066215.870606
-24725.610000	-27706.320000	-29858.445000	-12714.840000	-28347.435000	-15447.015000	-136.170000	-11953.980000	-3.700379	-3.476074	-0.134639	1.935758	1.228318	0.479448	-0.541030	-1.163542	-3.128300	8.011500	-4.837420	0.881956	-0.363585	0.299987	-1.000000	-1.000000	-1.000000	-1.000000	-1.000000	-1.000000	-1.000000	71.448276	0.000000	-1.000000	-1.000000	2359261.000000	1770066215.871372
-24731.865000	-27680.715000	-29850.840000	-12711.330000	-28346.265000	-15449.535000	-145.710000	-11976.615000	4.617175	3.902356	5.170261	6.483048	4.986144	3.423865	0.945888	6.157256	-3.128300	8.011500	-4.837420	0.881956	-0.363585	0.299987	-1.000000	-1.000000	-1.000000	-1.000000	-1.000000	-1.000000	-1.000000	71.448276	0.000000	-1.000000	-1.000000	2359262.000000	1770066215.871379
-24741.045000	-27700.380000	-29855.970000	-12715.965000	-28351.710000	-15455.700000	-146.745000	-11978.145000	10.208174	10.457621	8.309161	8.516054	6.788062	4.879543	1.606798	8.756671	-3.128300	8.011500	-4.837420	0.881956	-0.363585	0.299987	-1.000000	-1.000000	-1.000000	-1.000000	-1.000000	-1.000000	-1.000000	71.448276	0.000000	-1.000000	-1.000000	2359263.000000	1770066215.875420
-24737.535000	-27713.070000	-29867.940000	-12732.975000	-28368.720000	-15467.985000	-141.030000	-11959.425000	10.106362	13.323156	8.222027	7.342069	5.984735	4.469037	1.451318	5.389861	-3.128300	8.011500	-4.837420	0.881956	-0.363585	0.299987	-1.000000	-1.000000	-1.000000	-1.000000	-1.000000	-1.000000	-1.000000	71.448276	0.000000	-1.000000	-1.000000	2359264.000000	1770066215.875426
-24724.215000	-27696.420000	-29852.640000	-12717.855000	-28351.215000	-15448.905000	-123.615000	-11951.235000	6.056640	10.756255	5.146475	3.494292	2.977629	2.514515	1.282750	0.503431	-3.128300	8.011500	-4.837420	0.881956	-0.363585	0.299987	-1.000000	-1.000000	-1.000000	-1.000000	-1.000000	-1.000000	-1.000000	71.448276	0.000000	-1.000000	-1.000000	2359265.000000	1770066215.881954
-24749.775000	-27700.875000	-29860.470000	-12713.355000	-28339.335000	-15436.485000	-124.740000	-11984.085000	1.463323	4.174455	0.834155	-0.853429	-0.221663	0.526189	1.894923	-1.742662	-3.128300	8.011500	-4.837420	0.881956	-0.363585	0.299987	-1.000000	-1.000000	-1.000000	-1.000000	-1.000000	-1.000000	-1.000000	71.448276	0.000000	-1.000000	-1.000000	2359266.000000	1770066215.881965
-24780.555000	-27716.040000	-29867.265000	-12714.480000	-28342.395000	-15440.445000	-138.285000	-12017.160000	-2.286708	-3.271765	-2.829975	-3.349846	-1.514842	-0.050408	2.848337	-2.006220	-3.128300	8.011500	-4.837420	0.881956	-0.363585	0.299987	-1.000000	-1.000000	-1.000000	-1.000000	-1.000000	-1.000000	-1.000000	71.448276	0.000000	-1.000000	-1.000000	2359267.000000	1770066215.883447
-24768.000000	-27728.370000	-29874.015000	-12726.315000	-28356.570000	-15453.945000	-144.990000	-11984.355000	-5.494027	-8.877812	-5.172762	-3.826549	-1.357866	0.009208	2.329798	-3.639969	-3.128300	8.011500	-4.837420	0.881956	-0.363585	0.299987	-1.000000	-1.000000	-1.000000	-1.000000	-1.000000	-1.000000	-1.000000	71.448276	0.000000	-1.000000	-1.000000	2359268.000000	1770066215.883458
-24730.785000	-27709.200000	-29858.625000	-12722.850000	-28352.970000	-15448.320000	-132.120000	-11936.340000	-7.026392	-10.664762	-5.924011	-3.727492	-1.796427	-1.062500	-0.458392	-6.387919	-3.128300	8.011500	-4.837420	0.881956	-0.363585	0.299987	-1.000000	-1.000000	-1.000000	-1.000000	-1.000000	-1.000000	-1.000000	71.448276	0.000000	-1.000000	-1.000000	2359269.000000	1770066215.889595
-24739.695000	-27696.555000	-29838.465000	-12707.190000	-28339.515000	-15439.005000	-130.275000	-11952.405000	-5.333143	-8.420921	-4.631867	-3.726968	-3.314162	-3.165478	-3.698514	-6.202529	-3.128300	8.011500	-4.837420	0.881956	-0.363585	0.299987	-1.000000	-1.000000	-1.000000	-1.000000	-1.000000	-1.000000	-1.000000	71.448276	0.000000	-1.000000	-1.000000	2359270.000000	1770066215.889606
-24722.865000	-27691.650000	-29839.050000	-12701.565000	-28331.730000	-15429.420000	-119.565000	-11950.515000	-1.296388	-4.009052	-1.442476	-2.945637	-4.119838	-4.160913	-4.637064	-1.544418	-2.884140	7.309540	-5.493600	0.882993	-0.363891	0.301574	-1.000000	-1.000000	-1.000000	-1.000000	-1.000000	-1.000000	-1.000000	71.448276	0.000000	-1.000000	-1.000000	2359271.000000	1770066215.891348
-24719.490000	-27695.655000	-29852.505000	-12704.310000	-28333.755000	-15431.400000	-121.140000	-11964.150000	3.165834	0.899212	2.209486	-0.509635	-2.449015	-2.367609	-2.389596	4.332821	-2.884140	7.309540	-5.493600	0.882993	-0.363891	0.301574	-1.000000	-1.000000	-1.000000	-1.000000	-1.000000	-1.000000	-1.000000	71.448276	0.000000	-1.000000	-1.000000	2359272.000000	1770066215.891358
-24700.635000	-27689.580000	-29850.255000	-12703.725000	-28334.790000	-15432.615000	-120.285000	-11959.020000	6.548944	5.340034	4.249289	2.804246	1.136709	1.251443	1.006913	6.927345	-2.884140	7.309540	-5.493600	0.882993	-0.363891	0.301574	-1.000000	-1.000000	-1.000000	-1.000000	-1.000000	-1.000000	-1.000000	71.448276	0.000000	-1.000000	-1.000000	2359273.000000	1770066215.898071
-24722.010000	-27704.025000	-29854.755000	-12707.280000	-28337.805000	-15434.190000	-121.185000	-11961.000000	7.283661	7.547076	3.563037	4.822835	3.922527	3.667397	2.599869	4.959871	-2.884140	7.309540	-5.493600	0.882993	-0.363891	0.301574	-1.000000	-1.000000	-1.000000	-1.000000	-1.000000	-1.000000	-1.000000	71.448276	0.000000	-1.000000	-1.000000	2359274.000000	1770066215.898084
-24729.030000	-27708.480000	-29862.090000	-12715.965000	-28348.020000	-15445.080000	-130.680000	-11958.615000	4.746983	5.929556	0.821527	3.791408	3.447289	2.606645	1.460686	1.593267	-2.884140	7.309540	-5.493600	0.882993	-0.363891	0.301574	-1.000000	-1.000000	-1.000000	-1.000000	-1.000000	-1.000000	-1.000000	71.448276	0.000000	-1.000000	-1.000000	2359275.000000	1770066215.901374
-24744.555000	-27698.715000	-29858.805000	-12714.930000	-28349.235000	-15447.375000	-134.145000	-11951.370000	0.246503	1.804154	-2.014024	0.198440	-0.027227	-1.222228	-0.913986	0.303395	-2.884140	7.309540	-5.493600	0.882993	-0.363891	0.301574	-1.000000	-1.000000	-1.000000	-1.000000	-1.000000	-1.000000	-1.000000	71.448276	0.000000	-1.000000	-1.000000	2359276.000000	1770066215.901382
-24774.300000	-27714.690000	-29851.110000	-12701.340000	-28331.190000	-15429.105000	-124.245000	-11969.190000	-4.983272	-1.580631	-3.001451	-3.179698	-3.364083	-4.452629	-2.417597	-0.014766	-2.884140	7.309540	-5.493600	0.882993	-0.363891	0.301574	-1.000000	-1.000000	-1.000000	-1.000000	-1.000000	-1.000000	-1.000000	71.448276	0.000000	-1.000000	-1.000000	2359277.000000	1770066215.903489
-24775.470000	-27717.840000	-29851.560000	-12699.405000	-28325.070000	-15422.580000	-123.165000	-11989.530000	-10.764334	-3.353109	-1.980588	-3.857616	-3.546349	-4.090174	-2.083222	-3.301045	-2.884140	7.309540	-5.493600	0.882993	-0.363891	0.301574	-1.000000	-1.000000	-1.000000	-1.000000	-1.000000	-1.000000	-1.000000	71.448276	0.000000	-1.000000	-1.000000	2359278.000000	1770066215.903499
-24749.280000	-27713.205000	-29864.880000	-12718.305000	-28346.445000	-15445.665000	-135.855000	-11993.850000	-14.631603	-4.920549	-0.895004	-2.429228	-1.130494	-0.831059	-0.660866	-9.377161	-2.884140	7.309540	-5.493600	0.882993	-0.363891	0.301574	-1.000000	-1.000000	-1.000000	-1.000000	-1.000000	-1.000000	-1.000000	71.448276	0.000000	-1.000000	-1.000000	2359279.000000	1770066215.907465
-24740.370000	-27711.090000	-29860.605000	-12716.100000	-28345.365000	-15446.385000	-132.795000	-11982.645000	-11.990646	-5.934113	-1.081667	-1.279470	0.764833	1.847157	0.380263	-12.609587	-2.884140	7.309540	-5.493600	0.882993	-0.363891	0.301574	-1.000000	-1.000000	-1.000000	-1.000000	-1.000000	-1.000000	-1.000000	71.448276	0.000000	-1.000000	-1.000000	2359280.000000	1770066215.907476
-24721.605000	-27697.590000	-29854.530000	-12712.455000	-28342.170000	-15444.990000	-129.690000	-11951.730000	-2.066490	-4.266313	-1.212487	-0.941754	0.830870	2.116279	0.549650	-8.115369	-3.921820	7.233240	-4.623780	0.881529	-0.359496	0.306213	-1.000000	-1.000000	-1.000000	-1.000000	-1.000000	-1.000000	-1.000000	71.448276	0.000000	-1.000000	-1.000000	2359281.000000	1770066215.911449
-24692.985000	-27675.405000	-29850.480000	-12713.130000	-28345.590000	-15444.945000	-124.425000	-11923.785000	10.510403	0.798610	0.427462	-0.180533	0.317253	1.082332	0.540045	3.503273	-3.921820	7.233240	-4.623780	0.881529	-0.359496	0.306213	-1.000000	-1.000000	-1.000000	-1.000000	-1.000000	-1.000000	-1.000000	71.448276	0.000000	-1.000000	-1.000000	2359282.000000	1770066215.911459
-24711.615000	-27696.240000	-29850.075000	-12710.250000	-28341.720000	-15437.340000	-121.005000	-11950.335000	19.801429	7.086514	3.348142	1.478588	0.377409	0.413139	1.092164	16.156294	-3.921820	7.233240	-4.623780	0.881529	-0.359496	0.306213	-1.000000	-1.000000	-1.000000	-1.000000	-1.000000	-1.000000	-1.000000	71.448276	0.000000	-1.000000	-1.000000	2359283.000000	1770066215.917806
-24749.775000	-27715.545000	-29861.145000	-12714.930000	-28345.590000	-15442.515000	-134.145000	-12000.600000	21.062175	10.314574	5.511893	3.318321	1.171920	0.897233	2.187681	21.113849	-3.921820	7.233240	-4.623780	0.881529	-0.359496	0.306213	-1.000000	-1.000000	-1.000000	-1.000000	-1.000000	-1.000000	-1.000000	71.448276	0.000000	-1.000000	-1.000000	2359284.000000	1770066215.917816
-24739.470000	-27684.540000	-29853.675000	-12709.305000	-28343.205000	-15443.505000	-140.850000	-12000.690000	12.853808	7.965404	5.164942	4.253970	2.175980	2.038749	2.748016	13.214849	-3.921820	7.233240	-4.623780	0.881529	-0.359496	0.306213	-1.000000	-1.000000	-1.000000	-1.000000	-1.000000	-1.000000	-1.000000	71.448276	0.000000	-1.000000	-1.000000	2359285.000000	1770066215.919387
-24746.580000	-27696.375000	-29856.330000	-12711.330000	-28344.330000	-15447.150000	-138.915000	-11981.565000	-0.532197	2.288694	2.124384	3.434497	2.269992	2.222050	1.541499	-2.919174	-3.921820	7.233240	-4.623780	0.881529	-0.359496	0.306213	-1.000000	-1.000000	-1.000000	-1.000000	-1.000000	-1.000000	-1.000000	71.448276	0.000000	-1.000000	-1.000000	2359286.000000	1770066215.919397
-24725.070000	-27697.590000	-29868.210000	-12726.990000	-28359.270000	-15459.570000	-134.730000	-11935.620000	-11.942764	-3.186971	-2.299046	0.737603	0.624180	0.368984	-0.971260	-15.119332	-3.921820	7.233240	-4.623780	0.881529	-0.359496	0.306213	-1.000000	-1.000000	-1.000000	-1.000000	-1.000000	-1.000000	-1.000000	71.448276	0.000000	-1.000000	-1.000000	2359287.000000	1770066215.923565
-24758.235000	-27710.730000	-29875.320000	-12735.090000	-28365.570000	-15466.770000	-139.005000	-11950.290000	-17.168413	-7.095028	-6.162444	-2.840129	-2.115418	-2.546415	-2.777910	-14.782363	-3.921820	7.233240	-4.623780	0.881529	-0.359496	0.306213	-1.000000	-1.000000	-1.000000	-1.000000	-1.000000	-1.000000	-1.000000	71.448276	0.000000	-1.000000	-1.000000	2359288.000000	1770066215.923576
-24774.840000	-27711.765000	-29872.530000	-12734.280000	-28364.310000	-15466.995000	-143.775000	-11976.255000	-16.949186	-9.024798	-7.557584	-5.403404	-4.064987	-4.332661	-2.755286	-5.283173	-3.921820	7.233240	-4.623780	0.881529	-0.359496	0.306213	-1.000000	-1.000000	-1.000000	-1.000000	-1.000000	-1.000000	-1.000000	71.448276	0.000000	-1.000000	-1.000000	2359289.000000	1770066215.927462
-24778.845000	-27729.045000	-29870.280000	-12725.955000	-28352.790000	-15452.190000	-133.650000	-11973.330000	-13.996052	-8.876543	-5.660899	-5.314519	-3.617445	-3.498498	-1.509025	2.792295	-3.921820	7.233240	-4.623780	0.881529	-0.359496	0.306213	-1.000000	-1.000000	-1.000000	-1.000000	-1.000000	-1.000000	-1.000000	71.448276	0.000000	-1.000000	-1.000000	2359290.000000	1770066215.927473
-24763.455000	-27739.755000	-29863.620000	-12713.175000	-28338.930000	-15435.990000	-123.930000	-11964.330000	-9.100706	-7.231708	-1.341776	-2.204559	-0.476956	-0.021035	0.176197	3.613437	-5.096840	6.744920	-3.082520	0.883726	-0.356078	0.309386	-1.000000	-1.000000	-1.000000	-1.000000	-1.000000	-1.000000	-1.000000	71.448276	0.000000	-1.000000	-1.000000	2359291.000000	1770066215.933923
-24746.490000	-27699.390000	-29855.700000	-12711.330000	-28339.515000	-15435.990000	-124.470000	-11955.195000	-0.687885	-3.509058	3.682914	2.698102	3.995877	4.537191	2.006450	0.605370	-5.096840	6.744920	-3.082520	0.883726	-0.356078	0.309386	-1.000000	-1.000000	-1.000000	-1.000000	-1.000000	-1.000000	-1.000000	71.448276	0.000000	-1.000000	-1.000000	2359292.000000	1770066215.933933
-24748.065000	-27684.450000	-29856.330000	-12712.365000	-28340.955000	-15437.970000	-126.720000	-11964.555000	11.370230	3.868627	7.638722	6.828960	7.156900	7.512991	3.557596	0.011313	-5.096840	6.744920	-3.082520	0.883726	-0.356078	0.309386	-1.000000	-1.000000	-1.000000	-1.000000	-1.000000	-1.000000	-1.000000	71.448276	0.000000	-1.000000	-1.000000	2359293.000000	1770066215.935451
-24725.745000	-27689.715000	-29857.635000	-12716.415000	-28346.220000	-15444.630000	-132.660000	-11975.715000	22.470351	12.712657	8.687683	7.571161	6.671874	6.750389	3.925381	2.719866	-5.096840	6.744920	-3.082520	0.883726	-0.356078	0.309386	-1.000000	-1.000000	-1.000000	-1.000000	-1.000000	-1.000000	-1.000000	71.448276	0.000000	-1.000000	-1.000000	2359294.000000	1770066215.935461
-24703.920000	-27678.465000	-29846.250000	-12712.905000	-28344.240000	-15444.720000	-135.000000	-11983.905000	26.401329	17.200996	6.094675	4.317076	2.427703	2.266789	2.234740	4.216312	-5.096840	6.744920	-3.082520	0.883726	-0.356078	0.309386	-1.000000	-1.000000	-1.000000	-1.000000	-1.000000	-1.000000	-1.000000	71.448276	0.000000	-1.000000	-1.000000	2359295.000000	1770066215.940978
-24731.865000	-27691.335000	-29852.190000	-12718.305000	-28349.820000	-15452.325000	-141.390000	-11998.170000	20.141599	14.043302	1.535519	-0.660975	-2.955382	-3.375037	-1.188446	0.963209	-5.096840	6.744920	-3.082520	0.883726	-0.356078	0.309386	-1.000000	-1.000000	-1.000000	-1.000000	-1.000000	-1.000000	-1.000000	71.448276	0.000000	-1.000000	-1.000000	2359296.000000	1770066215.940988
-24737.040000	-27712.080000	-29875.635000	-12733.245000	-28366.110000	-15469.740000	-153.765000	-12014.370000	5.451277	4.604046	-2.802722	-4.465605	-6.458452	-7.177372	-4.702627	-5.419554	-5.096840	6.744920	-3.082520	0.883726	-0.356078	0.309386	-1.000000	-1.000000	-1.000000	-1.000000	-1.000000	-1.000000	-1.000000	71.448276	0.000000	-1.000000	-1.000000	2359297.000000	1770066215.947298
-24746.220000	-27704.745000	-29867.805000	-12718.035000	-28349.325000	-15454.935000	-149.580000	-12040.965000	-11.345385	-6.837168	-6.150459	-5.940031	-7.041626	-7.940050	-6.563170	-10.165899	-5.096840	6.744920	-3.082520	0.883726	-0.356078	0.309386	-1.000000	-1.000000	-1.000000	-1.000000	-1.000000	-1.000000	-1.000000	71.448276	0.000000	-1.000000	-1.000000	2359298.000000	1770066215.947309
-24739.830000	-27701.190000	-29859.840000	-12710.205000	-28346.040000	-15452.100000	-149.130000	-12009.240000	-22.845909	-14.667079	-7.780664	-5.094037	-5.092475	-5.958964	-5.906144	-9.859172	-5.096840	6.744920	-3.082520	0.883726	-0.356078	0.309386	-1.000000	-1.000000	-1.000000	-1.000000	-1.000000	-1.000000	-1.000000	71.448276	0.000000	-1.000000	-1.000000	2359299.000000	1770066215.947320
-24732.630000	-27694.485000	-29858.940000	-12716.415000	-28345.950000	-15444.405000	-127.935000	-11932.065000	-24.850671	-15.029461	-6.643273	-2.638584	-1.735728	-2.333544	-2.842311	-2.898971	-5.096840	6.744920	-3.082520	0.883726	-0.356078	0.309386	-1.000000	-1.000000	-1.000000	-1.000000	-1.000000	-1.000000	-1.000000	71.448276	0.000000	-1.000000	-1.000000	2359300.000000	1770066215.947325
-24730.830000	-27690.390000	-29857.860000	-12716.595000	-28341.315000	-15438.375000	-119.790000	-11919.015000	-17.551564	-9.016825	-3.075802	-0.108994	1.496498	1.590882	2.026716	10.236851	-3.586100	3.448760	-5.127360	0.887998	-0.362121	0.310058	-1.000000	-1.000000	-1.000000	-1.000000	-1.000000	-1.000000	-1.000000	71.448276	0.000000	-1.000000	-1.000000	2359301.000000	1770066215.951522
-24737.445000	-27697.095000	-29851.560000	-12709.035000	-28335.870000	-15437.205000	-126.315000	-11946.285000	-5.125834	-1.489101	1.231209	1.482690	3.732305	4.852141	7.122875	23.091548	-3.586100	3.448760	-5.127360	0.887998	-0.362121	0.310058	-1.000000	-1.000000	-1.000000	-1.000000	-1.000000	-1.000000	-1.000000	71.448276	0.000000	-1.000000	-1.000000	2359302.000000	1770066215.951532
-24725.295000	-27696.825000	-29845.305000	-12697.785000	-28318.995000	-15421.995000	-118.395000	-11939.400000	6.152518	3.416270	4.583023	2.423383	4.960273	6.771243	9.765607	25.833790	-3.586100	3.448760	-5.127360	0.887998	-0.362121	0.310058	-1.000000	-1.000000	-1.000000	-1.000000	-1.000000	-1.000000	-1.000000	71.448276	0.000000	-1.000000	-1.000000	2359303.000000	1770066215.956846
-24736.905000	-27698.040000	-29851.290000	-12697.830000	-28324.350000	-15429.960000	-126.945000	-11979.630000	11.603687	4.794388	5.834586	3.270277	5.320133	6.924847	8.241522	14.479146	-3.586100	3.448760	-5.127360	0.887998	-0.362121	0.310058	-1.000000	-1.000000	-1.000000	-1.000000	-1.000000	-1.000000	-1.000000	71.448276	0.000000	-1.000000	-1.000000	2359304.000000	1770066215.956859
-24764.895000	-27719.190000	-29875.995000	-12722.130000	-28346.310000	-15448.860000	-136.305000	-12007.620000	10.539525	3.958028	4.499467	3.603355	4.322684	4.985738	3.149664	-5.984643	-3.586100	3.448760	-5.127360	0.887998	-0.362121	0.310058	-1.000000	-1.000000	-1.000000	-1.000000	-1.000000	-1.000000	-1.000000	71.448276	0.000000	-1.000000	-1.000000	2359305.000000	1770066215.959515
-24761.205000	-27733.995000	-29893.455000	-12738.285000	-28357.065000	-15455.070000	-132.120000	-11975.130000	5.653142	2.340660	0.959825	2.084333	1.144317	0.896164	-3.084089	-24.507177	-3.586100	3.448760	-5.127360	0.887998	-0.362121	0.310058	-1.000000	-1.000000	-1.000000	-1.000000	-1.000000	-1.000000	-1.000000	71.448276	0.000000	-1.000000	-1.000000	2359306.000000	1770066215.959525
-24729.930000	-27703.890000	-29882.250000	-12732.750000	-28358.955000	-15458.175000	-133.515000	-11930.760000	1.235228	1.026209	-3.286315	-1.735110	-3.864726	-4.362814	-7.559332	-29.574856	-3.586100	3.448760	-5.127360	0.887998	-0.362121	0.310058	-1.000000	-1.000000	-1.000000	-1.000000	-1.000000	-1.000000	-1.000000	71.448276	0.000000	-1.000000	-1.000000	2359307.000000	1770066215.970248
-24740.955000	-27695.655000	-29870.550000	-12727.710000	-28354.590000	-15455.565000	-141.165000	-11954.880000	0.250692	1.333845	-5.753264	-5.855196	-8.437263	-8.756355	-8.920748	-19.035400	-3.586100	3.448760	-5.127360	0.887998	-0.362121	0.310058	-1.000000	-1.000000	-1.000000	-1.000000	-1.000000	-1.000000	-1.000000	71.448276	0.000000	-1.000000	-1.000000	2359308.000000	1770066215.970257
-24795.630000	-27726.525000	-29862.900000	-12716.955000	-28342.215000	-15442.380000	-141.705000	-12001.365000	0.949780	2.825688	-4.493073	-6.984935	-9.486531	-9.937532	-7.876024	-3.883734	-3.586100	3.448760	-5.127360	0.887998	-0.362121	0.310058	-1.000000	-1.000000	-1.000000	-1.000000	-1.000000	-1.000000	-1.000000	71.448276	0.000000	-1.000000	-1.000000	2359309.000000	1770066215.970267
-24809.310000	-27720.630000	-29856.645000	-12708.765000	-28339.695000	-15442.200000	-146.565000	-12016.530000	-0.954055	2.600422	-0.012696	-3.559125	-5.610383	-6.691981	-5.488990	3.616419	-3.586100	3.448760	-5.127360	0.887998	-0.362121	0.310058	-1.000000	-1.000000	-1.000000	-1.000000	-1.000000	-1.000000	-1.000000	71.448276	0.000000	-1.000000	-1.000000	2359310.000000	1770066215.970272
-24745.500000	-27702.945000	-29874.240000	-12732.750000	-28364.265000	-15465.420000	-156.015000	-11983.140000	-4.980471	-0.036660	4.586036	2.156807	0.809259	-0.767849	-2.241458	3.049906	-4.318580	-1.007160	-7.462140	0.890012	-0.364745	0.311828	-1.000000	-1.000000	-1.000000	-1.000000	-1.000000	-1.000000	-1.000000	71.448276	0.000000	-1.000000	-1.000000	2359311.000000	1770066215.971482
-24743.430000	-27719.550000	-29875.005000	-12739.545000	-28367.730000	-15466.680000	-150.840000	-11964.915000	-5.605342	-2.454594	5.814883	5.538484	5.126260	3.923837	1.350192	2.816707	-4.318580	-1.007160	-7.462140	0.890012	-0.364745	0.311828	-1.000000	-1.000000	-1.000000	-1.000000	-1.000000	-1.000000	-1.000000	71.448276	0.000000	-1.000000	-1.000000	2359312.000000	1770066215.971491
-24731.775000	-27699.525000	-29854.845000	-12731.940000	-28359.360000	-15458.130000	-144.090000	-11968.605000	-0.143908	-2.696834	3.490961	4.585274	5.444661	5.530951	4.841148	8.325562	-4.318580	-1.007160	-7.462140	0.890012	-0.364745	0.311828	-1.000000	-1.000000	-1.000000	-1.000000	-1.000000	-1.000000	-1.000000	71.448276	0.000000	-1.000000	-1.000000	2359313.000000	1770066215.978597
-24724.665000	-27701.640000	-29865.915000	-12738.960000	-28364.040000	-15460.920000	-138.420000	-11955.150000	8.332153	-0.315895	1.072384	1.971077	4.220762	5.720117	7.980353	16.967938	-4.318580	-1.007160	-7.462140	0.890012	-0.364745	0.311828	-1.000000	-1.000000	-1.000000	-1.000000	-1.000000	-1.000000	-1.000000	71.448276	0.000000	-1.000000	-1.000000	2359314.000000	1770066215.978608
-24744.195000	-27705.600000	-29875.230000	-12726.180000	-28349.595000	-15446.925000	-132.795000	-11959.695000	13.822660	3.450284	0.667354	0.975511	4.085074	6.163864	9.798010	21.322031	-4.318580	-1.007160	-7.462140	0.890012	-0.364745	0.311828	-1.000000	-1.000000	-1.000000	-1.000000	-1.000000	-1.000000	-1.000000	71.448276	0.000000	-1.000000	-1.000000	2359315.000000	1770066215.979593
-24782.670000	-27718.380000	-29874.870000	-12710.880000	-28334.115000	-15432.840000	-130.140000	-11978.280000	10.521667	4.919632	0.547680	2.012793	5.056973	6.546743	8.907521	15.207800	-4.318580	-1.007160	-7.462140	0.890012	-0.364745	0.311828	-1.000000	-1.000000	-1.000000	-1.000000	-1.000000	-1.000000	-1.000000	71.448276	0.000000	-1.000000	-1.000000	2359316.000000	1770066215.979603
-24758.235000	-27715.455000	-29869.650000	-12715.110000	-28340.595000	-15436.395000	-136.305000	-11982.015000	-1.283943	1.671342	-1.292934	3.286187	5.400995	5.581692	4.926104	-0.320576	-4.318580	-1.007160	-7.462140	0.890012	-0.364745	0.311828	-1.000000	-1.000000	-1.000000	-1.000000	-1.000000	-1.000000	-1.000000	71.448276	0.000000	-1.000000	-1.000000	2359317.000000	1770066215.983564
-24720.120000	-27706.950000	-29871.855000	-12722.850000	-28350.270000	-15444.945000	-139.725000	-11967.390000	-12.078103	-3.710394	-4.259121	2.526508	3.021397	2.014052	-1.065778	-15.906260	-4.318580	-1.007160	-7.462140	0.890012	-0.364745	0.311828	-1.000000	-1.000000	-1.000000	-1.000000	-1.000000	-1.000000	-1.000000	71.448276	0.000000	-1.000000	-1.000000	2359318.000000	1770066215.983572
-24737.220000	-27726.075000	-29874.285000	-12724.695000	-28350.045000	-15446.070000	-140.535000	-11969.415000	-12.895024	-6.927121	-6.272951	-1.020291	-2.310538	-3.734109	-6.745010	-21.668283	-4.318580	-1.007160	-7.462140	0.890012	-0.364745	0.311828	-1.000000	-1.000000	-1.000000	-1.000000	-1.000000	-1.000000	-1.000000	71.448276	0.000000	-1.000000	-1.000000	2359319.000000	1770066215.987503
-24732.045000	-27737.415000	-29872.080000	-12720.780000	-28345.005000	-15442.020000	-134.955000	-11963.250000	-6.234712	-7.030377	-5.661910	-5.172590	-7.555103	-8.613856	-9.481364	-16.214654	-4.318580	-1.007160	-7.462140	0.890012	-0.364745	0.311828	-1.000000	-1.000000	-1.000000	-1.000000	-1.000000	-1.000000	-1.000000	71.448276	0.000000	-1.000000	-1.000000	2359320.000000	1770066215.987514
-24724.305000	-27730.170000	-29872.845000	-12726.315000	-28349.910000	-15447.780000	-134.235000	-11959.740000	-0.307325	-5.231628	-2.354798	-6.805520	-9.177013	-9.598714	-8.190625	-5.569944	-8.194620	-4.181240	-6.271860	0.891721	-0.361938	0.310729	-1.000000	-1.000000	-1.000000	-1.000000	-1.000000	-1.000000	-1.000000	71.448276	0.000000	-1.000000	-1.000000	2359321.000000	1770066215.994598
-24732.495000	-27696.060000	-29854.530000	-12716.370000	-28342.215000	-15441.975000	-130.230000	-11955.645000	1.570431	-1.548457	2.122065	-4.913118	-6.506358	-6.522279	-4.097379	4.165036	-8.194620	-4.181240	-6.271860	0.891721	-0.361938	0.310729	-1.000000	-1.000000	-1.000000	-1.000000	-1.000000	-1.000000	-1.000000	71.448276	0.000000	-1.000000	-1.000000	2359322.000000	1770066215.994608
-24722.595000	-27654.975000	-29850.075000	-12717.000000	-28344.645000	-15443.595000	-135.630000	-11965.770000	0.925686	4.829963	6.282742	-0.717289	-1.466554	-1.481659	0.311712	9.481538	-8.194620	-4.181240	-6.271860	0.891721	-0.361938	0.310729	-1.000000	-1.000000	-1.000000	-1.000000	-1.000000	-1.000000	-1.000000	71.448276	0.000000	-1.000000	-1.000000	2359323.000000	1770066215.995418
-24750.090000	-27682.740000	-29865.690000	-12728.340000	-28352.790000	-15450.390000	-144.540000	-11989.080000	0.047308	12.160784	8.708399	3.072101	2.823565	2.647978	2.711147	8.627917	-8.194620	-4.181240	-6.271860	0.891721	-0.361938	0.310729	-1.000000	-1.000000	-1.000000	-1.000000	-1.000000	-1.000000	-1.000000	71.448276	0.000000	-1.000000	-1.000000	2359324.000000	1770066215.995425
-24756.615000	-27699.075000	-29864.430000	-12719.205000	-28341.720000	-15437.205000	-137.520000	-11981.565000	0.003480	14.896432	7.403387	3.724000	3.878263	3.812231	2.426773	2.883769	-8.194620	-4.181240	-6.271860	0.891721	-0.361938	0.310729	-1.000000	-1.000000	-1.000000	-1.000000	-1.000000	-1.000000	-1.000000	71.448276	0.000000	-1.000000	-1.000000	2359325.000000	1770066215.999608
-24768.765000	-27707.445000	-29860.335000	-12711.195000	-28332.855000	-15428.115000	-130.545000	-11976.120000	0.180636	9.014972	2.116959	1.507862	2.304838	2.699992	1.092619	-2.981299	-8.194620	-4.181240	-6.271860	0.891721	-0.361938	0.310729	-1.000000	-1.000000	-1.000000	-1.000000	-1.000000	-1.000000	-1.000000	71.448276	0.000000	-1.000000	-1.000000	2359326.000000	1770066215.999618
-24802.965000	-27730.170000	-29864.880000	-12713.355000	-28335.240000	-15431.715000	-131.040000	-11976.705000	-0.954810	-3.112782	-4.336528	-0.722611	0.802458	1.645388	0.823257	-4.700914	-8.194620	-4.181240	-6.271860	0.891721	-0.361938	0.310729	-1.000000	-1.000000	-1.000000	-1.000000	-1.000000	-1.000000	-1.000000	71.448276	0.000000	-1.000000	-1.000000	2359327.000000	1770066216.004953
-24739.515000	-27698.895000	-29856.240000	-12711.600000	-28335.060000	-15433.650000	-130.230000	-11960.730000	-3.050939	-14.275598	-8.320980	-1.084069	0.732625	1.645398	1.909477	-2.032064	-8.194620	-4.181240	-6.271860	0.891721	-0.361938	0.310729	-1.000000	-1.000000	-1.000000	-1.000000	-1.000000	-1.000000	-1.000000	71.448276	0.000000	-1.000000	-1.000000	2359328.000000	1770066216.004963
-24695.550000	-27692.955000	-29862.270000	-12723.345000	-28347.570000	-15444.315000	-133.065000	-11957.265000	-1.990739	-17.148137	-7.970496	-0.018111	1.227638	1.796443	2.901923	2.359385	-8.194620	-4.181240	-6.271860	0.891721	-0.361938	0.310729	-1.000000	-1.000000	-1.000000	-1.000000	-1.000000	-1.000000	-1.000000	71.448276	0.000000	-1.000000	-1.000000	2359329.000000	1770066216.011056
-24728.670000	-27725.805000	-29871.990000	-12730.140000	-28352.835000	-15449.715000	-138.915000	-12001.410000	4.350283	-10.765735	-4.478696	0.799434	0.796188	0.892441	2.311143	4.930484	-8.194620	-4.181240	-6.271860	0.891721	-0.361938	0.310729	-1.000000	-1.000000	-1.000000	-1.000000	-1.000000	-1.000000	-1.000000	71.448276	0.000000	-1.000000	-1.000000	2359330.000000	1770066216.011065
-24774.840000	-27770.355000	-29869.830000	-12719.520000	-28341.540000	-15442.020000	-145.890000	-12052.710000	10.282773	-2.619966	-0.822768	0.410607	-0.735135	-0.992436	-0.099331	2.334605	-10.910900	-5.905620	-6.882260	0.894529	-0.362609	0.308532	-1.000000	-1.000000	-1.000000	-1.000000	-1.000000	-1.000000	-1.000000	71.448276	0.000000	-1.000000	-1.000000	2359331.000000	1770066216.011545
-24753.465000	-27707.580000	-29862.000000	-12717.090000	-28342.440000	-15442.695000	-144.045000	-11996.145000	8.991872	0.567050	1.477501	-0.375642	-1.938805	-2.475410	-3.026386	-4.485713	-10.910900	-5.905620	-6.882260	0.894529	-0.362609	0.308532	-1.000000	-1.000000	-1.000000	-1.000000	-1.000000	-1.000000	-1.000000	71.448276	0.000000	-1.000000	-1.000000	2359332.000000	1770066216.011550
-24743.745000	-27669.780000	-29867.130000	-12726.855000	-28352.070000	-15446.160000	-133.065000	-11936.115000	2.168652	1.915475	3.027467	-0.550601	-1.880157	-2.585994	-4.311901	-7.579179	-10.910900	-5.905620	-6.882260	0.894529	-0.362609	0.308532	-1.000000	-1.000000	-1.000000	-1.000000	-1.000000	-1.000000	-1.000000	71.448276	0.000000	-1.000000	-1.000000	2359333.000000	1770066216.031043
-24734.745000	-27688.230000	-29867.895000	-12729.330000	-28354.815000	-15447.105000	-130.905000	-11939.355000	-3.170563	7.413537	4.137491	-0.523558	-1.366525	-1.854617	-2.772782	-0.763537	-10.910900	-5.905620	-6.882260	0.894529	-0.362609	0.308532	-1.000000	-1.000000	-1.000000	-1.000000	-1.000000	-1.000000	-1.000000	71.448276	0.000000	-1.000000	-1.000000	2359334.000000	1770066216.031056
-24742.755000	-27707.175000	-29866.005000	-12722.940000	-28347.795000	-15440.715000	-130.680000	-11956.320000	-3.632694	14.709979	4.107951	-0.925824	-1.228733	-1.111125	0.471789	10.753642	-10.910900	-5.905620	-6.882260	0.894529	-0.362609	0.308532	-1.000000	-1.000000	-1.000000	-1.000000	-1.000000	-1.000000	-1.000000	71.448276	0.000000	-1.000000	-1.000000	2359335.000000	1770066216.031070
-24731.595000	-27719.595000	-29859.975000	-12714.345000	-28339.065000	-15433.695000	-129.690000	-11961.045000	-1.098199	16.370046	2.838812	-1.055561	-0.770567	-0.082027	3.176588	16.033900	-10.910900	-5.905620	-6.882260	0.894529	-0.362609	0.308532	-1.000000	-1.000000	-1.000000	-1.000000	-1.000000	-1.000000	-1.000000	71.448276	0.000000	-1.000000	-1.000000	2359336.000000	1770066216.031076
-24739.920000	-27696.960000	-29857.275000	-12713.895000	-28340.100000	-15435.585000	-127.305000	-11960.595000	0.045759	9.427298	1.188660	0.135240	0.967337	1.781161	3.955324	10.039069	-10.910900	-5.905620	-6.882260	0.894529	-0.362609	0.308532	-1.000000	-1.000000	-1.000000	-1.000000	-1.000000	-1.000000	-1.000000	71.448276	0.000000	-1.000000	-1.000000	2359337.000000	1770066216.031082
-24736.995000	-27647.730000	-29854.035000	-12723.975000	-28354.680000	-15452.955000	-138.015000	-11968.830000	-3.223645	-1.313175	0.014973	2.272631	3.318950	3.684555	2.717286	-3.025226	-10.910900	-5.905620	-6.882260	0.894529	-0.362609	0.308532	-1.000000	-1.000000	-1.000000	-1.000000	-1.000000	-1.000000	-1.000000	71.448276	0.000000	-1.000000	-1.000000	2359338.000000	1770066216.031086
-24753.195000	-27696.465000	-29858.940000	-12723.165000	-28348.560000	-15446.610000	-136.530000	-11979.405000	-8.297873	-8.263109	-0.454443	3.663613	4.414477	3.984634	0.245925	-14.057802	-10.910900	-5.905620	-6.882260	0.894529	-0.362609	0.308532	-1.000000	-1.000000	-1.000000	-1.000000	-1.000000	-1.000000	-1.000000	71.448276	0.000000	-1.000000	-1.000000	2359339.000000	1770066216.031092
-24748.920000	-27704.655000	-29859.615000	-12719.070000	-28343.250000	-15439.140000	-133.020000	-11977.335000	-9.337244	-9.588389	-0.787757	2.982786	3.273687	2.272815	-2.004296	-16.277389	-10.910900	-5.905620	-6.882260	0.894529	-0.362609	0.308532	-1.000000	-1.000000	-1.000000	-1.000000	-1.000000	-1.000000	-1.000000	71.448276	0.000000	-1.000000	-1.000000	2359340.000000	1770066216.031097
-24742.440000	-27690.660000	-29866.905000	-12727.665000	-28354.320000	-15448.545000	-139.455000	-11973.420000	-4.268468	-9.317131	-1.650972	0.480027	0.610059	-0.272964	-2.853670	-10.591063	-9.644320	-4.990020	-6.897520	0.897215	-0.363769	0.304443	-1.000000	-1.000000	-1.000000	-1.000000	-1.000000	-1.000000	-1.000000	71.448276	0.000000	-1.000000	-1.000000	2359341.000000	1770066216.031473
-24740.550000	-27696.420000	-29864.520000	-12720.555000	-28346.175000	-15440.220000	-134.865000	-11965.095000	3.605028	-9.889418	-2.810700	-2.287000	-2.074855	-2.347233	-2.494853	-3.360893	-9.644320	-4.990020	-6.897520	0.897215	-0.363769	0.304443	-1.000000	-1.000000	-1.000000	-1.000000	-1.000000	-1.000000	-1.000000	71.448276	0.000000	-1.000000	-1.000000	2359342.000000	1770066216.031483
-24738.570000	-27697.140000	-29852.640000	-12707.550000	-28335.330000	-15432.615000	-132.300000	-11974.365000	9.464119	-9.350208	-3.147037	-3.469617	-3.284251	-3.088861	-1.677074	1.070490	-9.644320	-4.990020	-6.897520	0.897215	-0.363769	0.304443	-1.000000	-1.000000	-1.000000	-1.000000	-1.000000	-1.000000	-1.000000	71.448276	0.000000	-1.000000	-1.000000	2359343.000000	1770066216.037063
-24768.765000	-27725.400000	-29877.570000	-12729.105000	-28352.520000	-15450.840000	-148.140000	-12009.195000	10.292898	-5.214261	-2.144601	-2.629859	-2.686798	-2.508507	-0.823351	2.662249	-9.644320	-4.990020	-6.897520	0.897215	-0.363769	0.304443	-1.000000	-1.000000	-1.000000	-1.000000	-1.000000	-1.000000	-1.000000	71.448276	0.000000	-1.000000	-1.000000	2359344.000000	1770066216.037073
-24765.525000	-27736.470000	-29894.445000	-12749.535000	-28370.430000	-15465.240000	-150.975000	-11995.740000	5.535317	1.256458	-1.206422	-1.695450	-1.940999	-1.972785	-0.420063	2.604363	-9.644320	-4.990020	-6.897520	0.897215	-0.363769	0.304443	-1.000000	-1.000000	-1.000000	-1.000000	-1.000000	-1.000000	-1.000000	71.448276	0.000000	-1.000000	-1.000000	2359345.000000	1770066216.048384
-24724.755000	-27716.445000	-29873.025000	-12726.000000	-28345.590000	-15441.930000	-126.855000	-11949.615000	-1.952276	6.048823	-1.443054	-2.006968	-2.073816	-2.004990	-0.202648	2.967874	-9.644320	-4.990020	-6.897520	0.897215	-0.363769	0.304443	-1.000000	-1.000000	-1.000000	-1.000000	-1.000000	-1.000000	-1.000000	71.448276	0.000000	-1.000000	-1.000000	2359346.000000	1770066216.048396
-24711.030000	-27705.690000	-29847.870000	-12701.070000	-28320.840000	-15416.640000	-100.845000	-11942.595000	-6.145343	7.365685	-0.968542	-1.411238	-1.027549	-0.484794	1.569793	6.456863	-9.644320	-4.990020	-6.897520	0.897215	-0.363769	0.304443	-1.000000	-1.000000	-1.000000	-1.000000	-1.000000	-1.000000	-1.000000	71.448276	0.000000	-1.000000	-1.000000	2359347.000000	1770066216.048408
-24827.850000	-27755.775000	-29865.915000	-12709.980000	-28326.105000	-15417.720000	-103.635000	-11986.695000	-4.842207	6.761151	2.123968	2.084523	2.708044	3.758906	5.429743	11.789708	-9.644320	-4.990020	-6.897520	0.897215	-0.363769	0.304443	-1.000000	-1.000000	-1.000000	-1.000000	-1.000000	-1.000000	-1.000000	71.448276	0.000000	-1.000000	-1.000000	2359348.000000	1770066216.048414
-24890.715000	-27766.395000	-29869.920000	-12712.815000	-28329.480000	-15422.580000	-117.315000	-12006.720000	-4.286889	4.936708	5.864652	6.151145	6.495650	7.730896	8.344611	12.514531	-9.644320	-4.990020	-6.897520	0.897215	-0.363769	0.304443	-1.000000	-1.000000	-1.000000	-1.000000	-1.000000	-1.000000	-1.000000	71.448276	0.000000	-1.000000	-1.000000	2359349.000000	1770066216.048420
-24781.680000	-27711.495000	-29864.790000	-12717.945000	-28339.695000	-15437.430000	-133.920000	-11966.130000	-8.109164	1.794941	6.964010	7.043650	6.698115	7.441335	6.441094	4.848332	-9.644320	-4.990020	-6.897520	0.897215	-0.363769	0.304443	-1.000000	-1.000000	-1.000000	-1.000000	-1.000000	-1.000000	-1.000000	71.448276	0.000000	-1.000000	-1.000000	2359350.000000	1770066216.048425
-24688.170000	-27657.945000	-29857.725000	-12723.750000	-28350.045000	-15444.315000	-132.795000	-11939.940000	-7.662764	0.703644	4.771405	3.654473	2.415484	1.972609	-0.606550	-6.070751	-7.706300	-3.967600	-7.416360	0.898496	-0.365783	0.299499	-1.000000	-1.000000	-1.000000	-1.000000	-1.000000	-1.000000	-1.000000	71.448276	0.000000	-1.000000	-1.000000	2359351.000000	1770066216.052213
-24700.995000	-27658.755000	-29854.755000	-12719.205000	-28352.520000	-15447.375000	-134.955000	-11962.575000	5.014514	5.061394	0.949235	-2.190386	-4.321803	-5.883837	-8.723542	-11.854186	-7.706300	-3.967600	-7.416360	0.898496	-0.365783	0.299499	-1.000000	-1.000000	-1.000000	-1.000000	-1.000000	-1.000000	-1.000000	71.448276	0.000000	-1.000000	-1.000000	2359352.000000	1770066216.052224
-24732.990000	-27681.840000	-29858.805000	-12717.450000	-28352.430000	-15452.730000	-144.495000	-11989.305000	22.306577	11.528475	-2.229097	-6.713667	-9.436182	-11.274033	-12.734009	-10.174295	-7.706300	-3.967600	-7.416360	0.898496	-0.365783	0.299499	-1.000000	-1.000000	-1.000000	-1.000000	-1.000000	-1.000000	-1.000000	71.448276	0.000000	-1.000000	-1.000000	2359353.000000	1770066216.067836
-24743.295000	-27683.640000	-29862.675000	-12723.930000	-28356.615000	-15458.580000	-150.525000	-12006.720000	28.337774	12.395631	-3.440833	-6.892431	-9.454173	-10.845907	-10.702737	-5.757285	-7.706300	-3.967600	-7.416360	0.898496	-0.365783	0.299499	-1.000000	-1.000000	-1.000000	-1.000000	-1.000000	-1.000000	-1.000000	71.448276	0.000000	-1.000000	-1.000000	2359354.000000	1770066216.067848
-24734.115000	-27718.470000	-29876.580000	-12734.280000	-28354.320000	-15453.090000	-137.610000	-11986.155000	15.902674	3.220912	-3.712859	-3.749539	-4.831159	-5.502192	-4.811137	-3.719709	-7.706300	-3.967600	-7.416360	0.898496	-0.365783	0.299499	-1.000000	-1.000000	-1.000000	-1.000000	-1.000000	-1.000000	-1.000000	71.448276	0.000000	-1.000000	-1.000000	2359355.000000	1770066216.067861
-24718.500000	-27711.720000	-29868.795000	-12723.840000	-28337.985000	-15434.820000	-119.115000	-11958.480000	-6.519739	-12.356211	-4.743482	-0.800484	0.978106	1.200042	1.716106	-3.175556	-7.706300	-3.967600	-7.416360	0.898496	-0.365783	0.299499	-1.000000	-1.000000	-1.000000	-1.000000	-1.000000	-1.000000	-1.000000	71.448276	0.000000	-1.000000	-1.000000	2359356.000000	1770066216.067867
-24723.630000	-27691.920000	-29873.565000	-12735.360000	-28354.140000	-15448.950000	-128.340000	-11943.945000	-21.916317	-23.541470	-5.698666	0.403876	5.129427	6.284450	6.947057	0.871056	-7.706300	-3.967600	-7.416360	0.898496	-0.365783	0.299499	-1.000000	-1.000000	-1.000000	-1.000000	-1.000000	-1.000000	-1.000000	71.448276	0.000000	-1.000000	-1.000000	2359357.000000	1770066216.067873
-24716.070000	-27681.930000	-29863.305000	-12728.475000	-28349.055000	-15443.505000	-127.485000	-11941.155000	-20.617692	-21.817271	-4.228491	0.866892	6.623017	8.401230	9.857938	9.040457	-7.706300	-3.967600	-7.416360	0.898496	-0.365783	0.299499	-1.000000	-1.000000	-1.000000	-1.000000	-1.000000	-1.000000	-1.000000	71.448276	0.000000	-1.000000	-1.000000	2359358.000000	1770066216.067878
-24732.540000	-27695.340000	-29866.365000	-12728.790000	-28352.070000	-15447.150000	-136.080000	-11958.930000	-9.775304	-10.137053	-0.083090	1.827405	5.896627	7.730854	9.792891	14.522772	-7.706300	-3.967600	-7.416360	0.898496	-0.365783	0.299499	-1.000000	-1.000000	-1.000000	-1.000000	-1.000000	-1.000000	-1.000000	71.448276	0.000000	-1.000000	-1.000000	2359359.000000	1770066216.067884
-24719.490000	-27684.900000	-29863.125000	-12726.495000	-28349.370000	-15446.790000	-139.230000	-11967.165000	-3.374918	1.461975	4.292653	3.314241	4.073318	5.296863	6.628117	10.690870	-7.706300	-3.967600	-7.416360	0.898496	-0.365783	0.299499	-1.000000	-1.000000	-1.000000	-1.000000	-1.000000	-1.000000	-1.000000	71.448276	0.000000	-1.000000	-1.000000	2359360.000000	1770066216.067888
-24736.860000	-27677.295000	-29850.930000	-12711.420000	-28332.135000	-15430.005000	-124.515000	-11976.255000	-5.151611	7.497516	6.585828	4.501448	2.266381	2.368427	1.618655	-0.452273	-7.187460	-2.075360	-7.599480	0.899046	-0.362182	0.295409	-1.000000	-1.000000	-1.000000	-1.000000	-1.000000	-1.000000	-1.000000	71.448276	0.000000	-1.000000	-1.000000	2359361.000000	1770066216.074037
-24748.740000	-27673.605000	-29830.815000	-12703.320000	-28324.890000	-15425.190000	-122.040000	-11982.555000	-7.955337	9.710356	6.911291	5.012812	1.427159	0.438777	-2.456533	-10.464599	-7.187460	-2.075360	-7.599480	0.899046	-0.362182	0.295409	-1.000000	-1.000000	-1.000000	-1.000000	-1.000000	-1.000000	-1.000000	71.448276	0.000000	-1.000000	-1.000000	2359362.000000	1770066216.074050
-24734.610000	-27683.640000	-29845.575000	-12717.315000	-28334.295000	-15432.660000	-123.840000	-11962.305000	-5.572045	10.538632	6.212589	4.580065	1.288283	-0.205917	-3.929283	-13.148935	-7.187460	-2.075360	-7.599480	0.899046	-0.362182	0.295409	-1.000000	-1.000000	-1.000000	-1.000000	-1.000000	-1.000000	-1.000000	71.448276	0.000000	-1.000000	-1.000000	2359363.000000	1770066216.075426
-24739.380000	-27709.785000	-29869.830000	-12726.900000	-28352.340000	-15454.485000	-138.915000	-11968.920000	1.761601	9.506065	3.654833	2.140504	-0.231543	-1.580851	-4.233627	-8.714136	-7.187460	-2.075360	-7.599480	0.899046	-0.362182	0.295409	-1.000000	-1.000000	-1.000000	-1.000000	-1.000000	-1.000000	-1.000000	71.448276	0.000000	-1.000000	-1.000000	2359364.000000	1770066216.075438
-24784.560000	-27746.280000	-29883.915000	-12724.065000	-28349.415000	-15453.450000	-146.250000	-12010.095000	9.630074	5.144248	-1.903447	-2.511186	-4.394098	-5.385993	-5.605423	-2.272745	-7.187460	-2.075360	-7.599480	0.899046	-0.362182	0.295409	-1.000000	-1.000000	-1.000000	-1.000000	-1.000000	-1.000000	-1.000000	71.448276	0.000000	-1.000000	-1.000000	2359365.000000	1770066216.084858
-24799.680000	-27726.345000	-29877.975000	-12721.995000	-28343.655000	-15448.140000	-142.470000	-12002.940000	13.326780	-2.199095	-8.569652	-7.024344	-8.737598	-9.543652	-7.454514	0.953988	-7.187460	-2.075360	-7.599480	0.899046	-0.362182	0.295409	-1.000000	-1.000000	-1.000000	-1.000000	-1.000000	-1.000000	-1.000000	71.448276	0.000000	-1.000000	-1.000000	2359366.000000	1770066216.084869
-24754.185000	-27693.855000	-29878.965000	-12726.720000	-28349.190000	-15448.680000	-134.460000	-11961.810000	11.470614	-8.592331	-12.155214	-8.507200	-9.338364	-9.928709	-6.735272	1.004430	-7.187460	-2.075360	-7.599480	0.899046	-0.362182	0.295409	-1.000000	-1.000000	-1.000000	-1.000000	-1.000000	-1.000000	-1.000000	71.448276	0.000000	-1.000000	-1.000000	2359367.000000	1770066216.084880
-24705.180000	-27699.840000	-29866.545000	-12714.390000	-28335.330000	-15434.145000	-126.045000	-11941.920000	7.232574	-9.350718	-10.034152	-6.232151	-5.151462	-5.030621	-1.814258	2.379357	-7.187460	-2.075360	-7.599480	0.899046	-0.362182	0.295409	-1.000000	-1.000000	-1.000000	-1.000000	-1.000000	-1.000000	-1.000000	71.448276	0.000000	-1.000000	-1.000000	2359368.000000	1770066216.084885
-24725.880000	-27711.900000	-29861.370000	-12712.455000	-28332.315000	-15431.490000	-124.965000	-11960.865000	4.528602	-4.574474	-3.064746	-1.559978	1.587089	2.861617	5.314931	7.139219	-7.187460	-2.075360	-7.599480	0.899046	-0.362182	0.295409	-1.000000	-1.000000	-1.000000	-1.000000	-1.000000	-1.000000	-1.000000	71.448276	0.000000	-1.000000	-1.000000	2359369.000000	1770066216.089553
-24736.860000	-27681.030000	-29855.205000	-12709.755000	-28327.905000	-15427.260000	-124.380000	-11973.870000	3.456263	1.787710	5.106218	3.048755	7.243920	9.472592	10.436079	11.720649	-7.187460	-2.075360	-7.599480	0.899046	-0.362182	0.295409	-1.000000	-1.000000	-1.000000	-1.000000	-1.000000	-1.000000	-1.000000	71.448276	0.000000	-1.000000	-1.000000	2359370.000000	1770066216.089563
-24729.660000	-27694.260000	-29862.675000	-12719.070000	-28338.975000	-15439.140000	-129.780000	-11964.555000	1.693408	6.706807	10.172699	5.276385	8.842258	11.206026	10.402638	11.405358	-9.247560	-3.372460	-7.706300	0.899900	-0.360290	0.295593	-1.000000	-1.000000	-1.000000	-1.000000	-1.000000	-1.000000	-1.000000	71.448276	0.000000	-1.000000	-1.000000	2359371.000000	1770066216.094476
-24730.740000	-27709.200000	-29884.095000	-12741.840000	-28360.440000	-15455.205000	-127.215000	-11937.465000	-1.886691	8.556452	9.866675	4.316161	5.750021	7.330300	5.435661	5.546791	-9.247560	-3.372460	-7.706300	0.899900	-0.360290	0.295593	-1.000000	-1.000000	-1.000000	-1.000000	-1.000000	-1.000000	-1.000000	71.448276	0.000000	-1.000000	-1.000000	2359372.000000	1770066216.094486
-24728.400000	-27702.720000	-29884.725000	-12742.740000	-28362.240000	-15455.565000	-131.040000	-11952.630000	-6.027868	7.097856	5.334508	1.049688	-0.130177	0.260226	-1.320951	-2.253641	-9.247560	-3.372460	-7.706300	0.899900	-0.360290	0.295593	-1.000000	-1.000000	-1.000000	-1.000000	-1.000000	-1.000000	-1.000000	71.448276	0.000000	-1.000000	-1.000000	2359373.000000	1770066216.095693
-24741.720000	-27710.190000	-29876.085000	-12730.140000	-28348.785000	-15444.135000	-131.400000	-11966.040000	-7.731119	3.990393	0.111035	-2.233457	-5.204781	-5.812641	-6.220462	-7.937782	-9.247560	-3.372460	-7.706300	0.899900	-0.360290	0.295593	-1.000000	-1.000000	-1.000000	-1.000000	-1.000000	-1.000000	-1.000000	71.448276	0.000000	-1.000000	-1.000000	2359374.000000	1770066216.095702
-24745.320000	-27667.755000	-29847.015000	-12701.655000	-28320.885000	-15417.450000	-124.245000	-12001.905000	-5.882752	0.655506	-2.438669	-2.673528	-5.943357	-7.252697	-7.343672	-10.792417	-9.247560	-3.372460	-7.706300	0.899900	-0.360290	0.295593	-1.000000	-1.000000	-1.000000	-1.000000	-1.000000	-1.000000	-1.000000	71.448276	0.000000	-1.000000	-1.000000	2359375.000000	1770066216.099525
-24759.990000	-27670.950000	-29840.220000	-12692.115000	-28309.905000	-15409.800000	-129.645000	-12046.095000	-3.981831	-2.512707	-1.329814	0.837966	-1.422156	-3.341992	-5.182177	-13.471444	-9.247560	-3.372460	-7.706300	0.899900	-0.360290	0.295593	-1.000000	-1.000000	-1.000000	-1.000000	-1.000000	-1.000000	-1.000000	71.448276	0.000000	-1.000000	-1.000000	2359376.000000	1770066216.099544
-24787.035000	-27715.815000	-29860.605000	-12712.320000	-28331.190000	-15430.905000	-142.920000	-12028.545000	-6.103891	-5.676288	1.065791	5.512399	4.896305	2.486128	-2.036128	-16.576544	-9.247560	-3.372460	-7.706300	0.899900	-0.360290	0.295593	-1.000000	-1.000000	-1.000000	-1.000000	-1.000000	-1.000000	-1.000000	71.448276	0.000000	-1.000000	-1.000000	2359377.000000	1770066216.108375
-24775.290000	-27750.960000	-29885.175000	-12738.195000	-28358.550000	-15455.250000	-148.140000	-11975.310000	-10.428069	-9.661170	0.604218	6.208533	7.006305	4.693563	-0.251138	-14.406245	-9.247560	-3.372460	-7.706300	0.899900	-0.360290	0.295593	-1.000000	-1.000000	-1.000000	-1.000000	-1.000000	-1.000000	-1.000000	71.448276	0.000000	-1.000000	-1.000000	2359378.000000	1770066216.108387
-24722.730000	-27730.710000	-29885.445000	-12743.145000	-28361.295000	-15451.830000	-125.910000	-11925.495000	-9.587625	-13.698569	-4.193759	0.740911	2.117755	0.986072	0.057416	-1.000042	-9.247560	-3.372460	-7.706300	0.899900	-0.360290	0.295593	-1.000000	-1.000000	-1.000000	-1.000000	-1.000000	-1.000000	-1.000000	71.448276	0.000000	-1.000000	-1.000000	2359379.000000	1770066216.108397
-24726.960000	-27691.155000	-29868.390000	-12731.580000	-28349.955000	-15441.165000	-115.965000	-11930.760000	0.501602	-13.125773	-9.386624	-6.841191	-5.680899	-4.778181	0.946548	19.429521	-9.247560	-3.372460	-7.706300	0.899900	-0.360290	0.295593	-1.000000	-1.000000	-1.000000	-1.000000	-1.000000	-1.000000	-1.000000	71.448276	0.000000	-1.000000	-1.000000	2359380.000000	1770066216.108403
-24731.730000	-27691.155000	-29870.145000	-12730.995000	-28349.595000	-15444.180000	-122.625000	-11939.040000	14.350496	-3.726846	-9.102000	-9.835039	-9.253027	-6.668062	3.380594	33.240419	-7.935200	-4.120200	-8.225140	0.896299	-0.360595	0.295715	-1.000000	-1.000000	-1.000000	-1.000000	-1.000000	-1.000000	-1.000000	71.448276	0.000000	-1.000000	-1.000000	2359381.000000	1770066216.111540
-24729.525000	-27697.455000	-29870.145000	-12724.830000	-28342.035000	-15437.160000	-127.395000	-11954.295000	22.577665	11.094194	-2.182934	-5.745169	-5.673138	-2.950910	5.554980	30.327413	-7.935200	-4.120200	-8.225140	0.896299	-0.360595	0.295715	-1.000000	-1.000000	-1.000000	-1.000000	-1.000000	-1.000000	-1.000000	71.448276	0.000000	-1.000000	-1.000000	2359382.000000	1770066216.111550
-24731.235000	-27688.275000	-29870.505000	-12724.965000	-28341.720000	-15435.540000	-128.925000	-11957.310000	20.801959	21.739017	6.328575	1.695707	1.579385	2.961459	5.226576	12.904578	-7.935200	-4.120200	-8.225140	0.896299	-0.360595	0.295715	-1.000000	-1.000000	-1.000000	-1.000000	-1.000000	-1.000000	-1.000000	71.448276	0.000000	-1.000000	-1.000000	2359383.000000	1770066216.115659
-24735.150000	-27681.390000	-29865.015000	-12721.410000	-28340.100000	-15432.975000	-126.765000	-11953.665000	10.630717	20.922668	10.285491	6.687506	6.654952	6.366306	2.112632	-8.076793	-7.935200	-4.120200	-8.225140	0.896299	-0.360595	0.295715	-1.000000	-1.000000	-1.000000	-1.000000	-1.000000	-1.000000	-1.000000	71.448276	0.000000	-1.000000	-1.000000	2359384.000000	1770066216.115670
-24743.790000	-27683.325000	-29854.980000	-12708.315000	-28326.285000	-15420.600000	-119.790000	-11958.165000	-3.287526	9.577719	7.920369	6.613391	6.682637	5.437132	-1.855589	-21.649707	-7.935200	-4.120200	-8.225140	0.896299	-0.360595	0.295715	-1.000000	-1.000000	-1.000000	-1.000000	-1.000000	-1.000000	-1.000000	71.448276	0.000000	-1.000000	-1.000000	2359385.000000	1770066216.122225
-24723.675000	-27679.950000	-29865.285000	-12723.390000	-28343.970000	-15436.800000	-127.755000	-11959.605000	-14.607051	-3.997637	2.485131	3.421831	3.437457	2.200292	-4.122963	-23.792560	-7.935200	-4.120200	-8.225140	0.896299	-0.360595	0.295715	-1.000000	-1.000000	-1.000000	-1.000000	-1.000000	-1.000000	-1.000000	71.448276	0.000000	-1.000000	-1.000000	2359386.000000	1770066216.122231
-24727.725000	-27690.255000	-29879.280000	-12739.590000	-28358.865000	-15450.570000	-135.540000	-11976.120000	-18.309477	-11.623259	-2.011803	0.139574	-0.036371	-0.701380	-4.046408	-18.487984	-7.935200	-4.120200	-8.225140	0.896299	-0.360595	0.295715	-1.000000	-1.000000	-1.000000	-1.000000	-1.000000	-1.000000	-1.000000	71.448276	0.000000	-1.000000	-1.000000	2359387.000000	1770066216.128652
-24758.460000	-27707.895000	-29888.955000	-12748.995000	-28367.730000	-15461.010000	-146.295000	-12011.490000	-15.322936	-12.337715	-4.376395	-2.208356	-2.570012	-2.707242	-3.369050	-12.579847	-7.935200	-4.120200	-8.225140	0.896299	-0.360595	0.295715	-1.000000	-1.000000	-1.000000	-1.000000	-1.000000	-1.000000	-1.000000	71.448276	0.000000	-1.000000	-1.000000	2359388.000000	1770066216.128664
-24770.250000	-27701.775000	-29875.230000	-12736.935000	-28357.740000	-15456.870000	-144.990000	-12007.125000	-10.536280	-10.374450	-5.089069	-3.586227	-4.002257	-4.091216	-3.567759	-9.158471	-7.935200	-4.120200	-8.225140	0.896299	-0.360595	0.295715	-1.000000	-1.000000	-1.000000	-1.000000	-1.000000	-1.000000	-1.000000	71.448276	0.000000	-1.000000	-1.000000	2359389.000000	1770066216.128676
-24792.390000	-27712.800000	-29870.685000	-12724.965000	-28342.440000	-15441.795000	-135.180000	-11981.880000	-6.411352	-8.214839	-3.938845	-3.285376	-3.580017	-4.064353	-3.569256	-5.022198	-7.935200	-4.120200	-8.225140	0.896299	-0.360595	0.295715	-1.000000	-1.000000	-1.000000	-1.000000	-1.000000	-1.000000	-1.000000	71.448276	0.000000	-1.000000	-1.000000	2359390.000000	1770066216.128682
-24805.845000	-27710.190000	-29857.950000	-12707.280000	-28322.505000	-15423.570000	-129.420000	-11988.990000	-2.363019	-5.227233	-0.717671	-0.793521	-0.750512	-1.582815	-1.249610	4.051273	-6.470240	-6.073480	-5.096840	0.892088	-0.356383	0.293884	-1.000000	-1.000000	-1.000000	-1.000000	-1.000000	-1.000000	-1.000000	71.448276	0.000000	-1.000000	-1.000000	2359391.000000	1770066216.134552
-24724.755000	-27659.475000	-29830.950000	-12688.020000	-28309.725000	-15414.210000	-130.095000	-11966.220000	3.303569	-0.494817	3.453840	2.938408	3.395086	2.654843	3.243043	16.457132	-6.470240	-6.073480	-5.096840	0.892088	-0.356383	0.293884	-1.000000	-1.000000	-1.000000	-1.000000	-1.000000	-1.000000	-1.000000	71.448276	0.000000	-1.000000	-1.000000	2359392.000000	1770066216.134563
-24697.935000	-27651.870000	-29822.130000	-12683.565000	-28307.295000	-15410.070000	-123.345000	-11970.900000	12.382120	5.875504	6.688591	5.804435	6.329083	6.095414	7.204287	25.823687	-6.470240	-6.073480	-5.096840	0.892088	-0.356383	0.293884	-1.000000	-1.000000	-1.000000	-1.000000	-1.000000	-1.000000	-1.000000	71.448276	0.000000	-1.000000	-1.000000	2359393.000000	1770066216.135660
-24705.360000	-27714.645000	-29874.240000	-12731.670000	-28349.595000	-15442.695000	-131.670000	-11975.040000	22.427465	11.181710	6.566295	5.201957	5.357314	6.014154	8.084662	26.422919	-6.470240	-6.073480	-5.096840	0.892088	-0.356383	0.293884	-1.000000	-1.000000	-1.000000	-1.000000	-1.000000	-1.000000	-1.000000	71.448276	0.000000	-1.000000	-1.000000	2359394.000000	1770066216.135671
-24752.745000	-27715.410000	-29897.505000	-12757.635000	-28375.425000	-15464.115000	-135.630000	-11953.710000	25.173903	10.887118	1.259254	-0.248409	-0.361648	1.573256	5.385576	17.019698	-6.470240	-6.073480	-5.096840	0.892088	-0.356383	0.293884	-1.000000	-1.000000	-1.000000	-1.000000	-1.000000	-1.000000	-1.000000	71.448276	0.000000	-1.000000	-1.000000	2359395.000000	1770066216.141133
-24778.845000	-27705.825000	-29884.500000	-12746.790000	-28365.165000	-15457.860000	-132.570000	-11952.180000	14.235261	4.599991	-6.867655	-7.740429	-7.685750	-4.695926	0.684002	2.217454	-6.470240	-6.073480	-5.096840	0.892088	-0.356383	0.293884	-1.000000	-1.000000	-1.000000	-1.000000	-1.000000	-1.000000	-1.000000	71.448276	0.000000	-1.000000	-1.000000	2359396.000000	1770066216.141143
-24743.385000	-27704.520000	-29879.460000	-12741.615000	-28361.340000	-15456.690000	-130.140000	-11950.155000	-5.771446	-2.577671	-11.695649	-11.431652	-11.109760	-8.303019	-3.472239	-10.724419	-6.470240	-6.073480	-5.096840	0.892088	-0.356383	0.293884	-1.000000	-1.000000	-1.000000	-1.000000	-1.000000	-1.000000	-1.000000	71.448276	0.000000	-1.000000	-1.000000	2359397.000000	1770066216.150609
-24726.150000	-27709.290000	-29887.425000	-12745.080000	-28363.590000	-15458.805000	-138.150000	-11955.465000	-21.189016	-6.092023	-9.691390	-8.419059	-8.115883	-6.933595	-5.415843	-17.320792	-6.470240	-6.073480	-5.096840	0.892088	-0.356383	0.293884	-1.000000	-1.000000	-1.000000	-1.000000	-1.000000	-1.000000	-1.000000	71.448276	0.000000	-1.000000	-1.000000	2359398.000000	1770066216.150622
-24743.565000	-27713.205000	-29883.465000	-12736.080000	-28355.715000	-15450.255000	-141.345000	-11967.480000	-22.320953	-5.288724	-2.978931	-1.315496	-1.354850	-2.305736	-5.375824	-17.799926	-6.470240	-6.073480	-5.096840	0.892088	-0.356383	0.293884	-1.000000	-1.000000	-1.000000	-1.000000	-1.000000	-1.000000	-1.000000	71.448276	0.000000	-1.000000	-1.000000	2359399.000000	1770066216.150772
-24748.065000	-27705.015000	-29870.955000	-12720.915000	-28340.505000	-15435.450000	-138.105000	-11984.670000	-12.027986	-2.313207	3.951220	5.304463	4.781562	2.339096	-4.327957	-14.792270	-6.470240	-6.073480	-5.096840	0.892088	-0.356383	0.293884	-1.000000	-1.000000	-1.000000	-1.000000	-1.000000	-1.000000	-1.000000	71.448276	0.000000	-1.000000	-1.000000	2359400.000000	1770066216.150782
-24756.795000	-27703.080000	-29873.250000	-12721.590000	-28339.740000	-15432.120000	-134.055000	-11988.540000	-1.209386	-0.359405	7.638684	8.448310	7.715084	5.027174	-2.609971	-10.552054	-8.194620	-5.691980	-2.746800	0.889341	-0.349792	0.291320	-1.000000	-1.000000	-1.000000	-1.000000	-1.000000	-1.000000	-1.000000	71.448276	0.000000	-1.000000	-1.000000	2359401.000000	1770066216.151695
-24768.180000	-27719.415000	-29892.420000	-12744.225000	-28362.555000	-15452.505000	-140.130000	-11968.605000	2.086398	-0.744199	6.927100	7.389749	7.037226	5.217030	-0.364140	-5.438221	-8.194620	-5.691980	-2.746800	0.889341	-0.349792	0.291320	-1.000000	-1.000000	-1.000000	-1.000000	-1.000000	-1.000000	-1.000000	71.448276	0.000000	-1.000000	-1.000000	2359402.000000	1770066216.151705
-24751.440000	-27725.580000	-29889.945000	-12746.295000	-28366.515000	-15457.095000	-139.455000	-11961.270000	-0.639672	-1.250444	3.881137	3.927667	4.199410	3.558489	1.858902	1.272423	-8.194620	-5.691980	-2.746800	0.889341	-0.349792	0.291320	-1.000000	-1.000000	-1.000000	-1.000000	-1.000000	-1.000000	-1.000000	71.448276	0.000000	-1.000000	-1.000000	2359403.000000	1770066216.155735
-24756.390000	-27726.075000	-29882.655000	-12737.385000	-28356.480000	-15448.095000	-127.755000	-11978.190000	-1.860807	0.464855	2.196317	1.446177	1.957156	1.935867	3.660794	8.108964	-8.194620	-5.691980	-2.746800	0.889341	-0.349792	0.291320	-1.000000	-1.000000	-1.000000	-1.000000	-1.000000	-1.000000	-1.000000	71.448276	0.000000	-1.000000	-1.000000	2359404.000000	1770066216.155746
-24760.305000	-27676.710000	-29858.715000	-12715.875000	-28334.205000	-15430.995000	-118.935000	-11999.565000	2.541901	4.061513	3.195113	1.665601	1.943180	1.831392	4.945110	11.305573	-8.194620	-5.691980	-2.746800	0.889341	-0.349792	0.291320	-1.000000	-1.000000	-1.000000	-1.000000	-1.000000	-1.000000	-1.000000	71.448276	0.000000	-1.000000	-1.000000	2359405.000000	1770066216.159697
-24723.000000	-27665.370000	-29854.710000	-12710.745000	-28330.470000	-15432.705000	-136.755000	-11975.310000	9.528117	8.142505	4.992698	3.236716	3.182753	2.730030	5.096062	9.374316	-8.194620	-5.691980	-2.746800	0.889341	-0.349792	0.291320	-1.000000	-1.000000	-1.000000	-1.000000	-1.000000	-1.000000	-1.000000	71.448276	0.000000	-1.000000	-1.000000	2359406.000000	1770066216.159710
-24715.215000	-27694.755000	-29877.390000	-12730.815000	-28352.025000	-15451.020000	-147.465000	-11961.270000	14.084554	10.384689	4.679712	3.254647	2.992672	2.429281	3.015692	5.317544	-8.194620	-5.691980	-2.746800	0.889341	-0.349792	0.291320	-1.000000	-1.000000	-1.000000	-1.000000	-1.000000	-1.000000	-1.000000	71.448276	0.000000	-1.000000	-1.000000	2359407.000000	1770066216.172634
-24774.795000	-27727.065000	-29883.195000	-12729.915000	-28347.255000	-15440.220000	-135.855000	-12013.155000	13.105417	7.127939	0.281595	-0.516947	-0.848958	-0.903362	-1.020489	2.385009	-8.194620	-5.691980	-2.746800	0.889341	-0.349792	0.291320	-1.000000	-1.000000	-1.000000	-1.000000	-1.000000	-1.000000	-1.000000	71.448276	0.000000	-1.000000	-1.000000	2359408.000000	1770066216.172646
-24783.480000	-27713.205000	-29882.970000	-12735.180000	-28355.130000	-15452.235000	-156.015000	-12013.515000	4.971466	-2.645216	-7.258055	-7.298987	-7.486621	-6.388390	-4.931375	0.170455	-8.194620	-5.691980	-2.746800	0.889341	-0.349792	0.291320	-1.000000	-1.000000	-1.000000	-1.000000	-1.000000	-1.000000	-1.000000	71.448276	0.000000	-1.000000	-1.000000	2359409.000000	1770066216.172657
-24757.110000	-27708.795000	-29883.105000	-12735.045000	-28357.560000	-15459.120000	-162.090000	-11979.585000	-7.523430	-13.721758	-13.645887	-13.007948	-12.919424	-10.850794	-7.086561	-2.068981	-8.194620	-5.691980	-2.746800	0.889341	-0.349792	0.291320	-1.000000	-1.000000	-1.000000	-1.000000	-1.000000	-1.000000	-1.000000	71.448276	0.000000	-1.000000	-1.000000	2359410.000000	1770066216.172662
-24755.535000	-27724.545000	-29892.465000	-12739.455000	-28358.730000	-15454.035000	-143.865000	-11972.115000	-16.330475	-18.205786	-14.127362	-13.006905	-12.782581	-10.873323	-6.647488	-2.759472	-6.760180	-6.729660	-0.167860	0.886716	-0.347167	0.286987	-1.000000	-1.000000	-1.000000	-1.000000	-1.000000	-1.000000	-1.000000	71.448276	0.000000	-1.000000	-1.000000	2359411.000000	1770066216.172668
-24774.390000	-27732.420000	-29901.780000	-12751.380000	-28368.225000	-15451.470000	-120.375000	-11996.280000	-15.933285	-13.039139	-7.716033	-6.175086	-5.929657	-5.000056	-2.696328	-1.644605	-6.760180	-6.729660	-0.167860	0.886716	-0.347167	0.286987	-1.000000	-1.000000	-1.000000	-1.000000	-1.000000	-1.000000	-1.000000	71.448276	0.000000	-1.000000	-1.000000	2359412.000000	1770066216.172673
-24773.355000	-27717.345000	-29892.825000	-12748.410000	-28370.430000	-15452.910000	-117.405000	-12033.405000	-8.105083	-2.264336	1.641464	3.341614	3.631757	3.991818	3.827036	-1.169083	-6.760180	-6.729660	-0.167860	0.886716	-0.347167	0.286987	-1.000000	-1.000000	-1.000000	-1.000000	-1.000000	-1.000000	-1.000000	71.448276	0.000000	-1.000000	-1.000000	2359413.000000	1770066216.180807
-24780.690000	-27753.345000	-29902.680000	-12756.645000	-28378.530000	-15466.995000	-143.190000	-12022.515000	1.505360	6.748618	8.430771	9.550727	9.731181	10.356377	8.872691	-2.712621	-6.760180	-6.729660	-0.167860	0.886716	-0.347167	0.286987	-1.000000	-1.000000	-1.000000	-1.000000	-1.000000	-1.000000	-1.000000	71.448276	0.000000	-1.000000	-1.000000	2359414.000000	1770066216.180826
-24752.295000	-27745.605000	-29902.950000	-12749.805000	-28367.145000	-15460.380000	-149.265000	-11960.190000	7.688565	8.897650	9.786674	9.762760	9.665339	10.515005	8.652049	-3.954362	-6.760180	-6.729660	-0.167860	0.886716	-0.347167	0.286987	-1.000000	-1.000000	-1.000000	-1.000000	-1.000000	-1.000000	-1.000000	71.448276	0.000000	-1.000000	-1.000000	2359415.000000	1770066216.180839
-24744.555000	-27701.280000	-29889.045000	-12734.010000	-28350.090000	-15446.925000	-160.065000	-11957.355000	9.296280	6.506984	7.237765	6.239281	6.081259	6.087040	3.378538	-1.104512	-6.760180	-6.729660	-0.167860	0.886716	-0.347167	0.286987	-1.000000	-1.000000	-1.000000	-1.000000	-1.000000	-1.000000	-1.000000	71.448276	0.000000	-1.000000	-1.000000	2359416.000000	1770066216.180844
-24761.340000	-27687.330000	-29870.370000	-12713.580000	-28328.445000	-15422.040000	-139.770000	-11992.005000	8.969030	6.265004	4.504108	3.125570	3.262204	1.414027	-3.221539	5.673322	-6.760180	-6.729660	-0.167860	0.886716	-0.347167	0.286987	-1.000000	-1.000000	-1.000000	-1.000000	-1.000000	-1.000000	-1.000000	71.448276	0.000000	-1.000000	-1.000000	2359417.000000	1770066216.183781
-24760.980000	-27664.695000	-29851.470000	-12697.920000	-28316.115000	-15411.420000	-134.550000	-12032.055000	7.841421	9.723698	3.691221	2.519254	2.988992	-0.414177	-6.616596	10.109977	-6.760180	-6.729660	-0.167860	0.886716	-0.347167	0.286987	-1.000000	-1.000000	-1.000000	-1.000000	-1.000000	-1.000000	-1.000000	71.448276	0.000000	-1.000000	-1.000000	2359418.000000	1770066216.183793
-24772.680000	-27686.520000	-29854.305000	-12699.900000	-28321.245000	-15418.485000	-137.115000	-12016.395000	4.208544	12.084533	4.220009	3.600094	4.028838	0.609761	-4.861781	6.007845	-6.760180	-6.729660	-0.167860	0.886716	-0.347167	0.286987	-1.000000	-1.000000	-1.000000	-1.000000	-1.000000	-1.000000	-1.000000	71.448276	0.000000	-1.000000	-1.000000	2359419.000000	1770066216.189066
-24771.420000	-27700.740000	-29872.215000	-12719.565000	-28343.610000	-15440.940000	-141.120000	-11967.165000	-2.219547	8.786313	3.960064	3.853751	3.636318	1.581675	-0.633051	-4.000526	-6.760180	-6.729660	-0.167860	0.886716	-0.347167	0.286987	-1.000000	-1.000000	-1.000000	-1.000000	-1.000000	-1.000000	-1.000000	71.448276	0.000000	-1.000000	-1.000000	2359420.000000	1770066216.189078
-24764.130000	-27705.690000	-29881.530000	-12729.285000	-28353.780000	-15451.380000	-142.200000	-11950.425000	-8.046442	-0.387733	0.826978	1.004520	-0.217504	-0.656986	1.612483	-9.789582	-4.761120	-4.608520	0.701960	0.881895	-0.343017	0.281860	-1.000000	-1.000000	-1.000000	-1.000000	-1.000000	-1.000000	-1.000000	71.448276	0.000000	-1.000000	-1.000000	2359421.000000	1770066216.193280
-24742.080000	-27706.995000	-29880.045000	-12726.090000	-28351.800000	-15452.145000	-142.605000	-11950.245000	-9.032013	-11.506877	-5.163043	-4.756395	-6.594025	-5.892222	0.411975	-5.247469	-4.761120	-4.608520	0.701960	0.881895	-0.343017	0.281860	-1.000000	-1.000000	-1.000000	-1.000000	-1.000000	-1.000000	-1.000000	71.448276	0.000000	-1.000000	-1.000000	2359422.000000	1770066216.193291
-24738.570000	-27736.290000	-29908.935000	-12744.180000	-28363.680000	-15460.470000	-145.215000	-11948.040000	-4.656191	-19.188639	-11.377611	-10.556629	-11.965247	-10.390173	-1.685055	4.640775	-4.761120	-4.608520	0.701960	0.881895	-0.343017	0.281860	-1.000000	-1.000000	-1.000000	-1.000000	-1.000000	-1.000000	-1.000000	71.448276	0.000000	-1.000000	-1.000000	2359423.000000	1770066216.195533
-24746.715000	-27721.080000	-29913.930000	-12752.010000	-28368.585000	-15461.550000	-147.150000	-11959.245000	0.907029	-19.980164	-14.661282	-13.412244	-13.386504	-10.750842	-1.617745	9.306353	-4.761120	-4.608520	0.701960	0.881895	-0.343017	0.281860	-1.000000	-1.000000	-1.000000	-1.000000	-1.000000	-1.000000	-1.000000	71.448276	0.000000	-1.000000	-1.000000	2359424.000000	1770066216.195542
-24752.970000	-27733.230000	-29930.715000	-12769.020000	-28381.455000	-15465.150000	-144.630000	-11969.280000	3.288717	-14.144457	-13.526546	-12.465231	-10.736392	-6.963009	0.769751	4.081921	-4.761120	-4.608520	0.701960	0.881895	-0.343017	0.281860	-1.000000	-1.000000	-1.000000	-1.000000	-1.000000	-1.000000	-1.000000	71.448276	0.000000	-1.000000	-1.000000	2359425.000000	1770066216.203043
-24758.595000	-27730.080000	-29927.790000	-12770.100000	-28383.885000	-15465.285000	-143.010000	-12002.940000	2.120460	-5.062620	-8.690402	-8.721319	-5.934766	-1.620480	3.176520	-5.858403	-4.761120	-4.608520	0.701960	0.881895	-0.343017	0.281860	-1.000000	-1.000000	-1.000000	-1.000000	-1.000000	-1.000000	-1.000000	71.448276	0.000000	-1.000000	-1.000000	2359426.000000	1770066216.203054
-24748.560000	-27704.520000	-29906.820000	-12760.470000	-28377.765000	-15461.370000	-135.270000	-12031.065000	-0.219163	3.839035	-1.588893	-3.159890	-0.521550	3.030263	3.711742	-13.023596	-4.761120	-4.608520	0.701960	0.881895	-0.343017	0.281860	-1.000000	-1.000000	-1.000000	-1.000000	-1.000000	-1.000000	-1.000000	71.448276	0.000000	-1.000000	-1.000000	2359427.000000	1770066216.203553
-24724.755000	-27688.365000	-29892.285000	-12752.415000	-28368.630000	-15450.030000	-128.160000	-11991.420000	-1.159247	11.803323	7.093868	4.144860	5.489535	6.793376	2.543548	-14.179004	-4.761120	-4.608520	0.701960	0.881895	-0.343017	0.281860	-1.000000	-1.000000	-1.000000	-1.000000	-1.000000	-1.000000	-1.000000	71.448276	0.000000	-1.000000	-1.000000	2359428.000000	1770066216.203563
-24737.760000	-27715.005000	-29901.870000	-12758.850000	-28372.050000	-15454.575000	-137.070000	-11930.850000	0.425154	18.173232	15.828154	12.332143	11.954738	10.169041	0.703738	-8.733321	-4.761120	-4.608520	0.701960	0.881895	-0.343017	0.281860	-1.000000	-1.000000	-1.000000	-1.000000	-1.000000	-1.000000	-1.000000	71.448276	0.000000	-1.000000	-1.000000	2359429.000000	1770066216.208956
-24744.195000	-27696.150000	-29868.525000	-12726.945000	-28352.970000	-15443.235000	-116.550000	-11957.895000	2.592547	19.677361	21.082496	18.614338	16.858776	12.274991	-1.092269	2.158591	-4.761120	-4.608520	0.701960	0.881895	-0.343017	0.281860	-1.000000	-1.000000	-1.000000	-1.000000	-1.000000	-1.000000	-1.000000	71.448276	0.000000	-1.000000	-1.000000	2359430.000000	1770066216.208967
-24773.850000	-27689.130000	-29859.165000	-12716.865000	-28346.625000	-15439.185000	-114.435000	-12036.690000	1.759829	14.576347	20.245407	20.216559	17.528510	11.469615	-1.828853	12.002640	-3.921820	0.061040	4.257540	0.875242	-0.337401	0.277648	-1.000000	-1.000000	-1.000000	-1.000000	-1.000000	-1.000000	-1.000000	71.448276	0.000000	-1.000000	-1.000000	2359431.000000	1770066216.211562
-24781.095000	-27679.140000	-29854.170000	-12707.595000	-28333.980000	-15438.780000	-161.730000	-12074.310000	-3.281187	5.752039	13.807989	16.293187	13.031867	7.245023	-1.459010	11.764382	-3.921820	0.061040	4.257540	0.875242	-0.337401	0.277648	-1.000000	-1.000000	-1.000000	-1.000000	-1.000000	-1.000000	-1.000000	71.448276	0.000000	-1.000000	-1.000000	2359432.000000	1770066216.211573
-24764.265000	-27681.435000	-29862.270000	-12711.195000	-28330.470000	-15446.115000	-190.755000	-12017.430000	-8.891396	-2.999519	3.908827	7.809983	4.819262	0.475235	-2.363575	1.516877	-3.921820	0.061040	4.257540	0.875242	-0.337401	0.277648	-1.000000	-1.000000	-1.000000	-1.000000	-1.000000	-1.000000	-1.000000	71.448276	0.000000	-1.000000	-1.000000	2359433.000000	1770066216.217086
-24750.270000	-27688.545000	-29873.160000	-12717.630000	-28328.400000	-15437.925000	-154.665000	-11952.495000	-9.051409	-9.928732	-7.166545	-3.072203	-4.353857	-6.939777	-5.366829	-6.220817	-3.921820	0.061040	4.257540	0.875242	-0.337401	0.277648	-1.000000	-1.000000	-1.000000	-1.000000	-1.000000	-1.000000	-1.000000	71.448276	0.000000	-1.000000	-1.000000	2359434.000000	1770066216.217093
-24747.930000	-27695.295000	-29874.555000	-12716.055000	-28324.035000	-15431.085000	-139.860000	-11929.770000	-1.794001	-14.494981	-16.938904	-13.374981	-11.722922	-12.168222	-6.680048	-0.190703	-3.921820	0.061040	4.257540	0.875242	-0.337401	0.277648	-1.000000	-1.000000	-1.000000	-1.000000	-1.000000	-1.000000	-1.000000	71.448276	0.000000	-1.000000	-1.000000	2359435.000000	1770066216.219733
-24755.760000	-27703.530000	-29876.310000	-12716.550000	-28328.130000	-15429.420000	-135.540000	-11955.825000	7.952771	-16.378211	-22.686396	-19.895204	-15.411724	-12.886076	-2.963375	15.484404	-3.921820	0.061040	4.257540	0.875242	-0.337401	0.277648	-1.000000	-1.000000	-1.000000	-1.000000	-1.000000	-1.000000	-1.000000	71.448276	0.000000	-1.000000	-1.000000	2359436.000000	1770066216.219745
-24761.880000	-27709.560000	-29869.965000	-12706.830000	-28322.685000	-15415.965000	-126.315000	-11990.205000	12.968948	-14.896684	-22.017088	-20.150542	-14.763578	-8.934127	4.020720	24.025767	-3.921820	0.061040	4.257540	0.875242	-0.337401	0.277648	-1.000000	-1.000000	-1.000000	-1.000000	-1.000000	-1.000000	-1.000000	71.448276	0.000000	-1.000000	-1.000000	2359437.000000	1770066216.223813
-24731.010000	-27674.505000	-29843.955000	-12686.940000	-28307.160000	-15398.325000	-107.280000	-11965.995000	10.779399	-8.822192	-14.024344	-13.581467	-10.083230	-1.966552	10.010274	13.685232	-3.921820	0.061040	4.257540	0.875242	-0.337401	0.277648	-1.000000	-1.000000	-1.000000	-1.000000	-1.000000	-1.000000	-1.000000	71.448276	0.000000	-1.000000	-1.000000	2359438.000000	1770066216.223825
-24714.360000	-27664.470000	-29850.795000	-12697.245000	-28314.765000	-15407.190000	-102.600000	-11951.820000	5.299649	1.633466	-1.321554	-3.110892	-3.112133	5.070457	11.922945	-8.410735	-3.921820	0.061040	4.257540	0.875242	-0.337401	0.277648	-1.000000	-1.000000	-1.000000	-1.000000	-1.000000	-1.000000	-1.000000	71.448276	0.000000	-1.000000	-1.000000	2359439.000000	1770066216.227623
-24746.445000	-27692.280000	-29883.015000	-12730.320000	-28348.290000	-15436.395000	-112.500000	-11953.890000	0.980072	12.186595	9.749274	5.317592	2.460855	8.227328	8.972652	-23.952078	-3.921820	0.061040	4.257540	0.875242	-0.337401	0.277648	-1.000000	-1.000000	-1.000000	-1.000000	-1.000000	-1.000000	-1.000000	71.448276	0.000000	-1.000000	-1.000000	2359440.000000	1770066216.227632
-24790.455000	-27741.285000	-29916.405000	-12761.775000	-28382.085000	-15461.280000	-121.590000	-11971.530000	-2.602417	15.852611	13.258467	6.937235	3.039744	5.019228	3.090321	-23.106557	-0.045780	8.759240	5.661460	0.878172	-0.336059	0.272826	-1.000000	-1.000000	-1.000000	-1.000000	-1.000000	-1.000000	-1.000000	71.448276	0.000000	-1.000000	-1.000000	2359441.000000	1770066216.234993
-24747.030000	-27728.955000	-29912.670000	-12766.680000	-28391.400000	-15461.595000	-103.140000	-11970.720000	-7.377295	9.537273	8.780904	2.364545	-1.271850	-2.631648	-2.411262	-11.808664	-0.045780	8.759240	5.661460	0.878172	-0.336059	0.272826	-1.000000	-1.000000	-1.000000	-1.000000	-1.000000	-1.000000	-1.000000	71.448276	0.000000	-1.000000	-1.000000	2359442.000000	1770066216.235003
-24739.515000	-27728.100000	-29917.620000	-12781.215000	-28411.875000	-15478.335000	-107.415000	-11974.095000	-10.955972	-1.432632	1.701148	-3.067256	-6.146057	-9.472344	-5.960791	-1.754089	-0.045780	8.759240	5.661460	0.878172	-0.336059	0.272826	-1.000000	-1.000000	-1.000000	-1.000000	-1.000000	-1.000000	-1.000000	71.448276	0.000000	-1.000000	-1.000000	2359443.000000	1770066216.235681
-24762.645000	-27738.540000	-29913.975000	-12775.320000	-28404.495000	-15467.490000	-107.955000	-11973.375000	-9.880914	-8.654469	-2.194843	-4.341474	-6.818500	-11.103399	-8.314016	1.762845	-0.045780	8.759240	5.661460	0.878172	-0.336059	0.272826	-1.000000	-1.000000	-1.000000	-1.000000	-1.000000	-1.000000	-1.000000	71.448276	0.000000	-1.000000	-1.000000	2359444.000000	1770066216.235690
-24776.775000	-27721.440000	-29906.865000	-12772.980000	-28406.925000	-15468.750000	-117.630000	-12005.055000	-5.216646	-8.215156	-1.130240	-0.273612	-1.559073	-6.426468	-9.996371	1.178547	-0.045780	8.759240	5.661460	0.878172	-0.336059	0.272826	-1.000000	-1.000000	-1.000000	-1.000000	-1.000000	-1.000000	-1.000000	71.448276	0.000000	-1.000000	-1.000000	2359445.000000	1770066216.239772
-24775.110000	-27719.550000	-29905.875000	-12776.580000	-28415.025000	-15478.425000	-102.780000	-12001.455000	-0.419245	-1.555522	2.926992	6.505013	7.212111	1.918492	-10.054893	0.280133	-0.045780	8.759240	5.661460	0.878172	-0.336059	0.272826	-1.000000	-1.000000	-1.000000	-1.000000	-1.000000	-1.000000	-1.000000	71.448276	0.000000	-1.000000	-1.000000	2359446.000000	1770066216.239784
-24739.380000	-27734.040000	-29886.210000	-12749.580000	-28379.835000	-15465.690000	-118.485000	-11960.640000	2.884385	5.988614	6.420060	11.744088	14.713504	9.193903	-7.615650	1.248828	-0.045780	8.759240	5.661460	0.878172	-0.336059	0.272826	-1.000000	-1.000000	-1.000000	-1.000000	-1.000000	-1.000000	-1.000000	71.448276	0.000000	-1.000000	-1.000000	2359447.000000	1770066216.243810
-24755.625000	-27743.940000	-29903.085000	-12752.370000	-28372.095000	-15485.805000	-192.915000	-11970.270000	5.195584	8.542728	6.965748	13.113108	18.042888	12.294603	-4.237266	5.212654	-0.045780	8.759240	5.661460	0.878172	-0.336059	0.272826	-1.000000	-1.000000	-1.000000	-1.000000	-1.000000	-1.000000	-1.000000	71.448276	0.000000	-1.000000	-1.000000	2359448.000000	1770066216.243819
-24749.280000	-27679.815000	-29877.840000	-12724.740000	-28340.640000	-15445.890000	-141.030000	-11974.095000	7.380983	6.262768	5.239987	11.560582	17.615186	11.784258	-1.660800	10.741704	-0.045780	8.759240	5.661460	0.878172	-0.336059	0.272826	-1.000000	-1.000000	-1.000000	-1.000000	-1.000000	-1.000000	-1.000000	71.448276	0.000000	-1.000000	-1.000000	2359449.000000	1770066216.247788
-24723.405000	-27640.980000	-29834.550000	-12685.590000	-28307.655000	-15401.880000	-84.105000	-11952.495000	9.627193	5.469945	4.259500	9.584904	15.106543	10.882675	2.994471	14.083517	-0.045780	8.759240	5.661460	0.878172	-0.336059	0.272826	-1.000000	-1.000000	-1.000000	-1.000000	-1.000000	-1.000000	-1.000000	71.448276	0.000000	-1.000000	-1.000000	2359450.000000	1770066216.247797
-24728.805000	-27649.665000	-29842.560000	-12695.355000	-28311.795000	-15401.205000	-75.870000	-11948.580000	10.297321	8.831332	5.456314	8.059369	10.963428	11.283256	12.325462	12.502388	3.082520	18.357780	2.716280	0.881529	-0.342528	0.260192	-1.000000	-1.000000	-1.000000	-1.000000	-1.000000	-1.000000	-1.000000	71.448276	0.000000	-1.000000	-1.000000	2359451.000000	1770066216.256229
-24736.680000	-27672.480000	-29877.660000	-12729.420000	-28337.895000	-15421.455000	-101.835000	-11969.280000	6.621985	10.531366	5.303126	4.154686	3.400935	9.864217	20.950170	5.675571	3.082520	18.357780	2.716280	0.881529	-0.342528	0.260192	-1.000000	-1.000000	-1.000000	-1.000000	-1.000000	-1.000000	-1.000000	71.448276	0.000000	-1.000000	-1.000000	2359452.000000	1770066216.256243
-24745.050000	-27685.395000	-29892.735000	-12747.915000	-28361.430000	-15431.850000	-80.865000	-11971.530000	-1.130574	4.276606	-0.907135	-5.323511	-8.946788	2.362594	20.846420	-4.155602	3.082520	18.357780	2.716280	0.881529	-0.342528	0.260192	-1.000000	-1.000000	-1.000000	-1.000000	-1.000000	-1.000000	-1.000000	71.448276	0.000000	-1.000000	-1.000000	2359453.000000	1770066216.256489
-24743.070000	-27698.400000	-29909.970000	-12775.455000	-28393.065000	-15443.190000	-59.040000	-11958.030000	-8.764773	-8.916276	-12.327492	-18.531821	-23.358215	-10.458320	11.198448	-12.076313	3.082520	18.357780	2.716280	0.881529	-0.342528	0.260192	-1.000000	-1.000000	-1.000000	-1.000000	-1.000000	-1.000000	-1.000000	71.448276	0.000000	-1.000000	-1.000000	2359454.000000	1770066216.256496
-24780.510000	-27730.800000	-29918.925000	-12788.820000	-28411.830000	-15457.995000	-82.935000	-11981.565000	-13.045541	-22.324270	-22.655674	-29.051391	-33.726018	-22.574737	-2.347404	-14.317792	3.082520	18.357780	2.716280	0.881529	-0.342528	0.260192	-1.000000	-1.000000	-1.000000	-1.000000	-1.000000	-1.000000	-1.000000	71.448276	0.000000	-1.000000	-1.000000	2359455.000000	1770066216.261988
-24799.590000	-27716.040000	-29897.595000	-12784.545000	-28431.180000	-15472.260000	-64.935000	-11999.880000	-14.584786	-28.555669	-25.147406	-30.705293	-34.930482	-27.675612	-13.428980	-12.350176	3.082520	18.357780	2.716280	0.881529	-0.342528	0.260192	-1.000000	-1.000000	-1.000000	-1.000000	-1.000000	-1.000000	-1.000000	71.448276	0.000000	-1.000000	-1.000000	2359456.000000	1770066216.261999
-24755.715000	-27703.035000	-29921.850000	-12842.775000	-28523.340000	-15546.375000	-80.370000	-11996.865000	-13.307554	-23.097674	-16.804878	-21.776471	-26.756929	-23.926310	-17.123921	-9.127883	3.082520	18.357780	2.716280	0.881529	-0.342528	0.260192	-1.000000	-1.000000	-1.000000	-1.000000	-1.000000	-1.000000	-1.000000	71.448276	0.000000	-1.000000	-1.000000	2359457.000000	1770066216.263443
-24716.250000	-27703.845000	-29943.180000	-12882.150000	-28578.375000	-15589.215000	-122.895000	-11974.005000	-5.864212	-8.047967	-1.675193	-7.194576	-14.395585	-15.507420	-14.075784	-4.371920	3.082520	18.357780	2.716280	0.881529	-0.342528	0.260192	-1.000000	-1.000000	-1.000000	-1.000000	-1.000000	-1.000000	-1.000000	71.448276	0.000000	-1.000000	-1.000000	2359458.000000	1770066216.263449
-24730.290000	-27708.480000	-29943.945000	-12875.715000	-28555.965000	-15551.370000	-128.520000	-11933.775000	7.196977	8.191636	11.360506	5.679465	-2.523230	-7.156509	-11.056389	3.013477	3.082520	18.357780	2.716280	0.881529	-0.342528	0.260192	-1.000000	-1.000000	-1.000000	-1.000000	-1.000000	-1.000000	-1.000000	71.448276	0.000000	-1.000000	-1.000000	2359459.000000	1770066216.269980
-24759.720000	-27743.715000	-29965.815000	-12883.815000	-28559.430000	-15580.800000	-182.115000	-11966.805000	17.735357	17.752654	16.771717	14.404794	9.911197	1.724690	-11.866059	11.065213	3.082520	18.357780	2.716280	0.881529	-0.342528	0.260192	-1.000000	-1.000000	-1.000000	-1.000000	-1.000000	-1.000000	-1.000000	71.448276	0.000000	-1.000000	-1.000000	2359460.000000	1770066216.269988
-24755.625000	-27725.580000	-29923.650000	-12818.790000	-28482.120000	-15544.800000	-99.765000	-11969.145000	18.426598	18.739785	16.258842	21.681524	25.649564	13.235525	-12.012071	15.249158	2.411080	23.073120	3.036740	0.875120	-0.357726	0.263000	-1.000000	-1.000000	-1.000000	-1.000000	-1.000000	-1.000000	-1.000000	71.448276	0.000000	-1.000000	-1.000000	2359461.000000	1770066216.271542
-24701.220000	-27627.840000	-29839.410000	-12698.685000	-28311.885000	-15424.605000	-35.865000	-11932.110000	10.953366	15.915828	15.795930	30.960420	44.865206	27.183596	-3.770589	13.318390	2.411080	23.073120	3.036740	0.875120	-0.357726	0.263000	-1.000000	-1.000000	-1.000000	-1.000000	-1.000000	-1.000000	-1.000000	71.448276	0.000000	-1.000000	-1.000000	2359462.000000	1770066216.271549
-24714.090000	-27603.045000	-29812.320000	-12641.085000	-28210.770000	-15344.280000	-43.200000	-11945.160000	2.804894	15.964667	19.204363	41.936404	64.011667	41.817656	13.486941	7.483697	2.411080	23.073120	3.036740	0.875120	-0.357726	0.263000	-1.000000	-1.000000	-1.000000	-1.000000	-1.000000	-1.000000	-1.000000	71.448276	0.000000	-1.000000	-1.000000	2359463.000000	1770066216.278011
-24786.090000	-27676.890000	-29850.615000	-12675.330000	-28237.995000	-15337.845000	-33.210000	-11961.405000	-2.526357	17.991425	21.963025	46.129746	71.687713	50.839302	29.807595	0.505408	2.411080	23.073120	3.036740	0.875120	-0.357726	0.263000	-1.000000	-1.000000	-1.000000	-1.000000	-1.000000	-1.000000	-1.000000	71.448276	0.000000	-1.000000	-1.000000	2359464.000000	1770066216.278022
-24848.505000	-27764.820000	-29902.905000	-12738.915000	-28319.535000	-15397.875000	-95.670000	-11980.485000	-8.283489	11.956391	14.404325	31.435036	52.531311	43.784391	33.491198	-6.254549	2.411080	23.073120	3.036740	0.875120	-0.357726	0.263000	-1.000000	-1.000000	-1.000000	-1.000000	-1.000000	-1.000000	-1.000000	71.448276	0.000000	-1.000000	-1.000000	2359465.000000	1770066216.279691
-24797.745000	-27723.690000	-29892.420000	-12770.010000	-28391.850000	-15478.245000	-127.935000	-11996.280000	-16.366771	-7.434368	-5.634829	-3.414514	4.061143	15.614033	20.210404	-11.606607	2.411080	23.073120	3.036740	0.875120	-0.357726	0.263000	-1.000000	-1.000000	-1.000000	-1.000000	-1.000000	-1.000000	-1.000000	71.448276	0.000000	-1.000000	-1.000000	2359466.000000	1770066216.279701
-24728.580000	-27673.335000	-29852.370000	-12756.690000	-28400.805000	-15479.280000	-55.620000	-11977.965000	-20.680302	-29.228371	-27.118051	-42.919886	-54.981969	-25.621237	-2.862483	-14.465448	2.411080	23.073120	3.036740	0.875120	-0.357726	0.263000	-1.000000	-1.000000	-1.000000	-1.000000	-1.000000	-1.000000	-1.000000	71.448276	0.000000	-1.000000	-1.000000	2359467.000000	1770066216.290138
-24650.685000	-27629.190000	-29835.315000	-12737.610000	-28377.945000	-15443.640000	-60.885000	-11946.915000	-12.237642	-35.592107	-35.609624	-65.983162	-96.072652	-60.935501	-20.583150	-13.287665	2.411080	23.073120	3.036740	0.875120	-0.357726	0.263000	-1.000000	-1.000000	-1.000000	-1.000000	-1.000000	-1.000000	-1.000000	71.448276	0.000000	-1.000000	-1.000000	2359468.000000	1770066216.290150
-24684.345000	-27649.215000	-29908.440000	-12833.505000	-28492.965000	-15513.930000	-144.675000	-11960.685000	8.832790	-20.402766	-27.329123	-62.722772	-101.136098	-72.543536	-24.384981	-6.395581	2.411080	23.073120	3.036740	0.875120	-0.357726	0.263000	-1.000000	-1.000000	-1.000000	-1.000000	-1.000000	-1.000000	-1.000000	71.448276	0.000000	-1.000000	-1.000000	2359469.000000	1770066216.290162
-24745.680000	-27716.535000	-29946.870000	-12880.890000	-28556.235000	-15570.180000	-192.060000	-12010.455000	28.011944	3.657114	-12.628628	-41.881374	-75.518490	-58.649863	-20.893386	3.592169	2.411080	23.073120	3.036740	0.875120	-0.357726	0.263000	-1.000000	-1.000000	-1.000000	-1.000000	-1.000000	-1.000000	-1.000000	71.448276	0.000000	-1.000000	-1.000000	2359470.000000	1770066216.290167
-24737.670000	-27686.565000	-29907.720000	-12838.680000	-28496.745000	-15552.090000	-172.800000	-11989.440000	28.517315	16.851349	-3.710962	-19.116195	-38.265533	-32.559133	-19.668302	9.746357	1.159760	25.606280	-7.462140	0.874265	-0.368163	0.263976	-1.000000	-1.000000	-1.000000	-1.000000	-1.000000	-1.000000	-1.000000	71.448276	0.000000	-1.000000	-1.000000	2359471.000000	1770066216.293045
-24738.570000	-27657.135000	-29880.540000	-12783.645000	-28387.620000	-15479.640000	-111.600000	-11961.945000	9.981392	13.217503	-0.908743	0.306147	-0.332166	-5.735426	-18.059328	9.662460	1.159760	25.606280	-7.462140	0.874265	-0.368163	0.263976	-1.000000	-1.000000	-1.000000	-1.000000	-1.000000	-1.000000	-1.000000	71.448276	0.000000	-1.000000	-1.000000	2359472.000000	1770066216.293056
-24841.080000	-27682.785000	-29876.715000	-12737.115000	-28285.155000	-15383.115000	-48.420000	-12021.795000	-12.576696	4.244220	4.015310	21.238989	39.613525	21.227156	-5.953292	7.084211	1.159760	25.606280	-7.462140	0.874265	-0.368163	0.263976	-1.000000	-1.000000	-1.000000	-1.000000	-1.000000	-1.000000	-1.000000	71.448276	0.000000	-1.000000	-1.000000	2359473.000000	1770066216.295732
-24929.640000	-27780.930000	-29915.325000	-12744.810000	-28282.590000	-15371.820000	-56.340000	-12055.095000	-27.299141	0.236217	14.409483	45.052313	80.046002	50.019771	18.449366	3.844239	1.159760	25.606280	-7.462140	0.874265	-0.368163	0.263976	-1.000000	-1.000000	-1.000000	-1.000000	-1.000000	-1.000000	-1.000000	71.448276	0.000000	-1.000000	-1.000000	2359474.000000	1770066216.295742
-24766.245000	-27721.395000	-29888.955000	-12735.405000	-28314.180000	-15429.555000	-148.230000	-12005.460000	-30.918026	-0.582860	24.115957	62.514367	105.759949	72.177889	41.303477	-0.219691	1.159760	25.606280	-7.462140	0.874265	-0.368163	0.263976	-1.000000	-1.000000	-1.000000	-1.000000	-1.000000	-1.000000	-1.000000	71.448276	0.000000	-1.000000	-1.000000	2359475.000000	1770066216.299659
-24656.940000	-27649.530000	-29831.220000	-12688.155000	-28274.040000	-15405.480000	-143.370000	-11959.830000	-20.084324	-1.513233	25.839364	61.397015	97.718378	71.498014	43.193373	-2.509485	1.159760	25.606280	-7.462140	0.874265	-0.368163	0.263976	-1.000000	-1.000000	-1.000000	-1.000000	-1.000000	-1.000000	-1.000000	71.448276	0.000000	-1.000000	-1.000000	2359476.000000	1770066216.299670
-24679.215000	-27684.180000	-29857.815000	-12705.075000	-28261.170000	-15370.515000	-96.255000	-11962.800000	4.279627	-0.665980	19.065353	38.994293	53.717578	42.485198	21.200146	-0.640480	1.159760	25.606280	-7.462140	0.874265	-0.368163	0.263976	-1.000000	-1.000000	-1.000000	-1.000000	-1.000000	-1.000000	-1.000000	71.448276	0.000000	-1.000000	-1.000000	2359477.000000	1770066216.303522
-24729.165000	-27706.590000	-29904.480000	-12758.625000	-28318.230000	-15418.575000	-96.840000	-11954.430000	28.764629	2.306614	7.525995	4.259232	-6.830521	-0.947323	-6.381793	3.910669	1.159760	25.606280	-7.462140	0.874265	-0.368163	0.263976	-1.000000	-1.000000	-1.000000	-1.000000	-1.000000	-1.000000	-1.000000	71.448276	0.000000	-1.000000	-1.000000	2359478.000000	1770066216.303540
-24758.055000	-27687.870000	-29900.610000	-12769.425000	-28347.390000	-15440.490000	-101.025000	-11928.915000	37.347005	4.724611	-5.689613	-30.141328	-59.571355	-39.197647	-21.777446	8.077915	1.159760	25.606280	-7.462140	0.874265	-0.368163	0.263976	-1.000000	-1.000000	-1.000000	-1.000000	-1.000000	-1.000000	-1.000000	71.448276	0.000000	-1.000000	-1.000000	2359479.000000	1770066216.309076
-24769.935000	-27683.145000	-29876.625000	-12749.265000	-28337.355000	-15419.880000	-114.480000	-11923.965000	25.192178	4.631812	-17.641781	-53.992862	-90.096256	-60.698162	-23.141934	9.093822	1.159760	25.606280	-7.462140	0.874265	-0.368163	0.263976	-1.000000	-1.000000	-1.000000	-1.000000	-1.000000	-1.000000	-1.000000	71.448276	0.000000	-1.000000	-1.000000	2359480.000000	1770066216.309087
-24775.920000	-27743.130000	-29925.855000	-12807.630000	-28413.810000	-15472.620000	-137.295000	-11962.395000	1.557976	1.105759	-24.782113	-61.549472	-95.237231	-63.462959	-19.081171	4.679341	-7.141680	32.381720	-17.411660	0.880186	-0.369994	0.265258	-1.000000	-1.000000	-1.000000	-1.000000	-1.000000	-1.000000	-1.000000	71.448276	0.000000	-1.000000	-1.000000	2359481.000000	1770066216.311747
-24672.510000	-27675.045000	-29889.855000	-12786.930000	-28397.790000	-15470.055000	-120.690000	-11964.420000	-15.251137	-3.336509	-24.101248	-52.033545	-77.959680	-51.637958	-16.398516	-4.051475	-7.141680	32.381720	-17.411660	0.880186	-0.369994	0.265258	-1.000000	-1.000000	-1.000000	-1.000000	-1.000000	-1.000000	-1.000000	71.448276	0.000000	-1.000000	-1.000000	2359482.000000	1770066216.311756
-24660.045000	-27587.835000	-29818.755000	-12714.480000	-28324.845000	-15429.015000	-81.990000	-12019.995000	-12.593211	-1.247177	-13.091325	-26.945300	-40.730376	-28.493382	-12.620742	-12.550593	-7.141680	32.381720	-17.411660	0.880186	-0.369994	0.265258	-1.000000	-1.000000	-1.000000	-1.000000	-1.000000	-1.000000	-1.000000	71.448276	0.000000	-1.000000	-1.000000	2359483.000000	1770066216.315734
-24717.870000	-27626.490000	-29811.240000	-12678.120000	-28271.745000	-15390.855000	-92.250000	-12078.270000	-0.367674	8.383427	5.975081	8.767873	12.141684	4.667651	-1.648857	-19.256317	-7.141680	32.381720	-17.411660	0.880186	-0.369994	0.265258	-1.000000	-1.000000	-1.000000	-1.000000	-1.000000	-1.000000	-1.000000	71.448276	0.000000	-1.000000	-1.000000	2359484.000000	1770066216.315743
-24790.725000	-27685.890000	-29852.505000	-12711.555000	-28284.660000	-15373.620000	-113.580000	-12039.255000	-1.408305	12.805252	21.718012	41.357906	64.054587	39.399476	13.670983	-24.614026	-7.141680	32.381720	-17.411660	0.880186	-0.369994	0.265258	-1.000000	-1.000000	-1.000000	-1.000000	-1.000000	-1.000000	-1.000000	71.448276	0.000000	-1.000000	-1.000000	2359485.000000	1770066216.324519
-24799.140000	-27663.390000	-29871.135000	-12744.090000	-28326.690000	-15394.140000	-78.390000	-11981.745000	-20.687664	2.695184	23.343876	54.734861	90.931624	60.037666	22.998996	-22.973978	-7.141680	32.381720	-17.411660	0.880186	-0.369994	0.265258	-1.000000	-1.000000	-1.000000	-1.000000	-1.000000	-1.000000	-1.000000	71.448276	0.000000	-1.000000	-1.000000	2359486.000000	1770066216.324534
-24812.190000	-27697.770000	-29891.295000	-12763.755000	-28355.580000	-15421.095000	-85.140000	-11996.055000	-38.492721	-14.123082	11.998170	44.238922	80.654217	56.617503	21.140015	-8.104586	-7.141680	32.381720	-17.411660	0.880186	-0.369994	0.265258	-1.000000	-1.000000	-1.000000	-1.000000	-1.000000	-1.000000	-1.000000	71.448276	0.000000	-1.000000	-1.000000	2359487.000000	1770066216.324852
-24810.480000	-27735.255000	-29902.455000	-12770.820000	-28371.285000	-15435.585000	-74.790000	-11994.120000	-34.872443	-25.349835	-3.709877	18.057597	40.980667	31.882188	11.163946	14.328726	-7.141680	32.381720	-17.411660	0.880186	-0.369994	0.265258	-1.000000	-1.000000	-1.000000	-1.000000	-1.000000	-1.000000	-1.000000	71.448276	0.000000	-1.000000	-1.000000	2359488.000000	1770066216.324862
-24696.405000	-27696.375000	-29862.000000	-12734.730000	-28333.800000	-15382.440000	29.475000	-11910.915000	-7.444516	-25.638341	-15.571034	-10.178126	-7.689445	-1.615204	0.383968	31.995971	-7.141680	32.381720	-17.411660	0.880186	-0.369994	0.265258	-1.000000	-1.000000	-1.000000	-1.000000	-1.000000	-1.000000	-1.000000	71.448276	0.000000	-1.000000	-1.000000	2359489.000000	1770066216.329046
-24689.025000	-27642.060000	-29834.460000	-12716.730000	-28310.535000	-15356.565000	55.485000	-11882.250000	31.161984	-13.037816	-16.930054	-26.970447	-42.491552	-27.279830	-3.757655	39.413955	-7.141680	32.381720	-17.411660	0.880186	-0.369994	0.265258	-1.000000	-1.000000	-1.000000	-1.000000	-1.000000	-1.000000	-1.000000	71.448276	0.000000	-1.000000	-1.000000	2359490.000000	1770066216.329057
-24702.030000	-27645.525000	-29873.475000	-12774.015000	-28383.795000	-15449.175000	-121.455000	-11920.635000	59.500180	8.838893	-7.578391	-27.238457	-51.457605	-35.588607	-3.222201	36.570848	3.937080	17.274320	-10.178420	0.872923	-0.359801	0.290954	-1.000000	-1.000000	-1.000000	-1.000000	-1.000000	-1.000000	-1.000000	71.448276	0.000000	-1.000000	-1.000000	2359491.000000	1770066216.331625
-24686.955000	-27701.370000	-29900.340000	-12799.710000	-28419.795000	-15495.570000	-220.995000	-11993.040000	58.870161	25.903275	2.431899	-19.160176	-41.480388	-31.587298	-10.230193	22.075531	3.937080	17.274320	-10.178420	0.872923	-0.359801	0.290954	-1.000000	-1.000000	-1.000000	-1.000000	-1.000000	-1.000000	-1.000000	71.448276	0.000000	-1.000000	-1.000000	2359492.000000	1770066216.331634
-24720.705000	-27723.555000	-29902.680000	-12787.065000	-28385.010000	-15457.815000	-191.655000	-12078.180000	29.178214	25.168820	3.600014	-13.003608	-26.304565	-24.615505	-27.665431	-4.151204	3.937080	17.274320	-10.178420	0.872923	-0.359801	0.290954	-1.000000	-1.000000	-1.000000	-1.000000	-1.000000	-1.000000	-1.000000	71.448276	0.000000	-1.000000	-1.000000	2359493.000000	1770066216.335671
-24781.230000	-27698.130000	-29884.995000	-12758.400000	-28325.655000	-15416.505000	-141.300000	-12054.690000	-11.809303	9.833759	-1.261891	-8.300253	-10.143967	-15.594236	-39.362517	-35.038104	3.937080	17.274320	-10.178420	0.872923	-0.359801	0.290954	-1.000000	-1.000000	-1.000000	-1.000000	-1.000000	-1.000000	-1.000000	71.448276	0.000000	-1.000000	-1.000000	2359494.000000	1770066216.335680
-24776.055000	-27695.070000	-29851.965000	-12706.695000	-28257.390000	-15370.515000	-96.615000	-11936.655000	-43.151990	-5.423570	-1.883207	2.265872	10.916177	0.033026	-28.810721	-54.643975	3.937080	17.274320	-10.178420	0.872923	-0.359801	0.290954	-1.000000	-1.000000	-1.000000	-1.000000	-1.000000	-1.000000	-1.000000	71.448276	0.000000	-1.000000	-1.000000	2359495.000000	1770066216.340710
-24781.140000	-27739.260000	-29876.130000	-12720.510000	-28271.880000	-15371.955000	-84.690000	-11892.645000	-51.702535	-10.737482	5.885786	19.497491	35.169998	21.495752	2.290149	-47.042519	3.937080	17.274320	-10.178420	0.872923	-0.359801	0.290954	-1.000000	-1.000000	-1.000000	-1.000000	-1.000000	-1.000000	-1.000000	71.448276	0.000000	-1.000000	-1.000000	2359496.000000	1770066216.340716
-24789.555000	-27724.950000	-29895.300000	-12751.065000	-28316.745000	-15401.790000	-101.565000	-11964.555000	-37.618662	-7.113360	14.867942	32.522211	49.092510	37.970027	35.434492	-14.813617	3.937080	17.274320	-10.178420	0.872923	-0.359801	0.290954	-1.000000	-1.000000	-1.000000	-1.000000	-1.000000	-1.000000	-1.000000	71.448276	0.000000	-1.000000	-1.000000	2359497.000000	1770066216.344881
-24809.400000	-27726.795000	-29927.430000	-12791.880000	-28363.905000	-15426.990000	-104.895000	-12006.855000	-13.643444	-0.724841	14.696485	28.649950	38.654608	36.217238	49.218106	18.047176	3.937080	17.274320	-10.178420	0.872923	-0.359801	0.290954	-1.000000	-1.000000	-1.000000	-1.000000	-1.000000	-1.000000	-1.000000	71.448276	0.000000	-1.000000	-1.000000	2359498.000000	1770066216.344889
-24809.850000	-27705.465000	-29922.885000	-12798.180000	-28373.445000	-15429.195000	-79.020000	-11969.280000	5.838799	3.048777	3.102919	7.250146	5.787983	14.761121	37.125012	30.604484	3.937080	17.274320	-10.178420	0.872923	-0.359801	0.290954	-1.000000	-1.000000	-1.000000	-1.000000	-1.000000	-1.000000	-1.000000	71.448276	0.000000	-1.000000	-1.000000	2359499.000000	1770066216.349406
-24717.555000	-27684.045000	-29914.380000	-12795.840000	-28372.455000	-15447.285000	-86.940000	-11923.560000	16.412902	2.894201	-11.531232	-18.090411	-29.811158	-12.062528	13.864396	25.183776	3.937080	17.274320	-10.178420	0.872923	-0.359801	0.290954	-1.000000	-1.000000	-1.000000	-1.000000	-1.000000	-1.000000	-1.000000	71.448276	0.000000	-1.000000	-1.000000	2359500.000000	1770066216.349417
-24677.370000	-27678.915000	-29885.580000	-12765.735000	-28342.620000	-15453.855000	-121.320000	-11917.170000	22.802040	2.073781	-17.937783	-31.123831	-46.559256	-27.514185	-2.156034	17.813870	-4.227020	8.194620	-14.023940	0.854246	-0.367126	0.332091	-1.000000	-1.000000	-1.000000	-1.000000	-1.000000	-1.000000	-1.000000	71.448276	0.000000	-1.000000	-1.000000	2359501.000000	1770066216.353153
-24745.095000	-27748.665000	-29917.440000	-12785.760000	-28355.805000	-15450.210000	-130.320000	-11938.455000	27.998913	2.732389	-12.142464	-25.953154	-38.213852	-26.993504	-8.168275	16.643550	-4.227020	8.194620	-14.023940	0.854246	-0.367126	0.332091	-1.000000	-1.000000	-1.000000	-1.000000	-1.000000	-1.000000	-1.000000	71.448276	0.000000	-1.000000	-1.000000	2359502.000000	1770066216.353161
-24769.215000	-27744.930000	-29948.355000	-12810.465000	-28393.605000	-15477.165000	-142.695000	-11957.625000	27.787329	1.707625	-0.656460	-9.934678	-16.116838	-17.304541	-12.807103	14.761883	-4.227020	8.194620	-14.023940	0.854246	-0.367126	0.332091	-1.000000	-1.000000	-1.000000	-1.000000	-1.000000	-1.000000	-1.000000	71.448276	0.000000	-1.000000	-1.000000	2359503.000000	1770066216.355744
-24690.105000	-27650.430000	-29909.655000	-12784.995000	-28377.945000	-15487.065000	-150.705000	-11949.120000	18.734972	-1.628560	7.352685	4.951612	3.679697	-7.009493	-20.895137	1.896451	-4.227020	8.194620	-14.023940	0.854246	-0.367126	0.332091	-1.000000	-1.000000	-1.000000	-1.000000	-1.000000	-1.000000	-1.000000	71.448276	0.000000	-1.000000	-1.000000	2359504.000000	1770066216.355754
-24680.790000	-27630.450000	-29874.465000	-12746.970000	-28319.355000	-15439.635000	-130.500000	-11951.550000	5.255221	-0.715576	10.090263	13.299128	14.988588	0.929643	-27.910162	-19.984728	-4.227020	8.194620	-14.023940	0.854246	-0.367126	0.332091	-1.000000	-1.000000	-1.000000	-1.000000	-1.000000	-1.000000	-1.000000	71.448276	0.000000	-1.000000	-1.000000	2359505.000000	1770066216.359703
-24740.280000	-27672.210000	-29885.265000	-12741.975000	-28291.950000	-15396.705000	-99.945000	-11962.575000	-7.412772	6.076913	11.098184	17.177823	22.161413	9.354229	-25.807116	-36.348010	-4.227020	8.194620	-14.023940	0.854246	-0.367126	0.332091	-1.000000	-1.000000	-1.000000	-1.000000	-1.000000	-1.000000	-1.000000	71.448276	0.000000	-1.000000	-1.000000	2359506.000000	1770066216.359715
-24780.780000	-27672.255000	-29882.115000	-12738.015000	-28285.740000	-15379.875000	-95.130000	-12013.605000	-19.331394	9.759632	11.063630	18.538369	28.425242	19.726977	-12.148513	-35.689701	-4.227020	8.194620	-14.023940	0.854246	-0.367126	0.332091	-1.000000	-1.000000	-1.000000	-1.000000	-1.000000	-1.000000	-1.000000	71.448276	0.000000	-1.000000	-1.000000	2359507.000000	1770066216.363727
-24824.070000	-27701.190000	-29896.065000	-12745.755000	-28302.660000	-15397.380000	-122.580000	-12087.855000	-30.833030	2.862658	7.606627	16.062134	29.888924	27.415274	7.029398	-21.425957	-4.227020	8.194620	-14.023940	0.854246	-0.367126	0.332091	-1.000000	-1.000000	-1.000000	-1.000000	-1.000000	-1.000000	-1.000000	71.448276	0.000000	-1.000000	-1.000000	2359508.000000	1770066216.363735
-24795.765000	-27714.555000	-29919.465000	-12773.790000	-28334.610000	-15434.010000	-151.830000	-12051.405000	-38.631610	-11.887542	-0.590598	7.711926	20.685801	25.581548	22.389616	-4.809775	-4.227020	8.194620	-14.023940	0.854246	-0.367126	0.332091	-1.000000	-1.000000	-1.000000	-1.000000	-1.000000	-1.000000	-1.000000	71.448276	0.000000	-1.000000	-1.000000	2359509.000000	1770066216.367664
-24805.800000	-27767.655000	-29933.505000	-12790.620000	-28346.400000	-15447.645000	-154.170000	-11979.900000	-36.430578	-24.835585	-11.634330	-6.175386	0.152815	11.464317	27.539557	10.135149	-4.227020	8.194620	-14.023940	0.854246	-0.367126	0.332091	-1.000000	-1.000000	-1.000000	-1.000000	-1.000000	-1.000000	-1.000000	71.448276	0.000000	-1.000000	-1.000000	2359510.000000	1770066216.367675
-24833.070000	-27707.940000	-29863.710000	-12738.420000	-28305.630000	-15417.405000	-149.355000	-12049.830000	-19.092981	-26.110366	-18.889953	-19.617330	-23.145368	-9.646666	21.668008	24.589064	-33.282060	19.609100	-20.875680	0.877683	-0.332091	0.307128	-1.000000	-1.000000	-1.000000	-1.000000	-1.000000	-1.000000	-1.000000	71.448276	0.000000	-1.000000	-1.000000	2359511.000000	1770066216.376618
-24821.595000	-27655.560000	-29875.095000	-12762.720000	-28323.945000	-15432.165000	-158.535000	-12058.380000	9.315767	-11.847563	-15.188754	-23.818422	-35.882032	-26.344510	8.710204	32.864904	-33.282060	19.609100	-20.875680	0.877683	-0.332091	0.307128	-1.000000	-1.000000	-1.000000	-1.000000	-1.000000	-1.000000	-1.000000	71.448276	0.000000	-1.000000	-1.000000	2359512.000000	1770066216.376627
-24720.615000	-27643.455000	-29912.445000	-12798.000000	-28349.280000	-15440.535000	-127.170000	-11941.020000	36.091069	11.009955	-3.174341	-17.591995	-32.593650	-30.482608	-4.910157	28.927998	-33.282060	19.609100	-20.875680	0.877683	-0.332091	0.307128	-1.000000	-1.000000	-1.000000	-1.000000	-1.000000	-1.000000	-1.000000	71.448276	0.000000	-1.000000	-1.000000	2359513.000000	1770066216.378369
-24726.240000	-27659.925000	-29912.355000	-12783.285000	-28338.795000	-15428.790000	-106.290000	-11903.805000	50.473620	28.378335	6.132880	-8.065849	-19.411303	-23.165334	-13.127189	18.447881	-33.282060	19.609100	-20.875680	0.877683	-0.332091	0.307128	-1.000000	-1.000000	-1.000000	-1.000000	-1.000000	-1.000000	-1.000000	71.448276	0.000000	-1.000000	-1.000000	2359514.000000	1770066216.378380
-24813.495000	-27687.465000	-29913.615000	-12770.055000	-28319.895000	-15411.555000	-109.665000	-11981.655000	47.578820	30.378439	6.995284	-0.081675	-4.361638	-10.565881	-13.965081	9.371255	-33.282060	19.609100	-20.875680	0.877683	-0.332091	0.307128	-1.000000	-1.000000	-1.000000	-1.000000	-1.000000	-1.000000	-1.000000	71.448276	0.000000	-1.000000	-1.000000	2359515.000000	1770066216.381284
-24779.565000	-27693.045000	-29914.380000	-12758.220000	-28304.730000	-15406.965000	-128.790000	-12045.690000	27.974502	17.410670	2.908936	6.813050	9.102074	2.200159	-10.083909	0.327355	-33.282060	19.609100	-20.875680	0.877683	-0.332091	0.307128	-1.000000	-1.000000	-1.000000	-1.000000	-1.000000	-1.000000	-1.000000	71.448276	0.000000	-1.000000	-1.000000	2359516.000000	1770066216.381296
-24747.570000	-27724.320000	-29931.390000	-12770.370000	-28310.400000	-15413.130000	-124.470000	-11967.840000	0.575327	-2.332323	-0.629251	12.963271	19.674107	12.651898	-4.393744	-10.934529	-33.282060	19.609100	-20.875680	0.877683	-0.332091	0.307128	-1.000000	-1.000000	-1.000000	-1.000000	-1.000000	-1.000000	-1.000000	71.448276	0.000000	-1.000000	-1.000000	2359517.000000	1770066216.384324
-24714.315000	-27725.490000	-29931.570000	-12773.385000	-28295.325000	-15399.270000	-104.130000	-11922.300000	-21.678745	-18.211386	-1.032956	16.341022	25.289062	19.565972	2.477445	-19.200978	-33.282060	19.609100	-20.875680	0.877683	-0.332091	0.307128	-1.000000	-1.000000	-1.000000	-1.000000	-1.000000	-1.000000	-1.000000	71.448276	0.000000	-1.000000	-1.000000	2359518.000000	1770066216.384334
-24743.430000	-27716.760000	-29892.150000	-12724.245000	-28248.705000	-15361.695000	-107.550000	-12081.510000	-30.763649	-22.254421	1.660968	15.343764	24.309874	21.848644	9.268153	-21.454082	-33.282060	19.609100	-20.875680	0.877683	-0.332091	0.307128	-1.000000	-1.000000	-1.000000	-1.000000	-1.000000	-1.000000	-1.000000	71.448276	0.000000	-1.000000	-1.000000	2359519.000000	1770066216.390484
-24772.455000	-27624.330000	-29864.520000	-12714.930000	-28252.305000	-15360.345000	-124.515000	-12112.875000	-27.016845	-13.278749	5.941555	10.817740	17.157358	18.637348	12.002228	-22.602346	-33.282060	19.609100	-20.875680	0.877683	-0.332091	0.307128	-1.000000	-1.000000	-1.000000	-1.000000	-1.000000	-1.000000	-1.000000	71.448276	0.000000	-1.000000	-1.000000	2359520.000000	1770066216.390495
-24773.895000	-27640.755000	-29908.305000	-12795.795000	-28330.200000	-15417.270000	-133.200000	-11933.055000	-18.005211	1.903600	8.802384	3.565523	4.787589	9.457858	7.483170	-22.559911	-25.392640	20.433140	-2.563680	0.926206	-0.339782	0.303283	-1.000000	-1.000000	-1.000000	-1.000000	-1.000000	-1.000000	-1.000000	71.448276	0.000000	-1.000000	-1.000000	2359521.000000	1770066216.391807
-24734.880000	-27672.795000	-29899.440000	-12838.050000	-28367.640000	-15432.075000	-108.360000	-11861.415000	-11.679683	12.366053	7.263253	-7.112611	-11.742734	-4.938252	-2.594992	-12.627619	-25.392640	20.433140	-2.563680	0.926206	-0.339782	0.303283	-1.000000	-1.000000	-1.000000	-1.000000	-1.000000	-1.000000	-1.000000	71.448276	0.000000	-1.000000	-1.000000	2359522.000000	1770066216.391817
-24755.355000	-27696.555000	-29899.755000	-12854.160000	-28374.300000	-15434.730000	-127.305000	-11992.140000	-8.090153	11.482304	1.641020	-19.553239	-27.979184	-20.328530	-12.654438	7.183698	-25.392640	20.433140	-2.563680	0.926206	-0.339782	0.303283	-1.000000	-1.000000	-1.000000	-1.000000	-1.000000	-1.000000	-1.000000	71.448276	0.000000	-1.000000	-1.000000	2359523.000000	1770066216.399037
-24780.555000	-27710.640000	-29942.460000	-12879.630000	-28380.240000	-15444.000000	-140.445000	-12007.215000	-1.988985	2.085890	-5.211060	-27.903974	-35.976740	-29.644009	-17.489302	23.627896	-25.392640	20.433140	-2.563680	0.926206	-0.339782	0.303283	-1.000000	-1.000000	-1.000000	-1.000000	-1.000000	-1.000000	-1.000000	71.448276	0.000000	-1.000000	-1.000000	2359524.000000	1770066216.399050
-24845.220000	-27663.300000	-29922.345000	-12854.835000	-28340.190000	-15420.420000	-123.435000	-11943.765000	6.177549	-6.961121	-10.645073	-26.059788	-29.535918	-27.194033	-14.333527	27.963912	-25.392640	20.433140	-2.563680	0.926206	-0.339782	0.303283	-1.000000	-1.000000	-1.000000	-1.000000	-1.000000	-1.000000	-1.000000	71.448276	0.000000	-1.000000	-1.000000	2359525.000000	1770066216.404858
-24808.680000	-27652.725000	-29897.820000	-12811.275000	-28319.310000	-15413.355000	-129.195000	-11996.595000	9.654671	-7.621284	-11.374021	-11.423124	-8.839595	-12.285782	-3.732754	21.285676	-25.392640	20.433140	-2.563680	0.926206	-0.339782	0.303283	-1.000000	-1.000000	-1.000000	-1.000000	-1.000000	-1.000000	-1.000000	71.448276	0.000000	-1.000000	-1.000000	2359526.000000	1770066216.404868
-24732.855000	-27628.065000	-29872.980000	-12749.715000	-28290.375000	-15396.525000	-131.130000	-12023.325000	7.750210	1.222077	-5.188577	12.582016	17.650653	8.737465	8.978223	6.085129	-25.392640	20.433140	-2.563680	0.926206	-0.339782	0.303283	-1.000000	-1.000000	-1.000000	-1.000000	-1.000000	-1.000000	-1.000000	71.448276	0.000000	-1.000000	-1.000000	2359527.000000	1770066216.405045
-24699.375000	-27656.820000	-29900.385000	-12728.295000	-28287.090000	-15393.150000	-121.545000	-11949.345000	8.799537	11.544826	3.839647	35.230763	36.421081	24.904209	16.884214	-9.329715	-25.392640	20.433140	-2.563680	0.926206	-0.339782	0.303283	-1.000000	-1.000000	-1.000000	-1.000000	-1.000000	-1.000000	-1.000000	71.448276	0.000000	-1.000000	-1.000000	2359528.000000	1770066216.405056
-24707.520000	-27670.995000	-29875.275000	-12672.900000	-28245.420000	-15352.380000	-86.130000	-11953.170000	16.623764	11.750063	8.329203	44.941268	38.998877	29.207622	17.689929	-13.019926	-25.392640	20.433140	-2.563680	0.926206	-0.339782	0.303283	-1.000000	-1.000000	-1.000000	-1.000000	-1.000000	-1.000000	-1.000000	71.448276	0.000000	-1.000000	-1.000000	2359529.000000	1770066216.413829
-24725.340000	-27659.070000	-29867.895000	-12678.795000	-28205.505000	-15313.185000	-65.790000	-12008.025000	22.495215	-0.920679	6.925211	38.918072	29.096429	24.249721	13.790518	-8.752709	-25.392640	20.433140	-2.563680	0.926206	-0.339782	0.303283	-1.000000	-1.000000	-1.000000	-1.000000	-1.000000	-1.000000	-1.000000	71.448276	0.000000	-1.000000	-1.000000	2359530.000000	1770066216.413841
-24732.855000	-27660.015000	-29906.730000	-12771.045000	-28255.365000	-15346.710000	-87.795000	-11959.920000	15.684241	-15.482170	3.267207	20.596554	15.101259	15.727290	7.052495	-9.828628	22.157520	20.555220	-13.672960	0.937070	-0.397582	0.307372	-1.000000	-1.000000	-1.000000	-1.000000	-1.000000	-1.000000	-1.000000	71.448276	0.000000	-1.000000	-1.000000	2359531.000000	1770066216.413852
-24672.870000	-27654.840000	-29911.680000	-12844.080000	-28346.805000	-15411.780000	-97.605000	-11847.420000	-1.524108	-19.102978	-0.974732	-7.257108	-1.560155	3.740901	-2.134031	-12.141743	22.157520	20.555220	-13.672960	0.937070	-0.397582	0.307372	-1.000000	-1.000000	-1.000000	-1.000000	-1.000000	-1.000000	-1.000000	71.448276	0.000000	-1.000000	-1.000000	2359532.000000	1770066216.413858
-24687.270000	-27625.995000	-29876.760000	-12821.355000	-28357.740000	-15408.360000	-86.670000	-11899.125000	-15.597404	-9.281807	-4.240354	-37.554969	-22.574237	-12.949159	-11.148650	-2.001058	22.157520	20.555220	-13.672960	0.937070	-0.397582	0.307372	-1.000000	-1.000000	-1.000000	-1.000000	-1.000000	-1.000000	-1.000000	71.448276	0.000000	-1.000000	-1.000000	2359533.000000	1770066216.417259
-24759.585000	-27691.965000	-29959.740000	-12859.965000	-28403.550000	-15456.105000	-133.155000	-11995.740000	-18.995445	5.443519	-4.874542	-56.566188	-42.551713	-29.313676	-16.223945	14.522111	22.157520	20.555220	-13.672960	0.937070	-0.397582	0.307372	-1.000000	-1.000000	-1.000000	-1.000000	-1.000000	-1.000000	-1.000000	71.448276	0.000000	-1.000000	-1.000000	2359534.000000	1770066216.417270
-24828.120000	-27739.170000	-29989.575000	-12845.790000	-28397.475000	-15475.905000	-169.965000	-12038.805000	-18.212544	12.520228	-5.911924	-55.011403	-51.184031	-37.543036	-16.972998	17.959987	22.157520	20.555220	-13.672960	0.937070	-0.397582	0.307372	-1.000000	-1.000000	-1.000000	-1.000000	-1.000000	-1.000000	-1.000000	71.448276	0.000000	-1.000000	-1.000000	2359535.000000	1770066216.419763
-24794.640000	-27692.505000	-29978.055000	-12884.445000	-28335.330000	-15407.505000	-128.205000	-11963.610000	-21.210745	7.212640	-9.949464	-35.585384	-41.218352	-32.626973	-14.444612	4.954206	22.157520	20.555220	-13.672960	0.937070	-0.397582	0.307372	-1.000000	-1.000000	-1.000000	-1.000000	-1.000000	-1.000000	-1.000000	71.448276	0.000000	-1.000000	-1.000000	2359536.000000	1770066216.419773
-24743.070000	-27607.905000	-29924.415000	-12891.330000	-28278.990000	-15340.005000	-85.185000	-11936.025000	-23.532275	-1.630881	-11.945323	-8.937784	-12.780624	-13.187634	-7.174371	-9.300724	22.157520	20.555220	-13.672960	0.937070	-0.397582	0.307372	-1.000000	-1.000000	-1.000000	-1.000000	-1.000000	-1.000000	-1.000000	71.448276	0.000000	-1.000000	-1.000000	2359537.000000	1770066216.423695
-24861.915000	-27652.095000	-29910.015000	-12855.960000	-28273.140000	-15339.690000	-99.720000	-12011.265000	-16.308477	-2.873972	-5.087507	15.300380	23.917055	14.970057	4.555292	-13.861142	22.157520	20.555220	-13.672960	0.937070	-0.397582	0.307372	-1.000000	-1.000000	-1.000000	-1.000000	-1.000000	-1.000000	-1.000000	71.448276	0.000000	-1.000000	-1.000000	2359538.000000	1770066216.423705
-24933.690000	-27751.995000	-29940.705000	-12810.420000	-28285.695000	-15361.830000	-112.140000	-12048.480000	-2.490524	1.884057	9.011647	34.429636	51.410514	37.504686	14.501496	-12.148998	22.157520	20.555220	-13.672960	0.937070	-0.397582	0.307372	-1.000000	-1.000000	-1.000000	-1.000000	-1.000000	-1.000000	-1.000000	71.448276	0.000000	-1.000000	-1.000000	2359539.000000	1770066216.427762
-24782.535000	-27663.345000	-29910.465000	-12736.845000	-28257.930000	-15344.280000	-86.850000	-11952.630000	10.163040	3.847661	21.539992	50.188273	57.452192	42.388514	17.058925	-9.391342	22.157520	20.555220	-13.672960	0.937070	-0.397582	0.307372	-1.000000	-1.000000	-1.000000	-1.000000	-1.000000	-1.000000	-1.000000	71.448276	0.000000	-1.000000	-1.000000	2359540.000000	1770066216.427772
-24630.480000	-27598.410000	-29860.920000	-12726.495000	-28261.665000	-15348.330000	-80.955000	-11859.165000	24.078702	3.137097	26.245465	60.875613	43.752669	30.363429	13.497071	-2.691302	49.152460	19.776960	-30.336880	0.924741	-0.390075	0.299926	-1.000000	-1.000000	-1.000000	-1.000000	-1.000000	-1.000000	-1.000000	71.448276	0.000000	-1.000000	-1.000000	2359541.000000	1770066216.433509
-24577.470000	-27706.860000	-29900.025000	-12791.070000	-28331.730000	-15410.655000	-118.170000	-11856.330000	43.719483	4.125757	22.171271	56.815897	18.795524	9.733018	7.444785	11.866507	49.152460	19.776960	-30.336880	0.924741	-0.390075	0.299926	-1.000000	-1.000000	-1.000000	-1.000000	-1.000000	-1.000000	-1.000000	71.448276	0.000000	-1.000000	-1.000000	2359542.000000	1770066216.433521
-24760.755000	-27698.625000	-29930.535000	-12788.640000	-28339.965000	-15410.430000	-137.340000	-12101.670000	58.568585	4.367174	10.440708	29.472150	-10.214544	-11.730211	0.581322	26.495299	49.152460	19.776960	-30.336880	0.924741	-0.390075	0.299926	-1.000000	-1.000000	-1.000000	-1.000000	-1.000000	-1.000000	-1.000000	71.448276	0.000000	-1.000000	-1.000000	2359543.000000	1770066216.435684
-24844.950000	-27647.505000	-29901.420000	-12740.445000	-28327.320000	-15402.105000	-147.690000	-12150.225000	47.297930	1.954839	-5.087769	-13.579966	-35.234630	-26.887079	-5.666579	23.946265	49.152460	19.776960	-30.336880	0.924741	-0.390075	0.299926	-1.000000	-1.000000	-1.000000	-1.000000	-1.000000	-1.000000	-1.000000	71.448276	0.000000	-1.000000	-1.000000	2359544.000000	1770066216.435694
-24784.200000	-27714.330000	-29970.405000	-12813.795000	-28391.580000	-15458.445000	-154.170000	-11929.185000	4.201533	-1.562665	-19.077403	-51.752764	-48.970831	-32.322732	-10.301741	1.717364	49.152460	19.776960	-30.336880	0.924741	-0.390075	0.299926	-1.000000	-1.000000	-1.000000	-1.000000	-1.000000	-1.000000	-1.000000	71.448276	0.000000	-1.000000	-1.000000	2359545.000000	1770066216.442794
-24750.720000	-27743.895000	-29953.395000	-12810.150000	-28376.280000	-15445.395000	-124.875000	-11846.025000	-46.576747	-8.088479	-28.806628	-69.310877	-49.411134	-30.625262	-13.038269	-17.547443	49.152460	19.776960	-30.336880	0.924741	-0.390075	0.299926	-1.000000	-1.000000	-1.000000	-1.000000	-1.000000	-1.000000	-1.000000	71.448276	0.000000	-1.000000	-1.000000	2359546.000000	1770066216.442804
-24713.100000	-27713.655000	-29880.180000	-12755.970000	-28317.780000	-15395.670000	-105.840000	-11897.145000	-70.555972	-16.096025	-30.681788	-62.348674	-35.997444	-22.697682	-11.762422	-14.036710	49.152460	19.776960	-30.336880	0.924741	-0.390075	0.299926	-1.000000	-1.000000	-1.000000	-1.000000	-1.000000	-1.000000	-1.000000	71.448276	0.000000	-1.000000	-1.000000	2359547.000000	1770066216.443952
-24738.840000	-27692.640000	-29831.490000	-12715.740000	-28266.930000	-15343.965000	-78.165000	-11948.445000	-54.043937	-15.757981	-18.635818	-34.945104	-8.322649	-5.314356	-4.204495	4.294449	49.152460	19.776960	-30.336880	0.924741	-0.390075	0.299926	-1.000000	-1.000000	-1.000000	-1.000000	-1.000000	-1.000000	-1.000000	71.448276	0.000000	-1.000000	-1.000000	2359548.000000	1770066216.444007
-24758.415000	-27675.495000	-29867.670000	-12765.015000	-28305.855000	-15374.700000	-92.565000	-11935.845000	-16.468982	-3.576780	4.664847	0.926917	25.874106	18.976679	6.980882	13.843067	49.152460	19.776960	-30.336880	0.924741	-0.390075	0.299926	-1.000000	-1.000000	-1.000000	-1.000000	-1.000000	-1.000000	-1.000000	71.448276	0.000000	-1.000000	-1.000000	2359549.000000	1770066216.457778
-24700.680000	-27659.520000	-29946.825000	-12853.845000	-28385.640000	-15449.085000	-146.790000	-11935.755000	10.896867	11.382019	23.085145	27.574197	49.262428	37.241090	14.202582	2.778105	49.152460	19.776960	-30.336880	0.924741	-0.390075	0.299926	-1.000000	-1.000000	-1.000000	-1.000000	-1.000000	-1.000000	-1.000000	71.448276	0.000000	-1.000000	-1.000000	2359550.000000	1770066216.457789
-24704.820000	-27683.595000	-29954.070000	-12866.535000	-28400.940000	-15464.250000	-156.420000	-11935.395000	17.368623	20.464554	23.292585	33.789334	48.583771	37.371632	12.148472	-17.225970	15.824620	6.271860	-28.124180	0.927305	-0.367980	0.278014	-1.000000	-1.000000	-1.000000	-1.000000	-1.000000	-1.000000	-1.000000	71.448276	0.000000	-1.000000	-1.000000	2359551.000000	1770066216.457801
-24792.390000	-27743.805000	-29967.255000	-12865.995000	-28398.150000	-15454.890000	-141.840000	-11932.380000	14.877536	20.360348	9.068613	23.091038	26.674394	20.368077	3.913747	-23.109667	15.824620	6.271860	-28.124180	0.927305	-0.367980	0.278014	-1.000000	-1.000000	-1.000000	-1.000000	-1.000000	-1.000000	-1.000000	71.448276	0.000000	-1.000000	-1.000000	2359552.000000	1770066216.457807
-24811.380000	-27757.080000	-29942.775000	-12847.995000	-28382.130000	-15441.705000	-136.530000	-11924.730000	14.103093	9.262518	-5.955074	7.729392	-1.795698	-2.059098	-3.073977	-6.790981	15.824620	6.271860	-28.124180	0.927305	-0.367980	0.278014	-1.000000	-1.000000	-1.000000	-1.000000	-1.000000	-1.000000	-1.000000	71.448276	0.000000	-1.000000	-1.000000	2359553.000000	1770066216.466952
-24760.305000	-27722.025000	-29913.525000	-12840.030000	-28379.970000	-15446.790000	-149.355000	-11957.040000	13.709641	-7.946773	-11.018170	-0.641561	-21.744039	-17.855404	-5.534513	12.806669	15.824620	6.271860	-28.124180	0.927305	-0.367980	0.278014	-1.000000	-1.000000	-1.000000	-1.000000	-1.000000	-1.000000	-1.000000	71.448276	0.000000	-1.000000	-1.000000	2359554.000000	1770066216.466967
-24806.070000	-27712.980000	-29908.530000	-12835.935000	-28373.175000	-15440.445000	-143.955000	-12009.645000	9.736692	-18.768484	-4.568639	1.713195	-26.362921	-21.974455	-5.577879	12.993489	15.824620	6.271860	-28.124180	0.927305	-0.367980	0.278014	-1.000000	-1.000000	-1.000000	-1.000000	-1.000000	-1.000000	-1.000000	71.448276	0.000000	-1.000000	-1.000000	2359555.000000	1770066216.466981
-24824.430000	-27721.665000	-29925.855000	-12835.620000	-28377.585000	-15438.105000	-135.405000	-12012.300000	2.242071	-15.947353	4.806908	7.897503	-19.680840	-17.408000	-5.544828	-4.766899	15.824620	6.271860	-28.124180	0.927305	-0.367980	0.278014	-1.000000	-1.000000	-1.000000	-1.000000	-1.000000	-1.000000	-1.000000	71.448276	0.000000	-1.000000	-1.000000	2359556.000000	1770066216.466986
