Channel1	Channel2	Channel3	Channel4	Channel5	Channel6	Channel7	Channel8	FilteredChannel1	FilteredChannel2	FilteredChannel3	FilteredChannel4	FilteredChannel5	FilteredChannel6	FilteredChannel7	FilteredChannel8	GyroX	GyroY	GyroZ	AccX	AccY	AccZ	PPG1	PPG2	rawPPG1	rawPPG2	rawPPG3	Hr	Hrv	Battery	Trigger	PhysicalTrigger	AutoTrigger	NumMeasurements	Timestamp
15935.805000	19363.995000	25709.850000	38293.560000	12039.345000	-3402.990000	-10793.070000	-598.590000	-1.248147	-2.087223	-1.435448	-1.350630	-1.000574	2.303813	9.607402	1.367975	-5.203660	5.615680	-3.067260	-0.865598	-0.232787	0.366454	-1.000000	-1.000000	-1.000000	-1.000000	-1.000000	-1.000000	-1.000000	84.344828	0.000000	-1.000000	-1.000000	837090.000000	1769635485.193947
15941.835000	19370.430000	25714.395000	38295.360000	12040.335000	-3401.820000	-10791.990000	-594.180000	1.288405	-2.592657	-3.044934	-3.598587	-3.085855	0.793730	9.370815	4.068969	-5.203660	5.615680	-3.067260	-0.865598	-0.232787	0.366454	-1.000000	-1.000000	-1.000000	-1.000000	-1.000000	-1.000000	-1.000000	84.344828	0.000000	-1.000000	-1.000000	837091.000000	1769635485.197923
15932.745000	19361.250000	25704.360000	38284.155000	12028.095000	-3415.365000	-10812.375000	-604.440000	3.105002	-1.474542	-2.629942	-3.602718	-3.127418	-0.301934	5.755932	4.728020	-5.203660	5.615680	-3.067260	-0.865598	-0.232787	0.366454	-1.000000	-1.000000	-1.000000	-1.000000	-1.000000	-1.000000	-1.000000	84.344828	0.000000	-1.000000	-1.000000	837092.000000	1769635485.197933
15923.475000	19350.900000	25694.640000	38277.585000	12023.505000	-3420.225000	-10822.635000	-613.125000	2.922328	-0.216413	-1.631507	-2.749980	-2.496778	-1.607846	-0.123188	2.890401	-5.203660	5.615680	-3.067260	-0.865598	-0.232787	0.366454	-1.000000	-1.000000	-1.000000	-1.000000	-1.000000	-1.000000	-1.000000	84.344828	0.000000	-1.000000	-1.000000	837093.000000	1769635485.201921
15928.830000	19351.800000	25697.475000	38283.255000	12029.445000	-3414.330000	-10806.795000	-606.690000	0.916116	-0.538908	-1.874992	-2.656605	-2.611331	-3.594031	-6.133606	-0.394605	-5.203660	5.615680	-3.067260	-0.865598	-0.232787	0.366454	-1.000000	-1.000000	-1.000000	-1.000000	-1.000000	-1.000000	-1.000000	84.344828	0.000000	-1.000000	-1.000000	837094.000000	1769635485.201932
15944.670000	19364.895000	25707.195000	38289.825000	12035.160000	-3409.470000	-10809.180000	-599.445000	-0.641899	-1.583168	-2.608974	-2.706954	-2.809952	-5.167015	-9.584676	-2.704513	-5.203660	5.615680	-3.067260	-0.865598	-0.232787	0.366454	-1.000000	-1.000000	-1.000000	-1.000000	-1.000000	-1.000000	-1.000000	84.344828	0.000000	-1.000000	-1.000000	837095.000000	1769635485.207464
15939.720000	19369.305000	25712.820000	38294.460000	12038.805000	-3407.310000	-10815.930000	-609.345000	-0.102091	-1.049829	-1.578516	-1.097415	-1.354152	-4.460225	-9.053802	-2.669865	-5.203660	5.615680	-3.067260	-0.865598	-0.232787	0.366454	-1.000000	-1.000000	-1.000000	-1.000000	-1.000000	-1.000000	-1.000000	84.344828	0.000000	-1.000000	-1.000000	837096.000000	1769635485.207481
15944.805000	19370.610000	25711.245000	38291.580000	12034.350000	-3417.030000	-10827.810000	-616.005000	1.801254	1.720862	1.741197	2.326023	1.935151	-1.141958	-5.477155	-1.240231	-1.953280	5.234180	-3.219860	-0.866941	-0.237975	0.365661	-1.000000	-1.000000	-1.000000	-1.000000	-1.000000	-1.000000	-1.000000	84.344828	0.000000	-1.000000	-1.000000	837097.000000	1769635485.209824
15955.200000	19381.590000	25724.025000	38306.160000	12048.030000	-3406.590000	-10817.640000	-605.295000	3.457655	5.100086	5.462018	5.615494	5.151279	2.816871	-1.109082	0.088170	-1.953280	5.234180	-3.219860	-0.866941	-0.237975	0.365661	-1.000000	-1.000000	-1.000000	-1.000000	-1.000000	-1.000000	-1.000000	84.344828	0.000000	-1.000000	-1.000000	837098.000000	1769635485.209836
15948.585000	19369.980000	25707.510000	38284.650000	12026.970000	-3413.565000	-10793.025000	-584.640000	3.690613	6.671808	7.028361	6.431660	5.922322	4.859489	2.497418	1.130611	-1.953280	5.234180	-3.219860	-0.866941	-0.237975	0.365661	-1.000000	-1.000000	-1.000000	-1.000000	-1.000000	-1.000000	-1.000000	84.344828	0.000000	-1.000000	-1.000000	837099.000000	1769635485.213917
15922.710000	19351.935000	25690.410000	38269.035000	12011.805000	-3421.980000	-10787.715000	-589.455000	1.397606	4.548044	4.683864	3.430302	2.955744	3.824135	5.393293	2.297376	-1.953280	5.234180	-3.219860	-0.866941	-0.237975	0.365661	-1.000000	-1.000000	-1.000000	-1.000000	-1.000000	-1.000000	-1.000000	84.344828	0.000000	-1.000000	-1.000000	837100.000000	1769635485.213929
15920.910000	19345.320000	25684.380000	38264.130000	12007.395000	-3426.165000	-10799.145000	-595.710000	-3.394314	-1.052455	-1.032899	-2.303235	-2.490215	0.775257	7.752287	3.069126	-1.953280	5.234180	-3.219860	-0.866941	-0.237975	0.365661	-1.000000	-1.000000	-1.000000	-1.000000	-1.000000	-1.000000	-1.000000	84.344828	0.000000	-1.000000	-1.000000	837101.000000	1769635485.218781
15933.510000	19356.255000	25695.270000	38273.085000	12014.955000	-3425.130000	-10812.195000	-597.960000	-7.739046	-6.840074	-6.662853	-7.164961	-6.855780	-2.035283	8.109718	2.485919	-1.953280	5.234180	-3.219860	-0.866941	-0.237975	0.365661	-1.000000	-1.000000	-1.000000	-1.000000	-1.000000	-1.000000	-1.000000	84.344828	0.000000	-1.000000	-1.000000	837102.000000	1769635485.218792
15928.020000	19349.010000	25689.105000	38268.720000	12012.795000	-3425.760000	-10804.095000	-598.185000	-8.076718	-8.941477	-8.489754	-7.978976	-7.279318	-3.180651	4.690703	0.396720	-1.953280	5.234180	-3.219860	-0.866941	-0.237975	0.365661	-1.000000	-1.000000	-1.000000	-1.000000	-1.000000	-1.000000	-1.000000	84.344828	0.000000	-1.000000	-1.000000	837103.000000	1769635485.222226
15907.455000	19330.290000	25672.185000	38254.905000	11999.160000	-3440.070000	-10801.530000	-609.480000	-4.607494	-6.831831	-6.125240	-4.820266	-3.992836	-2.779224	-1.402291	-2.513337	-1.953280	5.234180	-3.219860	-0.866941	-0.237975	0.365661	-1.000000	-1.000000	-1.000000	-1.000000	-1.000000	-1.000000	-1.000000	84.344828	0.000000	-1.000000	-1.000000	837104.000000	1769635485.222239
15912.990000	19338.480000	25681.455000	38264.760000	12007.620000	-3434.805000	-10811.655000	-614.565000	-0.424678	-2.940622	-2.011472	-0.172812	0.589791	-1.571945	-6.481952	-4.997561	-1.953280	5.234180	-3.219860	-0.866941	-0.237975	0.365661	-1.000000	-1.000000	-1.000000	-1.000000	-1.000000	-1.000000	-1.000000	84.344828	0.000000	-1.000000	-1.000000	837105.000000	1769635485.226651
15954.795000	19371.780000	25710.480000	38290.905000	12032.010000	-3410.190000	-10817.145000	-588.645000	3.132295	1.316529	2.236707	4.159454	4.684340	0.477361	-8.020529	-5.290346	-1.953280	5.234180	-3.219860	-0.866941	-0.237975	0.365661	-1.000000	-1.000000	-1.000000	-1.000000	-1.000000	-1.000000	-1.000000	84.344828	0.000000	-1.000000	-1.000000	837106.000000	1769635485.226661
15954.840000	19369.485000	25707.825000	38290.455000	12034.080000	-3402.720000	-10803.825000	-588.015000	6.751851	5.954551	6.347164	7.588739	7.704785	3.612423	-6.384883	-2.506004	1.022420	4.822160	-3.799740	-0.867979	-0.240905	0.366393	-1.000000	-1.000000	-1.000000	-1.000000	-1.000000	-1.000000	-1.000000	84.344828	0.000000	-1.000000	-1.000000	837107.000000	1769635485.229944
15945.255000	19373.220000	25715.745000	38298.465000	12043.620000	-3397.005000	-10806.120000	-598.950000	9.602984	9.764536	9.322581	9.346526	9.054500	6.621660	-3.427852	1.408464	1.022420	4.822160	-3.799740	-0.867979	-0.240905	0.366393	-1.000000	-1.000000	-1.000000	-1.000000	-1.000000	-1.000000	-1.000000	84.344828	0.000000	-1.000000	-1.000000	837108.000000	1769635485.229951
15931.755000	19370.655000	25712.955000	38293.335000	12035.655000	-3405.420000	-10805.670000	-605.520000	9.311526	10.714748	9.790502	8.708675	8.197003	7.511516	-0.530623	3.338615	1.022420	4.822160	-3.799740	-0.867979	-0.240905	0.366393	-1.000000	-1.000000	-1.000000	-1.000000	-1.000000	-1.000000	-1.000000	84.344828	0.000000	-1.000000	-1.000000	837109.000000	1769635485.234299
15922.980000	19353.465000	25694.820000	38275.155000	12015.990000	-3423.555000	-10808.820000	-604.845000	4.824210	7.692176	6.871555	5.164048	4.561025	4.931983	2.140578	2.606413	1.022420	4.822160	-3.799740	-0.867979	-0.240905	0.366393	-1.000000	-1.000000	-1.000000	-1.000000	-1.000000	-1.000000	-1.000000	84.344828	0.000000	-1.000000	-1.000000	837110.000000	1769635485.234312
15924.915000	19350.270000	25696.980000	38281.050000	12022.830000	-3419.190000	-10813.095000	-605.970000	-2.406422	0.949117	0.508416	-1.244500	-1.930946	-0.907377	4.442389	0.893546	1.022420	4.822160	-3.799740	-0.867979	-0.240905	0.366393	-1.000000	-1.000000	-1.000000	-1.000000	-1.000000	-1.000000	-1.000000	84.344828	0.000000	-1.000000	-1.000000	837111.000000	1769635485.239556
15931.620000	19361.655000	25710.435000	38295.135000	12035.385000	-3408.525000	-10813.905000	-611.550000	-8.771986	-6.789185	-6.781253	-7.947653	-8.649414	-7.121270	5.266945	-0.289521	1.022420	4.822160	-3.799740	-0.867979	-0.240905	0.366393	-1.000000	-1.000000	-1.000000	-1.000000	-1.000000	-1.000000	-1.000000	84.344828	0.000000	-1.000000	-1.000000	837112.000000	1769635485.239567
15943.050000	19369.035000	25710.435000	38288.160000	12025.665000	-3411.855000	-10815.390000	-602.145000	-10.331889	-10.931430	-10.612092	-10.901232	-11.478325	-9.683471	3.936064	-0.307712	1.022420	4.822160	-3.799740	-0.867979	-0.240905	0.366393	-1.000000	-1.000000	-1.000000	-1.000000	-1.000000	-1.000000	-1.000000	84.344828	0.000000	-1.000000	-1.000000	837113.000000	1769635485.242597
15951.555000	19373.040000	25708.590000	38283.930000	12019.500000	-3419.730000	-10828.845000	-593.010000	-6.258262	-9.318980	-9.292551	-9.105266	-9.440389	-7.524526	1.349016	0.986701	1.022420	4.822160	-3.799740	-0.867979	-0.240905	0.366393	-1.000000	-1.000000	-1.000000	-1.000000	-1.000000	-1.000000	-1.000000	84.344828	0.000000	-1.000000	-1.000000	837114.000000	1769635485.242608
15948.585000	19373.310000	25716.510000	38297.430000	12035.655000	-3402.765000	-10801.575000	-589.905000	-0.266093	-4.467699	-5.259917	-5.150091	-5.120168	-3.248956	-0.880277	2.545982	1.022420	4.822160	-3.799740	-0.867979	-0.240905	0.366393	-1.000000	-1.000000	-1.000000	-1.000000	-1.000000	-1.000000	-1.000000	84.344828	0.000000	-1.000000	-1.000000	837115.000000	1769635485.248373
15946.380000	19367.415000	25708.590000	38286.900000	12024.000000	-3406.230000	-10780.515000	-592.200000	3.147828	-0.257856	-1.474219	-1.440887	-0.957367	0.387029	-1.367447	2.560534	1.022420	4.822160	-3.799740	-0.867979	-0.240905	0.366393	-1.000000	-1.000000	-1.000000	-1.000000	-1.000000	-1.000000	-1.000000	84.344828	0.000000	-1.000000	-1.000000	837116.000000	1769635485.248385
15933.960000	19355.580000	25698.240000	38278.620000	12015.495000	-3417.840000	-10809.945000	-612.945000	3.062480	1.594114	0.868714	1.200605	2.022716	2.368961	-0.236205	0.453917	-0.457800	4.608520	-2.685760	-0.866514	-0.239074	0.367492	-1.000000	-1.000000	-1.000000	-1.000000	-1.000000	-1.000000	-1.000000	84.344828	0.000000	-1.000000	-1.000000	837117.000000	1769635485.252741
15928.110000	19352.070000	25699.140000	38282.760000	12022.830000	-3411.495000	-10806.840000	-616.365000	1.419968	1.583433	1.900921	2.816512	3.757407	2.973480	0.500679	-2.701982	-0.457800	4.608520	-2.685760	-0.866514	-0.239074	0.367492	-1.000000	-1.000000	-1.000000	-1.000000	-1.000000	-1.000000	-1.000000	84.344828	0.000000	-1.000000	-1.000000	837118.000000	1769635485.252752
15923.925000	19346.895000	25694.235000	38277.315000	12017.925000	-3410.415000	-10790.775000	-607.860000	0.026212	1.167832	2.508299	3.982706	4.959843	3.313168	-0.112222	-4.955364	-0.457800	4.608520	-2.685760	-0.866514	-0.239074	0.367492	-1.000000	-1.000000	-1.000000	-1.000000	-1.000000	-1.000000	-1.000000	84.344828	0.000000	-1.000000	-1.000000	837119.000000	1769635485.254375
15913.530000	19334.835000	25678.305000	38258.640000	11998.845000	-3421.260000	-10785.555000	-606.150000	-0.701442	1.223715	2.939494	4.420380	5.353491	3.699967	-0.671764	-4.538570	-0.457800	4.608520	-2.685760	-0.866514	-0.239074	0.367492	-1.000000	-1.000000	-1.000000	-1.000000	-1.000000	-1.000000	-1.000000	84.344828	0.000000	-1.000000	-1.000000	837120.000000	1769635485.254384
15933.240000	19355.895000	25696.935000	38274.570000	12009.195000	-3425.265000	-10822.140000	-600.975000	-0.895081	1.580203	2.577237	3.171061	3.725576	2.949083	-0.679601	-1.326127	-0.457800	4.608520	-2.685760	-0.866514	-0.239074	0.367492	-1.000000	-1.000000	-1.000000	-1.000000	-1.000000	-1.000000	-1.000000	84.344828	0.000000	-1.000000	-1.000000	837121.000000	1769635485.257931
15940.755000	19365.435000	25707.690000	38285.505000	12017.655000	-3424.095000	-10832.130000	-598.905000	-0.192688	2.259621	1.925961	1.198323	0.925332	0.687566	-1.644992	2.810360	-0.457800	4.608520	-2.685760	-0.866514	-0.239074	0.367492	-1.000000	-1.000000	-1.000000	-1.000000	-1.000000	-1.000000	-1.000000	84.344828	0.000000	-1.000000	-1.000000	837122.000000	1769635485.257937
15932.835000	19356.570000	25699.815000	38279.385000	12013.245000	-3420.270000	-10807.155000	-602.910000	1.111811	3.034994	1.886234	0.333657	-0.867485	-1.714895	-3.525242	5.117709	-0.457800	4.608520	-2.685760	-0.866514	-0.239074	0.367492	-1.000000	-1.000000	-1.000000	-1.000000	-1.000000	-1.000000	-1.000000	84.344828	0.000000	-1.000000	-1.000000	837123.000000	1769635485.262857
15929.910000	19352.160000	25696.125000	38278.845000	12014.010000	-3414.870000	-10797.255000	-602.055000	1.578482	2.669341	1.711227	0.301850	-1.342597	-2.974360	-4.086235	3.975148	-0.457800	4.608520	-2.685760	-0.866514	-0.239074	0.367492	-1.000000	-1.000000	-1.000000	-1.000000	-1.000000	-1.000000	-1.000000	84.344828	0.000000	-1.000000	-1.000000	837124.000000	1769635485.262868
15928.020000	19354.455000	25699.500000	38282.985000	12017.025000	-3414.015000	-10804.410000	-605.295000	0.811201	0.840962	0.624275	0.101687	-1.226433	-2.655626	-2.404362	0.531342	-0.457800	4.608520	-2.685760	-0.866514	-0.239074	0.367492	-1.000000	-1.000000	-1.000000	-1.000000	-1.000000	-1.000000	-1.000000	84.344828	0.000000	-1.000000	-1.000000	837125.000000	1769635485.271673
15928.200000	19357.560000	25696.710000	38274.975000	12008.880000	-3421.665000	-10810.845000	-608.085000	0.128739	-0.909395	-0.567853	-0.128721	-0.622180	-0.900331	0.534017	-2.264341	-0.457800	4.608520	-2.685760	-0.866514	-0.239074	0.367492	-1.000000	-1.000000	-1.000000	-1.000000	-1.000000	-1.000000	-1.000000	84.344828	0.000000	-1.000000	-1.000000	837126.000000	1769635485.271680
15933.195000	19365.075000	25699.905000	38272.995000	12005.460000	-3426.165000	-10808.955000	-603.765000	0.681849	-1.012625	-0.884889	-0.241547	0.089274	1.196019	3.329354	-2.540096	-3.784480	5.386780	-1.480220	-0.864988	-0.235717	0.369201	-1.000000	-1.000000	-1.000000	-1.000000	-1.000000	-1.000000	-1.000000	84.344828	0.000000	-1.000000	-1.000000	837127.000000	1769635485.271690
15933.285000	19358.370000	25699.275000	38278.080000	12010.770000	-3418.425000	-10799.640000	-602.055000	2.167805	0.467171	-0.271045	-0.352391	0.366874	2.307750	4.631358	-0.874378	-3.784480	5.386780	-1.480220	-0.864988	-0.235717	0.369201	-1.000000	-1.000000	-1.000000	-1.000000	-1.000000	-1.000000	-1.000000	84.344828	0.000000	-1.000000	-1.000000	837128.000000	1769635485.271695
15929.595000	19342.305000	25688.790000	38280.420000	12017.025000	-3410.055000	-10795.230000	-601.380000	3.115779	1.629809	0.474388	-0.175108	0.557966	2.426883	4.201342	0.933026	-3.784480	5.386780	-1.480220	-0.864988	-0.235717	0.369201	-1.000000	-1.000000	-1.000000	-1.000000	-1.000000	-1.000000	-1.000000	84.344828	0.000000	-1.000000	-1.000000	837129.000000	1769635485.274012
15927.705000	19346.670000	25690.365000	38279.880000	12016.305000	-3414.510000	-10805.130000	-604.935000	1.903475	0.263251	0.011877	0.127087	0.963764	2.302405	3.297254	1.498002	-3.784480	5.386780	-1.480220	-0.864988	-0.235717	0.369201	-1.000000	-1.000000	-1.000000	-1.000000	-1.000000	-1.000000	-1.000000	84.344828	0.000000	-1.000000	-1.000000	837130.000000	1769635485.274024
15934.635000	19358.145000	25700.220000	38285.235000	12018.960000	-3415.635000	-10812.330000	-602.190000	-1.606036	-3.320091	-1.937860	-0.229070	0.930402	1.808166	2.554912	0.507233	-3.784480	5.386780	-1.480220	-0.864988	-0.235717	0.369201	-1.000000	-1.000000	-1.000000	-1.000000	-1.000000	-1.000000	-1.000000	84.344828	0.000000	-1.000000	-1.000000	837131.000000	1769635485.282359
15935.715000	19361.250000	25703.370000	38287.845000	12022.425000	-3412.080000	-10809.270000	-603.540000	-5.161349	-5.895626	-3.563444	-1.197175	-0.014396	0.256318	0.695210	-1.229608	-3.784480	5.386780	-1.480220	-0.864988	-0.235717	0.369201	-1.000000	-1.000000	-1.000000	-1.000000	-1.000000	-1.000000	-1.000000	84.344828	0.000000	-1.000000	-1.000000	837132.000000	1769635485.282371
15939.135000	19359.225000	25700.985000	38285.190000	12019.095000	-3416.490000	-10809.630000	-600.255000	-5.981470	-4.844424	-3.007199	-1.838451	-1.351995	-2.198928	-3.097577	-2.359712	-3.784480	5.386780	-1.480220	-0.864988	-0.235717	0.369201	-1.000000	-1.000000	-1.000000	-1.000000	-1.000000	-1.000000	-1.000000	84.344828	0.000000	-1.000000	-1.000000	837133.000000	1769635485.282384
15943.860000	19357.830000	25697.205000	38280.645000	12015.315000	-3416.715000	-10810.170000	-602.190000	-3.274589	-0.840543	-0.563429	-1.649325	-2.285913	-4.282205	-6.753863	-1.899940	-3.784480	5.386780	-1.480220	-0.864988	-0.235717	0.369201	-1.000000	-1.000000	-1.000000	-1.000000	-1.000000	-1.000000	-1.000000	84.344828	0.000000	-1.000000	-1.000000	837134.000000	1769635485.282389
15930.495000	19344.555000	25683.525000	38267.730000	12007.980000	-3416.355000	-10800.630000	-611.955000	1.158735	3.119489	1.798959	-0.987254	-2.418038	-4.502864	-7.064063	-0.110723	-3.784480	5.386780	-1.480220	-0.864988	-0.235717	0.369201	-1.000000	-1.000000	-1.000000	-1.000000	-1.000000	-1.000000	-1.000000	84.344828	0.000000	-1.000000	-1.000000	837135.000000	1769635485.287748
15913.530000	19345.545000	25685.685000	38268.450000	12004.155000	-3424.455000	-10802.925000	-621.675000	3.995495	4.428099	2.394812	-0.464329	-1.850340	-2.585245	-3.393044	1.315088	-3.784480	5.386780	-1.480220	-0.864988	-0.235717	0.369201	-1.000000	-1.000000	-1.000000	-1.000000	-1.000000	-1.000000	-1.000000	84.344828	0.000000	-1.000000	-1.000000	837136.000000	1769635485.287759
15923.160000	19359.495000	25699.545000	38282.355000	12016.305000	-3419.595000	-10815.390000	-606.915000	3.280089	3.269237	1.574455	-0.032013	-0.827467	0.071367	1.377270	1.141114	-3.799740	4.852680	-1.754900	-0.866819	-0.237121	0.367126	-1.000000	-1.000000	-1.000000	-1.000000	-1.000000	-1.000000	-1.000000	84.344828	0.000000	-1.000000	-1.000000	837137.000000	1769635485.290454
15942.285000	19364.580000	25701.885000	38281.905000	12015.630000	-3422.115000	-10825.335000	-587.250000	0.692064	2.017316	1.139187	0.873389	0.536693	1.881871	3.851380	0.504705	-3.799740	4.852680	-1.754900	-0.866819	-0.237121	0.367126	-1.000000	-1.000000	-1.000000	-1.000000	-1.000000	-1.000000	-1.000000	84.344828	0.000000	-1.000000	-1.000000	837138.000000	1769635485.290465
15940.755000	19350.855000	25685.100000	38265.030000	11997.810000	-3441.195000	-10841.715000	-590.895000	-0.737854	1.552392	1.377243	1.773092	1.572830	2.160295	3.233680	1.146549	-3.799740	4.852680	-1.754900	-0.866819	-0.237121	0.367126	-1.000000	-1.000000	-1.000000	-1.000000	-1.000000	-1.000000	-1.000000	84.344828	0.000000	-1.000000	-1.000000	837139.000000	1769635485.293977
15936.345000	19353.150000	25691.085000	38272.590000	12003.885000	-3449.295000	-10883.430000	-605.745000	-0.373722	0.396194	0.693334	1.367406	1.243329	0.776457	0.356926	2.366520	-3.799740	4.852680	-1.754900	-0.866819	-0.237121	0.367126	-1.000000	-1.000000	-1.000000	-1.000000	-1.000000	-1.000000	-1.000000	84.344828	0.000000	-1.000000	-1.000000	837140.000000	1769635485.293989
15933.285000	19369.620000	25712.865000	38294.775000	12026.475000	-3424.905000	-10851.165000	-615.465000	0.275566	-1.773850	-0.991556	0.086611	0.139275	-1.236288	-3.517287	1.835986	-3.799740	4.852680	-1.754900	-0.866819	-0.237121	0.367126	-1.000000	-1.000000	-1.000000	-1.000000	-1.000000	-1.000000	-1.000000	84.344828	0.000000	-1.000000	-1.000000	837141.000000	1769635485.299787
15937.920000	19377.045000	25720.290000	38303.775000	12042.180000	-3377.520000	-10739.790000	-603.090000	0.158720	-2.899135	-1.472919	0.111542	0.501299	-0.899502	-3.865104	-0.866247	-3.799740	4.852680	-1.754900	-0.866819	-0.237121	0.367126	-1.000000	-1.000000	-1.000000	-1.000000	-1.000000	-1.000000	-1.000000	84.344828	0.000000	-1.000000	-1.000000	837142.000000	1769635485.299793
15944.130000	19370.475000	25710.120000	38292.210000	12031.605000	-3384.720000	-10754.550000	-595.935000	-0.289146	-1.643306	0.253617	2.090871	3.022361	3.629284	3.992558	-3.227844	-3.799740	4.852680	-1.754900	-0.866819	-0.237121	0.367126	-1.000000	-1.000000	-1.000000	-1.000000	-1.000000	-1.000000	-1.000000	84.344828	0.000000	-1.000000	-1.000000	837143.000000	1769635485.301902
15939.945000	19359.405000	25695.630000	38274.705000	12011.445000	-3413.340000	-10793.565000	-596.025000	-0.029712	0.664107	2.268166	3.793506	5.143366	8.851074	14.901743	-2.754462	-3.799740	4.852680	-1.754900	-0.866819	-0.237121	0.367126	-1.000000	-1.000000	-1.000000	-1.000000	-1.000000	-1.000000	-1.000000	84.344828	0.000000	-1.000000	-1.000000	837144.000000	1769635485.301908
15924.375000	19346.220000	25685.010000	38265.840000	12000.960000	-3423.645000	-10795.680000	-601.605000	0.925259	1.515508	1.894740	2.498330	3.643761	8.695881	17.242939	0.074432	-3.799740	4.852680	-1.754900	-0.866819	-0.237121	0.367126	-1.000000	-1.000000	-1.000000	-1.000000	-1.000000	-1.000000	-1.000000	84.344828	0.000000	-1.000000	-1.000000	837145.000000	1769635485.306234
15917.535000	19338.660000	25679.205000	38264.445000	12003.030000	-3413.295000	-10778.445000	-605.205000	0.944868	-0.404834	-1.545399	-2.067570	-1.701599	1.764446	7.654837	2.284953	-3.799740	4.852680	-1.754900	-0.866819	-0.237121	0.367126	-1.000000	-1.000000	-1.000000	-1.000000	-1.000000	-1.000000	-1.000000	84.344828	0.000000	-1.000000	-1.000000	837146.000000	1769635485.306246
15901.470000	19312.380000	25648.695000	38232.315000	11976.255000	-3426.345000	-10762.830000	-613.845000	-1.447452	-4.227021	-6.233559	-7.439603	-7.788837	-7.188455	-5.926353	1.400975	-0.274680	3.052000	-2.350040	-0.869688	-0.242004	0.364013	-1.000000	-1.000000	-1.000000	-1.000000	-1.000000	-1.000000	-1.000000	84.344828	0.000000	-1.000000	-1.000000	837147.000000	1769635485.314764
15929.955000	19349.325000	25686.720000	38265.345000	11998.755000	-3429.360000	-10804.185000	-610.965000	-4.920611	-7.012470	-8.835758	-10.069392	-10.643333	-12.291163	-14.361599	-1.922338	-0.274680	3.052000	-2.350040	-0.869688	-0.242004	0.364013	-1.000000	-1.000000	-1.000000	-1.000000	-1.000000	-1.000000	-1.000000	84.344828	0.000000	-1.000000	-1.000000	837148.000000	1769635485.314774
15949.755000	19383.120000	25724.835000	38303.460000	12032.100000	-3411.405000	-10820.970000	-600.795000	-5.399352	-4.944304	-5.854200	-6.865120	-7.576855	-10.923023	-15.406285	-4.194892	-0.274680	3.052000	-2.350040	-0.869688	-0.242004	0.364013	-1.000000	-1.000000	-1.000000	-1.000000	-1.000000	-1.000000	-1.000000	84.344828	0.000000	-1.000000	-1.000000	837149.000000	1769635485.314785
15940.935000	19373.985000	25714.035000	38292.660000	12023.010000	-3416.940000	-10814.085000	-598.320000	-0.800684	2.444135	2.558359	1.673652	0.422389	-4.880386	-12.843707	-2.670185	-0.274680	3.052000	-2.350040	-0.869688	-0.242004	0.364013	-1.000000	-1.000000	-1.000000	-1.000000	-1.000000	-1.000000	-1.000000	84.344828	0.000000	-1.000000	-1.000000	837150.000000	1769635485.314790
15935.445000	19356.885000	25694.685000	38274.615000	12010.545000	-3420.270000	-10812.375000	-597.600000	5.509655	9.848562	10.562649	9.831311	8.016516	1.034339	-10.931021	1.583812	-0.274680	3.052000	-2.350040	-0.869688	-0.242004	0.364013	-1.000000	-1.000000	-1.000000	-1.000000	-1.000000	-1.000000	-1.000000	84.344828	0.000000	-1.000000	-1.000000	837151.000000	1769635485.318066
15931.395000	19349.775000	25688.295000	38270.520000	12008.205000	-3417.120000	-10809.585000	-601.650000	8.375272	11.382686	12.176537	11.934852	10.342973	3.690046	-9.407596	5.015283	-0.274680	3.052000	-2.350040	-0.869688	-0.242004	0.364013	-1.000000	-1.000000	-1.000000	-1.000000	-1.000000	-1.000000	-1.000000	84.344828	0.000000	-1.000000	-1.000000	837152.000000	1769635485.318076
15942.915000	19363.680000	25704.405000	38287.395000	12022.245000	-3407.985000	-10807.425000	-599.535000	6.399760	6.704770	7.389501	8.050822	7.712409	4.529763	-4.132168	5.304264	-0.274680	3.052000	-2.350040	-0.869688	-0.242004	0.364013	-1.000000	-1.000000	-1.000000	-1.000000	-1.000000	-1.000000	-1.000000	84.344828	0.000000	-1.000000	-1.000000	837153.000000	1769635485.321938
15943.860000	19369.035000	25711.605000	38294.730000	12027.105000	-3405.870000	-10811.115000	-605.295000	2.286558	0.277125	0.903020	2.425748	3.685784	5.922129	6.002158	2.787684	-0.274680	3.052000	-2.350040	-0.869688	-0.242004	0.364013	-1.000000	-1.000000	-1.000000	-1.000000	-1.000000	-1.000000	-1.000000	84.344828	0.000000	-1.000000	-1.000000	837154.000000	1769635485.321950
15939.090000	19361.430000	25700.400000	38281.005000	12012.930000	-3414.555000	-10805.760000	-603.990000	-1.061751	-3.734452	-3.219651	-1.602999	0.508263	7.162785	15.991119	-0.796252	-0.274680	3.052000	-2.350040	-0.869688	-0.242004	0.364013	-1.000000	-1.000000	-1.000000	-1.000000	-1.000000	-1.000000	-1.000000	84.344828	0.000000	-1.000000	-1.000000	837155.000000	1769635485.325895
15937.335000	19357.830000	25695.945000	38274.750000	12005.955000	-3422.610000	-10803.105000	-600.255000	-2.997602	-4.552804	-4.345521	-3.596042	-1.875943	6.102771	20.146367	-3.496549	-0.274680	3.052000	-2.350040	-0.869688	-0.242004	0.364013	-1.000000	-1.000000	-1.000000	-1.000000	-1.000000	-1.000000	-1.000000	84.344828	0.000000	-1.000000	-1.000000	837156.000000	1769635485.325917
15939.180000	19358.145000	25694.820000	38273.850000	12005.910000	-3423.825000	-10807.920000	-594.765000	-4.383225	-4.296755	-4.592047	-5.046821	-4.331313	2.291153	17.576235	-3.921287	0.412020	3.738700	-2.578940	-0.868162	-0.242797	0.365600	-1.000000	-1.000000	-1.000000	-1.000000	-1.000000	-1.000000	-1.000000	84.344828	0.000000	-1.000000	-1.000000	837157.000000	1769635485.330040
15937.020000	19361.205000	25696.485000	38272.095000	12008.610000	-3412.935000	-10802.385000	-597.645000	-5.788254	-5.221144	-6.159701	-7.402260	-7.240912	-2.789459	10.840713	-2.253039	0.412020	3.738700	-2.578940	-0.868162	-0.242797	0.365600	-1.000000	-1.000000	-1.000000	-1.000000	-1.000000	-1.000000	-1.000000	84.344828	0.000000	-1.000000	-1.000000	837158.000000	1769635485.330056
15937.200000	19373.895000	25705.305000	38278.215000	12012.210000	-3410.865000	-10800.270000	-600.390000	-6.313107	-6.469562	-7.988575	-9.417207	-9.126565	-6.822248	1.883875	-0.153652	0.412020	3.738700	-2.578940	-0.868162	-0.242797	0.365600	-1.000000	-1.000000	-1.000000	-1.000000	-1.000000	-1.000000	-1.000000	84.344828	0.000000	-1.000000	-1.000000	837159.000000	1769635485.334762
15937.335000	19371.240000	25696.485000	38273.085000	12005.235000	-3418.830000	-10805.040000	-602.820000	-4.539480	-4.882977	-6.581857	-7.766017	-7.473449	-7.965583	-7.761245	0.835182	0.412020	3.738700	-2.578940	-0.868162	-0.242797	0.365600	-1.000000	-1.000000	-1.000000	-1.000000	-1.000000	-1.000000	-1.000000	84.344828	0.000000	-1.000000	-1.000000	837160.000000	1769635485.334780
15944.085000	19357.245000	25702.065000	38290.815000	12024.945000	-3403.080000	-10805.625000	-598.455000	-0.451638	0.139923	-0.936499	-1.346306	-1.760664	-5.799428	-14.914812	0.616848	0.412020	3.738700	-2.578940	-0.868162	-0.242797	0.365600	-1.000000	-1.000000	-1.000000	-1.000000	-1.000000	-1.000000	-1.000000	84.344828	0.000000	-1.000000	-1.000000	837161.000000	1769635485.337992
15946.245000	19364.355000	25714.890000	38291.760000	12024.765000	-3403.485000	-10812.330000	-602.955000	4.230062	5.243914	5.957373	6.821169	5.523981	-1.271430	-16.418430	0.131147	0.412020	3.738700	-2.578940	-0.868162	-0.242797	0.365600	-1.000000	-1.000000	-1.000000	-1.000000	-1.000000	-1.000000	-1.000000	84.344828	0.000000	-1.000000	-1.000000	837162.000000	1769635485.338003
15934.185000	19355.445000	25702.695000	38280.330000	12010.140000	-3416.445000	-10820.205000	-615.555000	7.093742	7.117173	10.182209	11.912262	10.340332	3.270680	-12.210456	-0.133597	0.412020	3.738700	-2.578940	-0.868162	-0.242797	0.365600	-1.000000	-1.000000	-1.000000	-1.000000	-1.000000	-1.000000	-1.000000	84.344828	0.000000	-1.000000	-1.000000	837163.000000	1769635485.346592
15940.620000	19364.535000	25706.655000	38283.705000	12011.310000	-3415.770000	-10815.345000	-611.505000	6.703644	5.611974	9.873924	11.300546	10.098889	5.367107	-5.112339	-0.421557	0.412020	3.738700	-2.578940	-0.868162	-0.242797	0.365600	-1.000000	-1.000000	-1.000000	-1.000000	-1.000000	-1.000000	-1.000000	84.344828	0.000000	-1.000000	-1.000000	837164.000000	1769635485.346603
15955.155000	19372.860000	25712.955000	38290.410000	12017.430000	-3410.640000	-10800.720000	-591.030000	3.865494	2.817246	5.948491	6.347509	5.783524	4.767161	2.199984	-0.427580	0.412020	3.738700	-2.578940	-0.868162	-0.242797	0.365600	-1.000000	-1.000000	-1.000000	-1.000000	-1.000000	-1.000000	-1.000000	84.344828	0.000000	-1.000000	-1.000000	837165.000000	1769635485.346734
15934.185000	19346.310000	25689.330000	38271.555000	12005.955000	-3412.395000	-10787.490000	-591.255000	0.342014	0.008369	0.216312	-0.194192	0.015186	2.769636	8.589486	0.642771	0.412020	3.738700	-2.578940	-0.868162	-0.242797	0.365600	-1.000000	-1.000000	-1.000000	-1.000000	-1.000000	-1.000000	-1.000000	84.344828	0.000000	-1.000000	-1.000000	837166.000000	1769635485.346745
15910.155000	19331.685000	25675.560000	38257.110000	11994.660000	-3419.280000	-10793.250000	-612.810000	-3.271368	-3.391669	-6.106897	-6.554942	-5.423501	0.050620	12.445503	2.124029	-3.708180	4.181240	-1.617560	-0.866758	-0.236816	0.366332	-1.000000	-1.000000	-1.000000	-1.000000	-1.000000	-1.000000	-1.000000	84.344828	0.000000	-1.000000	-1.000000	837167.000000	1769635485.350466
15939.675000	19382.760000	25724.070000	38295.945000	12021.705000	-3410.730000	-10826.820000	-616.320000	-6.281237	-6.449076	-10.410651	-10.429541	-8.662962	-2.820939	10.905934	2.055472	-3.708180	4.181240	-1.617560	-0.866758	-0.236816	0.366332	-1.000000	-1.000000	-1.000000	-1.000000	-1.000000	-1.000000	-1.000000	84.344828	0.000000	-1.000000	-1.000000	837168.000000	1769635485.350476
15949.305000	19383.255000	25726.815000	38302.470000	12026.025000	-3405.240000	-10817.685000	-604.350000	-6.289926	-5.461693	-8.649132	-8.727762	-7.404454	-4.236092	3.457279	0.116132	-3.708180	4.181240	-1.617560	-0.866758	-0.236816	0.366332	-1.000000	-1.000000	-1.000000	-1.000000	-1.000000	-1.000000	-1.000000	84.344828	0.000000	-1.000000	-1.000000	837169.000000	1769635485.363481
15935.895000	19339.290000	25691.850000	38286.045000	12019.005000	-3404.835000	-10800.540000	-596.385000	-2.418296	0.009020	-1.400229	-2.109769	-2.198068	-3.185211	-5.253539	-1.624209	-3.708180	4.181240	-1.617560	-0.866758	-0.236816	0.366332	-1.000000	-1.000000	-1.000000	-1.000000	-1.000000	-1.000000	-1.000000	84.344828	0.000000	-1.000000	-1.000000	837170.000000	1769635485.363493
15940.620000	19349.370000	25698.105000	38286.585000	12017.790000	-3408.480000	-10806.435000	-599.715000	2.506059	4.772421	4.886659	4.181139	3.028070	-0.680634	-9.155464	-1.352662	-3.708180	4.181240	-1.617560	-0.866758	-0.236816	0.366332	-1.000000	-1.000000	-1.000000	-1.000000	-1.000000	-1.000000	-1.000000	84.344828	0.000000	-1.000000	-1.000000	837171.000000	1769635485.363507
15935.670000	19348.470000	25692.840000	38276.910000	12012.030000	-3409.245000	-10813.140000	-613.440000	5.375035	5.117341	5.938641	6.247977	5.328858	1.698120	-6.772401	0.425863	-3.708180	4.181240	-1.617560	-0.866758	-0.236816	0.366332	-1.000000	-1.000000	-1.000000	-1.000000	-1.000000	-1.000000	-1.000000	84.344828	0.000000	-1.000000	-1.000000	837172.000000	1769635485.363512
15933.780000	19347.930000	25691.535000	38274.210000	12008.295000	-3409.335000	-10806.480000	-608.985000	5.112268	2.246462	3.124713	4.267083	4.563723	3.084319	-1.481948	1.557438	-3.708180	4.181240	-1.617560	-0.866758	-0.236816	0.366332	-1.000000	-1.000000	-1.000000	-1.000000	-1.000000	-1.000000	-1.000000	84.344828	0.000000	-1.000000	-1.000000	837173.000000	1769635485.363518
15935.130000	19350.810000	25692.165000	38273.715000	12006.630000	-3404.070000	-10787.265000	-595.935000	2.136504	-1.167363	-0.471519	0.360546	1.773597	3.110848	2.969146	0.737584	-3.708180	4.181240	-1.617560	-0.866758	-0.236816	0.366332	-1.000000	-1.000000	-1.000000	-1.000000	-1.000000	-1.000000	-1.000000	84.344828	0.000000	-1.000000	-1.000000	837174.000000	1769635485.363523
15932.700000	19350.495000	25691.805000	38271.870000	12000.870000	-3410.145000	-10799.820000	-600.075000	-1.407844	-2.800221	-2.336761	-2.767692	-1.454876	1.816859	4.782580	-0.984778	-3.708180	4.181240	-1.617560	-0.866758	-0.236816	0.366332	-1.000000	-1.000000	-1.000000	-1.000000	-1.000000	-1.000000	-1.000000	84.344828	0.000000	-1.000000	-1.000000	837175.000000	1769635485.366200
15930.540000	19344.420000	25684.560000	38261.835000	11987.595000	-3424.140000	-10816.695000	-603.855000	-2.913344	-1.863733	-1.621167	-3.350814	-3.595108	-0.446296	3.461917	-1.653390	-3.708180	4.181240	-1.617560	-0.866758	-0.236816	0.366332	-1.000000	-1.000000	-1.000000	-1.000000	-1.000000	-1.000000	-1.000000	84.344828	0.000000	-1.000000	-1.000000	837176.000000	1769635485.366211
15942.510000	19358.235000	25699.635000	38280.015000	12005.910000	-3414.600000	-10830.330000	-597.420000	-2.123678	-0.263191	-0.041349	-2.096356	-4.179067	-2.988494	-0.045882	-0.654985	-9.094960	3.158820	-1.632820	-0.868101	-0.234619	0.365111	-1.000000	-1.000000	-1.000000	-1.000000	-1.000000	-1.000000	-1.000000	84.344828	0.000000	-1.000000	-1.000000	837177.000000	1769635485.370049
15953.670000	19368.945000	25709.895000	38294.370000	12021.255000	-3406.365000	-10820.790000	-587.880000	-0.508013	0.565393	0.911127	-0.267164	-2.952732	-4.396443	-3.518513	0.994310	-9.094960	3.158820	-1.632820	-0.868101	-0.234619	0.365111	-1.000000	-1.000000	-1.000000	-1.000000	-1.000000	-1.000000	-1.000000	84.344828	0.000000	-1.000000	-1.000000	837178.000000	1769635485.370059
15954.975000	19360.755000	25697.025000	38279.700000	12008.835000	-3407.040000	-10792.035000	-581.265000	1.139728	1.739706	1.825809	1.893738	0.165120	-3.417727	-4.629127	2.052045	-9.094960	3.158820	-1.632820	-0.868101	-0.234619	0.365111	-1.000000	-1.000000	-1.000000	-1.000000	-1.000000	-1.000000	-1.000000	84.344828	0.000000	-1.000000	-1.000000	837179.000000	1769635485.374117
15951.870000	19355.130000	25690.545000	38271.465000	12003.075000	-3404.790000	-10785.555000	-582.210000	2.394284	3.396941	2.705864	3.551984	3.588092	-0.342569	-1.868256	2.202906	-9.094960	3.158820	-1.632820	-0.868101	-0.234619	0.365111	-1.000000	-1.000000	-1.000000	-1.000000	-1.000000	-1.000000	-1.000000	84.344828	0.000000	-1.000000	-1.000000	837180.000000	1769635485.374127
15946.020000	19355.040000	25691.985000	38268.900000	11996.325000	-3415.995000	-10796.535000	-589.950000	2.385835	3.503059	2.341778	3.433913	5.071712	3.038619	3.459870	1.639951	-9.094960	3.158820	-1.632820	-0.868101	-0.234619	0.365111	-1.000000	-1.000000	-1.000000	-1.000000	-1.000000	-1.000000	-1.000000	84.344828	0.000000	-1.000000	-1.000000	837181.000000	1769635485.378083
15945.345000	19358.685000	25695.090000	38265.345000	11993.985000	-3423.330000	-10808.460000	-595.755000	0.617220	1.115709	0.561511	1.512571	3.814449	4.437013	6.839577	0.007396	-9.094960	3.158820	-1.632820	-0.868101	-0.234619	0.365111	-1.000000	-1.000000	-1.000000	-1.000000	-1.000000	-1.000000	-1.000000	84.344828	0.000000	-1.000000	-1.000000	837182.000000	1769635485.378093
15961.905000	19350.450000	25675.290000	38229.795000	11973.735000	-3430.890000	-10817.730000	-581.445000	-1.851934	-2.392975	-1.714596	-1.500949	0.561099	2.703082	4.589857	-2.726769	-9.094960	3.158820	-1.632820	-0.868101	-0.234619	0.365111	-1.000000	-1.000000	-1.000000	-1.000000	-1.000000	-1.000000	-1.000000	84.344828	0.000000	-1.000000	-1.000000	837183.000000	1769635485.384605
15950.745000	19334.025000	25651.350000	38203.110000	11960.460000	-3423.420000	-10800.405000	-583.830000	-2.924868	-5.130245	-3.920211	-5.097800	-3.191042	-0.734440	-1.729553	-4.739085	-9.094960	3.158820	-1.632820	-0.868101	-0.234619	0.365111	-1.000000	-1.000000	-1.000000	-1.000000	-1.000000	-1.000000	-1.000000	84.344828	0.000000	-1.000000	-1.000000	837184.000000	1769635485.384615
15925.545000	19341.450000	25661.475000	38211.210000	11971.485000	-3411.990000	-10787.175000	-601.515000	-2.467131	-6.241180	-5.770115	-8.121797	-5.612300	-2.744786	-6.052317	-4.326321	-9.094960	3.158820	-1.632820	-0.868101	-0.234619	0.365111	-1.000000	-1.000000	-1.000000	-1.000000	-1.000000	-1.000000	-1.000000	84.344828	0.000000	-1.000000	-1.000000	837185.000000	1769635485.386173
15943.005000	19358.190000	25678.080000	38218.185000	11966.760000	-3422.835000	-10803.465000	-590.310000	-2.471625	-5.405582	-6.070792	-8.408014	-5.488346	-1.872442	-4.426888	-2.285506	-9.094960	3.158820	-1.632820	-0.868101	-0.234619	0.365111	-1.000000	-1.000000	-1.000000	-1.000000	-1.000000	-1.000000	-1.000000	84.344828	0.000000	-1.000000	-1.000000	837186.000000	1769635485.386184
15964.785000	19361.295000	25676.460000	38208.240000	11947.995000	-3443.220000	-10823.130000	-572.895000	-2.897307	-2.134189	-3.307748	-4.740941	-3.459556	-0.155416	0.073146	-0.038701	-4.394880	4.425400	-1.480220	-0.869322	-0.241271	0.367248	-1.000000	-1.000000	-1.000000	-1.000000	-1.000000	-1.000000	-1.000000	84.344828	0.000000	-1.000000	-1.000000	837187.000000	1769635485.390061
15947.145000	19353.645000	25667.775000	38200.365000	11955.285000	-3429.090000	-10813.095000	-587.565000	-1.714099	2.886176	2.049856	1.670864	-0.856777	0.021286	1.701644	1.966218	-4.394880	4.425400	-1.480220	-0.869322	-0.241271	0.367248	-1.000000	-1.000000	-1.000000	-1.000000	-1.000000	-1.000000	-1.000000	84.344828	0.000000	-1.000000	-1.000000	837188.000000	1769635485.390069
15927.210000	19352.745000	25670.385000	38209.995000	11964.060000	-3422.205000	-10813.365000	-610.155000	0.814871	7.059403	7.221445	8.243931	2.279100	-0.594241	-0.559533	2.925315	-4.394880	4.425400	-1.480220	-0.869322	-0.241271	0.367248	-1.000000	-1.000000	-1.000000	-1.000000	-1.000000	-1.000000	-1.000000	84.344828	0.000000	-1.000000	-1.000000	837189.000000	1769635485.394105
15913.620000	19348.560000	25666.245000	38200.905000	11954.475000	-3421.980000	-10801.440000	-624.780000	2.231310	7.852436	9.313856	12.428512	5.898298	0.142175	-2.911814	1.768861	-4.394880	4.425400	-1.480220	-0.869322	-0.241271	0.367248	-1.000000	-1.000000	-1.000000	-1.000000	-1.000000	-1.000000	-1.000000	84.344828	0.000000	-1.000000	-1.000000	837190.000000	1769635485.394116
15919.515000	19342.935000	25664.490000	38194.065000	11941.515000	-3421.620000	-10782.855000	-610.830000	1.436413	4.787413	7.308012	12.419093	8.133575	2.408272	-1.760624	-0.897735	-4.394880	4.425400	-1.480220	-0.869322	-0.241271	0.367248	-1.000000	-1.000000	-1.000000	-1.000000	-1.000000	-1.000000	-1.000000	84.344828	0.000000	-1.000000	-1.000000	837191.000000	1769635485.397906
15945.435000	19383.120000	25709.265000	38232.405000	11965.590000	-3420.180000	-10805.715000	-600.840000	0.139029	0.367520	3.444503	9.102053	7.583542	4.441971	2.596059	-2.599567	-4.394880	4.425400	-1.480220	-0.869322	-0.241271	0.367248	-1.000000	-1.000000	-1.000000	-1.000000	-1.000000	-1.000000	-1.000000	84.344828	0.000000	-1.000000	-1.000000	837192.000000	1769635485.397918
15955.200000	19380.060000	25698.285000	38233.575000	11974.860000	-3420.450000	-10822.275000	-594.675000	1.206784	-1.511153	1.491950	5.780983	5.496509	4.449259	5.852583	-1.182655	-4.394880	4.425400	-1.480220	-0.869322	-0.241271	0.367248	-1.000000	-1.000000	-1.000000	-1.000000	-1.000000	-1.000000	-1.000000	84.344828	0.000000	-1.000000	-1.000000	837193.000000	1769635485.402318
15943.635000	19339.650000	25661.835000	38245.320000	11991.780000	-3409.695000	-10807.245000	-588.735000	4.928132	-0.906254	0.913859	3.380175	3.322846	2.009416	4.564728	3.040909	-4.394880	4.425400	-1.480220	-0.869322	-0.241271	0.367248	-1.000000	-1.000000	-1.000000	-1.000000	-1.000000	-1.000000	-1.000000	84.344828	0.000000	-1.000000	-1.000000	837194.000000	1769635485.402326
15927.795000	19322.235000	25646.220000	38221.965000	11976.435000	-3415.680000	-10788.030000	-592.155000	7.258054	-2.287376	-2.772881	-0.550244	0.746035	-1.414118	0.756070	6.955067	-4.394880	4.425400	-1.480220	-0.869322	-0.241271	0.367248	-1.000000	-1.000000	-1.000000	-1.000000	-1.000000	-1.000000	-1.000000	84.344828	0.000000	-1.000000	-1.000000	837195.000000	1769635485.405821
15898.590000	19292.535000	25606.260000	38155.365000	11927.160000	-3430.530000	-10760.895000	-607.905000	3.794001	-7.492149	-10.439120	-7.943402	-3.389657	-3.925348	-0.880806	6.776465	-4.394880	4.425400	-1.480220	-0.869322	-0.241271	0.367248	-1.000000	-1.000000	-1.000000	-1.000000	-1.000000	-1.000000	-1.000000	84.344828	0.000000	-1.000000	-1.000000	837196.000000	1769635485.405832
15949.485000	19334.610000	25637.535000	38170.125000	11932.110000	-3443.580000	-10811.385000	-585.270000	-3.814734	-12.183808	-16.898997	-17.194924	-9.367342	-5.306988	0.398735	2.232332	-2.151660	5.676720	-2.807840	-0.866453	-0.246154	0.373595	-1.000000	-1.000000	-1.000000	-1.000000	-1.000000	-1.000000	-1.000000	84.344828	0.000000	-1.000000	-1.000000	837197.000000	1769635485.409934
16019.055000	19396.440000	25694.415000	38215.980000	11961.000000	-3446.055000	-10876.545000	-542.700000	-7.176816	-9.420311	-14.987614	-21.965480	-14.098533	-6.211640	-0.291398	-1.814883	-2.151660	5.676720	-2.807840	-0.866453	-0.246154	0.373595	-1.000000	-1.000000	-1.000000	-1.000000	-1.000000	-1.000000	-1.000000	84.344828	0.000000	-1.000000	-1.000000	837198.000000	1769635485.409947
15972.480000	19355.085000	25671.420000	38221.740000	11954.385000	-3438.810000	-10837.755000	-548.955000	-1.198338	2.418147	-2.564411	-15.830238	-12.648224	-5.955400	-6.241017	-0.936538	-2.151660	5.676720	-2.807840	-0.866453	-0.246154	0.373595	-1.000000	-1.000000	-1.000000	-1.000000	-1.000000	-1.000000	-1.000000	84.344828	0.000000	-1.000000	-1.000000	837199.000000	1769635485.413908
15938.955000	19350.180000	25689.420000	38282.760000	11983.995000	-3417.975000	-10813.995000	-588.915000	7.082462	15.063221	13.179321	0.402950	-3.974169	-2.955164	-12.264026	2.104734	-2.151660	5.676720	-2.807840	-0.866453	-0.246154	0.373595	-1.000000	-1.000000	-1.000000	-1.000000	-1.000000	-1.000000	-1.000000	84.344828	0.000000	-1.000000	-1.000000	837200.000000	1769635485.413921
15936.435000	19359.900000	25701.885000	38299.140000	11996.370000	-3402.945000	-10777.815000	-598.635000	6.871863	18.389285	21.981038	18.657058	7.569287	2.968082	-9.909408	0.670125	-2.151660	5.676720	-2.807840	-0.866453	-0.246154	0.373595	-1.000000	-1.000000	-1.000000	-1.000000	-1.000000	-1.000000	-1.000000	84.344828	0.000000	-1.000000	-1.000000	837201.000000	1769635485.418346
15955.290000	19391.535000	25739.685000	38339.685000	12034.935000	-3394.080000	-10810.755000	-595.080000	-2.414541	11.429786	20.240679	29.323892	15.910663	9.329825	1.741086	-6.309379	-2.151660	5.676720	-2.807840	-0.866453	-0.246154	0.373595	-1.000000	-1.000000	-1.000000	-1.000000	-1.000000	-1.000000	-1.000000	84.344828	0.000000	-1.000000	-1.000000	837202.000000	1769635485.418358
16006.095000	19391.130000	25724.160000	38307.195000	12016.215000	-3413.520000	-10830.240000	-542.655000	-11.136102	1.652142	11.841033	26.613945	16.987052	12.045853	13.658401	-12.419163	-2.151660	5.676720	-2.807840	-0.866453	-0.246154	0.373595	-1.000000	-1.000000	-1.000000	-1.000000	-1.000000	-1.000000	-1.000000	84.344828	0.000000	-1.000000	-1.000000	837203.000000	1769635485.421950
16001.460000	19346.715000	25645.950000	38150.280000	11912.355000	-3451.230000	-10815.390000	-521.550000	-10.467241	-4.703053	0.953044	9.686982	9.310737	8.250135	16.109431	-10.552832	-2.151660	5.676720	-2.807840	-0.866453	-0.246154	0.373595	-1.000000	-1.000000	-1.000000	-1.000000	-1.000000	-1.000000	-1.000000	84.344828	0.000000	-1.000000	-1.000000	837204.000000	1769635485.421962
15911.280000	19296.045000	25556.580000	37968.345000	11800.530000	-3491.370000	-10821.330000	-597.555000	-2.286150	-8.310333	-12.088290	-18.786853	-6.710298	-1.401629	8.307323	-1.300685	-2.151660	5.676720	-2.807840	-0.866453	-0.246154	0.373595	-1.000000	-1.000000	-1.000000	-1.000000	-1.000000	-1.000000	-1.000000	84.344828	0.000000	-1.000000	-1.000000	837205.000000	1769635485.427178
15893.955000	19308.285000	25525.800000	37932.300000	11785.545000	-3480.660000	-10829.835000	-643.185000	2.365564	-12.711322	-26.840519	-50.168610	-26.318888	-12.161127	-2.243236	5.762378	-2.151660	5.676720	-2.807840	-0.866453	-0.246154	0.373595	-1.000000	-1.000000	-1.000000	-1.000000	-1.000000	-1.000000	-1.000000	84.344828	0.000000	-1.000000	-1.000000	837206.000000	1769635485.427189
15908.130000	19277.190000	25484.220000	37927.035000	11780.280000	-3493.080000	-10849.185000	-627.390000	-2.616325	-17.734429	-38.121042	-67.727904	-38.686486	-17.423365	-7.811178	3.152499	-4.211760	12.543720	-2.334780	-0.866697	-0.230590	0.378234	-1.000000	-1.000000	-1.000000	-1.000000	-1.000000	-1.000000	-1.000000	84.344828	0.000000	-1.000000	-1.000000	837207.000000	1769635485.431270
15928.020000	19289.430000	25542.945000	38101.860000	11866.680000	-3480.300000	-10852.020000	-611.505000	-9.742316	-18.508840	-36.836729	-54.043824	-32.392486	-13.816894	-7.498245	-4.583875	-4.211760	12.543720	-2.334780	-0.866697	-0.230590	0.378234	-1.000000	-1.000000	-1.000000	-1.000000	-1.000000	-1.000000	-1.000000	84.344828	0.000000	-1.000000	-1.000000	837208.000000	1769635485.431280
15972.255000	19304.820000	25574.355000	38199.735000	11895.030000	-3486.195000	-10824.300000	-548.370000	-7.368040	-10.480319	-17.030678	-5.471979	-5.366694	-3.828833	-5.260056	-6.143047	-4.211760	12.543720	-2.334780	-0.866697	-0.230590	0.378234	-1.000000	-1.000000	-1.000000	-1.000000	-1.000000	-1.000000	-1.000000	84.344828	0.000000	-1.000000	-1.000000	837209.000000	1769635485.433903
15900.300000	19235.385000	25518.510000	38192.085000	11887.110000	-3491.190000	-10779.030000	-580.770000	5.366485	3.644077	14.482230	57.261373	29.375394	6.591972	-2.471808	3.262525	-4.211760	12.543720	-2.334780	-0.866697	-0.230590	0.378234	-1.000000	-1.000000	-1.000000	-1.000000	-1.000000	-1.000000	-1.000000	84.344828	0.000000	-1.000000	-1.000000	837210.000000	1769635485.433914
15922.440000	19322.730000	25663.950000	38366.640000	12063.510000	-3404.700000	-10842.840000	-610.965000	17.047306	15.614123	41.692050	100.462075	53.469406	13.536475	1.758201	15.354885	-4.211760	12.543720	-2.334780	-0.866697	-0.230590	0.378234	-1.000000	-1.000000	-1.000000	-1.000000	-1.000000	-1.000000	-1.000000	84.344828	0.000000	-1.000000	-1.000000	837211.000000	1769635485.438006
15979.455000	19370.205000	25762.455000	38475.720000	12156.210000	-3346.830000	-10812.915000	-563.130000	18.388519	22.498918	56.367380	106.498878	60.644076	18.762479	5.501112	17.966167	-4.211760	12.543720	-2.334780	-0.866697	-0.230590	0.378234	-1.000000	-1.000000	-1.000000	-1.000000	-1.000000	-1.000000	-1.000000	84.344828	0.000000	-1.000000	-1.000000	837212.000000	1769635485.438012
15936.615000	19357.200000	25758.675000	38410.155000	12123.045000	-3340.980000	-10753.290000	-588.105000	11.666998	26.921225	59.938023	81.358027	55.074884	24.428562	6.710994	9.207202	-4.211760	12.543720	-2.334780	-0.866697	-0.230590	0.378234	-1.000000	-1.000000	-1.000000	-1.000000	-1.000000	-1.000000	-1.000000	84.344828	0.000000	-1.000000	-1.000000	837213.000000	1769635485.444472
15935.805000	19378.215000	25741.395000	38321.865000	12069.855000	-3334.320000	-10739.385000	-581.265000	3.785145	27.719895	50.922161	36.204052	37.103603	26.523157	7.141130	-2.400484	-4.211760	12.543720	-2.334780	-0.866697	-0.230590	0.378234	-1.000000	-1.000000	-1.000000	-1.000000	-1.000000	-1.000000	-1.000000	84.344828	0.000000	-1.000000	-1.000000	837214.000000	1769635485.444483
15986.835000	19430.820000	25742.250000	38242.755000	12014.370000	-3367.935000	-10785.735000	-568.305000	-1.223079	20.969288	25.343557	-21.430319	3.645660	18.214797	7.743361	-8.231487	-4.211760	12.543720	-2.334780	-0.866697	-0.230590	0.378234	-1.000000	-1.000000	-1.000000	-1.000000	-1.000000	-1.000000	-1.000000	84.344828	0.000000	-1.000000	-1.000000	837215.000000	1769635485.446072
16019.910000	19379.070000	25627.995000	38049.255000	11844.945000	-3509.145000	-10866.015000	-530.640000	-2.209711	6.535770	-14.253104	-82.495118	-42.363115	-3.742366	4.385248	-6.295314	-4.211760	12.543720	-2.334780	-0.866697	-0.230590	0.378234	-1.000000	-1.000000	-1.000000	-1.000000	-1.000000	-1.000000	-1.000000	84.344828	0.000000	-1.000000	-1.000000	837216.000000	1769635485.446084
16006.230000	19342.755000	25604.730000	38047.635000	11817.855000	-3521.565000	-10858.455000	-528.570000	-0.993701	-12.751108	-57.686413	-132.906180	-88.482751	-34.762542	-6.608909	-0.758656	-27.986840	16.053520	8.789760	-0.878660	-0.208312	0.363097	-1.000000	-1.000000	-1.000000	-1.000000	-1.000000	-1.000000	-1.000000	84.344828	0.000000	-1.000000	-1.000000	837217.000000	1769635485.452908
15928.875000	19334.070000	25645.815000	38203.020000	11937.645000	-3441.375000	-10834.065000	-596.700000	-2.707766	-31.985374	-87.988883	-149.515030	-111.791487	-58.555315	-20.497278	1.423697	-27.986840	16.053520	8.789760	-0.878660	-0.208312	0.363097	-1.000000	-1.000000	-1.000000	-1.000000	-1.000000	-1.000000	-1.000000	84.344828	0.000000	-1.000000	-1.000000	837218.000000	1769635485.452919
15927.975000	19408.320000	25789.995000	38479.815000	12151.575000	-3293.235000	-10775.835000	-621.765000	-10.163174	-41.775509	-85.634522	-107.514950	-88.437971	-54.589306	-25.992577	-4.016242	-27.986840	16.053520	8.789760	-0.878660	-0.208312	0.363097	-1.000000	-1.000000	-1.000000	-1.000000	-1.000000	-1.000000	-1.000000	84.344828	0.000000	-1.000000	-1.000000	837219.000000	1769635485.454276
15955.785000	19427.580000	25807.590000	38493.045000	12133.845000	-3336.930000	-10775.430000	-603.675000	-18.820468	-34.653297	-46.333072	-11.459815	-20.556569	-19.750839	-15.379749	-13.330677	-27.986840	16.053520	8.789760	-0.878660	-0.208312	0.363097	-1.000000	-1.000000	-1.000000	-1.000000	-1.000000	-1.000000	-1.000000	84.344828	0.000000	-1.000000	-1.000000	837220.000000	1769635485.454284
15893.640000	19352.610000	25706.205000	38347.425000	12021.300000	-3432.195000	-10791.945000	-630.405000	-22.102776	-15.288323	7.439449	90.001299	53.718714	22.231046	5.873926	-18.570931	-27.986840	16.053520	8.789760	-0.878660	-0.208312	0.363097	-1.000000	-1.000000	-1.000000	-1.000000	-1.000000	-1.000000	-1.000000	84.344828	0.000000	-1.000000	-1.000000	837221.000000	1769635485.461353
15856.335000	19319.805000	25647.075000	38235.060000	11967.570000	-3436.290000	-10778.175000	-668.970000	-17.759690	3.186924	44.134498	140.173533	91.806032	42.677821	22.119169	-15.610458	-27.986840	16.053520	8.789760	-0.878660	-0.208312	0.363097	-1.000000	-1.000000	-1.000000	-1.000000	-1.000000	-1.000000	-1.000000	84.344828	0.000000	-1.000000	-1.000000	837222.000000	1769635485.461365
15908.535000	19375.605000	25688.790000	38246.895000	12000.960000	-3412.890000	-10824.705000	-666.630000	-6.814518	12.387773	50.460124	121.015545	82.411000	35.130939	23.055666	-5.747445	-27.986840	16.053520	8.789760	-0.878660	-0.208312	0.363097	-1.000000	-1.000000	-1.000000	-1.000000	-1.000000	-1.000000	-1.000000	84.344828	0.000000	-1.000000	-1.000000	837223.000000	1769635485.462059
15990.030000	19442.475000	25748.595000	38295.945000	12028.320000	-3395.835000	-10872.810000	-612.900000	8.664249	14.940787	37.655338	60.064090	46.458165	15.597601	11.270509	7.169494	-27.986840	16.053520	8.789760	-0.878660	-0.208312	0.363097	-1.000000	-1.000000	-1.000000	-1.000000	-1.000000	-1.000000	-1.000000	84.344828	0.000000	-1.000000	-1.000000	837224.000000	1769635485.462069
15965.550000	19424.115000	25731.765000	38282.895000	11987.055000	-3407.265000	-10826.235000	-609.120000	24.151395	18.096367	24.672153	0.164945	12.011459	3.132121	-2.693796	18.772823	-27.986840	16.053520	8.789760	-0.878660	-0.208312	0.363097	-1.000000	-1.000000	-1.000000	-1.000000	-1.000000	-1.000000	-1.000000	84.344828	0.000000	-1.000000	-1.000000	837225.000000	1769635485.466096
15965.145000	19405.935000	25677.450000	38187.450000	11907.180000	-3441.285000	-10820.160000	-592.830000	32.371683	22.718233	17.725339	-36.618365	-9.860529	2.428641	-9.030445	24.948713	-27.986840	16.053520	8.789760	-0.878660	-0.208312	0.363097	-1.000000	-1.000000	-1.000000	-1.000000	-1.000000	-1.000000	-1.000000	84.344828	0.000000	-1.000000	-1.000000	837226.000000	1769635485.466107
15926.805000	19323.630000	25581.735000	38064.555000	11843.865000	-3473.955000	-10815.480000	-595.170000	28.931213	21.321294	7.413953	-58.409889	-27.694011	2.174995	-6.827717	24.269886	-29.802780	4.150720	9.339120	-0.903623	-0.220764	0.323669	-1.000000	-1.000000	-1.000000	-1.000000	-1.000000	-1.000000	-1.000000	84.344828	0.000000	-1.000000	-1.000000	837227.000000	1769635485.470989
15908.985000	19281.645000	25541.370000	38107.080000	11910.735000	-3445.245000	-10812.645000	-607.095000	14.993757	6.313590	-15.899091	-78.784535	-49.413278	-8.636090	-2.362682	17.989961	-29.802780	4.150720	9.339120	-0.903623	-0.220764	0.323669	-1.000000	-1.000000	-1.000000	-1.000000	-1.000000	-1.000000	-1.000000	84.344828	0.000000	-1.000000	-1.000000	837228.000000	1769635485.470996
15947.955000	19346.085000	25642.710000	38320.695000	12055.545000	-3371.985000	-10794.870000	-598.770000	-4.356674	-17.994285	-43.900487	-86.345792	-62.153849	-23.461573	0.074442	6.972162	-29.802780	4.150720	9.339120	-0.903623	-0.220764	0.323669	-1.000000	-1.000000	-1.000000	-1.000000	-1.000000	-1.000000	-1.000000	84.344828	0.000000	-1.000000	-1.000000	837229.000000	1769635485.475369
15959.700000	19390.905000	25731.270000	38412.450000	12097.710000	-3378.690000	-10792.935000	-600.435000	-19.104886	-32.509148	-50.220949	-51.471742	-42.174867	-24.332522	0.694236	-6.287537	-29.802780	4.150720	9.339120	-0.903623	-0.220764	0.323669	-1.000000	-1.000000	-1.000000	-1.000000	-1.000000	-1.000000	-1.000000	84.344828	0.000000	-1.000000	-1.000000	837230.000000	1769635485.475379
15936.840000	19365.570000	25710.795000	38359.980000	12069.810000	-3380.400000	-10787.130000	-607.860000	-20.849308	-23.189779	-19.737743	27.733120	10.581718	-6.209605	0.781287	-16.087440	-29.802780	4.150720	9.339120	-0.903623	-0.220764	0.323669	-1.000000	-1.000000	-1.000000	-1.000000	-1.000000	-1.000000	-1.000000	84.344828	0.000000	-1.000000	-1.000000	837231.000000	1769635485.478117
15902.100000	19324.575000	25665.615000	38278.260000	12000.780000	-3424.680000	-10787.085000	-617.085000	-14.022437	-0.034786	27.558020	105.079829	62.268501	15.989296	1.917560	-19.288948	-29.802780	4.150720	9.339120	-0.903623	-0.220764	0.323669	-1.000000	-1.000000	-1.000000	-1.000000	-1.000000	-1.000000	-1.000000	84.344828	0.000000	-1.000000	-1.000000	837232.000000	1769635485.478128
15918.435000	19349.010000	25693.785000	38273.895000	11991.555000	-3441.915000	-10828.935000	-607.185000	-9.972839	15.942129	56.381430	127.333041	77.163142	25.229223	4.705816	-18.173080	-29.802780	4.150720	9.339120	-0.903623	-0.220764	0.323669	-1.000000	-1.000000	-1.000000	-1.000000	-1.000000	-1.000000	-1.000000	84.344828	0.000000	-1.000000	-1.000000	837233.000000	1769635485.482056
15924.690000	19364.490000	25700.625000	38263.455000	11987.505000	-3433.815000	-10843.380000	-602.730000	-10.956879	17.232144	51.561758	82.907176	50.074767	18.115845	5.449242	-15.346797	-29.802780	4.150720	9.339120	-0.903623	-0.220764	0.323669	-1.000000	-1.000000	-1.000000	-1.000000	-1.000000	-1.000000	-1.000000	84.344828	0.000000	-1.000000	-1.000000	837234.000000	1769635485.482067
15942.195000	19388.565000	25700.220000	38250.045000	11970.900000	-3436.380000	-10820.745000	-593.865000	-9.198072	11.813917	24.196215	4.298818	3.701749	3.346393	0.339805	-10.237107	-29.802780	4.150720	9.339120	-0.903623	-0.220764	0.323669	-1.000000	-1.000000	-1.000000	-1.000000	-1.000000	-1.000000	-1.000000	84.344828	0.000000	-1.000000	-1.000000	837235.000000	1769635485.486115
15930.630000	19369.485000	25689.735000	38254.680000	11976.525000	-3429.810000	-10822.545000	-612.045000	0.782634	8.658696	-6.133274	-64.110791	-36.053499	-9.450320	-7.816591	-1.913653	-29.802780	4.150720	9.339120	-0.903623	-0.220764	0.323669	-1.000000	-1.000000	-1.000000	-1.000000	-1.000000	-1.000000	-1.000000	84.344828	0.000000	-1.000000	-1.000000	837236.000000	1769635485.486125
15937.650000	19368.855000	25704.540000	38271.060000	11991.780000	-3416.490000	-10821.510000	-616.635000	14.623152	8.135212	-26.724673	-95.893786	-56.347654	-16.179974	-12.789462	7.269527	-17.533740	-4.150720	5.875100	-0.881590	-0.262145	0.375609	-1.000000	-1.000000	-1.000000	-1.000000	-1.000000	-1.000000	-1.000000	84.344828	0.000000	-1.000000	-1.000000	837237.000000	1769635485.490240
15939.315000	19369.755000	25711.695000	38282.940000	12000.825000	-3412.530000	-10815.300000	-625.590000	22.756304	4.730424	-35.028611	-89.647844	-56.168131	-16.469361	-11.448358	12.959611	-17.533740	-4.150720	5.875100	-0.881590	-0.262145	0.375609	-1.000000	-1.000000	-1.000000	-1.000000	-1.000000	-1.000000	-1.000000	84.344828	0.000000	-1.000000	-1.000000	837238.000000	1769635485.490252
15946.605000	19375.335000	25722.135000	38310.840000	12022.470000	-3410.145000	-10837.620000	-627.570000	20.373013	-3.915981	-33.405031	-56.565469	-38.665736	-10.920007	-5.248202	13.245415	-17.533740	-4.150720	5.875100	-0.881590	-0.262145	0.375609	-1.000000	-1.000000	-1.000000	-1.000000	-1.000000	-1.000000	-1.000000	84.344828	0.000000	-1.000000	-1.000000	837239.000000	1769635485.495590
15935.310000	19369.530000	25707.015000	38303.145000	12022.920000	-3399.255000	-10818.495000	-619.965000	10.236316	-13.523103	-23.959209	-9.170443	-8.791522	-1.243009	2.289210	9.832169	-17.533740	-4.150720	5.875100	-0.881590	-0.262145	0.375609	-1.000000	-1.000000	-1.000000	-1.000000	-1.000000	-1.000000	-1.000000	84.344828	0.000000	-1.000000	-1.000000	837240.000000	1769635485.495603
15893.730000	19303.560000	25637.760000	38243.700000	11980.125000	-3408.030000	-10757.790000	-618.885000	-2.761544	-18.911875	-9.947594	37.262152	23.669594	9.463446	9.969430	5.190440	-17.533740	-4.150720	5.875100	-0.881590	-0.262145	0.375609	-1.000000	-1.000000	-1.000000	-1.000000	-1.000000	-1.000000	-1.000000	84.344828	0.000000	-1.000000	-1.000000	837241.000000	1769635485.497953
15901.920000	19293.930000	25621.380000	38224.845000	11964.150000	-3427.020000	-10793.925000	-605.790000	-14.868766	-19.431945	2.092748	64.329650	45.012436	16.930054	17.804834	0.599419	-17.533740	-4.150720	5.875100	-0.881590	-0.262145	0.375609	-1.000000	-1.000000	-1.000000	-1.000000	-1.000000	-1.000000	-1.000000	84.344828	0.000000	-1.000000	-1.000000	837242.000000	1769635485.497965
15939.135000	19342.080000	25670.340000	38264.400000	11992.545000	-3421.260000	-10826.550000	-583.605000	-21.293158	-15.503420	8.575198	62.512747	46.700987	17.067820	20.858775	-2.854222	-17.533740	-4.150720	5.875100	-0.881590	-0.262145	0.375609	-1.000000	-1.000000	-1.000000	-1.000000	-1.000000	-1.000000	-1.000000	84.344828	0.000000	-1.000000	-1.000000	837243.000000	1769635485.501909
15934.320000	19340.235000	25664.310000	38245.410000	11973.870000	-3428.820000	-10812.555000	-590.895000	-17.439242	-5.447350	12.926217	38.963506	31.382278	9.297265	12.942459	-3.856642	-17.533740	-4.150720	5.875100	-0.881590	-0.262145	0.375609	-1.000000	-1.000000	-1.000000	-1.000000	-1.000000	-1.000000	-1.000000	84.344828	0.000000	-1.000000	-1.000000	837244.000000	1769635485.501920
15929.010000	19339.155000	25660.035000	38225.610000	11959.380000	-3436.200000	-10815.615000	-597.960000	-4.888985	9.403279	17.747505	7.620266	7.288082	-2.871787	-3.467137	-2.562607	-17.533740	-4.150720	5.875100	-0.881590	-0.262145	0.375609	-1.000000	-1.000000	-1.000000	-1.000000	-1.000000	-1.000000	-1.000000	84.344828	0.000000	-1.000000	-1.000000	837245.000000	1769635485.507072
15925.860000	19343.025000	25663.410000	38224.080000	11957.670000	-3438.270000	-10817.325000	-607.590000	8.328759	22.091498	19.623498	-21.096181	-17.461696	-14.314094	-18.667304	-0.951442	-17.533740	-4.150720	5.875100	-0.881590	-0.262145	0.375609	-1.000000	-1.000000	-1.000000	-1.000000	-1.000000	-1.000000	-1.000000	84.344828	0.000000	-1.000000	-1.000000	837246.000000	1769635485.507084
15926.310000	19346.265000	25673.310000	38253.510000	11978.235000	-3434.580000	-10829.295000	-618.390000	14.736846	25.559710	14.783138	-39.026721	-34.122094	-19.891261	-24.788879	-0.808780	-40.011720	4.928980	5.661460	-0.818113	-0.258605	0.394530	-1.000000	-1.000000	-1.000000	-1.000000	-1.000000	-1.000000	-1.000000	84.344828	0.000000	-1.000000	-1.000000	837247.000000	1769635485.510934
15914.970000	19343.610000	25683.210000	38286.270000	12005.325000	-3418.830000	-10849.590000	-644.085000	12.547879	18.315608	4.870941	-39.081299	-35.051515	-16.458373	-20.288013	-2.487566	-40.011720	4.928980	5.661460	-0.818113	-0.258605	0.394530	-1.000000	-1.000000	-1.000000	-1.000000	-1.000000	-1.000000	-1.000000	84.344828	0.000000	-1.000000	-1.000000	837248.000000	1769635485.510948
15934.635000	19368.495000	25704.855000	38301.255000	12013.290000	-3408.120000	-10831.905000	-632.340000	5.435777	5.534161	-3.713559	-20.134817	-19.125948	-5.095265	-9.113094	-5.113400	-40.011720	4.928980	5.661460	-0.818113	-0.258605	0.394530	-1.000000	-1.000000	-1.000000	-1.000000	-1.000000	-1.000000	-1.000000	84.344828	0.000000	-1.000000	-1.000000	837249.000000	1769635485.513999
15923.430000	19335.285000	25657.785000	38235.330000	11950.560000	-3453.390000	-10832.220000	-617.805000	-0.835405	-4.920019	-5.856092	8.279144	5.253400	8.593600	2.923470	-6.501195	-40.011720	4.928980	5.661460	-0.818113	-0.258605	0.394530	-1.000000	-1.000000	-1.000000	-1.000000	-1.000000	-1.000000	-1.000000	84.344828	0.000000	-1.000000	-1.000000	837250.000000	1769635485.514006
15948.180000	19326.510000	25643.385000	38213.550000	11941.470000	-3444.615000	-10827.585000	-568.260000	-3.273128	-9.862210	-3.774758	28.838840	23.616445	17.130874	12.136789	-4.104790	-40.011720	4.928980	5.661460	-0.818113	-0.258605	0.394530	-1.000000	-1.000000	-1.000000	-1.000000	-1.000000	-1.000000	-1.000000	84.344828	0.000000	-1.000000	-1.000000	837251.000000	1769635485.518008
15973.650000	19324.755000	25640.685000	38221.785000	11954.970000	-3407.310000	-10780.650000	-537.570000	-2.735661	-12.013225	-3.805152	29.324945	26.144790	17.100511	17.938678	2.725292	-40.011720	4.928980	5.661460	-0.818113	-0.258605	0.394530	-1.000000	-1.000000	-1.000000	-1.000000	-1.000000	-1.000000	-1.000000	84.344828	0.000000	-1.000000	-1.000000	837252.000000	1769635485.518015
15982.605000	19347.795000	25669.665000	38259.855000	11984.895000	-3391.290000	-10780.065000	-564.165000	-0.686496	-12.956091	-7.203626	13.361486	15.419846	11.516038	20.192990	10.965153	-40.011720	4.928980	5.661460	-0.818113	-0.258605	0.394530	-1.000000	-1.000000	-1.000000	-1.000000	-1.000000	-1.000000	-1.000000	84.344828	0.000000	-1.000000	-1.000000	837253.000000	1769635485.525112
15959.745000	19366.245000	25701.165000	38302.560000	12035.745000	-3395.160000	-10796.175000	-599.805000	1.325059	-10.422116	-8.932868	-4.519675	2.100905	4.694690	17.015276	14.440484	-40.011720	4.928980	5.661460	-0.818113	-0.258605	0.394530	-1.000000	-1.000000	-1.000000	-1.000000	-1.000000	-1.000000	-1.000000	84.344828	0.000000	-1.000000	-1.000000	837254.000000	1769635485.525127
15947.820000	19356.840000	25690.230000	38283.210000	12004.740000	-3440.745000	-10826.325000	-584.370000	0.819783	-3.636100	-5.512671	-13.369634	-5.725522	-2.292198	6.873142	9.323272	-40.011720	4.928980	5.661460	-0.818113	-0.258605	0.394530	-1.000000	-1.000000	-1.000000	-1.000000	-1.000000	-1.000000	-1.000000	84.344828	0.000000	-1.000000	-1.000000	837255.000000	1769635485.525973
15914.970000	19307.205000	25646.535000	38234.835000	11952.045000	-3465.000000	-10811.655000	-578.745000	-3.360395	3.144038	-0.235927	-14.037719	-9.083981	-10.299301	-7.182869	-0.716705	-40.011720	4.928980	5.661460	-0.818113	-0.258605	0.394530	-1.000000	-1.000000	-1.000000	-1.000000	-1.000000	-1.000000	-1.000000	84.344828	0.000000	-1.000000	-1.000000	837256.000000	1769635485.525984
15943.770000	19312.335000	25655.625000	38242.935000	11956.815000	-3457.755000	-10810.980000	-566.595000	-8.756521	4.746211	1.405922	-13.145725	-12.995025	-17.921698	-17.817108	-8.249642	-33.510960	0.045780	4.486440	-0.856321	-0.261657	0.377685	-1.000000	-1.000000	-1.000000	-1.000000	-1.000000	-1.000000	-1.000000	84.344828	0.000000	-1.000000	-1.000000	837257.000000	1769635485.540328
15926.895000	19338.525000	25680.960000	38267.010000	11985.300000	-3430.980000	-10807.695000	-600.120000	-10.731424	1.911250	-0.181332	-11.621634	-15.947816	-19.839342	-19.917128	-10.117828	-33.510960	0.045780	4.486440	-0.856321	-0.261657	0.377685	-1.000000	-1.000000	-1.000000	-1.000000	-1.000000	-1.000000	-1.000000	84.344828	0.000000	-1.000000	-1.000000	837258.000000	1769635485.540341
15876.090000	19336.095000	25660.935000	38241.270000	11971.170000	-3421.710000	-10779.975000	-639.225000	-7.841057	0.565156	0.353568	-4.974153	-11.232628	-11.255204	-13.839260	-9.769695	-33.510960	0.045780	4.486440	-0.856321	-0.261657	0.377685	-1.000000	-1.000000	-1.000000	-1.000000	-1.000000	-1.000000	-1.000000	84.344828	0.000000	-1.000000	-1.000000	837259.000000	1769635485.540357
15896.565000	19355.400000	25682.985000	38262.240000	11986.020000	-3416.940000	-10792.755000	-641.790000	-3.572810	3.755603	4.894249	6.704834	1.662557	4.991594	-3.255352	-11.739739	-33.510960	0.045780	4.486440	-0.856321	-0.261657	0.377685	-1.000000	-1.000000	-1.000000	-1.000000	-1.000000	-1.000000	-1.000000	84.344828	0.000000	-1.000000	-1.000000	837260.000000	1769635485.540362
15961.860000	19392.480000	25721.595000	38297.610000	12011.040000	-3415.365000	-10829.610000	-600.525000	0.310310	8.974337	10.231046	17.062879	14.844756	18.570532	5.312107	-14.221917	-33.510960	0.045780	4.486440	-0.856321	-0.261657	0.377685	-1.000000	-1.000000	-1.000000	-1.000000	-1.000000	-1.000000	-1.000000	84.344828	0.000000	-1.000000	-1.000000	837261.000000	1769635485.540368
15989.850000	19381.860000	25701.030000	38273.400000	11994.300000	-3420.720000	-10813.905000	-565.020000	6.621489	11.862496	12.072999	19.490837	19.665226	20.821328	6.499956	-9.453664	-33.510960	0.045780	4.486440	-0.856321	-0.261657	0.377685	-1.000000	-1.000000	-1.000000	-1.000000	-1.000000	-1.000000	-1.000000	84.344828	0.000000	-1.000000	-1.000000	837262.000000	1769635485.540373
15968.385000	19365.300000	25670.655000	38217.420000	11953.710000	-3442.005000	-10822.005000	-572.355000	15.577725	8.646989	6.730632	10.353876	12.094839	11.753654	2.540067	5.907363	-33.510960	0.045780	4.486440	-0.856321	-0.261657	0.377685	-1.000000	-1.000000	-1.000000	-1.000000	-1.000000	-1.000000	-1.000000	84.344828	0.000000	-1.000000	-1.000000	837263.000000	1769635485.542098
15912.765000	19348.650000	25646.760000	38157.930000	11916.090000	-3451.950000	-10811.655000	-617.805000	20.693756	-0.832900	-5.397875	-7.996776	-4.383784	-1.432582	-0.020920	23.122890	-33.510960	0.045780	4.486440	-0.856321	-0.261657	0.377685	-1.000000	-1.000000	-1.000000	-1.000000	-1.000000	-1.000000	-1.000000	84.344828	0.000000	-1.000000	-1.000000	837264.000000	1769635485.542111
15897.960000	19325.430000	25627.905000	38140.920000	11901.645000	-3468.195000	-10816.155000	-624.105000	15.272046	-11.457784	-17.509128	-25.744957	-19.520927	-10.836729	1.741483	28.727421	-33.510960	0.045780	4.486440	-0.856321	-0.261657	0.377685	-1.000000	-1.000000	-1.000000	-1.000000	-1.000000	-1.000000	-1.000000	84.344828	0.000000	-1.000000	-1.000000	837265.000000	1769635485.546101
15889.725000	19299.735000	25615.170000	38181.015000	11912.850000	-3479.535000	-10809.000000	-620.055000	0.303493	-17.752141	-22.191491	-31.172938	-23.771508	-13.477059	5.465944	18.542836	-33.510960	0.045780	4.486440	-0.856321	-0.261657	0.377685	-1.000000	-1.000000	-1.000000	-1.000000	-1.000000	-1.000000	-1.000000	84.344828	0.000000	-1.000000	-1.000000	837266.000000	1769635485.546112
15900.210000	19312.020000	25636.635000	38224.305000	11936.745000	-3472.425000	-10808.685000	-615.060000	-15.173130	-17.811294	-16.896973	-18.354364	-14.519367	-10.868247	7.227611	0.928650	-4.974760	-0.427280	-1.159760	-0.869260	-0.257201	0.352843	-1.000000	-1.000000	-1.000000	-1.000000	-1.000000	-1.000000	-1.000000	84.344828	0.000000	-1.000000	-1.000000	837267.000000	1769635485.552559
15916.095000	19358.010000	25693.065000	38288.250000	11994.255000	-3433.635000	-10831.950000	-631.215000	-20.876576	-11.149091	-2.824628	8.858929	4.281041	-4.810792	4.827377	-12.617170	-4.974760	-0.427280	-1.159760	-0.869260	-0.257201	0.352843	-1.000000	-1.000000	-1.000000	-1.000000	-1.000000	-1.000000	-1.000000	84.344828	0.000000	-1.000000	-1.000000	837268.000000	1769635485.552572
15920.685000	19367.820000	25710.660000	38317.995000	12015.630000	-3415.545000	-10813.815000	-622.755000	-14.403695	1.137129	15.213357	37.173419	24.111632	3.481199	-0.786962	-17.086148	-4.974760	-0.427280	-1.159760	-0.869260	-0.257201	0.352843	-1.000000	-1.000000	-1.000000	-1.000000	-1.000000	-1.000000	-1.000000	84.344828	0.000000	-1.000000	-1.000000	837269.000000	1769635485.554021
15913.260000	19369.845000	25709.175000	38306.070000	12003.930000	-3424.680000	-10815.165000	-626.445000	-3.323401	13.457323	27.902555	49.843697	34.098262	10.998075	-5.525245	-14.578745	-4.974760	-0.427280	-1.159760	-0.869260	-0.257201	0.352843	-1.000000	-1.000000	-1.000000	-1.000000	-1.000000	-1.000000	-1.000000	84.344828	0.000000	-1.000000	-1.000000	837270.000000	1769635485.554027
15923.880000	19385.730000	25714.575000	38290.905000	11993.895000	-3429.720000	-10815.975000	-621.360000	3.792276	19.251564	27.555566	38.023196	27.407834	13.593472	-5.990737	-9.109471	-4.974760	-0.427280	-1.159760	-0.869260	-0.257201	0.352843	-1.000000	-1.000000	-1.000000	-1.000000	-1.000000	-1.000000	-1.000000	84.344828	0.000000	-1.000000	-1.000000	837271.000000	1769635485.562243
15909.480000	19354.410000	25681.545000	38265.660000	11981.295000	-3421.305000	-10779.120000	-622.755000	5.743951	16.678526	14.928513	8.369800	7.777735	10.255797	-2.298608	-2.765667	-4.974760	-0.427280	-1.159760	-0.869260	-0.257201	0.352843	-1.000000	-1.000000	-1.000000	-1.000000	-1.000000	-1.000000	-1.000000	84.344828	0.000000	-1.000000	-1.000000	837272.000000	1769635485.562255
15918.390000	19333.305000	25667.505000	38268.720000	11986.200000	-3414.600000	-10771.695000	-621.630000	6.618012	8.118686	-2.672827	-21.935666	-12.822622	4.216844	3.529580	4.124705	-4.974760	-0.427280	-1.159760	-0.869260	-0.257201	0.352843	-1.000000	-1.000000	-1.000000	-1.000000	-1.000000	-1.000000	-1.000000	84.344828	0.000000	-1.000000	-1.000000	837273.000000	1769635485.562268
15949.170000	19357.020000	25690.815000	38271.240000	11996.280000	-3407.670000	-10802.430000	-604.440000	9.205387	-1.806274	-16.599725	-38.211699	-23.745545	-0.813417	7.818563	10.477480	-4.974760	-0.427280	-1.159760	-0.869260	-0.257201	0.352843	-1.000000	-1.000000	-1.000000	-1.000000	-1.000000	-1.000000	-1.000000	84.344828	0.000000	-1.000000	-1.000000	837274.000000	1769635485.562274
15934.095000	19341.585000	25659.450000	38206.170000	11949.705000	-3436.245000	-10799.010000	-607.005000	12.037429	-8.053535	-21.305777	-38.111981	-23.196453	-3.999355	6.410465	13.732280	-4.974760	-0.427280	-1.159760	-0.869260	-0.257201	0.352843	-1.000000	-1.000000	-1.000000	-1.000000	-1.000000	-1.000000	-1.000000	84.344828	0.000000	-1.000000	-1.000000	837275.000000	1769635485.570720
15951.015000	19354.005000	25666.470000	38223.945000	11960.325000	-3445.920000	-10831.140000	-593.865000	11.302339	-9.195840	-17.803931	-29.283101	-17.111635	-7.214050	-0.944449	12.112012	-4.974760	-0.427280	-1.159760	-0.869260	-0.257201	0.352843	-1.000000	-1.000000	-1.000000	-1.000000	-1.000000	-1.000000	-1.000000	84.344828	0.000000	-1.000000	-1.000000	837276.000000	1769635485.570736
15931.755000	19348.020000	25678.980000	38274.570000	11984.265000	-3440.430000	-10828.530000	-603.855000	4.768857	-8.029429	-11.236807	-17.958472	-11.114761	-11.723458	-9.773009	6.281400	3.601360	-0.640920	-5.142620	-0.859007	-0.232116	0.342284	-1.000000	-1.000000	-1.000000	-1.000000	-1.000000	-1.000000	-1.000000	84.344828	0.000000	-1.000000	-1.000000	837277.000000	1769635485.570886
15937.560000	19368.270000	25701.930000	38295.495000	11993.310000	-3436.110000	-10820.970000	-603.135000	-6.212410	-7.105689	-4.957302	-4.549939	-5.827694	-15.299797	-14.358216	-1.748447	3.601360	-0.640920	-5.142620	-0.859007	-0.232116	0.342284	-1.000000	-1.000000	-1.000000	-1.000000	-1.000000	-1.000000	-1.000000	84.344828	0.000000	-1.000000	-1.000000	837278.000000	1769635485.570892
15937.470000	19380.375000	25707.195000	38287.260000	11992.950000	-3430.260000	-10814.175000	-605.790000	-16.823276	-5.776279	1.041285	10.614181	0.482350	-13.755316	-11.451506	-9.536951	3.601360	-0.640920	-5.142620	-0.859007	-0.232116	0.342284	-1.000000	-1.000000	-1.000000	-1.000000	-1.000000	-1.000000	-1.000000	84.344828	0.000000	-1.000000	-1.000000	837279.000000	1769635485.575029
15920.100000	19357.650000	25690.185000	38271.510000	11982.555000	-3436.695000	-10807.470000	-616.950000	-21.357907	-2.554397	7.054161	23.640919	8.025254	-5.495164	-2.502048	-14.297448	3.601360	-0.640920	-5.142620	-0.859007	-0.232116	0.342284	-1.000000	-1.000000	-1.000000	-1.000000	-1.000000	-1.000000	-1.000000	84.344828	0.000000	-1.000000	-1.000000	837280.000000	1769635485.575041
15921.585000	19345.095000	25694.955000	38295.540000	12010.185000	-3420.315000	-10799.190000	-614.880000	-17.118344	2.018793	11.961481	30.140818	15.053817	6.274789	7.183194	-13.979453	3.601360	-0.640920	-5.142620	-0.859007	-0.232116	0.342284	-1.000000	-1.000000	-1.000000	-1.000000	-1.000000	-1.000000	-1.000000	84.344828	0.000000	-1.000000	-1.000000	837281.000000	1769635485.578233
15933.780000	19353.735000	25695.045000	38293.830000	12007.170000	-3433.185000	-10839.060000	-617.715000	-5.947412	6.345754	14.308550	28.448546	19.173443	15.783666	12.021826	-8.628733	3.601360	-0.640920	-5.142620	-0.859007	-0.232116	0.342284	-1.000000	-1.000000	-1.000000	-1.000000	-1.000000	-1.000000	-1.000000	84.344828	0.000000	-1.000000	-1.000000	837282.000000	1769635485.578244
15948.090000	19368.810000	25691.490000	38264.580000	11972.700000	-3450.555000	-10846.485000	-607.455000	6.896676	9.158197	12.773541	18.869998	17.560188	18.274418	9.794747	-0.803162	3.601360	-0.640920	-5.142620	-0.859007	-0.232116	0.342284	-1.000000	-1.000000	-1.000000	-1.000000	-1.000000	-1.000000	-1.000000	84.344828	0.000000	-1.000000	-1.000000	837283.000000	1769635485.595189
15943.140000	19354.050000	25677.450000	38252.025000	11965.545000	-3444.255000	-10814.490000	-600.030000	15.819212	9.356570	6.994246	3.628159	8.953850	13.095727	3.526750	6.162612	3.601360	-0.640920	-5.142620	-0.859007	-0.232116	0.342284	-1.000000	-1.000000	-1.000000	-1.000000	-1.000000	-1.000000	-1.000000	84.344828	0.000000	-1.000000	-1.000000	837284.000000	1769635485.595203
15933.825000	19361.025000	25681.995000	38252.700000	11966.220000	-3445.290000	-10796.400000	-606.510000	17.411529	5.994200	-1.536141	-12.741603	-3.841635	3.987320	-0.475971	10.039729	3.601360	-0.640920	-5.142620	-0.859007	-0.232116	0.342284	-1.000000	-1.000000	-1.000000	-1.000000	-1.000000	-1.000000	-1.000000	84.344828	0.000000	-1.000000	-1.000000	837285.000000	1769635485.595220
15910.965000	19371.780000	25697.745000	38263.095000	11980.800000	-3438.765000	-10810.620000	-625.230000	11.253072	-0.251730	-9.942770	-25.420788	-15.442663	-4.501763	0.740700	9.633480	3.601360	-0.640920	-5.142620	-0.859007	-0.232116	0.342284	-1.000000	-1.000000	-1.000000	-1.000000	-1.000000	-1.000000	-1.000000	84.344828	0.000000	-1.000000	-1.000000	837286.000000	1769635485.595225
15902.280000	19335.870000	25665.840000	38241.135000	11963.880000	-3438.720000	-10784.340000	-620.955000	0.282765	-7.008669	-15.246122	-30.408214	-20.855409	-9.499176	3.843542	5.182222	4.593260	2.716280	0.885080	-0.850645	-0.244628	0.362548	-1.000000	-1.000000	-1.000000	-1.000000	-1.000000	-1.000000	-1.000000	84.344828	0.000000	-1.000000	-1.000000	837287.000000	1769635485.595231
15869.295000	19253.880000	25596.810000	38209.005000	11944.845000	-3430.395000	-10725.615000	-632.205000	-10.355322	-13.202620	-16.737913	-25.575063	-18.070345	-9.793789	5.325506	-0.824814	4.593260	2.716280	0.885080	-0.850645	-0.244628	0.362548	-1.000000	-1.000000	-1.000000	-1.000000	-1.000000	-1.000000	-1.000000	84.344828	0.000000	-1.000000	-1.000000	837288.000000	1769635485.595236
15942.600000	19333.395000	25672.320000	38284.965000	12007.440000	-3405.690000	-10804.995000	-601.155000	-14.700201	-16.877000	-14.202878	-11.459616	-8.220627	-5.677061	4.001658	-4.593510	4.593260	2.716280	0.885080	-0.850645	-0.244628	0.362548	-1.000000	-1.000000	-1.000000	-1.000000	-1.000000	-1.000000	-1.000000	84.344828	0.000000	-1.000000	-1.000000	837289.000000	1769635485.595242
15950.385000	19365.615000	25703.775000	38288.970000	12000.780000	-3426.750000	-10836.810000	-600.345000	-8.525116	-11.735120	-4.690078	8.681827	5.615539	0.537595	-2.337659	-3.542060	4.593260	2.716280	0.885080	-0.850645	-0.244628	0.362548	-1.000000	-1.000000	-1.000000	-1.000000	-1.000000	-1.000000	-1.000000	84.344828	0.000000	-1.000000	-1.000000	837290.000000	1769635485.595247
15934.005000	19351.485000	25682.805000	38264.355000	11979.135000	-3436.290000	-10821.780000	-611.055000	4.556319	3.807362	11.054898	26.838620	17.397040	4.907038	-12.356841	0.853022	4.593260	2.716280	0.885080	-0.850645	-0.244628	0.362548	-1.000000	-1.000000	-1.000000	-1.000000	-1.000000	-1.000000	-1.000000	84.344828	0.000000	-1.000000	-1.000000	837291.000000	1769635485.599829
15939.360000	19355.310000	25689.870000	38274.480000	11990.610000	-3420.045000	-10806.255000	-611.325000	14.226227	19.965334	24.220703	33.757732	21.172944	5.350198	-18.183321	3.922505	4.593260	2.716280	0.885080	-0.850645	-0.244628	0.362548	-1.000000	-1.000000	-1.000000	-1.000000	-1.000000	-1.000000	-1.000000	84.344828	0.000000	-1.000000	-1.000000	837292.000000	1769635485.599840
15915.645000	19327.320000	25663.320000	38247.210000	11964.780000	-3439.845000	-10802.115000	-619.920000	13.780888	25.348532	26.145711	26.508716	15.963126	3.027055	-14.438805	2.694554	4.593260	2.716280	0.885080	-0.850645	-0.244628	0.362548	-1.000000	-1.000000	-1.000000	-1.000000	-1.000000	-1.000000	-1.000000	84.344828	0.000000	-1.000000	-1.000000	837293.000000	1769635485.606212
15882.750000	19294.110000	25625.070000	38204.460000	11921.625000	-3476.205000	-10806.930000	-636.165000	4.390151	16.235480	14.679030	8.097330	3.779307	-1.092624	-3.829281	-1.734789	4.593260	2.716280	0.885080	-0.850645	-0.244628	0.362548	-1.000000	-1.000000	-1.000000	-1.000000	-1.000000	-1.000000	-1.000000	84.344828	0.000000	-1.000000	-1.000000	837294.000000	1769635485.606226
15918.705000	19333.125000	25660.485000	38235.510000	11944.395000	-3482.010000	-10864.620000	-622.350000	-7.363267	-1.886269	-4.886479	-14.320350	-11.364749	-6.705609	6.319255	-5.807550	4.593260	2.716280	0.885080	-0.850645	-0.244628	0.362548	-1.000000	-1.000000	-1.000000	-1.000000	-1.000000	-1.000000	-1.000000	84.344828	0.000000	-1.000000	-1.000000	837295.000000	1769635485.606427
15916.635000	19335.285000	25661.430000	38236.230000	11940.840000	-3493.755000	-10882.170000	-627.075000	-13.162022	-16.424692	-20.413711	-28.984914	-21.449144	-11.353243	8.894503	-6.295564	4.593260	2.716280	0.885080	-0.850645	-0.244628	0.362548	-1.000000	-1.000000	-1.000000	-1.000000	-1.000000	-1.000000	-1.000000	84.344828	0.000000	-1.000000	-1.000000	837296.000000	1769635485.606438
15927.030000	19366.965000	25702.380000	38277.855000	11978.145000	-3473.865000	-10886.445000	-634.635000	-9.408078	-16.949283	-21.147808	-26.811906	-19.492058	-11.382882	2.725344	-3.014956	1.556520	4.593260	0.137340	-0.857847	-0.254577	0.377929	-1.000000	-1.000000	-1.000000	-1.000000	-1.000000	-1.000000	-1.000000	84.344828	0.000000	-1.000000	-1.000000	837297.000000	1769635485.609945
15949.890000	19379.610000	25716.240000	38296.305000	12013.335000	-3415.095000	-10824.345000	-604.710000	-0.442449	-5.182739	-8.165563	-10.367290	-6.567577	-4.696040	-3.728584	1.464994	1.556520	4.593260	0.137340	-0.857847	-0.254577	0.377929	-1.000000	-1.000000	-1.000000	-1.000000	-1.000000	-1.000000	-1.000000	84.344828	0.000000	-1.000000	-1.000000	837298.000000	1769635485.609955
15966.360000	19400.940000	25736.670000	38310.480000	12026.610000	-3400.875000	-10792.620000	-585.315000	6.883874	7.698558	7.320142	8.951104	9.711294	7.952621	0.363534	5.251899	1.556520	4.593260	0.137340	-0.857847	-0.254577	0.377929	-1.000000	-1.000000	-1.000000	-1.000000	-1.000000	-1.000000	-1.000000	84.344828	0.000000	-1.000000	-1.000000	837299.000000	1769635485.613923
15971.130000	19409.940000	25743.240000	38318.715000	12036.960000	-3386.520000	-10793.070000	-587.340000	9.386791	12.895350	15.519773	21.148463	21.384833	21.332314	14.513545	7.871398	1.556520	4.593260	0.137340	-0.857847	-0.254577	0.377929	-1.000000	-1.000000	-1.000000	-1.000000	-1.000000	-1.000000	-1.000000	84.344828	0.000000	-1.000000	-1.000000	837300.000000	1769635485.613934
15964.830000	19387.260000	25715.160000	38303.010000	12027.510000	-3373.065000	-10769.490000	-593.910000	7.386637	9.212817	13.774900	22.265809	23.458364	27.418368	26.191299	8.114501	1.556520	4.593260	0.137340	-0.857847	-0.254577	0.377929	-1.000000	-1.000000	-1.000000	-1.000000	-1.000000	-1.000000	-1.000000	84.344828	0.000000	-1.000000	-1.000000	837301.000000	1769635485.617934
15959.835000	19381.815000	25715.070000	38303.955000	12030.480000	-3366.045000	-10791.810000	-620.235000	2.699998	0.187190	4.568445	13.439471	15.313422	21.959003	24.351296	4.550457	1.556520	4.593260	0.137340	-0.857847	-0.254577	0.377929	-1.000000	-1.000000	-1.000000	-1.000000	-1.000000	-1.000000	-1.000000	84.344828	0.000000	-1.000000	-1.000000	837302.000000	1769635485.617945
15948.540000	19392.165000	25727.535000	38297.205000	12010.095000	-3412.125000	-10843.965000	-637.290000	-2.237622	-8.793928	-6.340975	-0.184242	1.128662	7.262205	8.129898	-2.266952	1.556520	4.593260	0.137340	-0.857847	-0.254577	0.377929	-1.000000	-1.000000	-1.000000	-1.000000	-1.000000	-1.000000	-1.000000	84.344828	0.000000	-1.000000	-1.000000	837303.000000	1769635485.622034
15916.185000	19343.295000	25683.390000	38249.505000	11960.055000	-3459.150000	-10834.740000	-627.300000	-6.475614	-13.959011	-13.705490	-12.984182	-13.674138	-11.534762	-14.071988	-9.357368	1.556520	4.593260	0.137340	-0.857847	-0.254577	0.377929	-1.000000	-1.000000	-1.000000	-1.000000	-1.000000	-1.000000	-1.000000	84.344828	0.000000	-1.000000	-1.000000	837304.000000	1769635485.622045
15929.145000	19344.375000	25683.885000	38252.655000	11961.090000	-3457.395000	-10819.125000	-605.655000	-10.081714	-15.026604	-16.194382	-21.689636	-25.032665	-28.366749	-29.779803	-12.307090	1.556520	4.593260	0.137340	-0.857847	-0.254577	0.377929	-1.000000	-1.000000	-1.000000	-1.000000	-1.000000	-1.000000	-1.000000	84.344828	0.000000	-1.000000	-1.000000	837305.000000	1769635485.626036
15931.935000	19353.690000	25683.705000	38252.700000	11959.560000	-3456.765000	-10815.480000	-608.580000	-11.507284	-12.584376	-14.618686	-24.203935	-29.391430	-36.472651	-30.867547	-8.578696	1.556520	4.593260	0.137340	-0.857847	-0.254577	0.377929	-1.000000	-1.000000	-1.000000	-1.000000	-1.000000	-1.000000	-1.000000	84.344828	0.000000	-1.000000	-1.000000	837306.000000	1769635485.626047
15872.355000	19310.895000	25642.530000	38206.935000	11924.055000	-3461.355000	-10760.220000	-634.725000	-10.111402	-7.634481	-10.581541	-20.133470	-25.267187	-32.313920	-18.545260	-1.370650	-10.468360	1.815940	0.564620	-0.866392	-0.247619	0.377868	-1.000000	-1.000000	-1.000000	-1.000000	-1.000000	-1.000000	-1.000000	84.344828	0.000000	-1.000000	-1.000000	837307.000000	1769635485.630006
15936.885000	19385.595000	25712.190000	38257.785000	11963.970000	-3427.605000	-10785.285000	-588.915000	-7.057610	-1.528238	-5.059736	-10.807748	-13.910838	-17.425658	-0.791210	3.794833	-10.468360	1.815940	0.564620	-0.866392	-0.247619	0.377868	-1.000000	-1.000000	-1.000000	-1.000000	-1.000000	-1.000000	-1.000000	84.344828	0.000000	-1.000000	-1.000000	837308.000000	1769635485.630014
15954.255000	19363.230000	25713.450000	38291.985000	11995.695000	-3402.180000	-10788.930000	-579.105000	-1.031728	6.138317	3.555837	3.277569	3.018419	3.620759	12.609837	6.021843	-10.468360	1.815940	0.564620	-0.866392	-0.247619	0.377868	-1.000000	-1.000000	-1.000000	-1.000000	-1.000000	-1.000000	-1.000000	84.344828	0.000000	-1.000000	-1.000000	837309.000000	1769635485.635274
15922.215000	19302.570000	25662.330000	38273.805000	11989.530000	-3434.445000	-10798.740000	-607.455000	8.683999	13.911219	14.530140	19.840345	21.814090	23.246286	15.545433	7.191075	-10.468360	1.815940	0.564620	-0.866392	-0.247619	0.377868	-1.000000	-1.000000	-1.000000	-1.000000	-1.000000	-1.000000	-1.000000	84.344828	0.000000	-1.000000	-1.000000	837310.000000	1769635485.635286
15907.185000	19315.305000	25664.760000	38271.825000	11999.160000	-3435.390000	-10805.175000	-621.990000	17.082612	16.732299	21.387951	31.503157	35.009740	32.916674	9.747773	7.017128	-10.468360	1.815940	0.564620	-0.866392	-0.247619	0.377868	-1.000000	-1.000000	-1.000000	-1.000000	-1.000000	-1.000000	-1.000000	84.344828	0.000000	-1.000000	-1.000000	837311.000000	1769635485.638070
15950.160000	19360.890000	25709.040000	38301.975000	12024.945000	-3393.360000	-10789.515000	-596.340000	19.040445	13.394979	19.733569	31.782151	36.740126	30.590694	2.802048	4.813551	-10.468360	1.815940	0.564620	-0.866392	-0.247619	0.377868	-1.000000	-1.000000	-1.000000	-1.000000	-1.000000	-1.000000	-1.000000	84.344828	0.000000	-1.000000	-1.000000	837312.000000	1769635485.638080
15991.470000	19408.770000	25761.870000	38347.830000	12057.570000	-3386.970000	-10828.620000	-591.525000	15.794544	9.510852	13.549539	22.351989	27.984113	22.009691	0.022453	1.681959	-10.468360	1.815940	0.564620	-0.866392	-0.247619	0.377868	-1.000000	-1.000000	-1.000000	-1.000000	-1.000000	-1.000000	-1.000000	84.344828	0.000000	-1.000000	-1.000000	837313.000000	1769635485.645542
15945.615000	19363.815000	25705.620000	38284.155000	11989.485000	-3468.960000	-10933.470000	-633.600000	10.321432	8.693018	7.970307	8.650035	12.584963	10.924484	-1.694347	-1.865341	-10.468360	1.815940	0.564620	-0.866392	-0.247619	0.377868	-1.000000	-1.000000	-1.000000	-1.000000	-1.000000	-1.000000	-1.000000	84.344828	0.000000	-1.000000	-1.000000	837314.000000	1769635485.645553
15881.805000	19294.155000	25624.935000	38187.180000	11891.610000	-3561.705000	-10963.935000	-662.670000	1.145983	5.745779	0.477675	-8.359831	-8.573627	-5.574850	-8.650906	-6.813586	-10.468360	1.815940	0.564620	-0.866392	-0.247619	0.377868	-1.000000	-1.000000	-1.000000	-1.000000	-1.000000	-1.000000	-1.000000	84.344828	0.000000	-1.000000	-1.000000	837315.000000	1769635485.646056
15856.650000	19270.620000	25601.805000	38156.625000	11863.170000	-3563.055000	-10889.145000	-665.640000	-12.892561	-5.491972	-13.057132	-28.146572	-32.900211	-27.285197	-18.522204	-12.319887	-10.468360	1.815940	0.564620	-0.866392	-0.247619	0.377868	-1.000000	-1.000000	-1.000000	-1.000000	-1.000000	-1.000000	-1.000000	84.344828	0.000000	-1.000000	-1.000000	837316.000000	1769635485.646070
15886.845000	19306.575000	25655.535000	38227.005000	11931.255000	-3508.290000	-10882.530000	-645.750000	-26.503920	-21.408410	-27.851415	-42.562254	-49.589804	-43.113861	-19.651663	-14.732667	-0.991900	0.076300	-3.540320	-0.864683	-0.256103	0.371093	-1.000000	-1.000000	-1.000000	-1.000000	-1.000000	-1.000000	-1.000000	84.344828	0.000000	-1.000000	-1.000000	837317.000000	1769635485.651866
15938.460000	19342.485000	25701.255000	38294.685000	12010.860000	-3422.565000	-10795.140000	-601.965000	-30.218953	-29.507104	-31.650168	-39.475864	-45.167941	-38.809501	-4.573800	-10.204371	-0.991900	0.076300	-3.540320	-0.864683	-0.256103	0.371093	-1.000000	-1.000000	-1.000000	-1.000000	-1.000000	-1.000000	-1.000000	84.344828	0.000000	-1.000000	-1.000000	837318.000000	1769635485.651883
15953.670000	19346.580000	25696.305000	38285.505000	12017.115000	-3363.300000	-10719.675000	-593.370000	-17.629325	-19.837813	-16.783054	-15.227227	-16.777454	-10.471990	21.956591	2.448599	-0.991900	0.076300	-3.540320	-0.864683	-0.256103	0.371093	-1.000000	-1.000000	-1.000000	-1.000000	-1.000000	-1.000000	-1.000000	84.344828	0.000000	-1.000000	-1.000000	837319.000000	1769635485.654284
15964.335000	19375.380000	25720.245000	38300.940000	12031.200000	-3341.880000	-10716.930000	-583.740000	6.760079	3.400689	9.596554	18.172036	21.343380	29.106507	46.461453	18.405100	-0.991900	0.076300	-3.540320	-0.864683	-0.256103	0.371093	-1.000000	-1.000000	-1.000000	-1.000000	-1.000000	-1.000000	-1.000000	84.344828	0.000000	-1.000000	-1.000000	837320.000000	1769635485.654296
15974.460000	19393.920000	25736.085000	38298.060000	12019.320000	-3364.875000	-10735.065000	-558.945000	28.218034	24.672522	30.529581	41.240362	47.297247	56.488151	53.186935	28.103330	-0.991900	0.076300	-3.540320	-0.864683	-0.256103	0.371093	-1.000000	-1.000000	-1.000000	-1.000000	-1.000000	-1.000000	-1.000000	84.344828	0.000000	-1.000000	-1.000000	837321.000000	1769635485.661318
15957.225000	19357.695000	25712.325000	38286.630000	12006.315000	-3389.355000	-10745.550000	-560.070000	33.417499	30.632229	33.602569	41.926066	47.726971	54.303963	34.989080	25.181052	-0.991900	0.076300	-3.540320	-0.864683	-0.256103	0.371093	-1.000000	-1.000000	-1.000000	-1.000000	-1.000000	-1.000000	-1.000000	84.344828	0.000000	-1.000000	-1.000000	837322.000000	1769635485.661334
15945.615000	19317.510000	25681.815000	38290.050000	12015.810000	-3387.690000	-10758.330000	-580.635000	20.988535	18.885943	19.105680	23.554857	26.592371	25.436214	1.103115	11.429385	-0.991900	0.076300	-3.540320	-0.864683	-0.256103	0.371093	-1.000000	-1.000000	-1.000000	-1.000000	-1.000000	-1.000000	-1.000000	84.344828	0.000000	-1.000000	-1.000000	837323.000000	1769635485.663303
15928.245000	19318.770000	25674.030000	38269.755000	11993.085000	-3410.775000	-10779.345000	-605.790000	1.218887	-1.411691	-1.746586	0.890672	0.427776	-10.697649	-31.694370	-6.193600	-0.991900	0.076300	-3.540320	-0.864683	-0.256103	0.371093	-1.000000	-1.000000	-1.000000	-1.000000	-1.000000	-1.000000	-1.000000	84.344828	0.000000	-1.000000	-1.000000	837324.000000	1769635485.663310
15906.465000	19294.830000	25650.360000	38238.795000	11961.405000	-3441.060000	-10790.190000	-612.540000	-14.496577	-17.639144	-17.162189	-14.331668	-17.545449	-36.520677	-52.424306	-20.944820	-0.991900	0.076300	-3.540320	-0.864683	-0.256103	0.371093	-1.000000	-1.000000	-1.000000	-1.000000	-1.000000	-1.000000	-1.000000	84.344828	0.000000	-1.000000	-1.000000	837325.000000	1769635485.665971
15936.255000	19333.215000	25688.250000	38268.090000	11988.630000	-3419.820000	-10788.975000	-594.720000	-21.925443	-23.439570	-23.252481	-21.818545	-26.310725	-46.959633	-57.180807	-28.501605	-0.991900	0.076300	-3.540320	-0.864683	-0.256103	0.371093	-1.000000	-1.000000	-1.000000	-1.000000	-1.000000	-1.000000	-1.000000	84.344828	0.000000	-1.000000	-1.000000	837326.000000	1769635485.665991
15919.380000	19338.120000	25688.880000	38265.840000	11984.355000	-3419.910000	-10790.460000	-614.385000	-21.787974	-18.675540	-20.911691	-24.820818	-29.322767	-44.207897	-46.595446	-27.016935	13.657700	-0.839300	-7.156940	-0.869444	-0.250671	0.352660	-1.000000	-1.000000	-1.000000	-1.000000	-1.000000	-1.000000	-1.000000	84.344828	0.000000	-1.000000	-1.000000	837327.000000	1769635485.676722
15899.805000	19301.760000	25652.520000	38241.630000	11961.360000	-3439.305000	-10797.885000	-624.240000	-16.157215	-7.233175	-12.372176	-22.983177	-26.978039	-31.728633	-25.761952	-17.745643	13.657700	-0.839300	-7.156940	-0.869444	-0.250671	0.352660	-1.000000	-1.000000	-1.000000	-1.000000	-1.000000	-1.000000	-1.000000	84.344828	0.000000	-1.000000	-1.000000	837328.000000	1769635485.676733
15902.820000	19282.185000	25637.535000	38229.345000	11953.620000	-3440.340000	-10782.855000	-607.860000	-7.972931	2.896837	-2.883522	-15.752264	-18.674633	-13.559303	-1.011036	-4.554950	13.657700	-0.839300	-7.156940	-0.869444	-0.250671	0.352660	-1.000000	-1.000000	-1.000000	-1.000000	-1.000000	-1.000000	-1.000000	84.344828	0.000000	-1.000000	-1.000000	837329.000000	1769635485.676745
15908.445000	19301.445000	25657.020000	38232.945000	11955.150000	-3438.180000	-10780.380000	-601.425000	0.382149	6.071311	2.892081	-5.066240	-5.545171	6.587875	22.846892	8.169228	13.657700	-0.839300	-7.156940	-0.869444	-0.250671	0.352660	-1.000000	-1.000000	-1.000000	-1.000000	-1.000000	-1.000000	-1.000000	84.344828	0.000000	-1.000000	-1.000000	837330.000000	1769635485.676750
15920.370000	19310.535000	25665.930000	38240.775000	11958.570000	-3441.465000	-10791.495000	-599.220000	8.303275	5.367204	6.283219	6.716813	9.683906	25.338196	41.047290	17.290296	13.657700	-0.839300	-7.156940	-0.869444	-0.250671	0.352660	-1.000000	-1.000000	-1.000000	-1.000000	-1.000000	-1.000000	-1.000000	84.344828	0.000000	-1.000000	-1.000000	837331.000000	1769635485.677948
15933.420000	19302.840000	25660.710000	38243.430000	11962.980000	-3440.295000	-10800.090000	-596.880000	15.999545	7.342992	11.332832	17.794441	23.260266	38.326164	48.127131	21.701986	13.657700	-0.839300	-7.156940	-0.869444	-0.250671	0.352660	-1.000000	-1.000000	-1.000000	-1.000000	-1.000000	-1.000000	-1.000000	84.344828	0.000000	-1.000000	-1.000000	837332.000000	1769635485.677958
15950.970000	19314.855000	25669.845000	38252.160000	11970.405000	-3432.960000	-10789.875000	-584.325000	22.411415	12.924851	17.870542	25.875024	31.397047	41.408148	40.890181	21.607429	13.657700	-0.839300	-7.156940	-0.869444	-0.250671	0.352660	-1.000000	-1.000000	-1.000000	-1.000000	-1.000000	-1.000000	-1.000000	84.344828	0.000000	-1.000000	-1.000000	837333.000000	1769635485.681900
15926.040000	19309.185000	25667.235000	38247.930000	11969.145000	-3430.305000	-10779.525000	-604.260000	23.718947	16.724290	20.736486	27.365646	30.833928	32.996215	22.093790	16.695614	13.657700	-0.839300	-7.156940	-0.869444	-0.250671	0.352660	-1.000000	-1.000000	-1.000000	-1.000000	-1.000000	-1.000000	-1.000000	84.344828	0.000000	-1.000000	-1.000000	837334.000000	1769635485.681911
15908.985000	19329.705000	25693.560000	38271.645000	11988.405000	-3422.520000	-10805.130000	-635.535000	15.294123	13.314207	15.237585	19.243324	19.893564	14.780447	-1.002642	5.994054	13.657700	-0.839300	-7.156940	-0.869444	-0.250671	0.352660	-1.000000	-1.000000	-1.000000	-1.000000	-1.000000	-1.000000	-1.000000	84.344828	0.000000	-1.000000	-1.000000	837335.000000	1769635485.692800
15913.485000	19331.100000	25692.480000	38269.350000	11986.155000	-3418.830000	-10798.380000	-632.025000	-1.760012	3.050040	2.857276	3.720664	1.845205	-7.560193	-21.178906	-8.392253	13.657700	-0.839300	-7.156940	-0.869444	-0.250671	0.352660	-1.000000	-1.000000	-1.000000	-1.000000	-1.000000	-1.000000	-1.000000	84.344828	0.000000	-1.000000	-1.000000	837336.000000	1769635485.692810
15917.310000	19323.720000	25680.735000	38253.330000	11969.190000	-3435.660000	-10803.465000	-624.555000	-18.426808	-8.233100	-9.718551	-11.833131	-15.345117	-25.519044	-32.480128	-19.610850	21.638680	8.377740	-6.088740	-0.874571	-0.226501	0.362914	-1.000000	-1.000000	-1.000000	-1.000000	-1.000000	-1.000000	-1.000000	84.344828	0.000000	-1.000000	-1.000000	837337.000000	1769635485.692820
15909.345000	19323.540000	25686.045000	38260.530000	11976.975000	-3434.805000	-10810.620000	-625.275000	-25.790254	-15.058085	-17.015812	-20.900189	-24.685488	-32.559380	-31.623761	-21.871958	21.638680	8.377740	-6.088740	-0.874571	-0.226501	0.362914	-1.000000	-1.000000	-1.000000	-1.000000	-1.000000	-1.000000	-1.000000	84.344828	0.000000	-1.000000	-1.000000	837338.000000	1769635485.692825
15910.245000	19321.560000	25686.855000	38267.550000	11989.260000	-3423.915000	-10813.770000	-621.630000	-22.049449	-15.945059	-17.782467	-21.153850	-23.600110	-27.195027	-20.280742	-15.314291	21.638680	8.377740	-6.088740	-0.874571	-0.226501	0.362914	-1.000000	-1.000000	-1.000000	-1.000000	-1.000000	-1.000000	-1.000000	84.344828	0.000000	-1.000000	-1.000000	837339.000000	1769635485.693958
15908.715000	19317.555000	25679.520000	38256.975000	11976.705000	-3432.915000	-10802.790000	-624.555000	-11.108050	-12.040178	-13.324508	-14.196877	-14.131813	-12.810022	-3.565964	-4.051389	21.638680	8.377740	-6.088740	-0.874571	-0.226501	0.362914	-1.000000	-1.000000	-1.000000	-1.000000	-1.000000	-1.000000	-1.000000	84.344828	0.000000	-1.000000	-1.000000	837340.000000	1769635485.693992
15905.385000	19312.020000	25671.150000	38244.510000	11962.485000	-3437.955000	-10773.945000	-624.555000	1.292935	-5.325582	-5.989379	-4.466567	-2.069897	3.506384	12.636441	6.918627	21.638680	8.377740	-6.088740	-0.874571	-0.226501	0.362914	-1.000000	-1.000000	-1.000000	-1.000000	-1.000000	-1.000000	-1.000000	84.344828	0.000000	-1.000000	-1.000000	837341.000000	1769635485.698094
15896.205000	19296.405000	25656.030000	38230.020000	11951.010000	-3443.940000	-10779.525000	-631.845000	10.071501	1.289427	1.012853	3.116574	6.334081	14.275646	22.723567	13.299734	21.638680	8.377740	-6.088740	-0.874571	-0.226501	0.362914	-1.000000	-1.000000	-1.000000	-1.000000	-1.000000	-1.000000	-1.000000	84.344828	0.000000	-1.000000	-1.000000	837342.000000	1769635485.698107
15902.910000	19302.570000	25665.660000	38240.955000	11960.640000	-3443.850000	-10813.095000	-634.095000	12.976697	4.800806	4.676453	5.744897	8.085893	15.655996	22.366336	13.372498	21.638680	8.377740	-6.088740	-0.874571	-0.226501	0.362914	-1.000000	-1.000000	-1.000000	-1.000000	-1.000000	-1.000000	-1.000000	84.344828	0.000000	-1.000000	-1.000000	837343.000000	1769635485.702032
15929.820000	19328.805000	25691.310000	38265.030000	11982.645000	-3430.620000	-10826.325000	-618.345000	11.622120	4.761755	4.711548	4.342939	4.859174	9.158480	11.234064	9.201854	21.638680	8.377740	-6.088740	-0.874571	-0.226501	0.362914	-1.000000	-1.000000	-1.000000	-1.000000	-1.000000	-1.000000	-1.000000	84.344828	0.000000	-1.000000	-1.000000	837344.000000	1769635485.702042
15926.670000	19325.205000	25688.565000	38263.995000	11982.330000	-3427.785000	-10808.775000	-616.590000	9.054322	3.714854	3.915521	2.687781	1.385229	0.462338	-4.629895	4.425534	21.638680	8.377740	-6.088740	-0.874571	-0.226501	0.362914	-1.000000	-1.000000	-1.000000	-1.000000	-1.000000	-1.000000	-1.000000	84.344828	0.000000	-1.000000	-1.000000	837345.000000	1769635485.707575
15924.330000	19322.865000	25689.465000	38267.955000	11986.695000	-3425.805000	-10809.900000	-619.155000	6.110799	3.801659	4.590269	3.500950	1.183742	-4.606285	-15.873591	0.493555	21.638680	8.377740	-6.088740	-0.874571	-0.226501	0.362914	-1.000000	-1.000000	-1.000000	-1.000000	-1.000000	-1.000000	-1.000000	84.344828	0.000000	-1.000000	-1.000000	837346.000000	1769635485.707583
15926.760000	19325.925000	25689.060000	38264.400000	11980.665000	-3436.065000	-10825.740000	-622.845000	1.994606	4.486068	5.853507	5.735095	3.523099	-4.284275	-17.041853	-3.245963	6.302380	10.956680	-8.194620	-0.849241	-0.214538	0.372191	-1.000000	-1.000000	-1.000000	-1.000000	-1.000000	-1.000000	-1.000000	84.344828	0.000000	-1.000000	-1.000000	837347.000000	1769635485.709946
15910.335000	19311.480000	25673.850000	38244.600000	11957.310000	-3465.180000	-10850.490000	-641.835000	-3.097607	4.100773	5.358047	6.129012	4.750897	-1.458929	-10.113091	-6.948200	6.302380	10.956680	-8.194620	-0.849241	-0.214538	0.372191	-1.000000	-1.000000	-1.000000	-1.000000	-1.000000	-1.000000	-1.000000	84.344828	0.000000	-1.000000	-1.000000	837348.000000	1769635485.709957
15907.230000	19307.835000	25671.645000	38244.780000	11961.090000	-3455.820000	-10835.100000	-641.745000	-7.879401	1.933216	2.327437	3.012718	2.598406	0.227954	-1.186277	-9.556139	6.302380	10.956680	-8.194620	-0.849241	-0.214538	0.372191	-1.000000	-1.000000	-1.000000	-1.000000	-1.000000	-1.000000	-1.000000	84.344828	0.000000	-1.000000	-1.000000	837349.000000	1769635485.723456
15915.105000	19310.040000	25673.805000	38250.630000	11976.255000	-3414.465000	-10770.165000	-621.360000	-10.477751	-1.088023	-1.547260	-1.588031	-0.985751	0.845490	5.760482	-9.253322	6.302380	10.956680	-8.194620	-0.849241	-0.214538	0.372191	-1.000000	-1.000000	-1.000000	-1.000000	-1.000000	-1.000000	-1.000000	84.344828	0.000000	-1.000000	-1.000000	837350.000000	1769635485.723467
15918.255000	19313.235000	25678.485000	38252.385000	11974.455000	-3414.690000	-10764.270000	-612.315000	-9.099581	-3.133707	-3.858596	-4.323465	-2.597730	2.744325	11.019434	-4.660705	6.302380	10.956680	-8.194620	-0.849241	-0.214538	0.372191	-1.000000	-1.000000	-1.000000	-1.000000	-1.000000	-1.000000	-1.000000	84.344828	0.000000	-1.000000	-1.000000	837351.000000	1769635485.723480
15916.905000	19315.080000	25681.545000	38253.555000	11974.545000	-3420.765000	-10779.795000	-615.420000	-4.162769	-3.506693	-4.055551	-4.467983	-2.068124	5.229669	14.753386	2.866185	6.302380	10.956680	-8.194620	-0.849241	-0.214538	0.372191	-1.000000	-1.000000	-1.000000	-1.000000	-1.000000	-1.000000	-1.000000	84.344828	0.000000	-1.000000	-1.000000	837352.000000	1769635485.723485
15914.160000	19310.895000	25678.350000	38254.950000	11978.460000	-3419.865000	-10781.955000	-619.515000	1.189901	-3.301167	-3.556344	-3.769455	-1.723890	4.848912	14.178783	8.948648	6.302380	10.956680	-8.194620	-0.849241	-0.214538	0.372191	-1.000000	-1.000000	-1.000000	-1.000000	-1.000000	-1.000000	-1.000000	84.344828	0.000000	-1.000000	-1.000000	837353.000000	1769635485.723491
15934.635000	19327.635000	25692.030000	38266.830000	11987.505000	-3416.085000	-10798.875000	-609.840000	4.305949	-3.048858	-3.055949	-3.037667	-2.225231	0.638717	6.944498	9.799877	6.302380	10.956680	-8.194620	-0.849241	-0.214538	0.372191	-1.000000	-1.000000	-1.000000	-1.000000	-1.000000	-1.000000	-1.000000	84.344828	0.000000	-1.000000	-1.000000	837354.000000	1769635485.723496
15941.745000	19324.530000	25687.395000	38260.035000	11981.295000	-3418.110000	-10792.350000	-604.170000	5.437478	-1.731110	-1.743930	-1.556462	-2.255050	-4.545985	-4.834399	5.714176	6.302380	10.956680	-8.194620	-0.849241	-0.214538	0.372191	-1.000000	-1.000000	-1.000000	-1.000000	-1.000000	-1.000000	-1.000000	84.344828	0.000000	-1.000000	-1.000000	837355.000000	1769635485.738772
15922.080000	19292.535000	25654.950000	38230.065000	11952.270000	-3447.360000	-10791.135000	-616.860000	5.527137	0.460693	0.128256	0.323904	-1.460076	-7.532019	-14.633461	-0.008320	6.302380	10.956680	-8.194620	-0.849241	-0.214538	0.372191	-1.000000	-1.000000	-1.000000	-1.000000	-1.000000	-1.000000	-1.000000	84.344828	0.000000	-1.000000	-1.000000	837356.000000	1769635485.738788
15921.945000	19304.415000	25671.555000	38248.785000	11968.020000	-3440.340000	-10816.110000	-628.965000	4.245817	1.792314	1.235848	1.456683	-0.503431	-7.169392	-16.947710	-4.449993	-13.016780	10.132640	-7.538440	-0.863157	-0.214355	0.371215	-1.000000	-1.000000	-1.000000	-1.000000	-1.000000	-1.000000	-1.000000	84.344828	0.000000	-1.000000	-1.000000	837357.000000	1769635485.738804
15936.795000	19334.745000	25702.605000	38278.350000	11996.865000	-3405.195000	-10799.595000	-625.365000	1.743464	2.405797	2.201994	2.585291	1.135679	-3.683586	-12.643798	-6.511916	-13.016780	10.132640	-7.538440	-0.863157	-0.214355	0.371215	-1.000000	-1.000000	-1.000000	-1.000000	-1.000000	-1.000000	-1.000000	84.344828	0.000000	-1.000000	-1.000000	837358.000000	1769635485.738810
15932.745000	19338.885000	25706.520000	38279.610000	11999.970000	-3397.635000	-10769.580000	-619.065000	-0.664175	3.963879	4.575066	4.954086	4.053484	1.542103	-6.315001	-6.327096	-13.016780	10.132640	-7.538440	-0.863157	-0.214355	0.371215	-1.000000	-1.000000	-1.000000	-1.000000	-1.000000	-1.000000	-1.000000	84.344828	0.000000	-1.000000	-1.000000	837359.000000	1769635485.738816
15886.980000	19306.035000	25679.790000	38257.020000	11983.680000	-3409.065000	-10754.370000	-637.650000	-2.824585	5.433548	6.708692	6.714282	6.293098	5.674297	-0.035368	-4.603123	-13.016780	10.132640	-7.538440	-0.863157	-0.214355	0.371215	-1.000000	-1.000000	-1.000000	-1.000000	-1.000000	-1.000000	-1.000000	84.344828	0.000000	-1.000000	-1.000000	837360.000000	1769635485.738822
15895.395000	19307.925000	25682.085000	38260.755000	11985.480000	-3420.810000	-10792.260000	-634.815000	-5.742223	3.474887	4.857382	4.494774	4.876626	6.047715	6.078109	-2.294886	-13.016780	10.132640	-7.538440	-0.863157	-0.214355	0.371215	-1.000000	-1.000000	-1.000000	-1.000000	-1.000000	-1.000000	-1.000000	84.344828	0.000000	-1.000000	-1.000000	837361.000000	1769635485.741456
15899.445000	19286.010000	25655.310000	38234.025000	11961.630000	-3430.575000	-10782.135000	-623.340000	-8.296508	-2.492521	-1.610867	-1.990611	-0.592535	2.306692	10.030834	0.170531	-13.016780	10.132640	-7.538440	-0.863157	-0.214355	0.371215	-1.000000	-1.000000	-1.000000	-1.000000	-1.000000	-1.000000	-1.000000	84.344828	0.000000	-1.000000	-1.000000	837362.000000	1769635485.741469
15912.630000	19294.515000	25659.450000	38233.845000	11959.740000	-3438.855000	-10806.750000	-635.355000	-7.643406	-9.032371	-9.207935	-9.439463	-7.434705	-3.265330	9.655277	2.606160	-13.016780	10.132640	-7.538440	-0.863157	-0.214355	0.371215	-1.000000	-1.000000	-1.000000	-1.000000	-1.000000	-1.000000	-1.000000	84.344828	0.000000	-1.000000	-1.000000	837363.000000	1769635485.742170
15965.370000	19360.620000	25726.680000	38297.520000	12008.385000	-3424.635000	-10856.565000	-624.555000	-2.149984	-10.697355	-12.126229	-12.394987	-10.803297	-6.829226	4.717121	4.256885	-13.016780	10.132640	-7.538440	-0.863157	-0.214355	0.371215	-1.000000	-1.000000	-1.000000	-1.000000	-1.000000	-1.000000	-1.000000	84.344828	0.000000	-1.000000	-1.000000	837364.000000	1769635485.742180
15954.390000	19345.950000	25713.585000	38287.125000	12002.220000	-3420.900000	-10827.360000	-613.665000	7.344238	-3.641544	-5.786763	-6.342291	-6.358314	-5.007893	-2.670676	5.132312	-13.016780	10.132640	-7.538440	-0.863157	-0.214355	0.371215	-1.000000	-1.000000	-1.000000	-1.000000	-1.000000	-1.000000	-1.000000	84.344828	0.000000	-1.000000	-1.000000	837365.000000	1769635485.747958
15919.560000	19310.760000	25682.895000	38261.745000	11982.285000	-3424.095000	-10773.855000	-601.020000	15.518419	7.765678	5.962765	5.259367	3.470148	1.454637	-6.706140	6.186837	-13.016780	10.132640	-7.538440	-0.863157	-0.214355	0.371215	-1.000000	-1.000000	-1.000000	-1.000000	-1.000000	-1.000000	-1.000000	84.344828	0.000000	-1.000000	-1.000000	837366.000000	1769635485.747969
15904.665000	19310.850000	25684.335000	38262.060000	11982.330000	-3420.045000	-10772.145000	-613.575000	14.924097	13.004569	12.487577	12.236235	10.003309	6.921944	-3.205152	6.717696	-17.533740	6.851740	-5.615680	-0.872129	-0.231628	0.366759	-1.000000	-1.000000	-1.000000	-1.000000	-1.000000	-1.000000	-1.000000	84.344828	0.000000	-1.000000	-1.000000	837367.000000	1769635485.755080
15924.780000	19333.305000	25704.225000	38280.420000	12000.285000	-3406.455000	-10803.690000	-618.570000	4.863045	8.026328	9.001195	9.638894	8.459217	6.972097	3.418723	4.445606	-17.533740	6.851740	-5.615680	-0.872129	-0.231628	0.366759	-1.000000	-1.000000	-1.000000	-1.000000	-1.000000	-1.000000	-1.000000	84.344828	0.000000	-1.000000	-1.000000	837368.000000	1769635485.755090
15914.115000	19316.835000	25687.845000	38267.280000	11989.305000	-3419.235000	-10810.530000	-624.915000	-6.658251	-1.125593	0.546213	1.820237	2.146276	2.914720	5.542334	-0.902675	-17.533740	6.851740	-5.615680	-0.872129	-0.231628	0.366759	-1.000000	-1.000000	-1.000000	-1.000000	-1.000000	-1.000000	-1.000000	84.344828	0.000000	-1.000000	-1.000000	837369.000000	1769635485.755300
15901.380000	19301.130000	25673.670000	38255.985000	11979.180000	-3430.215000	-10805.040000	-629.505000	-12.313188	-7.477241	-6.253367	-5.007663	-3.643003	-1.549301	2.066106	-6.777284	-17.533740	6.851740	-5.615680	-0.872129	-0.231628	0.366759	-1.000000	-1.000000	-1.000000	-1.000000	-1.000000	-1.000000	-1.000000	84.344828	0.000000	-1.000000	-1.000000	837370.000000	1769635485.755312
15916.410000	19309.500000	25677.810000	38258.820000	11980.890000	-3427.110000	-10803.420000	-619.470000	-11.447115	-8.786831	-8.495649	-7.776742	-6.161219	-4.131364	-2.224285	-10.270156	-17.533740	6.851740	-5.615680	-0.872129	-0.231628	0.366759	-1.000000	-1.000000	-1.000000	-1.000000	-1.000000	-1.000000	-1.000000	84.344828	0.000000	-1.000000	-1.000000	837371.000000	1769635485.758346
15936.165000	19321.965000	25684.200000	38261.295000	11983.320000	-3421.080000	-10795.635000	-608.850000	-6.802358	-6.041239	-6.449937	-6.388586	-5.144620	-3.997154	-2.958372	-9.465126	-17.533740	6.851740	-5.615680	-0.872129	-0.231628	0.366759	-1.000000	-1.000000	-1.000000	-1.000000	-1.000000	-1.000000	-1.000000	84.344828	0.000000	-1.000000	-1.000000	837372.000000	1769635485.758355
15936.705000	19342.665000	25706.385000	38277.225000	11993.355000	-3422.835000	-10812.150000	-622.170000	-1.274776	-1.620654	-2.381055	-2.967392	-2.263525	-1.607990	0.571177	-4.619414	-17.533740	6.851740	-5.615680	-0.872129	-0.231628	0.366759	-1.000000	-1.000000	-1.000000	-1.000000	-1.000000	-1.000000	-1.000000	84.344828	0.000000	-1.000000	-1.000000	837373.000000	1769635485.768409
15926.085000	19354.635000	25725.330000	38296.305000	12008.205000	-3421.215000	-10832.625000	-637.695000	3.028965	2.873028	2.103284	0.784021	0.882433	1.300454	4.271201	0.953577	-17.533740	6.851740	-5.615680	-0.872129	-0.231628	0.366759	-1.000000	-1.000000	-1.000000	-1.000000	-1.000000	-1.000000	-1.000000	84.344828	0.000000	-1.000000	-1.000000	837374.000000	1769635485.768435
15936.705000	19337.760000	25711.200000	38289.330000	12005.595000	-3419.955000	-10825.155000	-619.605000	5.755226	6.894403	6.602879	4.703349	3.899236	2.772559	2.461333	3.866695	-17.533740	6.851740	-5.615680	-0.872129	-0.231628	0.366759	-1.000000	-1.000000	-1.000000	-1.000000	-1.000000	-1.000000	-1.000000	84.344828	0.000000	-1.000000	-1.000000	837375.000000	1769635485.768459
15928.830000	19320.165000	25688.835000	38269.530000	11990.520000	-3416.850000	-10790.640000	-613.260000	7.262660	8.254464	8.740306	7.152406	5.534523	1.855162	-4.370253	4.286770	-17.533740	6.851740	-5.615680	-0.872129	-0.231628	0.366759	-1.000000	-1.000000	-1.000000	-1.000000	-1.000000	-1.000000	-1.000000	84.344828	0.000000	-1.000000	-1.000000	837376.000000	1769635485.768472
15908.355000	19302.165000	25670.790000	38253.060000	11978.055000	-3417.165000	-10774.620000	-622.440000	6.646199	4.376886	5.320795	5.207625	3.693823	-0.672310	-8.613168	4.324846	4.303320	4.578000	-8.133580	-0.868833	-0.247558	0.357787	-1.000000	-1.000000	-1.000000	-1.000000	-1.000000	-1.000000	-1.000000	84.344828	0.000000	-1.000000	-1.000000	837377.000000	1769635485.770247
15917.310000	19305.360000	25671.870000	38252.835000	11977.920000	-3414.870000	-10776.600000	-617.310000	3.135963	-3.123781	-2.441769	-0.814402	-1.204560	-2.619933	-4.830917	4.563533	4.303320	4.578000	-8.133580	-0.868833	-0.247558	0.357787	-1.000000	-1.000000	-1.000000	-1.000000	-1.000000	-1.000000	-1.000000	84.344828	0.000000	-1.000000	-1.000000	837378.000000	1769635485.770258
15936.930000	19317.915000	25681.455000	38262.195000	11986.245000	-3413.295000	-10789.110000	-609.615000	-1.251520	-8.548125	-8.648923	-6.288122	-5.377712	-2.133377	3.708297	4.231617	4.303320	4.578000	-8.133580	-0.868833	-0.247558	0.357787	-1.000000	-1.000000	-1.000000	-1.000000	-1.000000	-1.000000	-1.000000	84.344828	0.000000	-1.000000	-1.000000	837379.000000	1769635485.774253
15939.495000	19331.280000	25691.085000	38265.255000	11986.380000	-3421.080000	-10805.310000	-618.435000	-3.728254	-7.717639	-8.540357	-6.899046	-5.446077	0.334804	9.288966	2.596093	4.303320	4.578000	-8.133580	-0.868833	-0.247558	0.357787	-1.000000	-1.000000	-1.000000	-1.000000	-1.000000	-1.000000	-1.000000	84.344828	0.000000	-1.000000	-1.000000	837380.000000	1769635485.774266
15910.110000	19331.010000	25688.835000	38255.085000	11974.995000	-3430.125000	-10806.795000	-639.990000	-4.671999	-2.175237	-3.148550	-3.149171	-2.117376	2.262719	7.827489	-0.820146	4.303320	4.578000	-8.133580	-0.868833	-0.247558	0.357787	-1.000000	-1.000000	-1.000000	-1.000000	-1.000000	-1.000000	-1.000000	84.344828	0.000000	-1.000000	-1.000000	837381.000000	1769635485.778345
15902.550000	19325.700000	25686.090000	38253.870000	11973.195000	-3431.925000	-10799.460000	-637.065000	-6.104840	2.940863	2.404630	0.806329	1.020536	1.789140	1.747692	-5.162695	4.303320	4.578000	-8.133580	-0.868833	-0.247558	0.357787	-1.000000	-1.000000	-1.000000	-1.000000	-1.000000	-1.000000	-1.000000	84.344828	0.000000	-1.000000	-1.000000	837382.000000	1769635485.778357
15900.525000	19290.330000	25672.500000	38265.210000	11985.930000	-3428.415000	-10811.520000	-631.530000	-7.323167	3.898813	4.209802	2.243790	1.882993	-0.469191	-4.085851	-7.678905	4.303320	4.578000	-8.133580	-0.868833	-0.247558	0.357787	-1.000000	-1.000000	-1.000000	-1.000000	-1.000000	-1.000000	-1.000000	84.344828	0.000000	-1.000000	-1.000000	837383.000000	1769635485.782280
15920.955000	19305.045000	25679.385000	38270.475000	11992.500000	-3421.980000	-10812.555000	-619.740000	-5.517787	1.084028	2.588523	2.180770	1.611790	-2.483039	-7.470381	-6.289083	4.303320	4.578000	-8.133580	-0.868833	-0.247558	0.357787	-1.000000	-1.000000	-1.000000	-1.000000	-1.000000	-1.000000	-1.000000	84.344828	0.000000	-1.000000	-1.000000	837384.000000	1769635485.782290
15930.990000	19313.235000	25675.155000	38257.695000	11983.455000	-3412.260000	-10770.480000	-604.530000	0.504825	-1.521915	0.755812	2.658114	2.032261	-2.653049	-8.216988	-1.472128	4.303320	4.578000	-8.133580	-0.868833	-0.247558	0.357787	-1.000000	-1.000000	-1.000000	-1.000000	-1.000000	-1.000000	-1.000000	84.344828	0.000000	-1.000000	-1.000000	837385.000000	1769635485.787519
15914.835000	19315.935000	25679.070000	38254.635000	11976.885000	-3421.080000	-10780.110000	-620.235000	8.446002	-0.322183	1.154877	3.756610	3.062811	-0.815376	-5.633939	4.406653	4.303320	4.578000	-8.133580	-0.868833	-0.247558	0.357787	-1.000000	-1.000000	-1.000000	-1.000000	-1.000000	-1.000000	-1.000000	84.344828	0.000000	-1.000000	-1.000000	837386.000000	1769635485.787532
15913.710000	19337.715000	25705.980000	38286.630000	12009.645000	-3396.330000	-10776.510000	-629.685000	13.239094	4.214743	3.656798	4.509610	3.720846	1.993251	-0.214888	7.788087	14.207060	3.418240	-7.141680	-0.866819	-0.247924	0.353820	-1.000000	-1.000000	-1.000000	-1.000000	-1.000000	-1.000000	-1.000000	84.344828	0.000000	-1.000000	-1.000000	837387.000000	1769635485.790186
15918.390000	19320.120000	25691.085000	38287.800000	12013.605000	-3395.610000	-10785.870000	-630.540000	11.011715	8.160781	6.129277	4.603535	3.917317	4.648104	5.348828	6.154252	14.207060	3.418240	-7.141680	-0.866819	-0.247924	0.353820	-1.000000	-1.000000	-1.000000	-1.000000	-1.000000	-1.000000	-1.000000	84.344828	0.000000	-1.000000	-1.000000	837388.000000	1769635485.790202
15915.150000	19299.105000	25668.855000	38267.280000	11988.180000	-3419.415000	-10799.820000	-632.340000	2.904741	6.952096	5.215538	3.270650	3.146280	5.733852	8.254331	0.905194	14.207060	3.418240	-7.141680	-0.866819	-0.247924	0.353820	-1.000000	-1.000000	-1.000000	-1.000000	-1.000000	-1.000000	-1.000000	84.344828	0.000000	-1.000000	-1.000000	837389.000000	1769635485.794252
15913.170000	19317.420000	25688.700000	38276.055000	11998.755000	-3406.365000	-10782.270000	-628.695000	-5.771126	-0.313608	-0.468074	-0.488595	0.234098	3.876806	7.381344	-3.702976	14.207060	3.418240	-7.141680	-0.866819	-0.247924	0.353820	-1.000000	-1.000000	-1.000000	-1.000000	-1.000000	-1.000000	-1.000000	84.344828	0.000000	-1.000000	-1.000000	837390.000000	1769635485.794264
15919.065000	19320.615000	25686.630000	38268.585000	11987.505000	-3420.270000	-10795.050000	-622.620000	-9.750071	-8.382598	-7.319649	-5.535218	-4.201453	-0.309063	3.760769	-4.548071	14.207060	3.418240	-7.141680	-0.866819	-0.247924	0.353820	-1.000000	-1.000000	-1.000000	-1.000000	-1.000000	-1.000000	-1.000000	84.344828	0.000000	-1.000000	-1.000000	837391.000000	1769635485.800973
15894.360000	19294.650000	25659.630000	38238.795000	11956.230000	-3447.540000	-10809.720000	-639.945000	-7.989558	-10.987566	-10.544536	-9.674260	-8.456132	-5.150776	-0.909868	-2.336848	14.207060	3.418240	-7.141680	-0.866819	-0.247924	0.353820	-1.000000	-1.000000	-1.000000	-1.000000	-1.000000	-1.000000	-1.000000	84.344828	0.000000	-1.000000	-1.000000	837392.000000	1769635485.800985
15876.630000	19276.470000	25640.370000	38220.030000	11945.070000	-3440.070000	-10777.230000	-647.865000	-4.268500	-7.770704	-9.355641	-11.789753	-11.430770	-9.365975	-5.214449	-0.524844	14.207060	3.418240	-7.141680	-0.866819	-0.247924	0.353820	-1.000000	-1.000000	-1.000000	-1.000000	-1.000000	-1.000000	-1.000000	84.344828	0.000000	-1.000000	-1.000000	837393.000000	1769635485.802068
15915.195000	19318.905000	25680.465000	38256.120000	11976.345000	-3423.645000	-10796.805000	-627.795000	-1.822641	-2.348259	-5.199711	-10.300239	-10.937740	-10.660010	-7.748042	-0.880510	14.207060	3.418240	-7.141680	-0.866819	-0.247924	0.353820	-1.000000	-1.000000	-1.000000	-1.000000	-1.000000	-1.000000	-1.000000	84.344828	0.000000	-1.000000	-1.000000	837394.000000	1769635485.802086
15941.970000	19343.790000	25702.245000	38273.895000	11988.270000	-3424.455000	-10819.260000	-610.605000	0.981347	3.553362	1.473636	-3.241601	-4.505183	-6.792565	-8.088086	-1.101587	14.207060	3.418240	-7.141680	-0.866819	-0.247924	0.353820	-1.000000	-1.000000	-1.000000	-1.000000	-1.000000	-1.000000	-1.000000	84.344828	0.000000	-1.000000	-1.000000	837395.000000	1769635485.808820
15935.940000	19331.730000	25692.345000	38270.295000	11985.120000	-3424.680000	-10814.175000	-617.265000	5.911496	8.888639	8.833954	7.214737	5.736594	0.758441	-6.542324	1.294864	14.207060	3.418240	-7.141680	-0.866819	-0.247924	0.353820	-1.000000	-1.000000	-1.000000	-1.000000	-1.000000	-1.000000	-1.000000	84.344828	0.000000	-1.000000	-1.000000	837396.000000	1769635485.808834
15922.530000	19322.550000	25689.420000	38273.310000	11991.960000	-3414.195000	-10803.015000	-625.410000	9.748271	10.741647	12.671407	14.835038	13.654025	7.836242	-2.541664	4.776915	9.018660	4.181240	-6.744920	-0.860594	-0.243591	0.361632	-1.000000	-1.000000	-1.000000	-1.000000	-1.000000	-1.000000	-1.000000	84.344828	0.000000	-1.000000	-1.000000	837397.000000	1769635485.811541
15919.740000	19325.160000	25686.405000	38263.455000	11979.270000	-3423.915000	-10798.875000	-621.990000	8.320512	7.413551	10.576884	15.428037	15.250695	11.625670	4.039594	5.991250	9.018660	4.181240	-6.744920	-0.860594	-0.243591	0.361632	-1.000000	-1.000000	-1.000000	-1.000000	-1.000000	-1.000000	-1.000000	84.344828	0.000000	-1.000000	-1.000000	837398.000000	1769635485.811553
15915.060000	19330.110000	25687.710000	38260.260000	11976.795000	-3426.975000	-10801.170000	-625.365000	1.998643	0.649432	3.782759	9.370927	10.578243	11.062414	10.442550	3.777945	9.018660	4.181240	-6.744920	-0.860594	-0.243591	0.361632	-1.000000	-1.000000	-1.000000	-1.000000	-1.000000	-1.000000	-1.000000	84.344828	0.000000	-1.000000	-1.000000	837399.000000	1769635485.814090
15917.670000	19340.640000	25691.805000	38258.190000	11973.600000	-3433.185000	-10809.720000	-629.640000	-5.113757	-5.594645	-4.048927	0.156447	2.356208	6.483577	12.764059	-0.576394	9.018660	4.181240	-6.744920	-0.860594	-0.243591	0.361632	-1.000000	-1.000000	-1.000000	-1.000000	-1.000000	-1.000000	-1.000000	84.344828	0.000000	-1.000000	-1.000000	837400.000000	1769635485.814101
15916.995000	19316.970000	25678.080000	38255.445000	11971.845000	-3435.345000	-10817.595000	-632.565000	-8.747260	-7.744126	-8.577413	-7.204190	-4.985757	0.279232	9.381558	-4.727532	9.018660	4.181240	-6.744920	-0.860594	-0.243591	0.361632	-1.000000	-1.000000	-1.000000	-1.000000	-1.000000	-1.000000	-1.000000	84.344828	0.000000	-1.000000	-1.000000	837401.000000	1769635485.819356
