Channel1	Channel2	Channel3	Channel4	Channel5	Channel6	Channel7	Channel8	FilteredChannel1	FilteredChannel2	FilteredChannel3	FilteredChannel4	FilteredChannel5	FilteredChannel6	FilteredChannel7	FilteredChannel8	GyroX	GyroY	GyroZ	AccX	AccY	AccZ	PPG1	PPG2	rawPPG1	rawPPG2	rawPPG3	Hr	Hrv	Battery	Trigger	PhysicalTrigger	AutoTrigger	NumMeasurements	Timestamp
-27970.335000	-29707.515000	-23506.110000	-39571.380000	-48185.775000	-67047.795000	-39356.370000	-18171.270000	-4.593050	2.300674	6.804198	1.451067	-1.863779	-2.424417	-0.642008	-2.194931	8.301440	12.558980	-2.548420	0.920408	-0.306213	0.269958	-1.000000	-1.000000	-1.000000	-1.000000	-1.000000	-1.000000	-1.000000	36.965517	0.000000	-1.000000	-1.000000	670552.000000	1774294878.671529
-27964.980000	-29703.240000	-23533.965000	-39578.805000	-48187.575000	-67047.930000	-39356.415000	-18167.670000	-15.603285	-3.386713	7.905630	4.248309	2.502968	1.938336	0.556926	-5.261943	8.301440	12.558980	-2.548420	0.920408	-0.306213	0.269958	-1.000000	-1.000000	-1.000000	-1.000000	-1.000000	-1.000000	-1.000000	36.965517	0.000000	-1.000000	-1.000000	670553.000000	1774294878.671550
-27975.195000	-29710.485000	-23553.315000	-39571.155000	-48178.080000	-67038.525000	-39353.445000	-18164.745000	-15.507489	-6.851153	5.302009	4.587337	4.239911	3.776411	0.634447	-5.056765	8.072540	8.393000	-1.526000	0.918638	-0.306701	0.282287	-1.000000	-1.000000	-1.000000	-1.000000	-1.000000	-1.000000	-1.000000	36.965517	0.000000	-1.000000	-1.000000	670554.000000	1774294878.676747
-27990.045000	-29742.570000	-23537.565000	-39562.920000	-48173.040000	-67032.990000	-39349.845000	-18155.115000	-5.048891	-6.360397	-1.417498	1.886510	2.383610	2.187695	0.066660	-0.759587	8.072540	8.393000	-1.526000	0.918638	-0.306701	0.282287	-1.000000	-1.000000	-1.000000	-1.000000	-1.000000	-1.000000	-1.000000	36.965517	0.000000	-1.000000	-1.000000	670555.000000	1774294878.676758
-27958.365000	-29682.855000	-23541.165000	-39576.555000	-48187.440000	-67044.375000	-39353.580000	-18144.180000	5.769605	-3.326596	-8.263214	-1.688497	-0.731942	-0.614178	-0.072145	4.938867	8.072540	8.393000	-1.526000	0.918638	-0.306701	0.282287	-1.000000	-1.000000	-1.000000	-1.000000	-1.000000	-1.000000	-1.000000	36.965517	0.000000	-1.000000	-1.000000	670556.000000	1774294878.679605
-27924.705000	-29653.290000	-23525.730000	-39571.380000	-48188.880000	-67050.990000	-39364.110000	-18159.570000	11.010389	1.819059	-10.375216	-3.821271	-2.673816	-2.390882	0.309449	8.359568	8.072540	8.393000	-1.526000	0.918638	-0.306701	0.282287	-1.000000	-1.000000	-1.000000	-1.000000	-1.000000	-1.000000	-1.000000	36.965517	0.000000	-1.000000	-1.000000	670557.000000	1774294878.679615
-27954.315000	-29677.725000	-23500.035000	-39544.605000	-48163.455000	-67031.865000	-39353.670000	-18159.615000	12.469078	8.362397	-6.183158	-3.390793	-2.456994	-2.353480	0.421238	7.342249	8.072540	8.393000	-1.526000	0.918638	-0.306701	0.282287	-1.000000	-1.000000	-1.000000	-1.000000	-1.000000	-1.000000	-1.000000	36.965517	0.000000	-1.000000	-1.000000	670558.000000	1774294878.683674
-27987.300000	-29705.130000	-23523.345000	-39560.940000	-48170.340000	-67035.645000	-39347.145000	-18151.155000	11.423060	11.647995	1.528478	-0.595932	-0.124034	-0.478102	0.227543	2.871003	8.072540	8.393000	-1.526000	0.918638	-0.306701	0.282287	-1.000000	-1.000000	-1.000000	-1.000000	-1.000000	-1.000000	-1.000000	36.965517	0.000000	-1.000000	-1.000000	670559.000000	1774294878.683693
-27977.850000	-29716.650000	-23545.215000	-39584.115000	-48190.185000	-67051.665000	-39348.360000	-18156.870000	6.051213	7.020393	6.516767	1.845652	2.315426	1.819379	0.323721	-1.816721	8.072540	8.393000	-1.526000	0.918638	-0.306701	0.282287	-1.000000	-1.000000	-1.000000	-1.000000	-1.000000	-1.000000	-1.000000	36.965517	0.000000	-1.000000	-1.000000	670560.000000	1774294878.688854
-27996.480000	-29716.560000	-23531.355000	-39569.175000	-48177.045000	-67039.380000	-39350.565000	-18192.690000	-3.071662	-3.463755	4.771726	1.030644	2.126446	2.243183	0.549742	-5.002487	8.072540	8.393000	-1.526000	0.918638	-0.306701	0.282287	-1.000000	-1.000000	-1.000000	-1.000000	-1.000000	-1.000000	-1.000000	36.965517	0.000000	-1.000000	-1.000000	670561.000000	1774294878.688872
-27978.705000	-29688.120000	-23529.600000	-39571.245000	-48180.645000	-67042.575000	-39355.380000	-18165.555000	-11.217305	-12.038487	-0.494307	-2.106999	-0.717215	0.342593	0.185659	-6.965078	8.072540	8.393000	-1.526000	0.918638	-0.306701	0.282287	-1.000000	-1.000000	-1.000000	-1.000000	-1.000000	-1.000000	-1.000000	36.965517	0.000000	-1.000000	-1.000000	670562.000000	1774294878.691611
-27917.100000	-29674.440000	-23535.135000	-39580.695000	-48191.355000	-67049.415000	-39357.315000	-18126.675000	-12.363026	-12.035793	-3.477920	-4.674396	-4.149319	-2.550008	-1.002996	-6.376011	8.072540	8.393000	-1.526000	0.918638	-0.306701	0.282287	-1.000000	-1.000000	-1.000000	-1.000000	-1.000000	-1.000000	-1.000000	36.965517	0.000000	-1.000000	-1.000000	670563.000000	1774294878.691620
-27936.405000	-29680.605000	-23529.555000	-39575.925000	-48187.440000	-67044.645000	-39358.890000	-18145.035000	-4.734834	-3.556778	-2.562717	-5.138220	-6.173704	-4.736409	-2.353037	-1.900536	8.866060	7.065380	-0.869820	0.913450	-0.309142	0.287048	-1.000000	-1.000000	-1.000000	-1.000000	-1.000000	-1.000000	-1.000000	36.965517	0.000000	-1.000000	-1.000000	670564.000000	1774294878.697190
-27966.105000	-29700.135000	-23536.845000	-39582.855000	-48194.190000	-67051.575000	-39363.975000	-18165.780000	4.655029	5.580949	0.072653	-3.055183	-5.132030	-4.457919	-2.755055	3.324803	8.866060	7.065380	-0.869820	0.913450	-0.309142	0.287048	-1.000000	-1.000000	-1.000000	-1.000000	-1.000000	-1.000000	-1.000000	36.965517	0.000000	-1.000000	-1.000000	670565.000000	1774294878.697202
-27955.440000	-29693.790000	-23531.040000	-39580.380000	-48191.310000	-67049.460000	-39358.755000	-18159.660000	6.927971	7.245041	1.760523	0.735544	-1.073221	-1.371414	-1.613870	4.984474	8.866060	7.065380	-0.869820	0.913450	-0.309142	0.287048	-1.000000	-1.000000	-1.000000	-1.000000	-1.000000	-1.000000	-1.000000	36.965517	0.000000	-1.000000	-1.000000	670566.000000	1774294878.699536
-27947.880000	-29684.790000	-23532.480000	-39581.730000	-48192.390000	-67052.565000	-39354.165000	-18151.470000	2.463238	2.169788	1.268426	3.961083	3.480512	2.529419	0.580276	3.059717	8.866060	7.065380	-0.869820	0.913450	-0.309142	0.287048	-1.000000	-1.000000	-1.000000	-1.000000	-1.000000	-1.000000	-1.000000	36.965517	0.000000	-1.000000	-1.000000	670567.000000	1774294878.699542
-27947.430000	-29688.255000	-23539.185000	-39582.180000	-48189.870000	-67050.090000	-39351.375000	-18151.965000	-1.644662	-2.507358	-0.404174	5.229723	6.079570	4.943485	2.598977	0.409074	8.866060	7.065380	-0.869820	0.913450	-0.309142	0.287048	-1.000000	-1.000000	-1.000000	-1.000000	-1.000000	-1.000000	-1.000000	36.965517	0.000000	-1.000000	-1.000000	670568.000000	1774294878.705276
-27952.155000	-29701.395000	-23537.430000	-39574.980000	-48182.670000	-67042.260000	-39350.745000	-18161.100000	-1.773239	-2.626669	-1.273443	5.142516	6.442564	5.332072	3.442704	-0.925846	8.866060	7.065380	-0.869820	0.913450	-0.309142	0.287048	-1.000000	-1.000000	-1.000000	-1.000000	-1.000000	-1.000000	-1.000000	36.965517	0.000000	-1.000000	-1.000000	670569.000000	1774294878.705287
-27959.445000	-29718.495000	-23540.715000	-39579.615000	-48187.800000	-67046.265000	-39357.090000	-18164.835000	0.212905	-0.130907	-0.594932	4.351987	5.179611	4.184280	2.856393	-0.634543	8.866060	7.065380	-0.869820	0.913450	-0.309142	0.287048	-1.000000	-1.000000	-1.000000	-1.000000	-1.000000	-1.000000	-1.000000	36.965517	0.000000	-1.000000	-1.000000	670570.000000	1774294878.707735
-27983.655000	-29724.300000	-23544.090000	-39585.105000	-48191.985000	-67048.290000	-39359.520000	-18157.545000	0.700784	0.754475	0.788712	2.440863	2.422495	1.755498	1.141563	0.033565	8.866060	7.065380	-0.869820	0.913450	-0.309142	0.287048	-1.000000	-1.000000	-1.000000	-1.000000	-1.000000	-1.000000	-1.000000	36.965517	0.000000	-1.000000	-1.000000	670571.000000	1774294878.707745
-27980.010000	-29695.005000	-23531.220000	-39574.080000	-48182.760000	-67036.680000	-39354.840000	-18156.915000	-2.687165	-0.923413	1.887468	-0.453439	-1.059350	-1.168518	-0.879093	-0.645741	8.866060	7.065380	-0.869820	0.913450	-0.309142	0.287048	-1.000000	-1.000000	-1.000000	-1.000000	-1.000000	-1.000000	-1.000000	36.965517	0.000000	-1.000000	-1.000000	670572.000000	1774294878.712960
-27955.395000	-29688.480000	-23523.975000	-39568.500000	-48177.270000	-67032.180000	-39349.980000	-18149.895000	-7.551128	-1.922269	2.529102	-2.687726	-3.318719	-2.871410	-1.973441	-2.270357	8.866060	7.065380	-0.869820	0.913450	-0.309142	0.287048	-1.000000	-1.000000	-1.000000	-1.000000	-1.000000	-1.000000	-1.000000	36.965517	0.000000	-1.000000	-1.000000	670573.000000	1774294878.712971
-27955.530000	-29693.025000	-23522.175000	-39564.270000	-48172.320000	-67030.425000	-39349.800000	-18153.990000	-7.862116	-0.004476	2.778567	-2.839295	-3.044169	-2.335799	-1.425566	-2.352281	8.072540	4.898460	-1.175020	0.905271	-0.313659	0.289062	-1.000000	-1.000000	-1.000000	-1.000000	-1.000000	-1.000000	-1.000000	36.965517	0.000000	-1.000000	-1.000000	670574.000000	1774294878.715599
-27952.065000	-29677.590000	-23512.950000	-39556.485000	-48165.705000	-67025.790000	-39349.215000	-18156.465000	-1.499626	3.401506	2.228710	-1.332385	-0.986622	-0.412950	0.027129	-0.111805	8.072540	4.898460	-1.175020	0.905271	-0.313659	0.289062	-1.000000	-1.000000	-1.000000	-1.000000	-1.000000	-1.000000	-1.000000	36.965517	0.000000	-1.000000	-1.000000	670575.000000	1774294878.715610
-27954.495000	-29673.225000	-23512.365000	-39556.530000	-48166.245000	-67027.995000	-39347.640000	-18156.330000	7.298113	5.910183	0.764176	0.334998	0.925295	1.125969	0.830538	2.317033	8.072540	4.898460	-1.175020	0.905271	-0.313659	0.289062	-1.000000	-1.000000	-1.000000	-1.000000	-1.000000	-1.000000	-1.000000	36.965517	0.000000	-1.000000	-1.000000	670576.000000	1774294878.723849
-27953.145000	-29683.485000	-23524.965000	-39573.990000	-48185.460000	-67046.580000	-39353.580000	-18149.310000	12.751463	6.135762	-1.019862	0.831281	1.052877	0.877825	0.192003	3.092985	8.072540	4.898460	-1.175020	0.905271	-0.313659	0.289062	-1.000000	-1.000000	-1.000000	-1.000000	-1.000000	-1.000000	-1.000000	36.965517	0.000000	-1.000000	-1.000000	670577.000000	1774294878.723862
-27939.105000	-29672.100000	-23520.240000	-39575.430000	-48192.390000	-67052.430000	-39355.020000	-18137.565000	12.244259	4.007087	-2.670766	-0.640655	-1.284261	-1.641606	-1.368352	2.837922	8.072540	4.898460	-1.175020	0.905271	-0.313659	0.289062	-1.000000	-1.000000	-1.000000	-1.000000	-1.000000	-1.000000	-1.000000	36.965517	0.000000	-1.000000	-1.000000	670578.000000	1774294878.723876
-27952.245000	-29697.525000	-23535.585000	-39578.895000	-48189.555000	-67043.565000	-39353.760000	-18154.440000	7.177687	0.469782	-3.927542	-3.389764	-4.813013	-4.988739	-2.511212	2.529438	8.072540	4.898460	-1.175020	0.905271	-0.313659	0.289062	-1.000000	-1.000000	-1.000000	-1.000000	-1.000000	-1.000000	-1.000000	36.965517	0.000000	-1.000000	-1.000000	670579.000000	1774294878.723881
-27979.155000	-29706.075000	-23534.280000	-39572.865000	-48178.890000	-67030.740000	-39353.580000	-18177.165000	-0.078938	-3.916048	-4.474886	-5.143021	-6.440542	-6.061107	-2.144033	0.831356	8.072540	4.898460	-1.175020	0.905271	-0.313659	0.289062	-1.000000	-1.000000	-1.000000	-1.000000	-1.000000	-1.000000	-1.000000	36.965517	0.000000	-1.000000	-1.000000	670580.000000	1774294878.727769
-28022.985000	-29714.490000	-23517.495000	-39554.685000	-48157.695000	-67010.490000	-39345.615000	-18205.425000	-8.507650	-8.803545	-3.953508	-4.017699	-3.924304	-2.983351	-0.370200	-3.877572	8.072540	4.898460	-1.175020	0.905271	-0.313659	0.289062	-1.000000	-1.000000	-1.000000	-1.000000	-1.000000	-1.000000	-1.000000	36.965517	0.000000	-1.000000	-1.000000	670581.000000	1774294878.727780
-28035.765000	-29726.415000	-23515.065000	-39551.805000	-48157.965000	-67013.145000	-39348.270000	-18204.795000	-16.710175	-12.513834	-1.943162	-0.095278	1.897526	2.894470	1.756418	-9.712905	8.072540	4.898460	-1.175020	0.905271	-0.313659	0.289062	-1.000000	-1.000000	-1.000000	-1.000000	-1.000000	-1.000000	-1.000000	36.965517	0.000000	-1.000000	-1.000000	670582.000000	1774294878.733090
-27986.940000	-29734.020000	-23542.965000	-39583.080000	-48189.870000	-67046.985000	-39364.740000	-18142.425000	-20.129435	-12.594898	0.711019	3.997613	6.997916	7.435912	2.794016	-11.182711	8.072540	4.898460	-1.175020	0.905271	-0.313659	0.289062	-1.000000	-1.000000	-1.000000	-1.000000	-1.000000	-1.000000	-1.000000	36.965517	0.000000	-1.000000	-1.000000	670583.000000	1774294878.733101
-27947.475000	-29696.400000	-23531.895000	-39577.815000	-48186.810000	-67046.490000	-39356.460000	-18120.465000	-13.062610	-7.589210	1.913730	4.754741	7.065332	6.688106	1.771068	-3.821572	3.448760	3.357200	-1.663340	0.901365	-0.314819	0.291625	-1.000000	-1.000000	-1.000000	-1.000000	-1.000000	-1.000000	-1.000000	36.965517	0.000000	-1.000000	-1.000000	670584.000000	1774294878.736050
-27941.130000	-29656.305000	-23504.985000	-39556.305000	-48166.830000	-67028.310000	-39349.170000	-18152.775000	4.024110	2.467960	1.810292	2.232007	2.519208	1.481762	-0.376855	9.177660	3.448760	3.357200	-1.663340	0.901365	-0.314819	0.291625	-1.000000	-1.000000	-1.000000	-1.000000	-1.000000	-1.000000	-1.000000	36.965517	0.000000	-1.000000	-1.000000	670585.000000	1774294878.736061
-27923.715000	-29661.525000	-23516.100000	-39569.355000	-48174.165000	-67029.570000	-39346.605000	-18161.370000	21.917355	14.842404	2.742395	0.061420	-1.755529	-3.004278	-1.466652	17.776064	3.448760	3.357200	-1.663340	0.901365	-0.314819	0.291625	-1.000000	-1.000000	-1.000000	-1.000000	-1.000000	-1.000000	-1.000000	36.965517	0.000000	-1.000000	-1.000000	670586.000000	1774294878.739635
-27958.410000	-29692.395000	-23535.990000	-39589.650000	-48193.290000	-67044.105000	-39352.815000	-18156.105000	29.462764	22.781911	4.515541	-0.153664	-2.792630	-3.584914	-0.648978	15.302831	3.448760	3.357200	-1.663340	0.901365	-0.314819	0.291625	-1.000000	-1.000000	-1.000000	-1.000000	-1.000000	-1.000000	-1.000000	36.965517	0.000000	-1.000000	-1.000000	670587.000000	1774294878.739646
-27945.630000	-29686.905000	-23535.045000	-39583.620000	-48188.070000	-67038.165000	-39354.660000	-18164.565000	22.098844	20.220674	4.541195	-0.007796	-1.923041	-1.778014	0.868842	4.464931	3.448760	3.357200	-1.663340	0.901365	-0.314819	0.291625	-1.000000	-1.000000	-1.000000	-1.000000	-1.000000	-1.000000	-1.000000	36.965517	0.000000	-1.000000	-1.000000	670588.000000	1774294878.745021
-27959.715000	-29687.940000	-23526.945000	-39567.420000	-48175.515000	-67027.095000	-39352.860000	-18190.260000	5.128409	8.268892	2.024681	-0.429845	-1.129784	-0.265911	1.497782	-7.186140	3.448760	3.357200	-1.663340	0.901365	-0.314819	0.291625	-1.000000	-1.000000	-1.000000	-1.000000	-1.000000	-1.000000	-1.000000	36.965517	0.000000	-1.000000	-1.000000	670589.000000	1774294878.745038
-27956.700000	-29697.210000	-23532.885000	-39574.845000	-48181.950000	-67032.720000	-39352.005000	-18167.220000	-11.024646	-6.237343	-1.681633	-0.919374	-0.953105	-0.080850	0.760955	-13.378291	3.448760	3.357200	-1.663340	0.901365	-0.314819	0.291625	-1.000000	-1.000000	-1.000000	-1.000000	-1.000000	-1.000000	-1.000000	36.965517	0.000000	-1.000000	-1.000000	670590.000000	1774294878.749185
-27956.520000	-29718.990000	-23530.995000	-39578.220000	-48183.390000	-67035.420000	-39350.655000	-18133.740000	-19.125263	-16.664425	-4.735197	-1.141570	-1.056108	-0.664001	-0.526841	-11.493540	3.448760	3.357200	-1.663340	0.901365	-0.314819	0.291625	-1.000000	-1.000000	-1.000000	-1.000000	-1.000000	-1.000000	-1.000000	36.965517	0.000000	-1.000000	-1.000000	670591.000000	1774294878.749197
-27958.995000	-29717.955000	-23529.105000	-39582.630000	-48186.540000	-67040.685000	-39352.635000	-18126.270000	-19.084708	-19.953721	-5.319538	-0.811246	-0.533974	-0.604375	-1.125046	-4.001850	3.448760	3.357200	-1.663340	0.901365	-0.314819	0.291625	-1.000000	-1.000000	-1.000000	-1.000000	-1.000000	-1.000000	-1.000000	36.965517	0.000000	-1.000000	-1.000000	670592.000000	1774294878.752335
-27946.440000	-29677.005000	-23523.345000	-39577.995000	-48181.095000	-67036.860000	-39348.405000	-18139.050000	-14.876889	-16.413408	-3.048306	0.148649	0.977537	0.701396	-0.738983	3.033805	3.448760	3.357200	-1.663340	0.901365	-0.314819	0.291625	-1.000000	-1.000000	-1.000000	-1.000000	-1.000000	-1.000000	-1.000000	36.965517	0.000000	-1.000000	-1.000000	670593.000000	1774294878.752354
-27952.515000	-29698.560000	-23530.680000	-39574.620000	-48177.495000	-67032.135000	-39344.490000	-18145.575000	-9.263591	-8.287292	0.119199	1.066831	2.483204	2.195549	-0.087541	5.564363	0.793520	5.112100	-2.090620	0.902219	-0.310790	0.291320	-1.000000	-1.000000	-1.000000	-1.000000	-1.000000	-1.000000	-1.000000	36.965517	0.000000	-1.000000	-1.000000	670594.000000	1774294878.758635
-27945.720000	-29677.365000	-23530.635000	-39566.745000	-48170.790000	-67025.610000	-39344.580000	-18153.045000	-2.892660	1.274162	2.106566	1.724497	3.192040	2.869469	0.308647	3.916046	0.793520	5.112100	-2.090620	0.902219	-0.310790	0.291320	-1.000000	-1.000000	-1.000000	-1.000000	-1.000000	-1.000000	-1.000000	36.965517	0.000000	-1.000000	-1.000000	670595.000000	1774294878.758648
-27978.705000	-29683.620000	-23495.040000	-39535.380000	-48142.260000	-67000.770000	-39339.045000	-18169.155000	3.618554	9.777532	3.342330	3.112028	3.773855	3.146610	0.574390	0.170547	0.793520	5.112100	-2.090620	0.902219	-0.310790	0.291320	-1.000000	-1.000000	-1.000000	-1.000000	-1.000000	-1.000000	-1.000000	36.965517	0.000000	-1.000000	-1.000000	670596.000000	1774294878.761318
-28031.445000	-29689.650000	-23499.360000	-39533.805000	-48136.455000	-66989.745000	-39338.055000	-18189.675000	7.884552	15.051670	5.205125	5.382365	4.739333	3.644338	0.933704	-3.597250	0.793520	5.112100	-2.090620	0.902219	-0.310790	0.291320	-1.000000	-1.000000	-1.000000	-1.000000	-1.000000	-1.000000	-1.000000	36.965517	0.000000	-1.000000	-1.000000	670597.000000	1774294878.761326
-27974.295000	-29676.510000	-23493.330000	-39539.565000	-48146.355000	-66998.205000	-39335.220000	-18148.995000	8.244252	14.886618	6.502581	5.999581	4.425377	3.341518	1.136957	-4.765083	0.793520	5.112100	-2.090620	0.902219	-0.310790	0.291320	-1.000000	-1.000000	-1.000000	-1.000000	-1.000000	-1.000000	-1.000000	36.965517	0.000000	-1.000000	-1.000000	670598.000000	1774294878.769109
-27930.780000	-29682.090000	-23487.255000	-39546.045000	-48154.320000	-67006.845000	-39338.055000	-18137.790000	8.066590	9.730053	4.931943	2.464782	0.819874	0.646182	0.698412	-1.517607	0.793520	5.112100	-2.090620	0.902219	-0.310790	0.291320	-1.000000	-1.000000	-1.000000	-1.000000	-1.000000	-1.000000	-1.000000	36.965517	0.000000	-1.000000	-1.000000	670599.000000	1774294878.769122
-27929.430000	-29684.835000	-23537.070000	-39592.620000	-48190.815000	-67042.755000	-39354.570000	-18132.345000	10.805700	2.701574	0.054390	-4.508074	-5.472604	-4.265003	-0.581752	3.723655	0.793520	5.112100	-2.090620	0.902219	-0.310790	0.291320	-1.000000	-1.000000	-1.000000	-1.000000	-1.000000	-1.000000	-1.000000	36.965517	0.000000	-1.000000	-1.000000	670600.000000	1774294878.769246
-27932.220000	-29685.780000	-23578.740000	-39619.305000	-48204.630000	-67055.220000	-39356.010000	-18137.115000	13.288316	-3.879810	-7.634372	-12.257431	-11.821889	-9.536112	-2.501843	6.091056	0.793520	5.112100	-2.090620	0.902219	-0.310790	0.291320	-1.000000	-1.000000	-1.000000	-1.000000	-1.000000	-1.000000	-1.000000	36.965517	0.000000	-1.000000	-1.000000	670601.000000	1774294878.769252
-27962.145000	-29691.945000	-23558.535000	-39602.115000	-48198.510000	-67049.595000	-39356.190000	-18157.680000	9.687602	-9.564352	-15.755300	-17.272125	-15.085638	-12.548670	-4.227297	3.880002	0.793520	5.112100	-2.090620	0.902219	-0.310790	0.291320	-1.000000	-1.000000	-1.000000	-1.000000	-1.000000	-1.000000	-1.000000	36.965517	0.000000	-1.000000	-1.000000	670602.000000	1774294878.774274
-27972.270000	-29703.915000	-23544.405000	-39588.120000	-48190.230000	-67041.630000	-39357.855000	-18171.765000	-1.248502	-13.515555	-18.280807	-15.384881	-12.512816	-10.759646	-4.537089	-0.844297	0.793520	5.112100	-2.090620	0.902219	-0.310790	0.291320	-1.000000	-1.000000	-1.000000	-1.000000	-1.000000	-1.000000	-1.000000	36.965517	0.000000	-1.000000	-1.000000	670603.000000	1774294878.774284
-27951.030000	-29694.465000	-23539.590000	-39578.760000	-48181.005000	-67030.965000	-39354.390000	-18164.295000	-13.824440	-13.585188	-10.873914	-5.391508	-3.935203	-3.770145	-2.788428	-4.902731	-3.326680	6.073480	-3.891300	0.902647	-0.308349	0.289794	-1.000000	-1.000000	-1.000000	-1.000000	-1.000000	-1.000000	-1.000000	36.965517	0.000000	-1.000000	-1.000000	670604.000000	1774294878.775512
-27971.055000	-29709.855000	-23526.810000	-39568.320000	-48174.840000	-67024.800000	-39357.270000	-18175.680000	-19.251537	-8.605534	3.153688	8.081040	6.837321	5.349713	0.459889	-5.521521	-3.326680	6.073480	-3.891300	0.902647	-0.308349	0.289794	-1.000000	-1.000000	-1.000000	-1.000000	-1.000000	-1.000000	-1.000000	36.965517	0.000000	-1.000000	-1.000000	670605.000000	1774294878.775526
-27999.900000	-29724.165000	-23532.255000	-39573.270000	-48177.315000	-67026.420000	-39357.135000	-18168.615000	-14.189020	-0.667606	15.691567	17.790718	14.347180	11.881128	3.629354	-2.107869	-3.326680	6.073480	-3.891300	0.902647	-0.308349	0.289794	-1.000000	-1.000000	-1.000000	-1.000000	-1.000000	-1.000000	-1.000000	36.965517	0.000000	-1.000000	-1.000000	670606.000000	1774294878.781023
-27954.720000	-29695.995000	-23530.770000	-39579.930000	-48184.290000	-67033.305000	-39356.595000	-18144.765000	-3.898411	6.480382	20.369460	19.241008	15.455003	12.966069	5.194884	2.848447	-3.326680	6.073480	-3.891300	0.902647	-0.308349	0.289794	-1.000000	-1.000000	-1.000000	-1.000000	-1.000000	-1.000000	-1.000000	36.965517	0.000000	-1.000000	-1.000000	670607.000000	1774294878.781052
-27929.745000	-29685.510000	-23533.965000	-39585.465000	-48188.880000	-67039.470000	-39357.855000	-18144.315000	4.784356	11.219750	16.137838	13.128878	11.016908	9.339439	4.845701	5.789398	-3.326680	6.073480	-3.891300	0.902647	-0.308349	0.289794	-1.000000	-1.000000	-1.000000	-1.000000	-1.000000	-1.000000	-1.000000	36.965517	0.000000	-1.000000	-1.000000	670608.000000	1774294878.783620
-27957.195000	-29693.115000	-23537.430000	-39584.655000	-48187.485000	-67039.740000	-39356.325000	-18157.905000	8.857442	13.369372	7.339445	4.362959	4.680299	4.219147	3.473376	4.651302	-3.326680	6.073480	-3.891300	0.902647	-0.308349	0.289794	-1.000000	-1.000000	-1.000000	-1.000000	-1.000000	-1.000000	-1.000000	36.965517	0.000000	-1.000000	-1.000000	670609.000000	1774294878.783632
-27961.335000	-29694.015000	-23535.855000	-39584.565000	-48186.945000	-67040.370000	-39357.720000	-18161.055000	7.918077	11.575292	-0.307189	-2.068057	-0.174480	0.415423	1.955124	0.279067	-3.326680	6.073480	-3.891300	0.902647	-0.308349	0.289794	-1.000000	-1.000000	-1.000000	-1.000000	-1.000000	-1.000000	-1.000000	36.965517	0.000000	-1.000000	-1.000000	670610.000000	1774294878.790323
-27962.325000	-29695.770000	-23534.145000	-39583.080000	-48185.595000	-67038.255000	-39359.340000	-18162.990000	3.831157	5.439257	-4.637399	-5.101859	-2.891898	-1.769044	0.352815	-3.784884	-3.326680	6.073480	-3.891300	0.902647	-0.308349	0.289794	-1.000000	-1.000000	-1.000000	-1.000000	-1.000000	-1.000000	-1.000000	36.965517	0.000000	-1.000000	-1.000000	670611.000000	1774294878.790336
-27961.515000	-29702.115000	-23534.010000	-39580.740000	-48182.445000	-67034.025000	-39359.520000	-18160.470000	0.024798	-2.387938	-6.945168	-6.624685	-4.633254	-3.470972	-1.441331	-4.340758	-3.326680	6.073480	-3.891300	0.902647	-0.308349	0.289794	-1.000000	-1.000000	-1.000000	-1.000000	-1.000000	-1.000000	-1.000000	36.965517	0.000000	-1.000000	-1.000000	670612.000000	1774294878.791641
-27950.445000	-29696.805000	-23527.845000	-39571.470000	-48172.590000	-67022.370000	-39356.505000	-18153.225000	-1.369261	-8.323420	-8.505291	-7.867629	-6.074874	-5.122417	-2.993137	-1.292516	-3.326680	6.073480	-3.891300	0.902647	-0.308349	0.289794	-1.000000	-1.000000	-1.000000	-1.000000	-1.000000	-1.000000	-1.000000	36.965517	0.000000	-1.000000	-1.000000	670613.000000	1774294878.791650
-27948.825000	-29689.335000	-23523.525000	-39568.320000	-48170.430000	-67018.230000	-39358.080000	-18150.930000	0.238842	-9.814367	-9.048291	-8.285749	-6.773558	-6.051287	-3.617526	3.148404	-5.966660	6.836480	-3.265640	0.903562	-0.306762	0.287597	-1.000000	-1.000000	-1.000000	-1.000000	-1.000000	-1.000000	-1.000000	36.965517	0.000000	-1.000000	-1.000000	670614.000000	1774294878.795561
-27962.415000	-29697.930000	-23519.565000	-39564.315000	-48164.715000	-67013.910000	-39355.965000	-18154.170000	3.494085	-6.638376	-7.581579	-6.693121	-5.825903	-5.310228	-3.048597	5.893751	-5.966660	6.836480	-3.265640	0.903562	-0.306762	0.287597	-1.000000	-1.000000	-1.000000	-1.000000	-1.000000	-1.000000	-1.000000	36.965517	0.000000	-1.000000	-1.000000	670615.000000	1774294878.795570
-27960.885000	-29692.395000	-23509.170000	-39552.390000	-48152.700000	-67004.415000	-39348.630000	-18150.705000	3.968305	-1.825498	-3.737518	-2.527901	-2.648023	-2.443362	-1.515186	4.237084	-5.966660	6.836480	-3.265640	0.903562	-0.306762	0.287597	-1.000000	-1.000000	-1.000000	-1.000000	-1.000000	-1.000000	-1.000000	36.965517	0.000000	-1.000000	-1.000000	670616.000000	1774294878.799501
-27963.000000	-29679.390000	-23511.375000	-39558.105000	-48159.090000	-67011.300000	-39347.595000	-18159.435000	-1.161127	1.332460	1.654701	3.310396	2.135555	1.882380	0.588608	-1.469130	-5.966660	6.836480	-3.265640	0.903562	-0.306762	0.287597	-1.000000	-1.000000	-1.000000	-1.000000	-1.000000	-1.000000	-1.000000	36.965517	0.000000	-1.000000	-1.000000	670617.000000	1774294878.799507
-27957.870000	-29682.765000	-23530.185000	-39581.415000	-48181.680000	-67032.900000	-39353.085000	-18166.590000	-8.154594	2.336152	6.520166	7.973355	5.921988	5.290498	2.436591	-7.382986	-5.966660	6.836480	-3.265640	0.903562	-0.306762	0.287597	-1.000000	-1.000000	-1.000000	-1.000000	-1.000000	-1.000000	-1.000000	36.965517	0.000000	-1.000000	-1.000000	670618.000000	1774294878.804925
-27969.570000	-29702.070000	-23543.505000	-39594.645000	-48195.000000	-67044.645000	-39361.950000	-18175.005000	-10.742411	1.854046	7.903349	7.939249	5.512360	4.879265	2.763812	-9.517117	-5.966660	6.836480	-3.265640	0.903562	-0.306762	0.287597	-1.000000	-1.000000	-1.000000	-1.000000	-1.000000	-1.000000	-1.000000	36.965517	0.000000	-1.000000	-1.000000	670619.000000	1774294878.804935
-27974.790000	-29707.245000	-23539.770000	-39589.155000	-48189.285000	-67037.760000	-39361.590000	-18160.335000	-7.039479	0.167520	4.468345	2.590739	0.646834	0.409362	1.112894	-6.500651	-5.966660	6.836480	-3.265640	0.903562	-0.306762	0.287597	-1.000000	-1.000000	-1.000000	-1.000000	-1.000000	-1.000000	-1.000000	36.965517	0.000000	-1.000000	-1.000000	670620.000000	1774294878.808829
-27986.220000	-29706.570000	-23531.445000	-39578.490000	-48177.990000	-67025.880000	-39361.410000	-18168.570000	-0.348355	-1.824074	-1.323042	-4.309735	-4.993036	-4.752263	-1.390711	-0.010310	-5.966660	6.836480	-3.265640	0.903562	-0.306762	0.287597	-1.000000	-1.000000	-1.000000	-1.000000	-1.000000	-1.000000	-1.000000	36.965517	0.000000	-1.000000	-1.000000	670621.000000	1774294878.808838
-27965.655000	-29691.045000	-23517.585000	-39568.545000	-48171.285000	-67019.850000	-39361.185000	-18167.355000	5.234960	-2.417097	-5.248420	-7.951462	-7.225568	-6.814035	-3.037874	6.228225	-5.966660	6.836480	-3.265640	0.903562	-0.306762	0.287597	-1.000000	-1.000000	-1.000000	-1.000000	-1.000000	-1.000000	-1.000000	36.965517	0.000000	-1.000000	-1.000000	670622.000000	1774294878.813623
-27969.075000	-29689.695000	-23501.070000	-39550.500000	-48154.950000	-67001.220000	-39352.230000	-18165.285000	8.320321	-0.551107	-4.770668	-6.140916	-4.610850	-4.464556	-2.776579	8.948385	-5.966660	6.836480	-3.265640	0.903562	-0.306762	0.287597	-1.000000	-1.000000	-1.000000	-1.000000	-1.000000	-1.000000	-1.000000	36.965517	0.000000	-1.000000	-1.000000	670623.000000	1774294878.813633
-27980.730000	-29700.360000	-23515.470000	-39560.265000	-48158.865000	-67003.560000	-39353.490000	-18167.130000	8.708460	2.630075	-0.747503	-0.312803	1.152006	0.916180	-0.744522	7.256713	-7.340060	7.370580	-3.021480	0.902158	-0.306274	0.283080	-1.000000	-1.000000	-1.000000	-1.000000	-1.000000	-1.000000	-1.000000	36.965517	0.000000	-1.000000	-1.000000	670624.000000	1774294878.815691
-27997.020000	-29691.990000	-23508.270000	-39550.815000	-48146.985000	-66998.925000	-39350.880000	-18173.790000	5.430614	4.394300	3.321136	5.581917	6.568646	6.201442	1.718482	2.412557	-7.340060	7.370580	-3.021480	0.902158	-0.306274	0.283080	-1.000000	-1.000000	-1.000000	-1.000000	-1.000000	-1.000000	-1.000000	36.965517	0.000000	-1.000000	-1.000000	670625.000000	1774294878.815701
-28002.195000	-29715.795000	-23525.145000	-39562.695000	-48156.210000	-67009.680000	-39350.115000	-18182.880000	-0.988970	2.989198	4.687751	8.250263	8.899249	8.533064	3.139366	-2.973822	-7.340060	7.370580	-3.021480	0.902158	-0.306274	0.283080	-1.000000	-1.000000	-1.000000	-1.000000	-1.000000	-1.000000	-1.000000	36.965517	0.000000	-1.000000	-1.000000	670626.000000	1774294878.819706
-27966.915000	-29721.375000	-23543.370000	-39583.035000	-48182.490000	-67031.685000	-39349.800000	-18157.635000	-6.552190	-0.983513	3.122629	6.892904	7.331297	6.896878	3.105199	-5.725771	-7.340060	7.370580	-3.021480	0.902158	-0.306274	0.283080	-1.000000	-1.000000	-1.000000	-1.000000	-1.000000	-1.000000	-1.000000	36.965517	0.000000	-1.000000	-1.000000	670627.000000	1774294878.819718
-28037.970000	-29733.480000	-23550.705000	-39591.090000	-48192.705000	-67038.570000	-39357.045000	-18172.980000	-7.503578	-4.847505	-0.258942	2.308335	2.275663	1.935712	2.033179	-4.083804	-7.340060	7.370580	-3.021480	0.902158	-0.306274	0.283080	-1.000000	-1.000000	-1.000000	-1.000000	-1.000000	-1.000000	-1.000000	36.965517	0.000000	-1.000000	-1.000000	670628.000000	1774294878.824797
-28076.265000	-29743.920000	-23552.280000	-39592.575000	-48193.425000	-67036.320000	-39365.055000	-18193.275000	-5.562504	-5.930430	-3.797417	-3.649660	-4.480573	-4.316899	0.251967	-0.217664	-7.340060	7.370580	-3.021480	0.902158	-0.306274	0.283080	-1.000000	-1.000000	-1.000000	-1.000000	-1.000000	-1.000000	-1.000000	36.965517	0.000000	-1.000000	-1.000000	670629.000000	1774294878.824812
-27999.630000	-29741.895000	-23556.105000	-39596.490000	-48194.235000	-67035.960000	-39373.065000	-18189.765000	-3.686734	-3.922008	-5.918865	-8.491594	-9.911932	-9.034303	-2.059907	1.837278	-7.340060	7.370580	-3.021480	0.902158	-0.306274	0.283080	-1.000000	-1.000000	-1.000000	-1.000000	-1.000000	-1.000000	-1.000000	36.965517	0.000000	-1.000000	-1.000000	670630.000000	1774294878.827625
-27914.625000	-29727.675000	-23549.265000	-39596.625000	-48195.180000	-67039.290000	-39379.905000	-18169.380000	1.023646	-0.235340	-5.892142	-10.276729	-11.467588	-10.192777	-4.298493	1.294351	-7.340060	7.370580	-3.021480	0.902158	-0.306274	0.283080	-1.000000	-1.000000	-1.000000	-1.000000	-1.000000	-1.000000	-1.000000	36.965517	0.000000	-1.000000	-1.000000	670631.000000	1774294878.827664
-27917.415000	-29666.520000	-23518.800000	-39575.970000	-48183.030000	-67033.485000	-39374.820000	-18155.475000	11.398564	4.554202	-3.290748	-8.044708	-8.374223	-7.549448	-5.386630	0.596051	-7.340060	7.370580	-3.021480	0.902158	-0.306274	0.283080	-1.000000	-1.000000	-1.000000	-1.000000	-1.000000	-1.000000	-1.000000	36.965517	0.000000	-1.000000	-1.000000	670632.000000	1774294878.831609
-27918.855000	-29661.975000	-23520.555000	-39574.395000	-48179.430000	-67027.365000	-39360.420000	-18136.305000	21.577827	10.465315	1.992020	-1.951199	-1.730881	-2.158153	-4.157963	1.599253	-7.340060	7.370580	-3.021480	0.902158	-0.306274	0.283080	-1.000000	-1.000000	-1.000000	-1.000000	-1.000000	-1.000000	-1.000000	36.965517	0.000000	-1.000000	-1.000000	670633.000000	1774294878.831620
-27958.995000	-29688.705000	-23545.530000	-39593.430000	-48189.195000	-67032.990000	-39358.530000	-18155.205000	21.817640	14.434251	7.661438	5.515636	5.622840	4.165679	-0.323819	3.694627	-4.761120	8.698200	-3.631880	0.902097	-0.307433	0.277709	-1.000000	-1.000000	-1.000000	-1.000000	-1.000000	-1.000000	-1.000000	36.965517	0.000000	-1.000000	-1.000000	670634.000000	1774294878.835743
-27965.655000	-29706.975000	-23542.515000	-39592.485000	-48190.770000	-67036.815000	-39360.150000	-18158.670000	8.453865	11.487971	9.966792	10.455159	10.469132	9.201255	4.435270	4.346289	-4.761120	8.698200	-3.631880	0.902097	-0.307433	0.277709	-1.000000	-1.000000	-1.000000	-1.000000	-1.000000	-1.000000	-1.000000	36.965517	0.000000	-1.000000	-1.000000	670635.000000	1774294878.835754
-27949.590000	-29704.995000	-23539.095000	-39587.490000	-48185.955000	-67031.415000	-39358.980000	-18152.055000	-12.079816	1.387798	8.008734	11.184028	11.640613	11.440594	7.440786	1.740400	-4.761120	8.698200	-3.631880	0.902097	-0.307433	0.277709	-1.000000	-1.000000	-1.000000	-1.000000	-1.000000	-1.000000	-1.000000	36.965517	0.000000	-1.000000	-1.000000	670636.000000	1774294878.839779
-27943.425000	-29681.145000	-23539.230000	-39588.795000	-48188.565000	-67033.665000	-39363.705000	-18156.420000	-26.487477	-9.635532	3.856998	8.654818	9.804215	10.424606	7.225892	-2.723543	-4.761120	8.698200	-3.631880	0.902097	-0.307433	0.277709	-1.000000	-1.000000	-1.000000	-1.000000	-1.000000	-1.000000	-1.000000	36.965517	0.000000	-1.000000	-1.000000	670637.000000	1774294878.839789
-27965.205000	-29701.620000	-23539.590000	-39585.645000	-48184.695000	-67028.985000	-39366.090000	-18167.355000	-25.858540	-14.809786	-0.592293	4.113306	5.568006	6.183919	4.210714	-5.934234	-4.761120	8.698200	-3.631880	0.902097	-0.307433	0.277709	-1.000000	-1.000000	-1.000000	-1.000000	-1.000000	-1.000000	-1.000000	36.965517	0.000000	-1.000000	-1.000000	670638.000000	1774294878.847807
-27964.170000	-29698.470000	-23526.090000	-39572.595000	-48171.960000	-67016.205000	-39361.995000	-18169.110000	-14.914369	-12.986528	-4.259274	-1.107283	-0.105528	-0.050324	0.103639	-6.516454	-4.761120	8.698200	-3.631880	0.902097	-0.307433	0.277709	-1.000000	-1.000000	-1.000000	-1.000000	-1.000000	-1.000000	-1.000000	36.965517	0.000000	-1.000000	-1.000000	670639.000000	1774294878.847820
-27961.200000	-29696.400000	-23518.755000	-39566.250000	-48167.865000	-67012.650000	-39363.480000	-18180.405000	-5.065701	-7.984265	-6.332654	-5.228605	-5.198714	-5.615059	-3.158057	-5.578377	-4.761120	8.698200	-3.631880	0.902097	-0.307433	0.277709	-1.000000	-1.000000	-1.000000	-1.000000	-1.000000	-1.000000	-1.000000	36.965517	0.000000	-1.000000	-1.000000	670640.000000	1774294878.847832
-27962.505000	-29688.840000	-23508.495000	-39561.120000	-48165.435000	-67009.590000	-39360.510000	-18189.855000	-0.935373	-3.869754	-6.626556	-7.206375	-8.084268	-8.410300	-4.719214	-4.828898	-4.761120	8.698200	-3.631880	0.902097	-0.307433	0.277709	-1.000000	-1.000000	-1.000000	-1.000000	-1.000000	-1.000000	-1.000000	36.965517	0.000000	-1.000000	-1.000000	670641.000000	1774294878.847838
-27983.430000	-29693.610000	-23515.515000	-39575.745000	-48178.665000	-67022.685000	-39361.500000	-18192.780000	0.982596	-1.740823	-5.319199	-7.205163	-8.604871	-8.347224	-4.957294	-4.463330	-4.761120	8.698200	-3.631880	0.902097	-0.307433	0.277709	-1.000000	-1.000000	-1.000000	-1.000000	-1.000000	-1.000000	-1.000000	36.965517	0.000000	-1.000000	-1.000000	670642.000000	1774294878.851629
-27979.920000	-29698.110000	-23538.060000	-39594.015000	-48189.555000	-67034.970000	-39358.620000	-18167.670000	4.802601	0.369395	-2.768527	-5.907799	-7.409454	-6.619298	-4.345081	-2.410001	-4.761120	8.698200	-3.631880	0.902097	-0.307433	0.277709	-1.000000	-1.000000	-1.000000	-1.000000	-1.000000	-1.000000	-1.000000	36.965517	0.000000	-1.000000	-1.000000	670643.000000	1774294878.851640
-27955.440000	-29701.620000	-23560.650000	-39595.275000	-48186.270000	-67036.095000	-39360.690000	-18137.790000	10.968655	4.251312	-0.396650	-3.983464	-4.929159	-4.201003	-2.877003	3.462511	-0.061040	7.965720	-4.257540	0.902586	-0.304504	0.273681	-1.000000	-1.000000	-1.000000	-1.000000	-1.000000	-1.000000	-1.000000	36.965517	0.000000	-1.000000	-1.000000	670644.000000	1774294878.857954
-27955.080000	-29707.695000	-23544.270000	-39581.820000	-48178.845000	-67029.435000	-39362.895000	-18135.135000	16.791868	8.543554	0.401072	-1.583794	-1.262183	-1.299873	-0.677826	11.686323	-0.061040	7.965720	-4.257540	0.902586	-0.304504	0.273681	-1.000000	-1.000000	-1.000000	-1.000000	-1.000000	-1.000000	-1.000000	36.965517	0.000000	-1.000000	-1.000000	670645.000000	1774294878.857967
-27954.090000	-29715.795000	-23525.145000	-39563.055000	-48162.195000	-67012.830000	-39358.215000	-18141.210000	18.842031	9.971616	0.656812	1.684095	3.145953	2.082157	1.702512	17.226642	-0.061040	7.965720	-4.257540	0.902586	-0.304504	0.273681	-1.000000	-1.000000	-1.000000	-1.000000	-1.000000	-1.000000	-1.000000	36.965517	0.000000	-1.000000	-1.000000	670646.000000	1774294878.859913
-27953.190000	-29721.195000	-23521.320000	-39558.960000	-48155.130000	-67003.650000	-39354.480000	-18149.040000	15.010736	7.134845	2.301057	5.476078	7.031981	5.415940	3.688292	15.682527	-0.061040	7.965720	-4.257540	0.902586	-0.304504	0.273681	-1.000000	-1.000000	-1.000000	-1.000000	-1.000000	-1.000000	-1.000000	36.965517	0.000000	-1.000000	-1.000000	670647.000000	1774294878.859923
-27956.745000	-29675.880000	-23520.240000	-39564.225000	-48161.970000	-67008.825000	-39353.895000	-18151.605000	5.320716	2.306344	4.672990	7.689274	8.390790	7.206156	4.685196	6.786956	-0.061040	7.965720	-4.257540	0.902586	-0.304504	0.273681	-1.000000	-1.000000	-1.000000	-1.000000	-1.000000	-1.000000	-1.000000	36.965517	0.000000	-1.000000	-1.000000	670648.000000	1774294878.863578
-27978.120000	-29667.645000	-23531.670000	-39576.060000	-48173.985000	-67018.230000	-39352.455000	-18166.005000	-7.573661	-0.898254	4.977955	5.917493	5.616748	5.772696	4.108547	-5.511537	-0.061040	7.965720	-4.257540	0.902586	-0.304504	0.273681	-1.000000	-1.000000	-1.000000	-1.000000	-1.000000	-1.000000	-1.000000	36.965517	0.000000	-1.000000	-1.000000	670649.000000	1774294878.863590
-27978.120000	-29711.385000	-23529.285000	-39569.715000	-48165.120000	-67011.120000	-39347.955000	-18176.355000	-18.426000	-2.009777	1.848454	0.440522	-0.341377	1.358768	1.972723	-15.687457	-0.061040	7.965720	-4.257540	0.902586	-0.304504	0.273681	-1.000000	-1.000000	-1.000000	-1.000000	-1.000000	-1.000000	-1.000000	36.965517	0.000000	-1.000000	-1.000000	670650.000000	1774294878.867532
-27991.215000	-29728.620000	-23527.980000	-39576.420000	-48164.670000	-67012.380000	-39351.600000	-18174.960000	-21.673836	-3.762674	-2.444855	-4.956487	-5.555826	-3.100682	-0.873987	-19.600737	-0.061040	7.965720	-4.257540	0.902586	-0.304504	0.273681	-1.000000	-1.000000	-1.000000	-1.000000	-1.000000	-1.000000	-1.000000	36.965517	0.000000	-1.000000	-1.000000	670651.000000	1774294878.867546
-27952.380000	-29668.770000	-23529.870000	-39595.995000	-48181.905000	-67028.760000	-39358.980000	-18141.660000	-15.293253	-6.004400	-3.951494	-6.566586	-6.649361	-4.712668	-3.368507	-15.941490	-0.061040	7.965720	-4.257540	0.902586	-0.304504	0.273681	-1.000000	-1.000000	-1.000000	-1.000000	-1.000000	-1.000000	-1.000000	36.965517	0.000000	-1.000000	-1.000000	670652.000000	1774294878.871662
-27934.020000	-29667.195000	-23523.120000	-39587.625000	-48185.145000	-67032.720000	-39354.480000	-18128.340000	-2.359865	-4.560390	-1.257094	-4.352190	-4.183555	-3.580287	-4.658301	-6.434704	-0.061040	7.965720	-4.257540	0.902586	-0.304504	0.273681	-1.000000	-1.000000	-1.000000	-1.000000	-1.000000	-1.000000	-1.000000	36.965517	0.000000	-1.000000	-1.000000	670653.000000	1774294878.871673
-27961.290000	-29702.700000	-23526.765000	-39577.365000	-48174.120000	-67021.245000	-39350.205000	-18152.910000	10.534033	1.023108	2.932824	-0.711329	-0.963415	-1.677333	-4.034261	4.505134	3.830260	6.592320	-5.997180	0.903989	-0.305358	0.270995	-1.000000	-1.000000	-1.000000	-1.000000	-1.000000	-1.000000	-1.000000	36.827586	0.000000	-1.000000	-1.000000	670654.000000	1774294878.877081
-27960.840000	-29694.105000	-23537.655000	-39576.240000	-48171.960000	-67017.510000	-39354.570000	-18163.035000	16.581301	5.544284	4.289290	2.159959	1.193791	-0.289946	-1.632973	11.590220	3.830260	6.592320	-5.997180	0.903989	-0.305358	0.270995	-1.000000	-1.000000	-1.000000	-1.000000	-1.000000	-1.000000	-1.000000	36.827586	0.000000	-1.000000	-1.000000	670655.000000	1774294878.877094
-27949.770000	-29677.230000	-23513.040000	-39551.085000	-48155.805000	-67004.820000	-39350.295000	-18145.395000	13.359948	5.470001	1.326011	3.429893	2.106013	0.472949	1.133684	12.389817	3.830260	6.592320	-5.997180	0.903989	-0.305358	0.270995	-1.000000	-1.000000	-1.000000	-1.000000	-1.000000	-1.000000	-1.000000	36.827586	0.000000	-1.000000	-1.000000	670656.000000	1774294878.881460
-27975.195000	-29683.170000	-23504.895000	-39546.315000	-48146.130000	-66996.720000	-39342.600000	-18146.115000	4.196391	1.415456	-2.878139	3.892669	2.743884	1.301524	2.930627	8.876543	3.830260	6.592320	-5.997180	0.903989	-0.305358	0.270995	-1.000000	-1.000000	-1.000000	-1.000000	-1.000000	-1.000000	-1.000000	36.827586	0.000000	-1.000000	-1.000000	670657.000000	1774294878.881472
-27970.065000	-29685.195000	-23506.335000	-39557.790000	-48157.155000	-67008.330000	-39345.840000	-18148.770000	-5.224779	-4.290100	-4.481696	4.114529	3.716455	2.545036	3.366857	4.450203	3.830260	6.592320	-5.997180	0.903989	-0.305358	0.270995	-1.000000	-1.000000	-1.000000	-1.000000	-1.000000	-1.000000	-1.000000	36.827586	0.000000	-1.000000	-1.000000	670658.000000	1774294878.883487
-27973.485000	-29710.845000	-23532.120000	-39585.915000	-48184.830000	-67035.420000	-39358.440000	-18174.195000	-10.054915	-8.066851	-3.174586	2.813610	3.557774	2.803165	2.273198	0.669178	3.830260	6.592320	-5.997180	0.903989	-0.305358	0.270995	-1.000000	-1.000000	-1.000000	-1.000000	-1.000000	-1.000000	-1.000000	36.827586	0.000000	-1.000000	-1.000000	670659.000000	1774294878.883510
-27972.585000	-29724.570000	-23546.700000	-39591.990000	-48188.745000	-67039.065000	-39360.105000	-18171.990000	-8.604083	-7.660306	-1.501787	-0.896840	0.643995	0.627768	-0.159494	-3.009064	3.830260	6.592320	-5.997180	0.903989	-0.305358	0.270995	-1.000000	-1.000000	-1.000000	-1.000000	-1.000000	-1.000000	-1.000000	36.827586	0.000000	-1.000000	-1.000000	670660.000000	1774294878.887531
-27972.945000	-29718.720000	-23550.345000	-39584.430000	-48180.420000	-67031.865000	-39358.170000	-18168.795000	-3.752116	-4.789719	-1.156489	-4.914277	-3.385176	-2.464563	-2.535919	-7.128431	3.830260	6.592320	-5.997180	0.903989	-0.305358	0.270995	-1.000000	-1.000000	-1.000000	-1.000000	-1.000000	-1.000000	-1.000000	36.827586	0.000000	-1.000000	-1.000000	670661.000000	1774294878.887554
-27967.005000	-29690.190000	-23552.505000	-39582.990000	-48172.770000	-67022.145000	-39355.695000	-18170.370000	0.252882	-1.295223	-1.574227	-6.242261	-5.010504	-3.365865	-3.190086	-10.216320	3.830260	6.592320	-5.997180	0.903989	-0.305358	0.270995	-1.000000	-1.000000	-1.000000	-1.000000	-1.000000	-1.000000	-1.000000	36.827586	0.000000	-1.000000	-1.000000	670662.000000	1774294878.892752
-27970.830000	-29689.965000	-23545.080000	-39575.250000	-48167.820000	-67015.395000	-39355.470000	-18170.640000	2.353636	3.830301	-1.334993	-4.402928	-3.108400	-1.269802	-1.816369	-9.335339	3.830260	6.592320	-5.997180	0.903989	-0.305358	0.270995	-1.000000	-1.000000	-1.000000	-1.000000	-1.000000	-1.000000	-1.000000	36.827586	0.000000	-1.000000	-1.000000	670663.000000	1774294878.892771
-27996.030000	-29712.870000	-23528.295000	-39559.455000	-48163.500000	-67009.005000	-39351.510000	-18169.650000	3.187002	9.691774	0.573444	-0.957072	0.320223	1.807521	0.570489	-3.405181	9.262820	5.432560	-6.149780	0.905271	-0.305236	0.270873	-1.000000	-1.000000	-1.000000	-1.000000	-1.000000	-1.000000	-1.000000	36.827586	0.000000	-1.000000	-1.000000	670664.000000	1774294878.896669
-28004.265000	-29728.620000	-23532.300000	-39578.265000	-48178.395000	-67019.625000	-39354.165000	-18170.010000	2.197906	11.169845	3.549370	2.031685	2.414517	3.288206	2.537307	4.569238	9.262820	5.432560	-6.149780	0.905271	-0.305236	0.270873	-1.000000	-1.000000	-1.000000	-1.000000	-1.000000	-1.000000	-1.000000	36.827586	0.000000	-1.000000	-1.000000	670665.000000	1774294878.896687
-28007.955000	-29746.305000	-23542.875000	-39599.505000	-48185.730000	-67025.250000	-39357.630000	-18173.115000	-0.165335	5.169112	5.193723	2.489472	1.564096	1.940201	2.860657	9.968560	9.262820	5.432560	-6.149780	0.905271	-0.305236	0.270873	-1.000000	-1.000000	-1.000000	-1.000000	-1.000000	-1.000000	-1.000000	36.827586	0.000000	-1.000000	-1.000000	670666.000000	1774294878.899623
-27946.890000	-29668.995000	-23542.290000	-39611.655000	-48197.430000	-67040.730000	-39364.920000	-18167.445000	-0.734828	-3.439418	4.031975	0.196554	-1.201732	-1.184417	1.326174	10.703952	9.262820	5.432560	-6.149780	0.905271	-0.305236	0.270873	-1.000000	-1.000000	-1.000000	-1.000000	-1.000000	-1.000000	-1.000000	36.827586	0.000000	-1.000000	-1.000000	670667.000000	1774294878.899636
-27947.115000	-29701.395000	-23559.840000	-39607.470000	-48201.075000	-67049.820000	-39364.425000	-18159.075000	3.158238	-5.897308	1.374845	-2.041034	-2.976180	-3.576456	-0.841470	8.096465	9.262820	5.432560	-6.149780	0.905271	-0.305236	0.270873	-1.000000	-1.000000	-1.000000	-1.000000	-1.000000	-1.000000	-1.000000	36.827586	0.000000	-1.000000	-1.000000	670668.000000	1774294878.903589
-27980.055000	-29718.225000	-23541.885000	-39582.765000	-48182.535000	-67035.240000	-39358.665000	-18167.670000	8.648742	-0.994646	-0.390745	-0.856015	-1.603226	-3.293134	-1.895864	4.023608	9.262820	5.432560	-6.149780	0.905271	-0.305236	0.270873	-1.000000	-1.000000	-1.000000	-1.000000	-1.000000	-1.000000	-1.000000	36.827586	0.000000	-1.000000	-1.000000	670669.000000	1774294878.903599
-27994.905000	-29707.425000	-23524.515000	-39564.135000	-48165.480000	-67019.670000	-39357.090000	-18175.950000	8.736041	3.896759	0.150970	4.154421	2.643042	-0.156906	-1.122770	-1.122633	9.262820	5.432560	-6.149780	0.905271	-0.305236	0.270873	-1.000000	-1.000000	-1.000000	-1.000000	-1.000000	-1.000000	-1.000000	36.827586	0.000000	-1.000000	-1.000000	670670.000000	1774294878.908274
-27969.570000	-29690.010000	-23511.915000	-39556.530000	-48162.240000	-67017.510000	-39361.590000	-18168.120000	1.376041	3.722203	2.562791	9.645875	7.105756	3.954485	0.540615	-6.393475	9.262820	5.432560	-6.149780	0.905271	-0.305236	0.270873	-1.000000	-1.000000	-1.000000	-1.000000	-1.000000	-1.000000	-1.000000	36.827586	0.000000	-1.000000	-1.000000	670671.000000	1774294878.908286
-27920.565000	-29681.460000	-23516.370000	-39566.160000	-48171.780000	-67021.965000	-39357.855000	-18139.140000	-6.717940	0.266503	4.408072	10.927283	8.253318	5.968706	1.570196	-8.732845	9.262820	5.432560	-6.149780	0.905271	-0.305236	0.270873	-1.000000	-1.000000	-1.000000	-1.000000	-1.000000	-1.000000	-1.000000	36.827586	0.000000	-1.000000	-1.000000	670672.000000	1774294878.911582
-27953.055000	-29702.790000	-23532.885000	-39580.245000	-48181.500000	-67027.500000	-39360.645000	-18165.195000	-8.179752	-2.748651	2.662716	5.439793	4.314392	4.012821	1.292812	-6.358268	9.262820	5.432560	-6.149780	0.905271	-0.305236	0.270873	-1.000000	-1.000000	-1.000000	-1.000000	-1.000000	-1.000000	-1.000000	36.827586	0.000000	-1.000000	-1.000000	670673.000000	1774294878.911592
-27973.305000	-29703.780000	-23532.795000	-39579.390000	-48179.385000	-67026.735000	-39359.745000	-18175.590000	-3.732415	-3.921514	-3.196565	-4.474729	-2.760702	-0.717906	0.089810	-1.911243	10.468360	4.165980	-4.898460	0.907041	-0.304626	0.279235	-1.000000	-1.000000	-1.000000	-1.000000	-1.000000	-1.000000	-1.000000	36.827586	0.000000	-1.000000	-1.000000	670674.000000	1774294878.915532
-27969.615000	-29697.165000	-23529.645000	-39577.590000	-48177.945000	-67027.545000	-39358.215000	-18167.580000	0.221034	-3.816613	-9.486115	-12.350162	-8.340039	-4.788655	-1.070330	0.875224	10.468360	4.165980	-4.898460	0.907041	-0.304626	0.279235	-1.000000	-1.000000	-1.000000	-1.000000	-1.000000	-1.000000	-1.000000	36.827586	0.000000	-1.000000	-1.000000	670675.000000	1774294878.915542
-27938.790000	-29682.000000	-23521.905000	-39571.920000	-48172.275000	-67023.945000	-39350.835000	-18143.370000	-0.147309	-3.278405	-11.177131	-12.886172	-8.706562	-5.222003	-1.123131	1.718529	10.468360	4.165980	-4.898460	0.907041	-0.304626	0.279235	-1.000000	-1.000000	-1.000000	-1.000000	-1.000000	-1.000000	-1.000000	36.827586	0.000000	-1.000000	-1.000000	670676.000000	1774294878.919470
-27958.905000	-29687.715000	-23518.620000	-39566.655000	-48165.570000	-67016.880000	-39347.820000	-18165.555000	-3.085073	-2.123488	-6.394454	-6.405604	-3.882185	-1.713722	0.204739	2.135077	10.468360	4.165980	-4.898460	0.907041	-0.304626	0.279235	-1.000000	-1.000000	-1.000000	-1.000000	-1.000000	-1.000000	-1.000000	36.827586	0.000000	-1.000000	-1.000000	670677.000000	1774294878.919482
-27976.005000	-29701.215000	-23528.925000	-39578.670000	-48176.100000	-67026.690000	-39357.495000	-18175.590000	-4.884352	0.101503	1.655864	1.662472	2.218922	2.781153	1.682855	1.914374	10.468360	4.165980	-4.898460	0.907041	-0.304626	0.279235	-1.000000	-1.000000	-1.000000	-1.000000	-1.000000	-1.000000	-1.000000	36.827586	0.000000	-1.000000	-1.000000	670678.000000	1774294878.924915
-27979.605000	-29718.270000	-23545.980000	-39594.330000	-48192.120000	-67040.595000	-39367.530000	-18166.455000	-4.032762	1.679857	6.859072	5.175370	4.557048	4.006431	1.463374	0.460485	10.468360	4.165980	-4.898460	0.907041	-0.304626	0.279235	-1.000000	-1.000000	-1.000000	-1.000000	-1.000000	-1.000000	-1.000000	36.827586	0.000000	-1.000000	-1.000000	670679.000000	1774294878.924927
-27965.340000	-29708.100000	-23535.540000	-39582.810000	-48181.995000	-67029.885000	-39362.265000	-18156.375000	-1.602941	0.484280	5.775142	2.522901	1.589091	0.596447	-0.759981	-1.087108	10.468360	4.165980	-4.898460	0.907041	-0.304626	0.279235	-1.000000	-1.000000	-1.000000	-1.000000	-1.000000	-1.000000	-1.000000	36.827586	0.000000	-1.000000	-1.000000	670680.000000	1774294878.934467
-27972.135000	-29703.915000	-23523.840000	-39575.340000	-48176.865000	-67022.325000	-39360.915000	-18178.965000	0.658047	-2.125400	0.991382	-2.104652	-3.000383	-4.094385	-3.167979	-1.775726	10.468360	4.165980	-4.898460	0.907041	-0.304626	0.279235	-1.000000	-1.000000	-1.000000	-1.000000	-1.000000	-1.000000	-1.000000	36.827586	0.000000	-1.000000	-1.000000	670681.000000	1774294878.934479
-27980.460000	-29702.295000	-23507.550000	-39567.690000	-48171.465000	-67017.420000	-39356.865000	-18186.795000	2.388459	-2.480154	-1.971420	-3.294467	-4.342226	-5.569276	-3.724031	-1.934947	10.468360	4.165980	-4.898460	0.907041	-0.304626	0.279235	-1.000000	-1.000000	-1.000000	-1.000000	-1.000000	-1.000000	-1.000000	36.827586	0.000000	-1.000000	-1.000000	670682.000000	1774294878.934724
-28013.265000	-29748.015000	-23528.745000	-39578.715000	-48176.010000	-67023.405000	-39361.095000	-18182.880000	3.985689	0.184126	-0.624404	0.298122	-1.259177	-2.675867	-2.015144	-1.488845	10.468360	4.165980	-4.898460	0.907041	-0.304626	0.279235	-1.000000	-1.000000	-1.000000	-1.000000	-1.000000	-1.000000	-1.000000	36.827586	0.000000	-1.000000	-1.000000	670683.000000	1774294878.934733
-27967.905000	-29736.720000	-23575.005000	-39607.920000	-48196.395000	-67045.545000	-39367.845000	-18152.415000	4.659311	2.297833	1.869242	5.030174	3.221009	1.831485	0.584666	0.216656	9.186520	3.662400	-3.402980	0.907590	-0.299194	0.289611	-1.000000	-1.000000	-1.000000	-1.000000	-1.000000	-1.000000	-1.000000	36.827586	0.000000	-1.000000	-1.000000	670684.000000	1774294878.935508
-27945.720000	-29671.065000	-23549.445000	-39595.005000	-48190.230000	-67043.295000	-39366.675000	-18161.190000	4.272640	2.327875	1.288148	6.334463	5.237300	4.282590	2.209564	2.908114	9.186520	3.662400	-3.402980	0.907590	-0.299194	0.289611	-1.000000	-1.000000	-1.000000	-1.000000	-1.000000	-1.000000	-1.000000	36.827586	0.000000	-1.000000	-1.000000	670685.000000	1774294878.935528
-27976.770000	-29689.560000	-23535.000000	-39582.045000	-48181.500000	-67036.725000	-39364.785000	-18171.630000	4.142177	3.530416	-1.373462	3.657900	3.793827	3.511519	2.193481	4.955800	9.186520	3.662400	-3.402980	0.907590	-0.299194	0.289611	-1.000000	-1.000000	-1.000000	-1.000000	-1.000000	-1.000000	-1.000000	36.827586	0.000000	-1.000000	-1.000000	670686.000000	1774294878.939720
-28009.170000	-29709.675000	-23535.990000	-39577.005000	-48172.770000	-67025.880000	-39359.655000	-18175.140000	3.702785	6.600762	-2.000822	0.230841	1.096474	1.414333	1.504783	4.772610	9.186520	3.662400	-3.402980	0.907590	-0.299194	0.289611	-1.000000	-1.000000	-1.000000	-1.000000	-1.000000	-1.000000	-1.000000	36.827586	0.000000	-1.000000	-1.000000	670687.000000	1774294878.939727
-28003.005000	-29710.620000	-23536.845000	-39575.430000	-48169.395000	-67018.500000	-39359.340000	-18173.835000	0.805120	7.404308	0.509101	-1.213111	-0.303581	0.476905	1.412714	2.094522	9.186520	3.662400	-3.402980	0.907590	-0.299194	0.289611	-1.000000	-1.000000	-1.000000	-1.000000	-1.000000	-1.000000	-1.000000	36.827586	0.000000	-1.000000	-1.000000	670688.000000	1774294878.944013
-27959.670000	-29692.080000	-23526.045000	-39570.255000	-48167.280000	-67015.755000	-39361.230000	-18175.725000	-3.773084	3.653264	3.668398	-0.786734	-0.033117	1.129140	1.839751	-1.952729	9.186520	3.662400	-3.402980	0.907590	-0.299194	0.289611	-1.000000	-1.000000	-1.000000	-1.000000	-1.000000	-1.000000	-1.000000	36.827586	0.000000	-1.000000	-1.000000	670689.000000	1774294878.944031
-27987.165000	-29711.295000	-23523.255000	-39570.255000	-48170.610000	-67021.155000	-39367.080000	-18207.540000	-6.159989	-2.508288	4.711799	-0.194766	0.394298	1.664048	1.539804	-5.404072	9.186520	3.662400	-3.402980	0.907590	-0.299194	0.289611	-1.000000	-1.000000	-1.000000	-1.000000	-1.000000	-1.000000	-1.000000	36.827586	0.000000	-1.000000	-1.000000	670690.000000	1774294878.950249
-27986.355000	-29680.875000	-23502.420000	-39555.495000	-48161.520000	-67015.350000	-39362.220000	-18198.630000	-4.279827	-7.119791	3.132671	-0.302587	-0.164685	0.652174	-0.073405	-6.572156	9.186520	3.662400	-3.402980	0.907590	-0.299194	0.289611	-1.000000	-1.000000	-1.000000	-1.000000	-1.000000	-1.000000	-1.000000	36.827586	0.000000	-1.000000	-1.000000	670691.000000	1774294878.950259
-27966.105000	-29690.865000	-23525.730000	-39573.315000	-48173.220000	-67024.665000	-39358.575000	-18162.270000	0.341551	-6.969735	0.771226	-0.503082	-1.288365	-1.313132	-1.921721	-4.575496	9.186520	3.662400	-3.402980	0.907590	-0.299194	0.289611	-1.000000	-1.000000	-1.000000	-1.000000	-1.000000	-1.000000	-1.000000	36.827586	0.000000	-1.000000	-1.000000	670692.000000	1774294878.956614
-27944.730000	-29703.555000	-23527.035000	-39572.730000	-48169.665000	-67020.165000	-39348.585000	-18136.935000	4.400049	-3.264338	-0.668921	-0.281021	-1.931420	-2.508845	-2.339914	0.411624	9.186520	3.662400	-3.402980	0.907590	-0.299194	0.289611	-1.000000	-1.000000	-1.000000	-1.000000	-1.000000	-1.000000	-1.000000	36.827586	0.000000	-1.000000	-1.000000	670693.000000	1774294878.956626
-27944.055000	-29668.140000	-23511.510000	-39560.805000	-48159.450000	-67011.975000	-39347.415000	-18147.780000	5.216311	-0.796468	-1.421109	-0.135911	-1.651961	-2.021620	-0.914977	6.376246	10.651480	3.631880	-3.631880	0.907041	-0.300964	0.296996	-1.000000	-1.000000	-1.000000	-1.000000	-1.000000	-1.000000	-1.000000	36.827586	0.000000	-1.000000	-1.000000	670694.000000	1774294878.956639
-27936.990000	-29674.080000	-23532.570000	-39582.585000	-48180.510000	-67032.855000	-39364.515000	-18156.195000	3.437630	-0.768081	-2.660339	-0.978808	-1.136332	-0.830081	0.832128	9.901889	10.651480	3.631880	-3.631880	0.907041	-0.300964	0.296996	-1.000000	-1.000000	-1.000000	-1.000000	-1.000000	-1.000000	-1.000000	36.827586	0.000000	-1.000000	-1.000000	670695.000000	1774294878.956644
-27938.205000	-29707.155000	-23545.980000	-39592.395000	-48189.105000	-67037.265000	-39367.215000	-18149.310000	1.821755	-0.783801	-4.911456	-3.264977	-1.714641	-0.943244	0.857651	8.513842	10.651480	3.631880	-3.631880	0.907041	-0.300964	0.296996	-1.000000	-1.000000	-1.000000	-1.000000	-1.000000	-1.000000	-1.000000	36.827586	0.000000	-1.000000	-1.000000	670696.000000	1774294878.961313
-27949.995000	-29707.245000	-23539.365000	-39584.385000	-48181.680000	-67028.130000	-39363.930000	-18152.685000	0.520719	-0.599118	-7.165842	-5.875719	-3.388112	-2.732898	-1.017779	2.705317	10.651480	3.631880	-3.631880	0.907041	-0.300964	0.296996	-1.000000	-1.000000	-1.000000	-1.000000	-1.000000	-1.000000	-1.000000	36.827586	0.000000	-1.000000	-1.000000	670697.000000	1774294878.961345
-27951.615000	-29709.225000	-23536.665000	-39584.070000	-48181.410000	-67027.500000	-39361.185000	-18150.255000	-2.803940	-1.267508	-7.386024	-6.391930	-4.154315	-4.090434	-2.826053	-4.217986	10.651480	3.631880	-3.631880	0.907041	-0.300964	0.296996	-1.000000	-1.000000	-1.000000	-1.000000	-1.000000	-1.000000	-1.000000	36.827586	0.000000	-1.000000	-1.000000	670698.000000	1774294878.963484
-27968.445000	-29713.005000	-23534.640000	-39587.490000	-48184.155000	-67030.830000	-39361.545000	-18166.680000	-7.736193	-2.043397	-4.593362	-3.650587	-2.439283	-3.055435	-2.719857	-8.320553	10.651480	3.631880	-3.631880	0.907041	-0.300964	0.296996	-1.000000	-1.000000	-1.000000	-1.000000	-1.000000	-1.000000	-1.000000	36.827586	0.000000	-1.000000	-1.000000	670699.000000	1774294878.963495
-27975.600000	-29707.830000	-23534.100000	-39590.820000	-48186.990000	-67034.700000	-39362.805000	-18169.965000	-10.727263	-1.489503	0.248669	1.018453	1.066205	0.074676	-0.769181	-8.480891	10.651480	3.631880	-3.631880	0.907041	-0.300964	0.296996	-1.000000	-1.000000	-1.000000	-1.000000	-1.000000	-1.000000	-1.000000	36.827586	0.000000	-1.000000	-1.000000	670700.000000	1774294878.967452
-27961.020000	-29690.910000	-23534.460000	-39589.920000	-48186.405000	-67036.545000	-39358.980000	-18160.605000	-9.837812	1.010511	5.648814	5.591002	4.587612	3.605109	1.521110	-7.035762	10.651480	3.631880	-3.631880	0.907041	-0.300964	0.296996	-1.000000	-1.000000	-1.000000	-1.000000	-1.000000	-1.000000	-1.000000	36.827586	0.000000	-1.000000	-1.000000	670701.000000	1774294878.967460
-27971.145000	-29690.505000	-23528.565000	-39568.725000	-48165.255000	-67018.050000	-39351.690000	-18187.605000	-6.039767	4.593917	9.956960	8.785418	6.889119	6.081646	2.830026	-6.204196	10.651480	3.631880	-3.631880	0.907041	-0.300964	0.296996	-1.000000	-1.000000	-1.000000	-1.000000	-1.000000	-1.000000	-1.000000	36.827586	0.000000	-1.000000	-1.000000	670702.000000	1774294878.971908
-27990.315000	-29703.330000	-23518.890000	-39549.870000	-48144.645000	-66999.240000	-39351.420000	-18212.625000	-1.196872	6.442956	11.083577	9.937137	7.684019	7.070070	2.941221	-5.841334	10.651480	3.631880	-3.631880	0.907041	-0.300964	0.296996	-1.000000	-1.000000	-1.000000	-1.000000	-1.000000	-1.000000	-1.000000	36.827586	0.000000	-1.000000	-1.000000	670703.000000	1774294878.971919
-28021.545000	-29726.595000	-23530.950000	-39567.195000	-48161.790000	-67014.450000	-39362.400000	-18201.690000	2.922696	4.399291	8.347271	8.797647	7.089275	6.720346	2.329148	-4.236826	14.847980	3.326680	-2.441600	0.905332	-0.307861	0.301330	-1.000000	-1.000000	-1.000000	-1.000000	-1.000000	-1.000000	-1.000000	36.827586	0.000000	-1.000000	-1.000000	670704.000000	1774294878.975544
-27998.595000	-29711.790000	-23543.280000	-39589.065000	-48185.370000	-67032.405000	-39364.245000	-18166.815000	5.370273	0.117598	3.006506	4.829871	4.279978	4.282942	1.185428	0.496054	14.847980	3.326680	-2.441600	0.905332	-0.307861	0.301330	-1.000000	-1.000000	-1.000000	-1.000000	-1.000000	-1.000000	-1.000000	36.827586	0.000000	-1.000000	-1.000000	670705.000000	1774294878.975554
-27933.525000	-29712.465000	-23540.535000	-39589.065000	-48185.955000	-67032.765000	-39360.375000	-18139.815000	7.721840	-2.736152	-3.264720	-2.174594	-1.634519	-1.109856	-0.458725	8.706223	14.847980	3.326680	-2.441600	0.905332	-0.307861	0.301330	-1.000000	-1.000000	-1.000000	-1.000000	-1.000000	-1.000000	-1.000000	36.827586	0.000000	-1.000000	-1.000000	670706.000000	1774294878.979546
-27966.285000	-29726.955000	-23541.120000	-39587.040000	-48183.300000	-67031.415000	-39359.070000	-18157.095000	11.907005	-2.722184	-8.491050	-9.753912	-8.613648	-7.588958	-1.971241	17.354903	14.847980	3.326680	-2.441600	0.905332	-0.307861	0.301330	-1.000000	-1.000000	-1.000000	-1.000000	-1.000000	-1.000000	-1.000000	36.827586	0.000000	-1.000000	-1.000000	670707.000000	1774294878.979556
-27972.540000	-29688.660000	-23532.075000	-39579.795000	-48175.875000	-67027.095000	-39361.545000	-18180.405000	15.328467	-0.859545	-10.496959	-13.527971	-12.292683	-11.119075	-2.552946	20.539300	14.847980	3.326680	-2.441600	0.905332	-0.307861	0.301330	-1.000000	-1.000000	-1.000000	-1.000000	-1.000000	-1.000000	-1.000000	36.827586	0.000000	-1.000000	-1.000000	670708.000000	1774294878.986371
-27969.840000	-29675.205000	-23522.355000	-39572.550000	-48170.520000	-67025.835000	-39359.205000	-18180.855000	13.052089	1.963710	-7.995393	-10.843884	-9.933061	-9.170390	-2.065561	13.987389	14.847980	3.326680	-2.441600	0.905332	-0.307861	0.301330	-1.000000	-1.000000	-1.000000	-1.000000	-1.000000	-1.000000	-1.000000	36.827586	0.000000	-1.000000	-1.000000	670709.000000	1774294878.986383
-27953.595000	-29659.275000	-23520.195000	-39571.425000	-48170.025000	-67026.645000	-39357.810000	-18170.955000	4.178420	4.733332	-1.764752	-3.098305	-2.859137	-2.923512	-1.011168	-0.063385	14.847980	3.326680	-2.441600	0.905332	-0.307861	0.301330	-1.000000	-1.000000	-1.000000	-1.000000	-1.000000	-1.000000	-1.000000	36.827586	0.000000	-1.000000	-1.000000	670710.000000	1774294878.987531
-27956.070000	-29696.355000	-23535.720000	-39583.395000	-48180.195000	-67033.530000	-39357.900000	-18164.115000	-6.797597	4.992306	4.538286	4.582164	4.110500	3.374766	-0.089297	-13.199914	14.847980	3.326680	-2.441600	0.905332	-0.307861	0.301330	-1.000000	-1.000000	-1.000000	-1.000000	-1.000000	-1.000000	-1.000000	36.827586	0.000000	-1.000000	-1.000000	670711.000000	1774294878.987537
-27957.015000	-29708.325000	-23543.145000	-39589.425000	-48184.965000	-67036.365000	-39357.585000	-18142.425000	-13.702011	0.932728	6.686615	7.243098	6.486788	5.832353	0.469009	-17.261633	14.847980	3.326680	-2.441600	0.905332	-0.307861	0.301330	-1.000000	-1.000000	-1.000000	-1.000000	-1.000000	-1.000000	-1.000000	36.827586	0.000000	-1.000000	-1.000000	670712.000000	1774294878.991692
-27974.835000	-29701.980000	-23526.405000	-39574.035000	-48169.080000	-67020.705000	-39353.310000	-18145.845000	-13.659775	-5.280582	4.415808	5.048191	4.594860	4.650786	1.141044	-11.387483	14.847980	3.326680	-2.441600	0.905332	-0.307861	0.301330	-1.000000	-1.000000	-1.000000	-1.000000	-1.000000	-1.000000	-1.000000	36.827586	0.000000	-1.000000	-1.000000	670713.000000	1774294878.991699
-27971.100000	-29707.650000	-23509.755000	-39561.165000	-48157.785000	-67010.580000	-39354.570000	-18161.820000	-9.385246	-9.168500	1.528730	2.512519	2.686937	3.248640	2.113643	-2.617844	18.189920	4.242280	-0.137340	0.903745	-0.312621	0.305724	-1.000000	-1.000000	-1.000000	-1.000000	-1.000000	-1.000000	-1.000000	36.827586	0.000000	-1.000000	-1.000000	670714.000000	1774294878.995595
-27943.605000	-29687.130000	-23514.345000	-39567.420000	-48165.840000	-67016.340000	-39359.115000	-18163.440000	-5.370481	-8.260340	0.856566	2.490225	3.155756	3.493598	2.520909	1.470212	18.189920	4.242280	-0.137340	0.903745	-0.312621	0.305724	-1.000000	-1.000000	-1.000000	-1.000000	-1.000000	-1.000000	-1.000000	36.827586	0.000000	-1.000000	-1.000000	670715.000000	1774294878.995607
-27930.060000	-29665.485000	-23517.495000	-39572.235000	-48170.925000	-67020.120000	-39353.175000	-18140.265000	-1.909341	-2.772670	1.375114	3.366984	4.031130	3.821336	1.561732	0.534868	18.189920	4.242280	-0.137340	0.903745	-0.312621	0.305724	-1.000000	-1.000000	-1.000000	-1.000000	-1.000000	-1.000000	-1.000000	36.827586	0.000000	-1.000000	-1.000000	670716.000000	1774294878.999463
-27934.785000	-29688.930000	-23528.925000	-39579.930000	-48176.055000	-67026.600000	-39347.370000	-18130.410000	3.070433	4.058713	0.515538	2.224227	2.455016	2.082415	-0.150513	-0.043149	18.189920	4.242280	-0.137340	0.903745	-0.312621	0.305724	-1.000000	-1.000000	-1.000000	-1.000000	-1.000000	-1.000000	-1.000000	36.827586	0.000000	-1.000000	-1.000000	670717.000000	1774294878.999473
-27947.205000	-29700.000000	-23535.585000	-39596.355000	-48194.280000	-67047.660000	-39361.545000	-18155.475000	7.798481	6.668562	-2.598505	-1.706351	-1.937512	-1.943132	-1.553230	2.212115	18.189920	4.242280	-0.137340	0.903745	-0.312621	0.305724	-1.000000	-1.000000	-1.000000	-1.000000	-1.000000	-1.000000	-1.000000	36.827586	0.000000	-1.000000	-1.000000	670718.000000	1774294879.005092
-27977.670000	-29696.985000	-23545.305000	-39596.490000	-48188.070000	-67040.640000	-39359.070000	-18166.455000	7.753431	2.902122	-6.395069	-6.669420	-7.027089	-6.570873	-2.546966	4.072668	18.189920	4.242280	-0.137340	0.903745	-0.312621	0.305724	-1.000000	-1.000000	-1.000000	-1.000000	-1.000000	-1.000000	-1.000000	36.827586	0.000000	-1.000000	-1.000000	670719.000000	1774294879.005103
-28007.820000	-29705.040000	-23526.945000	-39567.645000	-48161.160000	-67016.970000	-39352.230000	-18181.170000	1.517886	-2.862170	-7.886283	-9.143816	-9.224143	-8.718963	-3.021474	2.339077	18.189920	4.242280	-0.137340	0.903745	-0.312621	0.305724	-1.000000	-1.000000	-1.000000	-1.000000	-1.000000	-1.000000	-1.000000	36.827586	0.000000	-1.000000	-1.000000	670720.000000	1774294879.007687
-27971.595000	-29677.455000	-23489.190000	-39529.620000	-48128.715000	-66985.560000	-39336.975000	-18192.375000	-6.394954	-4.447711	-4.330284	-5.611038	-5.421963	-5.498758	-2.007229	-2.428121	18.189920	4.242280	-0.137340	0.903745	-0.312621	0.305724	-1.000000	-1.000000	-1.000000	-1.000000	-1.000000	-1.000000	-1.000000	36.827586	0.000000	-1.000000	-1.000000	670721.000000	1774294879.007697
-27949.590000	-29676.420000	-23508.540000	-39550.995000	-48146.535000	-66998.115000	-39347.865000	-18201.240000	-8.534023	-0.022353	3.475076	3.135997	3.118837	2.176914	0.646885	-7.217622	18.189920	4.242280	-0.137340	0.903745	-0.312621	0.305724	-1.000000	-1.000000	-1.000000	-1.000000	-1.000000	-1.000000	-1.000000	36.827586	0.000000	-1.000000	-1.000000	670722.000000	1774294879.011584
-27971.280000	-29711.205000	-23547.780000	-39589.920000	-48184.380000	-67033.485000	-39369.555000	-18184.635000	-2.805009	6.099925	9.387858	10.127988	9.686501	8.400445	2.858614	-8.390901	18.189920	4.242280	-0.137340	0.903745	-0.312621	0.305724	-1.000000	-1.000000	-1.000000	-1.000000	-1.000000	-1.000000	-1.000000	36.827586	0.000000	-1.000000	-1.000000	670723.000000	1774294879.011597
-27976.455000	-29717.415000	-23550.705000	-39596.130000	-48190.680000	-67040.055000	-39365.595000	-18159.300000	4.594742	7.336809	7.627712	8.767270	8.293229	7.594795	2.362548	-3.637434	17.945760	4.257540	0.854560	0.904172	-0.312194	0.310790	-1.000000	-1.000000	-1.000000	-1.000000	-1.000000	-1.000000	-1.000000	36.827586	0.000000	-1.000000	-1.000000	670724.000000	1774294879.016953
-27985.050000	-29722.860000	-23548.725000	-39595.725000	-48189.735000	-67040.910000	-39361.365000	-18159.615000	7.158691	1.536315	-0.202498	0.323202	0.275602	0.625747	-0.337560	5.421803	17.945760	4.257540	0.854560	0.904172	-0.312194	0.310790	-1.000000	-1.000000	-1.000000	-1.000000	-1.000000	-1.000000	-1.000000	36.827586	0.000000	-1.000000	-1.000000	670725.000000	1774294879.016962
-27983.790000	-29729.610000	-23544.180000	-39592.485000	-48185.955000	-67039.290000	-39361.050000	-18165.465000	4.409170	-6.819999	-7.118214	-7.900026	-7.482753	-6.383079	-2.652205	13.241039	17.945760	4.257540	0.854560	0.904172	-0.312194	0.310790	-1.000000	-1.000000	-1.000000	-1.000000	-1.000000	-1.000000	-1.000000	36.827586	0.000000	-1.000000	-1.000000	670726.000000	1774294879.020917
-27964.035000	-29722.455000	-23560.245000	-39611.340000	-48205.755000	-67057.830000	-39374.415000	-18167.715000	0.417516	-11.166499	-8.118312	-10.095696	-9.553332	-8.341250	-2.832726	14.945569	17.945760	4.257540	0.854560	0.904172	-0.312194	0.310790	-1.000000	-1.000000	-1.000000	-1.000000	-1.000000	-1.000000	-1.000000	36.827586	0.000000	-1.000000	-1.000000	670727.000000	1774294879.020930
-27962.640000	-29718.450000	-23554.080000	-39605.895000	-48199.905000	-67053.060000	-39375.045000	-18172.080000	-0.259361	-8.217453	-3.649597	-6.217735	-6.019934	-5.201380	-1.313532	10.204904	17.945760	4.257540	0.854560	0.904172	-0.312194	0.310790	-1.000000	-1.000000	-1.000000	-1.000000	-1.000000	-1.000000	-1.000000	36.827586	0.000000	-1.000000	-1.000000	670728.000000	1774294879.023578
-27979.065000	-29709.495000	-23542.740000	-39593.025000	-48186.090000	-67038.795000	-39368.340000	-18175.050000	2.977911	0.381339	2.470175	-0.158529	-0.534048	-0.315753	0.447945	2.123921	17.945760	4.257540	0.854560	0.904172	-0.312194	0.310790	-1.000000	-1.000000	-1.000000	-1.000000	-1.000000	-1.000000	-1.000000	36.827586	0.000000	-1.000000	-1.000000	670729.000000	1774294879.023589
-27972.945000	-29700.090000	-23536.080000	-39586.815000	-48179.970000	-67029.390000	-39360.105000	-18166.050000	5.651561	9.447403	6.452312	4.397191	3.756660	3.461058	1.701942	-5.379722	17.945760	4.257540	0.854560	0.904172	-0.312194	0.310790	-1.000000	-1.000000	-1.000000	-1.000000	-1.000000	-1.000000	-1.000000	36.827586	0.000000	-1.000000	-1.000000	670730.000000	1774294879.027653
-27971.595000	-29696.850000	-23531.760000	-39583.305000	-48177.090000	-67026.330000	-39359.520000	-18165.825000	3.525679	13.954320	7.069058	6.515002	6.131521	5.550970	2.757566	-9.315593	17.945760	4.257540	0.854560	0.904172	-0.312194	0.310790	-1.000000	-1.000000	-1.000000	-1.000000	-1.000000	-1.000000	-1.000000	36.827586	0.000000	-1.000000	-1.000000	670731.000000	1774294879.027721
-27972.180000	-29692.395000	-23528.520000	-39579.840000	-48174.795000	-67025.475000	-39359.970000	-18171.090000	-2.417168	12.593524	5.993678	7.575258	7.619390	6.886721	3.989622	-9.383630	17.945760	4.257540	0.854560	0.904172	-0.312194	0.310790	-1.000000	-1.000000	-1.000000	-1.000000	-1.000000	-1.000000	-1.000000	36.827586	0.000000	-1.000000	-1.000000	670732.000000	1774294879.032037
-27993.960000	-29707.470000	-23524.920000	-39581.685000	-48178.350000	-67029.165000	-39359.250000	-18177.570000	-7.956712	6.901891	4.825541	8.216152	8.449025	7.608159	4.650290	-7.832786	17.945760	4.257540	0.854560	0.904172	-0.312194	0.310790	-1.000000	-1.000000	-1.000000	-1.000000	-1.000000	-1.000000	-1.000000	36.827586	0.000000	-1.000000	-1.000000	670733.000000	1774294879.032048
-27982.080000	-29717.460000	-23521.590000	-39582.315000	-48179.430000	-67032.270000	-39356.370000	-18167.805000	-9.974647	-1.185759	3.128391	6.982832	7.057638	6.287364	3.424392	-6.248893	12.818400	2.502640	0.152600	0.904905	-0.308532	0.317504	-1.000000	-1.000000	-1.000000	-1.000000	-1.000000	-1.000000	-1.000000	36.827586	0.000000	-1.000000	-1.000000	670734.000000	1774294879.035596
-27961.065000	-29707.110000	-23535.540000	-39585.690000	-48173.805000	-67026.735000	-39351.465000	-18156.330000	-7.393119	-8.908006	-0.001981	2.843722	2.724273	2.346872	0.454000	-3.620348	12.818400	2.502640	0.152600	0.904905	-0.308532	0.317504	-1.000000	-1.000000	-1.000000	-1.000000	-1.000000	-1.000000	-1.000000	36.827586	0.000000	-1.000000	-1.000000	670735.000000	1774294879.035606
-27960.345000	-29692.080000	-23537.565000	-39584.520000	-48169.890000	-67022.280000	-39349.440000	-18155.430000	-1.121230	-12.669033	-4.170745	-2.783516	-2.605586	-2.376450	-2.393175	1.251124	12.818400	2.502640	0.152600	0.904905	-0.308532	0.317504	-1.000000	-1.000000	-1.000000	-1.000000	-1.000000	-1.000000	-1.000000	36.827586	0.000000	-1.000000	-1.000000	670736.000000	1774294879.039536
-27975.240000	-29675.790000	-23516.865000	-39574.665000	-48166.695000	-67019.895000	-39351.015000	-18169.920000	5.626478	-10.436579	-7.564400	-7.388724	-6.520687	-5.756199	-3.693312	6.741371	12.818400	2.502640	0.152600	0.904905	-0.308532	0.317504	-1.000000	-1.000000	-1.000000	-1.000000	-1.000000	-1.000000	-1.000000	36.827586	0.000000	-1.000000	-1.000000	670737.000000	1774294879.039541
-27998.820000	-29694.735000	-23516.595000	-39568.590000	-48159.945000	-67015.755000	-39353.265000	-18172.125000	8.754682	-4.050183	-8.443424	-9.514038	-8.394945	-7.472461	-3.856515	9.358183	12.818400	2.502640	0.152600	0.904905	-0.308532	0.317504	-1.000000	-1.000000	-1.000000	-1.000000	-1.000000	-1.000000	-1.000000	36.827586	0.000000	-1.000000	-1.000000	670738.000000	1774294879.044667
-27988.335000	-29704.410000	-23530.275000	-39576.240000	-48163.995000	-67018.545000	-39357.450000	-18167.805000	6.156541	1.493442	-6.882367	-9.022960	-8.467411	-7.954330	-3.918186	7.361078	12.818400	2.502640	0.152600	0.904905	-0.308532	0.317504	-1.000000	-1.000000	-1.000000	-1.000000	-1.000000	-1.000000	-1.000000	36.827586	0.000000	-1.000000	-1.000000	670739.000000	1774294879.044676
-27944.865000	-29698.065000	-23537.565000	-39589.155000	-48179.295000	-67031.820000	-39361.905000	-18153.855000	0.508852	2.904287	-4.245580	-6.488776	-6.810726	-7.036488	-3.899549	2.484396	12.818400	2.502640	0.152600	0.904905	-0.308532	0.317504	-1.000000	-1.000000	-1.000000	-1.000000	-1.000000	-1.000000	-1.000000	36.827586	0.000000	-1.000000	-1.000000	670740.000000	1774294879.048506
-27947.745000	-29691.900000	-23531.085000	-39591.585000	-48181.095000	-67032.720000	-39360.420000	-18166.365000	-2.517644	1.586857	-1.402112	-2.921984	-3.847150	-4.515450	-3.044215	-2.099966	12.818400	2.502640	0.152600	0.904905	-0.308532	0.317504	-1.000000	-1.000000	-1.000000	-1.000000	-1.000000	-1.000000	-1.000000	36.827586	0.000000	-1.000000	-1.000000	670741.000000	1774294879.048516
-27969.390000	-29693.655000	-23529.825000	-39595.140000	-48183.120000	-67035.195000	-39360.960000	-18185.535000	-0.961013	0.779680	1.496952	0.630701	-0.367994	-0.799061	-1.095174	-4.944751	12.818400	2.502640	0.152600	0.904905	-0.308532	0.317504	-1.000000	-1.000000	-1.000000	-1.000000	-1.000000	-1.000000	-1.000000	36.827586	0.000000	-1.000000	-1.000000	670742.000000	1774294879.051528
-27978.255000	-29719.395000	-23545.170000	-39605.715000	-48193.470000	-67047.030000	-39366.000000	-18182.790000	1.310842	1.526897	3.961590	3.353303	2.733633	2.998202	1.222673	-6.441370	12.818400	2.502640	0.152600	0.904905	-0.308532	0.317504	-1.000000	-1.000000	-1.000000	-1.000000	-1.000000	-1.000000	-1.000000	36.827586	0.000000	-1.000000	-1.000000	670743.000000	1774294879.051540
-27987.975000	-29728.890000	-23554.575000	-39602.430000	-48191.445000	-67045.950000	-39366.315000	-18181.665000	-0.016681	1.836089	5.074247	4.803428	4.549224	5.388747	2.858127	-6.557208	6.058220	0.518840	1.373400	0.903013	-0.304443	0.324340	-1.000000	-1.000000	-1.000000	-1.000000	-1.000000	-1.000000	-1.000000	36.827586	0.000000	-1.000000	-1.000000	670744.000000	1774294879.057204
-27966.825000	-29710.530000	-23546.745000	-39590.910000	-48180.195000	-67033.980000	-39365.280000	-18175.230000	-4.287368	0.041254	4.492130	5.196477	4.894066	5.749899	3.358830	-4.369565	6.058220	0.518840	1.373400	0.903013	-0.304443	0.324340	-1.000000	-1.000000	-1.000000	-1.000000	-1.000000	-1.000000	-1.000000	36.827586	0.000000	-1.000000	-1.000000	670745.000000	1774294879.057216
-27952.830000	-29687.355000	-23519.520000	-39569.265000	-48160.215000	-67015.125000	-39358.845000	-18174.870000	-6.305720	-1.995216	2.944495	5.059247	4.546619	4.909538	3.060851	0.349387	6.058220	0.518840	1.373400	0.903013	-0.304443	0.324340	-1.000000	-1.000000	-1.000000	-1.000000	-1.000000	-1.000000	-1.000000	36.827586	0.000000	-1.000000	-1.000000	670746.000000	1774294879.068097
-27992.925000	-29686.635000	-23500.125000	-39550.050000	-48143.205000	-67001.760000	-39360.600000	-18194.850000	-3.077579	-1.103549	2.057101	4.854260	4.414112	4.092733	2.506784	5.557263	6.058220	0.518840	1.373400	0.903013	-0.304443	0.324340	-1.000000	-1.000000	-1.000000	-1.000000	-1.000000	-1.000000	-1.000000	36.827586	0.000000	-1.000000	-1.000000	670747.000000	1774294879.068111
-27998.055000	-29709.000000	-23511.780000	-39561.750000	-48154.725000	-67012.470000	-39366.810000	-18188.865000	1.553789	2.539847	2.871877	4.692560	4.581403	3.610946	1.854445	7.761155	6.058220	0.518840	1.373400	0.903013	-0.304443	0.324340	-1.000000	-1.000000	-1.000000	-1.000000	-1.000000	-1.000000	-1.000000	36.827586	0.000000	-1.000000	-1.000000	670748.000000	1774294879.068123
-27980.685000	-29734.965000	-23545.080000	-39595.815000	-48183.210000	-67034.655000	-39362.715000	-18166.995000	2.432893	4.796306	3.574873	3.339998	3.693714	2.414552	0.991783	5.845217	6.058220	0.518840	1.373400	0.903013	-0.304443	0.324340	-1.000000	-1.000000	-1.000000	-1.000000	-1.000000	-1.000000	-1.000000	36.827586	0.000000	-1.000000	-1.000000	670749.000000	1774294879.068128
-27977.805000	-29747.475000	-23549.715000	-39602.205000	-48190.095000	-67040.415000	-39353.085000	-18148.635000	0.235996	2.216626	0.938909	-0.864427	0.144657	-0.696905	0.110685	2.771516	6.058220	0.518840	1.373400	0.903013	-0.304443	0.324340	-1.000000	-1.000000	-1.000000	-1.000000	-1.000000	-1.000000	-1.000000	36.827586	0.000000	-1.000000	-1.000000	670750.000000	1774294879.068135
-27990.315000	-29749.950000	-23541.075000	-39594.780000	-48183.840000	-67036.905000	-39354.615000	-18163.665000	-0.832074	-3.535936	-4.731394	-6.682108	-5.108747	-4.864455	-0.385123	1.623282	6.058220	0.518840	1.373400	0.903013	-0.304443	0.324340	-1.000000	-1.000000	-1.000000	-1.000000	-1.000000	-1.000000	-1.000000	36.827586	0.000000	-1.000000	-1.000000	670751.000000	1774294879.068140
-27934.740000	-29679.120000	-23534.775000	-39595.770000	-48185.730000	-67039.245000	-39359.520000	-18155.070000	1.482406	-6.265533	-8.728701	-10.022263	-8.555626	-7.311533	-0.577976	1.742041	6.058220	0.518840	1.373400	0.903013	-0.304443	0.324340	-1.000000	-1.000000	-1.000000	-1.000000	-1.000000	-1.000000	-1.000000	36.827586	0.000000	-1.000000	-1.000000	670752.000000	1774294879.071796
-27940.905000	-29660.895000	-23528.250000	-39591.765000	-48182.490000	-67037.355000	-39361.860000	-18162.540000	6.418819	-1.052191	-7.140359	-8.379748	-7.845552	-6.366527	-1.013416	0.683210	6.058220	0.518840	1.373400	0.903013	-0.304443	0.324340	-1.000000	-1.000000	-1.000000	-1.000000	-1.000000	-1.000000	-1.000000	36.827586	0.000000	-1.000000	-1.000000	670753.000000	1774294879.071802
-27953.415000	-29673.900000	-23530.815000	-39589.965000	-48181.275000	-67035.240000	-39363.345000	-18169.650000	10.065805	8.766100	-1.329453	-3.330845	-4.015503	-3.149528	-1.937291	-2.365817	2.594200	-1.587040	1.541260	0.901670	-0.305663	0.325011	-1.000000	-1.000000	-1.000000	-1.000000	-1.000000	-1.000000	-1.000000	36.827586	0.000000	-1.000000	-1.000000	670754.000000	1774294879.079826
-27967.815000	-29704.995000	-23542.425000	-39591.495000	-48179.475000	-67030.920000	-39364.695000	-18187.380000	7.905194	13.298758	3.371487	1.338946	-0.034815	-0.097047	-2.962874	-6.233590	2.594200	-1.587040	1.541260	0.901670	-0.305663	0.325011	-1.000000	-1.000000	-1.000000	-1.000000	-1.000000	-1.000000	-1.000000	36.827586	0.000000	-1.000000	-1.000000	670755.000000	1774294879.079839
-27968.805000	-29699.820000	-23533.110000	-39580.020000	-48168.855000	-67021.020000	-39363.930000	-18193.185000	0.344004	7.098299	3.380154	3.268825	2.163361	1.543676	-3.260999	-8.861042	2.594200	-1.587040	1.541260	0.901670	-0.305663	0.325011	-1.000000	-1.000000	-1.000000	-1.000000	-1.000000	-1.000000	-1.000000	36.827586	0.000000	-1.000000	-1.000000	670756.000000	1774294879.079974
-27976.140000	-29698.920000	-23532.075000	-39583.395000	-48174.120000	-67027.545000	-39365.325000	-18183.375000	-7.921201	-4.836891	0.655764	3.516783	3.258506	2.583409	-2.119408	-8.630979	2.594200	-1.587040	1.541260	0.901670	-0.305663	0.325011	-1.000000	-1.000000	-1.000000	-1.000000	-1.000000	-1.000000	-1.000000	36.827586	0.000000	-1.000000	-1.000000	670757.000000	1774294879.079985
-27976.770000	-29704.545000	-23543.190000	-39596.130000	-48187.215000	-67040.640000	-39365.550000	-18165.330000	-13.015416	-13.179942	-0.499090	4.281581	4.612281	3.937667	0.098286	-5.247247	2.594200	-1.587040	1.541260	0.901670	-0.305663	0.325011	-1.000000	-1.000000	-1.000000	-1.000000	-1.000000	-1.000000	-1.000000	36.827586	0.000000	-1.000000	-1.000000	670758.000000	1774294879.083966
-27969.525000	-29708.775000	-23559.255000	-39608.640000	-48191.940000	-67044.015000	-39359.925000	-18156.195000	-13.008605	-13.142651	0.832391	5.302740	5.647199	4.808171	2.075821	0.466673	2.594200	-1.587040	1.541260	0.901670	-0.305663	0.325011	-1.000000	-1.000000	-1.000000	-1.000000	-1.000000	-1.000000	-1.000000	36.827586	0.000000	-1.000000	-1.000000	670759.000000	1774294879.083977
-27972.450000	-29717.460000	-23570.550000	-39612.780000	-48191.805000	-67042.530000	-39358.755000	-18160.020000	-7.788279	-6.964341	1.938552	4.433769	4.754347	3.959555	3.012398	6.661743	2.594200	-1.587040	1.541260	0.901670	-0.305663	0.325011	-1.000000	-1.000000	-1.000000	-1.000000	-1.000000	-1.000000	-1.000000	36.827586	0.000000	-1.000000	-1.000000	670760.000000	1774294879.091112
-27985.680000	-29722.095000	-23561.325000	-39601.800000	-48188.430000	-67041.315000	-39364.290000	-18176.490000	-0.641975	-0.903465	0.953873	1.188307	1.790501	1.562873	2.997939	10.303108	2.594200	-1.587040	1.541260	0.901670	-0.305663	0.325011	-1.000000	-1.000000	-1.000000	-1.000000	-1.000000	-1.000000	-1.000000	36.827586	0.000000	-1.000000	-1.000000	670761.000000	1774294879.091134
-27993.960000	-29723.355000	-23545.845000	-39594.330000	-48181.005000	-67034.880000	-39366.180000	-18188.190000	3.976085	0.633174	-0.835863	-2.368717	-1.682257	-1.130702	2.171661	8.887114	2.594200	-1.587040	1.541260	0.901670	-0.305663	0.325011	-1.000000	-1.000000	-1.000000	-1.000000	-1.000000	-1.000000	-1.000000	36.827586	0.000000	-1.000000	-1.000000	670762.000000	1774294879.091691
-27996.390000	-29719.080000	-23531.310000	-39586.815000	-48172.770000	-67025.070000	-39368.430000	-18193.905000	5.085075	-0.765635	-1.035699	-4.087389	-3.923252	-2.933040	0.645461	3.188705	2.594200	-1.587040	1.541260	0.901670	-0.305663	0.325011	-1.000000	-1.000000	-1.000000	-1.000000	-1.000000	-1.000000	-1.000000	36.827586	0.000000	-1.000000	-1.000000	670763.000000	1774294879.091703
-27992.205000	-29709.405000	-23517.855000	-39570.930000	-48163.500000	-67016.565000	-39362.310000	-18173.520000	5.073956	-0.231319	1.150663	-3.418811	-4.152901	-3.270899	-0.981824	-2.590925	1.266580	-2.258480	1.052940	0.901365	-0.308593	0.320007	-1.000000	-1.000000	-1.000000	-1.000000	-1.000000	-1.000000	-1.000000	36.827586	0.000000	-1.000000	-1.000000	670764.000000	1774294879.098401
-27983.340000	-29688.300000	-23497.605000	-39547.440000	-48146.265000	-67000.590000	-39348.945000	-18169.920000	6.020392	4.567427	4.472896	-0.794816	-2.461386	-2.074026	-1.593333	-4.362571	1.266580	-2.258480	1.052940	0.901365	-0.308593	0.320007	-1.000000	-1.000000	-1.000000	-1.000000	-1.000000	-1.000000	-1.000000	36.827586	0.000000	-1.000000	-1.000000	670765.000000	1774294879.098413
-27986.355000	-29715.840000	-23509.170000	-39553.740000	-48146.580000	-67000.095000	-39345.615000	-18181.170000	7.420746	10.942998	6.763725	2.920190	0.719788	0.513822	-0.504722	-2.419265	1.266580	-2.258480	1.052940	0.901365	-0.308593	0.320007	-1.000000	-1.000000	-1.000000	-1.000000	-1.000000	-1.000000	-1.000000	36.827586	0.000000	-1.000000	-1.000000	670766.000000	1774294879.106688
-27976.995000	-29716.695000	-23534.820000	-39585.825000	-48173.625000	-67028.670000	-39362.805000	-18187.380000	7.294704	13.614096	5.829584	5.524037	3.836019	3.199030	1.134666	-0.782201	1.266580	-2.258480	1.052940	0.901365	-0.308593	0.320007	-1.000000	-1.000000	-1.000000	-1.000000	-1.000000	-1.000000	-1.000000	36.827586	0.000000	-1.000000	-1.000000	670767.000000	1774294879.106700
-27967.410000	-29713.230000	-23555.295000	-39610.395000	-48201.390000	-67057.740000	-39376.260000	-18170.010000	4.803611	9.947120	0.658244	3.983766	3.856862	3.068250	0.901884	-1.628740	1.266580	-2.258480	1.052940	0.901365	-0.308593	0.320007	-1.000000	-1.000000	-1.000000	-1.000000	-1.000000	-1.000000	-1.000000	36.827586	0.000000	-1.000000	-1.000000	670768.000000	1774294879.106712
-27963.765000	-29708.235000	-23547.015000	-39604.770000	-48197.250000	-67052.250000	-39368.475000	-18157.320000	0.828019	2.021663	-6.745526	-2.044388	-0.581865	-1.233003	-1.792084	-2.724452	1.266580	-2.258480	1.052940	0.901365	-0.308593	0.320007	-1.000000	-1.000000	-1.000000	-1.000000	-1.000000	-1.000000	-1.000000	36.827586	0.000000	-1.000000	-1.000000	670769.000000	1774294879.106717
-27967.545000	-29686.410000	-23530.140000	-39586.500000	-48178.035000	-67033.710000	-39363.525000	-18184.635000	-3.165358	-5.861605	-11.908782	-8.531008	-6.305708	-6.512930	-4.350542	-1.445051	1.266580	-2.258480	1.052940	0.901365	-0.308593	0.320007	-1.000000	-1.000000	-1.000000	-1.000000	-1.000000	-1.000000	-1.000000	36.827586	0.000000	-1.000000	-1.000000	670770.000000	1774294879.108118
-27975.105000	-29697.615000	-23530.905000	-39584.700000	-48175.110000	-67029.615000	-39365.415000	-18198.090000	-5.929872	-10.078008	-11.660673	-10.613733	-8.428983	-7.988962	-4.014982	1.227295	1.266580	-2.258480	1.052940	0.901365	-0.308593	0.320007	-1.000000	-1.000000	-1.000000	-1.000000	-1.000000	-1.000000	-1.000000	36.827586	0.000000	-1.000000	-1.000000	670771.000000	1774294879.108124
-27986.490000	-29715.030000	-23539.590000	-39592.305000	-48182.580000	-67036.410000	-39370.770000	-18182.745000	-7.012598	-9.991251	-6.898519	-7.235090	-5.570333	-4.596953	-0.980502	2.791717	1.266580	-2.258480	1.052940	0.901365	-0.308593	0.320007	-1.000000	-1.000000	-1.000000	-1.000000	-1.000000	-1.000000	-1.000000	36.827586	0.000000	-1.000000	-1.000000	670772.000000	1774294879.111468
-27990.630000	-29732.670000	-23552.865000	-39604.590000	-48194.190000	-67044.960000	-39374.775000	-18162.450000	-6.807480	-8.038727	-1.363278	-1.688979	-0.706400	0.443917	2.192156	2.841704	1.266580	-2.258480	1.052940	0.901365	-0.308593	0.320007	-1.000000	-1.000000	-1.000000	-1.000000	-1.000000	-1.000000	-1.000000	36.827586	0.000000	-1.000000	-1.000000	670773.000000	1774294879.111479
-27980.100000	-29727.900000	-23559.120000	-39611.655000	-48201.165000	-67052.970000	-39379.275000	-18168.480000	-5.635370	-6.344811	1.861776	2.051661	2.476882	3.460510	3.153287	2.353222	-2.823100	-1.846460	2.426340	0.902280	-0.307189	0.318725	-1.000000	-1.000000	-1.000000	-1.000000	-1.000000	-1.000000	-1.000000	36.827586	0.000000	-1.000000	-1.000000	670774.000000	1774294879.115472
-27964.080000	-29709.765000	-23550.165000	-39603.420000	-48192.795000	-67046.670000	-39374.415000	-18169.290000	-3.036052	-3.799635	3.106714	3.405800	3.299323	3.801474	1.770708	1.552300	-2.823100	-1.846460	2.426340	0.902280	-0.307189	0.318725	-1.000000	-1.000000	-1.000000	-1.000000	-1.000000	-1.000000	-1.000000	36.827586	0.000000	-1.000000	-1.000000	670775.000000	1774294879.115487
-27971.190000	-29708.910000	-23543.055000	-39597.930000	-48187.440000	-67042.350000	-39368.475000	-18169.830000	0.950352	1.600499	5.254824	5.121621	4.174828	3.908209	0.228421	0.101234	-2.823100	-1.846460	2.426340	0.902280	-0.307189	0.318725	-1.000000	-1.000000	-1.000000	-1.000000	-1.000000	-1.000000	-1.000000	36.827586	0.000000	-1.000000	-1.000000	670776.000000	1774294879.119634
-27979.515000	-29711.745000	-23534.595000	-39597.030000	-48189.195000	-67043.070000	-39368.925000	-18175.365000	4.250440	8.198810	9.533163	8.766820	6.798135	5.763491	0.586822	-2.095132	-2.823100	-1.846460	2.426340	0.902280	-0.307189	0.318725	-1.000000	-1.000000	-1.000000	-1.000000	-1.000000	-1.000000	-1.000000	36.827586	0.000000	-1.000000	-1.000000	670777.000000	1774294879.119647
-27984.015000	-29711.385000	-23530.140000	-39597.030000	-48187.485000	-67040.010000	-39369.735000	-18178.650000	4.608791	11.477130	13.123622	11.696943	9.188810	7.829034	2.304782	-4.421192	-2.823100	-1.846460	2.426340	0.902280	-0.307189	0.318725	-1.000000	-1.000000	-1.000000	-1.000000	-1.000000	-1.000000	-1.000000	36.827586	0.000000	-1.000000	-1.000000	670778.000000	1774294879.125632
-27990.045000	-29716.920000	-23551.020000	-39601.440000	-48183.885000	-67034.970000	-39369.555000	-18189.090000	2.369890	8.802259	11.489874	9.747886	7.818368	6.802402	3.167554	-5.154862	-2.823100	-1.846460	2.426340	0.902280	-0.307189	0.318725	-1.000000	-1.000000	-1.000000	-1.000000	-1.000000	-1.000000	-1.000000	36.827586	0.000000	-1.000000	-1.000000	670779.000000	1774294879.125650
-27986.265000	-29721.420000	-23545.665000	-39589.335000	-48174.120000	-67026.195000	-39368.115000	-18192.015000	-0.014518	1.949340	3.204570	2.357305	2.085109	1.856644	2.071014	-3.091134	-2.823100	-1.846460	2.426340	0.902280	-0.307189	0.318725	-1.000000	-1.000000	-1.000000	-1.000000	-1.000000	-1.000000	-1.000000	36.827586	0.000000	-1.000000	-1.000000	670780.000000	1774294879.127881
-27983.520000	-29733.210000	-23541.840000	-39581.595000	-48171.870000	-67026.690000	-39372.030000	-18182.880000	-0.382251	-4.561454	-7.478120	-6.161534	-4.698875	-4.287990	-0.234910	0.459207	-2.823100	-1.846460	2.426340	0.902280	-0.307189	0.318725	-1.000000	-1.000000	-1.000000	-1.000000	-1.000000	-1.000000	-1.000000	36.827586	0.000000	-1.000000	-1.000000	670781.000000	1774294879.127904
-27988.335000	-29711.340000	-23542.695000	-39580.830000	-48171.555000	-67029.570000	-39374.415000	-18175.500000	1.234931	-7.021669	-14.051586	-10.712856	-8.618920	-8.222859	-2.474571	3.054279	-2.823100	-1.846460	2.426340	0.902280	-0.307189	0.318725	-1.000000	-1.000000	-1.000000	-1.000000	-1.000000	-1.000000	-1.000000	36.827586	0.000000	-1.000000	-1.000000	670782.000000	1774294879.131460
-27999.540000	-29691.765000	-23527.755000	-39573.000000	-48162.240000	-67021.875000	-39366.495000	-18172.395000	2.464811	-4.373438	-13.134108	-9.539089	-8.151731	-8.374140	-3.689884	3.801039	-2.823100	-1.846460	2.426340	0.902280	-0.307189	0.318725	-1.000000	-1.000000	-1.000000	-1.000000	-1.000000	-1.000000	-1.000000	36.827586	0.000000	-1.000000	-1.000000	670783.000000	1774294879.131470
-27958.770000	-29680.740000	-23516.145000	-39565.575000	-48157.515000	-67018.725000	-39361.545000	-18154.890000	1.624518	1.485084	-5.890576	-4.329788	-4.312433	-5.158839	-3.266313	3.605359	-4.608520	1.678600	0.732480	0.906370	-0.297912	0.311279	-1.000000	-1.000000	-1.000000	-1.000000	-1.000000	-1.000000	-1.000000	36.827586	0.000000	-1.000000	-1.000000	670784.000000	1774294879.135775
-27943.470000	-29687.670000	-23525.550000	-39572.550000	-48160.755000	-67018.680000	-39359.655000	-18169.785000	0.456648	6.445858	3.240976	1.578598	0.450691	-0.384802	-1.343643	3.228467	-4.608520	1.678600	0.732480	0.906370	-0.297912	0.311279	-1.000000	-1.000000	-1.000000	-1.000000	-1.000000	-1.000000	-1.000000	36.827586	0.000000	-1.000000	-1.000000	670785.000000	1774294879.135783
-27978.030000	-29694.555000	-23531.715000	-39579.975000	-48166.470000	-67022.055000	-39362.175000	-18201.690000	0.784025	6.827892	8.733439	4.771567	3.451769	3.443551	0.927871	1.709456	-4.608520	1.678600	0.732480	0.906370	-0.297912	0.311279	-1.000000	-1.000000	-1.000000	-1.000000	-1.000000	-1.000000	-1.000000	36.827586	0.000000	-1.000000	-1.000000	670786.000000	1774294879.139608
-28012.905000	-29728.530000	-23562.630000	-39612.195000	-48198.780000	-67051.305000	-39379.680000	-18217.215000	0.539246	1.632865	7.245430	3.181560	2.685369	3.916875	1.925249	-2.019876	-4.608520	1.678600	0.732480	0.906370	-0.297912	0.311279	-1.000000	-1.000000	-1.000000	-1.000000	-1.000000	-1.000000	-1.000000	36.827586	0.000000	-1.000000	-1.000000	670787.000000	1774294879.139618
-27992.790000	-29754.315000	-23567.220000	-39612.870000	-48198.330000	-67047.615000	-39374.685000	-18179.550000	-2.411584	-7.072890	0.065511	-2.514385	-1.986122	0.214445	0.805372	-5.736286	-4.608520	1.678600	0.732480	0.906370	-0.297912	0.311279	-1.000000	-1.000000	-1.000000	-1.000000	-1.000000	-1.000000	-1.000000	36.827586	0.000000	-1.000000	-1.000000	670788.000000	1774294879.143983
-27971.685000	-29727.225000	-23560.200000	-39609.315000	-48196.890000	-67047.030000	-39373.605000	-18165.825000	-5.491144	-14.104338	-7.514851	-8.455014	-7.484077	-5.105149	-1.312673	-5.196257	-4.608520	1.678600	0.732480	0.906370	-0.297912	0.311279	-1.000000	-1.000000	-1.000000	-1.000000	-1.000000	-1.000000	-1.000000	36.827586	0.000000	-1.000000	-1.000000	670789.000000	1774294879.144003
-27973.890000	-29708.280000	-23548.815000	-39598.920000	-48186.675000	-67038.345000	-39370.410000	-18171.810000	-4.767038	-13.382465	-9.951303	-9.933771	-9.113314	-7.495083	-2.273592	-0.078419	-4.608520	1.678600	0.732480	0.906370	-0.297912	0.311279	-1.000000	-1.000000	-1.000000	-1.000000	-1.000000	-1.000000	-1.000000	36.827586	0.000000	-1.000000	-1.000000	670790.000000	1774294879.149350
-27985.455000	-29714.265000	-23547.330000	-39596.490000	-48183.480000	-67036.590000	-39369.150000	-18181.350000	-0.482375	-4.120523	-5.530413	-5.117517	-4.673445	-4.488410	-1.137663	4.872648	-4.608520	1.678600	0.732480	0.906370	-0.297912	0.311279	-1.000000	-1.000000	-1.000000	-1.000000	-1.000000	-1.000000	-1.000000	36.827586	0.000000	-1.000000	-1.000000	670791.000000	1774294879.149361
-27980.865000	-29715.120000	-23543.550000	-39591.765000	-48179.655000	-67033.935000	-39363.255000	-18175.500000	3.541005	7.090592	2.533261	3.482700	3.527436	2.206726	1.141410	5.440515	-4.608520	1.678600	0.732480	0.906370	-0.297912	0.311279	-1.000000	-1.000000	-1.000000	-1.000000	-1.000000	-1.000000	-1.000000	36.827586	0.000000	-1.000000	-1.000000	670792.000000	1774294879.152261
-27981.855000	-29716.065000	-23544.045000	-39593.025000	-48181.500000	-67037.535000	-39363.390000	-18177.345000	3.935076	12.876742	8.980430	10.986647	10.645538	8.342253	2.887759	1.762989	-4.608520	1.678600	0.732480	0.906370	-0.297912	0.311279	-1.000000	-1.000000	-1.000000	-1.000000	-1.000000	-1.000000	-1.000000	36.827586	0.000000	-1.000000	-1.000000	670793.000000	1774294879.152273
-27987.615000	-29709.090000	-23546.295000	-39595.995000	-48184.965000	-67040.955000	-39368.385000	-18181.485000	0.566042	11.441043	10.580690	13.628236	12.950560	10.421078	2.997308	-2.762779	-4.608520	3.753960	-3.036740	0.912473	-0.299804	0.301635	-1.000000	-1.000000	-1.000000	-1.000000	-1.000000	-1.000000	-1.000000	36.827586	0.000000	-1.000000	-1.000000	670794.000000	1774294879.157307
-27993.105000	-29709.315000	-23542.920000	-39592.080000	-48181.455000	-67037.040000	-39371.040000	-18187.245000	-3.056619	6.113544	7.682170	10.913980	10.020347	7.911210	1.527857	-4.423386	-4.608520	3.753960	-3.036740	0.912473	-0.299804	0.301635	-1.000000	-1.000000	-1.000000	-1.000000	-1.000000	-1.000000	-1.000000	36.827586	0.000000	-1.000000	-1.000000	670795.000000	1774294879.157320
-28001.745000	-29712.735000	-23538.285000	-39585.915000	-48174.930000	-67029.480000	-39369.690000	-18189.405000	-3.166118	1.355120	3.172199	5.392937	4.483299	3.220277	-0.340507	-2.233070	-4.608520	3.753960	-3.036740	0.912473	-0.299804	0.301635	-1.000000	-1.000000	-1.000000	-1.000000	-1.000000	-1.000000	-1.000000	36.827586	0.000000	-1.000000	-1.000000	670796.000000	1774294879.159505
-28016.910000	-29724.930000	-23544.045000	-39589.470000	-48177.990000	-67032.675000	-39373.560000	-18197.820000	-0.339196	-0.751609	-0.310384	0.010723	-0.636193	-0.869562	-1.448107	0.902184	-4.608520	3.753960	-3.036740	0.912473	-0.299804	0.301635	-1.000000	-1.000000	-1.000000	-1.000000	-1.000000	-1.000000	-1.000000	36.827586	0.000000	-1.000000	-1.000000	670797.000000	1774294879.159512
-27996.255000	-29728.665000	-23549.130000	-39593.655000	-48182.040000	-67036.635000	-39376.080000	-18186.255000	1.815824	-1.699109	-2.700928	-4.321116	-4.358298	-3.593612	-1.738608	1.474292	-4.608520	3.753960	-3.036740	0.912473	-0.299804	0.301635	-1.000000	-1.000000	-1.000000	-1.000000	-1.000000	-1.000000	-1.000000	36.827586	0.000000	-1.000000	-1.000000	670798.000000	1774294879.164860
-27966.645000	-29719.620000	-23546.520000	-39591.630000	-48179.520000	-67035.105000	-39375.405000	-18180.945000	2.483270	-3.733629	-5.049817	-7.743812	-6.950260	-5.381518	-1.671963	-0.277931	-4.608520	3.753960	-3.036740	0.912473	-0.299804	0.301635	-1.000000	-1.000000	-1.000000	-1.000000	-1.000000	-1.000000	-1.000000	36.827586	0.000000	-1.000000	-1.000000	670799.000000	1774294879.164869
-27965.160000	-29716.290000	-23545.890000	-39594.465000	-48182.850000	-67039.425000	-39372.480000	-18175.410000	3.795182	-6.289245	-7.008845	-9.635266	-8.222187	-6.225452	-1.388959	-1.390737	-4.608520	3.753960	-3.036740	0.912473	-0.299804	0.301635	-1.000000	-1.000000	-1.000000	-1.000000	-1.000000	-1.000000	-1.000000	36.827586	0.000000	-1.000000	-1.000000	670800.000000	1774294879.168921
-28019.340000	-29746.305000	-23534.730000	-39581.280000	-48167.325000	-67023.810000	-39357.945000	-18183.330000	4.892441	-7.406173	-7.147082	-8.908580	-7.450804	-5.548768	-0.679114	-0.554723	-4.608520	3.753960	-3.036740	0.912473	-0.299804	0.301635	-1.000000	-1.000000	-1.000000	-1.000000	-1.000000	-1.000000	-1.000000	36.827586	0.000000	-1.000000	-1.000000	670801.000000	1774294879.168931
-28009.395000	-29720.565000	-23517.405000	-39566.565000	-48153.870000	-67011.795000	-39355.920000	-18200.565000	2.026518	-6.380562	-4.366092	-4.946354	-3.981075	-2.683735	0.723645	0.763470	-4.608520	3.753960	-3.036740	0.912473	-0.299804	0.301635	-1.000000	-1.000000	-1.000000	-1.000000	-1.000000	-1.000000	-1.000000	36.827586	0.000000	-1.000000	-1.000000	670802.000000	1774294879.171455
-27927.315000	-29647.395000	-23524.740000	-39580.605000	-48170.565000	-67028.040000	-39370.815000	-18196.920000	-3.063010	-2.089828	0.814705	1.205113	1.356762	1.697244	2.301720	1.100752	-4.608520	3.753960	-3.036740	0.912473	-0.299804	0.301635	-1.000000	-1.000000	-1.000000	-1.000000	-1.000000	-1.000000	-1.000000	36.827586	0.000000	-1.000000	-1.000000	670803.000000	1774294879.171465
-27946.800000	-29698.245000	-23555.970000	-39607.110000	-48195.540000	-67050.495000	-39380.040000	-18175.770000	-3.357084	5.884345	5.295286	6.023314	5.273575	4.621350	2.610510	1.231243	-1.526000	3.250380	-2.899400	0.915647	-0.304565	0.294555	-1.000000	-1.000000	-1.000000	-1.000000	-1.000000	-1.000000	-1.000000	36.827586	0.000000	-1.000000	-1.000000	670804.000000	1774294879.175470
-27958.770000	-29698.740000	-23542.155000	-39596.490000	-48188.430000	-67043.070000	-39370.995000	-18149.040000	2.092757	12.855489	5.783207	6.268324	4.840900	3.563549	1.056018	2.823994	-1.526000	3.250380	-2.899400	0.915647	-0.304565	0.294555	-1.000000	-1.000000	-1.000000	-1.000000	-1.000000	-1.000000	-1.000000	36.827586	0.000000	-1.000000	-1.000000	670805.000000	1774294879.175480
-27958.860000	-29696.940000	-23528.925000	-39583.935000	-48176.325000	-67031.550000	-39364.830000	-18146.295000	6.500077	13.053188	2.879832	2.890713	1.253997	-0.075631	-0.943483	5.541132	-1.526000	3.250380	-2.899400	0.915647	-0.304565	0.294555	-1.000000	-1.000000	-1.000000	-1.000000	-1.000000	-1.000000	-1.000000	36.827586	0.000000	-1.000000	-1.000000	670806.000000	1774294879.179435
-27985.275000	-29729.250000	-23552.820000	-39598.785000	-48186.630000	-67040.415000	-39367.710000	-18156.555000	4.178875	5.779739	-0.276005	-0.500272	-1.737966	-2.627076	-1.628098	6.450350	-1.526000	3.250380	-2.899400	0.915647	-0.304565	0.294555	-1.000000	-1.000000	-1.000000	-1.000000	-1.000000	-1.000000	-1.000000	36.827586	0.000000	-1.000000	-1.000000	670807.000000	1774294879.179442
-27997.245000	-29744.280000	-23561.640000	-39603.195000	-48188.880000	-67043.565000	-39371.130000	-18180.990000	-4.895631	-5.753964	-2.461911	-2.112218	-2.313780	-2.492443	-0.974365	2.677395	-1.526000	3.250380	-2.899400	0.915647	-0.304565	0.294555	-1.000000	-1.000000	-1.000000	-1.000000	-1.000000	-1.000000	-1.000000	36.827586	0.000000	-1.000000	-1.000000	670808.000000	1774294879.183441
-27982.305000	-29711.475000	-23554.305000	-39603.195000	-48190.680000	-67046.310000	-39369.915000	-18192.690000	-14.808096	-15.628468	-3.961614	-2.358005	-1.281882	-0.799888	-0.316680	-5.372592	-1.526000	3.250380	-2.899400	0.915647	-0.304565	0.294555	-1.000000	-1.000000	-1.000000	-1.000000	-1.000000	-1.000000	-1.000000	36.827586	0.000000	-1.000000	-1.000000	670809.000000	1774294879.183452
-27975.780000	-29701.755000	-23551.200000	-39603.105000	-48193.020000	-67048.830000	-39368.700000	-18183.015000	-16.997806	-16.853176	-4.265543	-1.937623	-0.145690	0.631466	-0.602641	-13.089439	-1.526000	3.250380	-2.899400	0.915647	-0.304565	0.294555	-1.000000	-1.000000	-1.000000	-1.000000	-1.000000	-1.000000	-1.000000	36.827586	0.000000	-1.000000	-1.000000	670810.000000	1774294879.190796
-27974.250000	-29710.125000	-23551.515000	-39603.015000	-48193.380000	-67048.785000	-39369.870000	-18180.000000	-8.763891	-8.592824	-2.846979	-1.220890	0.229368	0.853728	-1.416145	-14.536455	-1.526000	3.250380	-2.899400	0.915647	-0.304565	0.294555	-1.000000	-1.000000	-1.000000	-1.000000	-1.000000	-1.000000	-1.000000	36.827586	0.000000	-1.000000	-1.000000	670811.000000	1774294879.190810
-27971.820000	-29715.750000	-23550.570000	-39600.045000	-48190.050000	-67045.410000	-39372.030000	-18180.360000	3.302405	1.767969	0.089735	0.131567	0.515805	0.696744	-1.409816	-7.954843	-1.526000	3.250380	-2.899400	0.915647	-0.304565	0.294555	-1.000000	-1.000000	-1.000000	-1.000000	-1.000000	-1.000000	-1.000000	36.827586	0.000000	-1.000000	-1.000000	670812.000000	1774294879.191463
-27972.495000	-29711.205000	-23540.940000	-39587.715000	-48176.595000	-67031.775000	-39366.135000	-18177.480000	11.359435	7.900597	4.097067	2.802918	2.177727	1.828287	0.168543	2.125773	-1.526000	3.250380	-2.899400	0.915647	-0.304565	0.294555	-1.000000	-1.000000	-1.000000	-1.000000	-1.000000	-1.000000	-1.000000	36.827586	0.000000	-1.000000	-1.000000	670813.000000	1774294879.191472
-28001.340000	-29722.455000	-23540.895000	-39582.405000	-48170.565000	-67024.440000	-39367.665000	-18199.620000	12.935157	9.636884	7.676736	5.979240	4.994025	4.253775	2.379775	8.858627	-0.091560	2.319520	-2.899400	0.918699	-0.300964	0.291137	-1.000000	-1.000000	-1.000000	-1.000000	-1.000000	-1.000000	-1.000000	36.827586	0.000000	-1.000000	-1.000000	670814.000000	1774294879.195593
-28019.610000	-29735.190000	-23541.705000	-39580.155000	-48168.045000	-67023.540000	-39375.720000	-18225.990000	8.854392	8.374352	8.322462	7.220677	6.595981	5.825751	3.313839	8.326063	-0.091560	2.319520	-2.899400	0.918699	-0.300964	0.291137	-1.000000	-1.000000	-1.000000	-1.000000	-1.000000	-1.000000	-1.000000	36.827586	0.000000	-1.000000	-1.000000	670815.000000	1774294879.195603
-28009.440000	-29725.110000	-23545.665000	-39587.940000	-48178.170000	-67035.285000	-39384.450000	-18229.410000	1.806832	5.254270	5.263421	5.056681	4.992451	4.526791	1.910146	2.217818	-0.091560	2.319520	-2.899400	0.918699	-0.300964	0.291137	-1.000000	-1.000000	-1.000000	-1.000000	-1.000000	-1.000000	-1.000000	36.827586	0.000000	-1.000000	-1.000000	670816.000000	1774294879.200970
-27973.935000	-29705.580000	-23547.915000	-39597.930000	-48191.040000	-67048.605000	-39375.180000	-18182.745000	-3.232621	2.395021	0.293676	0.239523	0.279880	0.214427	-0.923920	-2.916638	-0.091560	2.319520	-2.899400	0.918699	-0.300964	0.291137	-1.000000	-1.000000	-1.000000	-1.000000	-1.000000	-1.000000	-1.000000	36.827586	0.000000	-1.000000	-1.000000	670817.000000	1774294879.200980
-27960.120000	-29722.320000	-23547.105000	-39596.265000	-48189.510000	-67046.940000	-39359.970000	-18137.880000	-2.437357	0.719072	-4.430973	-5.233846	-5.619740	-5.338222	-2.888721	-0.625887	-0.091560	2.319520	-2.899400	0.918699	-0.300964	0.291137	-1.000000	-1.000000	-1.000000	-1.000000	-1.000000	-1.000000	-1.000000	36.827586	0.000000	-1.000000	-1.000000	670818.000000	1774294879.204951
-27978.390000	-29745.900000	-23548.770000	-39593.835000	-48186.090000	-67042.260000	-39363.435000	-18158.760000	2.506829	-1.589022	-7.545727	-8.960006	-9.724686	-9.168565	-2.375179	8.443281	-0.091560	2.319520	-2.899400	0.918699	-0.300964	0.291137	-1.000000	-1.000000	-1.000000	-1.000000	-1.000000	-1.000000	-1.000000	36.827586	0.000000	-1.000000	-1.000000	670819.000000	1774294879.204962
-28006.830000	-29729.970000	-23550.705000	-39594.870000	-48187.305000	-67043.835000	-39367.350000	-18176.625000	5.160388	-5.717510	-8.182270	-9.072691	-9.617882	-8.898874	-0.016308	15.620378	-0.091560	2.319520	-2.899400	0.918699	-0.300964	0.291137	-1.000000	-1.000000	-1.000000	-1.000000	-1.000000	-1.000000	-1.000000	36.827586	0.000000	-1.000000	-1.000000	670820.000000	1774294879.209373
-28067.085000	-29735.190000	-23535.630000	-39575.790000	-48169.395000	-67025.880000	-39363.030000	-18197.505000	0.365174	-9.037665	-5.853064	-5.266525	-5.080195	-4.419841	2.260114	12.631162	-0.091560	2.319520	-2.899400	0.918699	-0.300964	0.291137	-1.000000	-1.000000	-1.000000	-1.000000	-1.000000	-1.000000	-1.000000	36.827586	0.000000	-1.000000	-1.000000	670821.000000	1774294879.209386
-28013.220000	-29710.080000	-23516.685000	-39561.030000	-48156.345000	-67014.180000	-39358.755000	-18178.740000	-9.352364	-7.704040	-0.913427	0.974444	1.818938	2.126082	3.064203	-0.059651	-0.091560	2.319520	-2.899400	0.918699	-0.300964	0.291137	-1.000000	-1.000000	-1.000000	-1.000000	-1.000000	-1.000000	-1.000000	36.827586	0.000000	-1.000000	-1.000000	670822.000000	1774294879.213125
-27924.615000	-29654.100000	-23507.055000	-39556.485000	-48149.820000	-67008.465000	-39356.820000	-18170.100000	-13.245897	-0.360499	4.862563	6.747413	7.744885	7.501874	2.224943	-13.513639	-0.091560	2.319520	-2.899400	0.918699	-0.300964	0.291137	-1.000000	-1.000000	-1.000000	-1.000000	-1.000000	-1.000000	-1.000000	36.827586	0.000000	-1.000000	-1.000000	670823.000000	1774294879.213135
-27921.105000	-29653.245000	-23511.195000	-39557.835000	-48149.370000	-67009.365000	-39358.620000	-18188.505000	-3.187200	10.690918	8.797680	9.189545	9.920228	9.201422	0.577328	-18.605876	-1.358140	2.105880	-2.914660	0.924253	-0.295165	0.287658	-1.000000	-1.000000	-1.000000	-1.000000	-1.000000	-1.000000	-1.000000	36.827586	0.000000	-1.000000	-1.000000	670824.000000	1774294879.220828
-27954.630000	-29694.465000	-23540.175000	-39587.445000	-48180.555000	-67038.930000	-39372.075000	-18188.055000	13.955745	18.317797	8.473534	7.058256	7.443450	6.634355	-1.047665	-13.985985	-1.358140	2.105880	-2.914660	0.924253	-0.295165	0.287658	-1.000000	-1.000000	-1.000000	-1.000000	-1.000000	-1.000000	-1.000000	36.827586	0.000000	-1.000000	-1.000000	670825.000000	1774294879.220840
-27965.385000	-29714.040000	-23562.765000	-39614.805000	-48208.140000	-67065.345000	-39377.520000	-18169.245000	21.892085	14.375714	2.855105	0.825405	0.982450	0.611101	-2.787206	-5.243064	-1.358140	2.105880	-2.914660	0.924253	-0.295165	0.287658	-1.000000	-1.000000	-1.000000	-1.000000	-1.000000	-1.000000	-1.000000	36.827586	0.000000	-1.000000	-1.000000	670826.000000	1774294879.220853
-27977.220000	-29719.530000	-23559.345000	-39615.930000	-48207.555000	-67066.020000	-39375.540000	-18171.810000	12.686673	-0.842309	-5.939459	-7.144544	-7.098334	-6.737294	-4.787720	1.672414	-1.358140	2.105880	-2.914660	0.924253	-0.295165	0.287658	-1.000000	-1.000000	-1.000000	-1.000000	-1.000000	-1.000000	-1.000000	36.827586	0.000000	-1.000000	-1.000000	670827.000000	1774294879.220858
-27979.605000	-29718.585000	-23551.380000	-39610.845000	-48200.985000	-67057.425000	-39373.875000	-18173.520000	-6.454575	-17.239850	-12.493916	-12.477243	-12.468750	-11.579930	-5.731835	4.842176	-1.358140	2.105880	-2.914660	0.924253	-0.295165	0.287658	-1.000000	-1.000000	-1.000000	-1.000000	-1.000000	-1.000000	-1.000000	36.827586	0.000000	-1.000000	-1.000000	670828.000000	1774294879.223447
-27975.735000	-29714.760000	-23548.455000	-39603.915000	-48195.180000	-67049.640000	-39372.615000	-18175.725000	-21.348087	-24.405316	-12.111550	-11.409606	-11.428720	-10.494730	-3.945705	5.834805	-1.358140	2.105880	-2.914660	0.924253	-0.295165	0.287658	-1.000000	-1.000000	-1.000000	-1.000000	-1.000000	-1.000000	-1.000000	36.827586	0.000000	-1.000000	-1.000000	670829.000000	1774294879.223457
-27970.965000	-29717.325000	-23554.485000	-39599.280000	-48191.220000	-67046.580000	-39374.640000	-18177.795000	-22.262911	-19.228550	-5.295642	-4.338330	-4.475445	-3.875166	0.197730	6.223330	-1.358140	2.105880	-2.914660	0.924253	-0.295165	0.287658	-1.000000	-1.000000	-1.000000	-1.000000	-1.000000	-1.000000	-1.000000	36.827586	0.000000	-1.000000	-1.000000	670830.000000	1774294879.227512
-27978.705000	-29726.235000	-23562.945000	-39600.405000	-48192.480000	-67048.785000	-39378.915000	-18183.780000	-11.210391	-6.552773	2.752570	4.294858	3.923457	4.003992	4.215539	5.571872	-1.358140	2.105880	-2.914660	0.924253	-0.295165	0.287658	-1.000000	-1.000000	-1.000000	-1.000000	-1.000000	-1.000000	-1.000000	36.827586	0.000000	-1.000000	-1.000000	670831.000000	1774294879.227523
-27983.070000	-29721.105000	-23545.845000	-39595.095000	-48190.050000	-67046.940000	-39378.105000	-18185.580000	0.856791	5.229526	7.414403	9.884577	9.201881	8.748797	5.891094	3.141146	-1.358140	2.105880	-2.914660	0.924253	-0.295165	0.287658	-1.000000	-1.000000	-1.000000	-1.000000	-1.000000	-1.000000	-1.000000	36.827586	0.000000	-1.000000	-1.000000	670832.000000	1774294879.233606
-27977.175000	-29707.605000	-23525.640000	-39582.045000	-48177.900000	-67035.915000	-39370.545000	-18185.940000	6.153901	11.421555	8.737923	11.144191	10.117886	9.303770	5.189702	0.077297	-1.358140	2.105880	-2.914660	0.924253	-0.295165	0.287658	-1.000000	-1.000000	-1.000000	-1.000000	-1.000000	-1.000000	-1.000000	36.827586	0.000000	-1.000000	-1.000000	670833.000000	1774294879.233615
-27985.995000	-29698.695000	-23531.220000	-39576.870000	-48166.650000	-67027.230000	-39370.005000	-18221.490000	6.055677	13.512432	9.379469	10.022794	8.927000	7.984463	3.662973	-2.493087	-1.129240	2.472120	-2.670500	0.926572	-0.288879	0.285217	-1.000000	-1.000000	-1.000000	-1.000000	-1.000000	-1.000000	-1.000000	36.827586	0.000000	-1.000000	-1.000000	670834.000000	1774294879.235438
-28021.905000	-29708.190000	-23546.520000	-39578.220000	-48162.870000	-67025.205000	-39377.520000	-18265.005000	4.660196	14.093305	9.661061	8.441960	8.047043	7.107355	2.182970	-6.028071	-1.129240	2.472120	-2.670500	0.926572	-0.288879	0.285217	-1.000000	-1.000000	-1.000000	-1.000000	-1.000000	-1.000000	-1.000000	36.827586	0.000000	-1.000000	-1.000000	670835.000000	1774294879.235444
-28048.905000	-29732.355000	-23527.080000	-39567.780000	-48161.115000	-67025.700000	-39384.045000	-18271.935000	2.941687	12.470291	7.388243	6.027297	6.890969	6.024326	0.223769	-11.088672	-1.129240	2.472120	-2.670500	0.926572	-0.288879	0.285217	-1.000000	-1.000000	-1.000000	-1.000000	-1.000000	-1.000000	-1.000000	36.827586	0.000000	-1.000000	-1.000000	670836.000000	1774294879.241048
-28003.995000	-29756.745000	-23541.615000	-39591.405000	-48184.515000	-67045.095000	-39376.485000	-18190.215000	1.341945	6.294812	1.733588	1.318691	2.897527	2.265176	-2.333133	-12.520093	-1.129240	2.472120	-2.670500	0.926572	-0.288879	0.285217	-1.000000	-1.000000	-1.000000	-1.000000	-1.000000	-1.000000	-1.000000	36.827586	0.000000	-1.000000	-1.000000	670837.000000	1774294879.241057
-27965.745000	-29726.775000	-23552.370000	-39596.580000	-48181.365000	-67036.815000	-39357.045000	-18122.670000	2.846037	-3.499551	-5.717684	-6.039049	-4.810390	-4.837385	-3.979152	-3.173797	-1.129240	2.472120	-2.670500	0.926572	-0.288879	0.285217	-1.000000	-1.000000	-1.000000	-1.000000	-1.000000	-1.000000	-1.000000	36.827586	0.000000	-1.000000	-1.000000	670838.000000	1774294879.243515
-27966.510000	-29724.390000	-23558.940000	-39595.995000	-48183.255000	-67040.505000	-39367.080000	-18144.855000	8.520704	-11.352673	-12.259608	-13.792078	-13.291318	-12.307981	-3.268611	15.369071	-1.129240	2.472120	-2.670500	0.926572	-0.288879	0.285217	-1.000000	-1.000000	-1.000000	-1.000000	-1.000000	-1.000000	-1.000000	36.827586	0.000000	-1.000000	-1.000000	670839.000000	1774294879.243522
-27970.605000	-29709.495000	-23555.700000	-39603.645000	-48197.610000	-67056.255000	-39379.500000	-18153.945000	13.201009	-12.529514	-14.949792	-17.805594	-17.867296	-15.965426	-1.124589	30.133878	-1.129240	2.472120	-2.670500	0.926572	-0.288879	0.285217	-1.000000	-1.000000	-1.000000	-1.000000	-1.000000	-1.000000	-1.000000	36.827586	0.000000	-1.000000	-1.000000	670840.000000	1774294879.249536
-27986.445000	-29692.755000	-23557.050000	-39606.435000	-48198.960000	-67057.245000	-39380.535000	-18163.305000	10.633085	-7.344879	-12.394629	-15.501609	-16.102009	-14.032976	0.135629	28.971063	-1.129240	2.472120	-2.670500	0.926572	-0.288879	0.285217	-1.000000	-1.000000	-1.000000	-1.000000	-1.000000	-1.000000	-1.000000	36.827586	0.000000	-1.000000	-1.000000	670841.000000	1774294879.249547
-27964.530000	-29700.225000	-23550.750000	-39602.880000	-48196.215000	-67056.435000	-39376.305000	-18162.450000	0.873513	0.305330	-5.793580	-7.715973	-8.815237	-7.481902	-0.286433	11.930136	-1.129240	2.472120	-2.670500	0.926572	-0.288879	0.285217	-1.000000	-1.000000	-1.000000	-1.000000	-1.000000	-1.000000	-1.000000	36.827586	0.000000	-1.000000	-1.000000	670842.000000	1774294879.251501
-27941.220000	-29724.120000	-23564.250000	-39613.590000	-48204.855000	-67063.770000	-39378.240000	-18159.525000	-9.252061	5.531943	2.317780	2.379747	1.073952	1.192674	-1.187045	-10.206240	-1.129240	2.472120	-2.670500	0.926572	-0.288879	0.285217	-1.000000	-1.000000	-1.000000	-1.000000	-1.000000	-1.000000	-1.000000	36.827586	0.000000	-1.000000	-1.000000	670843.000000	1774294879.251512
-27960.390000	-29720.745000	-23552.775000	-39601.305000	-48193.245000	-67053.150000	-39373.110000	-18168.165000	-12.569185	5.602194	9.187075	10.885826	9.770258	8.844956	-1.091001	-24.926935	0.167860	1.526000	-2.914660	0.923704	-0.289062	0.284545	-1.000000	-1.000000	-1.000000	-1.000000	-1.000000	-1.000000	-1.000000	36.827586	0.000000	-1.000000	-1.000000	670844.000000	1774294879.255915
-27991.980000	-29708.640000	-23543.100000	-39589.065000	-48179.340000	-67038.840000	-39371.580000	-18192.780000	-8.921168	2.531949	12.563500	15.149277	14.700780	13.320167	0.433743	-27.143681	0.167860	1.526000	-2.914660	0.923704	-0.289062	0.284545	-1.000000	-1.000000	-1.000000	-1.000000	-1.000000	-1.000000	-1.000000	36.827586	0.000000	-1.000000	-1.000000	670845.000000	1774294879.255926
-27971.370000	-29695.815000	-23530.905000	-39577.590000	-48168.810000	-67027.275000	-39365.730000	-18175.320000	-4.488902	0.480439	11.991353	15.064030	15.640797	14.310974	2.377027	-21.344181	0.167860	1.526000	-2.914660	0.923704	-0.289062	0.284545	-1.000000	-1.000000	-1.000000	-1.000000	-1.000000	-1.000000	-1.000000	36.827586	0.000000	-1.000000	-1.000000	670846.000000	1774294879.260009
-27957.330000	-29698.695000	-23531.130000	-39579.255000	-48170.115000	-67026.780000	-39365.730000	-18170.235000	-3.481585	0.588692	8.773740	11.731176	13.071424	12.003598	3.084392	-13.919989	0.167860	1.526000	-2.914660	0.923704	-0.289062	0.284545	-1.000000	-1.000000	-1.000000	-1.000000	-1.000000	-1.000000	-1.000000	36.827586	0.000000	-1.000000	-1.000000	670847.000000	1774294879.260022
-27974.610000	-29717.595000	-23545.305000	-39590.955000	-48180.780000	-67036.320000	-39372.255000	-18181.080000	-4.569067	0.343821	4.048931	5.726919	7.109149	6.462007	2.006727	-6.306339	0.167860	1.526000	-2.914660	0.923704	-0.289062	0.284545	-1.000000	-1.000000	-1.000000	-1.000000	-1.000000	-1.000000	-1.000000	36.827586	0.000000	-1.000000	-1.000000	670848.000000	1774294879.263407
-27998.370000	-29736.585000	-23562.180000	-39608.415000	-48197.835000	-67053.645000	-39382.695000	-18195.750000	-5.075322	-2.781911	-2.064253	-2.277445	-1.276665	-1.265132	0.021969	2.463638	0.167860	1.526000	-2.914660	0.923704	-0.289062	0.284545	-1.000000	-1.000000	-1.000000	-1.000000	-1.000000	-1.000000	-1.000000	36.827586	0.000000	-1.000000	-1.000000	670849.000000	1774294879.263416
-27991.665000	-29727.945000	-23557.005000	-39604.995000	-48194.910000	-67053.015000	-39379.545000	-18187.245000	-3.783925	-7.999489	-8.732345	-10.143040	-9.512845	-8.814128	-1.823850	11.290932	0.167860	1.526000	-2.914660	0.923704	-0.289062	0.284545	-1.000000	-1.000000	-1.000000	-1.000000	-1.000000	-1.000000	-1.000000	36.827586	0.000000	-1.000000	-1.000000	670850.000000	1774294879.267552
-27991.170000	-29724.795000	-23557.770000	-39605.355000	-48195.315000	-67055.715000	-39378.915000	-18186.930000	-0.611752	-10.870377	-13.020133	-14.510695	-14.266056	-13.282429	-2.813202	17.565842	0.167860	1.526000	-2.914660	0.923704	-0.289062	0.284545	-1.000000	-1.000000	-1.000000	-1.000000	-1.000000	-1.000000	-1.000000	36.827586	0.000000	-1.000000	-1.000000	670851.000000	1774294879.267563
-27994.410000	-29725.290000	-23557.590000	-39605.265000	-48195.630000	-67055.895000	-39379.995000	-18191.970000	3.548830	-7.324428	-11.980519	-13.075652	-13.418271	-12.740412	-2.520059	19.264848	0.167860	1.526000	-2.914660	0.923704	-0.289062	0.284545	-1.000000	-1.000000	-1.000000	-1.000000	-1.000000	-1.000000	-1.000000	36.827586	0.000000	-1.000000	-1.000000	670852.000000	1774294879.271590
-27991.080000	-29716.965000	-23547.240000	-39594.060000	-48185.865000	-67044.645000	-39374.100000	-18190.080000	7.798686	1.782250	-5.902570	-6.756727	-7.780276	-7.705316	-1.083975	16.030133	0.167860	1.526000	-2.914660	0.923704	-0.289062	0.284545	-1.000000	-1.000000	-1.000000	-1.000000	-1.000000	-1.000000	-1.000000	36.827586	0.000000	-1.000000	-1.000000	670853.000000	1774294879.271600
-27993.870000	-29711.790000	-23538.330000	-39584.340000	-48175.470000	-67033.620000	-39370.905000	-18201.645000	11.297159	11.162373	1.859738	1.116732	-0.312082	-0.664378	0.808164	8.889866	6.348160	-0.534100	-3.265640	0.918699	-0.289245	0.284667	-1.000000	-1.000000	-1.000000	-1.000000	-1.000000	-1.000000	-1.000000	36.827586	0.000000	-1.000000	-1.000000	670854.000000	1774294879.278162
-27994.230000	-29710.485000	-23533.065000	-39577.680000	-48168.045000	-67027.050000	-39374.370000	-18216.945000	11.681824	15.280169	7.743450	7.265089	5.964093	5.508184	2.095062	-1.101924	6.348160	-0.534100	-3.265640	0.918699	-0.289245	0.284667	-1.000000	-1.000000	-1.000000	-1.000000	-1.000000	-1.000000	-1.000000	36.827586	0.000000	-1.000000	-1.000000	670855.000000	1774294879.278173
-27992.295000	-29717.955000	-23538.420000	-39582.585000	-48173.265000	-67032.180000	-39383.280000	-18212.175000	6.993595	12.037016	9.823591	9.754181	9.062946	8.654186	1.900841	-11.594179	6.348160	-0.534100	-3.265640	0.918699	-0.289245	0.284667	-1.000000	-1.000000	-1.000000	-1.000000	-1.000000	-1.000000	-1.000000	36.827586	0.000000	-1.000000	-1.000000	670856.000000	1774294879.279627
-27993.915000	-29721.420000	-23539.545000	-39582.945000	-48172.995000	-67032.990000	-39378.645000	-18187.965000	-0.596585	3.864456	8.153313	8.451687	8.592742	8.257120	0.630345	-17.134718	6.348160	-0.534100	-3.265640	0.918699	-0.289245	0.284667	-1.000000	-1.000000	-1.000000	-1.000000	-1.000000	-1.000000	-1.000000	36.827586	0.000000	-1.000000	-1.000000	670857.000000	1774294879.279636
-28002.420000	-29724.165000	-23535.945000	-39576.555000	-48164.895000	-67025.520000	-39365.685000	-18159.030000	-6.373758	-4.516444	4.319307	4.946687	5.847730	5.638300	-0.069666	-12.967481	6.348160	-0.534100	-3.265640	0.918699	-0.289245	0.284667	-1.000000	-1.000000	-1.000000	-1.000000	-1.000000	-1.000000	-1.000000	36.827586	0.000000	-1.000000	-1.000000	670858.000000	1774294879.284788
-28030.995000	-29738.835000	-23541.255000	-39580.020000	-48165.435000	-67026.870000	-39364.155000	-18182.880000	-8.356391	-9.708361	0.113149	1.130639	2.514027	2.553923	0.784784	-1.190750	6.348160	-0.534100	-3.265640	0.918699	-0.289245	0.284667	-1.000000	-1.000000	-1.000000	-1.000000	-1.000000	-1.000000	-1.000000	36.827586	0.000000	-1.000000	-1.000000	670859.000000	1774294879.284801
-28012.095000	-29747.655000	-23562.720000	-39606.480000	-48193.830000	-67054.050000	-39380.940000	-18202.590000	-7.934330	-10.941510	-3.610844	-2.398917	-0.955783	-0.531377	1.999247	9.460617	6.348160	-0.534100	-3.265640	0.918699	-0.289245	0.284667	-1.000000	-1.000000	-1.000000	-1.000000	-1.000000	-1.000000	-1.000000	36.827586	0.000000	-1.000000	-1.000000	670860.000000	1774294879.287424
