Channel1	Channel2	Channel3	Channel4	Channel5	Channel6	Channel7	Channel8	FilteredChannel1	FilteredChannel2	FilteredChannel3	FilteredChannel4	FilteredChannel5	FilteredChannel6	FilteredChannel7	FilteredChannel8	GyroX	GyroY	GyroZ	AccX	AccY	AccZ	PPG1	PPG2	rawPPG1	rawPPG2	rawPPG3	Hr	Hrv	Battery	Trigger	PhysicalTrigger	AutoTrigger	NumMeasurements	Timestamp
-27740.610000	-46214.820000	7162.200000	2367.630000	6490.755000	5177.880000	2257.380000	2098.800000	7.179156	8.572590	8.091977	7.829603	10.339443	6.487862	5.652202	9.636657	-3.235120	3.845520	-2.441600	0.882078	0.201965	0.394286	-1.000000	-1.000000	-1.000000	-1.000000	-1.000000	-1.000000	-1.000000	74.896552	0.000000	-1.000000	-1.000000	1408259.000000	1772660705.135863
-27736.965000	-46218.825000	7154.055000	2358.135000	6493.275000	5175.360000	2259.585000	2120.085000	2.819643	2.553698	1.646953	1.473636	7.294283	3.583254	4.010721	6.577000	-3.235120	3.845520	-2.441600	0.882078	0.201965	0.394286	-1.000000	-1.000000	-1.000000	-1.000000	-1.000000	-1.000000	-1.000000	74.896552	0.000000	-1.000000	-1.000000	1408260.000000	1772660705.135870
-27721.665000	-46218.555000	7152.795000	2355.705000	6488.730000	5180.670000	2257.335000	2148.750000	-2.064515	-3.695063	-4.204941	-4.182562	2.660588	0.069885	1.749348	2.308025	-4.028640	3.525060	-2.716280	0.881651	0.201293	0.396422	-1.000000	-1.000000	-1.000000	-1.000000	-1.000000	-1.000000	-1.000000	74.896552	0.000000	-1.000000	-1.000000	1408261.000000	1772660705.139346
-27686.295000	-46192.275000	7181.190000	2389.005000	6516.045000	5210.820000	2279.880000	2197.440000	-3.673159	-6.735795	-6.869655	-7.217894	-3.406565	-2.329489	0.394483	1.055235	-4.028640	3.525060	-2.716280	0.881651	0.201293	0.396422	-1.000000	-1.000000	-1.000000	-1.000000	-1.000000	-1.000000	-1.000000	74.896552	0.000000	-1.000000	-1.000000	1408262.000000	1772660705.139355
-27687.060000	-46190.880000	7181.280000	2381.040000	6494.445000	5204.700000	2295.090000	2202.345000	-1.662473	-6.110017	-6.284509	-7.326346	-9.474567	-3.154093	0.227081	3.082319	-4.028640	3.525060	-2.716280	0.881651	0.201293	0.396422	-1.000000	-1.000000	-1.000000	-1.000000	-1.000000	-1.000000	-1.000000	74.896552	0.000000	-1.000000	-1.000000	1408263.000000	1772660705.144610
-27740.070000	-46229.400000	7142.220000	2339.145000	6457.005000	5165.775000	2267.460000	2123.235000	1.141001	-3.558815	-4.101157	-5.783983	-13.934035	-3.471741	0.689304	4.653428	-4.028640	3.525060	-2.716280	0.881651	0.201293	0.396422	-1.000000	-1.000000	-1.000000	-1.000000	-1.000000	-1.000000	-1.000000	74.896552	0.000000	-1.000000	-1.000000	1408264.000000	1772660705.144621
-27780.975000	-46252.755000	7121.250000	2318.895000	6434.550000	5144.670000	2235.510000	2053.935000	-0.101376	-2.338521	-3.164365	-5.224952	-16.460152	-5.349426	-0.515857	-1.044391	-4.028640	3.525060	-2.716280	0.881651	0.201293	0.396422	-1.000000	-1.000000	-1.000000	-1.000000	-1.000000	-1.000000	-1.000000	74.896552	0.000000	-1.000000	-1.000000	1408265.000000	1772660705.147492
-27762.165000	-46238.895000	7130.700000	2325.420000	6431.220000	5147.955000	2236.770000	2073.600000	-7.338485	-4.341096	-4.844212	-6.614923	-16.603303	-8.910065	-5.103425	-15.875784	-4.028640	3.525060	-2.716280	0.881651	0.201293	0.396422	-1.000000	-1.000000	-1.000000	-1.000000	-1.000000	-1.000000	-1.000000	74.896552	0.000000	-1.000000	-1.000000	1408266.000000	1772660705.147502
-27753.300000	-46233.630000	7135.740000	2332.845000	6445.485000	5159.700000	2250.405000	2095.695000	-14.783541	-6.999953	-6.698683	-7.339816	-12.435897	-10.689620	-10.146429	-28.967381	-4.028640	3.525060	-2.716280	0.881651	0.201293	0.396422	-1.000000	-1.000000	-1.000000	-1.000000	-1.000000	-1.000000	-1.000000	74.896552	0.000000	-1.000000	-1.000000	1408267.000000	1772660705.151295
-27743.445000	-46229.895000	7139.835000	2339.415000	6456.645000	5165.460000	2252.070000	2107.125000	-13.221409	-5.127021	-4.248492	-3.339019	-2.069137	-6.316924	-9.825265	-25.376626	-4.028640	3.525060	-2.716280	0.881651	0.201293	0.396422	-1.000000	-1.000000	-1.000000	-1.000000	-1.000000	-1.000000	-1.000000	74.896552	0.000000	-1.000000	-1.000000	1408268.000000	1772660705.151304
-27742.365000	-46231.065000	7139.430000	2340.045000	6460.020000	5168.970000	2255.760000	2110.860000	-0.376911	3.131878	4.028389	6.252744	12.590989	4.380806	-2.171589	-3.420557	-4.028640	3.525060	-2.716280	0.881651	0.201293	0.396422	-1.000000	-1.000000	-1.000000	-1.000000	-1.000000	-1.000000	-1.000000	74.896552	0.000000	-1.000000	-1.000000	1408269.000000	1772660705.155511
-27742.770000	-46233.135000	7138.530000	2338.020000	6460.020000	5172.840000	2264.670000	2115.900000	15.273081	12.877779	13.488453	16.232415	24.501757	15.333760	8.242574	22.137239	-4.028640	3.525060	-2.716280	0.881651	0.201293	0.396422	-1.000000	-1.000000	-1.000000	-1.000000	-1.000000	-1.000000	-1.000000	74.896552	0.000000	-1.000000	-1.000000	1408270.000000	1772660705.155519
-27742.095000	-46231.245000	7141.905000	2340.900000	6465.555000	5174.685000	2263.185000	2114.910000	22.366381	16.635034	16.949947	19.168698	26.492198	19.020492	14.466037	34.257080	-1.724380	3.402980	-2.548420	0.882810	0.197937	0.398131	-1.000000	-1.000000	-1.000000	-1.000000	-1.000000	-1.000000	-1.000000	74.896552	0.000000	-1.000000	-1.000000	1408271.000000	1772660705.159535
-27735.750000	-46223.370000	7151.625000	2350.620000	6475.455000	5176.305000	2257.380000	2119.545000	17.394133	11.941897	12.041148	13.036888	18.020865	13.438542	12.733412	28.098495	-1.724380	3.402980	-2.548420	0.882810	0.197937	0.398131	-1.000000	-1.000000	-1.000000	-1.000000	-1.000000	-1.000000	-1.000000	74.896552	0.000000	-1.000000	-1.000000	1408272.000000	1772660705.159543
-27730.485000	-46218.555000	7156.620000	2355.075000	6478.020000	5177.790000	2255.715000	2123.190000	6.640253	3.417466	3.387183	3.193762	5.426370	3.499597	5.133572	12.520795	-1.724380	3.402980	-2.548420	0.882810	0.197937	0.398131	-1.000000	-1.000000	-1.000000	-1.000000	-1.000000	-1.000000	-1.000000	74.896552	0.000000	-1.000000	-1.000000	1408273.000000	1772660705.163500
-27722.205000	-46215.090000	7160.310000	2360.520000	6483.555000	5183.280000	2261.835000	2137.365000	-1.822576	-3.025818	-3.105846	-3.966285	-4.580589	-4.376784	-2.616153	-0.559107	-1.724380	3.402980	-2.548420	0.882810	0.197937	0.398131	-1.000000	-1.000000	-1.000000	-1.000000	-1.000000	-1.000000	-1.000000	74.896552	0.000000	-1.000000	-1.000000	1408274.000000	1772660705.163505
-27720.990000	-46212.615000	7162.110000	2361.645000	6484.770000	5186.925000	2277.720000	2148.795000	-5.673450	-5.898619	-5.959052	-6.904000	-9.809243	-7.699839	-6.287022	-6.582337	-1.724380	3.402980	-2.548420	0.882810	0.197937	0.398131	-1.000000	-1.000000	-1.000000	-1.000000	-1.000000	-1.000000	-1.000000	74.896552	0.000000	-1.000000	-1.000000	1408275.000000	1772660705.167454
-27741.690000	-46226.565000	7145.190000	2342.655000	6466.635000	5176.755000	2281.770000	2122.155000	-7.300683	-6.938077	-7.034058	-7.803171	-11.803784	-7.827250	-5.488156	-8.389160	-1.724380	3.402980	-2.548420	0.882810	0.197937	0.398131	-1.000000	-1.000000	-1.000000	-1.000000	-1.000000	-1.000000	-1.000000	74.896552	0.000000	-1.000000	-1.000000	1408276.000000	1772660705.167462
-27736.335000	-46223.415000	7145.370000	2340.135000	6464.745000	5173.245000	2276.415000	2117.160000	-8.708842	-7.234135	-7.652969	-8.489283	-12.612488	-6.867526	-2.471277	-10.131438	-1.724380	3.402980	-2.548420	0.882810	0.197937	0.398131	-1.000000	-1.000000	-1.000000	-1.000000	-1.000000	-1.000000	-1.000000	74.896552	0.000000	-1.000000	-1.000000	1408277.000000	1772660705.171450
-27726.210000	-46208.430000	7163.370000	2357.910000	6483.015000	5179.365000	2265.030000	2124.900000	-9.430675	-6.285209	-7.248973	-8.501441	-12.228462	-5.803394	-0.344328	-12.923839	-1.724380	3.402980	-2.548420	0.882810	0.197937	0.398131	-1.000000	-1.000000	-1.000000	-1.000000	-1.000000	-1.000000	-1.000000	74.896552	0.000000	-1.000000	-1.000000	1408278.000000	1772660705.171458
-27713.565000	-46199.655000	7171.965000	2367.090000	6497.685000	5195.970000	2284.110000	2154.105000	-7.967537	-3.486883	-4.750546	-6.282351	-9.001196	-4.366202	-0.874220	-14.298318	-1.724380	3.402980	-2.548420	0.882810	0.197937	0.398131	-1.000000	-1.000000	-1.000000	-1.000000	-1.000000	-1.000000	-1.000000	74.896552	0.000000	-1.000000	-1.000000	1408279.000000	1772660705.175457
-27668.970000	-46168.830000	7201.980000	2400.480000	6532.425000	5221.710000	2321.955000	2223.900000	-3.391413	0.718202	-0.295715	-1.371228	-2.209862	-1.586070	-2.349525	-10.191947	-1.724380	3.402980	-2.548420	0.882810	0.197937	0.398131	-1.000000	-1.000000	-1.000000	-1.000000	-1.000000	-1.000000	-1.000000	74.896552	0.000000	-1.000000	-1.000000	1408280.000000	1772660705.175463
-27668.025000	-46157.805000	7217.235000	2417.625000	6536.655000	5224.185000	2304.630000	2205.135000	3.905170	5.247304	4.922393	5.176376	6.526267	2.978137	-1.563316	0.823090	-2.456860	4.501700	-1.815940	0.884092	0.198791	0.397948	-1.000000	-1.000000	-1.000000	-1.000000	-1.000000	-1.000000	-1.000000	74.896552	0.000000	-1.000000	-1.000000	1408281.000000	1772660705.179439
-27712.170000	-46200.960000	7173.675000	2372.625000	6491.835000	5194.845000	2273.535000	2139.750000	10.250809	7.833024	8.401840	10.244023	12.769725	7.248077	1.054813	12.531786	-2.456860	4.501700	-1.815940	0.884092	0.198791	0.397948	-1.000000	-1.000000	-1.000000	-1.000000	-1.000000	-1.000000	-1.000000	74.896552	0.000000	-1.000000	-1.000000	1408282.000000	1772660705.179447
-27771.165000	-46252.080000	7120.440000	2318.310000	6442.110000	5147.055000	2236.950000	2067.300000	9.191607	4.606035	5.947531	8.616259	10.891684	6.766337	1.215704	13.817580	-2.456860	4.501700	-1.815940	0.884092	0.198791	0.397948	-1.000000	-1.000000	-1.000000	-1.000000	-1.000000	-1.000000	-1.000000	74.896552	0.000000	-1.000000	-1.000000	1408283.000000	1772660705.184904
-27767.655000	-46252.755000	7115.895000	2312.955000	6439.770000	5137.830000	2234.790000	2075.850000	-1.188320	-5.139073	-3.589962	-1.427837	0.110129	-0.495595	-3.421283	1.130632	-2.456860	4.501700	-1.815940	0.884092	0.198791	0.397948	-1.000000	-1.000000	-1.000000	-1.000000	-1.000000	-1.000000	-1.000000	74.896552	0.000000	-1.000000	-1.000000	1408284.000000	1772660705.184925
-27750.645000	-46241.055000	7124.895000	2320.290000	6446.835000	5143.410000	2241.585000	2096.280000	-13.030683	-14.684500	-13.693842	-13.055427	-12.012454	-9.798126	-9.273513	-14.716831	-2.456860	4.501700	-1.815940	0.884092	0.198791	0.397948	-1.000000	-1.000000	-1.000000	-1.000000	-1.000000	-1.000000	-1.000000	74.896552	0.000000	-1.000000	-1.000000	1408285.000000	1772660705.187487
-27748.935000	-46237.365000	7130.880000	2330.055000	6459.390000	5158.350000	2249.235000	2103.255000	-16.051754	-15.668674	-15.656948	-16.631533	-15.949735	-13.214843	-10.020361	-19.256642	-2.456860	4.501700	-1.815940	0.884092	0.198791	0.397948	-1.000000	-1.000000	-1.000000	-1.000000	-1.000000	-1.000000	-1.000000	74.896552	0.000000	-1.000000	-1.000000	1408286.000000	1772660705.187496
-27748.305000	-46234.440000	7137.810000	2338.110000	6470.910000	5169.780000	2254.410000	2106.945000	-8.235754	-6.877530	-7.591615	-9.348692	-9.086527	-7.441932	-3.252337	-9.177489	-2.456860	4.501700	-1.815940	0.884092	0.198791	0.397948	-1.000000	-1.000000	-1.000000	-1.000000	-1.000000	-1.000000	-1.000000	74.896552	0.000000	-1.000000	-1.000000	1408287.000000	1772660705.191359
-27744.120000	-46230.165000	7143.615000	2342.835000	6478.605000	5169.915000	2254.455000	2110.230000	3.920862	5.569301	4.843222	3.363643	3.213243	3.462261	6.849450	6.597510	-2.456860	4.501700	-1.815940	0.884092	0.198791	0.397948	-1.000000	-1.000000	-1.000000	-1.000000	-1.000000	-1.000000	-1.000000	74.896552	0.000000	-1.000000	-1.000000	1408288.000000	1772660705.191368
-27736.245000	-46227.195000	7143.930000	2341.755000	6474.240000	5170.590000	2254.905000	2114.280000	12.489833	14.188065	14.001097	13.280797	12.857016	12.118447	13.399162	16.779888	-2.456860	4.501700	-1.815940	0.884092	0.198791	0.397948	-1.000000	-1.000000	-1.000000	-1.000000	-1.000000	-1.000000	-1.000000	74.896552	0.000000	-1.000000	-1.000000	1408289.000000	1772660705.195465
-27727.470000	-46218.780000	7152.210000	2346.210000	6469.155000	5174.730000	2262.015000	2127.330000	14.268388	15.534968	15.775162	15.548713	14.991912	14.114151	13.422099	17.538876	-2.456860	4.501700	-1.815940	0.884092	0.198791	0.397948	-1.000000	-1.000000	-1.000000	-1.000000	-1.000000	-1.000000	-1.000000	74.896552	0.000000	-1.000000	-1.000000	1408290.000000	1772660705.195470
-27725.715000	-46213.965000	7158.195000	2352.600000	6481.755000	5180.220000	2267.145000	2132.865000	11.894334	11.966701	12.125327	11.886049	11.196769	10.823937	9.671397	13.821701	-2.563680	4.318580	-1.648080	0.884946	0.197937	0.397521	-1.000000	-1.000000	-1.000000	-1.000000	-1.000000	-1.000000	-1.000000	74.896552	0.000000	-1.000000	-1.000000	1408291.000000	1772660705.200789
-27732.555000	-46214.505000	7158.330000	2352.465000	6487.200000	5177.295000	2263.815000	2120.265000	9.219870	7.981348	7.864678	7.469960	6.728181	6.406858	5.884235	11.065515	-2.563680	4.318580	-1.648080	0.884946	0.197937	0.397521	-1.000000	-1.000000	-1.000000	-1.000000	-1.000000	-1.000000	-1.000000	74.896552	0.000000	-1.000000	-1.000000	1408292.000000	1772660705.200799
-27732.690000	-46212.570000	7159.770000	2356.875000	6496.785000	5181.255000	2264.760000	2116.800000	6.613982	5.038605	4.954326	4.765226	4.342093	3.061289	2.677469	8.505299	-2.563680	4.318580	-1.648080	0.884946	0.197937	0.397521	-1.000000	-1.000000	-1.000000	-1.000000	-1.000000	-1.000000	-1.000000	74.896552	0.000000	-1.000000	-1.000000	1408293.000000	1772660705.203534
-27732.015000	-46217.430000	7154.190000	2351.610000	6486.930000	5177.610000	2263.905000	2119.050000	1.941301	1.302714	1.603335	2.112250	2.283741	-0.074085	-1.283660	2.370159	-2.563680	4.318580	-1.648080	0.884946	0.197937	0.397521	-1.000000	-1.000000	-1.000000	-1.000000	-1.000000	-1.000000	-1.000000	74.896552	0.000000	-1.000000	-1.000000	1408294.000000	1772660705.203541
-27722.115000	-46213.605000	7156.755000	2351.610000	6478.470000	5172.975000	2263.185000	2127.285000	-5.087726	-4.519364	-3.958696	-2.718950	-2.388915	-4.533879	-6.232183	-7.462240	-2.563680	4.318580	-1.648080	0.884946	0.197937	0.397521	-1.000000	-1.000000	-1.000000	-1.000000	-1.000000	-1.000000	-1.000000	74.896552	0.000000	-1.000000	-1.000000	1408295.000000	1772660705.207551
-27719.280000	-46205.685000	7165.845000	2362.680000	6500.880000	5183.595000	2264.040000	2119.860000	-11.588790	-10.736877	-10.522051	-9.164807	-9.558788	-9.909991	-10.614643	-16.770693	-2.563680	4.318580	-1.648080	0.884946	0.197937	0.397521	-1.000000	-1.000000	-1.000000	-1.000000	-1.000000	-1.000000	-1.000000	74.896552	0.000000	-1.000000	-1.000000	1408296.000000	1772660705.207559
-27724.680000	-46208.745000	7164.225000	2362.500000	6511.905000	5199.570000	2274.615000	2116.080000	-14.594998	-14.242787	-14.817129	-14.012028	-15.101650	-13.247058	-12.352643	-21.379229	-2.563680	4.318580	-1.648080	0.884946	0.197937	0.397521	-1.000000	-1.000000	-1.000000	-1.000000	-1.000000	-1.000000	-1.000000	74.896552	0.000000	-1.000000	-1.000000	1408297.000000	1772660705.213056
-27723.420000	-46202.940000	7171.155000	2369.385000	6522.480000	5216.355000	2294.370000	2130.570000	-13.445750	-13.362032	-14.467478	-14.357820	-14.653856	-11.409556	-9.856501	-19.393643	-2.563680	4.318580	-1.648080	0.884946	0.197937	0.397521	-1.000000	-1.000000	-1.000000	-1.000000	-1.000000	-1.000000	-1.000000	74.896552	0.000000	-1.000000	-1.000000	1408298.000000	1772660705.213063
-27678.105000	-46160.820000	7210.575000	2405.565000	6558.795000	5236.740000	2297.250000	2182.410000	-8.215765	-7.848625	-8.803469	-9.123575	-7.145790	-4.059482	-3.150289	-10.097952	-2.563680	4.318580	-1.648080	0.884946	0.197937	0.397521	-1.000000	-1.000000	-1.000000	-1.000000	-1.000000	-1.000000	-1.000000	74.896552	0.000000	-1.000000	-1.000000	1408299.000000	1772660705.215562
-27683.055000	-46161.495000	7209.180000	2400.930000	6539.760000	5214.330000	2255.805000	2153.655000	0.977952	1.555003	1.184249	0.639731	4.285924	5.393886	4.466283	4.700499	-2.563680	4.318580	-1.648080	0.884946	0.197937	0.397521	-1.000000	-1.000000	-1.000000	-1.000000	-1.000000	-1.000000	-1.000000	74.896552	0.000000	-1.000000	-1.000000	1408300.000000	1772660705.215571
-27774.360000	-46253.745000	7119.315000	2317.725000	6468.075000	5157.495000	2245.365000	2078.775000	9.858408	10.000946	10.225126	9.511650	12.083215	10.735387	7.830550	17.195294	-3.372460	4.227020	-1.480220	0.885923	0.198974	0.399108	-1.000000	-1.000000	-1.000000	-1.000000	-1.000000	-1.000000	-1.000000	74.896552	0.000000	-1.000000	-1.000000	1408301.000000	1772660705.219630
-27755.640000	-46256.265000	7114.455000	2307.330000	6438.645000	5145.030000	2263.725000	2129.085000	11.049379	10.039161	10.715580	9.981148	8.982505	7.224207	5.318868	18.760784	-3.372460	4.227020	-1.480220	0.885923	0.198974	0.399108	-1.000000	-1.000000	-1.000000	-1.000000	-1.000000	-1.000000	-1.000000	74.896552	0.000000	-1.000000	-1.000000	1408302.000000	1772660705.219638
-27731.745000	-46228.275000	7146.720000	2341.935000	6456.150000	5173.560000	2281.770000	2153.700000	4.049977	1.555754	2.510013	1.930690	-3.136507	-2.438180	0.868598	10.490769	-3.372460	4.227020	-1.480220	0.885923	0.198974	0.399108	-1.000000	-1.000000	-1.000000	-1.000000	-1.000000	-1.000000	-1.000000	74.896552	0.000000	-1.000000	-1.000000	1408303.000000	1772660705.224844
-27750.645000	-46223.055000	7158.420000	2359.620000	6477.750000	5185.845000	2273.895000	2121.255000	-3.813097	-6.693726	-5.597359	-5.837138	-13.402241	-9.510562	-1.031244	0.418816	-3.372460	4.227020	-1.480220	0.885923	0.198974	0.399108	-1.000000	-1.000000	-1.000000	-1.000000	-1.000000	-1.000000	-1.000000	74.896552	0.000000	-1.000000	-1.000000	1408304.000000	1772660705.224852
-27734.670000	-46215.090000	7155.450000	2352.285000	6482.025000	5181.795000	2269.170000	2133.180000	-6.853098	-7.678954	-6.662666	-6.336060	-13.200799	-8.462503	-0.141981	-6.507473	-3.372460	4.227020	-1.480220	0.885923	0.198974	0.399108	-1.000000	-1.000000	-1.000000	-1.000000	-1.000000	-1.000000	-1.000000	74.896552	0.000000	-1.000000	-1.000000	1408305.000000	1772660705.227610
-27728.955000	-46244.295000	7112.385000	2304.810000	6440.355000	5147.145000	2248.785000	2123.280000	-4.259692	-2.233765	-2.126224	-1.424844	-4.107488	-2.104262	0.556248	-9.225340	-3.372460	4.227020	-1.480220	0.885923	0.198974	0.399108	-1.000000	-1.000000	-1.000000	-1.000000	-1.000000	-1.000000	-1.000000	74.896552	0.000000	-1.000000	-1.000000	1408306.000000	1772660705.227618
-27742.095000	-46251.315000	7112.025000	2309.310000	6444.360000	5147.550000	2246.580000	2115.090000	1.384861	3.732765	1.942289	2.422383	5.680919	2.919470	-1.178159	-8.492343	-3.372460	4.227020	-1.480220	0.885923	0.198974	0.399108	-1.000000	-1.000000	-1.000000	-1.000000	-1.000000	-1.000000	-1.000000	74.896552	0.000000	-1.000000	-1.000000	1408307.000000	1772660705.234047
-27738.315000	-46235.385000	7133.670000	2332.440000	6465.195000	5162.175000	2257.110000	2123.595000	5.408611	5.448612	2.232952	2.334764	10.449253	3.832195	-3.909392	-6.275697	-3.372460	4.227020	-1.480220	0.885923	0.198974	0.399108	-1.000000	-1.000000	-1.000000	-1.000000	-1.000000	-1.000000	-1.000000	74.896552	0.000000	-1.000000	-1.000000	1408308.000000	1772660705.234056
-27745.110000	-46229.175000	7141.500000	2341.125000	6471.900000	5164.380000	2254.680000	2106.180000	5.678654	4.023411	1.517566	1.677925	11.275142	3.746350	-3.576623	-2.830694	-3.372460	4.227020	-1.480220	0.885923	0.198974	0.399108	-1.000000	-1.000000	-1.000000	-1.000000	-1.000000	-1.000000	-1.000000	74.896552	0.000000	-1.000000	-1.000000	1408309.000000	1772660705.235570
-27738.000000	-46225.080000	7142.355000	2340.585000	6472.845000	5161.590000	2253.780000	2113.470000	4.940547	4.434672	4.496836	4.955009	12.151296	6.410353	1.182516	2.992701	-3.372460	4.227020	-1.480220	0.885923	0.198974	0.399108	-1.000000	-1.000000	-1.000000	-1.000000	-1.000000	-1.000000	-1.000000	74.896552	0.000000	-1.000000	-1.000000	1408310.000000	1772660705.235576
-27729.675000	-46218.240000	7148.880000	2347.605000	6484.905000	5171.355000	2259.855000	2123.820000	5.425948	8.147349	10.775073	11.237312	13.913488	10.841426	6.611132	9.187723	-2.655240	4.822160	-2.212700	0.886411	0.198120	0.399352	-1.000000	-1.000000	-1.000000	-1.000000	-1.000000	-1.000000	-1.000000	74.896552	0.000000	-1.000000	-1.000000	1408311.000000	1772660705.239708
-27729.765000	-46218.690000	7150.905000	2352.420000	6485.310000	5178.780000	2262.510000	2124.990000	5.169834	10.469248	14.033330	14.099824	12.994087	12.228132	8.171102	11.273063	-2.655240	4.822160	-2.212700	0.886411	0.198120	0.399352	-1.000000	-1.000000	-1.000000	-1.000000	-1.000000	-1.000000	-1.000000	74.896552	0.000000	-1.000000	-1.000000	1408312.000000	1772660705.239716
-27729.135000	-46216.260000	7155.045000	2355.930000	6478.335000	5178.465000	2262.285000	2126.835000	1.975363	6.641111	9.235735	8.743303	5.613290	7.300946	5.064961	7.980355	-2.655240	4.822160	-2.212700	0.886411	0.198120	0.399352	-1.000000	-1.000000	-1.000000	-1.000000	-1.000000	-1.000000	-1.000000	74.896552	0.000000	-1.000000	-1.000000	1408313.000000	1772660705.243604
-27732.645000	-46222.560000	7148.475000	2350.620000	6479.145000	5175.270000	2260.350000	2125.215000	-3.399125	-2.426478	-1.606752	-2.477852	-7.038338	-2.160325	-0.088986	2.043906	-2.655240	4.822160	-2.212700	0.886411	0.198120	0.399352	-1.000000	-1.000000	-1.000000	-1.000000	-1.000000	-1.000000	-1.000000	74.896552	0.000000	-1.000000	-1.000000	1408314.000000	1772660705.243611
-27738.045000	-46230.570000	7138.530000	2341.530000	6472.080000	5169.735000	2256.795000	2120.580000	-8.531050	-11.354775	-11.731974	-12.473691	-18.287493	-10.854049	-4.146631	-3.419868	-2.655240	4.822160	-2.212700	0.886411	0.198120	0.399352	-1.000000	-1.000000	-1.000000	-1.000000	-1.000000	-1.000000	-1.000000	74.896552	0.000000	-1.000000	-1.000000	1408315.000000	1772660705.247588
-27733.500000	-46224.225000	7145.730000	2348.280000	6478.875000	5176.710000	2262.780000	2126.340000	-10.970532	-15.326988	-16.053520	-16.237311	-21.971657	-14.484077	-5.501478	-6.683340	-2.655240	4.822160	-2.212700	0.886411	0.198120	0.399352	-1.000000	-1.000000	-1.000000	-1.000000	-1.000000	-1.000000	-1.000000	74.896552	0.000000	-1.000000	-1.000000	1408316.000000	1772660705.247596
-27727.605000	-46213.065000	7158.690000	2362.950000	6493.365000	5183.685000	2267.730000	2131.830000	-9.191405	-13.104776	-14.009312	-13.683890	-17.218462	-12.274012	-4.176900	-6.946162	-2.655240	4.822160	-2.212700	0.886411	0.198120	0.399352	-1.000000	-1.000000	-1.000000	-1.000000	-1.000000	-1.000000	-1.000000	74.896552	0.000000	-1.000000	-1.000000	1408317.000000	1772660705.251613
-27734.355000	-46221.480000	7148.925000	2355.705000	6490.395000	5179.320000	2266.470000	2127.870000	-3.331403	-6.204671	-7.486555	-6.993285	-6.902710	-5.906347	-1.152680	-3.879788	-2.655240	4.822160	-2.212700	0.886411	0.198120	0.399352	-1.000000	-1.000000	-1.000000	-1.000000	-1.000000	-1.000000	-1.000000	74.896552	0.000000	-1.000000	-1.000000	1408318.000000	1772660705.251622
-27739.395000	-46229.715000	7138.350000	2339.685000	6472.800000	5174.370000	2270.205000	2123.595000	3.913465	2.092299	0.491068	0.841950	4.347912	1.577970	1.777456	0.799859	-2.655240	4.822160	-2.212700	0.886411	0.198120	0.399352	-1.000000	-1.000000	-1.000000	-1.000000	-1.000000	-1.000000	-1.000000	74.896552	0.000000	-1.000000	-1.000000	1408319.000000	1772660705.255659
-27734.400000	-46224.540000	7142.850000	2340.405000	6470.955000	5179.680000	2275.875000	2129.130000	8.231746	7.635861	6.071979	5.956203	11.195944	6.494550	2.805427	3.347996	-2.655240	4.822160	-2.212700	0.886411	0.198120	0.399352	-1.000000	-1.000000	-1.000000	-1.000000	-1.000000	-1.000000	-1.000000	74.896552	0.000000	-1.000000	-1.000000	1408320.000000	1772660705.255666
-27730.935000	-46219.905000	7149.465000	2350.530000	6486.030000	5183.685000	2267.820000	2133.495000	7.618536	8.306026	7.130466	6.271978	11.146396	6.770499	1.486909	2.228955	-3.601360	5.569900	-0.549360	0.886839	0.199768	0.397277	-1.000000	-1.000000	-1.000000	-1.000000	-1.000000	-1.000000	-1.000000	74.896552	0.000000	-1.000000	-1.000000	1408321.000000	1772660705.259592
-27724.590000	-46210.770000	7159.230000	2361.870000	6501.735000	5191.965000	2269.665000	2133.000000	3.879398	5.492626	4.986393	3.649378	6.777243	3.645723	-1.091489	-0.485494	-3.601360	5.569900	-0.549360	0.886839	0.199768	0.397277	-1.000000	-1.000000	-1.000000	-1.000000	-1.000000	-1.000000	-1.000000	74.896552	0.000000	-1.000000	-1.000000	1408322.000000	1772660705.259612
-27731.565000	-46209.645000	7164.765000	2369.025000	6516.720000	5201.235000	2277.360000	2123.325000	-0.068298	2.283147	2.813219	1.883696	2.899297	0.501569	-2.971811	-2.407320	-3.601360	5.569900	-0.549360	0.886839	0.199768	0.397277	-1.000000	-1.000000	-1.000000	-1.000000	-1.000000	-1.000000	-1.000000	74.896552	0.000000	-1.000000	-1.000000	1408323.000000	1772660705.265433
-27730.710000	-46204.200000	7172.910000	2374.830000	6512.130000	5197.995000	2257.155000	2121.345000	-2.507074	0.805402	2.648204	2.870942	1.925702	-0.299720	-2.886320	-2.801468	-3.601360	5.569900	-0.549360	0.886839	0.199768	0.397277	-1.000000	-1.000000	-1.000000	-1.000000	-1.000000	-1.000000	-1.000000	74.896552	0.000000	-1.000000	-1.000000	1408324.000000	1772660705.265445
-27694.305000	-46174.185000	7202.475000	2405.340000	6531.030000	5220.855000	2279.520000	2178.855000	-2.719627	1.064912	3.839627	5.142129	2.327825	0.785655	-1.398797	-1.332280	-3.601360	5.569900	-0.549360	0.886839	0.199768	0.397277	-1.000000	-1.000000	-1.000000	-1.000000	-1.000000	-1.000000	-1.000000	74.896552	0.000000	-1.000000	-1.000000	1408325.000000	1772660705.268200
-27604.440000	-46098.270000	7269.570000	2468.250000	6581.925000	5276.790000	2349.270000	2289.420000	0.791681	2.972778	5.381873	6.953201	2.266029	2.843332	1.508266	4.196768	-3.601360	5.569900	-0.549360	0.886839	0.199768	0.397277	-1.000000	-1.000000	-1.000000	-1.000000	-1.000000	-1.000000	-1.000000	74.896552	0.000000	-1.000000	-1.000000	1408326.000000	1772660705.268208
-27683.640000	-46174.185000	7194.420000	2395.170000	6512.220000	5213.340000	2307.195000	2172.285000	7.633333	5.985950	6.526514	7.429193	1.466022	5.116163	6.183991	13.051282	-3.601360	5.569900	-0.549360	0.886839	0.199768	0.397277	-1.000000	-1.000000	-1.000000	-1.000000	-1.000000	-1.000000	-1.000000	74.896552	0.000000	-1.000000	-1.000000	1408327.000000	1772660705.271515
-27786.375000	-46268.820000	7105.680000	2309.535000	6436.710000	5141.430000	2247.435000	2059.605000	9.699964	4.514189	2.838414	2.829490	-2.382908	3.409732	8.231487	14.354408	-3.601360	5.569900	-0.549360	0.886839	0.199768	0.397277	-1.000000	-1.000000	-1.000000	-1.000000	-1.000000	-1.000000	-1.000000	74.896552	0.000000	-1.000000	-1.000000	1408328.000000	1772660705.271523
-27771.750000	-46260.810000	7112.565000	2314.710000	6445.395000	5138.955000	2234.385000	2089.620000	-0.939315	-6.677016	-9.359029	-9.678899	-11.203592	-5.995260	2.029318	-0.812792	-3.601360	5.569900	-0.549360	0.886839	0.199768	0.397277	-1.000000	-1.000000	-1.000000	-1.000000	-1.000000	-1.000000	-1.000000	74.896552	0.000000	-1.000000	-1.000000	1408329.000000	1772660705.277256
-27748.845000	-46236.690000	7133.670000	2334.870000	6465.960000	5151.240000	2243.430000	2117.475000	-17.933910	-21.263416	-23.406645	-23.494509	-19.766931	-17.955456	-9.619770	-22.525526	-3.601360	5.569900	-0.549360	0.886839	0.199768	0.397277	-1.000000	-1.000000	-1.000000	-1.000000	-1.000000	-1.000000	-1.000000	74.896552	0.000000	-1.000000	-1.000000	1408330.000000	1772660705.277267
-27763.290000	-46242.045000	7130.025000	2335.410000	6470.640000	5154.435000	2247.255000	2088.045000	-26.523881	-26.339180	-27.230124	-27.143062	-19.656472	-22.133409	-17.162832	-32.286939	-3.525060	4.684820	-1.541260	0.884275	0.199645	0.400206	-1.000000	-1.000000	-1.000000	-1.000000	-1.000000	-1.000000	-1.000000	74.896552	0.000000	-1.000000	-1.000000	1408331.000000	1772660705.279433
-27750.915000	-46234.215000	7135.830000	2341.170000	6478.155000	5169.960000	2253.375000	2099.880000	-19.628886	-16.520233	-16.313505	-16.284328	-8.631004	-13.675720	-14.303012	-23.059862	-3.525060	4.684820	-1.541260	0.884275	0.199645	0.400206	-1.000000	-1.000000	-1.000000	-1.000000	-1.000000	-1.000000	-1.000000	74.896552	0.000000	-1.000000	-1.000000	1408332.000000	1772660705.279442
-27731.745000	-46218.510000	7146.990000	2343.420000	6470.280000	5172.795000	2258.190000	2112.885000	-1.607138	2.564078	3.194142	2.995146	7.583832	3.231705	-2.566120	-1.718690	-3.525060	4.684820	-1.541260	0.884275	0.199645	0.400206	-1.000000	-1.000000	-1.000000	-1.000000	-1.000000	-1.000000	-1.000000	74.896552	0.000000	-1.000000	-1.000000	1408333.000000	1772660705.293021
-27731.295000	-46219.995000	7145.370000	2342.835000	6475.185000	5164.830000	2256.210000	2116.530000	16.665343	19.716758	20.061741	19.393382	19.820566	18.664005	10.489550	18.402096	-3.525060	4.684820	-1.541260	0.884275	0.199645	0.400206	-1.000000	-1.000000	-1.000000	-1.000000	-1.000000	-1.000000	-1.000000	74.896552	0.000000	-1.000000	-1.000000	1408334.000000	1772660705.293034
-27732.870000	-46226.790000	7141.680000	2344.905000	6489.180000	5170.770000	2261.340000	2126.475000	24.697502	25.568444	25.603979	24.529539	22.157687	23.879849	16.536713	26.257781	-3.525060	4.684820	-1.541260	0.884275	0.199645	0.400206	-1.000000	-1.000000	-1.000000	-1.000000	-1.000000	-1.000000	-1.000000	74.896552	0.000000	-1.000000	-1.000000	1408335.000000	1772660705.293046
-27727.245000	-46214.865000	7157.295000	2363.085000	6506.730000	5190.210000	2271.510000	2130.435000	21.108566	20.197004	20.632719	19.875625	17.166696	19.068374	13.896861	22.425402	-3.525060	4.684820	-1.541260	0.884275	0.199645	0.400206	-1.000000	-1.000000	-1.000000	-1.000000	-1.000000	-1.000000	-1.000000	74.896552	0.000000	-1.000000	-1.000000	1408336.000000	1772660705.293050
-27730.755000	-46221.255000	7148.745000	2349.495000	6476.805000	5180.850000	2266.650000	2122.470000	13.586782	11.972150	13.286041	13.546484	11.607788	11.654436	8.202837	16.158417	-3.525060	4.684820	-1.541260	0.884275	0.199645	0.400206	-1.000000	-1.000000	-1.000000	-1.000000	-1.000000	-1.000000	-1.000000	74.896552	0.000000	-1.000000	-1.000000	1408337.000000	1772660705.293054
-27736.695000	-46228.320000	7141.185000	2340.360000	6461.820000	5174.415000	2263.230000	2116.845000	7.384031	6.033004	7.784269	8.873664	6.570311	5.801092	4.141454	11.255289	-3.525060	4.684820	-1.541260	0.884275	0.199645	0.400206	-1.000000	-1.000000	-1.000000	-1.000000	-1.000000	-1.000000	-1.000000	74.896552	0.000000	-1.000000	-1.000000	1408338.000000	1772660705.293058
-27731.340000	-46221.165000	7149.510000	2350.665000	6479.415000	5181.480000	2265.930000	2123.145000	0.923543	0.286159	1.582298	2.645090	-1.364996	-0.257286	1.182770	4.088104	-3.525060	4.684820	-1.541260	0.884275	0.199645	0.400206	-1.000000	-1.000000	-1.000000	-1.000000	-1.000000	-1.000000	-1.000000	74.896552	0.000000	-1.000000	-1.000000	1408339.000000	1772660705.296704
-27728.910000	-46216.890000	7156.035000	2356.425000	6486.480000	5183.595000	2265.165000	2125.395000	-6.906776	-6.927528	-6.623721	-6.292016	-11.360851	-7.699694	-2.598781	-6.085126	-3.525060	4.684820	-1.541260	0.884275	0.199645	0.400206	-1.000000	-1.000000	-1.000000	-1.000000	-1.000000	-1.000000	-1.000000	74.896552	0.000000	-1.000000	-1.000000	1408340.000000	1772660705.296714
-27734.130000	-46223.010000	7150.230000	2352.555000	6486.030000	5181.795000	2264.985000	2123.955000	-13.654504	-13.383113	-13.979633	-14.435750	-18.146536	-14.416661	-7.000005	-14.982069	-3.006220	5.508860	-1.129240	0.883970	0.200317	0.397399	-1.000000	-1.000000	-1.000000	-1.000000	-1.000000	-1.000000	-1.000000	74.896552	0.000000	-1.000000	-1.000000	1408341.000000	1772660705.314059
-27740.115000	-46232.145000	7137.585000	2341.440000	6480.990000	5175.810000	2265.435000	2122.920000	-17.129045	-16.763960	-17.787761	-18.371857	-18.206589	-17.615658	-10.221260	-19.335036	-3.006220	5.508860	-1.129240	0.883970	0.200317	0.397399	-1.000000	-1.000000	-1.000000	-1.000000	-1.000000	-1.000000	-1.000000	74.896552	0.000000	-1.000000	-1.000000	1408342.000000	1772660705.314070
-27733.320000	-46225.035000	7142.355000	2347.020000	6486.345000	5179.095000	2266.200000	2125.980000	-16.842892	-16.375897	-17.433686	-17.340247	-12.488562	-15.981075	-10.929778	-19.018099	-3.006220	5.508860	-1.129240	0.883970	0.200317	0.397399	-1.000000	-1.000000	-1.000000	-1.000000	-1.000000	-1.000000	-1.000000	74.896552	0.000000	-1.000000	-1.000000	1408343.000000	1772660705.314082
-27724.635000	-46216.620000	7150.995000	2350.485000	6480.810000	5175.495000	2263.410000	2129.985000	-12.157972	-11.501830	-12.526144	-11.761395	-4.353111	-9.925910	-8.899373	-14.369703	-3.006220	5.508860	-1.129240	0.883970	0.200317	0.397399	-1.000000	-1.000000	-1.000000	-1.000000	-1.000000	-1.000000	-1.000000	74.896552	0.000000	-1.000000	-1.000000	1408344.000000	1772660705.314086
-27725.220000	-46215.675000	7155.180000	2353.635000	6483.375000	5177.295000	2263.455000	2132.100000	-2.623060	-1.904847	-2.939691	-2.427793	3.533508	-1.160032	-4.376973	-5.047795	-3.006220	5.508860	-1.129240	0.883970	0.200317	0.397399	-1.000000	-1.000000	-1.000000	-1.000000	-1.000000	-1.000000	-1.000000	74.896552	0.000000	-1.000000	-1.000000	1408345.000000	1772660705.314090
-27746.055000	-46221.480000	7156.620000	2357.640000	6491.025000	5188.275000	2272.995000	2114.055000	8.758953	9.391023	8.654352	8.181918	10.015775	7.793994	1.873358	6.743028	-3.006220	5.508860	-1.129240	0.883970	0.200317	0.397399	-1.000000	-1.000000	-1.000000	-1.000000	-1.000000	-1.000000	-1.000000	74.896552	0.000000	-1.000000	-1.000000	1408346.000000	1772660705.314094
-27732.375000	-46210.905000	7164.855000	2365.695000	6497.505000	5199.480000	2285.010000	2118.330000	15.975458	16.799714	17.005347	15.860958	13.952800	14.217541	8.116943	15.180530	-3.006220	5.508860	-1.129240	0.883970	0.200317	0.397399	-1.000000	-1.000000	-1.000000	-1.000000	-1.000000	-1.000000	-1.000000	74.896552	0.000000	-1.000000	-1.000000	1408347.000000	1772660705.314098
-27705.510000	-46198.395000	7170.975000	2368.710000	6500.970000	5196.645000	2278.485000	2140.020000	15.954276	16.829443	18.065733	17.059265	13.426531	15.757161	11.799407	16.357781	-3.006220	5.508860	-1.129240	0.883970	0.200317	0.397399	-1.000000	-1.000000	-1.000000	-1.000000	-1.000000	-1.000000	-1.000000	74.896552	0.000000	-1.000000	-1.000000	1408348.000000	1772660705.314102
-27692.415000	-46193.490000	7175.160000	2375.820000	6513.930000	5202.585000	2285.910000	2180.700000	10.995462	10.538112	11.836575	11.416484	7.859924	11.523982	10.891758	12.245358	-3.006220	5.508860	-1.129240	0.883970	0.200317	0.397399	-1.000000	-1.000000	-1.000000	-1.000000	-1.000000	-1.000000	-1.000000	74.896552	0.000000	-1.000000	-1.000000	1408349.000000	1772660705.315681
-27641.655000	-46150.290000	7213.545000	2411.415000	6545.160000	5230.710000	2315.880000	2253.870000	5.331863	2.230733	2.439728	2.632015	0.287918	3.768037	6.147036	8.043077	-3.006220	5.508860	-1.129240	0.883970	0.200317	0.397399	-1.000000	-1.000000	-1.000000	-1.000000	-1.000000	-1.000000	-1.000000	74.896552	0.000000	-1.000000	-1.000000	1408350.000000	1772660705.315688
-27698.715000	-46192.905000	7177.770000	2381.445000	6519.690000	5206.995000	2291.850000	2171.025000	0.915019	-4.077288	-5.102527	-4.440889	-5.197190	-3.423129	0.374585	5.583493	-4.654300	4.867940	-0.167860	0.884641	0.202880	0.397887	-1.000000	-1.000000	-1.000000	-1.000000	-1.000000	-1.000000	-1.000000	74.896552	0.000000	-1.000000	-1.000000	1408351.000000	1772660705.324596
-27779.085000	-46266.120000	7108.470000	2316.915000	6467.580000	5156.280000	2250.135000	2077.740000	-5.143296	-8.993290	-10.150639	-9.121657	-8.442599	-8.613630	-5.338816	-0.639359	-4.654300	4.867940	-0.167860	0.884641	0.202880	0.397887	-1.000000	-1.000000	-1.000000	-1.000000	-1.000000	-1.000000	-1.000000	74.896552	0.000000	-1.000000	-1.000000	1408352.000000	1772660705.324606
-27729.540000	-46208.655000	7165.620000	2372.805000	6517.395000	5196.735000	2271.240000	2130.435000	-14.712481	-14.285500	-14.262440	-12.877979	-10.929318	-12.209851	-10.753519	-13.943624	-4.654300	4.867940	-0.167860	0.884641	0.202880	0.397887	-1.000000	-1.000000	-1.000000	-1.000000	-1.000000	-1.000000	-1.000000	74.896552	0.000000	-1.000000	-1.000000	1408353.000000	1772660705.325291
-27709.425000	-46183.905000	7190.505000	2397.780000	6533.460000	5214.510000	2272.995000	2134.710000	-20.930403	-15.647410	-14.268265	-12.765885	-10.160384	-11.872731	-12.999583	-25.345876	-4.654300	4.867940	-0.167860	0.884641	0.202880	0.397887	-1.000000	-1.000000	-1.000000	-1.000000	-1.000000	-1.000000	-1.000000	74.896552	0.000000	-1.000000	-1.000000	1408354.000000	1772660705.325298
-27739.440000	-46232.280000	7137.045000	2342.025000	6479.955000	5167.035000	2250.855000	2113.875000	-16.117171	-8.816962	-7.228147	-6.258934	-4.431449	-6.254517	-9.818387	-23.963094	-4.654300	4.867940	-0.167860	0.884641	0.202880	0.397887	-1.000000	-1.000000	-1.000000	-1.000000	-1.000000	-1.000000	-1.000000	74.896552	0.000000	-1.000000	-1.000000	1408355.000000	1772660705.327542
-27711.765000	-46222.785000	7138.800000	2341.800000	6489.180000	5175.945000	2267.190000	2164.230000	-2.814129	1.721777	2.050305	1.775189	1.739330	0.432452	-3.215418	-9.853170	-4.654300	4.867940	-0.167860	0.884641	0.202880	0.397887	-1.000000	-1.000000	-1.000000	-1.000000	-1.000000	-1.000000	-1.000000	74.896552	0.000000	-1.000000	-1.000000	1408356.000000	1772660705.327550
-27721.710000	-46214.235000	7148.070000	2351.430000	6485.445000	5187.375000	2271.330000	2145.510000	10.110272	8.823553	7.300087	5.597432	3.855422	4.166574	3.684512	8.445464	-4.654300	4.867940	-0.167860	0.884641	0.202880	0.397887	-1.000000	-1.000000	-1.000000	-1.000000	-1.000000	-1.000000	-1.000000	74.896552	0.000000	-1.000000	-1.000000	1408357.000000	1772660705.331609
-27773.865000	-46252.755000	7111.890000	2315.700000	6443.460000	5156.055000	2248.515000	2067.255000	14.953514	9.661020	7.147313	4.632498	1.794388	4.807722	8.450164	19.098246	-4.654300	4.867940	-0.167860	0.884641	0.202880	0.397887	-1.000000	-1.000000	-1.000000	-1.000000	-1.000000	-1.000000	-1.000000	74.896552	0.000000	-1.000000	-1.000000	1408358.000000	1772660705.331617
-27769.815000	-46257.120000	7108.290000	2314.080000	6445.890000	5145.345000	2247.975000	2079.900000	9.013694	4.665814	2.904264	0.675558	-2.652263	2.815808	8.689579	14.198210	-4.654300	4.867940	-0.167860	0.884641	0.202880	0.397887	-1.000000	-1.000000	-1.000000	-1.000000	-1.000000	-1.000000	-1.000000	74.896552	0.000000	-1.000000	-1.000000	1408359.000000	1772660705.339236
-27752.490000	-46243.890000	7122.285000	2328.660000	6459.615000	5154.165000	2252.115000	2100.915000	-1.146404	-1.642263	-1.433175	-2.502058	-5.328892	-0.052267	5.072431	0.773025	-4.654300	4.867940	-0.167860	0.884641	0.202880	0.397887	-1.000000	-1.000000	-1.000000	-1.000000	-1.000000	-1.000000	-1.000000	74.896552	0.000000	-1.000000	-1.000000	1408360.000000	1772660705.339244
-27744.255000	-46235.070000	7131.150000	2338.155000	6473.880000	5164.920000	2256.705000	2108.070000	-4.335781	-2.278810	-0.323579	-0.089333	-1.325903	0.183210	1.947299	-5.128244	-2.334780	4.257540	-0.808780	0.883848	0.199707	0.398681	-1.000000	-1.000000	-1.000000	-1.000000	-1.000000	-1.000000	-1.000000	74.896552	0.000000	-1.000000	-1.000000	1408361.000000	1772660705.339564
-27747.495000	-46241.595000	7125.705000	2332.710000	6476.805000	5164.245000	2254.500000	2106.135000	1.842854	3.294473	5.735957	6.857369	8.057129	4.221413	1.725562	1.530527	-2.334780	4.257540	-0.808780	0.883848	0.199707	0.398681	-1.000000	-1.000000	-1.000000	-1.000000	-1.000000	-1.000000	-1.000000	74.896552	0.000000	-1.000000	-1.000000	1408362.000000	1772660705.339571
-27743.535000	-46236.375000	7133.355000	2342.700000	6487.965000	5179.635000	2266.605000	2111.985000	9.491817	8.382384	10.101174	11.608688	15.696478	8.051725	2.781957	11.692809	-2.334780	4.257540	-0.808780	0.883848	0.199707	0.398681	-1.000000	-1.000000	-1.000000	-1.000000	-1.000000	-1.000000	-1.000000	74.896552	0.000000	-1.000000	-1.000000	1408363.000000	1772660705.343419
-27737.865000	-46230.480000	7135.560000	2338.605000	6463.080000	5172.930000	2270.835000	2117.160000	11.569315	8.682183	9.254796	10.716987	16.560534	8.766898	3.162999	15.707002	-2.334780	4.257540	-0.808780	0.883848	0.199707	0.398681	-1.000000	-1.000000	-1.000000	-1.000000	-1.000000	-1.000000	-1.000000	74.896552	0.000000	-1.000000	-1.000000	1408364.000000	1772660705.343430
-27731.250000	-46218.420000	7149.690000	2354.670000	6485.445000	5173.470000	2255.355000	2118.645000	7.038120	5.233128	5.025173	6.018353	10.482219	6.147684	1.857581	10.405835	-2.334780	4.257540	-0.808780	0.883848	0.199707	0.398681	-1.000000	-1.000000	-1.000000	-1.000000	-1.000000	-1.000000	-1.000000	74.896552	0.000000	-1.000000	-1.000000	1408365.000000	1772660705.350533
-27729.990000	-46216.305000	7153.515000	2360.610000	6503.535000	5182.605000	2258.595000	2124.720000	-1.035336	0.366430	0.013334	0.304917	1.024340	0.918890	-1.608977	-1.006172	-2.334780	4.257540	-0.808780	0.883848	0.199707	0.398681	-1.000000	-1.000000	-1.000000	-1.000000	-1.000000	-1.000000	-1.000000	74.896552	0.000000	-1.000000	-1.000000	1408366.000000	1772660705.350545
-27730.395000	-46215.405000	7153.695000	2359.395000	6499.035000	5182.785000	2266.155000	2124.585000	-7.748273	-3.830007	-4.004619	-4.282258	-6.487433	-4.560414	-5.615916	-11.068045	-2.334780	4.257540	-0.808780	0.883848	0.199707	0.398681	-1.000000	-1.000000	-1.000000	-1.000000	-1.000000	-1.000000	-1.000000	74.896552	0.000000	-1.000000	-1.000000	1408367.000000	1772660705.351457
-27726.705000	-46215.405000	7151.715000	2353.410000	6491.835000	5178.600000	2270.745000	2127.780000	-9.786504	-5.865983	-6.084245	-6.741537	-9.521236	-7.454735	-7.167634	-14.201167	-2.334780	4.257540	-0.808780	0.883848	0.199707	0.398681	-1.000000	-1.000000	-1.000000	-1.000000	-1.000000	-1.000000	-1.000000	74.896552	0.000000	-1.000000	-1.000000	1408368.000000	1772660705.351465
-27727.065000	-46219.410000	7147.485000	2345.985000	6495.660000	5176.485000	2267.010000	2123.235000	-7.397904	-5.682875	-6.442677	-7.538277	-9.458025	-7.137699	-5.090570	-10.629955	-2.334780	4.257540	-0.808780	0.883848	0.199707	0.398681	-1.000000	-1.000000	-1.000000	-1.000000	-1.000000	-1.000000	-1.000000	74.896552	0.000000	-1.000000	-1.000000	1408369.000000	1772660705.357804
-27725.760000	-46213.695000	7156.845000	2359.980000	6511.680000	5192.550000	2273.895000	2124.855000	-3.262123	-4.522629	-5.988282	-7.478208	-8.217468	-4.998126	-1.008857	-4.387293	-2.334780	4.257540	-0.808780	0.883848	0.199707	0.398681	-1.000000	-1.000000	-1.000000	-1.000000	-1.000000	-1.000000	-1.000000	74.896552	0.000000	-1.000000	-1.000000	1408370.000000	1772660705.357812
-27729.855000	-46221.930000	7148.610000	2351.655000	6484.095000	5184.405000	2277.495000	2127.195000	-0.353191	-3.767484	-5.452505	-6.741099	-6.876175	-2.738116	2.478737	0.403815	-2.029580	3.815000	0.366240	0.883604	0.197875	0.394591	-1.000000	-1.000000	-1.000000	-1.000000	-1.000000	-1.000000	-1.000000	74.896552	0.000000	-1.000000	-1.000000	1408371.000000	1772660705.359430
-27730.890000	-46226.880000	7143.840000	2343.780000	6448.455000	5166.450000	2267.235000	2132.010000	0.200569	-3.643492	-4.776411	-5.092640	-6.279604	-1.583758	3.603860	2.230219	-2.029580	3.815000	0.366240	0.883604	0.197875	0.394591	-1.000000	-1.000000	-1.000000	-1.000000	-1.000000	-1.000000	-1.000000	74.896552	0.000000	-1.000000	-1.000000	1408372.000000	1772660705.359438
-27724.230000	-46222.065000	7149.105000	2352.690000	6477.030000	5174.280000	2257.110000	2138.445000	-0.732611	-3.389972	-3.402774	-2.429183	-5.887575	-1.661181	1.888460	1.811862	-2.029580	3.815000	0.366240	0.883604	0.197875	0.394591	-1.000000	-1.000000	-1.000000	-1.000000	-1.000000	-1.000000	-1.000000	74.896552	0.000000	-1.000000	-1.000000	1408373.000000	1772660705.368694
-27718.020000	-46217.385000	7152.120000	2356.290000	6486.345000	5182.830000	2270.565000	2152.980000	-1.617583	-2.339501	-1.185252	0.824010	-3.439399	-1.636313	-1.263664	0.588353	-2.029580	3.815000	0.366240	0.883604	0.197875	0.394591	-1.000000	-1.000000	-1.000000	-1.000000	-1.000000	-1.000000	-1.000000	74.896552	0.000000	-1.000000	-1.000000	1408374.000000	1772660705.368702
-27683.415000	-46191.825000	7173.990000	2378.430000	6508.800000	5203.710000	2294.415000	2201.265000	-0.609587	0.104871	1.746769	4.047820	2.169860	0.112649	-2.771225	0.885246	-2.029580	3.815000	0.366240	0.883604	0.197875	0.394591	-1.000000	-1.000000	-1.000000	-1.000000	-1.000000	-1.000000	-1.000000	74.896552	0.000000	-1.000000	-1.000000	1408375.000000	1772660705.368711
-27617.850000	-46127.790000	7233.165000	2434.860000	6562.710000	5250.285000	2328.885000	2265.615000	4.066946	5.010932	6.048786	7.675722	9.962016	4.417426	-0.401997	5.094510	-2.029580	3.815000	0.366240	0.883604	0.197875	0.394591	-1.000000	-1.000000	-1.000000	-1.000000	-1.000000	-1.000000	-1.000000	74.896552	0.000000	-1.000000	-1.000000	1408376.000000	1772660705.368715
-27721.125000	-46201.590000	7170.120000	2376.180000	6511.905000	5197.230000	2274.885000	2115.360000	10.240978	11.134334	10.988996	11.350723	16.916383	9.692027	4.159561	10.248507	-2.029580	3.815000	0.366240	0.883604	0.197875	0.394591	-1.000000	-1.000000	-1.000000	-1.000000	-1.000000	-1.000000	-1.000000	74.896552	0.000000	-1.000000	-1.000000	1408377.000000	1772660705.371617
-27765.945000	-46255.500000	7115.265000	2322.585000	6465.600000	5150.745000	2248.785000	2085.165000	9.810704	11.899078	11.109461	10.399236	16.728718	10.297913	5.455516	6.942418	-2.029580	3.815000	0.366240	0.883604	0.197875	0.394591	-1.000000	-1.000000	-1.000000	-1.000000	-1.000000	-1.000000	-1.000000	74.896552	0.000000	-1.000000	-1.000000	1408378.000000	1772660705.371626
-27748.395000	-46235.115000	7137.855000	2350.215000	6494.985000	5164.515000	2256.435000	2103.570000	-1.318644	2.652756	2.212293	1.127361	5.804628	2.177067	0.357622	-7.501267	-2.029580	3.815000	0.366240	0.883604	0.197875	0.394591	-1.000000	-1.000000	-1.000000	-1.000000	-1.000000	-1.000000	-1.000000	74.896552	0.000000	-1.000000	-1.000000	1408379.000000	1772660705.375652
-27774.315000	-46250.370000	7126.290000	2340.045000	6481.485000	5146.380000	2237.355000	2062.395000	-15.407682	-10.774023	-10.392735	-11.205145	-9.090956	-9.980196	-7.527767	-22.491320	-2.029580	3.815000	0.366240	0.883604	0.197875	0.394591	-1.000000	-1.000000	-1.000000	-1.000000	-1.000000	-1.000000	-1.000000	74.896552	0.000000	-1.000000	-1.000000	1408380.000000	1772660705.375659
-27765.270000	-46245.105000	7129.755000	2344.860000	6481.530000	5170.995000	2247.435000	2078.595000	-21.652777	-18.140119	-17.094820	-17.305015	-17.111538	-16.712355	-11.869509	-26.641308	-2.731540	2.853620	-0.854560	0.879636	0.198669	0.398864	-1.000000	-1.000000	-1.000000	-1.000000	-1.000000	-1.000000	-1.000000	74.896552	0.000000	-1.000000	-1.000000	1408381.000000	1772660705.384494
-27750.285000	-46238.355000	7131.780000	2341.080000	6457.860000	5177.745000	2254.860000	2095.785000	-15.983215	-14.971953	-13.873929	-13.687580	-15.082420	-12.901942	-9.034008	-16.998952	-2.731540	2.853620	-0.854560	0.879636	0.198669	0.398864	-1.000000	-1.000000	-1.000000	-1.000000	-1.000000	-1.000000	-1.000000	74.896552	0.000000	-1.000000	-1.000000	1408382.000000	1772660705.384502
-27743.445000	-46236.915000	7130.880000	2334.375000	6436.935000	5165.460000	2260.035000	2104.650000	-1.704336	-4.132645	-3.822413	-4.077498	-8.345350	-1.645530	-0.378369	1.670072	-2.731540	2.853620	-0.854560	0.879636	0.198669	0.398864	-1.000000	-1.000000	-1.000000	-1.000000	-1.000000	-1.000000	-1.000000	74.896552	0.000000	-1.000000	-1.000000	1408383.000000	1772660705.384606
-27736.470000	-46235.250000	7131.060000	2335.050000	6445.530000	5164.515000	2266.380000	2117.880000	12.952637	7.293349	6.387267	4.903104	-3.030272	8.685047	8.438619	19.363917	-2.731540	2.853620	-0.854560	0.879636	0.198669	0.398864	-1.000000	-1.000000	-1.000000	-1.000000	-1.000000	-1.000000	-1.000000	74.896552	0.000000	-1.000000	-1.000000	1408384.000000	1772660705.384612
-27731.880000	-46227.555000	7138.935000	2346.210000	6462.990000	5174.280000	2268.000000	2123.235000	20.152401	12.981782	11.254536	8.830126	-0.315065	11.950958	12.166888	27.482251	-2.731540	2.853620	-0.854560	0.879636	0.198669	0.398864	-1.000000	-1.000000	-1.000000	-1.000000	-1.000000	-1.000000	-1.000000	74.896552	0.000000	-1.000000	-1.000000	1408385.000000	1772660705.387608
-27738.405000	-46233.945000	7133.445000	2340.945000	6462.360000	5168.970000	2261.295000	2123.370000	19.160069	12.741805	10.979570	8.942746	3.143980	9.400389	10.550872	26.253498	-2.731540	2.853620	-0.854560	0.879636	0.198669	0.398864	-1.000000	-1.000000	-1.000000	-1.000000	-1.000000	-1.000000	-1.000000	74.896552	0.000000	-1.000000	-1.000000	1408386.000000	1772660705.387615
-27735.300000	-46228.995000	7140.330000	2346.930000	6468.435000	5167.755000	2256.660000	2124.855000	14.546462	10.755937	9.587122	9.110158	9.632561	6.071362	6.681018	20.812726	-2.731540	2.853620	-0.854560	0.879636	0.198669	0.398864	-1.000000	-1.000000	-1.000000	-1.000000	-1.000000	-1.000000	-1.000000	74.896552	0.000000	-1.000000	-1.000000	1408387.000000	1772660705.392846
-27728.190000	-46219.005000	7150.995000	2359.395000	6485.310000	5182.560000	2259.540000	2121.165000	8.836575	8.820157	8.590074	9.780025	16.256450	4.234915	2.520514	12.600586	-2.731540	2.853620	-0.854560	0.879636	0.198669	0.398864	-1.000000	-1.000000	-1.000000	-1.000000	-1.000000	-1.000000	-1.000000	74.896552	0.000000	-1.000000	-1.000000	1408388.000000	1772660705.392855
-27735.480000	-46224.720000	7146.045000	2357.145000	6487.020000	5188.950000	2270.565000	2115.360000	1.942965	5.621847	6.341373	8.488084	18.340996	3.124276	-1.192436	1.068092	-2.731540	2.853620	-0.854560	0.879636	0.198669	0.398864	-1.000000	-1.000000	-1.000000	-1.000000	-1.000000	-1.000000	-1.000000	74.896552	0.000000	-1.000000	-1.000000	1408389.000000	1772660705.395849
-27729.945000	-46223.640000	7142.085000	2348.955000	6474.825000	5181.120000	2276.820000	2124.855000	-5.762278	0.184037	1.517842	3.773452	13.805888	1.175088	-3.575135	-11.669755	-2.731540	2.853620	-0.854560	0.879636	0.198669	0.398864	-1.000000	-1.000000	-1.000000	-1.000000	-1.000000	-1.000000	-1.000000	74.896552	0.000000	-1.000000	-1.000000	1408390.000000	1772660705.395855
-27729.765000	-46219.680000	7147.395000	2352.240000	6474.825000	5177.970000	2277.675000	2125.710000	-12.802258	-6.588013	-5.130826	-3.441485	3.810776	-2.850500	-4.539113	-21.693944	-1.144500	2.517900	-1.251320	0.877927	0.196472	0.399596	-1.000000	-1.000000	-1.000000	-1.000000	-1.000000	-1.000000	-1.000000	74.896552	0.000000	-1.000000	-1.000000	1408391.000000	1772660705.399487
-27731.160000	-46225.845000	7139.610000	2343.870000	6467.985000	5169.825000	2272.320000	2128.410000	-17.121100	-12.262404	-11.039260	-10.251963	-7.667151	-8.022383	-5.124352	-25.753440	-1.144500	2.517900	-1.251320	0.877927	0.196472	0.399596	-1.000000	-1.000000	-1.000000	-1.000000	-1.000000	-1.000000	-1.000000	74.896552	0.000000	-1.000000	-1.000000	1408392.000000	1772660705.399496
-27730.395000	-46227.105000	7139.475000	2345.445000	6474.690000	5173.740000	2268.675000	2133.270000	-17.313706	-14.774060	-13.907688	-13.939232	-16.278907	-11.649877	-6.206912	-22.865721	-1.144500	2.517900	-1.251320	0.877927	0.196472	0.399596	-1.000000	-1.000000	-1.000000	-1.000000	-1.000000	-1.000000	-1.000000	74.896552	0.000000	-1.000000	-1.000000	1408393.000000	1772660705.403488
-27732.105000	-46225.080000	7145.460000	2351.970000	6488.730000	5178.060000	2268.180000	2130.885000	-12.799581	-13.070053	-12.579915	-13.140121	-19.188542	-11.361191	-6.985530	-13.722703	-1.144500	2.517900	-1.251320	0.877927	0.196472	0.399596	-1.000000	-1.000000	-1.000000	-1.000000	-1.000000	-1.000000	-1.000000	74.896552	0.000000	-1.000000	-1.000000	1408394.000000	1772660705.403500
-27726.525000	-46218.420000	7153.335000	2360.970000	6496.290000	5186.655000	2271.735000	2130.030000	-3.761943	-6.640736	-6.534237	-7.339173	-14.961955	-6.105425	-5.323767	-0.361069	-1.144500	2.517900	-1.251320	0.877927	0.196472	0.399596	-1.000000	-1.000000	-1.000000	-1.000000	-1.000000	-1.000000	-1.000000	74.896552	0.000000	-1.000000	-1.000000	1408395.000000	1772660705.407534
-27713.745000	-46217.340000	7145.955000	2353.590000	6480.810000	5187.375000	2277.675000	2148.210000	7.166639	2.693132	2.278118	1.460565	-5.600207	2.367435	-0.527324	12.721481	-1.144500	2.517900	-1.251320	0.877927	0.196472	0.399596	-1.000000	-1.000000	-1.000000	-1.000000	-1.000000	-1.000000	-1.000000	74.896552	0.000000	-1.000000	-1.000000	1408396.000000	1772660705.407542
-27697.905000	-46204.425000	7159.770000	2368.395000	6496.875000	5195.205000	2282.355000	2165.130000	15.522788	10.583046	9.313991	8.618731	3.516001	9.592551	5.281845	20.809822	-1.144500	2.517900	-1.251320	0.877927	0.196472	0.399596	-1.000000	-1.000000	-1.000000	-1.000000	-1.000000	-1.000000	-1.000000	74.896552	0.000000	-1.000000	-1.000000	1408397.000000	1772660705.412715
-27708.480000	-46203.570000	7166.790000	2374.830000	6506.280000	5197.230000	2276.820000	2137.140000	17.930887	13.668155	11.646848	11.111105	8.727462	11.828595	8.764083	21.357410	-1.144500	2.517900	-1.251320	0.877927	0.196472	0.399596	-1.000000	-1.000000	-1.000000	-1.000000	-1.000000	-1.000000	-1.000000	74.896552	0.000000	-1.000000	-1.000000	1408398.000000	1772660705.412721
-27738.720000	-46222.380000	7150.590000	2360.205000	6493.050000	5186.430000	2269.305000	2094.120000	12.839785	11.049527	9.383584	9.119541	9.922223	8.509940	7.629161	13.013104	-1.144500	2.517900	-1.251320	0.877927	0.196472	0.399596	-1.000000	-1.000000	-1.000000	-1.000000	-1.000000	-1.000000	-1.000000	74.896552	0.000000	-1.000000	-1.000000	1408399.000000	1772660705.415475
-27738.045000	-46222.110000	7149.105000	2358.360000	6493.545000	5179.725000	2268.720000	2106.810000	1.459785	3.776291	3.764229	4.035080	7.981512	1.813017	2.399146	-2.256540	-1.144500	2.517900	-1.251320	0.877927	0.196472	0.399596	-1.000000	-1.000000	-1.000000	-1.000000	-1.000000	-1.000000	-1.000000	74.896552	0.000000	-1.000000	-1.000000	1408400.000000	1772660705.415484
-27732.780000	-46207.215000	7166.340000	2376.675000	6506.280000	5185.890000	2262.960000	2107.305000	-10.765061	-4.568249	-2.713853	-1.803338	4.068067	-4.735596	-3.749295	-16.764742	-0.885080	2.594200	-1.434440	0.878843	0.195434	0.398009	-1.000000	-1.000000	-1.000000	-1.000000	-1.000000	-1.000000	-1.000000	74.896552	0.000000	-1.000000	-1.000000	1408401.000000	1772660705.420278
-27734.805000	-46201.995000	7175.250000	2385.270000	6508.575000	5206.860000	2287.350000	2114.010000	-17.048983	-9.235325	-6.504209	-5.330897	-0.169654	-7.809477	-7.013659	-22.048447	-0.885080	2.594200	-1.434440	0.878843	0.195434	0.398009	-1.000000	-1.000000	-1.000000	-1.000000	-1.000000	-1.000000	-1.000000	74.896552	0.000000	-1.000000	-1.000000	1408402.000000	1772660705.420286
-27707.400000	-46207.350000	7158.375000	2360.970000	6485.445000	5191.065000	2301.570000	2164.185000	-13.895875	-8.068822	-6.049671	-5.407389	-3.744795	-6.184877	-4.965744	-14.653925	-0.885080	2.594200	-1.434440	0.878843	0.195434	0.398009	-1.000000	-1.000000	-1.000000	-1.000000	-1.000000	-1.000000	-1.000000	74.896552	0.000000	-1.000000	-1.000000	1408403.000000	1772660705.423484
-27728.145000	-46234.935000	7130.745000	2337.570000	6474.420000	5163.390000	2263.230000	2129.805000	-3.453470	-3.460924	-3.619441	-4.214661	-6.635764	-2.321360	0.814013	1.511544	-0.885080	2.594200	-1.434440	0.878843	0.195434	0.398009	-1.000000	-1.000000	-1.000000	-1.000000	-1.000000	-1.000000	-1.000000	74.896552	0.000000	-1.000000	-1.000000	1408404.000000	1772660705.423491
-27737.100000	-46243.755000	7121.475000	2326.635000	6463.890000	5159.205000	2258.280000	2122.110000	7.044451	-0.076947	-2.642684	-4.409212	-8.424379	-0.291551	4.798608	15.774365	-0.885080	2.594200	-1.434440	0.878843	0.195434	0.398009	-1.000000	-1.000000	-1.000000	-1.000000	-1.000000	-1.000000	-1.000000	74.896552	0.000000	-1.000000	-1.000000	1408405.000000	1772660705.427765
-27684.000000	-46197.000000	7165.350000	2366.370000	6496.875000	5204.745000	2303.685000	2208.780000	11.628552	0.475626	-3.159118	-5.271835	-7.623916	-0.622390	4.064866	20.052126	-0.885080	2.594200	-1.434440	0.878843	0.195434	0.398009	-1.000000	-1.000000	-1.000000	-1.000000	-1.000000	-1.000000	-1.000000	74.896552	0.000000	-1.000000	-1.000000	1408406.000000	1772660705.427773
-27683.775000	-46179.675000	7186.545000	2389.185000	6521.760000	5229.900000	2332.530000	2209.500000	11.092213	1.327152	-1.581571	-3.120935	-2.637763	0.392776	2.037412	16.733223	-0.885080	2.594200	-1.434440	0.878843	0.195434	0.398009	-1.000000	-1.000000	-1.000000	-1.000000	-1.000000	-1.000000	-1.000000	74.896552	0.000000	-1.000000	-1.000000	1408407.000000	1772660705.431444
-27768.285000	-46240.740000	7131.420000	2337.930000	6468.795000	5169.060000	2279.880000	2088.855000	7.756266	4.172942	3.289926	3.017468	5.259426	4.225083	1.921978	9.817963	-0.885080	2.594200	-1.434440	0.878843	0.195434	0.398009	-1.000000	-1.000000	-1.000000	-1.000000	-1.000000	-1.000000	-1.000000	74.896552	0.000000	-1.000000	-1.000000	1408408.000000	1772660705.431449
-27768.780000	-46245.645000	7127.055000	2335.095000	6457.995000	5154.345000	2251.710000	2082.060000	0.569077	5.298268	6.957173	8.305999	10.432355	6.505918	1.145696	-2.592680	-0.885080	2.594200	-1.434440	0.878843	0.195434	0.398009	-1.000000	-1.000000	-1.000000	-1.000000	-1.000000	-1.000000	-1.000000	74.896552	0.000000	-1.000000	-1.000000	1408409.000000	1772660705.442385
-27751.140000	-46240.605000	7128.180000	2336.130000	6465.960000	5158.980000	2245.455000	2085.975000	-9.025364	1.681812	5.218206	7.861698	8.477713	3.296977	-3.422895	-18.813320	-0.885080	2.594200	-1.434440	0.878843	0.195434	0.398009	-1.000000	-1.000000	-1.000000	-1.000000	-1.000000	-1.000000	-1.000000	74.896552	0.000000	-1.000000	-1.000000	1408410.000000	1772660705.442396
-27741.960000	-46226.925000	7142.940000	2354.220000	6485.490000	5173.425000	2259.405000	2106.135000	-14.497535	-3.752718	-0.114608	2.837071	1.931069	-3.065242	-9.537121	-28.992722	-1.815940	4.074420	-2.319520	0.878355	0.198730	0.399291	-1.000000	-1.000000	-1.000000	-1.000000	-1.000000	-1.000000	-1.000000	74.896552	0.000000	-1.000000	-1.000000	1408411.000000	1772660705.442408
-27736.695000	-46223.145000	7142.445000	2349.045000	6468.345000	5165.730000	2260.170000	2115.000000	-11.539149	-5.688664	-3.641374	-1.455609	-3.005251	-6.834287	-11.812689	-25.369414	-1.815940	4.074420	-2.319520	0.878355	0.198730	0.399291	-1.000000	-1.000000	-1.000000	-1.000000	-1.000000	-1.000000	-1.000000	74.896552	0.000000	-1.000000	-1.000000	1408412.000000	1772660705.442412
-27720.495000	-46210.230000	7152.210000	2353.095000	6462.810000	5166.405000	2263.005000	2126.520000	-1.966881	-1.839164	-1.969894	-1.420829	-3.339194	-4.787721	-6.953964	-9.105943	-1.815940	4.074420	-2.319520	0.878355	0.198730	0.399291	-1.000000	-1.000000	-1.000000	-1.000000	-1.000000	-1.000000	-1.000000	74.896552	0.000000	-1.000000	-1.000000	1408413.000000	1772660705.443730
-27720.450000	-46213.740000	7145.820000	2349.765000	6468.120000	5170.230000	2267.865000	2134.890000	8.726495	5.053243	3.162755	1.648539	-0.793991	1.119648	3.038847	11.359075	-1.815940	4.074420	-2.319520	0.878355	0.198730	0.399291	-1.000000	-1.000000	-1.000000	-1.000000	-1.000000	-1.000000	-1.000000	74.896552	0.000000	-1.000000	-1.000000	1408414.000000	1772660705.443738
-27710.595000	-46201.770000	7160.535000	2368.485000	6491.070000	5190.705000	2280.060000	2146.455000	14.215542	9.030039	6.356743	3.458067	1.422138	5.832280	11.657191	24.783572	-1.815940	4.074420	-2.319520	0.878355	0.198730	0.399291	-1.000000	-1.000000	-1.000000	-1.000000	-1.000000	-1.000000	-1.000000	74.896552	0.000000	-1.000000	-1.000000	1408415.000000	1772660705.447740
-27725.355000	-46211.985000	7153.245000	2362.635000	6490.485000	5188.635000	2275.515000	2123.775000	11.871966	6.642083	4.339540	1.689678	1.889891	6.293462	13.551526	25.207149	-1.815940	4.074420	-2.319520	0.878355	0.198730	0.399291	-1.000000	-1.000000	-1.000000	-1.000000	-1.000000	-1.000000	-1.000000	74.896552	0.000000	-1.000000	-1.000000	1408416.000000	1772660705.447748
-27743.805000	-46229.535000	7133.625000	2344.410000	6480.675000	5176.620000	2273.085000	2110.950000	5.188776	0.438928	-0.689574	-1.774402	1.703557	4.066172	9.453119	16.529823	-1.815940	4.074420	-2.319520	0.878355	0.198730	0.399291	-1.000000	-1.000000	-1.000000	-1.000000	-1.000000	-1.000000	-1.000000	74.896552	0.000000	-1.000000	-1.000000	1408417.000000	1772660705.451573
-27737.685000	-46230.930000	7128.360000	2341.080000	6479.595000	5174.190000	2278.395000	2122.065000	-1.146590	-5.029833	-4.930134	-4.285473	1.806501	1.890732	4.076371	6.121481	-1.815940	4.074420	-2.319520	0.878355	0.198730	0.399291	-1.000000	-1.000000	-1.000000	-1.000000	-1.000000	-1.000000	-1.000000	74.896552	0.000000	-1.000000	-1.000000	1408418.000000	1772660705.451581
-27712.350000	-46212.615000	7144.695000	2354.265000	6474.915000	5178.060000	2285.595000	2155.095000	-5.197327	-7.466500	-6.692470	-5.121887	1.061476	0.024107	0.460656	-1.917520	-1.815940	4.074420	-2.319520	0.878355	0.198730	0.399291	-1.000000	-1.000000	-1.000000	-1.000000	-1.000000	-1.000000	-1.000000	74.896552	0.000000	-1.000000	-1.000000	1408419.000000	1772660705.455745
-27724.095000	-46220.220000	7138.935000	2348.865000	6459.030000	5172.120000	2274.615000	2131.245000	-6.701566	-6.613925	-5.726923	-4.365304	-1.761363	-2.377656	-1.986330	-7.078475	-1.815940	4.074420	-2.319520	0.878355	0.198730	0.399291	-1.000000	-1.000000	-1.000000	-1.000000	-1.000000	-1.000000	-1.000000	74.896552	0.000000	-1.000000	-1.000000	1408420.000000	1772660705.455753
-27744.795000	-46233.945000	7128.315000	2339.370000	6462.495000	5163.435000	2257.155000	2100.330000	-6.711982	-3.793539	-2.819711	-2.344161	-5.397116	-4.850115	-4.931988	-11.169811	-3.601360	3.952340	-1.266580	0.877622	0.199951	0.400268	-1.000000	-1.000000	-1.000000	-1.000000	-1.000000	-1.000000	-1.000000	74.896552	0.000000	-1.000000	-1.000000	1408421.000000	1772660705.459838
-27729.180000	-46216.530000	7146.675000	2358.585000	6496.875000	5178.825000	2264.580000	2118.330000	-6.596509	-0.931429	0.518273	0.296178	-6.358080	-5.844825	-8.199087	-15.044468	-3.601360	3.952340	-1.266580	0.877622	0.199951	0.400268	-1.000000	-1.000000	-1.000000	-1.000000	-1.000000	-1.000000	-1.000000	74.896552	0.000000	-1.000000	-1.000000	1408422.000000	1772660705.459847
-27715.680000	-46198.440000	7170.345000	2386.935000	6531.030000	5191.605000	2274.705000	2133.585000	-5.860222	1.354698	3.450016	3.172272	-2.348301	-4.464284	-9.846692	-16.313244	-3.601360	3.952340	-1.266580	0.877622	0.199951	0.400268	-1.000000	-1.000000	-1.000000	-1.000000	-1.000000	-1.000000	-1.000000	74.896552	0.000000	-1.000000	-1.000000	1408423.000000	1772660705.463715
-27702.720000	-46183.635000	7186.185000	2402.370000	6531.255000	5209.155000	2293.875000	2161.260000	-2.964969	3.453679	5.717964	5.785728	4.479936	-1.419825	-8.202188	-11.873464	-3.601360	3.952340	-1.266580	0.877622	0.199951	0.400268	-1.000000	-1.000000	-1.000000	-1.000000	-1.000000	-1.000000	-1.000000	74.896552	0.000000	-1.000000	-1.000000	1408424.000000	1772660705.463724
-27709.155000	-46188.990000	7174.530000	2378.160000	6488.370000	5198.985000	2291.805000	2148.840000	2.639206	5.583759	6.900509	6.986754	8.690195	2.049476	-2.958954	-0.964096	-3.601360	3.952340	-1.266580	0.877622	0.199951	0.400268	-1.000000	-1.000000	-1.000000	-1.000000	-1.000000	-1.000000	-1.000000	74.896552	0.000000	-1.000000	-1.000000	1408425.000000	1772660705.467649
-27729.225000	-46222.515000	7135.155000	2340.630000	6464.070000	5169.780000	2264.895000	2124.315000	8.922615	6.768023	5.931278	5.134000	6.163116	4.580169	3.875347	12.180033	-3.601360	3.952340	-1.266580	0.877622	0.199951	0.400268	-1.000000	-1.000000	-1.000000	-1.000000	-1.000000	-1.000000	-1.000000	74.896552	0.000000	-1.000000	-1.000000	1408426.000000	1772660705.467656
-27748.530000	-46240.245000	7122.510000	2338.335000	6469.830000	5173.695000	2262.645000	2102.400000	11.064124	4.454396	1.269716	-0.660073	-2.094333	4.345660	8.116752	18.882685	-3.601360	3.952340	-1.266580	0.877622	0.199951	0.400268	-1.000000	-1.000000	-1.000000	-1.000000	-1.000000	-1.000000	-1.000000	74.896552	0.000000	-1.000000	-1.000000	1408427.000000	1772660705.471502
-27746.775000	-46230.615000	7133.760000	2343.780000	6465.555000	5172.525000	2267.055000	2107.530000	5.880837	-2.110549	-6.225781	-8.127765	-10.237264	1.124300	7.200707	13.732083	-3.601360	3.952340	-1.266580	0.877622	0.199951	0.400268	-1.000000	-1.000000	-1.000000	-1.000000	-1.000000	-1.000000	-1.000000	74.896552	0.000000	-1.000000	-1.000000	1408428.000000	1772660705.471509
-27732.645000	-46219.995000	7144.470000	2356.335000	6478.515000	5179.185000	2271.150000	2126.070000	-3.245931	-8.759970	-11.699808	-12.144614	-12.175480	-2.468828	3.076733	1.279960	-3.601360	3.952340	-1.266580	0.877622	0.199951	0.400268	-1.000000	-1.000000	-1.000000	-1.000000	-1.000000	-1.000000	-1.000000	74.896552	0.000000	-1.000000	-1.000000	1408429.000000	1772660705.475720
-27736.875000	-46226.385000	7138.485000	2348.280000	6456.195000	5171.355000	2266.380000	2116.080000	-9.113196	-10.151961	-10.676532	-9.309431	-6.767266	-3.618903	-0.304848	-8.308335	-3.601360	3.952340	-1.266580	0.877622	0.199951	0.400268	-1.000000	-1.000000	-1.000000	-1.000000	-1.000000	-1.000000	-1.000000	74.896552	0.000000	-1.000000	-1.000000	1408430.000000	1772660705.475727
-27739.485000	-46233.630000	7130.205000	2336.940000	6438.465000	5162.760000	2268.360000	2122.920000	-8.462652	-5.930857	-4.309039	-1.985096	0.692049	-2.478983	-1.328852	-9.895371	-2.609460	2.182180	-2.334780	0.875547	0.197692	0.400878	-1.000000	-1.000000	-1.000000	-1.000000	-1.000000	-1.000000	-1.000000	74.896552	0.000000	-1.000000	-1.000000	1408431.000000	1772660705.479838
-27737.955000	-46223.415000	7140.105000	2346.480000	6457.770000	5171.265000	2274.570000	2123.595000	-4.009947	-0.340030	2.065689	3.892729	3.936595	-1.459700	-1.315297	-6.216784	-2.609460	2.182180	-2.334780	0.875547	0.197692	0.400878	-1.000000	-1.000000	-1.000000	-1.000000	-1.000000	-1.000000	-1.000000	74.896552	0.000000	-1.000000	-1.000000	1408432.000000	1772660705.479846
-27735.975000	-46214.505000	7148.925000	2356.560000	6479.325000	5177.430000	2268.720000	2115.990000	0.537204	3.410243	5.108877	5.469439	3.280577	-1.457290	-1.764552	-1.848779	-2.609460	2.182180	-2.334780	0.875547	0.197692	0.400878	-1.000000	-1.000000	-1.000000	-1.000000	-1.000000	-1.000000	-1.000000	74.896552	0.000000	-1.000000	-1.000000	1408433.000000	1772660705.483721
-27735.390000	-46217.925000	7144.605000	2354.580000	6485.220000	5170.455000	2253.510000	2109.015000	4.032319	5.589884	5.982424	5.253348	4.341227	-0.749372	-2.578678	1.370876	-2.609460	2.182180	-2.334780	0.875547	0.197692	0.400878	-1.000000	-1.000000	-1.000000	-1.000000	-1.000000	-1.000000	-1.000000	74.896552	0.000000	-1.000000	-1.000000	1408434.000000	1772660705.483728
-27732.915000	-46207.935000	7156.485000	2369.205000	6491.160000	5178.060000	2263.725000	2112.615000	6.728342	7.592773	7.222822	6.599140	9.473114	2.155789	-2.423442	3.862819	-2.609460	2.182180	-2.334780	0.875547	0.197692	0.400878	-1.000000	-1.000000	-1.000000	-1.000000	-1.000000	-1.000000	-1.000000	74.896552	0.000000	-1.000000	-1.000000	1408435.000000	1772660705.487712
-27710.595000	-46196.865000	7165.710000	2377.710000	6496.110000	5184.855000	2281.770000	2158.920000	8.429230	9.382266	9.116312	9.261657	14.486718	6.170654	-0.153953	6.439954	-2.609460	2.182180	-2.334780	0.875547	0.197692	0.400878	-1.000000	-1.000000	-1.000000	-1.000000	-1.000000	-1.000000	-1.000000	74.896552	0.000000	-1.000000	-1.000000	1408436.000000	1772660705.487720
-27622.575000	-46137.600000	7221.420000	2433.285000	6558.840000	5249.835000	2336.535000	2289.375000	9.444896	9.871240	9.948107	10.590096	14.693232	9.313699	4.279254	10.627579	-2.609460	2.182180	-2.334780	0.875547	0.197692	0.400878	-1.000000	-1.000000	-1.000000	-1.000000	-1.000000	-1.000000	-1.000000	74.896552	0.000000	-1.000000	-1.000000	1408437.000000	1772660705.491712
-27646.470000	-46145.385000	7215.840000	2423.880000	6540.930000	5243.850000	2323.845000	2213.460000	10.322755	8.459559	8.489868	8.980647	9.819671	10.852597	9.436913	16.080547	-2.609460	2.182180	-2.334780	0.875547	0.197692	0.400878	-1.000000	-1.000000	-1.000000	-1.000000	-1.000000	-1.000000	-1.000000	74.896552	0.000000	-1.000000	-1.000000	1408438.000000	1772660705.491720
-27785.385000	-46262.025000	7102.890000	2313.000000	6434.730000	5140.530000	2247.345000	2037.690000	6.845790	2.940507	2.670922	2.526795	0.162454	8.233316	10.701959	13.801375	-2.609460	2.182180	-2.334780	0.875547	0.197692	0.400878	-1.000000	-1.000000	-1.000000	-1.000000	-1.000000	-1.000000	-1.000000	74.896552	0.000000	-1.000000	-1.000000	1408439.000000	1772660705.496397
-27751.140000	-46237.725000	7124.715000	2334.375000	6458.985000	5152.590000	2256.570000	2096.685000	-6.461087	-9.278202	-9.620558	-10.392226	-14.440285	-2.260092	3.182290	-4.986712	-2.609460	2.182180	-2.334780	0.875547	0.197692	0.400878	-1.000000	-1.000000	-1.000000	-1.000000	-1.000000	-1.000000	-1.000000	74.896552	0.000000	-1.000000	-1.000000	1408440.000000	1772660705.496405
-27779.805000	-46257.165000	7109.685000	2319.840000	6436.845000	5146.515000	2243.880000	2056.545000	-24.218260	-23.532539	-23.627022	-24.593343	-28.598053	-17.156175	-10.466636	-30.955426	-1.602300	2.746800	-1.922760	0.876890	0.198730	0.398559	-1.000000	-1.000000	-1.000000	-1.000000	-1.000000	-1.000000	-1.000000	74.896552	0.000000	-1.000000	-1.000000	1408441.000000	1772660705.499614
-27773.415000	-46256.895000	7105.680000	2313.720000	6425.190000	5144.040000	2249.685000	2074.905000	-33.185942	-29.734174	-29.477832	-30.181739	-33.465502	-26.256837	-20.658277	-43.926553	-1.602300	2.746800	-1.922760	0.876890	0.198730	0.398559	-1.000000	-1.000000	-1.000000	-1.000000	-1.000000	-1.000000	-1.000000	74.896552	0.000000	-1.000000	-1.000000	1408442.000000	1772660705.499623
-27753.570000	-46228.545000	7133.265000	2343.960000	6460.335000	5165.595000	2264.445000	2100.015000	-25.724560	-21.965687	-21.513019	-21.766266	-24.515599	-22.335831	-19.567766	-33.124357	-1.602300	2.746800	-1.922760	0.876890	0.198730	0.398559	-1.000000	-1.000000	-1.000000	-1.000000	-1.000000	-1.000000	-1.000000	74.896552	0.000000	-1.000000	-1.000000	1408443.000000	1772660705.503716
-27747.135000	-46219.905000	7142.445000	2353.635000	6470.640000	5170.770000	2266.380000	2103.255000	-4.764757	-2.526514	-2.215718	-2.134429	-4.070631	-6.522649	-7.266459	-3.936449	-1.602300	2.746800	-1.922760	0.876890	0.198730	0.398559	-1.000000	-1.000000	-1.000000	-1.000000	-1.000000	-1.000000	-1.000000	74.896552	0.000000	-1.000000	-1.000000	1408444.000000	1772660705.503726
-27739.485000	-46240.245000	7116.300000	2324.070000	6444.180000	5150.835000	2256.345000	2109.510000	18.200451	18.398282	18.267106	18.433282	18.415209	12.008728	8.000052	25.947710	-1.602300	2.746800	-1.922760	0.876890	0.198730	0.398559	-1.000000	-1.000000	-1.000000	-1.000000	-1.000000	-1.000000	-1.000000	74.896552	0.000000	-1.000000	-1.000000	1408445.000000	1772660705.507792
-27738.315000	-46240.290000	7119.135000	2327.715000	6451.830000	5163.210000	2266.065000	2117.205000	30.091427	28.361187	27.740489	27.832456	30.542945	21.917908	16.329477	38.741125	-1.602300	2.746800	-1.922760	0.876890	0.198730	0.398559	-1.000000	-1.000000	-1.000000	-1.000000	-1.000000	-1.000000	-1.000000	74.896552	0.000000	-1.000000	-1.000000	1408446.000000	1772660705.507802
-27731.250000	-46226.205000	7136.055000	2344.770000	6470.505000	5182.965000	2283.030000	2126.295000	27.058008	23.803629	23.006904	23.099009	28.104051	19.954519	15.273252	32.173457	-1.602300	2.746800	-1.922760	0.876890	0.198730	0.398559	-1.000000	-1.000000	-1.000000	-1.000000	-1.000000	-1.000000	-1.000000	74.896552	0.000000	-1.000000	-1.000000	1408447.000000	1772660705.514351
-27731.430000	-46222.515000	7139.205000	2348.460000	6475.995000	5180.895000	2279.205000	2128.410000	16.920507	13.021122	12.543593	12.845063	18.507593	13.073593	10.457457	19.067618	-1.602300	2.746800	-1.922760	0.876890	0.198730	0.398559	-1.000000	-1.000000	-1.000000	-1.000000	-1.000000	-1.000000	-1.000000	74.896552	0.000000	-1.000000	-1.000000	1408448.000000	1772660705.514359
-27734.895000	-46224.405000	7138.485000	2349.855000	6478.335000	5173.560000	2260.035000	2126.205000	7.805758	4.656944	4.775875	5.370620	9.522577	7.620210	6.378088	9.191194	-1.602300	2.746800	-1.922760	0.876890	0.198730	0.398559	-1.000000	-1.000000	-1.000000	-1.000000	-1.000000	-1.000000	-1.000000	74.896552	0.000000	-1.000000	-1.000000	1408449.000000	1772660705.515610
-27739.350000	-46225.080000	7140.015000	2350.395000	6478.695000	5174.685000	2261.970000	2116.980000	0.635222	-0.395613	0.246088	1.014436	2.124994	3.003089	2.217183	1.481523	-1.602300	2.746800	-1.922760	0.876890	0.198730	0.398559	-1.000000	-1.000000	-1.000000	-1.000000	-1.000000	-1.000000	-1.000000	74.896552	0.000000	-1.000000	-1.000000	1408450.000000	1772660705.515617
-27743.940000	-46224.630000	7138.305000	2346.570000	6477.075000	5172.930000	2261.880000	2107.980000	-6.226377	-4.556345	-3.626165	-2.974260	-4.950111	-2.778482	-3.041804	-7.297207	-2.685760	3.021480	-2.044840	0.880247	0.200134	0.397582	-1.000000	-1.000000	-1.000000	-1.000000	-1.000000	-1.000000	-1.000000	74.896552	0.000000	-1.000000	-1.000000	1408451.000000	1772660705.519695
-27725.220000	-46211.850000	7145.505000	2350.530000	6482.385000	5176.530000	2267.055000	2124.135000	-12.514031	-8.788272	-7.942276	-7.881043	-11.768758	-9.057698	-7.944094	-16.628866	-2.685760	3.021480	-2.044840	0.880247	0.200134	0.397582	-1.000000	-1.000000	-1.000000	-1.000000	-1.000000	-1.000000	-1.000000	74.896552	0.000000	-1.000000	-1.000000	1408452.000000	1772660705.519705
-27720.540000	-46211.715000	7145.505000	2347.020000	6473.430000	5177.115000	2274.570000	2131.830000	-16.145013	-12.068860	-11.833351	-12.787348	-17.059215	-13.537942	-10.390395	-22.840562	-2.685760	3.021480	-2.044840	0.880247	0.200134	0.397582	-1.000000	-1.000000	-1.000000	-1.000000	-1.000000	-1.000000	-1.000000	74.896552	0.000000	-1.000000	-1.000000	1408453.000000	1772660705.529882
-27735.480000	-46224.630000	7136.055000	2338.785000	6475.005000	5175.495000	2274.030000	2121.615000	-15.896772	-12.794768	-13.330199	-15.141107	-18.562572	-14.129734	-9.368549	-23.070330	-2.685760	3.021480	-2.044840	0.880247	0.200134	0.397582	-1.000000	-1.000000	-1.000000	-1.000000	-1.000000	-1.000000	-1.000000	74.896552	0.000000	-1.000000	-1.000000	1408454.000000	1772660705.529891
-27739.935000	-46227.465000	7137.675000	2346.885000	6495.930000	5181.930000	2269.485000	2113.650000	-12.697422	-10.670488	-11.430642	-13.123373	-14.711262	-10.651311	-5.850850	-17.647507	-2.685760	3.021480	-2.044840	0.880247	0.200134	0.397582	-1.000000	-1.000000	-1.000000	-1.000000	-1.000000	-1.000000	-1.000000	74.896552	0.000000	-1.000000	-1.000000	1408455.000000	1772660705.529902
-27736.020000	-46226.475000	7136.235000	2340.675000	6475.680000	5163.345000	2259.630000	2111.445000	-6.960692	-6.160475	-6.493485	-6.896324	-6.126360	-4.652955	-1.802203	-7.676742	-2.685760	3.021480	-2.044840	0.880247	0.200134	0.397582	-1.000000	-1.000000	-1.000000	-1.000000	-1.000000	-1.000000	-1.000000	74.896552	0.000000	-1.000000	-1.000000	1408456.000000	1772660705.529906
-27724.095000	-46208.835000	7154.055000	2355.975000	6465.195000	5165.280000	2264.130000	2124.450000	1.438091	0.266110	0.444347	1.595443	3.499462	1.742799	1.654419	4.981121	-2.685760	3.021480	-2.044840	0.880247	0.200134	0.397582	-1.000000	-1.000000	-1.000000	-1.000000	-1.000000	-1.000000	-1.000000	74.896552	0.000000	-1.000000	-1.000000	1408457.000000	1772660705.531559
-27711.495000	-46195.560000	7169.400000	2373.435000	6486.435000	5187.690000	2279.160000	2154.555000	10.505041	7.252411	7.552055	9.378306	9.709609	6.889180	4.674018	16.530345	-2.685760	3.021480	-2.044840	0.880247	0.200134	0.397582	-1.000000	-1.000000	-1.000000	-1.000000	-1.000000	-1.000000	-1.000000	74.896552	0.000000	-1.000000	-1.000000	1408458.000000	1772660705.531566
-27716.670000	-46199.655000	7165.935000	2369.295000	6489.090000	5187.825000	2283.840000	2145.510000	16.628013	12.369461	12.446853	13.886640	11.471295	10.225148	7.467150	23.224842	-2.685760	3.021480	-2.044840	0.880247	0.200134	0.397582	-1.000000	-1.000000	-1.000000	-1.000000	-1.000000	-1.000000	-1.000000	74.896552	0.000000	-1.000000	-1.000000	1408459.000000	1772660705.536978
-27745.425000	-46229.625000	7131.870000	2336.670000	6464.430000	5167.710000	2273.355000	2109.375000	16.232340	12.496154	12.331721	12.953489	9.767712	10.764567	8.674107	21.762241	-2.685760	3.021480	-2.044840	0.880247	0.200134	0.397582	-1.000000	-1.000000	-1.000000	-1.000000	-1.000000	-1.000000	-1.000000	74.896552	0.000000	-1.000000	-1.000000	1408460.000000	1772660705.536988
-27718.155000	-46215.090000	7138.620000	2342.340000	6473.880000	5173.605000	2278.575000	2151.135000	8.219113	6.076379	5.749235	5.748618	5.026676	7.118872	6.331393	11.117482	-3.982860	3.677660	-3.265640	0.879758	0.198608	0.399596	-1.000000	-1.000000	-1.000000	-1.000000	-1.000000	-1.000000	-1.000000	74.896552	0.000000	-1.000000	-1.000000	1408461.000000	1772660705.545725
-27680.445000	-46176.210000	7179.795000	2385.180000	6516.495000	5205.420000	2291.580000	2200.185000	-2.741242	-2.966170	-3.509950	-3.671404	-0.247048	0.916729	0.908177	-2.981822	-3.982860	3.677660	-3.265640	0.879758	0.198608	0.399596	-1.000000	-1.000000	-1.000000	-1.000000	-1.000000	-1.000000	-1.000000	74.896552	0.000000	-1.000000	-1.000000	1408462.000000	1772660705.545734
-27740.385000	-46216.125000	7148.250000	2357.100000	6487.110000	5180.175000	2262.600000	2101.500000	-9.923342	-8.087295	-8.739516	-8.718165	-2.492351	-3.959627	-4.872455	-12.874038	-3.982860	3.677660	-3.265640	0.879758	0.198608	0.399596	-1.000000	-1.000000	-1.000000	-1.000000	-1.000000	-1.000000	-1.000000	74.896552	0.000000	-1.000000	-1.000000	1408463.000000	1772660705.545743
-27779.985000	-46252.755000	7112.970000	2322.225000	6458.085000	5151.960000	2245.905000	2055.375000	-12.131675	-8.097896	-8.368007	-8.179451	-2.565809	-6.349995	-8.966131	-17.683696	-3.982860	3.677660	-3.265640	0.879758	0.198608	0.399596	-1.000000	-1.000000	-1.000000	-1.000000	-1.000000	-1.000000	-1.000000	74.896552	0.000000	-1.000000	-1.000000	1408464.000000	1772660705.545747
-27741.735000	-46228.050000	7132.230000	2339.640000	6475.095000	5162.985000	2259.045000	2102.715000	-11.563928	-6.313083	-5.822892	-5.741295	-3.252160	-7.185345	-10.098248	-19.014148	-3.982860	3.677660	-3.265640	0.879758	0.198608	0.399596	-1.000000	-1.000000	-1.000000	-1.000000	-1.000000	-1.000000	-1.000000	74.896552	0.000000	-1.000000	-1.000000	1408465.000000	1772660705.548640
-27742.050000	-46227.690000	7132.725000	2340.495000	6477.795000	5156.550000	2260.305000	2107.170000	-8.021445	-4.168163	-3.206342	-3.482570	-3.876844	-6.238763	-7.122733	-14.720582	-3.982860	3.677660	-3.265640	0.879758	0.198608	0.399596	-1.000000	-1.000000	-1.000000	-1.000000	-1.000000	-1.000000	-1.000000	74.896552	0.000000	-1.000000	-1.000000	1408466.000000	1772660705.548650
-27738.315000	-46220.130000	7141.995000	2351.655000	6499.980000	5164.335000	2267.685000	2112.885000	-1.188831	-1.150372	-0.431150	-1.117734	-2.534553	-3.437773	-0.912395	-4.056737	-3.982860	3.677660	-3.265640	0.879758	0.198608	0.399596	-1.000000	-1.000000	-1.000000	-1.000000	-1.000000	-1.000000	-1.000000	74.896552	0.000000	-1.000000	-1.000000	1408467.000000	1772660705.551700
-27726.750000	-46208.475000	7154.280000	2363.355000	6519.240000	5181.210000	2272.230000	2128.410000	6.706980	2.886401	2.973697	2.066368	1.008563	0.477351	5.519461	8.994096	-3.982860	3.677660	-3.265640	0.879758	0.198608	0.399596	-1.000000	-1.000000	-1.000000	-1.000000	-1.000000	-1.000000	-1.000000	74.896552	0.000000	-1.000000	-1.000000	1408468.000000	1772660705.551973
-27723.690000	-46211.400000	7148.340000	2348.145000	6473.610000	5175.720000	2278.755000	2139.930000	12.687491	7.245699	6.979765	6.037980	4.953606	4.891427	9.475328	19.323429	-3.982860	3.677660	-3.265640	0.879758	0.198608	0.399596	-1.000000	-1.000000	-1.000000	-1.000000	-1.000000	-1.000000	-1.000000	74.896552	0.000000	-1.000000	-1.000000	1408469.000000	1772660705.555536
-27732.015000	-46221.615000	7140.510000	2345.310000	6462.630000	5181.885000	2282.985000	2135.205000	13.614198	9.423919	9.421927	8.449275	5.302253	8.081595	9.691431	22.057316	-3.982860	3.677660	-3.265640	0.879758	0.198608	0.399596	-1.000000	-1.000000	-1.000000	-1.000000	-1.000000	-1.000000	-1.000000	74.896552	0.000000	-1.000000	-1.000000	1408470.000000	1772660705.555542
-27751.005000	-46236.240000	7128.495000	2334.780000	6457.950000	5171.715000	2262.330000	2104.920000	7.571115	6.505787	7.099500	6.266949	-0.201402	7.519543	6.053898	14.303001	-3.860780	4.318580	-4.333840	0.884336	0.199157	0.400573	-1.000000	-1.000000	-1.000000	-1.000000	-1.000000	-1.000000	-1.000000	74.896552	0.000000	-1.000000	-1.000000	1408471.000000	1772660705.565324
-27732.960000	-46213.155000	7151.670000	2355.570000	6488.550000	5184.180000	2261.880000	2116.530000	-1.781862	0.113476	0.903580	0.578599	-7.249406	3.353772	0.155283	0.761054	-3.860780	4.318580	-4.333840	0.884336	0.199157	0.400573	-1.000000	-1.000000	-1.000000	-1.000000	-1.000000	-1.000000	-1.000000	74.896552	0.000000	-1.000000	-1.000000	1408472.000000	1772660705.565332
-27665.370000	-46145.295000	7216.920000	2418.795000	6549.165000	5244.300000	2311.695000	2196.315000	-6.132298	-2.987776	-2.839089	-2.559448	-7.579224	0.007948	-4.062357	-7.548511	-3.860780	4.318580	-4.333840	0.884336	0.199157	0.400573	-1.000000	-1.000000	-1.000000	-1.000000	-1.000000	-1.000000	-1.000000	74.896552	0.000000	-1.000000	-1.000000	1408473.000000	1772660705.565340
-27674.550000	-46159.425000	7198.335000	2403.405000	6527.385000	5228.010000	2304.675000	2180.160000	-1.887446	0.845983	-0.110689	0.626453	1.454127	1.205129	-3.390436	-5.308642	-3.860780	4.318580	-4.333840	0.884336	0.199157	0.400573	-1.000000	-1.000000	-1.000000	-1.000000	-1.000000	-1.000000	-1.000000	74.896552	0.000000	-1.000000	-1.000000	1408474.000000	1772660705.565344
-27776.700000	-46256.310000	7103.610000	2313.765000	6437.880000	5140.350000	2245.545000	2075.220000	3.660510	5.160473	3.371108	4.525292	10.868968	3.078654	-0.452477	-0.337278	-3.860780	4.318580	-4.333840	0.884336	0.199157	0.400573	-1.000000	-1.000000	-1.000000	-1.000000	-1.000000	-1.000000	-1.000000	74.896552	0.000000	-1.000000	-1.000000	1408475.000000	1772660705.574539
-27799.470000	-46274.580000	7083.855000	2293.605000	6425.595000	5120.820000	2238.660000	2058.390000	0.158347	0.361073	-1.501840	0.062947	8.634648	-2.036505	-1.357980	-3.969241	-3.860780	4.318580	-4.333840	0.884336	0.199157	0.400573	-1.000000	-1.000000	-1.000000	-1.000000	-1.000000	-1.000000	-1.000000	74.896552	0.000000	-1.000000	-1.000000	1408476.000000	1772660705.574548
-27766.980000	-46246.905000	7110.315000	2314.980000	6436.215000	5140.935000	2251.845000	2089.395000	-11.852999	-12.462713	-13.580942	-11.933778	-5.038084	-13.538388	-6.864444	-15.559240	-3.860780	4.318580	-4.333840	0.884336	0.199157	0.400573	-1.000000	-1.000000	-1.000000	-1.000000	-1.000000	-1.000000	-1.000000	74.896552	0.000000	-1.000000	-1.000000	1408477.000000	1772660705.574558
-27752.670000	-46236.735000	7121.520000	2327.760000	6450.210000	5153.625000	2259.360000	2108.115000	-20.586455	-21.378801	-21.210483	-20.085690	-16.939986	-21.202358	-11.106366	-23.073507	-3.860780	4.318580	-4.333840	0.884336	0.199157	0.400573	-1.000000	-1.000000	-1.000000	-1.000000	-1.000000	-1.000000	-1.000000	74.896552	0.000000	-1.000000	-1.000000	1408478.000000	1772660705.574562
-27745.830000	-46234.665000	7126.425000	2335.590000	6464.970000	5168.790000	2276.505000	2136.105000	-16.729013	-17.374409	-15.874550	-15.699731	-15.713108	-16.836658	-8.877613	-17.275464	-3.860780	4.318580	-4.333840	0.884336	0.199157	0.400573	-1.000000	-1.000000	-1.000000	-1.000000	-1.000000	-1.000000	-1.000000	74.896552	0.000000	-1.000000	-1.000000	1408479.000000	1772660705.575743
-27746.955000	-46229.040000	7136.595000	2347.470000	6483.015000	5181.840000	2283.255000	2131.785000	-1.644344	-2.333813	-0.054347	-0.825556	-2.117664	-1.794234	0.032225	0.737051	-3.860780	4.318580	-4.333840	0.884336	0.199157	0.400573	-1.000000	-1.000000	-1.000000	-1.000000	-1.000000	-1.000000	-1.000000	74.896552	0.000000	-1.000000	-1.000000	1408480.000000	1772660705.575750
-27760.635000	-46233.180000	7131.240000	2340.585000	6479.685000	5167.800000	2259.900000	2096.820000	15.175692	14.215311	16.380412	15.047111	13.730588	15.073550	10.652158	20.584290	-2.975700	5.646200	-4.120200	0.886533	0.200988	0.399535	-1.000000	-1.000000	-1.000000	-1.000000	-1.000000	-1.000000	-1.000000	74.896552	0.000000	-1.000000	-1.000000	1408481.000000	1772660705.581145
-27752.670000	-46232.055000	7128.855000	2335.230000	6470.955000	5158.935000	2256.345000	2105.775000	22.737585	21.919438	23.206561	21.814142	20.663300	23.205349	15.206469	28.513246	-2.975700	5.646200	-4.120200	0.886533	0.200988	0.399535	-1.000000	-1.000000	-1.000000	-1.000000	-1.000000	-1.000000	-1.000000	74.896552	0.000000	-1.000000	-1.000000	1408482.000000	1772660705.581155
-27743.715000	-46227.690000	7132.410000	2338.695000	6464.475000	5160.645000	2262.105000	2120.220000	17.816227	17.681640	17.734955	16.528770	15.188860	18.732193	10.565260	20.280239	-2.975700	5.646200	-4.120200	0.886533	0.200988	0.399535	-1.000000	-1.000000	-1.000000	-1.000000	-1.000000	-1.000000	-1.000000	74.896552	0.000000	-1.000000	-1.000000	1408483.000000	1772660705.583847
-27739.260000	-46229.535000	7122.960000	2325.780000	6449.535000	5151.735000	2260.350000	2125.800000	8.105896	8.332463	7.135904	6.005503	3.818711	8.059729	2.105555	6.077791	-2.975700	5.646200	-4.120200	0.886533	0.200988	0.399535	-1.000000	-1.000000	-1.000000	-1.000000	-1.000000	-1.000000	-1.000000	74.896552	0.000000	-1.000000	-1.000000	1408484.000000	1772660705.583855
-27739.890000	-46217.115000	7138.845000	2343.825000	6481.530000	5172.030000	2270.205000	2119.320000	1.968037	1.800661	-0.375642	-1.486769	-4.795348	-0.258198	-3.290293	-2.885979	-2.975700	5.646200	-4.120200	0.886533	0.200988	0.399535	-1.000000	-1.000000	-1.000000	-1.000000	-1.000000	-1.000000	-1.000000	74.896552	0.000000	-1.000000	-1.000000	1408485.000000	1772660705.591588
-27708.345000	-46183.140000	7175.925000	2379.825000	6523.200000	5206.230000	2292.885000	2161.530000	-0.260701	-0.557113	-2.873780	-3.509501	-6.567989	-3.294721	-3.857237	-5.322618	-2.975700	5.646200	-4.120200	0.886533	0.200988	0.399535	-1.000000	-1.000000	-1.000000	-1.000000	-1.000000	-1.000000	-1.000000	74.896552	0.000000	-1.000000	-1.000000	1408486.000000	1772660705.591595
-27699.615000	-46167.210000	7194.330000	2399.580000	6521.670000	5216.715000	2294.010000	2162.700000	-2.098511	-1.141811	-2.366580	-1.891052	-2.610687	-2.782621	-1.820638	-5.379054	-2.975700	5.646200	-4.120200	0.886533	0.200988	0.399535	-1.000000	-1.000000	-1.000000	-1.000000	-1.000000	-1.000000	-1.000000	74.896552	0.000000	-1.000000	-1.000000	1408487.000000	1772660705.591604
-27770.940000	-46235.790000	7126.155000	2333.430000	6449.580000	5164.785000	2261.610000	2072.430000	-5.857270	-2.795405	-2.296425	-0.681603	0.824728	-2.699307	-0.673853	-7.180977	-2.975700	5.646200	-4.120200	0.886533	0.200988	0.399535	-1.000000	-1.000000	-1.000000	-1.000000	-1.000000	-1.000000	-1.000000	74.896552	0.000000	-1.000000	-1.000000	1408488.000000	1772660705.591607
-27750.825000	-46229.670000	7127.055000	2330.730000	6462.720000	5172.840000	2286.720000	2118.330000	-11.797724	-7.900097	-6.300065	-4.259481	-2.785218	-6.428959	-2.323558	-11.968909	-2.975700	5.646200	-4.120200	0.886533	0.200988	0.399535	-1.000000	-1.000000	-1.000000	-1.000000	-1.000000	-1.000000	-1.000000	74.896552	0.000000	-1.000000	-1.000000	1408489.000000	1772660705.595674
-27733.185000	-46210.590000	7146.855000	2353.860000	6494.490000	5183.325000	2281.905000	2130.750000	-16.390108	-14.646050	-13.248390	-11.645580	-11.384010	-12.140248	-4.765703	-14.871681	-2.975700	5.646200	-4.120200	0.886533	0.200988	0.399535	-1.000000	-1.000000	-1.000000	-1.000000	-1.000000	-1.000000	-1.000000	74.896552	0.000000	-1.000000	-1.000000	1408490.000000	1772660705.595685
-27758.700000	-46228.455000	7133.265000	2341.485000	6472.260000	5157.225000	2248.335000	2080.485000	-15.185305	-17.404662	-16.913590	-16.119671	-16.014588	-14.393470	-5.476780	-11.233326	-4.867940	7.279020	-2.838360	0.889219	0.202453	0.394896	-1.000000	-1.000000	-1.000000	-1.000000	-1.000000	-1.000000	-1.000000	74.896552	0.000000	-1.000000	-1.000000	1408491.000000	1772660705.599925
-27756.045000	-46227.465000	7134.525000	2340.135000	6456.960000	5155.020000	2258.685000	2088.720000	-7.991662	-12.757758	-12.755486	-12.645245	-11.536820	-10.408072	-4.539895	-3.360288	-4.867940	7.279020	-2.838360	0.889219	0.202453	0.394896	-1.000000	-1.000000	-1.000000	-1.000000	-1.000000	-1.000000	-1.000000	74.896552	0.000000	-1.000000	-1.000000	1408492.000000	1772660705.599934
-27745.650000	-46214.505000	7145.595000	2349.765000	6466.905000	5159.925000	2259.990000	2103.795000	2.228603	-2.006471	-1.708975	-2.123624	-0.580071	-1.631560	-2.309180	4.779347	-4.867940	7.279020	-2.838360	0.889219	0.202453	0.394896	-1.000000	-1.000000	-1.000000	-1.000000	-1.000000	-1.000000	-1.000000	74.896552	0.000000	-1.000000	-1.000000	1408493.000000	1772660705.603804
-27744.705000	-46214.685000	7145.910000	2349.585000	6467.760000	5162.715000	2262.330000	2111.265000	11.475742	9.751324	10.524036	9.662338	10.080306	7.609520	0.917979	11.243384	-4.867940	7.279020	-2.838360	0.889219	0.202453	0.394896	-1.000000	-1.000000	-1.000000	-1.000000	-1.000000	-1.000000	-1.000000	74.896552	0.000000	-1.000000	-1.000000	1408494.000000	1772660705.603813
-27746.640000	-46224.225000	7139.250000	2343.015000	6469.695000	5166.450000	2270.250000	2117.295000	15.242888	15.852877	16.550291	15.433884	14.266660	12.206103	3.547164	13.681960	-4.867940	7.279020	-2.838360	0.889219	0.202453	0.394896	-1.000000	-1.000000	-1.000000	-1.000000	-1.000000	-1.000000	-1.000000	74.896552	0.000000	-1.000000	-1.000000	1408495.000000	1772660705.610553
-27723.195000	-46207.215000	7154.280000	2355.030000	6484.995000	5188.995000	2293.020000	2149.380000	12.318408	13.581885	13.510274	12.385303	11.249673	10.739110	4.820805	11.475569	-4.867940	7.279020	-2.838360	0.889219	0.202453	0.394896	-1.000000	-1.000000	-1.000000	-1.000000	-1.000000	-1.000000	-1.000000	74.896552	0.000000	-1.000000	-1.000000	1408496.000000	1772660705.610562
-27686.115000	-46176.345000	7182.270000	2378.970000	6509.385000	5217.435000	2323.620000	2192.535000	7.583863	7.754694	6.584167	5.520583	6.481950	7.340309	6.270005	8.921073	-4.867940	7.279020	-2.838360	0.889219	0.202453	0.394896	-1.000000	-1.000000	-1.000000	-1.000000	-1.000000	-1.000000	-1.000000	74.896552	0.000000	-1.000000	-1.000000	1408497.000000	1772660705.611650
-27716.445000	-46203.660000	7159.005000	2359.395000	6490.440000	5184.540000	2284.830000	2144.475000	5.386998	4.119214	2.183471	1.242681	4.216180	5.664839	7.995979	8.440852	-4.867940	7.279020	-2.838360	0.889219	0.202453	0.394896	-1.000000	-1.000000	-1.000000	-1.000000	-1.000000	-1.000000	-1.000000	74.896552	0.000000	-1.000000	-1.000000	1408498.000000	1772660705.611655
-27747.000000	-46233.090000	7127.685000	2333.430000	6468.615000	5151.240000	2242.170000	2101.320000	2.813221	1.450812	-0.291022	-0.682384	2.067513	3.456519	6.250888	4.817153	-4.867940	7.279020	-2.838360	0.889219	0.202453	0.394896	-1.000000	-1.000000	-1.000000	-1.000000	-1.000000	-1.000000	-1.000000	74.896552	0.000000	-1.000000	-1.000000	1408499.000000	1772660705.615579
-27771.570000	-46250.190000	7109.280000	2318.130000	6454.485000	5142.825000	2241.810000	2078.775000	-4.144123	-3.826156	-4.550142	-3.775963	-2.979274	-2.200197	-0.955155	-5.728144	-4.867940	7.279020	-2.838360	0.889219	0.202453	0.394896	-1.000000	-1.000000	-1.000000	-1.000000	-1.000000	-1.000000	-1.000000	74.896552	0.000000	-1.000000	-1.000000	1408500.000000	1772660705.615585
-27742.905000	-46223.685000	7137.810000	2343.195000	6473.430000	5162.535000	2266.065000	2119.320000	-12.733082	-9.955598	-9.543534	-7.465166	-8.383655	-8.591431	-9.169958	-17.552358	-6.165040	7.416360	-1.434440	0.890684	0.204650	0.394957	-1.000000	-1.000000	-1.000000	-1.000000	-1.000000	-1.000000	-1.000000	74.896552	0.000000	-1.000000	-1.000000	1408501.000000	1772660705.619750
-27753.255000	-46225.305000	7139.925000	2343.465000	6470.235000	5160.555000	2260.215000	2095.830000	-16.595377	-12.082554	-10.802161	-8.176371	-9.882459	-10.839247	-12.192302	-22.081525	-6.165040	7.416360	-1.434440	0.890684	0.204650	0.394957	-1.000000	-1.000000	-1.000000	-1.000000	-1.000000	-1.000000	-1.000000	74.896552	0.000000	-1.000000	-1.000000	1408502.000000	1772660705.619755
-27754.920000	-46230.390000	7134.210000	2339.145000	6468.795000	5162.400000	2259.720000	2090.295000	-13.165527	-8.619534	-6.853923	-4.941798	-7.109940	-7.945735	-8.687758	-17.231263	-6.165040	7.416360	-1.434440	0.890684	0.204650	0.394957	-1.000000	-1.000000	-1.000000	-1.000000	-1.000000	-1.000000	-1.000000	74.896552	0.000000	-1.000000	-1.000000	1408503.000000	1772660705.626911
-27749.340000	-46237.050000	7126.020000	2331.540000	6465.690000	5163.660000	2264.625000	2104.785000	-5.088963	-2.328875	-0.739790	-0.402992	-2.857840	-2.798982	-2.155474	-7.228138	-6.165040	7.416360	-1.434440	0.890684	0.204650	0.394957	-1.000000	-1.000000	-1.000000	-1.000000	-1.000000	-1.000000	-1.000000	74.896552	0.000000	-1.000000	-1.000000	1408504.000000	1772660705.626920
-27738.495000	-46228.455000	7133.040000	2336.580000	6470.505000	5168.520000	2267.550000	2110.320000	3.536344	3.223861	3.867555	2.668679	0.594034	1.439831	3.253922	3.249724	-6.165040	7.416360	-1.434440	0.890684	0.204650	0.394957	-1.000000	-1.000000	-1.000000	-1.000000	-1.000000	-1.000000	-1.000000	74.896552	0.000000	-1.000000	-1.000000	1408505.000000	1772660705.627649
-27722.880000	-46209.060000	7152.705000	2357.145000	6490.575000	5184.180000	2279.520000	2126.160000	9.755695	6.454790	5.858939	3.871914	2.861865	3.653609	5.564365	11.236875	-6.165040	7.416360	-1.434440	0.890684	0.204650	0.394957	-1.000000	-1.000000	-1.000000	-1.000000	-1.000000	-1.000000	-1.000000	74.896552	0.000000	-1.000000	-1.000000	1408506.000000	1772660705.627653
-27732.735000	-46211.265000	7150.230000	2356.650000	6496.560000	5182.830000	2278.845000	2115.045000	12.389524	7.895813	6.458005	4.581173	4.732266	4.984519	5.936014	15.521363	-6.165040	7.416360	-1.434440	0.890684	0.204650	0.394957	-1.000000	-1.000000	-1.000000	-1.000000	-1.000000	-1.000000	-1.000000	74.896552	0.000000	-1.000000	-1.000000	1408507.000000	1772660705.631738
-27743.265000	-46219.590000	7140.420000	2349.360000	6494.130000	5162.175000	2264.580000	2104.830000	11.825427	8.489681	6.945501	5.717619	6.834982	6.664719	6.699070	16.584447	-6.165040	7.416360	-1.434440	0.890684	0.204650	0.394957	-1.000000	-1.000000	-1.000000	-1.000000	-1.000000	-1.000000	-1.000000	74.896552	0.000000	-1.000000	-1.000000	1408508.000000	1772660705.631746
-27734.985000	-46221.660000	7138.755000	2351.520000	6491.835000	5164.965000	2264.085000	2121.570000	8.876551	7.817245	6.807117	6.387831	8.350879	7.564086	7.365501	14.712997	-6.165040	7.416360	-1.434440	0.890684	0.204650	0.394957	-1.000000	-1.000000	-1.000000	-1.000000	-1.000000	-1.000000	-1.000000	74.896552	0.000000	-1.000000	-1.000000	1408509.000000	1772660705.635805
-27710.640000	-46205.550000	7151.445000	2358.585000	6476.310000	5183.415000	2281.320000	2158.830000	4.257363	4.585837	4.358670	4.750654	6.925305	5.697359	5.350299	9.661647	-6.165040	7.416360	-1.434440	0.890684	0.204650	0.394957	-1.000000	-1.000000	-1.000000	-1.000000	-1.000000	-1.000000	-1.000000	74.896552	0.000000	-1.000000	-1.000000	1408510.000000	1772660705.635827
-27722.250000	-46212.255000	7145.370000	2352.780000	6466.095000	5168.925000	2278.845000	2140.785000	-0.943809	-1.008571	-0.711069	0.233598	1.031569	1.073255	0.426810	2.430467	-6.256600	6.897520	-0.717220	0.889890	0.203063	0.395141	-1.000000	-1.000000	-1.000000	-1.000000	-1.000000	-1.000000	-1.000000	74.896552	0.000000	-1.000000	-1.000000	1408511.000000	1772660705.641003
-27721.890000	-46209.150000	7150.050000	2358.585000	6482.610000	5173.245000	2278.485000	2139.480000	-5.610079	-6.611501	-6.214881	-5.259723	-6.997757	-4.555654	-4.996443	-5.348004	-6.256600	6.897520	-0.717220	0.889890	0.203063	0.395141	-1.000000	-1.000000	-1.000000	-1.000000	-1.000000	-1.000000	-1.000000	74.896552	0.000000	-1.000000	-1.000000	1408512.000000	1772660705.641012
-27730.440000	-46212.840000	7149.465000	2360.700000	6504.345000	5188.635000	2272.230000	2123.685000	-9.154573	-9.626762	-9.190634	-8.627679	-11.722349	-8.718418	-8.772784	-12.623713	-6.256600	6.897520	-0.717220	0.889890	0.203063	0.395141	-1.000000	-1.000000	-1.000000	-1.000000	-1.000000	-1.000000	-1.000000	74.896552	0.000000	-1.000000	-1.000000	1408513.000000	1772660705.643799
-27768.465000	-46246.005000	7116.480000	2325.645000	6462.270000	5162.580000	2261.430000	2082.960000	-11.700645	-9.737663	-8.950522	-8.759402	-10.311954	-9.643319	-10.221702	-18.529224	-6.256600	6.897520	-0.717220	0.889890	0.203063	0.395141	-1.000000	-1.000000	-1.000000	-1.000000	-1.000000	-1.000000	-1.000000	74.896552	0.000000	-1.000000	-1.000000	1408514.000000	1772660705.643806
-27741.690000	-46223.010000	7139.250000	2346.570000	6451.245000	5172.525000	2281.770000	2132.235000	-13.003635	-8.469099	-7.195015	-7.228262	-6.000136	-7.790372	-9.100543	-20.904452	-6.256600	6.897520	-0.717220	0.889890	0.203063	0.395141	-1.000000	-1.000000	-1.000000	-1.000000	-1.000000	-1.000000	-1.000000	74.896552	0.000000	-1.000000	-1.000000	1408515.000000	1772660705.647785
-27749.655000	-46219.410000	7144.380000	2353.725000	6458.715000	5179.680000	2287.395000	2124.675000	-10.529140	-5.541533	-4.145710	-4.482925	-2.720129	-3.832610	-4.420153	-15.588753	-6.256600	6.897520	-0.717220	0.889890	0.203063	0.395141	-1.000000	-1.000000	-1.000000	-1.000000	-1.000000	-1.000000	-1.000000	74.896552	0.000000	-1.000000	-1.000000	1408516.000000	1772660705.647793
-27774.045000	-46243.530000	7120.395000	2335.005000	6456.870000	5157.315000	2264.265000	2083.860000	-2.772851	0.110512	1.060588	0.347948	-0.034817	2.028375	3.241412	-2.389639	-6.256600	6.897520	-0.717220	0.889890	0.203063	0.395141	-1.000000	-1.000000	-1.000000	-1.000000	-1.000000	-1.000000	-1.000000	74.896552	0.000000	-1.000000	-1.000000	1408517.000000	1772660705.651566
-27754.290000	-46243.440000	7116.030000	2329.830000	6457.860000	5156.595000	2267.145000	2104.965000	6.609547	6.127378	6.215061	5.451156	3.675630	7.206270	9.507359	10.863600	-6.256600	6.897520	-0.717220	0.889890	0.203063	0.395141	-1.000000	-1.000000	-1.000000	-1.000000	-1.000000	-1.000000	-1.000000	74.896552	0.000000	-1.000000	-1.000000	1408518.000000	1772660705.651573
-27731.655000	-46224.630000	7132.140000	2343.060000	6463.125000	5168.070000	2276.955000	2132.325000	12.797341	8.957606	7.976663	7.692221	7.873799	8.389267	10.246239	16.806788	-6.256600	6.897520	-0.717220	0.889890	0.203063	0.395141	-1.000000	-1.000000	-1.000000	-1.000000	-1.000000	-1.000000	-1.000000	74.896552	0.000000	-1.000000	-1.000000	1408519.000000	1772660705.656648
-27735.840000	-46218.510000	7140.735000	2348.460000	6466.725000	5171.715000	2275.785000	2121.120000	14.395865	8.344435	6.434030	6.779826	10.728238	5.799080	5.967039	15.508476	-6.256600	6.897520	-0.717220	0.889890	0.203063	0.395141	-1.000000	-1.000000	-1.000000	-1.000000	-1.000000	-1.000000	-1.000000	74.896552	0.000000	-1.000000	-1.000000	1408520.000000	1772660705.656657
-27757.665000	-46235.025000	7127.145000	2332.305000	6448.995000	5159.295000	2266.335000	2086.605000	11.688815	5.964193	3.796833	4.288133	9.980151	1.872173	0.071444	9.950850	-4.165980	5.630940	0.427280	0.889219	0.200012	0.394896	-1.000000	-1.000000	-1.000000	-1.000000	-1.000000	-1.000000	-1.000000	74.896552	0.000000	-1.000000	-1.000000	1408521.000000	1772660705.660704
-27739.935000	-46223.640000	7139.115000	2343.735000	6465.735000	5168.925000	2268.810000	2105.820000	5.557664	2.849643	1.384709	1.362520	4.710793	-1.790217	-4.437114	2.517026	-4.165980	5.630940	0.427280	0.889219	0.200012	0.394896	-1.000000	-1.000000	-1.000000	-1.000000	-1.000000	-1.000000	-1.000000	74.896552	0.000000	-1.000000	-1.000000	1408522.000000	1772660705.660734
-27729.810000	-46214.955000	7144.830000	2356.020000	6488.100000	5181.120000	2270.385000	2116.935000	-0.901452	0.160969	-0.008571	-0.580561	-1.708752	-3.708732	-5.927255	-3.282073	-4.165980	5.630940	0.427280	0.889219	0.200012	0.394896	-1.000000	-1.000000	-1.000000	-1.000000	-1.000000	-1.000000	-1.000000	74.896552	0.000000	-1.000000	-1.000000	1408523.000000	1772660705.663620
-27739.620000	-46226.475000	7133.580000	2343.285000	6464.520000	5170.680000	2272.005000	2114.910000	-4.714455	-1.394123	-0.446793	-0.835790	-4.650735	-2.836630	-4.478525	-5.024828	-4.165980	5.630940	0.427280	0.889219	0.200012	0.394896	-1.000000	-1.000000	-1.000000	-1.000000	-1.000000	-1.000000	-1.000000	74.896552	0.000000	-1.000000	-1.000000	1408524.000000	1772660705.663627
-27740.475000	-46229.355000	7130.880000	2337.300000	6449.085000	5158.665000	2272.230000	2120.490000	-5.720253	-2.561271	-1.190273	-0.840543	-4.338061	-0.474858	-1.367455	-3.504667	-4.165980	5.630940	0.427280	0.889219	0.200012	0.394896	-1.000000	-1.000000	-1.000000	-1.000000	-1.000000	-1.000000	-1.000000	74.896552	0.000000	-1.000000	-1.000000	1408525.000000	1772660705.667661
-27727.020000	-46215.270000	7145.730000	2351.250000	6468.390000	5169.555000	2283.615000	2139.210000	-4.744380	-3.338023	-2.166282	-1.470833	-3.786369	1.396613	2.285211	-0.149516	-4.165980	5.630940	0.427280	0.889219	0.200012	0.394896	-1.000000	-1.000000	-1.000000	-1.000000	-1.000000	-1.000000	-1.000000	74.896552	0.000000	-1.000000	-1.000000	1408526.000000	1772660705.667672
-27723.015000	-46207.980000	7155.630000	2360.070000	6478.785000	5181.435000	2300.130000	2151.090000	-2.894623	-2.750901	-1.923346	-1.641956	-3.399935	2.272657	5.476554	3.122742	-4.165980	5.630940	0.427280	0.889219	0.200012	0.394896	-1.000000	-1.000000	-1.000000	-1.000000	-1.000000	-1.000000	-1.000000	74.896552	0.000000	-1.000000	-1.000000	1408527.000000	1772660705.671501
-27735.300000	-46212.435000	7152.480000	2355.885000	6476.535000	5175.585000	2291.670000	2131.515000	-2.118769	-1.372980	-0.633021	-0.931456	-2.042994	2.142490	6.641028	3.240475	-4.165980	5.630940	0.427280	0.889219	0.200012	0.394896	-1.000000	-1.000000	-1.000000	-1.000000	-1.000000	-1.000000	-1.000000	74.896552	0.000000	-1.000000	-1.000000	1408528.000000	1772660705.671506
-27750.465000	-46228.815000	7136.820000	2343.690000	6469.875000	5162.175000	2261.970000	2108.565000	-3.316394	-1.011425	-0.241228	-0.581911	-0.210296	0.581268	4.171117	-1.031587	-4.165980	5.630940	0.427280	0.889219	0.200012	0.394896	-1.000000	-1.000000	-1.000000	-1.000000	-1.000000	-1.000000	-1.000000	74.896552	0.000000	-1.000000	-1.000000	1408529.000000	1772660705.675696
-27730.710000	-46223.100000	7139.160000	2347.065000	6478.380000	5176.530000	2275.965000	2135.205000	-4.708021	-2.079989	-1.681905	-1.358297	0.765673	-2.069807	-1.546047	-6.607106	-4.165980	5.630940	0.427280	0.889219	0.200012	0.394896	-1.000000	-1.000000	-1.000000	-1.000000	-1.000000	-1.000000	-1.000000	74.896552	0.000000	-1.000000	-1.000000	1408530.000000	1772660705.675700
-27685.620000	-46176.300000	7184.745000	2391.300000	6520.725000	5213.520000	2306.655000	2179.755000	-3.076442	-2.450347	-3.031700	-1.842540	1.091749	-3.578148	-6.626533	-8.025034	-3.921820	3.631880	-0.381500	0.885923	0.198730	0.394469	-1.000000	-1.000000	-1.000000	-1.000000	-1.000000	-1.000000	-1.000000	74.896552	0.000000	-1.000000	-1.000000	1408531.000000	1772660705.680377
-27707.805000	-46189.395000	7171.110000	2374.470000	6503.355000	5187.780000	2283.210000	2137.635000	2.349733	0.021899	-1.651262	-0.284589	1.918712	-2.155054	-7.176379	-3.640748	-3.921820	3.631880	-0.381500	0.885923	0.198730	0.394469	-1.000000	-1.000000	-1.000000	-1.000000	-1.000000	-1.000000	-1.000000	74.896552	0.000000	-1.000000	-1.000000	1408532.000000	1772660705.680385
-27752.040000	-46241.370000	7117.380000	2323.305000	6455.970000	5138.235000	2249.370000	2098.710000	7.290976	3.346344	1.195896	1.684474	2.367787	0.057847	-4.366619	1.331440	-3.921820	3.631880	-0.381500	0.885923	0.198730	0.394469	-1.000000	-1.000000	-1.000000	-1.000000	-1.000000	-1.000000	-1.000000	74.896552	0.000000	-1.000000	-1.000000	1408533.000000	1772660705.683769
-27728.550000	-46225.125000	7129.530000	2334.510000	6468.795000	5161.905000	2278.215000	2141.505000	6.912291	3.325375	1.526517	0.733615	0.356877	-0.162340	-1.839573	1.929439	-3.921820	3.631880	-0.381500	0.885923	0.198730	0.394469	-1.000000	-1.000000	-1.000000	-1.000000	-1.000000	-1.000000	-1.000000	74.896552	0.000000	-1.000000	-1.000000	1408534.000000	1772660705.683776
-27759.420000	-46239.885000	7119.585000	2326.590000	6463.890000	5167.890000	2279.340000	2096.640000	1.386168	-0.513134	-1.396720	-2.920413	-3.589364	-1.982663	-0.296298	-0.900335	-3.921820	3.631880	-0.381500	0.885923	0.198730	0.394469	-1.000000	-1.000000	-1.000000	-1.000000	-1.000000	-1.000000	-1.000000	74.896552	0.000000	-1.000000	-1.000000	1408535.000000	1772660705.687759
-27749.925000	-46228.680000	7133.625000	2344.680000	6480.180000	5173.470000	2276.235000	2109.510000	-5.561628	-4.922277	-4.570654	-5.782964	-6.475171	-2.506435	1.099134	-4.307046	-3.921820	3.631880	-0.381500	0.885923	0.198730	0.394469	-1.000000	-1.000000	-1.000000	-1.000000	-1.000000	-1.000000	-1.000000	74.896552	0.000000	-1.000000	-1.000000	1408536.000000	1772660705.687769
-27744.300000	-46217.565000	7148.970000	2356.740000	6468.210000	5170.995000	2269.305000	2106.270000	-9.334557	-6.226466	-4.574308	-4.659843	-5.864737	-0.740405	2.284548	-5.473960	-3.921820	3.631880	-0.381500	0.885923	0.198730	0.394469	-1.000000	-1.000000	-1.000000	-1.000000	-1.000000	-1.000000	-1.000000	74.896552	0.000000	-1.000000	-1.000000	1408537.000000	1772660705.693003
-27726.930000	-46207.755000	7156.935000	2362.905000	6463.080000	5177.070000	2277.135000	2135.295000	-6.500460	-2.402471	0.119564	1.043131	-1.977582	2.412555	3.416262	-1.501627	-3.921820	3.631880	-0.381500	0.885923	0.198730	0.394469	-1.000000	-1.000000	-1.000000	-1.000000	-1.000000	-1.000000	-1.000000	74.896552	0.000000	-1.000000	-1.000000	1408538.000000	1772660705.693011
-27718.020000	-46197.720000	7165.620000	2369.880000	6478.740000	5176.080000	2267.505000	2130.030000	1.503596	4.642053	7.105378	8.057475	2.543326	4.841857	4.274383	6.355025	-3.921820	3.631880	-0.381500	0.885923	0.198730	0.394469	-1.000000	-1.000000	-1.000000	-1.000000	-1.000000	-1.000000	-1.000000	74.896552	0.000000	-1.000000	-1.000000	1408539.000000	1772660705.695946
-27772.245000	-46248.705000	7112.790000	2318.085000	6435.045000	5139.270000	2248.740000	2070.720000	7.953106	8.938797	10.346604	10.428280	4.415503	3.811781	3.090286	11.242427	-3.921820	3.631880	-0.381500	0.885923	0.198730	0.394469	-1.000000	-1.000000	-1.000000	-1.000000	-1.000000	-1.000000	-1.000000	74.896552	0.000000	-1.000000	-1.000000	1408540.000000	1772660705.695953
-27767.745000	-46258.740000	7097.445000	2307.285000	6434.235000	5146.920000	2265.660000	2098.530000	7.394358	5.927217	5.689877	4.889591	2.444780	-0.757315	-0.263999	8.393997	-4.272800	2.807840	-0.061040	0.886106	0.198852	0.392150	-1.000000	-1.000000	-1.000000	-1.000000	-1.000000	-1.000000	-1.000000	74.896552	0.000000	-1.000000	-1.000000	1408541.000000	1772660705.699713
-27757.980000	-46246.815000	7110.720000	2322.135000	6451.920000	5158.350000	2269.755000	2103.660000	2.198561	-1.362731	-3.157202	-4.036574	-0.004997	-4.178693	-2.367290	1.774560	-4.272800	2.807840	-0.061040	0.886106	0.198852	0.392150	-1.000000	-1.000000	-1.000000	-1.000000	-1.000000	-1.000000	-1.000000	74.896552	0.000000	-1.000000	-1.000000	1408542.000000	1772660705.699720
-27747.090000	-46227.960000	7130.430000	2341.755000	6467.580000	5165.910000	2268.135000	2105.280000	-1.361541	-5.612897	-8.108291	-8.257950	1.302822	-2.533888	-1.255562	-2.353978	-4.272800	2.807840	-0.061040	0.886106	0.198852	0.392150	-1.000000	-1.000000	-1.000000	-1.000000	-1.000000	-1.000000	-1.000000	74.896552	0.000000	-1.000000	-1.000000	1408543.000000	1772660705.703747
-27747.000000	-46225.665000	7134.480000	2345.490000	6471.135000	5169.105000	2270.745000	2105.730000	-0.740834	-3.610837	-5.618921	-4.940730	5.654151	2.158964	0.807711	-2.672843	-4.272800	2.807840	-0.061040	0.886106	0.198852	0.392150	-1.000000	-1.000000	-1.000000	-1.000000	-1.000000	-1.000000	-1.000000	74.896552	0.000000	-1.000000	-1.000000	1408544.000000	1772660705.703755
-27744.840000	-46228.995000	7129.350000	2338.560000	6467.265000	5168.745000	2272.050000	2115.855000	2.151323	1.727656	0.896487	1.784826	8.591352	5.396957	1.501814	-0.785426	-4.272800	2.807840	-0.061040	0.886106	0.198852	0.392150	-1.000000	-1.000000	-1.000000	-1.000000	-1.000000	-1.000000	-1.000000	74.896552	0.000000	-1.000000	-1.000000	1408545.000000	1772660705.710253
-27727.740000	-46231.245000	7124.040000	2331.180000	6461.055000	5168.655000	2283.435000	2150.820000	4.210757	5.324436	5.480903	5.821873	6.981933	5.025393	1.151733	1.831091	-4.272800	2.807840	-0.061040	0.886106	0.198852	0.392150	-1.000000	-1.000000	-1.000000	-1.000000	-1.000000	-1.000000	-1.000000	74.896552	0.000000	-1.000000	-1.000000	1408546.000000	1772660705.710262
-27689.715000	-46195.650000	7159.455000	2367.045000	6493.680000	5195.520000	2310.165000	2197.530000	4.077940	4.834424	5.341683	4.848114	1.712732	2.017844	1.228684	4.450706	-4.272800	2.807840	-0.061040	0.886106	0.198852	0.392150	-1.000000	-1.000000	-1.000000	-1.000000	-1.000000	-1.000000	-1.000000	74.896552	0.000000	-1.000000	-1.000000	1408547.000000	1772660705.716813
-27709.605000	-46190.520000	7169.355000	2379.330000	6505.020000	5195.385000	2290.905000	2147.130000	2.304913	2.094795	2.657821	1.707786	-3.524542	-1.007063	2.075972	5.819870	-4.272800	2.807840	-0.061040	0.886106	0.198852	0.392150	-1.000000	-1.000000	-1.000000	-1.000000	-1.000000	-1.000000	-1.000000	74.896552	0.000000	-1.000000	-1.000000	1408548.000000	1772660705.716822
-27763.965000	-46238.040000	7123.590000	2336.490000	6465.780000	5159.430000	2251.395000	2077.200000	-0.847932	-0.315559	0.635072	-0.043566	-5.942093	-2.433747	1.754069	2.908571	-4.272800	2.807840	-0.061040	0.886106	0.198852	0.392150	-1.000000	-1.000000	-1.000000	-1.000000	-1.000000	-1.000000	-1.000000	74.896552	0.000000	-1.000000	-1.000000	1408549.000000	1772660705.716830
-27756.315000	-46237.410000	7119.360000	2328.345000	6455.295000	5155.920000	2259.810000	2096.865000	-5.451067	-2.103309	-0.417733	-0.406883	-6.075288	-3.045406	-1.722666	-5.661545	-4.272800	2.807840	-0.061040	0.886106	0.198852	0.392150	-1.000000	-1.000000	-1.000000	-1.000000	-1.000000	-1.000000	-1.000000	74.896552	0.000000	-1.000000	-1.000000	1408550.000000	1772660705.716834
-27752.355000	-46233.945000	7121.655000	2330.280000	6459.120000	5156.955000	2260.305000	2103.435000	-9.800220	-3.963670	-1.960360	-1.549004	-6.090175	-4.109596	-6.808927	-15.247025	-4.074420	1.815940	-0.839300	0.885923	0.196594	0.391906	-1.000000	-1.000000	-1.000000	-1.000000	-1.000000	-1.000000	-1.000000	74.896552	0.000000	-1.000000	-1.000000	1408551.000000	1772660705.719720
-27739.350000	-46224.045000	7135.020000	2343.105000	6475.635000	5159.880000	2256.570000	2120.445000	-10.816944	-5.547318	-4.253225	-4.035006	-6.418762	-5.348900	-9.637192	-18.226833	-4.074420	1.815940	-0.839300	0.885923	0.196594	0.391906	-1.000000	-1.000000	-1.000000	-1.000000	-1.000000	-1.000000	-1.000000	74.896552	0.000000	-1.000000	-1.000000	1408552.000000	1772660705.719728
-27734.940000	-46212.435000	7155.675000	2366.280000	6506.055000	5181.435000	2267.190000	2129.580000	-6.850269	-5.493939	-5.517819	-5.709837	-5.044060	-5.113645	-7.894492	-11.230918	-4.074420	1.815940	-0.839300	0.885923	0.196594	0.391906	-1.000000	-1.000000	-1.000000	-1.000000	-1.000000	-1.000000	-1.000000	74.896552	0.000000	-1.000000	-1.000000	1408553.000000	1772660705.723719
-27744.165000	-46219.815000	7145.325000	2352.690000	6485.220000	5180.445000	2275.920000	2119.185000	0.326231	-2.964188	-3.933291	-4.229779	-0.498439	-1.999154	-1.982555	1.668798	-4.074420	1.815940	-0.839300	0.885923	0.196594	0.391906	-1.000000	-1.000000	-1.000000	-1.000000	-1.000000	-1.000000	-1.000000	74.896552	0.000000	-1.000000	-1.000000	1408554.000000	1772660705.723725
-27738.540000	-46221.570000	7134.615000	2338.560000	6458.355000	5167.035000	2267.775000	2111.445000	6.180504	0.654684	-0.599450	-0.624969	4.610531	2.687141	5.093649	11.649830	-4.074420	1.815940	-0.839300	0.885923	0.196594	0.391906	-1.000000	-1.000000	-1.000000	-1.000000	-1.000000	-1.000000	-1.000000	74.896552	0.000000	-1.000000	-1.000000	1408555.000000	1772660705.727780
-27732.015000	-46220.895000	7132.410000	2339.820000	6468.075000	5171.535000	2274.885000	2128.320000	7.223934	2.497026	1.038362	1.336146	5.519928	5.270613	9.134769	12.690033	-4.074420	1.815940	-0.839300	0.885923	0.196594	0.391906	-1.000000	-1.000000	-1.000000	-1.000000	-1.000000	-1.000000	-1.000000	74.896552	0.000000	-1.000000	-1.000000	1408556.000000	1772660705.727788
-27713.745000	-46206.990000	7141.140000	2347.785000	6479.820000	5173.425000	2282.670000	2151.720000	5.050519	1.990981	-0.004551	0.434417	1.934367	4.363236	8.913731	8.254236	-4.074420	1.815940	-0.839300	0.885923	0.196594	0.391906	-1.000000	-1.000000	-1.000000	-1.000000	-1.000000	-1.000000	-1.000000	74.896552	0.000000	-1.000000	-1.000000	1408557.000000	1772660705.731720
-27732.645000	-46213.470000	7138.080000	2344.770000	6472.980000	5171.670000	2278.575000	2124.810000	4.367541	2.153226	-0.285925	0.056369	-0.937977	2.644123	6.934895	6.225399	-4.074420	1.815940	-0.839300	0.885923	0.196594	0.391906	-1.000000	-1.000000	-1.000000	-1.000000	-1.000000	-1.000000	-1.000000	74.896552	0.000000	-1.000000	-1.000000	1408558.000000	1772660705.731728
-27756.180000	-46236.285000	7115.985000	2320.335000	6454.890000	5159.655000	2267.505000	2102.265000	5.572375	4.277835	2.412106	2.479706	0.210840	2.287926	4.634811	6.980771	-4.074420	1.815940	-0.839300	0.885923	0.196594	0.391906	-1.000000	-1.000000	-1.000000	-1.000000	-1.000000	-1.000000	-1.000000	74.896552	0.000000	-1.000000	-1.000000	1408559.000000	1772660705.736967
-27746.685000	-46230.570000	7122.915000	2330.820000	6476.130000	5161.365000	2264.445000	2106.630000	4.383952	5.145188	5.161779	5.007497	3.019626	2.095282	0.968167	4.518546	-4.074420	1.815940	-0.839300	0.885923	0.196594	0.391906	-1.000000	-1.000000	-1.000000	-1.000000	-1.000000	-1.000000	-1.000000	74.896552	0.000000	-1.000000	-1.000000	1408560.000000	1772660705.736974
-27736.200000	-46220.805000	7134.660000	2346.120000	6479.460000	5170.635000	2263.005000	2112.885000	-0.598529	2.388067	4.606467	4.556209	3.986757	0.454138	-4.052810	-2.826983	-1.144500	0.640920	-1.129240	0.883970	0.192321	0.393310	-1.000000	-1.000000	-1.000000	-1.000000	-1.000000	-1.000000	-1.000000	74.896552	0.000000	-1.000000	-1.000000	1408561.000000	1772660705.739838
-27732.915000	-46215.900000	7139.520000	2346.480000	6468.615000	5183.460000	2275.335000	2120.760000	-5.947243	-2.119321	1.208738	1.551479	1.945768	-2.056926	-8.192384	-10.434489	-1.144500	0.640920	-1.129240	0.883970	0.192321	0.393310	-1.000000	-1.000000	-1.000000	-1.000000	-1.000000	-1.000000	-1.000000	74.896552	0.000000	-1.000000	-1.000000	1408562.000000	1772660705.739843
-27737.640000	-46222.380000	7133.895000	2341.710000	6482.655000	5184.990000	2278.395000	2118.420000	-8.147007	-5.123704	-2.240973	-1.598831	-1.488754	-3.547939	-9.080693	-13.217662	-1.144500	0.640920	-1.129240	0.883970	0.192321	0.393310	-1.000000	-1.000000	-1.000000	-1.000000	-1.000000	-1.000000	-1.000000	74.896552	0.000000	-1.000000	-1.000000	1408563.000000	1772660705.746809
-27738.990000	-46221.930000	7136.460000	2347.560000	6495.210000	5187.780000	2274.480000	2114.550000	-6.914696	-5.316118	-3.640697	-2.996706	-2.926596	-2.919002	-6.326359	-10.160698	-1.144500	0.640920	-1.129240	0.883970	0.192321	0.393310	-1.000000	-1.000000	-1.000000	-1.000000	-1.000000	-1.000000	-1.000000	74.896552	0.000000	-1.000000	-1.000000	1408564.000000	1772660705.746816
-27734.445000	-46215.585000	7142.445000	2347.605000	6471.855000	5182.605000	2271.780000	2118.375000	-4.070420	-3.512112	-2.826245	-2.476000	-1.471841	-0.977746	-1.801691	-4.004792	-1.144500	0.640920	-1.129240	0.883970	0.192321	0.393310	-1.000000	-1.000000	-1.000000	-1.000000	-1.000000	-1.000000	-1.000000	74.896552	0.000000	-1.000000	-1.000000	1408565.000000	1772660705.747604
-27729.495000	-46206.855000	7150.095000	2355.705000	6480.630000	5183.235000	2280.420000	2125.215000	-0.606000	-0.604709	-0.499145	-0.833911	0.263860	0.756441	2.370415	2.508890	-1.144500	0.640920	-1.129240	0.883970	0.192321	0.393310	-1.000000	-1.000000	-1.000000	-1.000000	-1.000000	-1.000000	-1.000000	74.896552	0.000000	-1.000000	-1.000000	1408566.000000	1772660705.747612
-27728.325000	-46211.805000	7141.770000	2347.335000	6480.135000	5169.060000	2283.390000	2130.930000	3.568615	2.989623	2.508438	1.317350	0.791262	1.501454	5.332965	8.258596	-1.144500	0.640920	-1.129240	0.883970	0.192321	0.393310	-1.000000	-1.000000	-1.000000	-1.000000	-1.000000	-1.000000	-1.000000	74.896552	0.000000	-1.000000	-1.000000	1408567.000000	1772660705.751659
-27729.495000	-46221.255000	7131.240000	2337.525000	6474.195000	5164.335000	2281.275000	2137.455000	7.576517	5.929557	4.547654	2.965769	0.742498	1.018094	6.750439	12.172939	-1.144500	0.640920	-1.129240	0.883970	0.192321	0.393310	-1.000000	-1.000000	-1.000000	-1.000000	-1.000000	-1.000000	-1.000000	74.896552	0.000000	-1.000000	-1.000000	1408568.000000	1772660705.751668
-27693.945000	-46192.095000	7163.550000	2375.145000	6516.945000	5210.370000	2310.300000	2188.620000	9.460257	6.410226	4.077297	2.935909	0.553539	0.083760	6.525359	13.023474	-1.144500	0.640920	-1.129240	0.883970	0.192321	0.393310	-1.000000	-1.000000	-1.000000	-1.000000	-1.000000	-1.000000	-1.000000	74.896552	0.000000	-1.000000	-1.000000	1408569.000000	1772660705.755641
-27675.135000	-46165.995000	7191.855000	2401.020000	6529.995000	5241.555000	2338.245000	2213.010000	8.368302	4.517843	1.824168	1.711148	0.798121	0.740335	5.499296	10.879483	-1.144500	0.640920	-1.129240	0.883970	0.192321	0.393310	-1.000000	-1.000000	-1.000000	-1.000000	-1.000000	-1.000000	-1.000000	74.896552	0.000000	-1.000000	-1.000000	1408570.000000	1772660705.755650
-27712.710000	-46200.915000	7154.955000	2355.660000	6460.920000	5192.280000	2306.880000	2164.860000	4.521897	1.554053	-0.529682	0.287292	1.061008	2.798017	3.825332	5.786959	-0.991900	0.335720	-1.052940	0.884458	0.194580	0.393249	-1.000000	-1.000000	-1.000000	-1.000000	-1.000000	-1.000000	-1.000000	74.896552	0.000000	-1.000000	-1.000000	1408571.000000	1772660705.761419
-27738.315000	-46224.765000	7131.420000	2335.455000	6451.290000	5161.590000	2261.160000	2111.805000	-2.346350	-2.583314	-3.299583	-2.288809	-1.441393	2.133239	-0.675578	-3.795826	-0.991900	0.335720	-1.052940	0.884458	0.194580	0.393249	-1.000000	-1.000000	-1.000000	-1.000000	-1.000000	-1.000000	-1.000000	74.896552	0.000000	-1.000000	-1.000000	1408572.000000	1772660705.761425
-27791.055000	-46268.505000	7090.650000	2297.070000	6419.880000	5126.265000	2228.085000	2033.595000	-11.713770	-8.512283	-7.669975	-7.121835	-7.531951	-3.975347	-9.217462	-17.904790	-0.991900	0.335720	-1.052940	0.884458	0.194580	0.393249	-1.000000	-1.000000	-1.000000	-1.000000	-1.000000	-1.000000	-1.000000	74.896552	0.000000	-1.000000	-1.000000	1408573.000000	1772660705.766769
-27778.050000	-46260.090000	7094.385000	2297.565000	6420.195000	5127.525000	2235.690000	2060.685000	-19.979280	-14.448773	-12.454928	-12.374594	-13.029712	-12.164587	-17.933843	-30.874547	-0.991900	0.335720	-1.052940	0.884458	0.194580	0.393249	-1.000000	-1.000000	-1.000000	-1.000000	-1.000000	-1.000000	-1.000000	74.896552	0.000000	-1.000000	-1.000000	1408574.000000	1772660705.766773
-27755.955000	-46235.070000	7119.675000	2324.520000	6447.915000	5148.585000	2253.420000	2088.765000	-20.904825	-15.572037	-13.293897	-13.308915	-12.178983	-15.196634	-19.791059	-32.450320	-0.991900	0.335720	-1.052940	0.884458	0.194580	0.393249	-1.000000	-1.000000	-1.000000	-1.000000	-1.000000	-1.000000	-1.000000	74.896552	0.000000	-1.000000	-1.000000	1408575.000000	1772660705.767868
-27742.815000	-46223.640000	7132.005000	2337.435000	6461.460000	5158.485000	2260.935000	2102.445000	-10.598328	-7.859799	-6.165104	-5.993459	-2.709778	-8.256380	-11.072966	-16.815398	-0.991900	0.335720	-1.052940	0.884458	0.194580	0.393249	-1.000000	-1.000000	-1.000000	-1.000000	-1.000000	-1.000000	-1.000000	74.896552	0.000000	-1.000000	-1.000000	1408576.000000	1772660705.767872
