Channel1	Channel2	Channel3	Channel4	Channel5	Channel6	Channel7	Channel8	FilteredChannel1	FilteredChannel2	FilteredChannel3	FilteredChannel4	FilteredChannel5	FilteredChannel6	FilteredChannel7	FilteredChannel8	GyroX	GyroY	GyroZ	AccX	AccY	AccZ	PPG1	PPG2	rawPPG1	rawPPG2	rawPPG3	Hr	Hrv	Battery	Trigger	PhysicalTrigger	AutoTrigger	NumMeasurements	Timestamp
-6282.585000	-7439.490000	365.940000	13196.475000	-4798.305000	-5590.530000	7597.530000	-4072.770000	-7.123246	-5.869262	-8.338803	-10.311406	-12.121959	-4.951635	-3.713458	-14.804678	-2.777320	4.669560	-1.617560	0.753782	0.622435	0.147827	-1.000000	-1.000000	-1.000000	-1.000000	-1.000000	-1.000000	-1.000000	74.068966	0.000000	-1.000000	-1.000000	2012421.000000	1770065521.851281
-6322.770000	-7469.595000	336.060000	13166.730000	-4822.605000	-5609.880000	7592.265000	-4108.905000	-4.440972	-3.615666	-5.416119	-6.092499	-7.291689	-2.136366	-1.602208	-10.638813	-2.777320	4.669560	-1.617560	0.753782	0.622435	0.147827	-1.000000	-1.000000	-1.000000	-1.000000	-1.000000	-1.000000	-1.000000	74.068966	0.000000	-1.000000	-1.000000	2012422.000000	1770065521.851293
-6307.380000	-7448.940000	357.345000	13188.960000	-4801.005000	-5590.215000	7596.315000	-4130.280000	-0.812997	-0.689755	-1.121380	-0.443156	-0.805354	-0.113763	1.242697	-1.243947	-2.777320	4.669560	-1.617560	0.753782	0.622435	0.147827	-1.000000	-1.000000	-1.000000	-1.000000	-1.000000	-1.000000	-1.000000	74.068966	0.000000	-1.000000	-1.000000	2012423.000000	1770065521.854905
-6354.945000	-7499.520000	306.810000	13139.730000	-4850.910000	-5639.805000	7542.090000	-4103.505000	1.786666	1.123911	1.951033	3.433731	3.633369	0.089944	2.430315	6.765088	-2.777320	4.669560	-1.617560	0.753782	0.622435	0.147827	-1.000000	-1.000000	-1.000000	-1.000000	-1.000000	-1.000000	-1.000000	74.068966	0.000000	-1.000000	-1.000000	2012424.000000	1770065521.854921
-6260.265000	-7404.660000	397.935000	13228.245000	-4769.595000	-5567.895000	7568.505000	-4024.530000	2.555402	1.366272	2.842516	4.436861	4.715561	-0.908492	-0.093767	10.696623	-2.777320	4.669560	-1.617560	0.753782	0.622435	0.147827	-1.000000	-1.000000	-1.000000	-1.000000	-1.000000	-1.000000	-1.000000	74.068966	0.000000	-1.000000	-1.000000	2012425.000000	1770065521.858953
-6186.330000	-7321.770000	481.005000	13309.695000	-4689.855000	-5491.080000	7619.355000	-3974.715000	4.134736	3.063807	4.491551	5.602295	5.569562	0.208947	-3.960338	12.731676	-2.777320	4.669560	-1.617560	0.753782	0.622435	0.147827	-1.000000	-1.000000	-1.000000	-1.000000	-1.000000	-1.000000	-1.000000	74.068966	0.000000	-1.000000	-1.000000	2012426.000000	1770065521.858973
-6292.800000	-7434.090000	372.735000	13205.025000	-4786.515000	-5576.220000	7607.070000	-4071.285000	8.429024	8.102443	9.135417	9.550584	9.262650	5.622597	-3.430605	13.277789	-2.777320	4.669560	-1.617560	0.753782	0.622435	0.147827	-1.000000	-1.000000	-1.000000	-1.000000	-1.000000	-1.000000	-1.000000	74.068966	0.000000	-1.000000	-1.000000	2012427.000000	1770065521.862962
-6380.190000	-7527.465000	278.820000	13111.920000	-4876.605000	-5657.940000	7594.740000	-4201.425000	8.946987	8.872323	9.520936	9.482589	9.602346	8.417689	1.980192	6.921178	-2.777320	4.669560	-1.617560	0.753782	0.622435	0.147827	-1.000000	-1.000000	-1.000000	-1.000000	-1.000000	-1.000000	-1.000000	74.068966	0.000000	-1.000000	-1.000000	2012428.000000	1770065521.862970
-6398.370000	-7548.390000	254.610000	13083.030000	-4911.255000	-5694.390000	7552.620000	-4169.970000	-2.009511	-2.982897	-2.819553	-3.092454	-1.981186	-0.339726	5.836174	-9.886050	-2.777320	4.669560	-1.617560	0.753782	0.622435	0.147827	-1.000000	-1.000000	-1.000000	-1.000000	-1.000000	-1.000000	-1.000000	74.068966	0.000000	-1.000000	-1.000000	2012429.000000	1770065521.867455
-6384.690000	-7531.875000	273.150000	13101.930000	-4893.840000	-5678.145000	7560.135000	-4138.290000	-19.646325	-21.425928	-22.019575	-22.677648	-21.003403	-16.874917	3.006201	-28.268338	-2.777320	4.669560	-1.617560	0.753782	0.622435	0.147827	-1.000000	-1.000000	-1.000000	-1.000000	-1.000000	-1.000000	-1.000000	74.068966	0.000000	-1.000000	-1.000000	2012430.000000	1770065521.867465
-6310.665000	-7457.895000	344.835000	13174.560000	-4819.365000	-5601.645000	7616.115000	-4096.215000	-28.126806	-29.382654	-30.704288	-31.873964	-30.869290	-25.776509	-3.470890	-32.176861	-3.418240	6.027700	-3.509800	0.757139	0.622008	0.146911	-1.000000	-1.000000	-1.000000	-1.000000	-1.000000	-1.000000	-1.000000	74.068966	0.000000	-1.000000	-1.000000	2012431.000000	1770065521.871703
-6382.170000	-7524.270000	279.495000	13110.795000	-4883.895000	-5660.640000	7558.695000	-4130.865000	-17.146909	-17.007445	-18.592531	-19.929222	-20.450599	-16.436646	-6.204471	-15.415324	-3.418240	6.027700	-3.509800	0.757139	0.622008	0.146911	-1.000000	-1.000000	-1.000000	-1.000000	-1.000000	-1.000000	-1.000000	74.068966	0.000000	-1.000000	-1.000000	2012432.000000	1770065521.871712
-6414.120000	-7555.635000	250.560000	13085.550000	-4909.095000	-5690.070000	7518.195000	-4152.915000	5.162934	6.614863	5.441095	4.621090	2.878508	4.569440	-3.763733	9.964075	-3.418240	6.027700	-3.509800	0.757139	0.622008	0.146911	-1.000000	-1.000000	-1.000000	-1.000000	-1.000000	-1.000000	-1.000000	74.068966	0.000000	-1.000000	-1.000000	2012433.000000	1770065521.875002
-6367.905000	-7516.935000	289.620000	13124.835000	-4865.850000	-5652.855000	7537.005000	-4155.255000	20.794188	22.893120	22.790232	23.092810	21.424294	20.721595	-1.179335	24.536833	-3.418240	6.027700	-3.509800	0.757139	0.622008	0.146911	-1.000000	-1.000000	-1.000000	-1.000000	-1.000000	-1.000000	-1.000000	74.068966	0.000000	-1.000000	-1.000000	2012434.000000	1770065521.875011
-6367.905000	-7523.640000	283.680000	13119.525000	-4867.875000	-5650.785000	7538.985000	-4169.295000	21.302885	22.789799	23.990562	25.516347	25.300981	22.795410	-1.345723	20.355366	-3.418240	6.027700	-3.509800	0.757139	0.622008	0.146911	-1.000000	-1.000000	-1.000000	-1.000000	-1.000000	-1.000000	-1.000000	74.068966	0.000000	-1.000000	-1.000000	2012435.000000	1770065521.878969
-6368.355000	-7511.355000	296.775000	13131.135000	-4856.535000	-5644.080000	7544.295000	-4163.760000	13.823953	13.612156	15.558960	17.629772	19.158571	15.493862	-1.987948	7.547053	-3.418240	6.027700	-3.509800	0.757139	0.622008	0.146911	-1.000000	-1.000000	-1.000000	-1.000000	-1.000000	-1.000000	-1.000000	74.068966	0.000000	-1.000000	-1.000000	2012436.000000	1770065521.878976
-6350.580000	-7494.030000	311.895000	13144.410000	-4846.410000	-5641.110000	7543.080000	-4143.150000	9.694752	8.302400	9.911989	11.348816	13.495598	9.104749	0.242814	2.046175	-3.418240	6.027700	-3.509800	0.757139	0.622008	0.146911	-1.000000	-1.000000	-1.000000	-1.000000	-1.000000	-1.000000	-1.000000	74.068966	0.000000	-1.000000	-1.000000	2012437.000000	1770065521.882971
-6314.580000	-7459.515000	345.195000	13178.115000	-4812.705000	-5615.010000	7573.905000	-4101.300000	11.733998	10.946914	11.333459	11.297244	12.547897	8.053371	6.083128	7.913102	-3.418240	6.027700	-3.509800	0.757139	0.622008	0.146911	-1.000000	-1.000000	-1.000000	-1.000000	-1.000000	-1.000000	-1.000000	74.068966	0.000000	-1.000000	-1.000000	2012438.000000	1770065521.882982
-6279.300000	-7425.135000	380.250000	13214.610000	-4774.095000	-5578.830000	7608.510000	-4048.605000	14.033841	14.903302	13.904432	12.511636	12.163509	8.691397	12.949467	16.013335	-3.418240	6.027700	-3.509800	0.757139	0.622008	0.146911	-1.000000	-1.000000	-1.000000	-1.000000	-1.000000	-1.000000	-1.000000	74.068966	0.000000	-1.000000	-1.000000	2012439.000000	1770065521.887605
-6312.600000	-7453.080000	355.095000	13189.095000	-4804.695000	-5600.790000	7587.225000	-4086.270000	9.601032	11.485010	9.730384	7.826075	6.153954	4.993311	15.949803	16.447482	-3.418240	6.027700	-3.509800	0.757139	0.622008	0.146911	-1.000000	-1.000000	-1.000000	-1.000000	-1.000000	-1.000000	-1.000000	74.068966	0.000000	-1.000000	-1.000000	2012440.000000	1770065521.887614
-6375.690000	-7517.610000	291.150000	13124.295000	-4870.530000	-5654.250000	7551.180000	-4159.530000	-3.462043	-2.013653	-3.499812	-5.061349	-7.333891	-5.135331	11.641420	5.137137	-3.204600	7.111160	-3.830260	0.759703	0.618590	0.147094	-1.000000	-1.000000	-1.000000	-1.000000	-1.000000	-1.000000	-1.000000	74.068966	0.000000	-1.000000	-1.000000	2012441.000000	1770065521.894848
-6366.240000	-7511.265000	293.760000	13125.375000	-4869.180000	-5657.355000	7545.285000	-4149.225000	-20.540370	-20.562023	-21.097184	-21.944726	-23.982206	-18.156204	1.344464	-15.006064	-3.204600	7.111160	-3.830260	0.759703	0.618590	0.147094	-1.000000	-1.000000	-1.000000	-1.000000	-1.000000	-1.000000	-1.000000	74.068966	0.000000	-1.000000	-1.000000	2012442.000000	1770065521.894859
-6340.050000	-7485.705000	318.195000	13148.460000	-4844.655000	-5632.605000	7556.445000	-4133.025000	-33.588841	-35.108504	-34.796906	-34.995692	-36.045766	-27.953902	-10.395749	-33.379092	-3.204600	7.111160	-3.830260	0.759703	0.618590	0.147094	-1.000000	-1.000000	-1.000000	-1.000000	-1.000000	-1.000000	-1.000000	74.068966	0.000000	-1.000000	-1.000000	2012443.000000	1770065521.896631
-6351.975000	-7498.080000	307.980000	13140.180000	-4848.705000	-5632.155000	7557.345000	-4142.610000	-34.848328	-37.028168	-36.453479	-36.178422	-35.887857	-28.487904	-18.436501	-37.589179	-3.204600	7.111160	-3.830260	0.759703	0.618590	0.147094	-1.000000	-1.000000	-1.000000	-1.000000	-1.000000	-1.000000	-1.000000	74.068966	0.000000	-1.000000	-1.000000	2012444.000000	1770065521.896638
-6340.005000	-7486.110000	318.645000	13147.335000	-4844.790000	-5633.235000	7563.690000	-4121.055000	-21.385600	-23.301528	-22.921288	-22.284899	-20.847126	-17.137776	-18.982944	-23.315999	-3.204600	7.111160	-3.830260	0.759703	0.618590	0.147094	-1.000000	-1.000000	-1.000000	-1.000000	-1.000000	-1.000000	-1.000000	74.068966	0.000000	-1.000000	-1.000000	2012445.000000	1770065521.898953
-6318.765000	-7462.395000	341.910000	13165.200000	-4840.020000	-5632.335000	7563.105000	-4112.640000	1.163347	0.062696	0.187749	0.996744	2.816039	1.564316	-11.945959	1.667328	-3.204600	7.111160	-3.830260	0.759703	0.618590	0.147094	-1.000000	-1.000000	-1.000000	-1.000000	-1.000000	-1.000000	-1.000000	74.068966	0.000000	-1.000000	-1.000000	2012446.000000	1770065521.898964
-6320.880000	-7460.865000	347.985000	13176.495000	-4825.710000	-5611.815000	7569.045000	-4102.470000	21.142013	21.256697	21.392631	22.073483	23.150642	18.073938	-1.655323	22.428353	-3.204600	7.111160	-3.830260	0.759703	0.618590	0.147094	-1.000000	-1.000000	-1.000000	-1.000000	-1.000000	-1.000000	-1.000000	74.068966	0.000000	-1.000000	-1.000000	2012447.000000	1770065521.904372
-6303.735000	-7444.890000	364.455000	13199.355000	-4795.425000	-5581.350000	7591.950000	-4085.820000	28.693341	30.123033	30.612370	31.146961	30.963404	24.804583	6.232673	28.077049	-3.204600	7.111160	-3.830260	0.759703	0.618590	0.147094	-1.000000	-1.000000	-1.000000	-1.000000	-1.000000	-1.000000	-1.000000	74.068966	0.000000	-1.000000	-1.000000	2012448.000000	1770065521.904382
-6332.130000	-7475.670000	332.595000	13169.745000	-4821.840000	-5608.170000	7575.030000	-4130.370000	23.069196	25.098689	25.948985	26.744996	26.135331	21.290105	9.757745	19.605460	-3.204600	7.111160	-3.830260	0.759703	0.618590	0.147094	-1.000000	-1.000000	-1.000000	-1.000000	-1.000000	-1.000000	-1.000000	74.068966	0.000000	-1.000000	-1.000000	2012449.000000	1770065521.908278
-6357.285000	-7499.070000	309.690000	13148.145000	-4839.390000	-5629.455000	7550.100000	-4139.100000	11.239397	12.673530	13.437143	14.774245	15.159472	12.318018	10.454183	5.937073	-3.204600	7.111160	-3.830260	0.759703	0.618590	0.147094	-1.000000	-1.000000	-1.000000	-1.000000	-1.000000	-1.000000	-1.000000	74.068966	0.000000	-1.000000	-1.000000	2012450.000000	1770065521.908289
-6330.015000	-7466.940000	340.515000	13175.730000	-4815.630000	-5610.015000	7574.310000	-4107.465000	-0.516724	-0.211644	0.018004	1.541648	3.425007	2.100609	9.094139	-4.840329	-2.533160	4.959500	-2.990960	0.757811	0.618712	0.147155	-1.000000	-1.000000	-1.000000	-1.000000	-1.000000	-1.000000	-1.000000	74.068966	0.000000	-1.000000	-1.000000	2012451.000000	1770065521.912353
-6329.025000	-7461.135000	344.160000	13175.865000	-4816.755000	-5608.170000	7582.905000	-4120.020000	-9.150642	-9.373780	-9.793356	-8.978345	-6.669253	-6.996258	5.711777	-9.161157	-2.533160	4.959500	-2.990960	0.757811	0.618712	0.147155	-1.000000	-1.000000	-1.000000	-1.000000	-1.000000	-1.000000	-1.000000	74.068966	0.000000	-1.000000	-1.000000	2012452.000000	1770065521.912362
-6321.555000	-7462.845000	339.795000	13169.610000	-4824.135000	-5610.105000	7582.320000	-4127.400000	-12.312055	-12.290853	-13.299921	-14.047736	-13.135882	-12.554037	1.349259	-7.660463	-2.533160	4.959500	-2.990960	0.757811	0.618712	0.147155	-1.000000	-1.000000	-1.000000	-1.000000	-1.000000	-1.000000	-1.000000	74.068966	0.000000	-1.000000	-1.000000	2012453.000000	1770065521.916934
-6307.650000	-7448.175000	356.670000	13188.960000	-4808.880000	-5595.840000	7598.745000	-4110.840000	-9.452554	-9.345093	-10.724710	-13.025676	-14.468402	-12.672375	-2.508453	-3.616797	-2.533160	4.959500	-2.990960	0.757811	0.618712	0.147155	-1.000000	-1.000000	-1.000000	-1.000000	-1.000000	-1.000000	-1.000000	74.068966	0.000000	-1.000000	-1.000000	2012454.000000	1770065521.916945
-6251.310000	-7385.805000	422.730000	13257.900000	-4739.490000	-5535.540000	7650.495000	-4056.840000	-2.856713	-3.316870	-4.487774	-7.162882	-10.197566	-7.140833	-4.039260	0.165605	-2.533160	4.959500	-2.990960	0.757811	0.618712	0.147155	-1.000000	-1.000000	-1.000000	-1.000000	-1.000000	-1.000000	-1.000000	74.068966	0.000000	-1.000000	-1.000000	2012455.000000	1770065521.953068
-6203.340000	-7332.390000	477.585000	13314.510000	-4682.340000	-5482.530000	7675.695000	-4032.315000	4.771614	3.734886	3.451348	1.848637	-1.071484	2.178393	-2.099354	3.077850	-2.533160	4.959500	-2.990960	0.757811	0.618712	0.147155	-1.000000	-1.000000	-1.000000	-1.000000	-1.000000	-1.000000	-1.000000	74.068966	0.000000	-1.000000	-1.000000	2012456.000000	1770065521.953081
-6280.065000	-7430.490000	374.490000	13209.885000	-4785.570000	-5584.815000	7548.120000	-4096.080000	10.034342	8.848543	9.583545	9.530299	7.941675	9.664641	-0.120957	4.296320	-2.533160	4.959500	-2.990960	0.757811	0.618712	0.147155	-1.000000	-1.000000	-1.000000	-1.000000	-1.000000	-1.000000	-1.000000	74.068966	0.000000	-1.000000	-1.000000	2012457.000000	1770065521.953094
-6369.930000	-7531.785000	269.910000	13102.155000	-4889.880000	-5677.065000	7484.580000	-4115.655000	7.748194	6.156096	7.258435	8.057527	8.011886	7.509666	-4.612171	2.157205	-2.533160	4.959500	-2.990960	0.757811	0.618712	0.147155	-1.000000	-1.000000	-1.000000	-1.000000	-1.000000	-1.000000	-1.000000	74.068966	0.000000	-1.000000	-1.000000	2012458.000000	1770065521.953100
-6333.480000	-7480.395000	323.145000	13155.120000	-4836.510000	-5616.450000	7582.185000	-4102.155000	-3.291003	-5.742685	-5.124191	-4.507285	-3.398883	-4.844686	-14.033327	-2.594563	-2.533160	4.959500	-2.990960	0.757811	0.618712	0.147155	-1.000000	-1.000000	-1.000000	-1.000000	-1.000000	-1.000000	-1.000000	74.068966	0.000000	-1.000000	-1.000000	2012459.000000	1770065521.953106
-6370.065000	-7524.135000	277.920000	13110.930000	-4881.420000	-5660.775000	7555.140000	-4106.565000	-16.244179	-18.750015	-18.865706	-18.827976	-17.143890	-17.390048	-17.485476	-6.905668	-2.533160	4.959500	-2.990960	0.757811	0.618712	0.147155	-1.000000	-1.000000	-1.000000	-1.000000	-1.000000	-1.000000	-1.000000	74.068966	0.000000	-1.000000	-1.000000	2012460.000000	1770065521.953111
-6415.965000	-7568.010000	239.085000	13077.180000	-4912.650000	-5693.265000	7535.295000	-4186.440000	-22.986594	-23.955305	-24.313925	-24.325796	-22.645013	-20.952273	-9.868755	-9.076215	-4.532220	3.845520	-2.487380	0.760374	0.619261	0.148498	-1.000000	-1.000000	-1.000000	-1.000000	-1.000000	-1.000000	-1.000000	73.724138	0.000000	-1.000000	-1.000000	2012461.000000	1770065521.953117
-6395.040000	-7539.390000	269.370000	13106.745000	-4884.795000	-5667.435000	7562.295000	-4167.630000	-20.268971	-18.630794	-18.465677	-17.692317	-16.427792	-14.229017	3.129046	-9.509300	-4.532220	3.845520	-2.487380	0.760374	0.619261	0.148498	-1.000000	-1.000000	-1.000000	-1.000000	-1.000000	-1.000000	-1.000000	73.724138	0.000000	-1.000000	-1.000000	2012462.000000	1770065521.953122
-6358.230000	-7498.080000	306.945000	13140.900000	-4851.585000	-5639.400000	7584.030000	-4129.335000	-8.647703	-4.297047	-3.305794	-1.609641	-0.882323	-0.254121	14.326221	-7.626147	-4.532220	3.845520	-2.487380	0.760374	0.619261	0.148498	-1.000000	-1.000000	-1.000000	-1.000000	-1.000000	-1.000000	-1.000000	73.724138	0.000000	-1.000000	-1.000000	2012463.000000	1770065521.953128
-6325.830000	-7471.845000	329.805000	13162.320000	-4831.425000	-5618.790000	7587.405000	-4101.075000	7.854476	13.578761	14.694533	16.356769	16.570452	14.780056	19.048412	-2.043035	-4.532220	3.845520	-2.487380	0.760374	0.619261	0.148498	-1.000000	-1.000000	-1.000000	-1.000000	-1.000000	-1.000000	-1.000000	73.724138	0.000000	-1.000000	-1.000000	2012464.000000	1770065521.953132
-6325.875000	-7470.000000	333.405000	13168.080000	-4825.935000	-5613.615000	7576.245000	-4119.660000	22.194492	26.758587	26.863933	27.224265	26.822589	23.484369	15.688983	5.957681	-4.532220	3.845520	-2.487380	0.760374	0.619261	0.148498	-1.000000	-1.000000	-1.000000	-1.000000	-1.000000	-1.000000	-1.000000	73.724138	0.000000	-1.000000	-1.000000	2012465.000000	1770065521.953138
-6345.180000	-7492.500000	310.410000	13143.060000	-4853.070000	-5648.265000	7544.745000	-4123.710000	29.510228	31.146293	29.945184	28.602555	27.413841	24.032908	8.466799	13.484346	-4.532220	3.845520	-2.487380	0.760374	0.619261	0.148498	-1.000000	-1.000000	-1.000000	-1.000000	-1.000000	-1.000000	-1.000000	73.724138	0.000000	-1.000000	-1.000000	2012466.000000	1770065521.953143
-6339.915000	-7484.985000	318.285000	13150.485000	-4849.245000	-5643.180000	7540.830000	-4100.940000	29.474394	28.408729	26.755432	24.468602	22.498870	19.864379	3.135740	18.513082	-4.532220	3.845520	-2.487380	0.760374	0.619261	0.148498	-1.000000	-1.000000	-1.000000	-1.000000	-1.000000	-1.000000	-1.000000	73.724138	0.000000	-1.000000	-1.000000	2012467.000000	1770065521.954500
-6316.875000	-7457.805000	348.795000	13184.370000	-4814.190000	-5597.955000	7573.230000	-4091.265000	22.503454	19.948538	18.999193	17.071420	14.716789	13.059220	-0.283103	18.923407	-4.532220	3.845520	-2.487380	0.760374	0.619261	0.148498	-1.000000	-1.000000	-1.000000	-1.000000	-1.000000	-1.000000	-1.000000	73.724138	0.000000	-1.000000	-1.000000	2012468.000000	1770065521.954511
-6313.545000	-7456.410000	348.930000	13184.550000	-4813.875000	-5596.740000	7609.185000	-4083.030000	9.784790	6.800767	7.147567	6.614595	4.734840	4.617825	-3.436648	13.616739	-4.532220	3.845520	-2.487380	0.760374	0.619261	0.148498	-1.000000	-1.000000	-1.000000	-1.000000	-1.000000	-1.000000	-1.000000	73.724138	0.000000	-1.000000	-1.000000	2012469.000000	1770065521.954522
-6272.775000	-7407.855000	397.440000	13234.185000	-4762.890000	-5551.470000	7646.445000	-4077.630000	-3.886668	-6.507539	-5.203787	-4.189081	-4.671804	-2.784277	-4.151153	5.237186	-4.532220	3.845520	-2.487380	0.760374	0.619261	0.148498	-1.000000	-1.000000	-1.000000	-1.000000	-1.000000	-1.000000	-1.000000	73.724138	0.000000	-1.000000	-1.000000	2012470.000000	1770065521.954527
-6294.105000	-7427.430000	374.985000	13213.530000	-4782.195000	-5575.725000	7626.105000	-4106.880000	-14.074123	-15.795333	-14.539521	-12.652002	-11.302394	-8.018309	-1.947505	-3.520954	-3.372460	4.562740	-1.770160	0.761351	0.616698	0.147155	-1.000000	-1.000000	-1.000000	-1.000000	-1.000000	-1.000000	-1.000000	73.724138	0.000000	-1.000000	-1.000000	2012471.000000	1770065521.954533
-6411.420000	-7528.365000	271.710000	13110.750000	-4886.460000	-5677.290000	7525.080000	-4151.970000	-22.915963	-23.458050	-23.150144	-21.251332	-18.366003	-15.030379	-2.898389	-14.163667	-3.372460	4.562740	-1.770160	0.761351	0.616698	0.147155	-1.000000	-1.000000	-1.000000	-1.000000	-1.000000	-1.000000	-1.000000	73.724138	0.000000	-1.000000	-1.000000	2012472.000000	1770065521.954538
-6374.520000	-7481.565000	323.100000	13157.010000	-4844.070000	-5631.165000	7564.320000	-4104.270000	-33.939256	-32.968733	-33.740384	-32.551927	-29.222868	-26.809147	-11.696754	-26.208427	-3.372460	4.562740	-1.770160	0.761351	0.616698	0.147155	-1.000000	-1.000000	-1.000000	-1.000000	-1.000000	-1.000000	-1.000000	73.724138	0.000000	-1.000000	-1.000000	2012473.000000	1770065521.956657
-6297.480000	-7456.815000	347.985000	13178.925000	-4819.770000	-5604.255000	7583.805000	-4108.005000	-39.387354	-37.363568	-38.509003	-38.643720	-36.330573	-34.996404	-20.711483	-31.166223	-3.372460	4.562740	-1.770160	0.761351	0.616698	0.147155	-1.000000	-1.000000	-1.000000	-1.000000	-1.000000	-1.000000	-1.000000	73.724138	0.000000	-1.000000	-1.000000	2012474.000000	1770065521.956667
-6315.660000	-7497.855000	306.450000	13141.935000	-4851.180000	-5626.035000	7560.720000	-4119.930000	-26.044458	-25.745676	-26.346924	-27.905128	-27.401285	-26.747745	-17.358389	-21.681573	-3.372460	4.562740	-1.770160	0.761351	0.616698	0.147155	-1.000000	-1.000000	-1.000000	-1.000000	-1.000000	-1.000000	-1.000000	73.724138	0.000000	-1.000000	-1.000000	2012475.000000	1770065521.959667
-6362.190000	-7522.380000	279.720000	13112.955000	-4883.715000	-5662.575000	7537.095000	-4140.765000	3.178450	-1.137603	-0.860159	-3.033173	-3.964267	-3.647536	-1.987275	-2.598300	-3.372460	4.562740	-1.770160	0.761351	0.616698	0.147155	-1.000000	-1.000000	-1.000000	-1.000000	-1.000000	-1.000000	-1.000000	73.724138	0.000000	-1.000000	-1.000000	2012476.000000	1770065521.959677
-6334.335000	-7481.205000	318.285000	13148.775000	-4850.325000	-5636.790000	7567.785000	-4131.810000	29.297274	21.843542	22.524075	20.826811	19.286741	18.775117	12.991325	14.231776	-3.372460	4.562740	-1.770160	0.761351	0.616698	0.147155	-1.000000	-1.000000	-1.000000	-1.000000	-1.000000	-1.000000	-1.000000	73.724138	0.000000	-1.000000	-1.000000	2012477.000000	1770065521.964411
-6323.805000	-7466.535000	338.085000	13172.310000	-4823.190000	-5614.470000	7582.455000	-4123.485000	38.533369	33.447137	33.820278	33.147271	31.528584	29.124528	18.598678	22.007456	-3.372460	4.562740	-1.770160	0.761351	0.616698	0.147155	-1.000000	-1.000000	-1.000000	-1.000000	-1.000000	-1.000000	-1.000000	73.724138	0.000000	-1.000000	-1.000000	2012478.000000	1770065521.964419
-6360.345000	-7504.020000	303.570000	13139.145000	-4856.355000	-5639.445000	7552.620000	-4142.610000	30.186590	31.818394	31.749712	32.138501	30.763418	26.509175	14.368410	21.110208	-3.372460	4.562740	-1.770160	0.761351	0.616698	0.147155	-1.000000	-1.000000	-1.000000	-1.000000	-1.000000	-1.000000	-1.000000	73.724138	0.000000	-1.000000	-1.000000	2012479.000000	1770065521.969556
-6337.755000	-7475.805000	331.335000	13165.425000	-4835.385000	-5618.340000	7576.155000	-4109.670000	11.546608	19.464091	19.471562	20.681315	19.774935	15.672318	5.061311	14.888879	-3.372460	4.562740	-1.770160	0.761351	0.616698	0.147155	-1.000000	-1.000000	-1.000000	-1.000000	-1.000000	-1.000000	-1.000000	73.724138	0.000000	-1.000000	-1.000000	2012480.000000	1770065521.969565
-6261.030000	-7390.935000	415.980000	13248.270000	-4757.670000	-5553.945000	7621.065000	-4054.230000	-4.479778	5.421612	5.953719	7.461006	6.934111	5.189496	-1.025229	8.193363	-2.014320	3.616620	0.076300	0.758726	0.617918	0.146850	-1.000000	-1.000000	-1.000000	-1.000000	-1.000000	-1.000000	-1.000000	73.724138	0.000000	-1.000000	-1.000000	2012481.000000	1770065521.972837
-6202.170000	-7337.115000	466.515000	13300.380000	-4704.840000	-5512.725000	7617.420000	-4019.985000	-7.659659	-0.402859	0.398391	1.646799	1.227802	1.887576	0.932990	4.834660	-2.014320	3.616620	0.076300	0.758726	0.617918	0.146850	-1.000000	-1.000000	-1.000000	-1.000000	-1.000000	-1.000000	-1.000000	73.724138	0.000000	-1.000000	-1.000000	2012482.000000	1770065521.972848
-6266.070000	-7410.690000	391.185000	13225.005000	-4775.715000	-5578.740000	7599.420000	-4058.640000	-1.462975	1.388842	1.658743	2.419042	2.098569	3.329138	6.292829	3.725196	-2.014320	3.616620	0.076300	0.758726	0.617918	0.146850	-1.000000	-1.000000	-1.000000	-1.000000	-1.000000	-1.000000	-1.000000	73.724138	0.000000	-1.000000	-1.000000	2012483.000000	1770065521.977901
-6366.780000	-7510.140000	294.075000	13126.635000	-4864.905000	-5648.445000	7565.850000	-4162.275000	0.840912	0.478627	-0.289636	-0.024577	0.191430	0.821881	7.192637	-0.859573	-2.014320	3.616620	0.076300	0.758726	0.617918	0.146850	-1.000000	-1.000000	-1.000000	-1.000000	-1.000000	-1.000000	-1.000000	73.724138	0.000000	-1.000000	-1.000000	2012484.000000	1770065521.977911
-6353.505000	-7499.340000	307.620000	13136.580000	-4852.530000	-5639.220000	7553.070000	-4136.760000	-8.154281	-10.435381	-11.829347	-12.114726	-10.712317	-9.854910	0.417913	-12.449237	-2.014320	3.616620	0.076300	0.758726	0.617918	0.146850	-1.000000	-1.000000	-1.000000	-1.000000	-1.000000	-1.000000	-1.000000	73.724138	0.000000	-1.000000	-1.000000	2012485.000000	1770065521.987538
-6304.095000	-7461.315000	352.080000	13171.635000	-4826.160000	-5618.295000	7549.785000	-4095.045000	-21.211242	-25.711929	-26.651426	-27.643477	-25.023581	-22.630390	-11.317570	-24.433404	-2.014320	3.616620	0.076300	0.758726	0.617918	0.146850	-1.000000	-1.000000	-1.000000	-1.000000	-1.000000	-1.000000	-1.000000	73.724138	0.000000	-1.000000	-1.000000	2012486.000000	1770065521.987550
-6323.265000	-7473.825000	356.850000	13161.555000	-4828.005000	-5617.755000	7549.335000	-4104.765000	-25.340607	-32.482719	-31.927112	-33.973909	-31.298906	-27.505758	-21.380533	-25.630962	-2.014320	3.616620	0.076300	0.758726	0.617918	0.146850	-1.000000	-1.000000	-1.000000	-1.000000	-1.000000	-1.000000	-1.000000	73.724138	0.000000	-1.000000	-1.000000	2012487.000000	1770065522.085561
-6379.110000	-7518.915000	289.845000	13127.355000	-4859.730000	-5643.270000	7538.130000	-4140.945000	-16.637117	-24.762546	-22.617071	-25.516795	-24.154024	-20.435097	-23.054005	-14.085029	-2.014320	3.616620	0.076300	0.758726	0.617918	0.146850	-1.000000	-1.000000	-1.000000	-1.000000	-1.000000	-1.000000	-1.000000	73.724138	0.000000	-1.000000	-1.000000	2012488.000000	1770065522.085575
-6416.595000	-7561.890000	233.640000	13090.680000	-4902.480000	-5678.505000	7566.795000	-4160.520000	-2.746327	-8.562459	-6.546065	-8.092168	-8.416731	-6.123863	-14.028496	1.003422	-2.014320	3.616620	0.076300	0.758726	0.617918	0.146850	-1.000000	-1.000000	-1.000000	-1.000000	-1.000000	-1.000000	-1.000000	73.724138	0.000000	-1.000000	-1.000000	2012489.000000	1770065522.085588
-6389.280000	-7530.930000	266.940000	13106.835000	-4886.910000	-5655.690000	7569.450000	-4160.700000	6.403671	5.137282	4.550679	7.109523	5.543459	6.329274	1.548484	9.200261	-2.014320	3.616620	0.076300	0.758726	0.617918	0.146850	-1.000000	-1.000000	-1.000000	-1.000000	-1.000000	-1.000000	-1.000000	73.724138	0.000000	-1.000000	-1.000000	2012490.000000	1770065522.085593
-6369.930000	-7523.280000	278.145000	13116.780000	-4881.690000	-5654.745000	7569.270000	-4135.140000	8.157017	11.502246	7.811160	14.017903	11.775958	11.871696	15.884399	8.503736	-4.700080	2.960440	-1.098720	0.759031	0.621886	0.145080	-1.000000	-1.000000	-1.000000	-1.000000	-1.000000	-1.000000	-1.000000	73.724138	0.000000	-1.000000	-1.000000	2012491.000000	1770065522.085600
-6335.280000	-7478.325000	328.410000	13169.475000	-4832.010000	-5612.715000	7595.955000	-4123.575000	9.289974	16.065120	11.577949	17.622631	14.962039	14.333062	23.666373	6.489999	-4.700080	2.960440	-1.098720	0.759031	0.621886	0.145080	-1.000000	-1.000000	-1.000000	-1.000000	-1.000000	-1.000000	-1.000000	73.724138	0.000000	-1.000000	-1.000000	2012492.000000	1770065522.085604
-6339.960000	-7490.745000	313.875000	13152.060000	-4847.040000	-5629.140000	7569.990000	-4131.855000	17.240205	25.424796	23.193553	25.429065	22.447594	19.602715	24.102090	10.765866	-4.700080	2.960440	-1.098720	0.759031	0.621886	0.145080	-1.000000	-1.000000	-1.000000	-1.000000	-1.000000	-1.000000	-1.000000	73.724138	0.000000	-1.000000	-1.000000	2012493.000000	1770065522.085610
-6361.380000	-7512.705000	289.620000	13125.060000	-4874.715000	-5654.295000	7544.160000	-4147.155000	27.817616	34.519811	35.823722	33.252452	30.563106	24.683586	17.164713	18.409692	-4.700080	2.960440	-1.098720	0.759031	0.621886	0.145080	-1.000000	-1.000000	-1.000000	-1.000000	-1.000000	-1.000000	-1.000000	73.724138	0.000000	-1.000000	-1.000000	2012494.000000	1770065522.085615
-6352.965000	-7502.355000	298.485000	13129.965000	-4869.585000	-5642.595000	7557.975000	-4133.970000	28.130097	30.867859	34.390657	28.739212	27.539774	20.554454	3.625463	19.358039	-4.700080	2.960440	-1.098720	0.759031	0.621886	0.145080	-1.000000	-1.000000	-1.000000	-1.000000	-1.000000	-1.000000	-1.000000	73.724138	0.000000	-1.000000	-1.000000	2012495.000000	1770065522.085621
-6338.880000	-7480.170000	320.355000	13149.225000	-4850.595000	-5626.035000	7571.475000	-4116.915000	13.748018	12.016053	15.126819	9.287103	10.350722	5.744410	-10.975331	10.112208	-4.700080	2.960440	-1.098720	0.759031	0.621886	0.145080	-1.000000	-1.000000	-1.000000	-1.000000	-1.000000	-1.000000	-1.000000	73.724138	0.000000	-1.000000	-1.000000	2012496.000000	1770065522.085626
-6322.275000	-7460.415000	340.425000	13167.495000	-4836.150000	-5624.730000	7572.870000	-4113.990000	-5.394665	-10.131757	-8.922253	-13.209536	-10.317703	-10.702567	-19.020991	-2.618772	-4.700080	2.960440	-1.098720	0.759031	0.621886	0.145080	-1.000000	-1.000000	-1.000000	-1.000000	-1.000000	-1.000000	-1.000000	73.724138	0.000000	-1.000000	-1.000000	2012497.000000	1770065522.085632
-6320.205000	-7464.645000	334.710000	13162.050000	-4838.940000	-5624.685000	7540.515000	-4093.065000	-17.610273	-23.125096	-23.051384	-25.896577	-22.343970	-19.647972	-18.503975	-11.140889	-4.700080	2.960440	-1.098720	0.759031	0.621886	0.145080	-1.000000	-1.000000	-1.000000	-1.000000	-1.000000	-1.000000	-1.000000	73.724138	0.000000	-1.000000	-1.000000	2012498.000000	1770065522.085637
-6324.255000	-7473.105000	326.970000	13157.775000	-4837.500000	-5600.520000	7496.910000	-4081.680000	-20.928486	-25.385453	-24.994503	-26.497640	-23.203229	-19.461339	-14.070154	-13.341181	-4.700080	2.960440	-1.098720	0.759031	0.621886	0.145080	-1.000000	-1.000000	-1.000000	-1.000000	-1.000000	-1.000000	-1.000000	73.724138	0.000000	-1.000000	-1.000000	2012499.000000	1770065522.085643
-6319.125000	-7467.930000	332.100000	13162.320000	-4833.135000	-5572.665000	7422.570000	-4104.495000	-19.777055	-22.023490	-21.001782	-20.189515	-17.533637	-13.014733	-11.061553	-11.641429	-4.700080	2.960440	-1.098720	0.759031	0.621886	0.145080	-1.000000	-1.000000	-1.000000	-1.000000	-1.000000	-1.000000	-1.000000	73.724138	0.000000	-1.000000	-1.000000	2012500.000000	1770065522.085648
-6306.570000	-7452.720000	340.065000	13175.010000	-4813.875000	-5550.120000	7441.425000	-4117.590000	-16.176453	-15.790028	-15.075949	-11.280133	-9.486497	-3.204837	-10.280927	-9.194920	-5.188400	3.052000	-1.083460	0.758238	0.621031	0.147705	-1.000000	-1.000000	-1.000000	-1.000000	-1.000000	-1.000000	-1.000000	73.724138	0.000000	-1.000000	-1.000000	2012501.000000	1770065522.085654
-6315.750000	-7451.685000	319.320000	13172.445000	-4794.165000	-5558.715000	7499.250000	-4125.240000	-9.357631	-6.742685	-7.763789	-1.525357	-0.600778	6.538337	-6.135818	-7.064167	-5.188400	3.052000	-1.083460	0.758238	0.621031	0.147705	-1.000000	-1.000000	-1.000000	-1.000000	-1.000000	-1.000000	-1.000000	73.724138	0.000000	-1.000000	-1.000000	2012502.000000	1770065522.085659
-6276.060000	-7417.305000	300.735000	13148.595000	-4766.580000	-5490.045000	7200.630000	-4103.685000	-0.105915	3.792611	-0.566807	6.823377	8.076663	12.697277	2.990558	-4.519056	-5.188400	3.052000	-1.083460	0.758238	0.621031	0.147705	-1.000000	-1.000000	-1.000000	-1.000000	-1.000000	-1.000000	-1.000000	73.724138	0.000000	-1.000000	-1.000000	2012503.000000	1770065522.085665
-6188.175000	-7363.215000	310.950000	13150.800000	-4749.795000	-5391.630000	7091.370000	-4033.305000	9.917784	13.156034	3.870565	10.369579	14.133486	15.036151	4.745513	-0.003802	-5.188400	3.052000	-1.083460	0.758238	0.621031	0.147705	-1.000000	-1.000000	-1.000000	-1.000000	-1.000000	-1.000000	-1.000000	73.724138	0.000000	-1.000000	-1.000000	2012504.000000	1770065522.085669
-6255.675000	-7439.265000	208.620000	13061.745000	-4822.560000	-5566.320000	7592.490000	-4026.645000	18.333575	17.757789	3.797671	6.879958	13.594797	12.981595	-1.507220	7.381393	-5.188400	3.052000	-1.083460	0.758238	0.621031	0.147705	-1.000000	-1.000000	-1.000000	-1.000000	-1.000000	-1.000000	-1.000000	73.724138	0.000000	-1.000000	-1.000000	2012505.000000	1770065522.085676
-6336.090000	-7521.660000	79.605000	12834.765000	-4892.985000	-5633.055000	7456.050000	-4103.370000	18.341583	12.232963	-2.582529	-5.601242	3.091166	0.602679	7.547162	13.486704	-5.188400	3.052000	-1.083460	0.758238	0.621031	0.147705	-1.000000	-1.000000	-1.000000	-1.000000	-1.000000	-1.000000	-1.000000	73.724138	0.000000	-1.000000	-1.000000	2012506.000000	1770065522.085680
-6223.365000	-7433.100000	180.810000	12823.875000	-4861.575000	-5429.115000	7247.790000	-4032.630000	6.116759	-3.307909	-12.840496	-25.917583	-14.209654	-19.748858	33.094807	11.559546	-5.188400	3.052000	-1.083460	0.758238	0.621031	0.147705	-1.000000	-1.000000	-1.000000	-1.000000	-1.000000	-1.000000	-1.000000	73.724138	0.000000	-1.000000	-1.000000	2012507.000000	1770065522.085687
-6247.080000	-7415.370000	316.890000	13030.200000	-4857.975000	-5526.855000	7453.845000	-4032.900000	-9.399579	-16.833883	-13.784014	-38.375826	-26.618063	-31.224733	46.929587	2.518592	-5.188400	3.052000	-1.083460	0.758238	0.621031	0.147705	-1.000000	-1.000000	-1.000000	-1.000000	-1.000000	-1.000000	-1.000000	73.724138	0.000000	-1.000000	-1.000000	2012508.000000	1770065522.085692
-6280.020000	-7446.105000	231.660000	13099.545000	-4822.155000	-5617.890000	7445.385000	-4098.150000	-17.284123	-17.046025	4.224750	-20.823714	-23.633832	-26.601354	38.906921	-6.566304	-5.188400	3.052000	-1.083460	0.758238	0.621031	0.147705	-1.000000	-1.000000	-1.000000	-1.000000	-1.000000	-1.000000	-1.000000	73.724138	0.000000	-1.000000	-1.000000	2012509.000000	1770065522.085698
-6232.950000	-7444.350000	118.035000	12998.880000	-4795.470000	-5449.095000	7113.510000	-4074.300000	-15.675431	-6.334240	27.786976	23.774051	-5.603602	-13.487887	14.619399	-11.480747	-5.188400	3.052000	-1.083460	0.758238	0.621031	0.147705	-1.000000	-1.000000	-1.000000	-1.000000	-1.000000	-1.000000	-1.000000	73.724138	0.000000	-1.000000	-1.000000	2012510.000000	1770065522.085702
-6261.975000	-7423.965000	255.195000	13054.680000	-4779.540000	-5450.400000	7143.885000	-4099.095000	-7.504822	5.922692	36.282560	63.835873	17.273665	4.490827	-24.337376	-11.266950	-2.182180	2.395820	-0.076300	0.761534	0.615782	0.151916	-1.000000	-1.000000	-1.000000	-1.000000	-1.000000	-1.000000	-1.000000	73.724138	0.000000	-1.000000	-1.000000	2012511.000000	1770065522.085708
-6314.040000	-7426.350000	361.980000	13142.655000	-4821.390000	-5626.755000	7655.850000	-4102.740000	0.779122	12.771508	29.507277	74.053256	31.418172	20.650186	-52.265043	-7.589108	-2.182180	2.395820	-0.076300	0.761534	0.615782	0.151916	-1.000000	-1.000000	-1.000000	-1.000000	-1.000000	-1.000000	-1.000000	73.724138	0.000000	-1.000000	-1.000000	2012512.000000	1770065522.085751
-6322.230000	-7479.945000	227.925000	13027.635000	-4846.320000	-5693.715000	7718.085000	-4068.540000	1.636762	10.873285	18.546892	53.072234	28.114824	19.309107	-30.727533	-3.915366	-2.182180	2.395820	-0.076300	0.761534	0.615782	0.151916	-1.000000	-1.000000	-1.000000	-1.000000	-1.000000	-1.000000	-1.000000	73.724138	0.000000	-1.000000	-1.000000	2012513.000000	1770065522.085759
-6327.270000	-7527.690000	-21.780000	12780.495000	-4861.215000	-5612.805000	7534.035000	-4121.550000	-2.944784	2.025033	2.911852	10.350617	11.063472	2.110651	22.340402	-1.128810	-2.182180	2.395820	-0.076300	0.761534	0.615782	0.151916	-1.000000	-1.000000	-1.000000	-1.000000	-1.000000	-1.000000	-1.000000	73.724138	0.000000	-1.000000	-1.000000	2012514.000000	1770065522.085764
-6267.240000	-7472.205000	-66.465000	12753.990000	-4882.410000	-5562.315000	7530.705000	-4060.080000	-2.677506	-6.172539	-22.899969	-39.202548	-7.021776	-8.232199	47.564160	2.681296	-2.182180	2.395820	-0.076300	0.761534	0.615782	0.151916	-1.000000	-1.000000	-1.000000	-1.000000	-1.000000	-1.000000	-1.000000	73.724138	0.000000	-1.000000	-1.000000	2012515.000000	1770065522.085770
-6286.725000	-7462.530000	-18.495000	12789.495000	-4900.950000	-5589.090000	7503.300000	-4038.075000	5.928315	-7.188770	-51.225855	-73.708977	-17.203114	-1.395635	24.838292	8.450996	-2.182180	2.395820	-0.076300	0.761534	0.615782	0.151916	-1.000000	-1.000000	-1.000000	-1.000000	-1.000000	-1.000000	-1.000000	73.724138	0.000000	-1.000000	-1.000000	2012516.000000	1770065522.085775
-6297.705000	-7502.985000	-93.960000	12450.960000	-4936.365000	-5535.495000	7150.230000	-4079.565000	15.471204	-2.301475	-64.888975	-82.940114	-19.387028	13.025375	-25.826976	13.809761	-2.182180	2.395820	-0.076300	0.761534	0.615782	0.151916	-1.000000	-1.000000	-1.000000	-1.000000	-1.000000	-1.000000	-1.000000	73.724138	0.000000	-1.000000	-1.000000	2012517.000000	1770065522.085782
-6264.315000	-7504.020000	-41.670000	12404.385000	-4921.470000	-5509.980000	6847.065000	-4075.875000	18.760930	2.816452	-51.348289	-76.539367	-16.948534	25.188960	-83.774610	15.106150	-2.182180	2.395820	-0.076300	0.761534	0.615782	0.151916	-1.000000	-1.000000	-1.000000	-1.000000	-1.000000	-1.000000	-1.000000	73.724138	0.000000	-1.000000	-1.000000	2012518.000000	1770065522.085787
-6318.450000	-7446.375000	117.495000	12867.525000	-4866.975000	-5670.765000	7153.560000	-4020.030000	14.288312	5.699324	-8.394752	-51.770160	-10.953945	25.505871	-117.428345	11.849873	-2.182180	2.395820	-0.076300	0.761534	0.615782	0.151916	-1.000000	-1.000000	-1.000000	-1.000000	-1.000000	-1.000000	-1.000000	73.724138	0.000000	-1.000000	-1.000000	2012519.000000	1770065522.085792
-6241.995000	-7335.495000	423.360000	13238.010000	-4802.355000	-5632.695000	7668.630000	-4030.785000	4.673409	8.871806	52.268324	13.515793	0.353578	6.384229	-82.368695	6.728920	-2.182180	2.395820	-0.076300	0.761534	0.615782	0.151916	-1.000000	-1.000000	-1.000000	-1.000000	-1.000000	-1.000000	-1.000000	73.724138	0.000000	-1.000000	-1.000000	2012520.000000	1770065522.085798
-6210.405000	-7368.120000	256.230000	13067.505000	-4903.650000	-5701.815000	7672.095000	-4117.680000	-3.141147	14.121271	102.402509	108.250535	15.063780	-20.911914	22.429629	-0.352258	9.064440	-32.778480	12.101180	0.757200	0.604674	0.165466	-1.000000	-1.000000	-1.000000	-1.000000	-1.000000	-1.000000	-1.000000	73.724138	0.000000	-1.000000	-1.000000	2012521.000000	1770065522.085804
-6304.140000	-7482.465000	178.920000	13065.930000	-4951.755000	-5706.270000	7374.780000	-4160.205000	-4.817710	16.301072	110.262609	172.955410	23.694131	-34.790895	125.188791	-12.545840	9.064440	-32.778480	12.101180	0.757200	0.604674	0.165466	-1.000000	-1.000000	-1.000000	-1.000000	-1.000000	-1.000000	-1.000000	73.724138	0.000000	-1.000000	-1.000000	2012522.000000	1770065522.085809
-6335.235000	-7515.225000	18.270000	12908.115000	-4952.520000	-5657.175000	7417.530000	-4123.665000	-5.514382	7.711664	67.212070	159.982509	19.069063	-27.356119	149.605859	-25.991284	9.064440	-32.778480	12.101180	0.757200	0.604674	0.165466	-1.000000	-1.000000	-1.000000	-1.000000	-1.000000	-1.000000	-1.000000	73.724138	0.000000	-1.000000	-1.000000	2012523.000000	1770065522.085814
-6312.465000	-7516.980000	-73.620000	12734.460000	-4888.350000	-5708.115000	7388.685000	-4084.875000	-11.296638	-11.574652	-7.363845	70.723794	6.310712	-8.175478	91.156530	-29.720931	9.064440	-32.778480	12.101180	0.757200	0.604674	0.165466	-1.000000	-1.000000	-1.000000	-1.000000	-1.000000	-1.000000	-1.000000	73.724138	0.000000	-1.000000	-1.000000	2012524.000000	1770065522.085819
-6287.220000	-7504.875000	-39.015000	12778.605000	-4799.610000	-5689.440000	7414.335000	-4088.880000	-18.400899	-31.030324	-81.943550	-54.876721	-2.072177	8.305861	3.124724	-18.529305	9.064440	-32.778480	12.101180	0.757200	0.604674	0.165466	-1.000000	-1.000000	-1.000000	-1.000000	-1.000000	-1.000000	-1.000000	73.724138	0.000000	-1.000000	-1.000000	2012525.000000	1770065522.085826
-6329.970000	-7532.640000	112.725000	13129.695000	-4783.230000	-5589.900000	7505.775000	-4131.135000	-18.278298	-37.096976	-120.458475	-148.029616	0.979878	16.538516	-55.067921	2.085157	9.064440	-32.778480	12.101180	0.757200	0.604674	0.165466	-1.000000	-1.000000	-1.000000	-1.000000	-1.000000	-1.000000	-1.000000	73.724138	0.000000	-1.000000	-1.000000	2012526.000000	1770065522.085830
-6354.135000	-7531.245000	244.530000	13094.955000	-4804.470000	-5607.270000	7431.390000	-4127.130000	-9.866642	-25.106468	-98.680513	-152.947532	8.819857	19.939875	-53.766787	20.587036	9.064440	-32.778480	12.101180	0.757200	0.604674	0.165466	-1.000000	-1.000000	-1.000000	-1.000000	-1.000000	-1.000000	-1.000000	73.724138	0.000000	-1.000000	-1.000000	2012527.000000	1770065522.085838
-6315.390000	-7451.145000	408.960000	12971.520000	-4872.555000	-5725.485000	7493.265000	-4132.665000	1.418982	-2.833040	-30.079405	-90.628661	6.705655	19.589427	-18.118175	26.964550	9.064440	-32.778480	12.101180	0.757200	0.604674	0.165466	-1.000000	-1.000000	-1.000000	-1.000000	-1.000000	-1.000000	-1.000000	73.724138	0.000000	-1.000000	-1.000000	2012528.000000	1770065522.085844
-6262.470000	-7419.960000	454.590000	13131.135000	-4878.495000	-5662.215000	7532.595000	-4141.125000	11.770841	18.065694	40.778380	-30.879627	-11.328685	12.998722	-3.818769	20.168280	9.064440	-32.778480	12.101180	0.757200	0.604674	0.165466	-1.000000	-1.000000	-1.000000	-1.000000	-1.000000	-1.000000	-1.000000	73.724138	0.000000	-1.000000	-1.000000	2012529.000000	1770065522.085850
-6314.625000	-7427.700000	482.940000	13304.295000	-4815.990000	-5707.305000	7339.005000	-4112.505000	18.761810	30.874480	78.347246	0.107359	-31.560224	2.848488	-33.019516	8.577224	9.064440	-32.778480	12.101180	0.757200	0.604674	0.165466	-1.000000	-1.000000	-1.000000	-1.000000	-1.000000	-1.000000	-1.000000	73.724138	0.000000	-1.000000	-1.000000	2012530.000000	1770065522.085855
-6292.890000	-7438.095000	346.500000	13158.945000	-4855.590000	-5650.425000	7276.995000	-4095.135000	20.633265	35.263792	77.605825	25.324371	-33.736670	-4.858505	-74.477054	1.967367	48.481020	-23.195200	13.596660	0.774717	0.599852	0.159423	-1.000000	-1.000000	-1.000000	-1.000000	-1.000000	-1.000000	-1.000000	73.724138	0.000000	-1.000000	-1.000000	2012531.000000	1770065522.085861
-6313.005000	-7500.420000	106.920000	12988.845000	-4864.950000	-5594.130000	7208.910000	-4104.180000	17.482541	30.969679	47.020381	53.346648	-15.458043	-7.919786	-84.759218	1.526922	48.481020	-23.195200	13.596660	0.774717	0.599852	0.159423	-1.000000	-1.000000	-1.000000	-1.000000	-1.000000	-1.000000	-1.000000	73.724138	0.000000	-1.000000	-1.000000	2012532.000000	1770065522.085865
-6282.405000	-7464.240000	110.205000	12952.755000	-4847.715000	-5600.880000	7318.800000	-4068.180000	9.412355	15.648664	-3.700981	66.099545	6.985218	-6.778860	-48.513687	0.523169	48.481020	-23.195200	13.596660	0.774717	0.599852	0.159423	-1.000000	-1.000000	-1.000000	-1.000000	-1.000000	-1.000000	-1.000000	73.724138	0.000000	-1.000000	-1.000000	2012533.000000	1770065522.085872
-6230.295000	-7405.200000	63.450000	12599.055000	-4881.195000	-5601.690000	7574.850000	-3994.200000	-1.183615	-5.826340	-55.898346	45.773463	17.613405	-4.381789	22.405272	-3.000493	48.481020	-23.195200	13.596660	0.774717	0.599852	0.159423	-1.000000	-1.000000	-1.000000	-1.000000	-1.000000	-1.000000	-1.000000	73.724138	0.000000	-1.000000	-1.000000	2012534.000000	1770065522.085876
-6271.920000	-7503.570000	-260.055000	12154.995000	-4964.985000	-5624.955000	7489.980000	-4004.100000	-8.680332	-22.204079	-91.235547	-15.994019	11.671046	-6.577393	101.146230	-3.671491	48.481020	-23.195200	13.596660	0.774717	0.599852	0.159423	-1.000000	-1.000000	-1.000000	-1.000000	-1.000000	-1.000000	-1.000000	73.724138	0.000000	-1.000000	-1.000000	2012535.000000	1770065522.085882
-6288.390000	-7546.185000	-622.800000	12081.060000	-5049.090000	-5647.680000	7594.695000	-4065.165000	-11.217046	-30.258294	-110.839657	-102.447329	-5.198783	-13.855654	148.447562	-1.583595	48.481020	-23.195200	13.596660	0.774717	0.599852	0.159423	-1.000000	-1.000000	-1.000000	-1.000000	-1.000000	-1.000000	-1.000000	73.724138	0.000000	-1.000000	-1.000000	2012536.000000	1770065522.085887
-6353.955000	-7706.295000	-823.590000	12427.290000	-4997.115000	-5684.265000	7628.625000	-4124.790000	-13.371637	-36.840874	-122.742002	-154.787134	-19.980910	-18.061502	131.550843	-4.445355	48.481020	-23.195200	13.596660	0.774717	0.599852	0.159423	-1.000000	-1.000000	-1.000000	-1.000000	-1.000000	-1.000000	-1.000000	73.724138	0.000000	-1.000000	-1.000000	2012537.000000	1770065522.085893
-6355.980000	-7647.165000	-352.575000	12735.810000	-4908.375000	-5655.555000	7572.960000	-4125.330000	-19.176427	-44.192148	-107.188469	-111.129379	-17.870764	-12.840263	52.608000	-14.602133	48.481020	-23.195200	13.596660	0.774717	0.599852	0.159423	-1.000000	-1.000000	-1.000000	-1.000000	-1.000000	-1.000000	-1.000000	73.724138	0.000000	-1.000000	-1.000000	2012538.000000	1770065522.085898
-6372.135000	-7611.030000	-125.370000	12903.660000	-4929.075000	-5667.750000	7580.790000	-4108.590000	-24.004825	-39.780851	-22.850323	27.474646	4.798032	-0.036281	-45.544319	-23.898637	48.481020	-23.195200	13.596660	0.774717	0.599852	0.159423	-1.000000	-1.000000	-1.000000	-1.000000	-1.000000	-1.000000	-1.000000	73.724138	0.000000	-1.000000	-1.000000	2012539.000000	1770065522.093847
-6339.330000	-7480.620000	326.205000	13084.785000	-4920.345000	-5717.160000	7513.965000	-4139.145000	-18.581516	-9.457280	134.282284	191.286379	33.878945	11.650047	-109.265251	-23.328205	48.481020	-23.195200	13.596660	0.774717	0.599852	0.159423	-1.000000	-1.000000	-1.000000	-1.000000	-1.000000	-1.000000	-1.000000	73.724138	0.000000	-1.000000	-1.000000	2012540.000000	1770065522.093861
-6287.985000	-7336.800000	670.365000	13230.630000	-4856.580000	-5745.690000	7597.350000	-4143.960000	-0.630700	42.645587	303.115925	295.492398	50.203931	12.342570	-114.150281	-12.612633	52.601220	-52.692780	46.161500	0.758482	0.647398	0.160034	-1.000000	-1.000000	-1.000000	-1.000000	-1.000000	-1.000000	-1.000000	73.724138	0.000000	-1.000000	-1.000000	2012541.000000	1770065522.093874
-6347.115000	-7425.540000	595.170000	13337.775000	-4838.040000	-5745.420000	7596.540000	-4108.365000	20.886245	90.027691	387.775740	288.806182	44.883034	2.097941	-74.322969	1.929754	52.601220	-52.692780	46.161500	0.758482	0.647398	0.160034	-1.000000	-1.000000	-1.000000	-1.000000	-1.000000	-1.000000	-1.000000	73.724138	0.000000	-1.000000	-1.000000	2012542.000000	1770065522.093880
-6330.105000	-7456.725000	425.880000	13206.735000	-4848.030000	-5710.095000	7507.935000	-4127.580000	32.067425	98.900359	313.508344	173.716089	21.817214	-8.281122	-24.481093	14.147801	52.601220	-52.692780	46.161500	0.758482	0.647398	0.160034	-1.000000	-1.000000	-1.000000	-1.000000	-1.000000	-1.000000	-1.000000	73.724138	0.000000	-1.000000	-1.000000	2012543.000000	1770065522.096548
-6289.020000	-7403.355000	307.575000	13053.285000	-4831.515000	-5684.310000	7482.600000	-4126.500000	28.034917	59.357556	90.752670	-1.522742	-6.425421	-8.080875	7.180416	20.691089	52.601220	-52.692780	46.161500	0.758482	0.647398	0.160034	-1.000000	-1.000000	-1.000000	-1.000000	-1.000000	-1.000000	-1.000000	73.724138	0.000000	-1.000000	-1.000000	2012544.000000	1770065522.096558
-6359.265000	-7462.125000	170.280000	12894.255000	-4841.145000	-5669.415000	7596.270000	-4113.900000	15.648792	-3.771034	-176.841231	-175.329461	-26.334563	5.486251	16.119314	22.251856	52.601220	-52.692780	46.161500	0.758482	0.647398	0.160034	-1.000000	-1.000000	-1.000000	-1.000000	-1.000000	-1.000000	-1.000000	73.724138	0.000000	-1.000000	-1.000000	2012545.000000	1770065522.223978
-6292.125000	-7519.230000	161.595000	12873.420000	-4872.780000	-5649.075000	7534.035000	-4118.130000	2.506255	-57.179599	-366.719510	-300.648949	-34.032124	24.809144	13.536216	21.787485	52.601220	-52.692780	46.161500	0.758482	0.647398	0.160034	-1.000000	-1.000000	-1.000000	-1.000000	-1.000000	-1.000000	-1.000000	73.724138	0.000000	-1.000000	-1.000000	2012546.000000	1770065522.223991
-6314.220000	-7556.265000	-81.855000	12738.330000	-4906.125000	-5645.070000	7546.680000	-4056.615000	-6.467181	-83.071057	-417.857328	-348.112541	-35.816214	36.281116	12.324046	19.863243	52.601220	-52.692780	46.161500	0.758482	0.647398	0.160034	-1.000000	-1.000000	-1.000000	-1.000000	-1.000000	-1.000000	-1.000000	73.724138	0.000000	-1.000000	-1.000000	2012547.000000	1770065522.224005
-6325.830000	-7521.120000	-287.325000	12361.230000	-4940.145000	-5672.205000	7531.920000	-4058.820000	-9.589481	-80.008484	-347.412578	-307.249059	-35.998120	30.352417	20.160797	14.736095	52.601220	-52.692780	46.161500	0.758482	0.647398	0.160034	-1.000000	-1.000000	-1.000000	-1.000000	-1.000000	-1.000000	-1.000000	73.724138	0.000000	-1.000000	-1.000000	2012548.000000	1770065522.224010
-6241.950000	-7463.205000	-221.670000	12162.915000	-4964.265000	-5661.495000	7402.725000	-4055.670000	-9.358172	-55.098761	-208.082567	-195.194206	-31.927055	8.533953	32.641934	5.373864	52.601220	-52.692780	46.161500	0.758482	0.647398	0.160034	-1.000000	-1.000000	-1.000000	-1.000000	-1.000000	-1.000000	-1.000000	73.724138	0.000000	-1.000000	-1.000000	2012549.000000	1770065522.224016
-6237.360000	-7467.570000	-21.735000	12676.770000	-4926.960000	-5625.630000	7234.155000	-4059.495000	-7.588853	-19.538429	-42.676674	-40.312900	-20.817108	-16.964259	32.394488	-7.428561	52.601220	-52.692780	46.161500	0.758482	0.647398	0.160034	-1.000000	-1.000000	-1.000000	-1.000000	-1.000000	-1.000000	-1.000000	73.724138	0.000000	-1.000000	-1.000000	2012550.000000	1770065522.224021
-6315.615000	-7578.270000	-183.735000	12845.385000	-4941.495000	-5682.195000	7539.435000	-4098.195000	-5.569650	13.931863	120.710962	137.379393	-3.272501	-33.262712	12.024445	-21.416482	-3.921820	-49.472920	28.429380	0.747129	0.677550	0.143493	-1.000000	-1.000000	-1.000000	-1.000000	-1.000000	-1.000000	-1.000000	73.724138	0.000000	-1.000000	-1.000000	2012551.000000	1770065522.224028
-6310.755000	-7488.135000	-162.630000	12544.155000	-4992.345000	-5713.020000	7575.660000	-4118.490000	-6.600096	36.184019	250.064381	298.817897	16.620613	-37.633442	-6.149865	-32.675383	-3.921820	-49.472920	28.429380	0.747129	0.677550	0.143493	-1.000000	-1.000000	-1.000000	-1.000000	-1.000000	-1.000000	-1.000000	73.724138	0.000000	-1.000000	-1.000000	2012552.000000	1770065522.224032
-6289.065000	-7416.180000	224.055000	12715.020000	-4935.015000	-5640.075000	7461.945000	-4060.665000	-10.289070	46.862124	317.706353	376.512007	32.568761	-32.570482	-2.809397	-34.692511	-3.921820	-49.472920	28.429380	0.747129	0.677550	0.143493	-1.000000	-1.000000	-1.000000	-1.000000	-1.000000	-1.000000	-1.000000	73.724138	0.000000	-1.000000	-1.000000	2012553.000000	1770065522.224038
-6292.215000	-7444.755000	311.445000	13273.695000	-4905.000000	-5689.125000	7263.675000	-4062.510000	-10.509749	50.458550	317.262183	336.969273	40.982193	-18.577121	4.219803	-22.265443	-3.921820	-49.472920	28.429380	0.747129	0.677550	0.143493	-1.000000	-1.000000	-1.000000	-1.000000	-1.000000	-1.000000	-1.000000	73.724138	0.000000	-1.000000	-1.000000	2012554.000000	1770065522.224043
-6239.790000	-7438.680000	73.170000	13071.150000	-4877.550000	-5613.795000	7257.150000	-4051.440000	-3.518954	47.206421	245.350213	208.315465	41.325950	1.055477	-8.716388	0.558599	-3.921820	-49.472920	28.429380	0.747129	0.677550	0.143493	-1.000000	-1.000000	-1.000000	-1.000000	-1.000000	-1.000000	-1.000000	73.724138	0.000000	-1.000000	-1.000000	2012555.000000	1770065522.224049
-6214.815000	-7535.250000	-466.065000	12423.105000	-4902.165000	-5508.315000	7243.335000	-4004.865000	8.532231	32.107328	95.521877	29.340565	33.066142	21.063742	-32.983436	21.511337	-3.921820	-49.472920	28.429380	0.747129	0.677550	0.143493	-1.000000	-1.000000	-1.000000	-1.000000	-1.000000	-1.000000	-1.000000	73.724138	0.000000	-1.000000	-1.000000	2012556.000000	1770065522.224054
-6269.580000	-7577.100000	-489.555000	12317.670000	-4976.190000	-5671.125000	7427.790000	-4038.525000	18.860234	1.391809	-104.698731	-163.096964	15.771739	35.552488	-39.663617	30.488025	-3.921820	-49.472920	28.429380	0.747129	0.677550	0.143493	-1.000000	-1.000000	-1.000000	-1.000000	-1.000000	-1.000000	-1.000000	73.724138	0.000000	-1.000000	-1.000000	2012557.000000	1770065522.224060
-6374.025000	-7579.440000	-84.465000	12718.350000	-4986.090000	-5838.705000	7759.980000	-4118.625000	16.460884	-38.657367	-273.727929	-301.164871	-8.946807	31.876017	-6.218128	23.994666	-3.921820	-49.472920	28.429380	0.747129	0.677550	0.143493	-1.000000	-1.000000	-1.000000	-1.000000	-1.000000	-1.000000	-1.000000	73.724138	0.000000	-1.000000	-1.000000	2012558.000000	1770065522.224064
-6354.900000	-7495.380000	235.305000	12972.465000	-4871.700000	-5726.070000	7659.630000	-4161.420000	-2.284135	-66.968122	-318.179320	-317.223914	-32.667123	4.695410	58.733371	4.384103	-3.921820	-49.472920	28.429380	0.747129	0.677550	0.143493	-1.000000	-1.000000	-1.000000	-1.000000	-1.000000	-1.000000	-1.000000	73.724138	0.000000	-1.000000	-1.000000	2012559.000000	1770065522.224070
-6385.230000	-7457.220000	609.660000	13214.700000	-4903.335000	-5804.100000	7578.990000	-4160.205000	-23.224756	-60.755401	-203.373712	-203.697812	-41.455040	-27.037394	103.446462	-17.955880	-3.921820	-49.472920	28.429380	0.747129	0.677550	0.143493	-1.000000	-1.000000	-1.000000	-1.000000	-1.000000	-1.000000	-1.000000	73.724138	0.000000	-1.000000	-1.000000	2012560.000000	1770065522.224074
-6389.055000	-7430.580000	710.145000	13246.335000	-4922.820000	-5785.650000	7485.840000	-4070.430000	-29.146646	-20.978790	9.809128	-15.422295	-30.322060	-39.566845	78.926440	-27.655253	7.858900	-2.777320	13.932380	0.806883	0.623961	0.114013	-1.000000	-1.000000	-1.000000	-1.000000	-1.000000	-1.000000	-1.000000	73.724138	0.000000	-1.000000	-1.000000	2012561.000000	1770065522.224080
-6344.820000	-7442.055000	291.870000	13206.150000	-4886.100000	-5732.190000	7542.450000	-4114.665000	-16.422567	25.181136	187.575700	152.573722	-9.457917	-27.065246	-3.133823	-17.565670	7.858900	-2.777320	13.932380	0.806883	0.623961	0.114013	-1.000000	-1.000000	-1.000000	-1.000000	-1.000000	-1.000000	-1.000000	73.724138	0.000000	-1.000000	-1.000000	2012562.000000	1770065522.224085
-6295.680000	-7423.695000	354.780000	13270.365000	-4857.210000	-5682.285000	7541.955000	-4159.485000	7.448838	51.190504	216.440743	208.322339	7.940286	1.893111	-82.434251	2.783165	7.858900	-2.777320	13.932380	0.806883	0.623961	0.114013	-1.000000	-1.000000	-1.000000	-1.000000	-1.000000	-1.000000	-1.000000	73.724138	0.000000	-1.000000	-1.000000	2012563.000000	1770065522.224110
-6309.540000	-7420.050000	420.525000	13044.870000	-4897.665000	-5684.490000	7383.105000	-4136.760000	29.678577	49.958051	106.526554	137.755487	15.345410	30.984344	-111.144318	17.029461	7.858900	-2.777320	13.932380	0.806883	0.623961	0.114013	-1.000000	-1.000000	-1.000000	-1.000000	-1.000000	-1.000000	-1.000000	73.724138	0.000000	-1.000000	-1.000000	2012564.000000	1770065522.224115
-6310.350000	-7411.815000	398.475000	13090.680000	-4906.755000	-5681.115000	7282.980000	-4092.120000	37.786390	30.319562	-29.091225	19.101841	13.032562	43.124498	-90.351805	18.356073	7.858900	-2.777320	13.932380	0.806883	0.623961	0.114013	-1.000000	-1.000000	-1.000000	-1.000000	-1.000000	-1.000000	-1.000000	73.724138	0.000000	-1.000000	-1.000000	2012565.000000	1770065522.224121
-6230.385000	-7360.020000	408.375000	13164.255000	-4831.470000	-5676.030000	7573.905000	-4073.490000	29.767570	6.019025	-101.082808	-58.664628	7.561556	35.562906	-47.573530	12.940988	7.858900	-2.777320	13.932380	0.806883	0.623961	0.114013	-1.000000	-1.000000	-1.000000	-1.000000	-1.000000	-1.000000	-1.000000	73.724138	0.000000	-1.000000	-1.000000	2012566.000000	1770065522.224126
-6214.185000	-7357.455000	386.145000	13105.755000	-4865.580000	-5690.880000	7550.190000	-4104.495000	15.624898	-13.124277	-109.505146	-76.624735	5.196495	19.716401	-1.767646	9.455884	7.858900	-2.777320	13.932380	0.806883	0.623961	0.114013	-1.000000	-1.000000	-1.000000	-1.000000	-1.000000	-1.000000	-1.000000	73.724138	0.000000	-1.000000	-1.000000	2012567.000000	1770065522.224132
-6213.105000	-7337.970000	367.245000	12936.330000	-4899.240000	-5671.305000	7502.760000	-4071.510000	4.428853	-24.120322	-96.549760	-75.639131	2.751422	3.675250	36.389860	9.647354	7.858900	-2.777320	13.932380	0.806883	0.623961	0.114013	-1.000000	-1.000000	-1.000000	-1.000000	-1.000000	-1.000000	-1.000000	73.724138	0.000000	-1.000000	-1.000000	2012568.000000	1770065522.224137
-6210.180000	-7374.960000	77.580000	12546.135000	-4946.580000	-5651.865000	7334.325000	-4068.135000	-3.741257	-28.791168	-88.583063	-88.923324	-5.258553	-10.611157	55.604562	9.313576	7.858900	-2.777320	13.932380	0.806883	0.623961	0.114013	-1.000000	-1.000000	-1.000000	-1.000000	-1.000000	-1.000000	-1.000000	73.724138	0.000000	-1.000000	-1.000000	2012569.000000	1770065522.224143
-6273.270000	-7514.280000	-349.965000	12261.645000	-4907.340000	-5654.565000	7523.505000	-4063.455000	-13.043729	-31.721398	-88.603104	-112.035930	-15.193880	-20.870753	53.219965	3.322147	7.858900	-2.777320	13.932380	0.806883	0.623961	0.114013	-1.000000	-1.000000	-1.000000	-1.000000	-1.000000	-1.000000	-1.000000	73.724138	0.000000	-1.000000	-1.000000	2012570.000000	1770065522.224148
-6366.330000	-7649.145000	-493.560000	12452.985000	-4919.895000	-5692.185000	7682.265000	-4075.065000	-27.062786	-36.787238	-81.135541	-115.460405	-19.156040	-27.215483	43.348504	-8.418156	30.397920	39.798080	-1.541260	0.785459	0.575194	0.083740	-1.000000	-1.000000	-1.000000	-1.000000	-1.000000	-1.000000	-1.000000	73.724138	0.000000	-1.000000	-1.000000	2012571.000000	1770065522.224153
-6313.005000	-7555.770000	-3.690000	12959.010000	-4916.610000	-5676.615000	7484.760000	-4062.870000	-43.397260	-39.404650	-34.684301	-58.399697	-14.305831	-31.487645	38.776063	-18.998830	30.397920	39.798080	-1.541260	0.785459	0.575194	0.083740	-1.000000	-1.000000	-1.000000	-1.000000	-1.000000	-1.000000	-1.000000	73.724138	0.000000	-1.000000	-1.000000	2012572.000000	1770065522.224158
-6192.450000	-7323.795000	540.855000	13159.485000	-4942.890000	-5752.170000	7455.330000	-4069.080000	-48.077240	-23.643758	76.703738	80.332363	-3.011245	-32.667084	32.682778	-22.521070	30.397920	39.798080	-1.541260	0.785459	0.575194	0.083740	-1.000000	-1.000000	-1.000000	-1.000000	-1.000000	-1.000000	-1.000000	73.724138	0.000000	-1.000000	-1.000000	2012573.000000	1770065522.224164
-6167.970000	-7287.435000	493.470000	12971.205000	-4942.980000	-5745.330000	7394.175000	-4086.585000	-27.568832	19.859860	227.611696	248.191478	9.911815	-27.341754	11.848273	-19.768032	30.397920	39.798080	-1.541260	0.785459	0.575194	0.083740	-1.000000	-1.000000	-1.000000	-1.000000	-1.000000	-1.000000	-1.000000	73.724138	0.000000	-1.000000	-1.000000	2012574.000000	1770065522.224168
-6301.260000	-7592.355000	-279.630000	12589.380000	-4923.945000	-5639.040000	7482.645000	-4097.340000	9.214793	67.399973	314.513044	324.535720	18.451383	-10.658214	-26.021680	-13.657519	30.397920	39.798080	-1.541260	0.785459	0.575194	0.083740	-1.000000	-1.000000	-1.000000	-1.000000	-1.000000	-1.000000	-1.000000	73.724138	0.000000	-1.000000	-1.000000	2012575.000000	1770065522.224174
-6311.610000	-7638.075000	-624.330000	12478.140000	-4933.575000	-5624.865000	7518.465000	-4059.045000	35.754888	76.070963	230.401325	227.915878	19.007389	17.816184	-64.629370	-4.422376	30.397920	39.798080	-1.541260	0.785459	0.575194	0.083740	-1.000000	-1.000000	-1.000000	-1.000000	-1.000000	-1.000000	-1.000000	73.724138	0.000000	-1.000000	-1.000000	2012576.000000	1770065522.224179
-6338.655000	-7699.545000	-704.340000	12463.425000	-4973.760000	-5668.965000	7658.055000	-4088.070000	36.858889	33.636819	-7.182310	8.391006	13.009521	45.296328	-73.627275	7.311334	30.397920	39.798080	-1.541260	0.785459	0.575194	0.083740	-1.000000	-1.000000	-1.000000	-1.000000	-1.000000	-1.000000	-1.000000	73.724138	0.000000	-1.000000	-1.000000	2012577.000000	1770065522.224185
-6346.350000	-7652.115000	-208.485000	12794.805000	-5073.795000	-5773.995000	7611.660000	-4135.635000	19.783718	-26.483685	-239.766844	-186.967362	3.233472	51.956863	-38.035206	15.529744	30.397920	39.798080	-1.541260	0.785459	0.575194	0.083740	-1.000000	-1.000000	-1.000000	-1.000000	-1.000000	-1.000000	-1.000000	73.724138	0.000000	-1.000000	-1.000000	2012578.000000	1770065522.224189
-6264.855000	-7521.975000	63.720000	12531.825000	-5005.305000	-5728.770000	7497.810000	-4048.830000	2.771704	-56.539441	-295.281171	-242.768773	-8.395162	30.268885	15.755599	15.264637	30.397920	39.798080	-1.541260	0.785459	0.575194	0.083740	-1.000000	-1.000000	-1.000000	-1.000000	-1.000000	-1.000000	-1.000000	73.724138	0.000000	-1.000000	-1.000000	2012579.000000	1770065522.224205
-6245.280000	-7418.520000	144.585000	12812.400000	-4898.970000	-5684.355000	7228.305000	-4078.170000	0.200751	-32.257372	-141.116283	-167.117169	-15.169406	-4.583317	39.949245	10.662213	30.397920	39.798080	-1.541260	0.785459	0.575194	0.083740	-1.000000	-1.000000	-1.000000	-1.000000	-1.000000	-1.000000	-1.000000	73.724138	0.000000	-1.000000	-1.000000	2012580.000000	1770065522.224210
-6234.255000	-7453.620000	86.580000	12858.075000	-4898.070000	-5677.290000	7461.540000	-4123.215000	9.731714	24.415799	83.865579	-49.019546	-8.455839	-28.452765	21.109520	6.357070	45.306940	6.775440	24.522820	0.731443	0.586790	0.098144	-1.000000	-1.000000	-1.000000	-1.000000	-1.000000	-1.000000	-1.000000	73.724138	0.000000	-1.000000	-1.000000	2012581.000000	1770065522.224216
-6236.325000	-7494.885000	-72.405000	12585.195000	-4953.240000	-5724.630000	7589.925000	-4124.745000	15.122745	61.210014	200.537374	34.184191	8.243646	-29.986190	-3.045651	0.779062	45.306940	6.775440	24.522820	0.731443	0.586790	0.098144	-1.000000	-1.000000	-1.000000	-1.000000	-1.000000	-1.000000	-1.000000	73.724138	0.000000	-1.000000	-1.000000	2012582.000000	1770065522.224221
-6225.570000	-7482.600000	108.855000	12832.785000	-4867.875000	-5656.905000	7474.635000	-4050.405000	6.527984	47.410862	149.683519	58.593298	20.728579	-14.959344	-0.039562	-4.845128	45.306940	6.775440	24.522820	0.731443	0.586790	0.098144	-1.000000	-1.000000	-1.000000	-1.000000	-1.000000	-1.000000	-1.000000	73.724138	0.000000	-1.000000	-1.000000	2012583.000000	1770065522.224226
-6273.315000	-7461.315000	407.520000	13224.150000	-4826.655000	-5717.385000	7572.915000	-4139.190000	-9.129657	3.009813	24.615418	57.805937	20.889091	2.332795	17.587154	-5.738050	45.306940	6.775440	24.522820	0.731443	0.586790	0.098144	-1.000000	-1.000000	-1.000000	-1.000000	-1.000000	-1.000000	-1.000000	73.724138	0.000000	-1.000000	-1.000000	2012584.000000	1770065522.224231
-6300.720000	-7460.190000	479.205000	13192.155000	-4910.895000	-5795.685000	7595.055000	-4134.195000	-20.101175	-31.732135	-47.664541	74.173237	10.696286	8.314177	24.912741	-3.468742	45.306940	6.775440	24.522820	0.731443	0.586790	0.098144	-1.000000	-1.000000	-1.000000	-1.000000	-1.000000	-1.000000	-1.000000	73.724138	0.000000	-1.000000	-1.000000	2012585.000000	1770065522.224237
-6268.230000	-7424.010000	468.045000	13168.395000	-4896.630000	-5775.165000	7549.380000	-4117.230000	-21.380738	-38.262000	-36.754955	96.510388	-4.394887	0.999369	15.394339	-2.226276	45.306940	6.775440	24.522820	0.731443	0.586790	0.098144	-1.000000	-1.000000	-1.000000	-1.000000	-1.000000	-1.000000	-1.000000	73.724138	0.000000	-1.000000	-1.000000	2012586.000000	1770065522.224242
-6285.465000	-7470.450000	376.605000	13134.330000	-4889.880000	-5758.605000	7514.505000	-4107.105000	-13.918003	-24.976736	-6.788503	80.828929	-16.854777	-7.428039	-4.711584	-1.035698	45.306940	6.775440	24.522820	0.731443	0.586790	0.098144	-1.000000	-1.000000	-1.000000	-1.000000	-1.000000	-1.000000	-1.000000	73.724138	0.000000	-1.000000	-1.000000	2012587.000000	1770065522.224248
-6248.520000	-7474.230000	335.475000	13119.615000	-4866.480000	-5716.530000	7470.270000	-3992.940000	-2.766079	-11.068959	-21.193598	13.157647	-21.756951	-5.680204	-22.943459	2.637143	45.306940	6.775440	24.522820	0.731443	0.586790	0.098144	-1.000000	-1.000000	-1.000000	-1.000000	-1.000000	-1.000000	-1.000000	73.724138	0.000000	-1.000000	-1.000000	2012588.000000	1770065522.224252
-6180.390000	-7439.940000	244.935000	13034.880000	-4837.230000	-5655.555000	7340.310000	-4076.010000	6.676786	-8.882778	-81.631964	-80.844048	-20.898298	5.249665	-27.554604	8.548724	45.306940	6.775440	24.522820	0.731443	0.586790	0.098144	-1.000000	-1.000000	-1.000000	-1.000000	-1.000000	-1.000000	-1.000000	73.724138	0.000000	-1.000000	-1.000000	2012589.000000	1770065522.224258
-6126.930000	-7386.840000	277.695000	13030.425000	-4850.100000	-5584.950000	7313.310000	-4065.480000	12.966828	-14.212911	-141.032346	-158.784845	-16.293296	18.724009	-21.525279	12.275677	45.306940	6.775440	24.522820	0.731443	0.586790	0.098144	-1.000000	-1.000000	-1.000000	-1.000000	-1.000000	-1.000000	-1.000000	73.724138	0.000000	-1.000000	-1.000000	2012590.000000	1770065522.224263
-6112.575000	-7399.215000	214.155000	13001.220000	-4845.330000	-5516.595000	7149.510000	-4058.640000	16.024509	-14.525334	-148.200009	-176.819624	-7.662637	29.719943	-19.406372	8.886051	-2.136400	0.350980	3.280900	0.745359	0.637755	0.087646	-1.000000	-1.000000	-1.000000	-1.000000	-1.000000	-1.000000	-1.000000	73.724138	0.000000	-1.000000	-1.000000	2012591.000000	1770065522.224269
-6205.140000	-7464.825000	59.085000	12886.830000	-4870.665000	-5740.380000	7495.065000	-4059.855000	13.789351	-4.515663	-89.411157	-122.950988	1.509556	29.363977	-21.241707	-0.944662	-2.136400	0.350980	3.280900	0.745359	0.637755	0.087646	-1.000000	-1.000000	-1.000000	-1.000000	-1.000000	-1.000000	-1.000000	73.724138	0.000000	-1.000000	-1.000000	2012592.000000	1770065522.224274
-6217.695000	-7537.680000	-157.095000	12639.330000	-4943.430000	-5747.940000	7652.610000	-4099.230000	4.568101	8.930460	-0.209546	-37.582906	4.725117	7.574806	-6.385871	-11.517626	-2.136400	0.350980	3.280900	0.745359	0.637755	0.087646	-1.000000	-1.000000	-1.000000	-1.000000	-1.000000	-1.000000	-1.000000	73.724138	0.000000	-1.000000	-1.000000	2012593.000000	1770065522.224279
-6184.665000	-7524.855000	-228.105000	12484.620000	-4925.295000	-5698.755000	7677.630000	-4082.895000	-7.808701	15.697328	69.507031	27.709766	1.961742	-26.542767	32.882942	-17.126336	-2.136400	0.350980	3.280900	0.745359	0.637755	0.087646	-1.000000	-1.000000	-1.000000	-1.000000	-1.000000	-1.000000	-1.000000	73.724138	0.000000	-1.000000	-1.000000	2012594.000000	1770065522.224284
-6167.700000	-7446.240000	-29.745000	12728.430000	-4933.305000	-5723.010000	7517.655000	-4086.045000	-15.356875	14.781183	100.701958	60.928051	0.819009	-47.728395	70.561243	-15.560508	-2.136400	0.350980	3.280900	0.745359	0.637755	0.087646	-1.000000	-1.000000	-1.000000	-1.000000	-1.000000	-1.000000	-1.000000	73.724138	0.000000	-1.000000	-1.000000	2012595.000000	1770065522.224290
-6237.045000	-7475.220000	317.070000	13109.085000	-4923.585000	-5778.720000	7548.660000	-4152.240000	-15.019417	13.138279	112.871310	89.695891	5.395883	-44.111630	73.833775	-10.181264	-2.136400	0.350980	3.280900	0.745359	0.637755	0.087646	-1.000000	-1.000000	-1.000000	-1.000000	-1.000000	-1.000000	-1.000000	73.724138	0.000000	-1.000000	-1.000000	2012596.000000	1770065522.224294
-6293.790000	-7531.515000	334.980000	13077.405000	-4985.325000	-5791.455000	7453.620000	-4151.340000	-12.761682	12.169612	127.912862	132.808088	10.359636	-25.455509	38.589005	-7.424977	-2.136400	0.350980	3.280900	0.745359	0.637755	0.087646	-1.000000	-1.000000	-1.000000	-1.000000	-1.000000	-1.000000	-1.000000	73.724138	0.000000	-1.000000	-1.000000	2012597.000000	1770065522.224300
-6218.415000	-7401.600000	316.980000	13169.385000	-4900.590000	-5701.275000	7420.680000	-4090.050000	-14.262144	7.439892	134.289150	164.719059	9.669953	-5.149586	-12.176862	-6.117687	-2.136400	0.350980	3.280900	0.745359	0.637755	0.087646	-1.000000	-1.000000	-1.000000	-1.000000	-1.000000	-1.000000	-1.000000	73.724138	0.000000	-1.000000	-1.000000	2012598.000000	1770065522.224304
-6168.330000	-7407.045000	217.035000	12964.860000	-4908.645000	-5657.715000	7524.900000	-4068.540000	-14.942500	0.470285	101.680885	145.210934	6.249871	12.299897	-51.228333	2.005659	-2.136400	0.350980	3.280900	0.745359	0.637755	0.087646	-1.000000	-1.000000	-1.000000	-1.000000	-1.000000	-1.000000	-1.000000	73.724138	0.000000	-1.000000	-1.000000	2012599.000000	1770065522.224311
-6115.680000	-7415.415000	216.315000	12924.270000	-4891.725000	-5645.025000	7279.335000	-4054.590000	-5.342615	-3.104140	24.116511	63.547236	5.611176	26.960186	-64.362700	17.053030	-2.136400	0.350980	3.280900	0.745359	0.637755	0.087646	-1.000000	-1.000000	-1.000000	-1.000000	-1.000000	-1.000000	-1.000000	73.724138	0.000000	-1.000000	-1.000000	2012600.000000	1770065522.224316
-6164.325000	-7435.755000	215.820000	13007.205000	-4894.065000	-5675.445000	7524.405000	-4108.005000	16.028062	-1.372239	-65.579358	-48.667630	7.345510	38.076736	-59.139829	28.689144	-21.455560	6.393940	-2.197440	0.777525	0.626280	0.086487	-1.000000	-1.000000	-1.000000	-1.000000	-1.000000	-1.000000	-1.000000	73.724138	0.000000	-1.000000	-1.000000	2012601.000000	1770065522.224321
-6188.580000	-7499.070000	73.980000	12899.745000	-4896.540000	-5705.190000	7642.350000	-4113.135000	37.194078	2.663990	-123.703825	-133.869841	8.978568	41.917284	-45.633868	27.717228	-21.455560	6.393940	-2.197440	0.777525	0.626280	0.086487	-1.000000	-1.000000	-1.000000	-1.000000	-1.000000	-1.000000	-1.000000	73.724138	0.000000	-1.000000	-1.000000	2012602.000000	1770065522.224326
-6143.220000	-7549.740000	-342.855000	12611.880000	-4910.175000	-5603.355000	7457.670000	-4031.685000	42.204733	1.719873	-137.696989	-157.360828	8.516789	33.304148	-21.791208	14.747723	-21.455560	6.393940	-2.197440	0.777525	0.626280	0.086487	-1.000000	-1.000000	-1.000000	-1.000000	-1.000000	-1.000000	-1.000000	73.724138	0.000000	-1.000000	-1.000000	2012603.000000	1770065522.224331
-6160.230000	-7601.805000	-618.750000	12323.610000	-4970.115000	-5598.675000	7496.910000	-4008.915000	27.114890	-9.509532	-134.214041	-139.611451	2.708600	14.589512	9.633011	-0.343625	-21.455560	6.393940	-2.197440	0.777525	0.626280	0.086487	-1.000000	-1.000000	-1.000000	-1.000000	-1.000000	-1.000000	-1.000000	73.724138	0.000000	-1.000000	-1.000000	2012604.000000	1770065522.224336
-6152.220000	-7533.630000	-477.585000	12310.380000	-4963.455000	-5632.965000	7606.575000	-4019.715000	2.332874	-24.268274	-132.773384	-118.886215	-9.344257	-5.673622	39.925762	-8.835540	-21.455560	6.393940	-2.197440	0.777525	0.626280	0.086487	-1.000000	-1.000000	-1.000000	-1.000000	-1.000000	-1.000000	-1.000000	73.724138	0.000000	-1.000000	-1.000000	2012605.000000	1770065522.224342
-6197.445000	-7571.295000	-298.665000	12315.600000	-5038.695000	-5765.130000	7680.015000	-4070.205000	-19.279107	-28.209373	-107.548607	-96.378995	-22.741734	-24.804527	65.020994	-11.584219	-21.455560	6.393940	-2.197440	0.777525	0.626280	0.086487	-1.000000	-1.000000	-1.000000	-1.000000	-1.000000	-1.000000	-1.000000	73.724138	0.000000	-1.000000	-1.000000	2012606.000000	1770065522.224346
-6200.235000	-7572.195000	-80.460000	12562.920000	-4996.845000	-5742.990000	7584.120000	-4083.210000	-32.801393	-17.769566	-21.967997	-41.502644	-30.585202	-44.835695	76.524758	-15.037430	-21.455560	6.393940	-2.197440	0.777525	0.626280	0.086487	-1.000000	-1.000000	-1.000000	-1.000000	-1.000000	-1.000000	-1.000000	73.724138	0.000000	-1.000000	-1.000000	2012607.000000	1770065522.228525
-6231.375000	-7562.025000	-282.870000	12764.610000	-4862.565000	-5729.355000	7590.735000	-4088.295000	-39.148226	-1.416366	109.145251	62.300541	-25.757080	-59.620271	60.670796	-21.567237	-21.455560	6.393940	-2.197440	0.777525	0.626280	0.086487	-1.000000	-1.000000	-1.000000	-1.000000	-1.000000	-1.000000	-1.000000	73.724138	0.000000	-1.000000	-1.000000	2012608.000000	1770065522.228536
-6238.800000	-7502.355000	343.440000	13158.990000	-4867.920000	-5790.960000	7508.970000	-4121.010000	-37.074805	15.335108	223.734642	188.904196	-4.440539	-55.649236	16.573832	-26.096831	-21.455560	6.393940	-2.197440	0.777525	0.626280	0.086487	-1.000000	-1.000000	-1.000000	-1.000000	-1.000000	-1.000000	-1.000000	73.724138	0.000000	-1.000000	-1.000000	2012609.000000	1770065522.228547
-6183.945000	-7396.695000	674.595000	13315.185000	-4869.585000	-5739.480000	7523.370000	-4093.020000	-22.088359	32.944886	276.556285	280.071449	24.370235	-27.049969	-42.145020	-21.145106	-21.455560	6.393940	-2.197440	0.777525	0.626280	0.086487	-1.000000	-1.000000	-1.000000	-1.000000	-1.000000	-1.000000	-1.000000	73.724138	0.000000	-1.000000	-1.000000	2012610.000000	1770065522.228552
-6208.020000	-7445.970000	495.180000	13202.460000	-4901.130000	-5743.530000	7533.540000	-4092.615000	5.157395	48.631505	256.296268	281.710805	42.649863	16.328211	-93.138551	-4.927303	12.803140	4.761120	-2.166920	0.783323	0.560851	0.097961	-1.000000	-1.000000	-1.000000	-1.000000	-1.000000	-1.000000	-1.000000	73.724138	0.000000	-1.000000	-1.000000	2012611.000000	1770065522.231050
-6196.545000	-7447.995000	365.445000	13099.635000	-4885.560000	-5704.290000	7435.710000	-4101.255000	32.266818	51.548283	159.382446	176.835963	39.388642	53.479857	-107.676317	14.148031	12.803140	4.761120	-2.166920	0.783323	0.560851	0.097961	-1.000000	-1.000000	-1.000000	-1.000000	-1.000000	-1.000000	-1.000000	73.724138	0.000000	-1.000000	-1.000000	2012612.000000	1770065522.231061
-6164.505000	-7440.975000	319.770000	13058.145000	-4888.935000	-5698.485000	7533.405000	-4069.215000	45.125315	33.025104	0.177413	-0.349960	18.635685	67.101252	-73.182029	25.042430	12.803140	4.761120	-2.166920	0.783323	0.560851	0.097961	-1.000000	-1.000000	-1.000000	-1.000000	-1.000000	-1.000000	-1.000000	73.724138	0.000000	-1.000000	-1.000000	2012613.000000	1770065522.237784
-6162.480000	-7455.960000	288.900000	13081.005000	-4888.305000	-5684.670000	7534.800000	-4129.605000	40.652450	-2.235660	-174.284407	-178.604359	-6.326509	56.001397	-7.970542	24.570751	12.803140	4.761120	-2.166920	0.783323	0.560851	0.097961	-1.000000	-1.000000	-1.000000	-1.000000	-1.000000	-1.000000	-1.000000	73.724138	0.000000	-1.000000	-1.000000	2012614.000000	1770065522.237792
-6177.330000	-7462.305000	261.315000	13040.685000	-4899.375000	-5656.725000	7374.285000	-4151.700000	23.951589	-39.504198	-302.775560	-288.285540	-23.740067	31.512078	52.237696	15.838939	12.803140	4.761120	-2.166920	0.783323	0.560851	0.097961	-1.000000	-1.000000	-1.000000	-1.000000	-1.000000	-1.000000	-1.000000	73.724138	0.000000	-1.000000	-1.000000	2012615.000000	1770065522.239214
-6168.645000	-7451.550000	253.395000	13040.955000	-4868.640000	-5687.595000	7547.805000	-4130.505000	1.742009	-62.759389	-335.802004	-297.266839	-29.811873	4.561612	79.955064	3.762695	12.803140	4.761120	-2.166920	0.783323	0.560851	0.097961	-1.000000	-1.000000	-1.000000	-1.000000	-1.000000	-1.000000	-1.000000	73.724138	0.000000	-1.000000	-1.000000	2012616.000000	1770065522.239223
-6208.110000	-7500.690000	186.480000	12972.825000	-4917.330000	-5742.720000	7622.235000	-4100.760000	-18.606460	-62.952172	-259.683223	-220.718368	-28.605020	-20.367495	76.731809	-5.168570	12.803140	4.761120	-2.166920	0.783323	0.560851	0.097961	-1.000000	-1.000000	-1.000000	-1.000000	-1.000000	-1.000000	-1.000000	73.724138	0.000000	-1.000000	-1.000000	2012617.000000	1770065522.243284
-6172.695000	-7487.235000	193.545000	12981.285000	-4902.165000	-5713.380000	7614.765000	-4000.365000	-30.216241	-43.596930	-115.253573	-104.598257	-24.654412	-38.771247	58.737681	-4.683357	12.803140	4.761120	-2.166920	0.783323	0.560851	0.097961	-1.000000	-1.000000	-1.000000	-1.000000	-1.000000	-1.000000	-1.000000	73.724138	0.000000	-1.000000	-1.000000	2012618.000000	1770065522.243295
-6111.900000	-7433.505000	248.400000	13044.690000	-4850.145000	-5665.680000	7616.880000	-4070.655000	-28.793024	-15.073515	29.655645	8.738928	-15.792397	-43.177287	31.188810	4.596136	12.803140	4.761120	-2.166920	0.783323	0.560851	0.097961	-1.000000	-1.000000	-1.000000	-1.000000	-1.000000	-1.000000	-1.000000	73.724138	0.000000	-1.000000	-1.000000	2012619.000000	1770065522.316717
-6132.060000	-7452.495000	220.725000	13014.855000	-4875.210000	-5686.065000	7572.645000	-4085.190000	-15.416302	14.534299	137.143990	102.790070	1.250782	-31.898130	-3.835008	11.380455	12.803140	4.761120	-2.166920	0.783323	0.560851	0.097961	-1.000000	-1.000000	-1.000000	-1.000000	-1.000000	-1.000000	-1.000000	73.724138	0.000000	-1.000000	-1.000000	2012620.000000	1770065522.316730
-6145.200000	-7455.465000	218.160000	13012.785000	-4872.150000	-5666.355000	7499.025000	-4107.240000	1.286365	38.114389	202.177101	171.011037	20.944202	-13.097000	-36.235602	5.097996	12.711580	11.246620	-5.325740	0.783750	0.571898	0.093445	-1.000000	-1.000000	-1.000000	-1.000000	-1.000000	-1.000000	-1.000000	73.724138	0.000000	-1.000000	-1.000000	2012621.000000	1770065522.316744
-6109.605000	-7426.395000	246.555000	13045.635000	-4828.590000	-5637.780000	7567.920000	-4089.780000	11.232335	47.983788	219.204789	198.798271	33.154251	3.866696	-56.393497	-11.135372	12.711580	11.246620	-5.325740	0.783750	0.571898	0.093445	-1.000000	-1.000000	-1.000000	-1.000000	-1.000000	-1.000000	-1.000000	73.724138	0.000000	-1.000000	-1.000000	2012622.000000	1770065522.316749
-6106.320000	-7431.390000	236.520000	13030.380000	-4860.315000	-5689.665000	7579.665000	-4090.230000	11.944706	41.618675	180.616579	173.504825	32.999150	14.481063	-57.721544	-23.764483	12.711580	11.246620	-5.325740	0.783750	0.571898	0.093445	-1.000000	-1.000000	-1.000000	-1.000000	-1.000000	-1.000000	-1.000000	73.724138	0.000000	-1.000000	-1.000000	2012623.000000	1770065522.316755
-6121.170000	-7440.705000	231.615000	13031.955000	-4848.840000	-5663.700000	7557.885000	-4106.565000	7.183994	23.227024	95.416973	100.523116	21.191907	16.665907	-37.403863	-22.642169	12.711580	11.246620	-5.325740	0.783750	0.571898	0.093445	-1.000000	-1.000000	-1.000000	-1.000000	-1.000000	-1.000000	-1.000000	73.724138	0.000000	-1.000000	-1.000000	2012624.000000	1770065522.316760
-6161.940000	-7483.410000	197.280000	12995.460000	-4879.620000	-5683.815000	7579.980000	-4157.955000	0.409699	0.038325	-5.816914	5.303159	1.407328	11.823097	-6.053782	-10.918601	12.711580	11.246620	-5.325740	0.783750	0.571898	0.093445	-1.000000	-1.000000	-1.000000	-1.000000	-1.000000	-1.000000	-1.000000	73.724138	0.000000	-1.000000	-1.000000	2012625.000000	1770065522.316767
-6147.225000	-7478.010000	199.215000	12990.420000	-4900.455000	-5689.980000	7609.860000	-4117.275000	-5.800686	-19.926537	-87.353817	-78.878757	-19.238782	5.710953	17.842223	0.481229	12.711580	11.246620	-5.325740	0.783750	0.571898	0.093445	-1.000000	-1.000000	-1.000000	-1.000000	-1.000000	-1.000000	-1.000000	73.724138	0.000000	-1.000000	-1.000000	2012626.000000	1770065522.316771
-6117.570000	-7448.940000	227.295000	13026.195000	-4866.390000	-5679.675000	7605.900000	-4054.680000	-8.603074	-29.945291	-128.416439	-125.685271	-31.587155	2.109707	25.276158	6.411977	12.711580	11.246620	-5.325740	0.783750	0.571898	0.093445	-1.000000	-1.000000	-1.000000	-1.000000	-1.000000	-1.000000	-1.000000	73.724138	0.000000	-1.000000	-1.000000	2012627.000000	1770065522.316777
-6131.880000	-7470.495000	200.790000	12997.980000	-4892.355000	-5694.030000	7575.795000	-4055.355000	-7.221163	-27.833877	-124.286837	-123.480007	-30.074607	-0.408407	19.679894	10.470621	12.711580	11.246620	-5.325740	0.783750	0.571898	0.093445	-1.000000	-1.000000	-1.000000	-1.000000	-1.000000	-1.000000	-1.000000	73.724138	0.000000	-1.000000	-1.000000	2012628.000000	1770065522.316782
-6135.795000	-7476.705000	198.720000	12984.750000	-4906.395000	-5707.395000	7553.385000	-4041.495000	-3.317471	-16.618174	-80.951516	-78.633240	-16.873399	-4.043213	10.185582	15.837839	12.711580	11.246620	-5.325740	0.783750	0.571898	0.093445	-1.000000	-1.000000	-1.000000	-1.000000	-1.000000	-1.000000	-1.000000	73.724138	0.000000	-1.000000	-1.000000	2012629.000000	1770065522.316787
-6135.795000	-7472.925000	210.510000	13007.970000	-4870.980000	-5683.590000	7584.930000	-4076.280000	1.212330	-2.151603	-17.328474	-13.771682	0.761570	-7.883451	4.597940	19.097978	12.711580	11.246620	-5.325740	0.783750	0.571898	0.093445	-1.000000	-1.000000	-1.000000	-1.000000	-1.000000	-1.000000	-1.000000	73.724138	0.000000	-1.000000	-1.000000	2012630.000000	1770065522.316792
-6138.540000	-7473.870000	216.180000	13018.455000	-4856.220000	-5656.095000	7585.380000	-4108.365000	4.475227	9.494185	38.893613	42.487729	15.880138	-8.290437	3.721330	14.367819	-3.876040	27.284880	-17.396400	0.806516	0.597716	0.086792	-1.000000	-1.000000	-1.000000	-1.000000	-1.000000	-1.000000	-1.000000	73.724138	0.000000	-1.000000	-1.000000	2012631.000000	1770065522.316798
-6116.130000	-7456.950000	229.275000	13026.735000	-4856.715000	-5661.630000	7576.560000	-4089.780000	5.536092	14.903656	66.276846	69.550255	24.207336	-2.611872	3.935230	1.473481	-3.876040	27.284880	-17.396400	0.806516	0.597716	0.086792	-1.000000	-1.000000	-1.000000	-1.000000	-1.000000	-1.000000	-1.000000	73.724138	0.000000	-1.000000	-1.000000	2012632.000000	1770065522.316803
-6107.265000	-7447.770000	236.835000	13032.900000	-4852.755000	-5658.300000	7579.395000	-4102.200000	6.101947	15.054321	61.339673	63.453470	23.734856	6.464232	2.633594	-11.937617	-3.876040	27.284880	-17.396400	0.806516	0.597716	0.086792	-1.000000	-1.000000	-1.000000	-1.000000	-1.000000	-1.000000	-1.000000	73.724138	0.000000	-1.000000	-1.000000	2012633.000000	1770065522.316808
-6120.900000	-7459.020000	228.285000	13026.780000	-4856.130000	-5654.475000	7583.535000	-4120.335000	7.973314	12.955426	36.037662	35.055014	15.441470	13.238334	-1.537152	-18.095457	-3.876040	27.284880	-17.396400	0.806516	0.597716	0.086792	-1.000000	-1.000000	-1.000000	-1.000000	-1.000000	-1.000000	-1.000000	73.724138	0.000000	-1.000000	-1.000000	2012634.000000	1770065522.316813
-6133.770000	-7459.110000	234.270000	13034.835000	-4852.530000	-5659.425000	7577.235000	-4150.305000	8.906661	9.320632	5.053637	0.724013	3.684773	14.255911	-8.240551	-17.226581	-3.876040	27.284880	-17.396400	0.806516	0.597716	0.086792	-1.000000	-1.000000	-1.000000	-1.000000	-1.000000	-1.000000	-1.000000	73.724138	0.000000	-1.000000	-1.000000	2012635.000000	1770065522.316819
-6139.530000	-7475.580000	215.595000	13016.205000	-4872.960000	-5676.525000	7563.600000	-4104.630000	4.495603	2.435876	-21.067855	-26.003758	-7.366162	8.432982	-14.039943	-14.051458	-3.876040	27.284880	-17.396400	0.806516	0.597716	0.086792	-1.000000	-1.000000	-1.000000	-1.000000	-1.000000	-1.000000	-1.000000	73.724138	0.000000	-1.000000	-1.000000	2012636.000000	1770065522.316823
-6127.875000	-7476.840000	211.680000	13014.540000	-4869.450000	-5671.440000	7578.585000	-4087.440000	-4.661458	-6.849542	-34.027059	-36.758714	-15.050732	-2.318966	-13.597080	-8.709381	-3.876040	27.284880	-17.396400	0.806516	0.597716	0.086792	-1.000000	-1.000000	-1.000000	-1.000000	-1.000000	-1.000000	-1.000000	73.724138	0.000000	-1.000000	-1.000000	2012637.000000	1770065522.316830
-6110.280000	-7457.895000	228.555000	13026.195000	-4857.120000	-5659.065000	7586.685000	-4103.370000	-11.766360	-13.432254	-29.673259	-29.449061	-16.695684	-12.158255	-4.102547	0.937536	-3.876040	27.284880	-17.396400	0.806516	0.597716	0.086792	-1.000000	-1.000000	-1.000000	-1.000000	-1.000000	-1.000000	-1.000000	73.724138	0.000000	-1.000000	-1.000000	2012638.000000	1770065522.316835
-6103.305000	-7449.255000	237.600000	13035.645000	-4846.770000	-5659.605000	7584.075000	-4085.865000	-11.413005	-13.083975	-12.686433	-10.581511	-12.089992	-16.017198	9.367197	12.605037	-3.876040	27.284880	-17.396400	0.806516	0.597716	0.086792	-1.000000	-1.000000	-1.000000	-1.000000	-1.000000	-1.000000	-1.000000	73.724138	0.000000	-1.000000	-1.000000	2012639.000000	1770065522.316841
-6097.905000	-7433.820000	255.375000	13053.960000	-4829.940000	-5653.305000	7594.110000	-4082.535000	-4.742071	-6.518649	6.032182	8.158004	-4.413198	-13.325110	17.512656	21.526564	-3.876040	27.284880	-17.396400	0.806516	0.597716	0.086792	-1.000000	-1.000000	-1.000000	-1.000000	-1.000000	-1.000000	-1.000000	73.724138	0.000000	-1.000000	-1.000000	2012640.000000	1770065522.316846
-6051.375000	-7391.610000	302.985000	13089.330000	-4808.880000	-5643.630000	7596.270000	-4076.865000	3.504373	2.385204	17.658991	18.395285	3.238509	-6.193809	16.414137	23.648854	-7.507920	22.737400	-14.344400	0.797117	0.592223	0.097412	-1.000000	-1.000000	-1.000000	-1.000000	-1.000000	-1.000000	-1.000000	73.724138	0.000000	-1.000000	-1.000000	2012641.000000	1770065522.316852
-5959.980000	-7311.330000	392.580000	13148.505000	-4750.470000	-5576.040000	7640.595000	-3937.680000	10.998848	10.982489	21.243401	19.504874	9.665660	3.403465	8.856348	19.269151	-7.507920	22.737400	-14.344400	0.797117	0.592223	0.097412	-1.000000	-1.000000	-1.000000	-1.000000	-1.000000	-1.000000	-1.000000	73.724138	0.000000	-1.000000	-1.000000	2012642.000000	1770065522.316856
-5913.900000	-7247.790000	427.275000	13208.895000	-4682.520000	-5493.780000	7687.575000	-3937.860000	18.338620	18.848142	20.627981	16.075690	15.360954	14.700620	0.420651	13.883857	-7.507920	22.737400	-14.344400	0.797117	0.592223	0.097412	-1.000000	-1.000000	-1.000000	-1.000000	-1.000000	-1.000000	-1.000000	73.724138	0.000000	-1.000000	-1.000000	2012643.000000	1770065522.316863
-5923.935000	-7225.740000	416.295000	13252.455000	-4630.500000	-5442.165000	7687.845000	-3981.015000	22.761331	23.670696	16.405749	12.122045	20.226118	25.753136	-4.127870	8.199709	-7.507920	22.737400	-14.344400	0.797117	0.592223	0.097412	-1.000000	-1.000000	-1.000000	-1.000000	-1.000000	-1.000000	-1.000000	73.724138	0.000000	-1.000000	-1.000000	2012644.000000	1770065522.316867
-5900.535000	-7211.070000	483.975000	13288.365000	-4603.140000	-5401.215000	7696.890000	-3967.020000	17.972286	20.602230	7.326117	8.591506	21.524008	31.314030	-4.179945	-3.689386	-7.507920	22.737400	-14.344400	0.797117	0.592223	0.097412	-1.000000	-1.000000	-1.000000	-1.000000	-1.000000	-1.000000	-1.000000	73.724138	0.000000	-1.000000	-1.000000	2012645.000000	1770065522.316873
-5943.870000	-7306.380000	425.070000	13195.485000	-4695.480000	-5478.615000	7658.010000	-3959.865000	1.989425	6.367713	-4.347514	3.236788	14.448646	24.712672	-3.076855	-21.385504	-7.507920	22.737400	-14.344400	0.797117	0.592223	0.097412	-1.000000	-1.000000	-1.000000	-1.000000	-1.000000	-1.000000	-1.000000	73.724138	0.000000	-1.000000	-1.000000	2012646.000000	1770065522.316878
-6200.865000	-7585.470000	132.030000	12906.720000	-4975.920000	-5738.715000	7562.205000	-4141.800000	-23.308965	-21.157276	-20.134285	-11.985496	-8.053146	-0.633081	-6.169333	-37.329935	-7.507920	22.737400	-14.344400	0.797117	0.592223	0.097412	-1.000000	-1.000000	-1.000000	-1.000000	-1.000000	-1.000000	-1.000000	73.724138	0.000000	-1.000000	-1.000000	2012647.000000	1770065522.316883
-6243.480000	-7651.350000	42.705000	12812.760000	-5058.630000	-5829.480000	7473.825000	-4166.055000	-53.840291	-58.951708	-45.597216	-43.123011	-47.325163	-43.983919	-17.042501	-46.676124	-7.507920	22.737400	-14.344400	0.797117	0.592223	0.097412	-1.000000	-1.000000	-1.000000	-1.000000	-1.000000	-1.000000	-1.000000	73.724138	0.000000	-1.000000	-1.000000	2012648.000000	1770065522.316888
-6185.790000	-7545.645000	139.005000	12871.305000	-4992.705000	-5760.720000	7512.930000	-4140.990000	-74.260069	-86.605377	-70.380531	-75.378059	-83.501293	-84.084589	-30.338786	-45.032719	-7.507920	22.737400	-14.344400	0.797117	0.592223	0.097412	-1.000000	-1.000000	-1.000000	-1.000000	-1.000000	-1.000000	-1.000000	73.724138	0.000000	-1.000000	-1.000000	2012649.000000	1770065522.316893
-6126.120000	-7463.205000	241.020000	12995.145000	-4887.180000	-5655.870000	7578.135000	-4072.140000	-63.612342	-75.627809	-67.662057	-77.410335	-83.758116	-87.683634	-32.113458	-26.498049	-7.507920	22.737400	-14.344400	0.797117	0.592223	0.097412	-1.000000	-1.000000	-1.000000	-1.000000	-1.000000	-1.000000	-1.000000	73.724138	0.000000	-1.000000	-1.000000	2012650.000000	1770065522.316898
-6085.710000	-7416.540000	289.620000	13092.930000	-4797.495000	-5593.905000	7636.905000	-4115.340000	-18.870636	-20.719715	-25.100040	-33.058246	-34.938795	-41.848857	-13.669271	5.239623	-12.787880	22.386420	-13.688220	0.795530	0.593321	0.101562	-1.000000	-1.000000	-1.000000	-1.000000	-1.000000	-1.000000	-1.000000	73.724138	0.000000	-1.000000	-1.000000	2012651.000000	1770065522.316904
-5977.080000	-7308.405000	409.770000	13268.295000	-4634.640000	-5475.465000	7550.055000	-4072.950000	40.114575	51.496760	39.467391	40.925599	41.941919	31.275387	16.336069	35.485946	-12.787880	22.386420	-13.688220	0.795530	0.593321	0.101562	-1.000000	-1.000000	-1.000000	-1.000000	-1.000000	-1.000000	-1.000000	73.724138	0.000000	-1.000000	-1.000000	2012652.000000	1770065522.316909
-5887.395000	-7209.720000	510.300000	13355.640000	-4564.575000	-5443.290000	7349.940000	-3857.895000	87.892362	105.945165	95.176100	108.227873	108.494737	93.048059	35.571787	55.118083	-12.787880	22.386420	-13.688220	0.795530	0.593321	0.101562	-1.000000	-1.000000	-1.000000	-1.000000	-1.000000	-1.000000	-1.000000	73.724138	0.000000	-1.000000	-1.000000	2012653.000000	1770065522.316915
-5893.785000	-7199.100000	514.125000	13334.625000	-4583.070000	-5449.680000	7535.745000	-3950.595000	105.788985	120.919288	117.077135	135.188474	132.199256	113.700744	30.544513	63.561402	-12.787880	22.386420	-13.688220	0.795530	0.593321	0.101562	-1.000000	-1.000000	-1.000000	-1.000000	-1.000000	-1.000000	-1.000000	73.724138	0.000000	-1.000000	-1.000000	2012654.000000	1770065522.316919
-6041.610000	-7344.450000	335.295000	13148.550000	-4753.530000	-5551.965000	7700.895000	-4127.355000	85.235638	92.748901	93.881718	106.575948	101.288968	86.721690	16.627218	53.973615	-12.787880	22.386420	-13.688220	0.795530	0.593321	0.101562	-1.000000	-1.000000	-1.000000	-1.000000	-1.000000	-1.000000	-1.000000	73.724138	0.000000	-1.000000	-1.000000	2012655.000000	1770065522.321209
-5934.420000	-7245.540000	399.645000	13154.355000	-4746.465000	-5566.995000	7678.125000	-3948.480000	35.581786	36.464924	36.327956	35.683056	31.826303	30.834497	18.068749	23.189489	-12.787880	22.386420	-13.688220	0.795530	0.593321	0.101562	-1.000000	-1.000000	-1.000000	-1.000000	-1.000000	-1.000000	-1.000000	73.724138	0.000000	-1.000000	-1.000000	2012656.000000	1770065522.321220
-5843.970000	-7201.755000	424.170000	13218.660000	-4670.100000	-5492.430000	7711.830000	-3858.165000	-15.924470	-20.162353	-25.382322	-40.743825	-39.886750	-23.258824	33.646195	-10.038090	-12.787880	22.386420	-13.688220	0.795530	0.593321	0.101562	-1.000000	-1.000000	-1.000000	-1.000000	-1.000000	-1.000000	-1.000000	73.724138	0.000000	-1.000000	-1.000000	2012657.000000	1770065522.324786
-5801.355000	-7123.320000	532.980000	13370.670000	-4527.090000	-5368.320000	7598.835000	-3914.235000	-46.809561	-57.106001	-65.283508	-87.284938	-81.151554	-53.207841	39.164310	-26.883707	-12.787880	22.386420	-13.688220	0.795530	0.593321	0.101562	-1.000000	-1.000000	-1.000000	-1.000000	-1.000000	-1.000000	-1.000000	73.724138	0.000000	-1.000000	-1.000000	2012658.000000	1770065522.324796
-5228.595000	-6452.640000	1247.805000	14053.455000	-3878.730000	-4780.080000	7906.185000	-3630.240000	-48.612880	-63.559889	-67.855193	-83.426322	-74.551356	-48.482851	18.799153	-27.817633	-12.787880	22.386420	-13.688220	0.795530	0.593321	0.101562	-1.000000	-1.000000	-1.000000	-1.000000	-1.000000	-1.000000	-1.000000	73.724138	0.000000	-1.000000	-1.000000	2012659.000000	1770065522.328250
-5195.430000	-6476.400000	1310.715000	14062.365000	-3861.990000	-4762.215000	8182.935000	-3292.830000	-20.036253	-32.525974	-25.267491	-29.113258	-21.854968	-9.841128	-11.086928	-13.377951	-12.787880	22.386420	-13.688220	0.795530	0.593321	0.101562	-1.000000	-1.000000	-1.000000	-1.000000	-1.000000	-1.000000	-1.000000	73.724138	0.000000	-1.000000	-1.000000	2012660.000000	1770065522.328259
-6244.560000	-7644.510000	114.705000	12880.080000	-4991.445000	-5754.915000	7474.860000	-3945.420000	4.209492	-1.868308	19.947738	21.016311	24.365066	21.280868	-29.617348	7.002474	-43.185800	-13.032040	-19.761700	0.783506	0.615355	0.101318	-1.000000	-1.000000	-1.000000	-1.000000	-1.000000	-1.000000	-1.000000	73.724138	0.000000	-1.000000	-1.000000	2012661.000000	1770065522.331246
-6757.020000	-8173.440000	-443.295000	12381.615000	-5489.415000	-6218.190000	7124.580000	-4603.590000	-41.972891	-47.525777	-18.645290	-19.689271	-18.000575	-23.261049	-52.827384	-12.154030	-43.185800	-13.032040	-19.761700	0.783506	0.615355	0.101318	-1.000000	-1.000000	-1.000000	-1.000000	-1.000000	-1.000000	-1.000000	73.724138	0.000000	-1.000000	-1.000000	2012662.000000	1770065522.331256
-6365.655000	-7720.290000	3.870000	12830.580000	-5061.285000	-5839.065000	7196.895000	-4479.840000	-150.900149	-161.485837	-141.374846	-141.226966	-138.587039	-133.908756	-97.997918	-91.397200	-43.185800	-13.032040	-19.761700	0.783506	0.615355	0.101318	-1.000000	-1.000000	-1.000000	-1.000000	-1.000000	-1.000000	-1.000000	73.724138	0.000000	-1.000000	-1.000000	2012663.000000	1770065522.340503
-6038.685000	-7366.050000	353.700000	13181.580000	-4726.890000	-5546.880000	7276.095000	-4213.980000	-205.103892	-214.701290	-215.165827	-205.755741	-204.304305	-194.506358	-133.123183	-159.285006	-43.185800	-13.032040	-19.761700	0.783506	0.615355	0.101318	-1.000000	-1.000000	-1.000000	-1.000000	-1.000000	-1.000000	-1.000000	73.724138	0.000000	-1.000000	-1.000000	2012664.000000	1770065522.340517
-6129.270000	-7475.535000	262.080000	13089.240000	-4805.865000	-5594.040000	7776.630000	-4097.115000	-115.600615	-111.990392	-131.318481	-110.803435	-115.155767	-115.681755	-102.676661	-128.021257	-43.185800	-13.032040	-19.761700	0.783506	0.615355	0.101318	-1.000000	-1.000000	-1.000000	-1.000000	-1.000000	-1.000000	-1.000000	73.724138	0.000000	-1.000000	-1.000000	2012665.000000	1770065522.381240
-6568.335000	-7974.000000	-235.530000	12596.580000	-5284.260000	-6007.095000	7632.630000	-4335.705000	62.673966	83.468102	57.675972	81.750498	70.801157	53.740839	8.370731	-3.322329	-43.185800	-13.032040	-19.761700	0.783506	0.615355	0.101318	-1.000000	-1.000000	-1.000000	-1.000000	-1.000000	-1.000000	-1.000000	73.724138	0.000000	-1.000000	-1.000000	2012666.000000	1770065522.381254
-6476.310000	-7881.030000	-209.205000	12681.720000	-5206.005000	-5954.040000	7451.730000	-4420.620000	195.472931	222.600154	201.736429	217.918285	205.450503	181.669224	138.406050	126.143658	-43.185800	-13.032040	-19.761700	0.783506	0.615355	0.101318	-1.000000	-1.000000	-1.000000	-1.000000	-1.000000	-1.000000	-1.000000	73.724138	0.000000	-1.000000	-1.000000	2012667.000000	1770065522.381268
-6130.980000	-7450.380000	227.745000	13112.280000	-4797.630000	-5603.040000	7606.575000	-4188.420000	207.339343	224.531147	210.249949	212.343495	205.182798	188.776269	194.205529	179.088081	-43.185800	-13.032040	-19.761700	0.783506	0.615355	0.101318	-1.000000	-1.000000	-1.000000	-1.000000	-1.000000	-1.000000	-1.000000	73.724138	0.000000	-1.000000	-1.000000	2012668.000000	1770065522.381274
-5712.840000	-6951.960000	830.655000	13641.930000	-4320.855000	-5214.780000	7849.395000	-3849.390000	139.346412	142.490048	131.860012	121.033620	121.136786	115.716423	147.918587	148.819935	-43.185800	-13.032040	-19.761700	0.783506	0.615355	0.101318	-1.000000	-1.000000	-1.000000	-1.000000	-1.000000	-1.000000	-1.000000	73.724138	0.000000	-1.000000	-1.000000	2012669.000000	1770065522.381281
-5597.685000	-6835.905000	914.805000	13742.145000	-4228.020000	-5144.310000	7713.630000	-3642.255000	92.155249	93.384327	89.065564	68.404386	70.556414	66.305775	61.512632	98.253762	-43.185800	-13.032040	-19.761700	0.783506	0.615355	0.101318	-1.000000	-1.000000	-1.000000	-1.000000	-1.000000	-1.000000	-1.000000	73.724138	0.000000	-1.000000	-1.000000	2012670.000000	1770065522.381286
-5710.005000	-7001.550000	713.520000	13551.210000	-4400.190000	-5259.150000	7561.755000	-3510.090000	106.664432	116.885929	124.311066	97.857947	96.262301	83.316980	0.789827	86.136321	-101.311140	-49.747600	-40.851020	0.753050	0.630614	0.111877	-1.000000	-1.000000	-1.000000	-1.000000	-1.000000	-1.000000	-1.000000	73.724138	0.000000	-1.000000	-1.000000	2012671.000000	1770065522.381292
-5554.665000	-6809.940000	912.060000	13747.635000	-4215.015000	-5071.905000	7510.815000	-3678.390000	117.718055	131.179880	149.352575	124.776328	120.497487	103.933624	-32.692824	95.378616	-101.311140	-49.747600	-40.851020	0.753050	0.630614	0.111877	-1.000000	-1.000000	-1.000000	-1.000000	-1.000000	-1.000000	-1.000000	73.724138	0.000000	-1.000000	-1.000000	2012672.000000	1770065522.381297
-5536.305000	-6778.170000	974.970000	13820.625000	-4123.080000	-4959.945000	7660.980000	-3720.105000	49.275518	51.229577	73.272839	59.911733	59.176900	55.319556	-65.902429	55.660420	-101.311140	-49.747600	-40.851020	0.753050	0.630614	0.111877	-1.000000	-1.000000	-1.000000	-1.000000	-1.000000	-1.000000	-1.000000	73.724138	0.000000	-1.000000	-1.000000	2012673.000000	1770065522.381303
-6057.495000	-7325.730000	400.635000	13261.905000	-4647.510000	-5425.515000	7838.460000	-3986.145000	-94.067961	-110.463128	-91.822972	-88.224447	-80.547679	-60.645889	-100.024934	-63.030142	-101.311140	-49.747600	-40.851020	0.753050	0.630614	0.111877	-1.000000	-1.000000	-1.000000	-1.000000	-1.000000	-1.000000	-1.000000	73.724138	0.000000	-1.000000	-1.000000	2012674.000000	1770065522.381308
-6657.615000	-7989.615000	-303.075000	12540.960000	-5338.305000	-6074.865000	7323.435000	-4141.305000	-248.993999	-278.603393	-269.366234	-251.122476	-234.865095	-194.676274	-115.640645	-207.769884	-101.311140	-49.747600	-40.851020	0.753050	0.630614	0.111877	-1.000000	-1.000000	-1.000000	-1.000000	-1.000000	-1.000000	-1.000000	73.724138	0.000000	-1.000000	-1.000000	2012675.000000	1770065522.381314
-6845.760000	-8163.495000	-436.905000	12375.450000	-5524.290000	-6260.715000	6936.165000	-4359.150000	-353.059044	-386.422616	-389.281712	-367.243786	-346.801288	-300.491669	-110.665624	-295.383264	-101.311140	-49.747600	-40.851020	0.753050	0.630614	0.111877	-1.000000	-1.000000	-1.000000	-1.000000	-1.000000	-1.000000	-1.000000	73.724138	0.000000	-1.000000	-1.000000	2012676.000000	1770065522.381319
-6755.670000	-8026.380000	-253.710000	12551.850000	-5376.420000	-6147.540000	6851.115000	-4487.130000	-363.226961	-391.981051	-403.589267	-389.989293	-372.934118	-336.487573	-102.418261	-285.623997	-101.311140	-49.747600	-40.851020	0.753050	0.630614	0.111877	-1.000000	-1.000000	-1.000000	-1.000000	-1.000000	-1.000000	-1.000000	73.724138	0.000000	-1.000000	-1.000000	2012677.000000	1770065522.381325
-6710.400000	-7906.815000	-150.615000	12687.210000	-5249.520000	-6036.570000	6810.750000	-4520.610000	-253.772920	-269.383222	-283.416050	-281.723986	-275.660288	-260.940677	-86.699021	-191.613929	-101.311140	-49.747600	-40.851020	0.753050	0.630614	0.111877	-1.000000	-1.000000	-1.000000	-1.000000	-1.000000	-1.000000	-1.000000	73.724138	0.000000	-1.000000	-1.000000	2012678.000000	1770065522.381330
-6480.990000	-7635.195000	108.855000	12978.810000	-4945.410000	-5682.690000	7732.980000	-4220.640000	-34.903880	-28.348630	-40.087205	-43.694404	-51.784742	-63.172260	-20.565762	-41.824643	-101.311140	-49.747600	-40.851020	0.753050	0.630614	0.111877	-1.000000	-1.000000	-1.000000	-1.000000	-1.000000	-1.000000	-1.000000	73.724138	0.000000	-1.000000	-1.000000	2012679.000000	1770065522.381335
-6447.150000	-7605.900000	146.700000	12989.205000	-4932.675000	-5651.415000	7904.835000	-4076.730000	223.444655	254.966569	248.706993	247.740510	228.911281	196.698512	125.664292	132.315510	-101.311140	-49.747600	-40.851020	0.753050	0.630614	0.111877	-1.000000	-1.000000	-1.000000	-1.000000	-1.000000	-1.000000	-1.000000	73.724138	0.000000	-1.000000	-1.000000	2012680.000000	1770065522.381341
-6187.050000	-7271.325000	512.595000	13323.960000	-4606.470000	-5382.180000	7613.505000	-4022.370000	410.364037	456.774808	458.091263	461.063179	439.313124	398.329037	287.641554	279.625639	-64.870260	-32.900560	-4.898460	0.740355	0.616759	0.132507	-1.000000	-1.000000	-1.000000	-1.000000	-1.000000	-1.000000	-1.000000	73.724138	0.000000	-1.000000	-1.000000	2012681.000000	1770065522.381346
-5807.565000	-6880.275000	879.480000	13697.820000	-4248.945000	-5074.200000	7934.535000	-3655.935000	450.785292	493.751065	501.661329	503.692553	486.176918	447.169551	336.453115	344.723458	-64.870260	-32.900560	-4.898460	0.740355	0.616759	0.132507	-1.000000	-1.000000	-1.000000	-1.000000	-1.000000	-1.000000	-1.000000	73.724138	0.000000	-1.000000	-1.000000	2012682.000000	1770065522.381351
-5965.065000	-7095.465000	614.970000	13462.650000	-4468.005000	-5240.700000	7953.615000	-3715.695000	358.549873	382.251291	391.612344	388.414705	377.916295	346.240514	219.973498	308.829435	-64.870260	-32.900560	-4.898460	0.740355	0.616759	0.132507	-1.000000	-1.000000	-1.000000	-1.000000	-1.000000	-1.000000	-1.000000	73.724138	0.000000	-1.000000	-1.000000	2012683.000000	1770065522.381357
-6092.865000	-7252.020000	503.955000	13334.130000	-4598.820000	-5370.795000	7819.695000	-3709.620000	192.318470	188.975022	194.071469	186.668744	182.851502	162.702157	14.758498	191.524805	-64.870260	-32.900560	-4.898460	0.740355	0.616759	0.132507	-1.000000	-1.000000	-1.000000	-1.000000	-1.000000	-1.000000	-1.000000	73.724138	0.000000	-1.000000	-1.000000	2012684.000000	1770065522.381362
-6700.680000	-7879.005000	-125.280000	12689.280000	-5208.345000	-5910.975000	7321.500000	-4117.590000	-10.853702	-40.581034	-41.564556	-48.670570	-45.421728	-47.064148	-169.460909	24.367168	-64.870260	-32.900560	-4.898460	0.740355	0.616759	0.132507	-1.000000	-1.000000	-1.000000	-1.000000	-1.000000	-1.000000	-1.000000	73.724138	0.000000	-1.000000	-1.000000	2012685.000000	1770065522.381368
-6758.595000	-7914.915000	-169.920000	12635.910000	-5243.265000	-5939.505000	7420.680000	-4393.395000	-227.194040	-274.929293	-281.254083	-284.420767	-271.901033	-248.554138	-273.882305	-157.000979	-64.870260	-32.900560	-4.898460	0.740355	0.616759	0.132507	-1.000000	-1.000000	-1.000000	-1.000000	-1.000000	-1.000000	-1.000000	73.724138	0.000000	-1.000000	-1.000000	2012686.000000	1770065522.381373
-6613.515000	-7761.870000	-22.365000	12785.715000	-5069.025000	-5794.875000	7332.840000	-4463.955000	-393.884336	-444.895788	-455.018329	-454.137843	-432.038464	-386.905870	-285.246914	-303.160295	-64.870260	-32.900560	-4.898460	0.740355	0.616759	0.132507	-1.000000	-1.000000	-1.000000	-1.000000	-1.000000	-1.000000	-1.000000	73.724138	0.000000	-1.000000	-1.000000	2012687.000000	1770065522.385087
-6384.555000	-7476.165000	271.845000	13156.965000	-4756.320000	-5563.890000	7286.895000	-4239.135000	-424.141234	-460.626234	-470.224962	-467.272804	-442.155540	-394.390477	-224.336891	-356.159068	-64.870260	-32.900560	-4.898460	0.740355	0.616759	0.132507	-1.000000	-1.000000	-1.000000	-1.000000	-1.000000	-1.000000	-1.000000	73.724138	0.000000	-1.000000	-1.000000	2012688.000000	1770065522.385098
-6059.205000	-7137.180000	622.845000	13518.270000	-4453.965000	-5282.820000	7714.080000	-3868.560000	-287.730007	-295.487069	-298.786651	-293.209295	-278.295079	-253.957575	-123.672946	-279.057612	-64.870260	-32.900560	-4.898460	0.740355	0.616759	0.132507	-1.000000	-1.000000	-1.000000	-1.000000	-1.000000	-1.000000	-1.000000	73.724138	0.000000	-1.000000	-1.000000	2012689.000000	1770065522.387319
-6078.330000	-7206.795000	570.240000	13445.415000	-4525.155000	-5299.920000	7941.105000	-3835.845000	-51.143125	-29.078998	-23.586735	-13.277353	-19.774805	-30.430894	8.026577	-92.044892	-64.870260	-32.900560	-4.898460	0.740355	0.616759	0.132507	-1.000000	-1.000000	-1.000000	-1.000000	-1.000000	-1.000000	-1.000000	73.724138	0.000000	-1.000000	-1.000000	2012690.000000	1770065522.387325
-6481.935000	-7579.170000	204.480000	13086.450000	-4854.240000	-5581.170000	7470.315000	-4289.580000	159.711533	197.932275	210.474436	222.877827	196.312366	164.071163	142.032001	111.421253	-14.283360	14.084980	8.240400	0.758299	0.607237	0.149475	-1.000000	-1.000000	-1.000000	-1.000000	-1.000000	-1.000000	-1.000000	73.724138	0.000000	-1.000000	-1.000000	2012691.000000	1770065522.395574
-6544.395000	-7669.215000	98.325000	12971.385000	-4979.070000	-5725.980000	7539.570000	-4249.980000	249.059534	286.926600	302.685990	309.569312	277.083970	247.682249	210.430909	222.713596	-14.283360	14.084980	8.240400	0.758299	0.607237	0.149475	-1.000000	-1.000000	-1.000000	-1.000000	-1.000000	-1.000000	-1.000000	73.724138	0.000000	-1.000000	-1.000000	2012692.000000	1770065522.395579
-6663.780000	-7841.655000	-85.680000	12789.450000	-5145.165000	-5858.190000	7543.980000	-4235.715000	215.629162	242.668471	255.629664	251.372534	229.513874	218.066944	190.776041	212.447664	-14.283360	14.084980	8.240400	0.758299	0.607237	0.149475	-1.000000	-1.000000	-1.000000	-1.000000	-1.000000	-1.000000	-1.000000	73.724138	0.000000	-1.000000	-1.000000	2012693.000000	1770065522.395586
-6530.130000	-7658.145000	119.700000	13004.595000	-4927.635000	-5651.145000	7524.360000	-4210.605000	127.822298	138.832702	141.909603	128.383204	126.164208	132.485345	127.847228	137.539590	-14.283360	14.084980	8.240400	0.758299	0.607237	0.149475	-1.000000	-1.000000	-1.000000	-1.000000	-1.000000	-1.000000	-1.000000	73.724138	0.000000	-1.000000	-1.000000	2012694.000000	1770065522.395591
-6387.570000	-7505.685000	268.785000	13144.545000	-4802.580000	-5542.695000	7597.080000	-4178.700000	53.253346	48.515326	39.343777	24.092902	39.430243	53.810681	64.222436	67.297425	-14.283360	14.084980	8.240400	0.758299	0.607237	0.149475	-1.000000	-1.000000	-1.000000	-1.000000	-1.000000	-1.000000	-1.000000	73.724138	0.000000	-1.000000	-1.000000	2012695.000000	1770065522.400687
-6489.630000	-7623.315000	151.380000	13018.185000	-4930.650000	-5658.480000	7549.245000	-4212.180000	9.863532	-5.283162	-21.471856	-32.394304	-9.837723	2.207064	7.436269	25.199954	-14.283360	14.084980	8.240400	0.758299	0.607237	0.149475	-1.000000	-1.000000	-1.000000	-1.000000	-1.000000	-1.000000	-1.000000	73.724138	0.000000	-1.000000	-1.000000	2012696.000000	1770065522.400697
-6460.470000	-7597.080000	185.445000	13049.595000	-4898.790000	-5636.205000	7468.965000	-4120.605000	-27.381123	-46.882592	-61.580728	-67.999148	-48.657588	-43.101177	-51.304575	-9.327704	-14.283360	14.084980	8.240400	0.758299	0.607237	0.149475	-1.000000	-1.000000	-1.000000	-1.000000	-1.000000	-1.000000	-1.000000	73.724138	0.000000	-1.000000	-1.000000	2012697.000000	1770065522.415832
-6411.195000	-7555.680000	212.715000	13074.660000	-4858.425000	-5599.935000	7483.590000	-4084.245000	-77.338927	-96.463263	-104.094178	-108.495313	-96.155381	-95.226191	-112.823872	-56.635433	-14.283360	14.084980	8.240400	0.758299	0.607237	0.149475	-1.000000	-1.000000	-1.000000	-1.000000	-1.000000	-1.000000	-1.000000	73.724138	0.000000	-1.000000	-1.000000	2012698.000000	1770065522.415844
-6364.845000	-7507.980000	263.430000	13107.330000	-4825.170000	-5574.420000	7436.295000	-3985.245000	-120.023442	-133.955201	-134.409909	-136.996829	-130.363692	-132.202749	-157.515456	-102.440769	-14.283360	14.084980	8.240400	0.758299	0.607237	0.149475	-1.000000	-1.000000	-1.000000	-1.000000	-1.000000	-1.000000	-1.000000	73.724138	0.000000	-1.000000	-1.000000	2012699.000000	1770065522.488029
-6135.075000	-7227.540000	526.950000	13369.140000	-4591.305000	-5386.140000	7307.010000	-3882.105000	-110.580691	-113.831369	-110.062922	-109.120300	-107.917131	-114.445562	-153.403396	-107.237660	-14.283360	14.084980	8.240400	0.758299	0.607237	0.149475	-1.000000	-1.000000	-1.000000	-1.000000	-1.000000	-1.000000	-1.000000	73.724138	0.000000	-1.000000	-1.000000	2012700.000000	1770065522.488042
-5945.940000	-7022.430000	709.470000	13563.180000	-4435.290000	-5291.280000	7099.425000	-3685.995000	-27.070136	-15.169551	-10.179919	-4.510729	-11.392316	-26.014630	-89.599714	-51.441678	-12.497940	53.928840	14.771680	0.802122	0.629698	0.142395	-1.000000	-1.000000	-1.000000	-1.000000	-1.000000	-1.000000	-1.000000	73.724138	0.000000	-1.000000	-1.000000	2012701.000000	1770065522.488055
-5950.440000	-7043.265000	746.640000	13622.085000	-4373.370000	-5221.755000	7694.325000	-3537.180000	92.655938	118.680714	123.133707	133.874847	117.256029	94.865383	12.859340	37.910869	-12.497940	53.928840	14.771680	0.802122	0.629698	0.142395	-1.000000	-1.000000	-1.000000	-1.000000	-1.000000	-1.000000	-1.000000	73.724138	0.000000	-1.000000	-1.000000	2012702.000000	1770065522.488060
-6635.295000	-7817.175000	-32.265000	12840.930000	-5088.690000	-5759.595000	7812.045000	-4384.620000	161.155061	189.429489	193.758135	208.542897	186.888065	166.599238	125.794926	98.598184	-12.497940	53.928840	14.771680	0.802122	0.629698	0.142395	-1.000000	-1.000000	-1.000000	-1.000000	-1.000000	-1.000000	-1.000000	73.724138	0.000000	-1.000000	-1.000000	2012703.000000	1770065522.488066
-6529.770000	-7718.040000	49.770000	12915.180000	-5016.465000	-5687.055000	7689.510000	-4270.860000	107.934223	119.484686	124.681349	139.781768	124.279652	124.321191	206.693040	72.937677	-12.497940	53.928840	14.771680	0.802122	0.629698	0.142395	-1.000000	-1.000000	-1.000000	-1.000000	-1.000000	-1.000000	-1.000000	73.724138	0.000000	-1.000000	-1.000000	2012704.000000	1770065522.488072
-6566.850000	-7749.765000	15.570000	12887.910000	-5047.065000	-5728.815000	7588.260000	-4237.965000	-38.966061	-54.698731	-49.817413	-40.060169	-39.917393	-9.293287	201.118154	-26.801813	-12.497940	53.928840	14.771680	0.802122	0.629698	0.142395	-1.000000	-1.000000	-1.000000	-1.000000	-1.000000	-1.000000	-1.000000	73.724138	0.000000	-1.000000	-1.000000	2012705.000000	1770065522.488077
-6566.715000	-7732.845000	31.905000	12912.525000	-5024.565000	-5729.130000	7544.520000	-4329.990000	-173.773234	-208.626834	-206.700013	-206.285599	-190.586068	-140.896511	97.083602	-123.492617	-12.497940	53.928840	14.771680	0.802122	0.629698	0.142395	-1.000000	-1.000000	-1.000000	-1.000000	-1.000000	-1.000000	-1.000000	73.724138	0.000000	-1.000000	-1.000000	2012706.000000	1770065522.488082
-6486.615000	-7657.110000	118.890000	12984.255000	-4959.270000	-5675.355000	7572.060000	-4203.315000	-212.709790	-246.199481	-248.385251	-256.706392	-234.658997	-191.994520	-53.595003	-153.547967	-12.497940	53.928840	14.771680	0.802122	0.629698	0.142395	-1.000000	-1.000000	-1.000000	-1.000000	-1.000000	-1.000000	-1.000000	73.724138	0.000000	-1.000000	-1.000000	2012707.000000	1770065522.488088
-6439.815000	-7597.620000	182.880000	13027.095000	-4914.270000	-5632.785000	7528.680000	-4167.090000	-140.040238	-154.139253	-158.621858	-171.588243	-155.133535	-141.868171	-170.882594	-100.677957	-12.497940	53.928840	14.771680	0.802122	0.629698	0.142395	-1.000000	-1.000000	-1.000000	-1.000000	-1.000000	-1.000000	-1.000000	73.724138	0.000000	-1.000000	-1.000000	2012708.000000	1770065522.488093
-6400.170000	-7540.605000	239.085000	13085.955000	-4860.270000	-5592.555000	7518.105000	-4172.355000	-1.063202	9.377981	6.233645	-6.919315	-3.138505	-24.148033	-195.462060	6.558391	-12.497940	53.928840	14.771680	0.802122	0.629698	0.142395	-1.000000	-1.000000	-1.000000	-1.000000	-1.000000	-1.000000	-1.000000	73.724138	0.000000	-1.000000	-1.000000	2012709.000000	1770065522.488099
-6283.665000	-7421.535000	364.770000	13234.635000	-4713.615000	-5463.810000	7613.370000	-4055.130000	128.901813	156.206359	156.837659	147.118181	139.536138	97.818440	-125.148909	108.218775	-12.497940	53.928840	14.771680	0.802122	0.629698	0.142395	-1.000000	-1.000000	-1.000000	-1.000000	-1.000000	-1.000000	-1.000000	73.724138	0.000000	-1.000000	-1.000000	2012710.000000	1770065522.488104
-6335.955000	-7485.255000	295.695000	13158.405000	-4791.240000	-5524.155000	7637.355000	-4067.100000	195.931799	226.758953	229.671382	225.857342	213.007777	170.599841	-16.140640	158.918964	-25.423160	42.010780	-12.314820	0.866880	0.621519	0.131836	-1.000000	-1.000000	-1.000000	-1.000000	-1.000000	-1.000000	-1.000000	73.724138	0.000000	-1.000000	-1.000000	2012711.000000	1770065522.488109
-6390.900000	-7523.055000	263.205000	13123.035000	-4822.020000	-5566.095000	7498.980000	-4145.355000	190.748724	213.896798	214.996208	217.329415	204.235170	173.995426	60.800025	157.732433	-25.423160	42.010780	-12.314820	0.866880	0.621519	0.131836	-1.000000	-1.000000	-1.000000	-1.000000	-1.000000	-1.000000	-1.000000	73.724138	0.000000	-1.000000	-1.000000	2012712.000000	1770065522.488114
-6294.015000	-7432.830000	356.445000	13211.730000	-4736.475000	-5501.295000	7555.230000	-4091.490000	129.109703	139.466330	136.885967	143.193562	132.472605	117.124086	76.386840	119.642418	-25.423160	42.010780	-12.314820	0.866880	0.621519	0.131836	-1.000000	-1.000000	-1.000000	-1.000000	-1.000000	-1.000000	-1.000000	73.724138	0.000000	-1.000000	-1.000000	2012713.000000	1770065522.488120
-6140.340000	-7288.785000	481.860000	13335.840000	-4614.570000	-5372.235000	7755.930000	-3940.785000	36.962470	33.942790	29.420338	36.282041	30.091864	28.623950	55.826147	52.547336	-25.423160	42.010780	-12.314820	0.866880	0.621519	0.131836	-1.000000	-1.000000	-1.000000	-1.000000	-1.000000	-1.000000	-1.000000	73.724138	0.000000	-1.000000	-1.000000	2012714.000000	1770065522.488124
-5984.550000	-7095.105000	685.710000	13540.860000	-4421.655000	-5199.660000	7743.015000	-3860.505000	-50.325814	-64.474468	-68.518683	-63.992290	-64.034938	-52.198276	37.785253	-25.600577	-25.423160	42.010780	-12.314820	0.866880	0.621519	0.131836	-1.000000	-1.000000	-1.000000	-1.000000	-1.000000	-1.000000	-1.000000	73.724138	0.000000	-1.000000	-1.000000	2012715.000000	1770065522.488130
-6071.580000	-7213.590000	565.605000	13420.530000	-4540.815000	-5299.155000	7820.145000	-3805.425000	-104.465365	-124.205169	-126.418961	-124.723796	-119.242010	-96.263030	33.889151	-87.343969	-25.423160	42.010780	-12.314820	0.866880	0.621519	0.131836	-1.000000	-1.000000	-1.000000	-1.000000	-1.000000	-1.000000	-1.000000	73.862069	0.000000	-1.000000	-1.000000	2012716.000000	1770065522.488134
-6508.395000	-7696.530000	81.900000	12940.290000	-4996.575000	-5715.540000	7568.280000	-4152.600000	-126.917577	-146.628561	-146.533467	-145.738531	-137.025247	-107.781641	31.388433	-120.329528	-25.423160	42.010780	-12.314820	0.866880	0.621519	0.131836	-1.000000	-1.000000	-1.000000	-1.000000	-1.000000	-1.000000	-1.000000	73.862069	0.000000	-1.000000	-1.000000	2012717.000000	1770065522.488141
-6555.915000	-7721.955000	61.335000	12916.710000	-5014.845000	-5729.805000	7405.650000	-4276.890000	-138.612810	-155.863081	-153.551062	-151.875280	-141.689034	-111.643138	12.308137	-133.360796	-25.423160	42.010780	-12.314820	0.866880	0.621519	0.131836	-1.000000	-1.000000	-1.000000	-1.000000	-1.000000	-1.000000	-1.000000	73.862069	0.000000	-1.000000	-1.000000	2012718.000000	1770065522.488145
-6468.210000	-7647.840000	122.175000	12982.680000	-4954.410000	-5685.165000	7424.010000	-4248.450000	-138.574987	-151.241231	-147.738485	-145.866977	-135.635877	-110.877277	-30.281218	-131.878629	-25.423160	42.010780	-12.314820	0.866880	0.621519	0.131836	-1.000000	-1.000000	-1.000000	-1.000000	-1.000000	-1.000000	-1.000000	73.862069	0.000000	-1.000000	-1.000000	2012719.000000	1770065522.488151
-6409.755000	-7573.365000	184.680000	13056.660000	-4878.090000	-5624.280000	7499.115000	-4226.580000	-96.680903	-100.682409	-98.260010	-98.087179	-90.730639	-79.604433	-76.412363	-98.368871	-25.423160	42.010780	-12.314820	0.866880	0.621519	0.131836	-1.000000	-1.000000	-1.000000	-1.000000	-1.000000	-1.000000	-1.000000	73.862069	0.000000	-1.000000	-1.000000	2012720.000000	1770065522.488156
-6390.180000	-7547.895000	216.630000	13085.730000	-4849.020000	-5607.045000	7548.120000	-4169.385000	-2.227831	5.590569	5.084944	3.229238	4.255875	-5.087982	-88.465510	-18.960898	-5.371520	26.872860	-10.422580	0.832762	0.595641	0.142151	-1.000000	-1.000000	-1.000000	-1.000000	-1.000000	-1.000000	-1.000000	73.862069	0.000000	-1.000000	-1.000000	2012721.000000	1770065522.488162
-6401.160000	-7574.580000	205.110000	13059.270000	-4889.565000	-5653.035000	7520.580000	-4128.075000	104.202728	122.248586	119.744039	116.889508	110.574654	82.785177	-50.627805	80.167642	-5.371520	26.872860	-10.422580	0.832762	0.595641	0.142151	-1.000000	-1.000000	-1.000000	-1.000000	-1.000000	-1.000000	-1.000000	73.862069	0.000000	-1.000000	-1.000000	2012722.000000	1770065522.488166
-6391.710000	-7551.720000	228.780000	13081.320000	-4868.370000	-5629.680000	7500.060000	-4129.515000	161.898452	183.238833	182.083684	178.769696	167.606067	133.317952	10.428863	146.595965	-5.371520	26.872860	-10.422580	0.832762	0.595641	0.142151	-1.000000	-1.000000	-1.000000	-1.000000	-1.000000	-1.000000	-1.000000	73.862069	0.000000	-1.000000	-1.000000	2012723.000000	1770065522.488172
-6280.560000	-7434.090000	344.520000	13201.650000	-4740.930000	-5501.520000	7664.355000	-4019.940000	143.620701	159.851059	162.455922	158.953780	147.731580	121.781863	56.627267	147.052359	-5.371520	26.872860	-10.422580	0.832762	0.595641	0.142151	-1.000000	-1.000000	-1.000000	-1.000000	-1.000000	-1.000000	-1.000000	73.862069	0.000000	-1.000000	-1.000000	2012724.000000	1770065522.488176
-6281.010000	-7437.015000	339.795000	13201.605000	-4736.205000	-5507.820000	7680.690000	-4025.475000	76.324486	82.871258	88.208666	85.717345	79.140011	70.419946	75.238120	92.325767	-5.371520	26.872860	-10.422580	0.832762	0.595641	0.142151	-1.000000	-1.000000	-1.000000	-1.000000	-1.000000	-1.000000	-1.000000	73.862069	0.000000	-1.000000	-1.000000	2012725.000000	1770065522.488182
-6360.795000	-7542.765000	222.255000	13092.480000	-4837.230000	-5589.765000	7564.995000	-4116.240000	11.362537	8.979294	13.648935	13.809073	13.850001	21.313203	73.817344	22.846148	-5.371520	26.872860	-10.422580	0.832762	0.595641	0.142151	-1.000000	-1.000000	-1.000000	-1.000000	-1.000000	-1.000000	-1.000000	73.862069	0.000000	-1.000000	-1.000000	2012726.000000	1770065522.488187
-6369.930000	-7549.650000	216.990000	13083.705000	-4848.390000	-5596.335000	7538.670000	-4137.345000	-24.214726	-32.460861	-31.587427	-28.415581	-23.197951	-6.755940	56.975424	-28.279373	-5.371520	26.872860	-10.422580	0.832762	0.595641	0.142151	-1.000000	-1.000000	-1.000000	-1.000000	-1.000000	-1.000000	-1.000000	73.862069	0.000000	-1.000000	-1.000000	2012727.000000	1770065522.488193
-6329.115000	-7501.680000	275.175000	13125.150000	-4814.415000	-5576.130000	7578.360000	-4105.845000	-37.375681	-48.169370	-51.637534	-47.462651	-40.530771	-22.850321	23.205347	-52.486033	-5.371520	26.872860	-10.422580	0.832762	0.595641	0.142151	-1.000000	-1.000000	-1.000000	-1.000000	-1.000000	-1.000000	-1.000000	73.862069	0.000000	-1.000000	-1.000000	2012728.000000	1770065522.488197
-6297.615000	-7468.290000	301.635000	13169.970000	-4770.540000	-5535.405000	7618.365000	-4111.335000	-41.239420	-50.991047	-56.216005	-54.128073	-49.179197	-36.264423	-20.745904	-54.081622	-5.371520	26.872860	-10.422580	0.832762	0.595641	0.142151	-1.000000	-1.000000	-1.000000	-1.000000	-1.000000	-1.000000	-1.000000	73.862069	0.000000	-1.000000	-1.000000	2012729.000000	1770065522.488203
-6204.600000	-7357.320000	384.480000	13276.935000	-4668.570000	-5441.580000	7613.685000	-4090.545000	-39.707083	-45.380924	-49.583844	-50.314857	-49.406320	-44.187742	-56.961819	-42.552740	-5.371520	26.872860	-10.422580	0.832762	0.595641	0.142151	-1.000000	-1.000000	-1.000000	-1.000000	-1.000000	-1.000000	-1.000000	73.862069	0.000000	-1.000000	-1.000000	2012730.000000	1770065522.488208
-6276.060000	-7451.685000	292.005000	13175.055000	-4764.240000	-5542.020000	7525.170000	-3978.090000	-33.777987	-34.142180	-37.189794	-38.108051	-40.411577	-42.130124	-71.782097	-28.350899	-5.371520	11.490780	0.869820	0.745237	0.612975	0.141601	-1.000000	-1.000000	-1.000000	-1.000000	-1.000000	-1.000000	-1.000000	73.862069	0.000000	-1.000000	-1.000000	2012731.000000	1770065522.488214
