Channel1	Channel2	Channel3	Channel4	Channel5	Channel6	Channel7	Channel8	FilteredChannel1	FilteredChannel2	FilteredChannel3	FilteredChannel4	FilteredChannel5	FilteredChannel6	FilteredChannel7	FilteredChannel8	GyroX	GyroY	GyroZ	AccX	AccY	AccZ	PPG1	PPG2	rawPPG1	rawPPG2	rawPPG3	Hr	Hrv	Battery	Trigger	PhysicalTrigger	AutoTrigger	NumMeasurements	Timestamp
-21886.380000	-16214.715000	-16911.720000	-28502.865000	-35366.040000	-53021.430000	-41434.515000	-9075.105000	-2.540864	-6.027189	-6.198043	-6.278920	-6.193025	-5.249841	-4.918668	-11.377183	-2.960440	-2.472120	-1.251320	0.790953	-0.161010	0.550047	-1.000000	-1.000000	-1.000000	-1.000000	-1.000000	-1.000000	-1.000000	38.689655	0.000000	-1.000000	-1.000000	306129.000000	1774294150.053869
-21883.950000	-16204.365000	-16903.980000	-28494.585000	-35355.645000	-53015.445000	-41428.305000	-9069.795000	-7.234149	-6.385112	-6.313579	-6.014075	-5.850066	-5.399161	-5.245833	-14.780087	-2.960440	-2.472120	-1.251320	0.790953	-0.161010	0.550047	-1.000000	-1.000000	-1.000000	-1.000000	-1.000000	-1.000000	-1.000000	38.689655	0.000000	-1.000000	-1.000000	306130.000000	1774294150.053881
-21898.440000	-16203.465000	-16903.665000	-28494.945000	-35355.600000	-53019.675000	-41427.945000	-9086.985000	-10.136005	-3.877684	-3.278416	-2.599645	-2.405845	-2.906528	-3.778200	-13.263713	-4.928980	-1.281840	-2.609460	0.791868	-0.161010	0.550719	-1.000000	-1.000000	-1.000000	-1.000000	-1.000000	-1.000000	-1.000000	38.689655	0.000000	-1.000000	-1.000000	306131.000000	1774294150.060018
-21910.140000	-16209.270000	-16906.815000	-28499.040000	-35359.065000	-53021.790000	-41426.550000	-9102.330000	-9.397177	0.424754	1.601149	2.536328	2.790704	1.368204	-1.006170	-7.990135	-4.928980	-1.281840	-2.609460	0.791868	-0.161010	0.550719	-1.000000	-1.000000	-1.000000	-1.000000	-1.000000	-1.000000	-1.000000	38.689655	0.000000	-1.000000	-1.000000	306132.000000	1774294150.060029
-21887.190000	-16208.775000	-16911.495000	-28508.040000	-35368.065000	-53026.785000	-41426.145000	-9082.620000	-4.458104	5.075708	6.163035	6.991670	7.310381	5.622730	2.640394	-0.581477	-4.928980	-1.281840	-2.609460	0.791868	-0.161010	0.550719	-1.000000	-1.000000	-1.000000	-1.000000	-1.000000	-1.000000	-1.000000	38.689655	0.000000	-1.000000	-1.000000	306133.000000	1774294150.067633
-21869.505000	-16205.085000	-16910.415000	-28507.500000	-35368.605000	-53023.500000	-41422.320000	-9061.425000	3.192335	8.520131	8.390115	8.624273	8.930692	7.902383	6.264017	7.446204	-4.928980	-1.281840	-2.609460	0.791868	-0.161010	0.550719	-1.000000	-1.000000	-1.000000	-1.000000	-1.000000	-1.000000	-1.000000	38.689655	0.000000	-1.000000	-1.000000	306134.000000	1774294150.067645
-21890.655000	-16221.780000	-16916.580000	-28512.765000	-35374.095000	-53026.740000	-41434.920000	-9079.155000	9.599327	9.217850	7.483835	6.937060	7.084576	7.229560	8.180403	13.076930	-4.928980	-1.281840	-2.609460	0.791868	-0.161010	0.550719	-1.000000	-1.000000	-1.000000	-1.000000	-1.000000	-1.000000	-1.000000	38.689655	0.000000	-1.000000	-1.000000	306135.000000	1774294150.067658
-21905.595000	-16238.745000	-16928.820000	-28524.015000	-35385.345000	-53036.910000	-41446.755000	-9090.360000	10.530856	6.220588	4.011239	3.044270	2.938936	3.973499	6.693172	12.354181	-4.928980	-1.281840	-2.609460	0.791868	-0.161010	0.550719	-1.000000	-1.000000	-1.000000	-1.000000	-1.000000	-1.000000	-1.000000	38.689655	0.000000	-1.000000	-1.000000	306136.000000	1774294150.067664
-21920.805000	-16241.580000	-16927.605000	-28520.190000	-35380.980000	-53034.255000	-41446.710000	-9101.790000	5.314241	0.264854	-0.673542	-1.428727	-1.717429	-0.542496	1.846010	4.851585	-4.928980	-1.281840	-2.609460	0.791868	-0.161010	0.550719	-1.000000	-1.000000	-1.000000	-1.000000	-1.000000	-1.000000	-1.000000	38.689655	0.000000	-1.000000	-1.000000	306137.000000	1774294150.073081
-21910.815000	-16235.910000	-16928.370000	-28522.845000	-35384.265000	-53040.645000	-41447.295000	-9099.045000	-2.516882	-5.982726	-4.817653	-4.942890	-5.275876	-4.551202	-4.020177	-5.022455	-4.928980	-1.281840	-2.609460	0.791868	-0.161010	0.550719	-1.000000	-1.000000	-1.000000	-1.000000	-1.000000	-1.000000	-1.000000	38.689655	0.000000	-1.000000	-1.000000	306138.000000	1774294150.073103
-21903.030000	-16238.205000	-16941.420000	-28537.965000	-35399.160000	-53058.195000	-41452.875000	-9095.850000	-7.833230	-9.537436	-7.071662	-6.652013	-6.987450	-6.865553	-8.116509	-11.505887	-4.928980	-1.281840	-2.609460	0.791868	-0.161010	0.550719	-1.000000	-1.000000	-1.000000	-1.000000	-1.000000	-1.000000	-1.000000	38.689655	0.000000	-1.000000	-1.000000	306139.000000	1774294150.076476
-21904.695000	-16233.480000	-16938.720000	-28534.500000	-35396.820000	-53056.800000	-41447.970000	-9096.750000	-7.154719	-8.814077	-6.958736	-6.409570	-6.794106	-7.075356	-8.807480	-10.927568	-4.928980	-1.281840	-2.609460	0.791868	-0.161010	0.550719	-1.000000	-1.000000	-1.000000	-1.000000	-1.000000	-1.000000	-1.000000	38.689655	0.000000	-1.000000	-1.000000	306140.000000	1774294150.076487
-21895.425000	-16220.655000	-16923.375000	-28517.940000	-35379.990000	-53038.620000	-41436.315000	-9088.155000	-1.057483	-3.859822	-4.128023	-3.714863	-4.142871	-4.541458	-5.611950	-3.650495	-5.798800	1.571780	-4.135460	0.793516	-0.161132	0.548766	-1.000000	-1.000000	-1.000000	-1.000000	-1.000000	-1.000000	-1.000000	38.689655	0.000000	-1.000000	-1.000000	306141.000000	1774294150.081662
-21911.040000	-16227.990000	-16920.630000	-28514.160000	-35376.075000	-53032.995000	-41440.545000	-9099.090000	5.668626	3.340281	1.228512	1.616026	1.290975	0.897315	0.394984	5.512788	-5.798800	1.571780	-4.135460	0.793516	-0.161132	0.548766	-1.000000	-1.000000	-1.000000	-1.000000	-1.000000	-1.000000	-1.000000	38.689655	0.000000	-1.000000	-1.000000	306142.000000	1774294150.081672
-21918.420000	-16222.995000	-16907.760000	-28498.095000	-35359.290000	-53016.345000	-41441.760000	-9122.580000	7.399478	9.056203	7.102246	7.718743	7.733247	7.267758	6.243210	9.872865	-5.798800	1.571780	-4.135460	0.793516	-0.161132	0.548766	-1.000000	-1.000000	-1.000000	-1.000000	-1.000000	-1.000000	-1.000000	38.689655	0.000000	-1.000000	-1.000000	306143.000000	1774294150.081965
-21907.215000	-16210.755000	-16896.240000	-28484.640000	-35345.880000	-53002.620000	-41443.470000	-9153.090000	3.339667	10.778778	10.816541	11.703341	12.206761	11.538826	9.015195	6.111268	-5.798800	1.571780	-4.135460	0.793516	-0.161132	0.548766	-1.000000	-1.000000	-1.000000	-1.000000	-1.000000	-1.000000	-1.000000	38.689655	0.000000	-1.000000	-1.000000	306144.000000	1774294150.082048
-21884.490000	-16214.850000	-16911.360000	-28502.640000	-35365.635000	-53021.160000	-41448.285000	-9116.370000	-1.399042	8.912093	10.662129	11.445926	12.308447	11.510883	7.897216	-2.111417	-5.798800	1.571780	-4.135460	0.793516	-0.161132	0.548766	-1.000000	-1.000000	-1.000000	-1.000000	-1.000000	-1.000000	-1.000000	38.689655	0.000000	-1.000000	-1.000000	306145.000000	1774294150.089050
-21886.605000	-16239.825000	-16943.490000	-28538.145000	-35400.330000	-53054.460000	-41442.660000	-9049.545000	-2.039532	4.253060	5.563301	5.533918	6.350898	5.889111	3.904091	-6.260118	-5.798800	1.571780	-4.135460	0.793516	-0.161132	0.548766	-1.000000	-1.000000	-1.000000	-1.000000	-1.000000	-1.000000	-1.000000	38.689655	0.000000	-1.000000	-1.000000	306146.000000	1774294150.089062
-21886.065000	-16226.820000	-16934.220000	-28529.055000	-35390.745000	-53048.655000	-41433.120000	-9039.330000	0.590570	-2.775136	-3.666412	-5.005362	-4.622960	-4.165033	-0.924398	-1.015715	-5.798800	1.571780	-4.135460	0.793516	-0.161132	0.548766	-1.000000	-1.000000	-1.000000	-1.000000	-1.000000	-1.000000	-1.000000	38.689655	0.000000	-1.000000	-1.000000	306147.000000	1774294150.094474
-21878.145000	-16206.750000	-16916.805000	-28511.505000	-35373.420000	-53037.090000	-41433.570000	-9056.160000	2.548148	-9.386644	-12.081565	-14.376521	-14.528831	-13.111456	-4.343861	9.184156	-5.798800	1.571780	-4.135460	0.793516	-0.161132	0.548766	-1.000000	-1.000000	-1.000000	-1.000000	-1.000000	-1.000000	-1.000000	38.689655	0.000000	-1.000000	-1.000000	306148.000000	1774294150.094486
-21870.135000	-16198.245000	-16905.600000	-28499.355000	-35362.305000	-53026.290000	-41431.680000	-9064.980000	2.016582	-11.355489	-13.849395	-16.013988	-16.532266	-14.914340	-5.380424	14.485079	-5.798800	1.571780	-4.135460	0.793516	-0.161132	0.548766	-1.000000	-1.000000	-1.000000	-1.000000	-1.000000	-1.000000	-1.000000	38.689655	0.000000	-1.000000	-1.000000	306149.000000	1774294150.097457
-21904.740000	-16230.600000	-16931.835000	-28525.365000	-35389.215000	-53049.105000	-41439.690000	-9089.235000	-0.634887	-8.067482	-8.545892	-9.530815	-10.167641	-9.297034	-4.769008	9.239569	-5.798800	1.571780	-4.135460	0.793516	-0.161132	0.548766	-1.000000	-1.000000	-1.000000	-1.000000	-1.000000	-1.000000	-1.000000	38.689655	0.000000	-1.000000	-1.000000	306150.000000	1774294150.097468
-21926.025000	-16234.965000	-16928.145000	-28519.290000	-35382.600000	-53040.510000	-41436.495000	-9111.915000	-5.085433	-3.271135	-1.239147	-0.652209	-1.205344	-1.421049	-3.597147	-4.240132	-4.394880	4.120200	-4.471180	0.796202	-0.163635	0.546202	-1.000000	-1.000000	-1.000000	-1.000000	-1.000000	-1.000000	-1.000000	38.689655	0.000000	-1.000000	-1.000000	306151.000000	1774294150.099371
-21926.430000	-16225.290000	-16914.600000	-28505.070000	-35367.345000	-53023.725000	-41435.010000	-9114.030000	-9.794982	-0.088035	3.559175	5.319954	5.014918	4.109288	-2.068016	-17.789008	-4.394880	4.120200	-4.471180	0.796202	-0.163635	0.546202	-1.000000	-1.000000	-1.000000	-1.000000	-1.000000	-1.000000	-1.000000	38.689655	0.000000	-1.000000	-1.000000	306152.000000	1774294150.099381
-21913.245000	-16227.630000	-16918.965000	-28508.625000	-35370.000000	-53024.175000	-41438.745000	-9098.820000	-11.294546	1.590764	5.213370	7.251655	7.337800	6.430754	-0.002269	-22.545455	-4.394880	4.120200	-4.471180	0.796202	-0.163635	0.546202	-1.000000	-1.000000	-1.000000	-1.000000	-1.000000	-1.000000	-1.000000	38.689655	0.000000	-1.000000	-1.000000	306153.000000	1774294150.109228
-21898.530000	-16239.465000	-16938.045000	-28530.630000	-35391.960000	-53045.100000	-41447.520000	-9084.105000	-7.223557	2.838085	4.973958	6.419873	6.940936	6.563798	1.966221	-15.855616	-4.394880	4.120200	-4.471180	0.796202	-0.163635	0.546202	-1.000000	-1.000000	-1.000000	-1.000000	-1.000000	-1.000000	-1.000000	38.689655	0.000000	-1.000000	-1.000000	306154.000000	1774294150.109239
-21890.610000	-16230.555000	-16936.380000	-28531.620000	-35393.130000	-53049.645000	-41445.765000	-9088.605000	1.284292	3.970827	3.916840	4.303571	5.077796	5.343273	2.583194	-3.530039	-4.394880	4.120200	-4.471180	0.796202	-0.163635	0.546202	-1.000000	-1.000000	-1.000000	-1.000000	-1.000000	-1.000000	-1.000000	38.689655	0.000000	-1.000000	-1.000000	306155.000000	1774294150.109250
-21896.280000	-16227.540000	-16933.635000	-28528.740000	-35390.295000	-53052.120000	-41443.785000	-9100.440000	10.038932	4.628124	2.609766	1.961896	2.602086	3.179060	1.488834	6.351395	-4.394880	4.120200	-4.471180	0.796202	-0.163635	0.546202	-1.000000	-1.000000	-1.000000	-1.000000	-1.000000	-1.000000	-1.000000	38.689655	0.000000	-1.000000	-1.000000	306156.000000	1774294150.109255
-21905.550000	-16238.025000	-16936.605000	-28530.900000	-35391.015000	-53054.055000	-41446.710000	-9100.665000	14.104274	3.775890	0.943769	-0.286673	-0.096917	0.298420	-0.254076	10.491130	-4.394880	4.120200	-4.471180	0.796202	-0.163635	0.546202	-1.000000	-1.000000	-1.000000	-1.000000	-1.000000	-1.000000	-1.000000	38.689655	0.000000	-1.000000	-1.000000	306157.000000	1774294150.111480
-21914.955000	-16241.760000	-16937.730000	-28531.035000	-35392.365000	-53053.695000	-41447.655000	-9099.495000	11.202203	0.923305	-1.196287	-2.349627	-2.611539	-2.701757	-1.336044	10.578466	-4.394880	4.120200	-4.471180	0.796202	-0.163635	0.546202	-1.000000	-1.000000	-1.000000	-1.000000	-1.000000	-1.000000	-1.000000	38.689655	0.000000	-1.000000	-1.000000	306158.000000	1774294150.111490
-21928.545000	-16240.275000	-16935.705000	-28527.795000	-35390.880000	-53049.960000	-41451.390000	-9115.470000	3.692029	-2.084136	-2.729583	-3.273501	-3.786092	-4.357957	-1.168584	9.217767	-4.394880	4.120200	-4.471180	0.796202	-0.163635	0.546202	-1.000000	-1.000000	-1.000000	-1.000000	-1.000000	-1.000000	-1.000000	38.689655	0.000000	-1.000000	-1.000000	306159.000000	1774294150.117108
-21947.355000	-16239.465000	-16927.200000	-28517.805000	-35380.350000	-53038.035000	-41450.895000	-9125.460000	-3.674302	-2.711117	-2.381960	-2.174021	-2.775503	-3.577065	-0.004327	7.388092	-4.394880	4.120200	-4.471180	0.796202	-0.163635	0.546202	-1.000000	-1.000000	-1.000000	-1.000000	-1.000000	-1.000000	-1.000000	38.689655	0.000000	-1.000000	-1.000000	306160.000000	1774294150.117122
-21936.510000	-16230.420000	-16918.605000	-28509.480000	-35372.655000	-53029.260000	-41442.885000	-9096.975000	-7.703843	-0.853264	-0.494225	0.184116	-0.411892	-1.076359	1.497343	5.197037	-2.044840	4.501700	-6.363420	0.798155	-0.164917	0.545287	-1.000000	-1.000000	-1.000000	-1.000000	-1.000000	-1.000000	-1.000000	38.689655	0.000000	-1.000000	-1.000000	306161.000000	1774294150.118576
-21919.365000	-16224.795000	-16919.685000	-28511.190000	-35374.095000	-53028.900000	-41430.465000	-9067.320000	-7.662090	1.805693	1.731458	2.408883	1.925498	1.691778	3.055626	3.155219	-2.044840	4.501700	-6.363420	0.798155	-0.164917	0.545287	-1.000000	-1.000000	-1.000000	-1.000000	-1.000000	-1.000000	-1.000000	38.689655	0.000000	-1.000000	-1.000000	306162.000000	1774294150.118582
-21880.890000	-16209.135000	-16914.555000	-28507.005000	-35369.640000	-53026.470000	-41421.420000	-9055.350000	-3.935723	4.075716	3.633043	4.000366	3.766295	4.046609	4.581796	1.324824	-2.044840	4.501700	-6.363420	0.798155	-0.164917	0.545287	-1.000000	-1.000000	-1.000000	-1.000000	-1.000000	-1.000000	-1.000000	38.689655	0.000000	-1.000000	-1.000000	306163.000000	1774294150.123172
-21860.235000	-16208.730000	-16923.240000	-28516.410000	-35379.180000	-53040.645000	-41424.075000	-9062.370000	2.394214	5.104218	4.468845	4.535996	4.654188	5.303519	5.154749	-1.097539	-2.044840	4.501700	-6.363420	0.798155	-0.164917	0.545287	-1.000000	-1.000000	-1.000000	-1.000000	-1.000000	-1.000000	-1.000000	38.689655	0.000000	-1.000000	-1.000000	306164.000000	1774294150.123178
-21880.890000	-16211.025000	-16923.015000	-28516.860000	-35380.485000	-53044.920000	-41425.785000	-9070.425000	8.439295	3.693972	2.967758	2.879785	3.310379	4.053027	3.410429	-4.300625	-2.044840	4.501700	-6.363420	0.798155	-0.164917	0.545287	-1.000000	-1.000000	-1.000000	-1.000000	-1.000000	-1.000000	-1.000000	38.689655	0.000000	-1.000000	-1.000000	306165.000000	1774294150.125810
-21900.915000	-16221.960000	-16918.740000	-28511.640000	-35374.950000	-53039.880000	-41429.790000	-9084.330000	9.787700	-0.390264	-0.856698	-1.038687	-0.494423	0.051818	-0.683423	-7.455510	-2.044840	4.501700	-6.363420	0.798155	-0.164917	0.545287	-1.000000	-1.000000	-1.000000	-1.000000	-1.000000	-1.000000	-1.000000	38.689655	0.000000	-1.000000	-1.000000	306166.000000	1774294150.125822
-21899.790000	-16233.525000	-16923.240000	-28517.760000	-35381.205000	-53042.805000	-41433.525000	-9084.645000	4.671317	-5.431663	-4.801395	-5.103856	-4.637579	-4.502392	-5.303834	-9.334898	-2.044840	4.501700	-6.363420	0.798155	-0.164917	0.545287	-1.000000	-1.000000	-1.000000	-1.000000	-1.000000	-1.000000	-1.000000	38.689655	0.000000	-1.000000	-1.000000	306167.000000	1774294150.132556
-21888.450000	-16219.395000	-16920.000000	-28514.880000	-35377.470000	-53035.020000	-41427.180000	-9072.225000	-3.045545	-8.692063	-6.579647	-7.057478	-6.704254	-6.958896	-7.998676	-8.194089	-2.044840	4.501700	-6.363420	0.798155	-0.164917	0.545287	-1.000000	-1.000000	-1.000000	-1.000000	-1.000000	-1.000000	-1.000000	38.689655	0.000000	-1.000000	-1.000000	306168.000000	1774294150.132566
-21881.835000	-16207.650000	-16919.550000	-28515.060000	-35378.235000	-53035.560000	-41435.370000	-9082.080000	-7.524356	-8.020466	-5.778671	-6.447325	-6.165703	-6.517786	-7.430157	-3.345102	-2.044840	4.501700	-6.363420	0.798155	-0.164917	0.545287	-1.000000	-1.000000	-1.000000	-1.000000	-1.000000	-1.000000	-1.000000	38.689655	0.000000	-1.000000	-1.000000	306169.000000	1774294150.134311
-21885.390000	-16216.020000	-16922.655000	-28516.230000	-35380.080000	-53038.080000	-41443.155000	-9096.795000	-6.984019	-3.684799	-3.446423	-4.130973	-3.963695	-4.161780	-4.528691	2.028917	-2.044840	4.501700	-6.363420	0.798155	-0.164917	0.545287	-1.000000	-1.000000	-1.000000	-1.000000	-1.000000	-1.000000	-1.000000	38.689655	0.000000	-1.000000	-1.000000	306170.000000	1774294150.134323
-21891.780000	-16206.480000	-16908.300000	-28500.345000	-35362.845000	-53024.715000	-41440.455000	-9120.690000	-4.626319	1.533006	-0.449415	-0.716373	-0.765528	-0.896236	-1.432935	2.806275	-2.731540	3.097780	-8.621900	0.799375	-0.163818	0.546080	-1.000000	-1.000000	-1.000000	-1.000000	-1.000000	-1.000000	-1.000000	38.689655	0.000000	-1.000000	-1.000000	306171.000000	1774294150.138455
-21903.120000	-16213.365000	-16914.330000	-28507.950000	-35370.540000	-53036.595000	-41448.285000	-9134.685000	-4.399980	4.707480	2.848192	3.414666	3.140992	2.795590	0.591420	-2.158490	-2.731540	3.097780	-8.621900	0.799375	-0.163818	0.546080	-1.000000	-1.000000	-1.000000	-1.000000	-1.000000	-1.000000	-1.000000	38.689655	0.000000	-1.000000	-1.000000	306172.000000	1774294150.138461
-21918.330000	-16245.180000	-16944.165000	-28539.720000	-35402.490000	-53068.545000	-41454.630000	-9101.745000	-6.849891	4.207914	5.034158	6.358318	5.978147	5.405654	1.528179	-7.473480	-2.731540	3.097780	-8.621900	0.799375	-0.163818	0.546080	-1.000000	-1.000000	-1.000000	-1.000000	-1.000000	-1.000000	-1.000000	38.689655	0.000000	-1.000000	-1.000000	306173.000000	1774294150.142345
-21922.695000	-16260.255000	-16960.365000	-28557.450000	-35420.580000	-53085.150000	-41451.930000	-9068.490000	-8.489209	0.174529	3.872304	5.279284	4.932973	4.601958	2.016655	-5.547553	-2.731540	3.097780	-8.621900	0.799375	-0.163818	0.546080	-1.000000	-1.000000	-1.000000	-1.000000	-1.000000	-1.000000	-1.000000	38.689655	0.000000	-1.000000	-1.000000	306174.000000	1774294150.142355
-21915.630000	-16252.920000	-16952.490000	-28549.080000	-35412.930000	-53076.555000	-41452.965000	-9070.875000	-5.165896	-4.404772	-0.454732	0.235457	-0.002718	0.416781	2.837024	5.333510	-2.731540	3.097780	-8.621900	0.799375	-0.163818	0.546080	-1.000000	-1.000000	-1.000000	-1.000000	-1.000000	-1.000000	-1.000000	38.689655	0.000000	-1.000000	-1.000000	306175.000000	1774294150.148039
-21924.405000	-16255.935000	-16949.205000	-28543.815000	-35407.530000	-53067.645000	-41456.745000	-9092.970000	3.293926	-5.339569	-4.301647	-4.621380	-4.748613	-3.626864	4.030030	17.768071	-2.731540	3.097780	-8.621900	0.799375	-0.163818	0.546080	-1.000000	-1.000000	-1.000000	-1.000000	-1.000000	-1.000000	-1.000000	38.689655	0.000000	-1.000000	-1.000000	306176.000000	1774294150.148050
-21937.590000	-16268.985000	-16955.370000	-28547.595000	-35413.290000	-53070.570000	-41468.490000	-9110.205000	12.014074	-1.879192	-4.470392	-5.379640	-5.445683	-4.205170	4.506534	21.590528	-2.731540	3.097780	-8.621900	0.799375	-0.163818	0.546080	-1.000000	-1.000000	-1.000000	-1.000000	-1.000000	-1.000000	-1.000000	38.689655	0.000000	-1.000000	-1.000000	306177.000000	1774294150.149921
-21933.720000	-16274.115000	-16963.695000	-28558.665000	-35425.395000	-53082.090000	-41477.220000	-9111.690000	15.340081	2.583920	-1.456079	-2.261891	-2.356929	-1.596594	3.189204	13.187612	-2.731540	3.097780	-8.621900	0.799375	-0.163818	0.546080	-1.000000	-1.000000	-1.000000	-1.000000	-1.000000	-1.000000	-1.000000	38.689655	0.000000	-1.000000	-1.000000	306178.000000	1774294150.149931
-21936.870000	-16281.405000	-16970.490000	-28565.685000	-35432.820000	-53091.045000	-41480.910000	-9111.240000	11.748496	4.860547	2.011419	1.633509	1.456148	1.474433	0.378423	-1.938847	-2.731540	3.097780	-8.621900	0.799375	-0.163818	0.546080	-1.000000	-1.000000	-1.000000	-1.000000	-1.000000	-1.000000	-1.000000	38.689655	0.000000	-1.000000	-1.000000	306179.000000	1774294150.164215
-21925.305000	-16266.510000	-16957.935000	-28553.130000	-35418.600000	-53080.965000	-41468.580000	-9098.370000	4.219496	4.619514	3.933427	3.837076	3.651472	3.009960	-2.271078	-14.288823	-2.731540	3.097780	-8.621900	0.799375	-0.163818	0.546080	-1.000000	-1.000000	-1.000000	-1.000000	-1.000000	-1.000000	-1.000000	38.689655	0.000000	-1.000000	-1.000000	306180.000000	1774294150.164230
-21931.920000	-16261.200000	-16959.465000	-28556.280000	-35421.120000	-53086.680000	-41465.970000	-9108.630000	-2.752998	3.675684	4.421069	4.387668	4.390002	3.382054	-2.866441	-17.561419	-3.952340	1.587040	-7.355320	0.802000	-0.159301	0.547423	-1.000000	-1.000000	-1.000000	-1.000000	-1.000000	-1.000000	-1.000000	38.689655	0.000000	-1.000000	-1.000000	306181.000000	1774294150.164244
-21950.460000	-16269.480000	-16967.565000	-28566.990000	-35431.335000	-53096.895000	-41472.900000	-9129.330000	-6.269740	3.907009	4.658358	4.615002	4.990778	3.964707	-1.030962	-13.046825	-3.952340	1.587040	-7.355320	0.802000	-0.159301	0.547423	-1.000000	-1.000000	-1.000000	-1.000000	-1.000000	-1.000000	-1.000000	38.689655	0.000000	-1.000000	-1.000000	306182.000000	1774294150.164249
-21959.955000	-16269.435000	-16961.220000	-28559.475000	-35422.470000	-53088.030000	-41473.890000	-9139.320000	-6.368125	5.059116	4.842026	4.797605	5.558161	4.786242	1.421559	-6.895818	-3.952340	1.587040	-7.355320	0.802000	-0.159301	0.547423	-1.000000	-1.000000	-1.000000	-1.000000	-1.000000	-1.000000	-1.000000	38.689655	0.000000	-1.000000	-1.000000	306183.000000	1774294150.164255
-21965.580000	-16261.470000	-16943.940000	-28538.325000	-35401.590000	-53067.420000	-41474.115000	-9161.100000	-4.773724	5.151346	4.201625	4.256248	5.199412	4.772769	2.441818	-2.984979	-3.952340	1.587040	-7.355320	0.802000	-0.159301	0.547423	-1.000000	-1.000000	-1.000000	-1.000000	-1.000000	-1.000000	-1.000000	38.689655	0.000000	-1.000000	-1.000000	306184.000000	1774294150.164260
-21974.445000	-16264.170000	-16937.595000	-28528.740000	-35391.510000	-53057.430000	-41485.185000	-9197.370000	-2.851953	2.924531	2.438993	2.791577	3.582039	3.361525	1.527754	-0.941195	-3.952340	1.587040	-7.355320	0.802000	-0.159301	0.547423	-1.000000	-1.000000	-1.000000	-1.000000	-1.000000	-1.000000	-1.000000	38.689655	0.000000	-1.000000	-1.000000	306185.000000	1774294150.169849
-21979.080000	-16271.820000	-16944.615000	-28534.050000	-35396.865000	-53061.165000	-41484.240000	-9194.175000	-1.077371	-1.199038	-0.137943	0.625203	0.969046	0.756748	-0.446629	0.863479	-3.952340	1.587040	-7.355320	0.802000	-0.159301	0.547423	-1.000000	-1.000000	-1.000000	-1.000000	-1.000000	-1.000000	-1.000000	38.689655	0.000000	-1.000000	-1.000000	306186.000000	1774294150.169860
-21948.435000	-16265.160000	-16946.460000	-28536.075000	-35397.540000	-53058.780000	-41455.665000	-9132.480000	0.741688	-5.546800	-3.064462	-2.039931	-2.209304	-2.328833	-1.584547	4.424164	-3.952340	1.587040	-7.355320	0.802000	-0.159301	0.547423	-1.000000	-1.000000	-1.000000	-1.000000	-1.000000	-1.000000	-1.000000	38.689655	0.000000	-1.000000	-1.000000	306187.000000	1774294150.169967
-21914.370000	-16256.970000	-16953.300000	-28547.730000	-35411.670000	-53075.115000	-41458.590000	-9098.820000	3.481761	-7.982106	-5.744067	-4.923129	-5.488318	-5.102978	-0.418159	11.387760	-3.952340	1.587040	-7.355320	0.802000	-0.159301	0.547423	-1.000000	-1.000000	-1.000000	-1.000000	-1.000000	-1.000000	-1.000000	38.689655	0.000000	-1.000000	-1.000000	306188.000000	1774294150.169972
-21921.345000	-16281.090000	-16990.290000	-28591.290000	-35457.660000	-53120.745000	-41480.415000	-9078.120000	6.977261	-7.843245	-8.064041	-8.144740	-9.046330	-7.815627	1.494988	19.622073	-3.952340	1.587040	-7.355320	0.802000	-0.159301	0.547423	-1.000000	-1.000000	-1.000000	-1.000000	-1.000000	-1.000000	-1.000000	38.689655	0.000000	-1.000000	-1.000000	306189.000000	1774294150.179206
-21918.375000	-16260.795000	-16973.415000	-28573.470000	-35440.380000	-53106.885000	-41467.365000	-9078.570000	8.808954	-6.085489	-9.659760	-11.069377	-12.317295	-10.397902	1.222928	23.161674	-3.952340	1.587040	-7.355320	0.802000	-0.159301	0.547423	-1.000000	-1.000000	-1.000000	-1.000000	-1.000000	-1.000000	-1.000000	38.689655	0.000000	-1.000000	-1.000000	306190.000000	1774294150.179217
-21908.925000	-16253.145000	-16965.855000	-28565.550000	-35433.090000	-53098.245000	-41461.965000	-9084.915000	7.209475	-2.772261	-8.288007	-10.552840	-11.963803	-10.093207	-1.073116	17.335356	-4.898460	0.610400	-7.126420	0.805418	-0.155761	0.549071	-1.000000	-1.000000	-1.000000	-1.000000	-1.000000	-1.000000	-1.000000	38.689655	0.000000	-1.000000	-1.000000	306191.000000	1774294150.179229
-21915.900000	-16267.770000	-16969.950000	-28568.835000	-35435.970000	-53096.760000	-41467.590000	-9094.230000	2.912442	1.897591	-2.698274	-4.644036	-5.767901	-4.786597	-2.893419	3.002342	-4.898460	0.610400	-7.126420	0.805418	-0.155761	0.549071	-1.000000	-1.000000	-1.000000	-1.000000	-1.000000	-1.000000	-1.000000	38.689655	0.000000	-1.000000	-1.000000	306192.000000	1774294150.179234
-21937.995000	-16273.755000	-16968.240000	-28564.560000	-35431.830000	-53090.280000	-41472.180000	-9105.435000	-2.774587	5.299337	4.196975	3.522735	3.168330	2.969396	-3.064229	-13.463743	-4.898460	0.610400	-7.126420	0.805418	-0.155761	0.549071	-1.000000	-1.000000	-1.000000	-1.000000	-1.000000	-1.000000	-1.000000	38.689655	0.000000	-1.000000	-1.000000	306193.000000	1774294150.183394
-21937.410000	-16259.760000	-16956.450000	-28552.320000	-35420.940000	-53079.075000	-41468.490000	-9106.470000	-8.558090	5.365602	8.537149	9.283615	9.898831	8.823312	-1.900383	-24.106012	-4.898460	0.610400	-7.126420	0.805418	-0.155761	0.549071	-1.000000	-1.000000	-1.000000	-1.000000	-1.000000	-1.000000	-1.000000	38.689655	0.000000	-1.000000	-1.000000	306194.000000	1774294150.183403
-21940.830000	-16257.330000	-16952.130000	-28546.515000	-35413.965000	-53074.170000	-41466.690000	-9117.315000	-12.419623	3.366334	9.420120	11.062872	12.420400	10.891522	-0.090695	-25.180566	-4.898460	0.610400	-7.126420	0.805418	-0.155761	0.549071	-1.000000	-1.000000	-1.000000	-1.000000	-1.000000	-1.000000	-1.000000	38.689655	0.000000	-1.000000	-1.000000	306195.000000	1774294150.188403
-21936.780000	-16258.815000	-16952.625000	-28545.615000	-35412.120000	-53074.170000	-41466.240000	-9120.780000	-13.018953	1.352025	7.943600	9.791833	11.408083	9.674554	1.148592	-19.638086	-4.898460	0.610400	-7.126420	0.805418	-0.155761	0.549071	-1.000000	-1.000000	-1.000000	-1.000000	-1.000000	-1.000000	-1.000000	38.689655	0.000000	-1.000000	-1.000000	306196.000000	1774294150.188412
-21947.490000	-16267.680000	-16961.895000	-28555.380000	-35422.470000	-53087.445000	-41478.390000	-9143.820000	-10.809820	-0.328017	5.051054	6.681306	8.104906	6.388660	0.857899	-12.939442	-4.898460	0.610400	-7.126420	0.805418	-0.155761	0.549071	-1.000000	-1.000000	-1.000000	-1.000000	-1.000000	-1.000000	-1.000000	38.689655	0.000000	-1.000000	-1.000000	306197.000000	1774294150.190812
-21962.385000	-16277.760000	-16968.780000	-28562.355000	-35428.140000	-53095.590000	-41485.725000	-9177.705000	-6.747516	-1.992348	1.477235	2.767793	3.731296	2.405042	-0.498455	-7.916050	-4.898460	0.610400	-7.126420	0.805418	-0.155761	0.549071	-1.000000	-1.000000	-1.000000	-1.000000	-1.000000	-1.000000	-1.000000	38.689655	0.000000	-1.000000	-1.000000	306198.000000	1774294150.190821
-21967.515000	-16284.600000	-16975.395000	-28570.140000	-35437.545000	-53102.745000	-41490.945000	-9173.520000	-1.405240	-3.585468	-2.184374	-1.354893	-0.955856	-1.458094	-1.836210	-3.697627	-4.898460	0.610400	-7.126420	0.805418	-0.155761	0.549071	-1.000000	-1.000000	-1.000000	-1.000000	-1.000000	-1.000000	-1.000000	38.689655	0.000000	-1.000000	-1.000000	306199.000000	1774294150.199047
-21955.365000	-16288.335000	-16981.965000	-28577.700000	-35444.970000	-53108.280000	-41483.880000	-9121.185000	4.615712	-4.684557	-5.681829	-5.634277	-5.841117	-5.252596	-2.348268	3.213294	-4.898460	0.610400	-7.126420	0.805418	-0.155761	0.549071	-1.000000	-1.000000	-1.000000	-1.000000	-1.000000	-1.000000	-1.000000	38.689655	0.000000	-1.000000	-1.000000	306200.000000	1774294150.199057
-21931.245000	-16267.320000	-16958.835000	-28552.455000	-35420.580000	-53082.135000	-41466.645000	-9081.540000	10.804061	-4.000282	-7.958019	-8.984206	-9.774729	-8.260293	-1.060674	15.533464	-4.837420	-1.464960	-5.127360	0.809324	-0.151672	0.548705	-1.000000	-1.000000	-1.000000	-1.000000	-1.000000	-1.000000	-1.000000	38.689655	0.000000	-1.000000	-1.000000	306201.000000	1774294150.199068
-21943.215000	-16281.045000	-16963.380000	-28554.750000	-35423.820000	-53082.405000	-41476.320000	-9092.295000	16.192583	-0.585251	-7.278294	-9.232285	-10.431055	-8.585530	2.312365	29.914719	-4.837420	-1.464960	-5.127360	0.809324	-0.151672	0.548705	-1.000000	-1.000000	-1.000000	-1.000000	-1.000000	-1.000000	-1.000000	38.689655	0.000000	-1.000000	-1.000000	306202.000000	1774294150.199073
-21920.940000	-16270.740000	-16960.725000	-28552.140000	-35421.255000	-53080.335000	-41472.630000	-9083.700000	18.276933	3.851094	-3.715314	-5.938784	-7.208448	-5.679285	5.793836	37.039370	-4.837420	-1.464960	-5.127360	0.809324	-0.151672	0.548705	-1.000000	-1.000000	-1.000000	-1.000000	-1.000000	-1.000000	-1.000000	38.689655	0.000000	-1.000000	-1.000000	306203.000000	1774294150.201779
-21926.880000	-16267.815000	-16959.420000	-28550.115000	-35417.925000	-53076.195000	-41464.575000	-9100.890000	14.632905	6.443676	0.615983	-1.076209	-2.028497	-1.191761	6.676333	29.423420	-4.837420	-1.464960	-5.127360	0.809324	-0.151672	0.548705	-1.000000	-1.000000	-1.000000	-1.000000	-1.000000	-1.000000	-1.000000	38.689655	0.000000	-1.000000	-1.000000	306204.000000	1774294150.201790
-21930.885000	-16261.155000	-16956.900000	-28549.755000	-35415.855000	-53075.790000	-41459.670000	-9106.740000	5.254455	6.178190	3.874614	3.213874	2.884651	3.003578	4.425450	8.199547	-4.837420	-1.464960	-5.127360	0.809324	-0.151672	0.548705	-1.000000	-1.000000	-1.000000	-1.000000	-1.000000	-1.000000	-1.000000	38.689655	0.000000	-1.000000	-1.000000	306205.000000	1774294150.209581
-21938.850000	-16251.795000	-16951.680000	-28546.245000	-35411.400000	-53075.205000	-41454.135000	-9104.175000	-6.700502	4.168088	5.655465	6.042930	6.469870	6.069421	0.965951	-16.758817	-4.837420	-1.464960	-5.127360	0.809324	-0.151672	0.548705	-1.000000	-1.000000	-1.000000	-1.000000	-1.000000	-1.000000	-1.000000	38.689655	0.000000	-1.000000	-1.000000	306206.000000	1774294150.209593
-21938.580000	-16245.045000	-16941.105000	-28533.870000	-35398.935000	-53063.865000	-41448.825000	-9107.955000	-15.848341	2.174933	6.363090	7.461664	8.505882	7.774797	-1.449084	-32.886829	-4.837420	-1.464960	-5.127360	0.809324	-0.151672	0.548705	-1.000000	-1.000000	-1.000000	-1.000000	-1.000000	-1.000000	-1.000000	38.689655	0.000000	-1.000000	-1.000000	306207.000000	1774294150.213070
-21923.865000	-16251.390000	-16949.250000	-28542.690000	-35406.990000	-53069.130000	-41458.095000	-9115.425000	-17.898512	0.786839	5.925726	7.311899	8.561153	7.624925	-2.371697	-33.973750	-4.837420	-1.464960	-5.127360	0.809324	-0.151672	0.548705	-1.000000	-1.000000	-1.000000	-1.000000	-1.000000	-1.000000	-1.000000	38.689655	0.000000	-1.000000	-1.000000	306208.000000	1774294150.213081
-21925.485000	-16266.105000	-16963.920000	-28559.070000	-35423.865000	-53080.740000	-41471.235000	-9115.380000	-12.769253	-1.051170	3.336037	4.591166	5.553526	4.639091	-3.262180	-23.732574	-4.837420	-1.464960	-5.127360	0.809324	-0.151672	0.548705	-1.000000	-1.000000	-1.000000	-1.000000	-1.000000	-1.000000	-1.000000	38.689655	0.000000	-1.000000	-1.000000	306209.000000	1774294150.213976
-21927.195000	-16264.575000	-16957.575000	-28552.770000	-35417.835000	-53072.910000	-41471.820000	-9109.260000	-4.314522	-4.263201	-1.864834	-1.200557	-0.874900	-1.409664	-5.263683	-9.956632	-4.837420	-1.464960	-5.127360	0.809324	-0.151672	0.548705	-1.000000	-1.000000	-1.000000	-1.000000	-1.000000	-1.000000	-1.000000	38.689655	0.000000	-1.000000	-1.000000	306210.000000	1774294150.213987
-21918.825000	-16256.205000	-16941.330000	-28533.420000	-35399.655000	-53056.395000	-41465.925000	-9100.980000	3.067683	-7.544174	-7.406313	-7.611666	-8.000274	-7.976181	-7.068429	2.491941	-0.930860	-3.402980	-5.585160	0.811827	-0.154968	0.549620	-1.000000	-1.000000	-1.000000	-1.000000	-1.000000	-1.000000	-1.000000	38.689655	0.000000	-1.000000	-1.000000	306211.000000	1774294150.224355
-21929.265000	-16269.795000	-16945.470000	-28536.345000	-35403.165000	-53061.435000	-41469.165000	-9111.150000	6.832493	-8.497992	-9.512319	-10.336585	-11.265118	-10.924399	-6.369742	11.797471	-0.930860	-3.402980	-5.585160	0.811827	-0.154968	0.549620	-1.000000	-1.000000	-1.000000	-1.000000	-1.000000	-1.000000	-1.000000	38.689655	0.000000	-1.000000	-1.000000	306212.000000	1774294150.224367
-21957.795000	-16285.770000	-16962.705000	-28554.165000	-35419.860000	-53079.480000	-41475.060000	-9130.590000	5.981155	-6.806523	-7.168374	-7.965073	-9.128452	-8.909603	-3.065268	16.282219	-0.930860	-3.402980	-5.585160	0.811827	-0.154968	0.549620	-1.000000	-1.000000	-1.000000	-1.000000	-1.000000	-1.000000	-1.000000	38.689655	0.000000	-1.000000	-1.000000	306213.000000	1774294150.224380
-21948.975000	-16277.310000	-16968.330000	-28561.005000	-35428.455000	-53090.640000	-41475.060000	-9130.140000	1.605186	-3.859560	-2.852869	-3.088157	-4.154486	-4.273336	0.927517	14.970415	-0.930860	-3.402980	-5.585160	0.811827	-0.154968	0.549620	-1.000000	-1.000000	-1.000000	-1.000000	-1.000000	-1.000000	-1.000000	38.689655	0.000000	-1.000000	-1.000000	306214.000000	1774294150.224385
-21930.615000	-16266.555000	-16963.515000	-28557.945000	-35426.520000	-53090.280000	-41470.290000	-9113.490000	-2.216063	-0.222179	0.850041	1.258338	0.526750	0.233976	4.048092	9.797841	-0.930860	-3.402980	-5.585160	0.811827	-0.154968	0.549620	-1.000000	-1.000000	-1.000000	-1.000000	-1.000000	-1.000000	-1.000000	38.689655	0.000000	-1.000000	-1.000000	306215.000000	1774294150.226100
-21943.755000	-16265.835000	-16955.775000	-28547.370000	-35415.180000	-53079.165000	-41470.065000	-9124.470000	-1.888553	4.061752	3.253449	3.966520	3.672027	3.522363	5.792177	4.419538	-0.930860	-3.402980	-5.585160	0.811827	-0.154968	0.549620	-1.000000	-1.000000	-1.000000	-1.000000	-1.000000	-1.000000	-1.000000	38.689655	0.000000	-1.000000	-1.000000	306216.000000	1774294150.226112
-21949.965000	-16273.710000	-16959.600000	-28550.205000	-35416.620000	-53078.805000	-41476.320000	-9135.540000	1.316738	7.900363	4.846935	5.476575	5.688656	5.796707	6.124763	0.414452	-0.930860	-3.402980	-5.585160	0.811827	-0.154968	0.549620	-1.000000	-1.000000	-1.000000	-1.000000	-1.000000	-1.000000	-1.000000	38.689655	0.000000	-1.000000	-1.000000	306217.000000	1774294150.230363
-21939.390000	-16274.520000	-16961.940000	-28553.805000	-35421.660000	-53079.615000	-41477.400000	-9130.590000	3.678445	9.531173	5.757297	6.124918	6.869694	7.094492	5.120813	-3.005012	-0.930860	-3.402980	-5.585160	0.811827	-0.154968	0.549620	-1.000000	-1.000000	-1.000000	-1.000000	-1.000000	-1.000000	-1.000000	38.689655	0.000000	-1.000000	-1.000000	306218.000000	1774294150.230371
-21940.785000	-16274.070000	-16957.980000	-28548.495000	-35416.440000	-53072.865000	-41475.555000	-9144.630000	3.819641	7.948287	5.199422	5.211757	6.325415	6.556545	3.046266	-6.082025	-0.930860	-3.402980	-5.585160	0.811827	-0.154968	0.549620	-1.000000	-1.000000	-1.000000	-1.000000	-1.000000	-1.000000	-1.000000	38.689655	0.000000	-1.000000	-1.000000	306219.000000	1774294150.235681
-21943.530000	-16279.200000	-16963.245000	-28553.130000	-35420.175000	-53078.130000	-41481.405000	-9143.685000	2.381248	3.622835	2.607745	2.182198	3.337878	3.641551	0.387369	-7.876458	-0.930860	-3.402980	-5.585160	0.811827	-0.154968	0.549620	-1.000000	-1.000000	-1.000000	-1.000000	-1.000000	-1.000000	-1.000000	38.689655	0.000000	-1.000000	-1.000000	306220.000000	1774294150.235692
-21928.140000	-16273.665000	-16963.245000	-28554.480000	-35422.155000	-53081.235000	-41476.365000	-9104.805000	0.567983	-1.442908	-1.079782	-1.902018	-1.030586	-0.600083	-2.186978	-6.611656	-1.739640	-5.493600	-3.647140	0.815183	-0.150024	0.550475	-1.000000	-1.000000	-1.000000	-1.000000	-1.000000	-1.000000	-1.000000	38.689655	0.000000	-1.000000	-1.000000	306221.000000	1774294150.237823
-21919.050000	-16264.755000	-16961.760000	-28554.570000	-35422.965000	-53085.240000	-41471.010000	-9091.260000	0.215878	-4.519095	-3.603253	-4.600248	-4.270114	-3.840092	-3.626070	-0.605722	-1.739640	-5.493600	-3.647140	0.815183	-0.150024	0.550475	-1.000000	-1.000000	-1.000000	-1.000000	-1.000000	-1.000000	-1.000000	38.689655	0.000000	-1.000000	-1.000000	306222.000000	1774294150.237833
-21912.615000	-16249.410000	-16949.115000	-28542.105000	-35409.780000	-53075.250000	-41460.390000	-9086.400000	1.766120	-4.248104	-3.215544	-4.020519	-4.318251	-4.125285	-3.057047	8.078327	-1.739640	-5.493600	-3.647140	0.815183	-0.150024	0.550475	-1.000000	-1.000000	-1.000000	-1.000000	-1.000000	-1.000000	-1.000000	38.689655	0.000000	-1.000000	-1.000000	306223.000000	1774294150.244816
-21923.595000	-16247.430000	-16938.315000	-28529.820000	-35396.460000	-53061.570000	-41456.655000	-9099.090000	2.870847	-1.818199	-0.362003	-0.602284	-1.305558	-1.493411	-0.877116	13.292314	-1.739640	-5.493600	-3.647140	0.815183	-0.150024	0.550475	-1.000000	-1.000000	-1.000000	-1.000000	-1.000000	-1.000000	-1.000000	38.689655	0.000000	-1.000000	-1.000000	306224.000000	1774294150.244828
-21936.690000	-16252.020000	-16937.640000	-28527.435000	-35393.400000	-53056.665000	-41459.715000	-9119.745000	1.069265	0.406256	2.742696	3.218839	2.517481	2.038426	1.387129	10.382804	-1.739640	-5.493600	-3.647140	0.815183	-0.150024	0.550475	-1.000000	-1.000000	-1.000000	-1.000000	-1.000000	-1.000000	-1.000000	38.689655	0.000000	-1.000000	-1.000000	306225.000000	1774294150.247169
-21947.445000	-16270.245000	-16956.090000	-28546.830000	-35415.315000	-53073.135000	-41474.295000	-9136.080000	-3.512694	0.737436	3.740426	4.739823	4.296251	3.808260	2.163860	0.255669	-1.739640	-5.493600	-3.647140	0.815183	-0.150024	0.550475	-1.000000	-1.000000	-1.000000	-1.000000	-1.000000	-1.000000	-1.000000	38.689655	0.000000	-1.000000	-1.000000	306226.000000	1774294150.247179
-21948.750000	-16287.345000	-16971.840000	-28562.130000	-35429.625000	-53082.630000	-41479.695000	-9127.665000	-8.412137	-1.309889	1.303756	2.379605	2.172376	2.004362	0.710534	-11.394917	-1.739640	-5.493600	-3.647140	0.815183	-0.150024	0.550475	-1.000000	-1.000000	-1.000000	-1.000000	-1.000000	-1.000000	-1.000000	38.689655	0.000000	-1.000000	-1.000000	306227.000000	1774294150.249799
-21932.370000	-16273.260000	-16961.805000	-28552.095000	-35419.320000	-53072.010000	-41472.270000	-9124.200000	-10.327300	-4.548488	-3.649477	-2.979589	-3.048880	-2.686716	-2.095109	-17.540062	-1.739640	-5.493600	-3.647140	0.815183	-0.150024	0.550475	-1.000000	-1.000000	-1.000000	-1.000000	-1.000000	-1.000000	-1.000000	38.689655	0.000000	-1.000000	-1.000000	306228.000000	1774294150.249812
-21929.040000	-16264.980000	-16957.890000	-28550.295000	-35417.205000	-53073.225000	-41473.890000	-9129.375000	-7.151846	-5.975393	-7.587325	-7.633611	-7.593202	-6.813831	-4.046232	-14.840627	-1.739640	-5.493600	-3.647140	0.815183	-0.150024	0.550475	-1.000000	-1.000000	-1.000000	-1.000000	-1.000000	-1.000000	-1.000000	38.689655	0.000000	-1.000000	-1.000000	306229.000000	1774294150.255100
-21938.265000	-16257.015000	-16946.460000	-28538.685000	-35404.605000	-53065.125000	-41460.570000	-9119.295000	-0.261603	-3.385644	-7.025426	-7.759370	-7.606082	-6.925322	-3.527810	-6.104996	-1.739640	-5.493600	-3.647140	0.815183	-0.150024	0.550475	-1.000000	-1.000000	-1.000000	-1.000000	-1.000000	-1.000000	-1.000000	38.689655	0.000000	-1.000000	-1.000000	306230.000000	1774294150.255109
-21962.430000	-16276.095000	-16950.330000	-28541.205000	-35404.830000	-53069.355000	-41457.555000	-9121.140000	5.720757	1.584662	-1.913324	-2.881189	-2.587170	-2.615303	-0.784446	3.135634	-1.892240	-3.998120	0.167860	0.824827	-0.147094	0.552123	-1.000000	-1.000000	-1.000000	-1.000000	-1.000000	-1.000000	-1.000000	38.689655	0.000000	-1.000000	-1.000000	306231.000000	1774294150.259223
-21969.855000	-16277.085000	-16947.540000	-28534.410000	-35397.495000	-53061.705000	-41465.205000	-9164.790000	6.781089	4.695732	4.116070	3.610259	4.074447	3.161269	2.232443	8.421835	-1.892240	-3.998120	0.167860	0.824827	-0.147094	0.552123	-1.000000	-1.000000	-1.000000	-1.000000	-1.000000	-1.000000	-1.000000	38.689655	0.000000	-1.000000	-1.000000	306232.000000	1774294150.259233
-21946.230000	-16244.280000	-16932.240000	-28519.965000	-35384.130000	-53048.520000	-41467.005000	-9164.700000	3.756308	4.248177	7.178335	7.566933	8.074233	6.710345	3.290919	8.022490	-1.892240	-3.998120	0.167860	0.824827	-0.147094	0.552123	-1.000000	-1.000000	-1.000000	-1.000000	-1.000000	-1.000000	-1.000000	38.689655	0.000000	-1.000000	-1.000000	306233.000000	1774294150.266637
-21926.700000	-16226.865000	-16922.115000	-28513.620000	-35380.305000	-53040.960000	-41458.455000	-9128.655000	1.635675	3.194410	6.683999	7.670922	7.876821	6.742559	2.226219	4.923480	-1.892240	-3.998120	0.167860	0.824827	-0.147094	0.552123	-1.000000	-1.000000	-1.000000	-1.000000	-1.000000	-1.000000	-1.000000	38.689655	0.000000	-1.000000	-1.000000	306234.000000	1774294150.266650
-21936.735000	-16228.620000	-16912.305000	-28501.515000	-35368.785000	-53029.305000	-41458.005000	-9140.040000	3.372014	4.490072	4.855462	5.622116	5.225411	4.738931	1.018909	4.076031	-1.892240	-3.998120	0.167860	0.824827	-0.147094	0.552123	-1.000000	-1.000000	-1.000000	-1.000000	-1.000000	-1.000000	-1.000000	38.689655	0.000000	-1.000000	-1.000000	306235.000000	1774294150.271238
-21908.970000	-16243.380000	-16934.760000	-28525.455000	-35393.940000	-53052.300000	-41469.435000	-9113.490000	6.676716	6.634475	3.111352	3.069039	2.112870	2.232136	0.832153	6.184555	-1.892240	-3.998120	0.167860	0.824827	-0.147094	0.552123	-1.000000	-1.000000	-1.000000	-1.000000	-1.000000	-1.000000	-1.000000	38.689655	0.000000	-1.000000	-1.000000	306236.000000	1774294150.271259
-21866.805000	-16237.440000	-16940.205000	-28533.465000	-35401.770000	-53057.250000	-41456.385000	-9066.240000	8.217374	5.651401	0.353990	-0.500909	-1.645692	-1.104199	0.838654	8.708444	-1.892240	-3.998120	0.167860	0.824827	-0.147094	0.552123	-1.000000	-1.000000	-1.000000	-1.000000	-1.000000	-1.000000	-1.000000	38.689655	0.000000	-1.000000	-1.000000	306237.000000	1774294150.271283
-21889.260000	-16256.790000	-16957.215000	-28550.385000	-35416.305000	-53071.605000	-41453.190000	-9053.010000	6.803297	-0.079820	-4.426887	-5.676115	-6.502755	-5.487549	0.315293	9.839509	-1.892240	-3.998120	0.167860	0.824827	-0.147094	0.552123	-1.000000	-1.000000	-1.000000	-1.000000	-1.000000	-1.000000	-1.000000	38.689655	0.000000	-1.000000	-1.000000	306238.000000	1774294150.271294
-21912.480000	-16248.960000	-16952.580000	-28547.955000	-35413.605000	-53071.155000	-41450.805000	-9075.375000	1.860301	-8.038185	-9.560357	-10.616204	-10.701483	-9.108412	-0.583853	7.480965	-1.892240	-3.998120	0.167860	0.824827	-0.147094	0.552123	-1.000000	-1.000000	-1.000000	-1.000000	-1.000000	-1.000000	-1.000000	38.689655	0.000000	-1.000000	-1.000000	306239.000000	1774294150.281039
-21933.585000	-16255.575000	-16957.935000	-28553.220000	-35420.220000	-53079.570000	-41459.670000	-9099.540000	-6.186653	-13.378034	-11.759638	-12.207971	-11.512282	-9.628522	-1.737425	-0.307934	-1.892240	-3.998120	0.167860	0.824827	-0.147094	0.552123	-1.000000	-1.000000	-1.000000	-1.000000	-1.000000	-1.000000	-1.000000	38.689655	0.000000	-1.000000	-1.000000	306240.000000	1774294150.281062
-21961.170000	-16277.040000	-16964.640000	-28556.370000	-35423.640000	-53081.730000	-41470.155000	-9116.595000	-14.542824	-13.156713	-9.318001	-9.101045	-8.058731	-6.601139	-2.996827	-11.307127	3.052000	-2.609460	3.357200	0.826231	-0.156738	0.551207	-1.000000	-1.000000	-1.000000	-1.000000	-1.000000	-1.000000	-1.000000	38.689655	0.000000	-1.000000	-1.000000	306241.000000	1774294150.285927
-21949.830000	-16272.810000	-16957.035000	-28547.865000	-35413.830000	-53071.065000	-41468.130000	-9111.195000	-19.501321	-8.848908	-3.576662	-2.784785	-1.921739	-1.606856	-3.789635	-19.645896	3.052000	-2.609460	3.357200	0.826231	-0.156738	0.551207	-1.000000	-1.000000	-1.000000	-1.000000	-1.000000	-1.000000	-1.000000	38.689655	0.000000	-1.000000	-1.000000	306242.000000	1774294150.285940
-21913.695000	-16263.765000	-16953.390000	-28545.795000	-35413.155000	-53064.990000	-41467.095000	-9103.365000	-17.546613	-3.116508	2.926389	4.178617	4.667007	3.607145	-3.306888	-20.754114	3.052000	-2.609460	3.357200	0.826231	-0.156738	0.551207	-1.000000	-1.000000	-1.000000	-1.000000	-1.000000	-1.000000	-1.000000	38.689655	0.000000	-1.000000	-1.000000	306243.000000	1774294150.285955
-21919.680000	-16268.175000	-16955.325000	-28547.640000	-35414.145000	-53064.180000	-41468.580000	-9112.005000	-7.351673	3.171902	8.233272	9.613316	9.834669	7.846529	-1.185889	-14.224725	3.052000	-2.609460	3.357200	0.826231	-0.156738	0.551207	-1.000000	-1.000000	-1.000000	-1.000000	-1.000000	-1.000000	-1.000000	38.689655	0.000000	-1.000000	-1.000000	306244.000000	1774294150.285961
-21926.475000	-16268.445000	-16953.975000	-28547.145000	-35413.380000	-53064.405000	-41469.615000	-9114.390000	6.270982	9.182678	11.148222	12.125690	12.233595	10.141948	1.863269	-3.905391	3.052000	-2.609460	3.357200	0.826231	-0.156738	0.551207	-1.000000	-1.000000	-1.000000	-1.000000	-1.000000	-1.000000	-1.000000	38.689655	0.000000	-1.000000	-1.000000	306245.000000	1774294150.290081
-21932.190000	-16271.415000	-16954.605000	-28548.900000	-35415.540000	-53069.670000	-41473.080000	-9120.150000	14.824684	12.788814	11.189484	11.406015	11.436991	9.855569	4.152409	4.415009	3.052000	-2.609460	3.357200	0.826231	-0.156738	0.551207	-1.000000	-1.000000	-1.000000	-1.000000	-1.000000	-1.000000	-1.000000	38.689655	0.000000	-1.000000	-1.000000	306246.000000	1774294150.290090
-21939.390000	-16271.280000	-16954.155000	-28548.945000	-35415.045000	-53073.900000	-41474.970000	-9134.370000	14.664077	12.309593	8.494674	7.977829	7.814280	6.881595	4.155683	7.460428	3.052000	-2.609460	3.357200	0.826231	-0.156738	0.551207	-1.000000	-1.000000	-1.000000	-1.000000	-1.000000	-1.000000	-1.000000	38.689655	0.000000	-1.000000	-1.000000	306247.000000	1774294150.290099
-21942.135000	-16267.095000	-16953.075000	-28547.550000	-35413.155000	-53073.765000	-41474.250000	-9137.835000	9.398439	8.118291	3.773497	2.855309	2.383680	1.997472	1.991408	6.770745	3.052000	-2.609460	3.357200	0.826231	-0.156738	0.551207	-1.000000	-1.000000	-1.000000	-1.000000	-1.000000	-1.000000	-1.000000	38.689655	0.000000	-1.000000	-1.000000	306248.000000	1774294150.290104
-21956.265000	-16279.515000	-16960.815000	-28555.110000	-35421.570000	-53080.110000	-41478.210000	-9132.840000	4.331695	2.213919	-1.706135	-2.624675	-3.311808	-3.158459	-0.514247	6.547870	3.052000	-2.609460	3.357200	0.826231	-0.156738	0.551207	-1.000000	-1.000000	-1.000000	-1.000000	-1.000000	-1.000000	-1.000000	38.689655	0.000000	-1.000000	-1.000000	306249.000000	1774294150.293983
-21967.650000	-16290.090000	-16965.540000	-28557.855000	-35424.270000	-53081.955000	-41482.440000	-9137.835000	1.500667	-3.357706	-6.507432	-7.191980	-7.841565	-7.039504	-1.577957	9.012762	3.052000	-2.609460	3.357200	0.826231	-0.156738	0.551207	-1.000000	-1.000000	-1.000000	-1.000000	-1.000000	-1.000000	-1.000000	38.689655	0.000000	-1.000000	-1.000000	306250.000000	1774294150.293993
-21949.470000	-16283.835000	-16959.690000	-28552.320000	-35419.545000	-53077.140000	-41482.800000	-9119.970000	-0.306097	-7.383583	-9.398408	-9.763924	-10.151581	-8.803087	-1.035316	11.951375	3.326680	-4.196500	5.646200	0.819334	-0.162414	0.547545	-1.000000	-1.000000	-1.000000	-1.000000	-1.000000	-1.000000	-1.000000	38.689655	0.000000	-1.000000	-1.000000	306251.000000	1774294150.297898
-21927.780000	-16267.725000	-16943.355000	-28533.420000	-35400.465000	-53056.665000	-41473.035000	-9105.840000	-2.190878	-8.742997	-9.200424	-9.163744	-9.186101	-7.808315	0.215791	11.895306	3.326680	-4.196500	5.646200	0.819334	-0.162414	0.547545	-1.000000	-1.000000	-1.000000	-1.000000	-1.000000	-1.000000	-1.000000	38.689655	0.000000	-1.000000	-1.000000	306252.000000	1774294150.297910
-21927.375000	-16274.655000	-16949.610000	-28539.090000	-35406.585000	-53058.195000	-41472.540000	-9104.715000	-3.407241	-6.528036	-5.430280	-4.928832	-4.620011	-3.767048	1.533063	7.889207	3.326680	-4.196500	5.646200	0.819334	-0.162414	0.547545	-1.000000	-1.000000	-1.000000	-1.000000	-1.000000	-1.000000	-1.000000	38.689655	0.000000	-1.000000	-1.000000	306253.000000	1774294150.301914
-21938.670000	-16285.005000	-16964.280000	-28557.450000	-35424.720000	-53074.890000	-41478.300000	-9118.260000	-3.445570	-1.984239	0.077662	0.908136	1.385609	1.687670	2.310428	0.814642	3.326680	-4.196500	5.646200	0.819334	-0.162414	0.547545	-1.000000	-1.000000	-1.000000	-1.000000	-1.000000	-1.000000	-1.000000	38.689655	0.000000	-1.000000	-1.000000	306254.000000	1774294150.301922
-21953.970000	-16293.330000	-16971.525000	-28563.885000	-35430.345000	-53084.430000	-41484.465000	-9127.170000	-3.224059	1.819275	3.920349	4.678318	5.122909	5.294189	1.669092	-7.668171	3.326680	-4.196500	5.646200	0.819334	-0.162414	0.547545	-1.000000	-1.000000	-1.000000	-1.000000	-1.000000	-1.000000	-1.000000	38.689655	0.000000	-1.000000	-1.000000	306255.000000	1774294150.306024
-21953.790000	-16277.490000	-16958.340000	-28549.215000	-35415.360000	-53074.620000	-41475.645000	-9136.350000	-3.196123	3.105560	4.452724	4.765035	5.043885	5.329962	-0.380719	-14.432884	3.326680	-4.196500	5.646200	0.819334	-0.162414	0.547545	-1.000000	-1.000000	-1.000000	-1.000000	-1.000000	-1.000000	-1.000000	38.689655	0.000000	-1.000000	-1.000000	306256.000000	1774294150.306034
-21963.015000	-16268.265000	-16944.570000	-28535.220000	-35400.960000	-53062.155000	-41478.525000	-9179.055000	-2.521049	2.817151	3.184197	3.009324	3.097869	3.249548	-2.403453	-16.577594	3.326680	-4.196500	5.646200	0.819334	-0.162414	0.547545	-1.000000	-1.000000	-1.000000	-1.000000	-1.000000	-1.000000	-1.000000	38.689655	0.000000	-1.000000	-1.000000	306257.000000	1774294150.309834
-21945.645000	-16268.580000	-16946.415000	-28539.405000	-35405.820000	-53065.260000	-41484.780000	-9161.370000	-0.221058	2.830756	2.465196	1.941056	1.902302	1.487095	-3.001930	-13.660900	3.326680	-4.196500	5.646200	0.819334	-0.162414	0.547545	-1.000000	-1.000000	-1.000000	-1.000000	-1.000000	-1.000000	-1.000000	38.689655	0.000000	-1.000000	-1.000000	306258.000000	1774294150.309846
-21940.245000	-16298.595000	-16977.150000	-28572.480000	-35439.390000	-53092.755000	-41487.750000	-9104.940000	3.517195	3.077914	2.246400	1.411236	1.317033	0.316260	-2.144695	-5.994642	3.326680	-4.196500	5.646200	0.819334	-0.162414	0.547545	-1.000000	-1.000000	-1.000000	-1.000000	-1.000000	-1.000000	-1.000000	38.689655	0.000000	-1.000000	-1.000000	306259.000000	1774294150.318921
-21935.475000	-16289.235000	-16964.955000	-28557.495000	-35424.675000	-53076.465000	-41476.005000	-9091.620000	6.301089	1.519751	0.503688	-0.579123	-0.697498	-1.703547	-0.635489	5.431802	3.326680	-4.196500	5.646200	0.819334	-0.162414	0.547545	-1.000000	-1.000000	-1.000000	-1.000000	-1.000000	-1.000000	-1.000000	38.689655	0.000000	-1.000000	-1.000000	306260.000000	1774294150.318934
-21942.855000	-16282.665000	-16960.500000	-28552.995000	-35420.040000	-53070.480000	-41476.230000	-9107.730000	5.124529	-2.113827	-2.818715	-3.804948	-3.927956	-4.321968	0.848461	15.715738	-1.602300	-8.148840	7.340060	0.809019	-0.160705	0.545592	-1.000000	-1.000000	-1.000000	-1.000000	-1.000000	-1.000000	-1.000000	38.689655	0.000000	-1.000000	-1.000000	306261.000000	1774294150.319134
-21952.350000	-16278.480000	-16955.955000	-28547.415000	-35413.965000	-53066.520000	-41475.915000	-9115.245000	-0.140558	-4.978616	-4.926238	-5.309322	-5.403770	-5.170332	1.804545	18.234800	-1.602300	-8.148840	7.340060	0.809019	-0.160705	0.545592	-1.000000	-1.000000	-1.000000	-1.000000	-1.000000	-1.000000	-1.000000	38.689655	0.000000	-1.000000	-1.000000	306262.000000	1774294150.319141
-21949.920000	-16270.740000	-16951.860000	-28543.590000	-35410.815000	-53067.690000	-41480.595000	-9120.960000	-6.011584	-4.330898	-3.471547	-2.905808	-2.950805	-2.646095	1.907497	11.291295	-1.602300	-8.148840	7.340060	0.809019	-0.160705	0.545592	-1.000000	-1.000000	-1.000000	-1.000000	-1.000000	-1.000000	-1.000000	38.689655	0.000000	-1.000000	-1.000000	306263.000000	1774294150.322524
-21948.030000	-16272.630000	-16955.865000	-28548.270000	-35415.225000	-53075.070000	-41482.575000	-9130.230000	-8.112193	-0.412528	0.825782	2.236916	2.199782	2.065747	1.161182	-0.364544	-1.602300	-8.148840	7.340060	0.809019	-0.160705	0.545592	-1.000000	-1.000000	-1.000000	-1.000000	-1.000000	-1.000000	-1.000000	38.689655	0.000000	-1.000000	-1.000000	306264.000000	1774294150.322537
-21934.440000	-16272.135000	-16955.190000	-28546.605000	-35413.155000	-53071.605000	-41471.055000	-9128.835000	-4.659768	3.585596	4.542501	6.179685	6.084548	5.615979	-0.046006	-9.707539	-1.602300	-8.148840	7.340060	0.809019	-0.160705	0.545592	-1.000000	-1.000000	-1.000000	-1.000000	-1.000000	-1.000000	-1.000000	38.689655	0.000000	-1.000000	-1.000000	306265.000000	1774294150.326560
-21926.295000	-16275.915000	-16965.405000	-28559.655000	-35427.645000	-53084.340000	-41474.790000	-9115.245000	2.372037	4.457539	4.578517	5.654483	5.499387	5.318462	-0.862436	-11.706412	-1.602300	-8.148840	7.340060	0.809019	-0.160705	0.545592	-1.000000	-1.000000	-1.000000	-1.000000	-1.000000	-1.000000	-1.000000	38.689655	0.000000	-1.000000	-1.000000	306266.000000	1774294150.326571
-21933.630000	-16281.945000	-16965.945000	-28558.395000	-35425.890000	-53081.505000	-41477.895000	-9120.735000	8.518192	2.047344	1.128979	1.195819	1.046109	1.595920	-0.705330	-6.754838	-1.602300	-8.148840	7.340060	0.809019	-0.160705	0.545592	-1.000000	-1.000000	-1.000000	-1.000000	-1.000000	-1.000000	-1.000000	38.689655	0.000000	-1.000000	-1.000000	306267.000000	1774294150.329844
-21944.745000	-16282.665000	-16958.565000	-28548.900000	-35416.125000	-53069.220000	-41479.290000	-9132.930000	9.220281	-1.174679	-2.532390	-3.278992	-3.313061	-2.268895	-0.074917	-1.110581	-1.602300	-8.148840	7.340060	0.809019	-0.160705	0.545592	-1.000000	-1.000000	-1.000000	-1.000000	-1.000000	-1.000000	-1.000000	38.689655	0.000000	-1.000000	-1.000000	306268.000000	1774294150.329856
-21947.175000	-16285.770000	-16960.545000	-28548.495000	-35415.585000	-53065.620000	-41477.265000	-9124.020000	3.301524	-3.113607	-3.631928	-4.540003	-4.354171	-3.456940	0.019593	-0.215072	-1.602300	-8.148840	7.340060	0.809019	-0.160705	0.545592	-1.000000	-1.000000	-1.000000	-1.000000	-1.000000	-1.000000	-1.000000	38.689655	0.000000	-1.000000	-1.000000	306269.000000	1774294150.333778
-21939.480000	-16277.580000	-16955.640000	-28543.320000	-35410.680000	-53061.255000	-41472.315000	-9110.430000	-5.246323	-3.433471	-2.349968	-2.855079	-2.469697	-2.172381	-0.641638	-2.400687	-1.602300	-8.148840	7.340060	0.809019	-0.160705	0.545592	-1.000000	-1.000000	-1.000000	-1.000000	-1.000000	-1.000000	-1.000000	38.689655	0.000000	-1.000000	-1.000000	306270.000000	1774294150.333788
-21956.760000	-16278.615000	-16954.425000	-28542.600000	-35409.645000	-53064.180000	-41471.595000	-9118.755000	-10.513123	-2.434675	-0.243417	-0.207958	0.203856	-0.165647	-1.178369	-2.557320	-5.859840	-11.429740	5.585160	0.799559	-0.161926	0.539122	-1.000000	-1.000000	-1.000000	-1.000000	-1.000000	-1.000000	-1.000000	38.689655	0.000000	-1.000000	-1.000000	306271.000000	1774294150.338934
-21925.170000	-16251.435000	-16944.615000	-28537.110000	-35405.595000	-53064.990000	-41465.295000	-9109.800000	-9.379231	-0.230329	1.678641	1.954769	2.176456	1.331405	-0.670516	1.051740	-5.859840	-11.429740	5.585160	0.799559	-0.161926	0.539122	-1.000000	-1.000000	-1.000000	-1.000000	-1.000000	-1.000000	-1.000000	38.689655	0.000000	-1.000000	-1.000000	306272.000000	1774294150.338944
-21917.745000	-16249.455000	-16944.975000	-28538.775000	-35405.055000	-53065.890000	-41462.505000	-9106.695000	-2.585673	2.846522	2.908798	2.882617	2.792911	1.801072	0.768503	6.313694	-5.859840	-11.429740	5.585160	0.799559	-0.161926	0.539122	-1.000000	-1.000000	-1.000000	-1.000000	-1.000000	-1.000000	-1.000000	38.689655	0.000000	-1.000000	-1.000000	306273.000000	1774294150.344874
-21928.230000	-16258.050000	-16944.660000	-28538.280000	-35404.740000	-53063.415000	-41463.945000	-9114.570000	5.762676	5.257195	2.957823	2.285120	1.969500	1.207144	1.957182	9.957330	-5.859840	-11.429740	5.585160	0.799559	-0.161926	0.539122	-1.000000	-1.000000	-1.000000	-1.000000	-1.000000	-1.000000	-1.000000	38.689655	0.000000	-1.000000	-1.000000	306274.000000	1774294150.344886
-21939.075000	-16260.390000	-16942.770000	-28534.725000	-35402.940000	-53060.490000	-41468.490000	-9132.210000	10.031999	4.976694	1.768150	0.712548	0.392430	0.154402	1.826990	9.000069	-5.859840	-11.429740	5.585160	0.799559	-0.161926	0.539122	-1.000000	-1.000000	-1.000000	-1.000000	-1.000000	-1.000000	-1.000000	38.689655	0.000000	-1.000000	-1.000000	306275.000000	1774294150.348448
-21932.730000	-16259.400000	-16939.215000	-28530.090000	-35398.485000	-53053.830000	-41470.695000	-9137.205000	7.708732	1.983713	0.150986	-0.570795	-0.767794	-0.424840	0.466469	2.548209	-5.859840	-11.429740	5.585160	0.799559	-0.161926	0.539122	-1.000000	-1.000000	-1.000000	-1.000000	-1.000000	-1.000000	-1.000000	38.689655	0.000000	-1.000000	-1.000000	306276.000000	1774294150.348461
-21936.825000	-16269.255000	-16943.895000	-28530.990000	-35399.745000	-53053.470000	-41478.390000	-9144.315000	1.421173	-1.837676	-1.199604	-1.023500	-1.127864	-0.434943	-1.364687	-6.475068	-5.859840	-11.429740	5.585160	0.799559	-0.161926	0.539122	-1.000000	-1.000000	-1.000000	-1.000000	-1.000000	-1.000000	-1.000000	38.689655	0.000000	-1.000000	-1.000000	306277.000000	1774294150.352792
-21970.665000	-16286.130000	-16950.780000	-28534.500000	-35400.555000	-53054.865000	-41477.940000	-9153.450000	-4.816187	-5.100137	-2.459171	-1.337747	-1.378080	-0.729583	-2.987799	-13.102295	-5.859840	-11.429740	5.585160	0.799559	-0.161926	0.539122	-1.000000	-1.000000	-1.000000	-1.000000	-1.000000	-1.000000	-1.000000	38.689655	0.000000	-1.000000	-1.000000	306278.000000	1774294150.352803
-21968.730000	-16266.240000	-16932.420000	-28515.960000	-35382.870000	-53040.870000	-41471.595000	-9145.980000	-8.820539	-7.019988	-3.501591	-1.830671	-1.735198	-1.481208	-3.626136	-13.879933	-5.859840	-11.429740	5.585160	0.799559	-0.161926	0.539122	-1.000000	-1.000000	-1.000000	-1.000000	-1.000000	-1.000000	-1.000000	38.689655	0.000000	-1.000000	-1.000000	306279.000000	1774294150.353710
-21937.275000	-16264.035000	-16950.960000	-28542.735000	-35410.320000	-53064.180000	-41467.545000	-9108.450000	-8.839505	-6.384736	-3.515026	-2.018191	-1.750238	-1.878619	-2.504669	-7.786326	-5.859840	-11.429740	5.585160	0.799559	-0.161926	0.539122	-1.000000	-1.000000	-1.000000	-1.000000	-1.000000	-1.000000	-1.000000	38.689655	0.000000	-1.000000	-1.000000	306280.000000	1774294150.353719
-21905.100000	-16263.990000	-16967.205000	-28564.155000	-35431.965000	-53084.070000	-41461.740000	-9083.520000	-3.502510	-3.135362	-2.806517	-2.379794	-2.070610	-2.006765	0.196338	3.723530	-7.355320	-12.421640	0.808780	0.791807	-0.165893	0.530638	-1.000000	-1.000000	-1.000000	-1.000000	-1.000000	-1.000000	-1.000000	38.689655	0.000000	-1.000000	-1.000000	306281.000000	1774294150.378446
-21907.215000	-16249.410000	-16950.105000	-28544.445000	-35411.265000	-53067.465000	-41458.230000	-9125.595000	5.194822	1.055636	-2.253043	-3.384157	-3.240554	-2.425864	3.105841	15.138661	-7.355320	-12.421640	0.808780	0.791807	-0.165893	0.530638	-1.000000	-1.000000	-1.000000	-1.000000	-1.000000	-1.000000	-1.000000	38.689655	0.000000	-1.000000	-1.000000	306282.000000	1774294150.378459
-21930.390000	-16252.110000	-16940.025000	-28530.720000	-35396.955000	-53054.100000	-41460.255000	-9137.385000	11.862224	4.836373	-0.988912	-3.128616	-3.222376	-2.001684	4.718893	18.774628	-7.355320	-12.421640	0.808780	0.791807	-0.165893	0.530638	-1.000000	-1.000000	-1.000000	-1.000000	-1.000000	-1.000000	-1.000000	38.689655	0.000000	-1.000000	-1.000000	306283.000000	1774294150.378473
-21919.230000	-16263.270000	-16949.115000	-28539.990000	-35406.405000	-53060.175000	-41462.100000	-9099.540000	11.987990	7.154755	1.920517	0.082670	-0.094869	0.501604	4.379839	12.346315	-7.355320	-12.421640	0.808780	0.791807	-0.165893	0.530638	-1.000000	-1.000000	-1.000000	-1.000000	-1.000000	-1.000000	-1.000000	38.689655	0.000000	-1.000000	-1.000000	306284.000000	1774294150.378478
-21908.655000	-16260.525000	-16946.280000	-28538.145000	-35405.640000	-53055.855000	-41458.455000	-9077.130000	5.990341	6.777581	5.010436	4.455341	4.389772	3.742212	2.483460	1.945845	-7.355320	-12.421640	0.808780	0.791807	-0.165893	0.530638	-1.000000	-1.000000	-1.000000	-1.000000	-1.000000	-1.000000	-1.000000	38.689655	0.000000	-1.000000	-1.000000	306285.000000	1774294150.378484
-21920.085000	-16259.355000	-16941.285000	-28530.360000	-35397.990000	-53046.585000	-41454.180000	-9090.315000	-1.724606	3.961196	6.244148	6.937093	6.982977	5.408945	0.175084	-5.299497	-7.355320	-12.421640	0.808780	0.791807	-0.165893	0.530638	-1.000000	-1.000000	-1.000000	-1.000000	-1.000000	-1.000000	-1.000000	38.689655	0.000000	-1.000000	-1.000000	306286.000000	1774294150.378489
-21916.260000	-16259.670000	-16946.145000	-28535.445000	-35403.705000	-53053.695000	-41460.660000	-9101.115000	-6.833028	0.526443	5.111918	6.319759	6.287224	4.659913	-1.612639	-7.986852	-7.355320	-12.421640	0.808780	0.791807	-0.165893	0.530638	-1.000000	-1.000000	-1.000000	-1.000000	-1.000000	-1.000000	-1.000000	38.689655	0.000000	-1.000000	-1.000000	306287.000000	1774294150.378495
-21928.365000	-16260.750000	-16950.555000	-28541.250000	-35410.005000	-53062.740000	-41468.130000	-9121.995000	-7.886908	-2.328538	2.021551	3.036616	2.768608	1.842310	-2.979752	-8.966918	-7.355320	-12.421640	0.808780	0.791807	-0.165893	0.530638	-1.000000	-1.000000	-1.000000	-1.000000	-1.000000	-1.000000	-1.000000	38.689655	0.000000	-1.000000	-1.000000	306288.000000	1774294150.378500
-21938.715000	-16264.800000	-16953.345000	-28542.285000	-35409.915000	-53066.880000	-41469.345000	-9127.935000	-7.070229	-4.562889	-1.790605	-1.119566	-1.536686	-1.636357	-4.288830	-10.881603	-7.355320	-12.421640	0.808780	0.791807	-0.165893	0.530638	-1.000000	-1.000000	-1.000000	-1.000000	-1.000000	-1.000000	-1.000000	38.689655	0.000000	-1.000000	-1.000000	306289.000000	1774294150.378505
-21943.485000	-16264.485000	-16950.690000	-28539.765000	-35407.440000	-53065.260000	-41460.570000	-9118.215000	-7.363174	-6.012335	-4.250877	-3.553922	-3.836907	-3.582553	-4.971319	-12.891565	-7.355320	-12.421640	0.808780	0.791807	-0.165893	0.530638	-1.000000	-1.000000	-1.000000	-1.000000	-1.000000	-1.000000	-1.000000	38.689655	0.000000	-1.000000	-1.000000	306290.000000	1774294150.378510
-21945.960000	-16267.185000	-16943.805000	-28534.365000	-35402.310000	-53059.050000	-41454.495000	-9117.855000	-8.138936	-6.042819	-4.315432	-3.419835	-3.371217	-3.195227	-3.843352	-10.669705	-4.318580	-9.369640	-4.532220	0.785459	-0.164795	0.522704	-1.000000	-1.000000	-1.000000	-1.000000	-1.000000	-1.000000	-1.000000	38.689655	0.000000	-1.000000	-1.000000	306291.000000	1774294150.384354
-21929.490000	-16261.920000	-16937.280000	-28526.760000	-35393.850000	-53050.365000	-41451.750000	-9108.990000	-5.731375	-4.062143	-2.617291	-2.009369	-1.665508	-1.533834	-0.530013	-1.916339	-4.318580	-9.369640	-4.532220	0.785459	-0.164795	0.522704	-1.000000	-1.000000	-1.000000	-1.000000	-1.000000	-1.000000	-1.000000	38.689655	0.000000	-1.000000	-1.000000	306292.000000	1774294150.384368
-21905.190000	-16251.795000	-16941.555000	-28531.845000	-35400.105000	-53053.065000	-41457.870000	-9087.795000	1.574916	0.043317	-0.245983	-0.559441	-0.085353	0.223744	3.571981	9.373047	-4.318580	-9.369640	-4.532220	0.785459	-0.164795	0.522704	-1.000000	-1.000000	-1.000000	-1.000000	-1.000000	-1.000000	-1.000000	38.689655	0.000000	-1.000000	-1.000000	306293.000000	1774294150.398319
-21896.460000	-16234.110000	-16930.620000	-28519.920000	-35388.270000	-53040.195000	-41456.070000	-9082.980000	11.001442	5.326433	1.785209	0.444345	0.866400	1.397465	6.046137	16.709607	-4.318580	-9.369640	-4.532220	0.785459	-0.164795	0.522704	-1.000000	-1.000000	-1.000000	-1.000000	-1.000000	-1.000000	-1.000000	38.689655	0.000000	-1.000000	-1.000000	306294.000000	1774294150.398333
-21890.655000	-16213.995000	-16902.540000	-28489.140000	-35356.590000	-53011.845000	-41448.105000	-9094.815000	17.626709	9.890493	3.131441	1.268636	1.502477	2.066820	5.618289	16.803978	-4.318580	-9.369640	-4.532220	0.785459	-0.164795	0.522704	-1.000000	-1.000000	-1.000000	-1.000000	-1.000000	-1.000000	-1.000000	38.689655	0.000000	-1.000000	-1.000000	306295.000000	1774294150.401575
-21912.615000	-16222.230000	-16906.230000	-28491.750000	-35359.245000	-53019.135000	-41454.270000	-9128.745000	17.580510	11.490367	4.120974	2.570062	2.595551	2.881961	3.105002	10.228007	-4.318580	-9.369640	-4.532220	0.785459	-0.164795	0.522704	-1.000000	-1.000000	-1.000000	-1.000000	-1.000000	-1.000000	-1.000000	38.689655	0.000000	-1.000000	-1.000000	306296.000000	1774294150.401585
-21974.085000	-16270.470000	-16952.085000	-28539.090000	-35406.495000	-53066.430000	-41472.990000	-9157.770000	9.052207	7.692498	3.711009	3.216313	3.116786	2.951403	-0.141273	-0.506030	-4.318580	-9.369640	-4.532220	0.785459	-0.164795	0.522704	-1.000000	-1.000000	-1.000000	-1.000000	-1.000000	-1.000000	-1.000000	38.689655	0.000000	-1.000000	-1.000000	306297.000000	1774294150.401597
-21981.285000	-16273.980000	-16958.520000	-28548.270000	-35417.520000	-53076.735000	-41461.695000	-9124.380000	-6.193933	-2.002053	-0.057228	0.668392	0.497437	0.109395	-3.276217	-11.008399	-4.318580	-9.369640	-4.532220	0.785459	-0.164795	0.522704	-1.000000	-1.000000	-1.000000	-1.000000	-1.000000	-1.000000	-1.000000	38.689655	0.000000	-1.000000	-1.000000	306298.000000	1774294150.401602
-21952.620000	-16263.180000	-16949.385000	-28540.845000	-35410.545000	-53068.725000	-41458.770000	-9111.195000	-20.415547	-12.989279	-6.116754	-4.762916	-5.063622	-5.156456	-5.210679	-15.254777	-4.318580	-9.369640	-4.532220	0.785459	-0.164795	0.522704	-1.000000	-1.000000	-1.000000	-1.000000	-1.000000	-1.000000	-1.000000	38.689655	0.000000	-1.000000	-1.000000	306299.000000	1774294150.401608
-21907.260000	-16269.570000	-16964.775000	-28558.170000	-35427.735000	-53083.395000	-41470.605000	-9089.865000	-23.324806	-18.078253	-10.443038	-9.396484	-9.868464	-9.315356	-5.081682	-9.975174	-4.318580	-9.369640	-4.532220	0.785459	-0.164795	0.522704	-1.000000	-1.000000	-1.000000	-1.000000	-1.000000	-1.000000	-1.000000	38.689655	0.000000	-1.000000	-1.000000	306300.000000	1774294150.401613
-21918.240000	-16271.415000	-16961.130000	-28551.735000	-35422.470000	-53077.275000	-41479.740000	-9120.420000	-11.986918	-14.160964	-10.207228	-10.061654	-10.589703	-9.534558	-3.417126	0.778911	-4.120200	-3.433500	-11.445000	0.786070	-0.157898	0.518370	-1.000000	-1.000000	-1.000000	-1.000000	-1.000000	-1.000000	-1.000000	38.689655	0.000000	-1.000000	-1.000000	306301.000000	1774294150.401619
-21942.810000	-16275.555000	-16956.810000	-28544.895000	-35415.990000	-53069.220000	-41484.060000	-9148.320000	4.691014	-4.359428	-5.320480	-5.894883	-6.263156	-5.306148	-1.336841	7.863762	-4.120200	-3.433500	-11.445000	0.786070	-0.157898	0.518370	-1.000000	-1.000000	-1.000000	-1.000000	-1.000000	-1.000000	-1.000000	38.689655	0.000000	-1.000000	-1.000000	306302.000000	1774294150.401623
-21942.540000	-16275.870000	-16956.090000	-28542.870000	-35413.290000	-53065.260000	-41479.380000	-9134.820000	14.630177	5.346261	1.957658	1.375849	1.349286	1.583610	0.598964	6.090648	-4.120200	-3.433500	-11.445000	0.786070	-0.157898	0.518370	-1.000000	-1.000000	-1.000000	-1.000000	-1.000000	-1.000000	-1.000000	38.689655	0.000000	-1.000000	-1.000000	306303.000000	1774294150.406396
-21910.770000	-16259.625000	-16946.955000	-28534.680000	-35403.885000	-53055.360000	-41451.390000	-9075.015000	14.155376	10.662715	7.923193	7.850819	8.227152	7.660370	2.646885	0.455563	-4.120200	-3.433500	-11.445000	0.786070	-0.157898	0.518370	-1.000000	-1.000000	-1.000000	-1.000000	-1.000000	-1.000000	-1.000000	38.689655	0.000000	-1.000000	-1.000000	306304.000000	1774294150.406409
-21909.780000	-16254.090000	-16941.555000	-28528.785000	-35397.585000	-53054.280000	-41452.245000	-9087.300000	8.813865	11.577464	10.473953	10.876198	11.576971	10.693205	5.416622	-0.059242	-4.120200	-3.433500	-11.445000	0.786070	-0.157898	0.518370	-1.000000	-1.000000	-1.000000	-1.000000	-1.000000	-1.000000	-1.000000	38.689655	0.000000	-1.000000	-1.000000	306305.000000	1774294150.406421
-21924.675000	-16265.295000	-16956.090000	-28545.030000	-35414.145000	-53075.610000	-41465.565000	-9109.170000	4.978688	10.614481	10.424057	10.988511	11.812341	10.998289	7.991884	5.520481	-4.120200	-3.433500	-11.445000	0.786070	-0.157898	0.518370	-1.000000	-1.000000	-1.000000	-1.000000	-1.000000	-1.000000	-1.000000	38.689655	0.000000	-1.000000	-1.000000	306306.000000	1774294150.406426
-21904.605000	-16244.865000	-16944.975000	-28537.065000	-35407.260000	-53068.275000	-41458.095000	-9093.240000	3.632471	8.983832	8.720582	9.151563	9.818204	9.007157	7.677070	9.503009	-4.120200	-3.433500	-11.445000	0.786070	-0.157898	0.518370	-1.000000	-1.000000	-1.000000	-1.000000	-1.000000	-1.000000	-1.000000	38.689655	0.000000	-1.000000	-1.000000	306307.000000	1774294150.413504
-21906.225000	-16240.545000	-16935.930000	-28526.760000	-35397.405000	-53056.665000	-41452.650000	-9090.855000	1.747645	6.105492	5.254027	5.363837	5.614885	4.703713	3.445743	6.220997	-4.120200	-3.433500	-11.445000	0.786070	-0.157898	0.518370	-1.000000	-1.000000	-1.000000	-1.000000	-1.000000	-1.000000	-1.000000	38.689655	0.000000	-1.000000	-1.000000	306308.000000	1774294150.413516
-21915.045000	-16247.790000	-16934.580000	-28524.195000	-35394.975000	-53051.490000	-41461.245000	-9117.180000	-3.342556	1.596619	0.602097	0.415376	0.143401	-0.618942	-2.348601	-2.827843	-4.120200	-3.433500	-11.445000	0.786070	-0.157898	0.518370	-1.000000	-1.000000	-1.000000	-1.000000	-1.000000	-1.000000	-1.000000	38.689655	0.000000	-1.000000	-1.000000	306309.000000	1774294150.415151
-21947.580000	-16267.905000	-16942.815000	-28531.620000	-35401.995000	-53055.945000	-41485.995000	-9192.015000	-10.990579	-4.183886	-3.985404	-4.280591	-4.932476	-5.105972	-6.851883	-13.150586	-4.120200	-3.433500	-11.445000	0.786070	-0.157898	0.518370	-1.000000	-1.000000	-1.000000	-1.000000	-1.000000	-1.000000	-1.000000	38.689655	0.000000	-1.000000	-1.000000	306310.000000	1774294150.415163
-21968.730000	-16291.665000	-16958.025000	-28545.165000	-35416.170000	-53068.770000	-41502.465000	-9200.070000	-17.270224	-10.389086	-7.936690	-8.210300	-8.909141	-8.258047	-9.228408	-20.585051	-4.425400	1.113980	-15.595720	0.793150	-0.151550	0.516478	-1.000000	-1.000000	-1.000000	-1.000000	-1.000000	-1.000000	-1.000000	38.689655	0.000000	-1.000000	-1.000000	306311.000000	1774294150.420676
-21964.050000	-16308.315000	-16977.870000	-28564.020000	-35434.935000	-53085.600000	-41492.070000	-9126.135000	-18.101973	-15.516390	-11.225980	-11.452785	-11.926355	-10.611659	-9.679555	-20.519870	-4.425400	1.113980	-15.595720	0.793150	-0.151550	0.516478	-1.000000	-1.000000	-1.000000	-1.000000	-1.000000	-1.000000	-1.000000	38.689655	0.000000	-1.000000	-1.000000	306312.000000	1774294150.420697
-21934.395000	-16283.115000	-16962.210000	-28549.665000	-35420.670000	-53074.485000	-41465.700000	-9064.935000	-11.793945	-17.006086	-12.915051	-13.083126	-13.283562	-11.744351	-7.577180	-9.108234	-4.425400	1.113980	-15.595720	0.793150	-0.151550	0.516478	-1.000000	-1.000000	-1.000000	-1.000000	-1.000000	-1.000000	-1.000000	38.689655	0.000000	-1.000000	-1.000000	306313.000000	1774294150.424791
-21953.340000	-16285.545000	-16966.215000	-28554.615000	-35424.450000	-53082.630000	-41473.620000	-9101.610000	0.360114	-11.977512	-10.597863	-10.699929	-10.705657	-9.470025	-2.085793	10.899125	-4.425400	1.113980	-15.595720	0.793150	-0.151550	0.516478	-1.000000	-1.000000	-1.000000	-1.000000	-1.000000	-1.000000	-1.000000	38.689655	0.000000	-1.000000	-1.000000	306314.000000	1774294150.424803
-21950.235000	-16279.380000	-16962.840000	-28551.645000	-35422.650000	-53083.440000	-41479.065000	-9115.155000	13.561093	-0.683096	-3.159837	-3.175657	-3.035567	-2.571888	5.213009	27.977684	-4.425400	1.113980	-15.595720	0.793150	-0.151550	0.516478	-1.000000	-1.000000	-1.000000	-1.000000	-1.000000	-1.000000	-1.000000	38.689655	0.000000	-1.000000	-1.000000	306315.000000	1774294150.426637
-21926.610000	-16262.280000	-16951.455000	-28539.630000	-35411.670000	-53072.640000	-41474.205000	-9105.345000	21.463547	11.764685	6.508685	6.671780	6.929140	6.382653	10.349894	30.582131	-4.425400	1.113980	-15.595720	0.793150	-0.151550	0.516478	-1.000000	-1.000000	-1.000000	-1.000000	-1.000000	-1.000000	-1.000000	38.689655	0.000000	-1.000000	-1.000000	306316.000000	1774294150.426647
-21928.140000	-16270.470000	-16952.400000	-28539.090000	-35410.995000	-53067.285000	-41471.415000	-9110.250000	20.677723	19.124378	13.467553	13.886614	14.178740	12.802551	10.677776	17.615654	-4.425400	1.113980	-15.595720	0.793150	-0.151550	0.516478	-1.000000	-1.000000	-1.000000	-1.000000	-1.000000	-1.000000	-1.000000	38.689655	0.000000	-1.000000	-1.000000	306317.000000	1774294150.432189
-21942.945000	-16286.805000	-16960.995000	-28546.785000	-35419.050000	-53070.615000	-41476.230000	-9124.875000	12.455787	18.222191	14.433829	15.001459	15.224891	13.686896	7.071617	-1.626140	-4.425400	1.113980	-15.595720	0.793150	-0.151550	0.516478	-1.000000	-1.000000	-1.000000	-1.000000	-1.000000	-1.000000	-1.000000	38.689655	0.000000	-1.000000	-1.000000	306318.000000	1774294150.432199
-21951.270000	-16291.755000	-16964.595000	-28549.755000	-35421.615000	-53072.190000	-41477.805000	-9117.135000	1.309834	10.275847	9.492580	9.915322	10.023021	9.138194	2.441675	-15.198921	-4.425400	1.113980	-15.595720	0.793150	-0.151550	0.516478	-1.000000	-1.000000	-1.000000	-1.000000	-1.000000	-1.000000	-1.000000	38.689655	0.000000	-1.000000	-1.000000	306319.000000	1774294150.441848
-21961.350000	-16289.325000	-16965.270000	-28550.520000	-35422.155000	-53072.640000	-41476.050000	-9119.070000	-7.684077	0.113502	1.851134	1.820362	1.841483	1.968025	-0.921547	-17.369136	-4.425400	1.113980	-15.595720	0.793150	-0.151550	0.516478	-1.000000	-1.000000	-1.000000	-1.000000	-1.000000	-1.000000	-1.000000	38.689655	0.000000	-1.000000	-1.000000	306320.000000	1774294150.441858
-21957.255000	-16271.910000	-16954.785000	-28539.990000	-35411.040000	-53064.405000	-41470.515000	-9130.005000	-12.171855	-7.030330	-4.289404	-4.879764	-4.880993	-4.077222	-2.933511	-12.934908	-1.175020	4.928980	-17.533740	0.799620	-0.150879	0.516478	-1.000000	-1.000000	-1.000000	-1.000000	-1.000000	-1.000000	-1.000000	38.689655	0.000000	-1.000000	-1.000000	306321.000000	1774294150.442006
-21918.240000	-16247.520000	-16942.770000	-28528.470000	-35398.665000	-53056.395000	-41458.545000	-9115.380000	-12.097709	-8.722815	-6.440419	-7.359079	-7.338047	-6.533930	-4.554906	-9.737620	-1.175020	4.928980	-17.533740	0.799620	-0.150879	0.516478	-1.000000	-1.000000	-1.000000	-1.000000	-1.000000	-1.000000	-1.000000	38.689655	0.000000	-1.000000	-1.000000	306322.000000	1774294150.442012
-21889.620000	-16231.140000	-16933.680000	-28520.595000	-35390.430000	-53050.995000	-41446.305000	-9091.440000	-6.922891	-5.546774	-4.628439	-5.420795	-5.369999	-5.052780	-5.263140	-7.821980	-1.175020	4.928980	-17.533740	0.799620	-0.150879	0.516478	-1.000000	-1.000000	-1.000000	-1.000000	-1.000000	-1.000000	-1.000000	38.689655	0.000000	-1.000000	-1.000000	306323.000000	1774294150.442021
-21896.190000	-16229.115000	-16925.895000	-28510.065000	-35380.215000	-53039.655000	-41435.955000	-9074.835000	1.966485	-0.418106	-0.844014	-1.096688	-1.023129	-1.217329	-3.668320	-2.197452	-1.175020	4.928980	-17.533740	0.799620	-0.150879	0.516478	-1.000000	-1.000000	-1.000000	-1.000000	-1.000000	-1.000000	-1.000000	38.689655	0.000000	-1.000000	-1.000000	306324.000000	1774294150.442027
-21906.045000	-16228.035000	-16918.110000	-28500.660000	-35370.045000	-53028.405000	-41432.940000	-9081.135000	8.478777	2.546029	2.013471	2.489753	2.585595	2.194645	-0.282684	7.020300	-1.175020	4.928980	-17.533740	0.799620	-0.150879	0.516478	-1.000000	-1.000000	-1.000000	-1.000000	-1.000000	-1.000000	-1.000000	38.689655	0.000000	-1.000000	-1.000000	306325.000000	1774294150.452626
-21916.575000	-16239.825000	-16925.940000	-28509.570000	-35379.135000	-53033.580000	-41442.030000	-9096.615000	7.333706	1.276802	2.098165	3.115895	3.217950	2.936509	2.471715	14.038219	-1.175020	4.928980	-17.533740	0.799620	-0.150879	0.516478	-1.000000	-1.000000	-1.000000	-1.000000	-1.000000	-1.000000	-1.000000	38.689655	0.000000	-1.000000	-1.000000	306326.000000	1774294150.452638
-21919.050000	-16246.620000	-16933.005000	-28516.770000	-35388.045000	-53038.755000	-41449.050000	-9099.675000	0.178141	-2.589717	-0.327048	0.650199	0.672243	0.622047	2.714173	14.551274	-1.175020	4.928980	-17.533740	0.799620	-0.150879	0.516478	-1.000000	-1.000000	-1.000000	-1.000000	-1.000000	-1.000000	-1.000000	38.689655	0.000000	-1.000000	-1.000000	306327.000000	1774294150.452651
-21913.470000	-16237.035000	-16926.840000	-28509.840000	-35382.600000	-53035.560000	-41447.925000	-9097.425000	-6.563701	-5.667400	-3.408358	-3.081916	-3.303837	-3.140418	0.676569	9.139684	-1.175020	4.928980	-17.533740	0.799620	-0.150879	0.516478	-1.000000	-1.000000	-1.000000	-1.000000	-1.000000	-1.000000	-1.000000	38.689655	0.000000	-1.000000	-1.000000	306328.000000	1774294150.452656
-21917.340000	-16238.070000	-16924.545000	-28506.420000	-35378.820000	-53035.740000	-41452.155000	-9113.445000	-8.124588	-5.670479	-4.911857	-5.401103	-5.972393	-5.782720	-2.063102	0.615589	-1.175020	4.928980	-17.533740	0.799620	-0.150879	0.516478	-1.000000	-1.000000	-1.000000	-1.000000	-1.000000	-1.000000	-1.000000	38.689655	0.000000	-1.000000	-1.000000	306329.000000	1774294150.453835
-21903.885000	-16236.945000	-16932.645000	-28516.365000	-35388.270000	-53046.810000	-41453.370000	-9102.645000	-4.896704	-3.300012	-4.195403	-5.145109	-5.931730	-5.971972	-4.287268	-8.170284	-1.175020	4.928980	-17.533740	0.799620	-0.150879	0.516478	-1.000000	-1.000000	-1.000000	-1.000000	-1.000000	-1.000000	-1.000000	38.689655	0.000000	-1.000000	-1.000000	306330.000000	1774294150.453846
-21894.075000	-16224.435000	-16929.855000	-28516.320000	-35387.100000	-53046.405000	-41440.815000	-9088.605000	-0.483445	-0.948732	-2.557623	-3.458382	-4.105364	-4.330068	-5.202680	-13.618367	2.487380	8.179360	-16.007740	0.806150	-0.150451	0.520201	-1.000000	-1.000000	-1.000000	-1.000000	-1.000000	-1.000000	-1.000000	38.689655	0.000000	-1.000000	-1.000000	306331.000000	1774294150.461303
-21885.975000	-16209.540000	-16918.830000	-28506.195000	-35377.380000	-53037.540000	-41433.300000	-9076.635000	2.228954	0.468457	-1.014552	-1.568753	-1.723089	-1.751788	-3.923051	-12.750455	2.487380	8.179360	-16.007740	0.806150	-0.150451	0.520201	-1.000000	-1.000000	-1.000000	-1.000000	-1.000000	-1.000000	-1.000000	38.689655	0.000000	-1.000000	-1.000000	306332.000000	1774294150.461313
-21896.595000	-16209.495000	-16911.675000	-28495.620000	-35366.580000	-53025.390000	-41428.755000	-9079.380000	2.617907	1.648607	0.574534	0.426992	0.888779	1.311020	-0.525268	-6.349612	2.487380	8.179360	-16.007740	0.806150	-0.150451	0.520201	-1.000000	-1.000000	-1.000000	-1.000000	-1.000000	-1.000000	-1.000000	38.689655	0.000000	-1.000000	-1.000000	306333.000000	1774294150.463178
-21906.540000	-16231.545000	-16919.640000	-28502.145000	-35371.755000	-53027.325000	-41431.140000	-9091.395000	1.508193	2.684580	2.197855	2.461525	3.368794	4.082503	3.397761	1.617761	2.487380	8.179360	-16.007740	0.806150	-0.150451	0.520201	-1.000000	-1.000000	-1.000000	-1.000000	-1.000000	-1.000000	-1.000000	38.689655	0.000000	-1.000000	-1.000000	306334.000000	1774294150.463183
-21882.240000	-16222.860000	-16915.500000	-28499.625000	-35371.305000	-53025.705000	-41434.920000	-9081.270000	0.606158	3.038514	3.390170	4.039684	5.033888	5.597778	6.047444	7.669962	2.487380	8.179360	-16.007740	0.806150	-0.150451	0.520201	-1.000000	-1.000000	-1.000000	-1.000000	-1.000000	-1.000000	-1.000000	38.689655	0.000000	-1.000000	-1.000000	306335.000000	1774294150.466489
-21876.345000	-16210.440000	-16911.630000	-28495.170000	-35368.020000	-53020.350000	-41431.905000	-9064.350000	1.767986	3.156013	4.032465	4.866294	5.553237	5.563751	6.587528	10.751939	2.487380	8.179360	-16.007740	0.806150	-0.150451	0.520201	-1.000000	-1.000000	-1.000000	-1.000000	-1.000000	-1.000000	-1.000000	38.689655	0.000000	-1.000000	-1.000000	306336.000000	1774294150.466500
-21886.245000	-16209.765000	-16908.210000	-28491.660000	-35363.250000	-53015.895000	-41426.370000	-9068.940000	4.538195	3.682447	4.126726	4.793928	4.933207	4.384698	5.193839	10.856861	2.487380	8.179360	-16.007740	0.806150	-0.150451	0.520201	-1.000000	-1.000000	-1.000000	-1.000000	-1.000000	-1.000000	-1.000000	38.689655	0.000000	-1.000000	-1.000000	306337.000000	1774294150.472330
-21907.845000	-16232.670000	-16927.245000	-28511.640000	-35382.375000	-53037.090000	-41438.880000	-9089.775000	5.513307	3.477147	3.058336	3.281366	2.938819	2.274070	2.399398	7.398554	2.487380	8.179360	-16.007740	0.806150	-0.150451	0.520201	-1.000000	-1.000000	-1.000000	-1.000000	-1.000000	-1.000000	-1.000000	38.689655	0.000000	-1.000000	-1.000000	306338.000000	1774294150.472341
-21915.315000	-16239.195000	-16935.615000	-28520.370000	-35391.915000	-53050.095000	-41446.485000	-9097.290000	1.726455	0.595506	0.155573	-0.079845	-0.641702	-0.964815	-1.453778	0.154581	2.487380	8.179360	-16.007740	0.806150	-0.150451	0.520201	-1.000000	-1.000000	-1.000000	-1.000000	-1.000000	-1.000000	-1.000000	38.689655	0.000000	-1.000000	-1.000000	306339.000000	1774294150.479006
-21928.455000	-16241.580000	-16936.335000	-28521.900000	-35393.940000	-53053.695000	-41449.140000	-9114.795000	-5.922775	-4.738977	-3.876463	-4.293656	-4.868274	-4.786245	-5.698271	-8.949537	2.487380	8.179360	-16.007740	0.806150	-0.150451	0.520201	-1.000000	-1.000000	-1.000000	-1.000000	-1.000000	-1.000000	-1.000000	38.689655	0.000000	-1.000000	-1.000000	306340.000000	1774294150.479016
-21928.140000	-16237.980000	-16929.045000	-28514.430000	-35387.280000	-53045.145000	-41448.195000	-9120.285000	-12.801137	-9.487197	-6.910697	-7.185143	-7.687631	-7.455788	-8.708789	-16.075273	4.944240	10.910900	-11.597600	0.816221	-0.148132	0.526793	-1.000000	-1.000000	-1.000000	-1.000000	-1.000000	-1.000000	-1.000000	38.689655	0.000000	-1.000000	-1.000000	306341.000000	1774294150.479028
-21929.760000	-16246.980000	-16933.770000	-28518.345000	-35391.870000	-53048.565000	-41460.075000	-9136.665000	-13.729258	-10.142065	-7.038284	-7.113039	-7.509047	-7.381571	-8.790068	-17.401587	4.944240	10.910900	-11.597600	0.816221	-0.148132	0.526793	-1.000000	-1.000000	-1.000000	-1.000000	-1.000000	-1.000000	-1.000000	38.689655	0.000000	-1.000000	-1.000000	306342.000000	1774294150.479033
-21931.875000	-16248.960000	-16927.425000	-28510.740000	-35384.085000	-53037.315000	-41461.965000	-9154.170000	-7.024793	-5.392269	-3.823577	-3.859654	-4.121223	-4.206595	-5.546552	-11.582880	4.944240	10.910900	-11.597600	0.816221	-0.148132	0.526793	-1.000000	-1.000000	-1.000000	-1.000000	-1.000000	-1.000000	-1.000000	38.689655	0.000000	-1.000000	-1.000000	306343.000000	1774294150.490403
-21939.795000	-16259.445000	-16934.175000	-28515.240000	-35388.675000	-53039.205000	-41460.480000	-9129.915000	3.537778	2.482687	1.400066	1.360496	1.323476	1.081713	-0.001310	-0.901723	4.944240	10.910900	-11.597600	0.816221	-0.148132	0.526793	-1.000000	-1.000000	-1.000000	-1.000000	-1.000000	-1.000000	-1.000000	38.689655	0.000000	-1.000000	-1.000000	306344.000000	1774294150.490415
-21903.795000	-16235.415000	-16918.065000	-28500.120000	-35373.780000	-53026.830000	-41440.545000	-9065.610000	12.235697	9.137479	6.122853	6.212506	6.530828	6.293431	6.053285	11.108315	4.944240	10.910900	-11.597600	0.816221	-0.148132	0.526793	-1.000000	-1.000000	-1.000000	-1.000000	-1.000000	-1.000000	-1.000000	38.689655	0.000000	-1.000000	-1.000000	306345.000000	1774294150.490429
-21884.715000	-16221.060000	-16912.305000	-28496.205000	-35369.190000	-53024.670000	-41443.380000	-9072.900000	16.708834	12.139749	8.507378	8.731628	9.382074	9.232801	10.574624	21.459228	4.944240	10.910900	-11.597600	0.816221	-0.148132	0.526793	-1.000000	-1.000000	-1.000000	-1.000000	-1.000000	-1.000000	-1.000000	38.689655	0.000000	-1.000000	-1.000000	306346.000000	1774294150.490434
-21897.765000	-16231.050000	-16926.255000	-28510.965000	-35383.635000	-53040.645000	-41451.210000	-9091.395000	17.080688	11.771204	8.197960	8.335874	9.069223	8.996929	11.669990	25.861303	4.944240	10.910900	-11.597600	0.816221	-0.148132	0.526793	-1.000000	-1.000000	-1.000000	-1.000000	-1.000000	-1.000000	-1.000000	38.689655	0.000000	-1.000000	-1.000000	306347.000000	1774294150.494040
-21917.790000	-16252.515000	-16947.765000	-28533.420000	-35405.145000	-53062.470000	-41452.065000	-9089.190000	12.386536	8.117239	5.088315	4.958900	5.490498	5.556945	8.477182	20.248352	4.944240	10.910900	-11.597600	0.816221	-0.148132	0.526793	-1.000000	-1.000000	-1.000000	-1.000000	-1.000000	-1.000000	-1.000000	38.689655	0.000000	-1.000000	-1.000000	306348.000000	1774294150.494051
-21920.985000	-16258.995000	-16949.430000	-28535.040000	-35406.495000	-53063.865000	-41451.165000	-9074.745000	2.344664	0.889562	-0.677333	-1.017930	-0.802226	-0.479269	2.148018	6.247772	4.944240	10.910900	-11.597600	0.816221	-0.148132	0.526793	-1.000000	-1.000000	-1.000000	-1.000000	-1.000000	-1.000000	-1.000000	38.689655	0.000000	-1.000000	-1.000000	306349.000000	1774294150.494061
-21915.495000	-16253.235000	-16941.600000	-28526.130000	-35398.890000	-53054.865000	-41450.130000	-9072.405000	-9.339310	-7.694931	-6.994833	-7.340526	-7.393397	-6.857380	-4.467240	-8.841386	4.944240	10.910900	-11.597600	0.816221	-0.148132	0.526793	-1.000000	-1.000000	-1.000000	-1.000000	-1.000000	-1.000000	-1.000000	38.689655	0.000000	-1.000000	-1.000000	306350.000000	1774294150.494067
-21917.070000	-16247.970000	-16934.670000	-28518.795000	-35392.095000	-53045.235000	-41450.895000	-9091.845000	-16.803761	-12.830513	-10.139828	-10.318403	-10.585169	-10.092091	-8.364732	-18.075573	4.043900	11.872280	-5.447820	0.824644	-0.145630	0.533385	-1.000000	-1.000000	-1.000000	-1.000000	-1.000000	-1.000000	-1.000000	38.689655	0.000000	-1.000000	-1.000000	306351.000000	1774294150.500078
-21899.385000	-16231.095000	-16924.050000	-28509.165000	-35383.050000	-53033.490000	-41446.080000	-9083.655000	-16.510936	-10.997666	-7.826929	-7.815653	-8.275138	-8.094344	-8.079017	-19.210130	4.043900	11.872280	-5.447820	0.824644	-0.145630	0.533385	-1.000000	-1.000000	-1.000000	-1.000000	-1.000000	-1.000000	-1.000000	38.689655	0.000000	-1.000000	-1.000000	306352.000000	1774294150.500090
-21887.415000	-16221.555000	-16915.230000	-28499.535000	-35372.385000	-53023.905000	-41438.970000	-9071.370000	-9.297984	-3.238300	-1.289682	-1.208145	-1.760169	-1.996241	-4.530545	-14.614011	4.043900	11.872280	-5.447820	0.824644	-0.145630	0.533385	-1.000000	-1.000000	-1.000000	-1.000000	-1.000000	-1.000000	-1.000000	38.689655	0.000000	-1.000000	-1.000000	306353.000000	1774294150.512311
-21890.790000	-16222.680000	-16919.325000	-28502.910000	-35374.590000	-53027.550000	-41434.695000	-9075.420000	0.130294	5.206268	5.417678	5.486893	5.064884	4.519534	-0.302785	-8.696749	4.043900	11.872280	-5.447820	0.824644	-0.145630	0.533385	-1.000000	-1.000000	-1.000000	-1.000000	-1.000000	-1.000000	-1.000000	38.689655	0.000000	-1.000000	-1.000000	306354.000000	1774294150.512322
-21894.660000	-16221.150000	-16921.440000	-28506.240000	-35377.020000	-53031.690000	-41434.740000	-9081.315000	6.178445	8.910589	8.287527	8.432662	8.347699	7.773813	2.406510	-4.104179	4.043900	11.872280	-5.447820	0.824644	-0.145630	0.533385	-1.000000	-1.000000	-1.000000	-1.000000	-1.000000	-1.000000	-1.000000	38.689655	0.000000	-1.000000	-1.000000	306355.000000	1774294150.512333
-21895.470000	-16221.150000	-16923.555000	-28510.515000	-35380.620000	-53039.070000	-41434.965000	-9080.730000	6.836029	6.764442	6.562966	6.873777	7.153039	6.815581	3.133055	-0.168866	4.043900	11.872280	-5.447820	0.824644	-0.145630	0.533385	-1.000000	-1.000000	-1.000000	-1.000000	-1.000000	-1.000000	-1.000000	38.689655	0.000000	-1.000000	-1.000000	306356.000000	1774294150.512338
-21903.840000	-16228.440000	-16927.740000	-28515.870000	-35385.930000	-53044.830000	-41439.915000	-9086.445000	4.318915	1.799008	2.596069	2.959393	3.426682	3.360269	2.365386	4.069789	4.043900	11.872280	-5.447820	0.824644	-0.145630	0.533385	-1.000000	-1.000000	-1.000000	-1.000000	-1.000000	-1.000000	-1.000000	38.689655	0.000000	-1.000000	-1.000000	306357.000000	1774294150.512344
-21911.310000	-16232.400000	-16926.570000	-28511.865000	-35383.005000	-53040.690000	-41441.985000	-9092.385000	1.371072	-2.718837	-1.220848	-1.009701	-0.627365	-0.562230	0.571423	7.386980	4.043900	11.872280	-5.447820	0.824644	-0.145630	0.533385	-1.000000	-1.000000	-1.000000	-1.000000	-1.000000	-1.000000	-1.000000	38.689655	0.000000	-1.000000	-1.000000	306358.000000	1774294150.512348
-21927.420000	-16241.355000	-16926.750000	-28511.280000	-35383.455000	-53039.610000	-41450.580000	-9103.950000	-1.087127	-5.438620	-3.936703	-3.933872	-3.855111	-3.769304	-1.588393	8.148209	4.043900	11.872280	-5.447820	0.824644	-0.145630	0.533385	-1.000000	-1.000000	-1.000000	-1.000000	-1.000000	-1.000000	-1.000000	38.689655	0.000000	-1.000000	-1.000000	306359.000000	1774294150.518510
-21928.095000	-16234.290000	-16913.655000	-28497.375000	-35368.785000	-53022.870000	-41446.485000	-9105.930000	-3.057668	-6.207130	-5.171603	-5.263327	-5.521823	-5.456331	-3.081362	6.637963	4.043900	11.872280	-5.447820	0.824644	-0.145630	0.533385	-1.000000	-1.000000	-1.000000	-1.000000	-1.000000	-1.000000	-1.000000	38.689655	0.000000	-1.000000	-1.000000	306360.000000	1774294150.518522
-21927.105000	-16251.210000	-16920.855000	-28503.540000	-35374.860000	-53027.370000	-41451.615000	-9099.495000	-4.194346	-5.391234	-4.726378	-4.771839	-5.184248	-5.142315	-3.139991	4.179196	3.052000	11.078760	-0.106820	0.829771	-0.146728	0.539855	-1.000000	-1.000000	-1.000000	-1.000000	-1.000000	-1.000000	-1.000000	38.689655	0.000000	-1.000000	-1.000000	306361.000000	1774294150.518536
-21913.470000	-16263.135000	-16929.315000	-28511.595000	-35382.465000	-53036.730000	-41451.615000	-9086.580000	-3.816850	-4.092114	-3.319997	-3.263205	-3.577092	-3.493437	-2.055806	1.453268	3.052000	11.078760	-0.106820	0.829771	-0.146728	0.539855	-1.000000	-1.000000	-1.000000	-1.000000	-1.000000	-1.000000	-1.000000	38.689655	0.000000	-1.000000	-1.000000	306362.000000	1774294150.518540
-21903.480000	-16248.870000	-16924.365000	-28506.780000	-35377.155000	-53033.625000	-41447.340000	-9088.290000	-1.350585	-2.888484	-1.935605	-1.832247	-1.928747	-1.716886	-0.620791	-0.868863	3.052000	11.078760	-0.106820	0.829771	-0.146728	0.539855	-1.000000	-1.000000	-1.000000	-1.000000	-1.000000	-1.000000	-1.000000	38.689655	0.000000	-1.000000	-1.000000	306363.000000	1774294150.522955
-21919.995000	-16245.495000	-16940.070000	-28523.835000	-35394.075000	-53051.895000	-41453.460000	-9099.945000	2.695201	-0.627014	-0.573275	-0.524420	-0.458239	-0.115026	0.889682	-1.871335	3.052000	11.078760	-0.106820	0.829771	-0.146728	0.539855	-1.000000	-1.000000	-1.000000	-1.000000	-1.000000	-1.000000	-1.000000	38.689655	0.000000	-1.000000	-1.000000	306364.000000	1774294150.522967
-21934.575000	-16259.445000	-16953.345000	-28540.665000	-35411.895000	-53069.985000	-41463.450000	-9101.295000	5.989364	3.346973	0.859477	0.759824	0.846726	1.265694	2.180770	-1.672162	3.052000	11.078760	-0.106820	0.829771	-0.146728	0.539855	-1.000000	-1.000000	-1.000000	-1.000000	-1.000000	-1.000000	-1.000000	38.689655	0.000000	-1.000000	-1.000000	306365.000000	1774294150.526218
-21932.955000	-16258.365000	-16950.015000	-28538.325000	-35409.465000	-53067.105000	-41469.030000	-9114.255000	6.338465	7.307953	1.917375	1.559171	1.547901	1.968829	2.554796	-1.302605	3.052000	11.078760	-0.106820	0.829771	-0.146728	0.539855	-1.000000	-1.000000	-1.000000	-1.000000	-1.000000	-1.000000	-1.000000	38.689655	0.000000	-1.000000	-1.000000	306366.000000	1774294150.526225
-21939.840000	-16263.990000	-16948.665000	-28536.075000	-35407.800000	-53064.405000	-41476.770000	-9138.645000	4.014489	8.974522	2.504725	1.819795	1.728308	2.008780	1.813111	-1.653974	3.052000	11.078760	-0.106820	0.829771	-0.146728	0.539855	-1.000000	-1.000000	-1.000000	-1.000000	-1.000000	-1.000000	-1.000000	38.689655	0.000000	-1.000000	-1.000000	306367.000000	1774294150.531975
-21946.545000	-16280.190000	-16958.655000	-28545.930000	-35416.395000	-53069.220000	-41481.540000	-9139.950000	0.877584	7.288435	2.638458	1.764768	1.754990	1.737313	0.574032	-2.634059	3.052000	11.078760	-0.106820	0.829771	-0.146728	0.539855	-1.000000	-1.000000	-1.000000	-1.000000	-1.000000	-1.000000	-1.000000	38.689655	0.000000	-1.000000	-1.000000	306368.000000	1774294150.531986
-21922.065000	-16270.020000	-16951.545000	-28537.605000	-35407.620000	-53057.970000	-41469.930000	-9100.980000	-1.364536	2.765036	1.976538	1.286111	1.519313	1.198473	-0.223288	-2.486395	3.052000	11.078760	-0.106820	0.829771	-0.146728	0.539855	-1.000000	-1.000000	-1.000000	-1.000000	-1.000000	-1.000000	-1.000000	38.689655	0.000000	-1.000000	-1.000000	306369.000000	1774294150.536723
-21904.605000	-16251.795000	-16937.595000	-28522.665000	-35393.400000	-53043.570000	-41453.775000	-9075.240000	-1.621682	-1.892539	1.040577	0.928585	1.388586	0.946073	0.320645	0.631145	3.052000	11.078760	-0.106820	0.829771	-0.146728	0.539855	-1.000000	-1.000000	-1.000000	-1.000000	-1.000000	-1.000000	-1.000000	38.689655	0.000000	-1.000000	-1.000000	306370.000000	1774294150.536733
-21918.645000	-16236.720000	-16925.355000	-28511.595000	-35382.015000	-53034.480000	-41448.060000	-9101.205000	-0.464462	-3.349077	1.323817	1.926512	2.374366	2.032707	2.276882	5.273520	1.983800	7.614740	3.143560	0.831907	-0.150146	0.544249	-1.000000	-1.000000	-1.000000	-1.000000	-1.000000	-1.000000	-1.000000	38.689655	0.000000	-1.000000	-1.000000	306371.000000	1774294150.537670
-21944.565000	-16235.640000	-16922.790000	-28508.175000	-35377.695000	-53033.850000	-41450.265000	-9134.055000	-0.411588	-1.340478	3.131072	4.227690	4.384517	4.219191	4.170513	6.844453	1.983800	7.614740	3.143560	0.831907	-0.150146	0.544249	-1.000000	-1.000000	-1.000000	-1.000000	-1.000000	-1.000000	-1.000000	38.689655	0.000000	-1.000000	-1.000000	306372.000000	1774294150.537676
-21947.625000	-16243.830000	-16929.315000	-28513.620000	-35382.690000	-53042.445000	-41451.885000	-9126.180000	-2.749759	1.099957	4.880658	6.116966	5.909177	5.765587	4.151886	2.888663	1.983800	7.614740	3.143560	0.831907	-0.150146	0.544249	-1.000000	-1.000000	-1.000000	-1.000000	-1.000000	-1.000000	-1.000000	38.689655	0.000000	-1.000000	-1.000000	306373.000000	1774294150.543274
-21930.750000	-16256.205000	-16937.955000	-28521.135000	-35391.690000	-53051.895000	-41455.800000	-9117.855000	-5.056434	1.170693	4.585057	5.743756	5.325118	4.967522	1.831401	-3.402321	1.983800	7.614740	3.143560	0.831907	-0.150146	0.544249	-1.000000	-1.000000	-1.000000	-1.000000	-1.000000	-1.000000	-1.000000	38.689655	0.000000	-1.000000	-1.000000	306374.000000	1774294150.543284
-21897.585000	-16226.955000	-16912.350000	-28496.970000	-35368.425000	-53028.675000	-41435.415000	-9076.005000	-3.621965	-1.019815	1.653890	2.571705	2.138140	1.515597	-1.307813	-6.031061	1.983800	7.614740	3.143560	0.831907	-0.150146	0.544249	-1.000000	-1.000000	-1.000000	-1.000000	-1.000000	-1.000000	-1.000000	38.689655	0.000000	-1.000000	-1.000000	306375.000000	1774294150.545688
-21877.695000	-16212.510000	-16904.970000	-28493.415000	-35365.140000	-53020.395000	-41426.640000	-9052.920000	2.575064	-2.624421	-2.167848	-1.866346	-2.201100	-2.827238	-2.942001	-1.416612	1.983800	7.614740	3.143560	0.831907	-0.150146	0.544249	-1.000000	-1.000000	-1.000000	-1.000000	-1.000000	-1.000000	-1.000000	38.689655	0.000000	-1.000000	-1.000000	306376.000000	1774294150.545698
-21877.875000	-16223.580000	-16920.180000	-28508.220000	-35379.945000	-53031.645000	-41434.650000	-9051.210000	10.087686	-1.614485	-4.811744	-5.576769	-5.775789	-5.955637	-2.325234	7.588195	1.983800	7.614740	3.143560	0.831907	-0.150146	0.544249	-1.000000	-1.000000	-1.000000	-1.000000	-1.000000	-1.000000	-1.000000	38.689655	0.000000	-1.000000	-1.000000	306377.000000	1774294150.553049
-21879.090000	-16215.885000	-16915.230000	-28502.370000	-35373.690000	-53026.830000	-41435.640000	-9071.145000	12.703769	0.357286	-6.199800	-8.020768	-8.080470	-7.544504	-1.462383	12.311605	1.983800	7.614740	3.143560	0.831907	-0.150146	0.544249	-1.000000	-1.000000	-1.000000	-1.000000	-1.000000	-1.000000	-1.000000	38.689655	0.000000	-1.000000	-1.000000	306378.000000	1774294150.553061
-21872.160000	-16206.480000	-16909.020000	-28497.150000	-35369.505000	-53026.020000	-41434.515000	-9068.085000	6.937979	0.560879	-6.856874	-9.057812	-8.977626	-7.954009	-2.486610	6.386393	1.983800	7.614740	3.143560	0.831907	-0.150146	0.544249	-1.000000	-1.000000	-1.000000	-1.000000	-1.000000	-1.000000	-1.000000	38.689655	0.000000	-1.000000	-1.000000	306379.000000	1774294150.555565
-21894.705000	-16224.390000	-16924.950000	-28512.495000	-35383.365000	-53040.915000	-41435.865000	-9072.180000	-4.130269	-1.699763	-6.598744	-8.233105	-8.033753	-7.072969	-4.927566	-6.505992	1.983800	7.614740	3.143560	0.831907	-0.150146	0.544249	-1.000000	-1.000000	-1.000000	-1.000000	-1.000000	-1.000000	-1.000000	38.689655	0.000000	-1.000000	-1.000000	306380.000000	1774294150.555576
-21898.260000	-16218.630000	-16924.320000	-28513.215000	-35382.105000	-53040.735000	-41427.180000	-9066.915000	-13.650923	-5.126060	-5.204724	-5.617394	-5.323363	-4.782604	-6.271103	-16.175075	-0.549360	4.471180	4.761120	0.832578	-0.150207	0.546507	-1.000000	-1.000000	-1.000000	-1.000000	-1.000000	-1.000000	-1.000000	38.689655	0.000000	-1.000000	-1.000000	306381.000000	1774294150.557758
-21884.040000	-16192.980000	-16904.970000	-28493.730000	-35363.250000	-53021.835000	-41415.840000	-9059.490000	-16.253960	-6.560310	-2.054850	-1.213775	-0.820554	-0.638083	-4.259107	-16.159196	-0.549360	4.471180	4.761120	0.832578	-0.150207	0.546507	-1.000000	-1.000000	-1.000000	-1.000000	-1.000000	-1.000000	-1.000000	38.689655	0.000000	-1.000000	-1.000000	306382.000000	1774294150.557769
-21880.395000	-16194.330000	-16898.445000	-28485.765000	-35355.645000	-53013.330000	-41411.070000	-9058.410000	-11.256816	-3.300020	3.212567	4.813422	5.271948	5.339751	0.956601	-8.172712	-0.549360	4.471180	4.761120	0.832578	-0.150207	0.546507	-1.000000	-1.000000	-1.000000	-1.000000	-1.000000	-1.000000	-1.000000	38.689655	0.000000	-1.000000	-1.000000	306383.000000	1774294150.561684
-21876.750000	-16206.345000	-16901.325000	-28488.600000	-35358.255000	-53015.625000	-41416.875000	-9061.290000	-2.735262	2.560179	8.299917	10.037346	10.446233	10.490977	6.215672	1.203787	-0.549360	4.471180	4.761120	0.832578	-0.150207	0.546507	-1.000000	-1.000000	-1.000000	-1.000000	-1.000000	-1.000000	-1.000000	38.689655	0.000000	-1.000000	-1.000000	306384.000000	1774294150.561692
-21879.045000	-16208.280000	-16901.415000	-28487.880000	-35357.400000	-53012.655000	-41422.770000	-9066.105000	4.127625	5.902529	9.657623	11.085635	11.306482	11.140890	7.798173	6.239603	-0.549360	4.471180	4.761120	0.832578	-0.150207	0.546507	-1.000000	-1.000000	-1.000000	-1.000000	-1.000000	-1.000000	-1.000000	38.689655	0.000000	-1.000000	-1.000000	306385.000000	1774294150.570274
-21884.490000	-16212.195000	-16901.325000	-28486.485000	-35355.150000	-53009.595000	-41425.380000	-9070.515000	6.743114	4.675130	6.559745	7.441712	7.383387	6.754423	4.848500	5.667068	-0.549360	4.471180	4.761120	0.832578	-0.150207	0.546507	-1.000000	-1.000000	-1.000000	-1.000000	-1.000000	-1.000000	-1.000000	38.689655	0.000000	-1.000000	-1.000000	306386.000000	1774294150.570284
-21893.490000	-16216.740000	-16904.250000	-28488.150000	-35355.780000	-53011.755000	-41427.900000	-9076.590000	5.368794	0.704828	1.180983	1.413823	1.105806	0.076407	-0.340912	2.115958	-0.549360	4.471180	4.761120	0.832578	-0.150207	0.546507	-1.000000	-1.000000	-1.000000	-1.000000	-1.000000	-1.000000	-1.000000	38.689655	0.000000	-1.000000	-1.000000	306387.000000	1774294150.570295
-21880.170000	-16209.675000	-16904.115000	-28489.905000	-35357.085000	-53014.635000	-41423.670000	-9068.715000	2.238420	-3.166232	-3.895824	-4.298278	-4.696062	-5.668780	-4.614091	-0.674872	-0.549360	4.471180	4.761120	0.832578	-0.150207	0.546507	-1.000000	-1.000000	-1.000000	-1.000000	-1.000000	-1.000000	-1.000000	38.689655	0.000000	-1.000000	-1.000000	306388.000000	1774294150.570300
-21879.855000	-16193.565000	-16893.045000	-28479.510000	-35346.060000	-53007.435000	-41414.355000	-9074.115000	0.762885	-4.206727	-6.381907	-7.310611	-7.651682	-8.085356	-5.701787	-0.289855	-0.549360	4.471180	4.761120	0.832578	-0.150207	0.546507	-1.000000	-1.000000	-1.000000	-1.000000	-1.000000	-1.000000	-1.000000	38.689655	0.000000	-1.000000	-1.000000	306389.000000	1774294150.573521
-21911.625000	-16196.310000	-16893.180000	-28478.295000	-35346.870000	-53009.415000	-41420.565000	-9112.320000	2.145065	-1.362369	-5.055908	-6.283617	-6.587253	-6.368302	-3.385021	2.213505	-0.549360	4.471180	4.761120	0.832578	-0.150207	0.546507	-1.000000	-1.000000	-1.000000	-1.000000	-1.000000	-1.000000	-1.000000	38.689655	0.000000	-1.000000	-1.000000	306390.000000	1774294150.573530
-21914.280000	-16209.855000	-16906.545000	-28493.955000	-35364.330000	-53026.515000	-41437.980000	-9115.830000	3.343604	2.798426	-1.564204	-2.744132	-3.147804	-2.527774	-0.003716	3.088830	-3.982860	-1.495480	3.113040	0.830320	-0.150573	0.546385	-1.000000	-1.000000	-1.000000	-1.000000	-1.000000	-1.000000	-1.000000	38.689655	0.000000	-1.000000	-1.000000	306391.000000	1774294150.577700
-21884.985000	-16207.245000	-16906.680000	-28493.820000	-35363.475000	-53021.295000	-41424.795000	-9054.315000	1.838844	4.476826	0.709273	-0.150452	-0.687683	0.041806	1.748793	1.561992	-3.982860	-1.495480	3.113040	0.830320	-0.150573	0.546385	-1.000000	-1.000000	-1.000000	-1.000000	-1.000000	-1.000000	-1.000000	38.689655	0.000000	-1.000000	-1.000000	306392.000000	1774294150.577710
-21860.370000	-16186.995000	-16882.065000	-28468.215000	-35338.230000	-52993.080000	-41408.955000	-9039.690000	-0.328527	3.195524	0.733187	0.316235	-0.155570	0.584744	1.986055	1.514976	-3.982860	-1.495480	3.113040	0.830320	-0.150573	0.546385	-1.000000	-1.000000	-1.000000	-1.000000	-1.000000	-1.000000	-1.000000	38.689655	0.000000	-1.000000	-1.000000	306393.000000	1774294150.588168
-21883.185000	-16206.390000	-16899.255000	-28486.845000	-35357.940000	-53010.000000	-41428.395000	-9068.715000	-0.413217	1.328983	0.407602	0.473740	0.327147	1.065460	2.439111	4.479631	-3.982860	-1.495480	3.113040	0.830320	-0.150573	0.546385	-1.000000	-1.000000	-1.000000	-1.000000	-1.000000	-1.000000	-1.000000	38.689655	0.000000	-1.000000	-1.000000	306394.000000	1774294150.588181
-21897.810000	-16221.465000	-16919.010000	-28508.175000	-35378.190000	-53028.855000	-41430.870000	-9063.900000	0.566346	-0.137718	0.541739	0.940897	1.197467	1.843583	2.984742	6.541910	-3.982860	-1.495480	3.113040	0.830320	-0.150573	0.546385	-1.000000	-1.000000	-1.000000	-1.000000	-1.000000	-1.000000	-1.000000	38.689655	0.000000	-1.000000	-1.000000	306395.000000	1774294150.588194
-21898.800000	-16220.745000	-16920.270000	-28507.365000	-35375.175000	-53028.675000	-41433.210000	-9092.385000	0.042986	-1.952876	-0.017656	0.421375	0.999170	1.408601	2.298701	4.050709	-3.982860	-1.495480	3.113040	0.830320	-0.150573	0.546385	-1.000000	-1.000000	-1.000000	-1.000000	-1.000000	-1.000000	-1.000000	38.689655	0.000000	-1.000000	-1.000000	306396.000000	1774294150.588200
-21873.960000	-16199.280000	-16907.940000	-28495.395000	-35362.980000	-53021.700000	-41432.850000	-9110.790000	-1.806192	-3.597462	-1.139343	-0.760220	0.020074	-0.007493	0.274525	-2.725556	-3.982860	-1.495480	3.113040	0.830320	-0.150573	0.546385	-1.000000	-1.000000	-1.000000	-1.000000	-1.000000	-1.000000	-1.000000	38.689655	0.000000	-1.000000	-1.000000	306397.000000	1774294150.590945
-21878.100000	-16207.965000	-16915.995000	-28503.540000	-35371.530000	-53031.735000	-41429.565000	-9068.310000	-2.297183	-3.492632	-1.261097	-0.811224	-0.014342	-0.677065	-1.973538	-9.536048	-3.982860	-1.495480	3.113040	0.830320	-0.150573	0.546385	-1.000000	-1.000000	-1.000000	-1.000000	-1.000000	-1.000000	-1.000000	38.689655	0.000000	-1.000000	-1.000000	306398.000000	1774294150.590957
-21882.915000	-16206.975000	-16909.245000	-28496.295000	-35364.780000	-53023.815000	-41412.420000	-9023.400000	-0.066831	-1.527418	0.102602	0.692735	1.269248	0.054822	-2.771542	-9.582437	-3.982860	-1.495480	3.113040	0.830320	-0.150573	0.546385	-1.000000	-1.000000	-1.000000	-1.000000	-1.000000	-1.000000	-1.000000	38.689655	0.000000	-1.000000	-1.000000	306399.000000	1774294150.602452
-21886.290000	-16206.570000	-16903.305000	-28490.445000	-35359.695000	-53019.945000	-41416.695000	-9039.555000	2.805236	1.082600	2.299463	2.925877	3.137319	1.794088	-1.012881	-1.021004	-3.982860	-1.495480	3.113040	0.830320	-0.150573	0.546385	-1.000000	-1.000000	-1.000000	-1.000000	-1.000000	-1.000000	-1.000000	38.689655	0.000000	-1.000000	-1.000000	306400.000000	1774294150.602463
-21881.250000	-16214.940000	-16909.965000	-28497.105000	-35367.300000	-53024.940000	-41429.655000	-9060.165000	2.859700	2.960172	4.135789	4.604424	4.423013	3.374575	1.713612	7.812360	-8.011500	-4.394880	0.152600	0.827451	-0.150695	0.544371	-1.000000	-1.000000	-1.000000	-1.000000	-1.000000	-1.000000	-1.000000	38.689655	0.000000	-1.000000	-1.000000	306401.000000	1774294150.602477
-21883.140000	-16221.015000	-16916.850000	-28503.720000	-35373.690000	-53028.405000	-41439.285000	-9076.545000	-0.833642	2.829913	3.860446	3.985065	3.463937	2.930361	2.185075	7.476345	-8.011500	-4.394880	0.152600	0.827451	-0.150695	0.544371	-1.000000	-1.000000	-1.000000	-1.000000	-1.000000	-1.000000	-1.000000	38.689655	0.000000	-1.000000	-1.000000	306402.000000	1774294150.602482
-21893.220000	-16222.860000	-16915.365000	-28501.065000	-35370.090000	-53024.175000	-41441.040000	-9078.660000	-5.298639	0.935039	1.222983	0.963945	0.288378	0.346369	-0.221181	-1.323272	-8.011500	-4.394880	0.152600	0.827451	-0.150695	0.544371	-1.000000	-1.000000	-1.000000	-1.000000	-1.000000	-1.000000	-1.000000	38.689655	0.000000	-1.000000	-1.000000	306403.000000	1774294150.602488
-21890.655000	-16219.395000	-16914.780000	-28500.120000	-35368.425000	-53023.770000	-41433.165000	-9062.955000	-6.633519	-0.625949	-1.451957	-1.922188	-2.481028	-1.882389	-2.817294	-9.866366	-8.011500	-4.394880	0.152600	0.827451	-0.150695	0.544371	-1.000000	-1.000000	-1.000000	-1.000000	-1.000000	-1.000000	-1.000000	38.689655	0.000000	-1.000000	-1.000000	306404.000000	1774294150.602493
-21878.820000	-16200.540000	-16900.740000	-28487.340000	-35354.295000	-53012.430000	-41418.135000	-9056.655000	-3.697337	-0.322239	-1.995601	-2.464950	-2.728126	-1.763513	-2.856146	-10.540879	-8.011500	-4.394880	0.152600	0.827451	-0.150695	0.544371	-1.000000	-1.000000	-1.000000	-1.000000	-1.000000	-1.000000	-1.000000	38.689655	0.000000	-1.000000	-1.000000	306405.000000	1774294150.605577
-21885.165000	-16205.490000	-16908.345000	-28496.565000	-35363.250000	-53025.030000	-41424.795000	-9075.150000	1.285285	1.181799	-0.684981	-1.104359	-1.055689	0.033073	-0.127805	-3.010353	-8.011500	-4.394880	0.152600	0.827451	-0.150695	0.544371	-1.000000	-1.000000	-1.000000	-1.000000	-1.000000	-1.000000	-1.000000	38.689655	0.000000	-1.000000	-1.000000	306406.000000	1774294150.605587
-21881.970000	-16200.270000	-16905.105000	-28494.090000	-35361.990000	-53024.445000	-41425.650000	-9084.915000	5.166603	2.123171	0.622771	0.173643	0.439717	1.355012	2.892954	5.618276	-8.011500	-4.394880	0.152600	0.827451	-0.150695	0.544371	-1.000000	-1.000000	-1.000000	-1.000000	-1.000000	-1.000000	-1.000000	38.689655	0.000000	-1.000000	-1.000000	306407.000000	1774294150.609523
-21867.930000	-16183.305000	-16885.305000	-28474.515000	-35343.315000	-53003.565000	-41414.715000	-9070.515000	6.647204	1.909256	0.879533	0.374162	0.701382	1.176155	3.685921	8.077844	-8.011500	-4.394880	0.152600	0.827451	-0.150695	0.544371	-1.000000	-1.000000	-1.000000	-1.000000	-1.000000	-1.000000	-1.000000	38.689655	0.000000	-1.000000	-1.000000	306408.000000	1774294150.609534
-21876.165000	-16197.975000	-16893.945000	-28481.535000	-35351.190000	-53008.785000	-41420.745000	-9060.840000	5.912365	1.158047	0.474369	0.065677	0.291259	0.292430	2.171686	4.324305	-8.011500	-4.394880	0.152600	0.827451	-0.150695	0.544371	-1.000000	-1.000000	-1.000000	-1.000000	-1.000000	-1.000000	-1.000000	38.689655	0.000000	-1.000000	-1.000000	306409.000000	1774294150.613560
-21892.860000	-16221.420000	-16910.145000	-28496.070000	-35365.050000	-53018.415000	-41428.755000	-9066.285000	2.715078	-0.362519	-0.498710	-0.523209	-0.479325	-0.732400	-0.180249	-0.290054	-8.011500	-4.394880	0.152600	0.827451	-0.150695	0.544371	-1.000000	-1.000000	-1.000000	-1.000000	-1.000000	-1.000000	-1.000000	38.689655	0.000000	-1.000000	-1.000000	306410.000000	1774294150.613572
-21894.795000	-16228.710000	-16915.230000	-28500.030000	-35367.840000	-53019.315000	-41429.925000	-9059.895000	-2.502714	-3.221385	-2.336312	-1.774206	-1.845569	-2.101885	-2.021506	-1.525589	-9.110220	-6.088740	-1.724380	0.826475	-0.151062	0.537779	-1.000000	-1.000000	-1.000000	-1.000000	-1.000000	-1.000000	-1.000000	38.689655	0.000000	-1.000000	-1.000000	306411.000000	1774294150.617495
-21889.710000	-16225.020000	-16914.915000	-28499.940000	-35368.110000	-53019.945000	-41430.780000	-9059.130000	-6.795455	-6.033207	-4.110529	-3.076411	-3.131915	-3.290777	-2.586262	0.749535	-9.110220	-6.088740	-1.724380	0.826475	-0.151062	0.537779	-1.000000	-1.000000	-1.000000	-1.000000	-1.000000	-1.000000	-1.000000	38.689655	0.000000	-1.000000	-1.000000	306412.000000	1774294150.617505
-21878.190000	-16216.245000	-16911.315000	-28497.870000	-35366.670000	-53020.980000	-41430.510000	-9059.175000	-7.019792	-6.377982	-4.245940	-3.199624	-3.228111	-3.347852	-2.104679	3.589062	-9.110220	-6.088740	-1.724380	0.826475	-0.151062	0.537779	-1.000000	-1.000000	-1.000000	-1.000000	-1.000000	-1.000000	-1.000000	38.689655	0.000000	-1.000000	-1.000000	306413.000000	1774294150.622702
-21889.530000	-16216.605000	-16914.375000	-28502.460000	-35372.070000	-53030.205000	-41432.265000	-9068.985000	-3.384768	-3.704237	-2.453149	-1.939902	-2.085450	-2.278163	-1.497821	4.081200	-9.110220	-6.088740	-1.724380	0.826475	-0.151062	0.537779	-1.000000	-1.000000	-1.000000	-1.000000	-1.000000	-1.000000	-1.000000	38.689655	0.000000	-1.000000	-1.000000	306414.000000	1774294150.622712
-21893.355000	-16218.900000	-16913.970000	-28503.045000	-35371.935000	-53033.715000	-41434.830000	-9071.280000	1.012453	0.331796	0.233945	-0.049624	-0.402652	-0.756602	-1.177167	1.702322	-9.110220	-6.088740	-1.724380	0.826475	-0.151062	0.537779	-1.000000	-1.000000	-1.000000	-1.000000	-1.000000	-1.000000	-1.000000	38.689655	0.000000	-1.000000	-1.000000	306415.000000	1774294150.625588
-21891.330000	-16219.800000	-16901.190000	-28489.365000	-35356.545000	-53017.560000	-41428.980000	-9066.645000	3.501997	3.616092	2.706539	1.816053	1.449629	0.891067	-0.790007	-2.064926	-9.110220	-6.088740	-1.724380	0.826475	-0.151062	0.537779	-1.000000	-1.000000	-1.000000	-1.000000	-1.000000	-1.000000	-1.000000	38.689655	0.000000	-1.000000	-1.000000	306416.000000	1774294150.625597
-21896.775000	-16231.860000	-16906.950000	-28494.090000	-35363.295000	-53020.665000	-41433.480000	-9077.265000	3.384241	4.657087	4.085295	3.104523	3.095637	2.433063	-0.056733	-5.494454	-9.110220	-6.088740	-1.724380	0.826475	-0.151062	0.537779	-1.000000	-1.000000	-1.000000	-1.000000	-1.000000	-1.000000	-1.000000	38.689655	0.000000	-1.000000	-1.000000	306417.000000	1774294150.634336
-21932.865000	-16256.025000	-16937.595000	-28523.250000	-35393.490000	-53046.720000	-41457.420000	-9114.075000	1.049509	3.189939	3.502443	2.945279	3.422566	2.965933	0.623006	-7.926437	-9.110220	-6.088740	-1.724380	0.826475	-0.151062	0.537779	-1.000000	-1.000000	-1.000000	-1.000000	-1.000000	-1.000000	-1.000000	38.689655	0.000000	-1.000000	-1.000000	306418.000000	1774294150.634346
-21945.105000	-16267.230000	-16953.615000	-28540.530000	-35410.770000	-53062.920000	-41474.745000	-9121.455000	-2.519658	0.501076	0.754084	0.799429	1.468807	1.508360	0.458697	-9.150667	-9.110220	-6.088740	-1.724380	0.826475	-0.151062	0.537779	-1.000000	-1.000000	-1.000000	-1.000000	-1.000000	-1.000000	-1.000000	38.689655	0.000000	-1.000000	-1.000000	306419.000000	1774294150.634356
-21936.240000	-16267.365000	-16948.395000	-28534.995000	-35404.200000	-53056.935000	-41477.400000	-9128.025000	-5.111280	-1.414374	-2.638336	-2.225110	-1.796527	-1.296425	-0.617862	-8.112920	-9.110220	-6.088740	-1.724380	0.826475	-0.151062	0.537779	-1.000000	-1.000000	-1.000000	-1.000000	-1.000000	-1.000000	-1.000000	38.689655	0.000000	-1.000000	-1.000000	306420.000000	1774294150.634362
-21940.830000	-16256.340000	-16935.615000	-28519.380000	-35387.640000	-53042.805000	-41472.405000	-9166.275000	-4.423419	-1.290157	-3.961264	-3.521643	-3.527667	-2.900139	-1.416699	-4.412662	-9.766400	-6.226080	-3.265640	0.825437	-0.150390	0.530089	-1.000000	-1.000000	-1.000000	-1.000000	-1.000000	-1.000000	-1.000000	38.689655	0.000000	-1.000000	-1.000000	306421.000000	1774294150.637780
-21937.455000	-16246.395000	-16934.940000	-28519.155000	-35387.685000	-53047.530000	-41466.240000	-9146.700000	-0.642907	0.649868	-1.851573	-1.474874	-1.775279	-1.372054	-0.609671	0.627406	-9.766400	-6.226080	-3.265640	0.825437	-0.150390	0.530089	-1.000000	-1.000000	-1.000000	-1.000000	-1.000000	-1.000000	-1.000000	38.689655	0.000000	-1.000000	-1.000000	306422.000000	1774294150.637790
-21924.855000	-16245.405000	-16940.655000	-28526.220000	-35393.940000	-53056.080000	-41447.070000	-9071.235000	4.198034	3.083442	2.161278	2.566201	2.251596	2.291413	2.117683	7.135426	-9.766400	-6.226080	-3.265640	0.825437	-0.150390	0.530089	-1.000000	-1.000000	-1.000000	-1.000000	-1.000000	-1.000000	-1.000000	38.689655	0.000000	-1.000000	-1.000000	306423.000000	1774294150.641560
-21898.215000	-16212.780000	-16908.390000	-28492.695000	-35361.000000	-53023.365000	-41425.650000	-9063.720000	8.609813	4.909897	5.479263	5.897886	5.754036	5.571720	6.011287	16.040199	-9.766400	-6.226080	-3.265640	0.825437	-0.150390	0.530089	-1.000000	-1.000000	-1.000000	-1.000000	-1.000000	-1.000000	-1.000000	38.689655	0.000000	-1.000000	-1.000000	306424.000000	1774294150.641569
-21919.590000	-16227.135000	-16916.760000	-28500.930000	-35369.370000	-53031.330000	-41452.965000	-9126.090000	11.044968	5.651738	6.587242	6.859301	6.876883	6.718402	8.767087	22.525726	-9.766400	-6.226080	-3.265640	0.825437	-0.150390	0.530089	-1.000000	-1.000000	-1.000000	-1.000000	-1.000000	-1.000000	-1.000000	38.689655	0.000000	-1.000000	-1.000000	306425.000000	1774294150.648206
-21912.345000	-16236.405000	-16924.635000	-28508.985000	-35377.740000	-53036.055000	-41452.605000	-9099.315000	9.491666	4.552462	4.996629	4.928268	5.004134	4.964399	7.407895	18.923015	-9.766400	-6.226080	-3.265640	0.825437	-0.150390	0.530089	-1.000000	-1.000000	-1.000000	-1.000000	-1.000000	-1.000000	-1.000000	38.689655	0.000000	-1.000000	-1.000000	306426.000000	1774294150.648218
-21879.765000	-16231.005000	-16923.645000	-28508.670000	-35378.730000	-53029.665000	-41427.720000	-9023.580000	4.822361	1.553480	1.632076	1.098312	1.163578	1.245203	2.417889	6.989807	-9.766400	-6.226080	-3.265640	0.825437	-0.150390	0.530089	-1.000000	-1.000000	-1.000000	-1.000000	-1.000000	-1.000000	-1.000000	38.689655	0.000000	-1.000000	-1.000000	306427.000000	1774294150.649604
-21880.125000	-16223.265000	-16919.055000	-28504.755000	-35374.455000	-53025.390000	-41426.460000	-9036.720000	0.677868	-1.611395	-1.281929	-2.212102	-2.220161	-1.910043	-1.983584	-3.413327	-9.766400	-6.226080	-3.265640	0.825437	-0.150390	0.530089	-1.000000	-1.000000	-1.000000	-1.000000	-1.000000	-1.000000	-1.000000	38.689655	0.000000	-1.000000	-1.000000	306428.000000	1774294150.649615
-21880.980000	-16216.875000	-16914.555000	-28499.130000	-35367.030000	-53021.970000	-41426.865000	-9054.495000	-1.821719	-3.428254	-2.617965	-3.643457	-3.773283	-3.210612	-3.461340	-7.908805	-9.766400	-6.226080	-3.265640	0.825437	-0.150390	0.530089	-1.000000	-1.000000	-1.000000	-1.000000	-1.000000	-1.000000	-1.000000	38.689655	0.000000	-1.000000	-1.000000	306429.000000	1774294150.653571
-21870.540000	-16204.005000	-16908.615000	-28494.180000	-35361.180000	-53020.305000	-41422.005000	-9056.475000	-4.383857	-4.117450	-3.138362	-3.881651	-4.059315	-3.559834	-3.525544	-9.559879	-9.766400	-6.226080	-3.265640	0.825437	-0.150390	0.530089	-1.000000	-1.000000	-1.000000	-1.000000	-1.000000	-1.000000	-1.000000	38.689655	0.000000	-1.000000	-1.000000	306430.000000	1774294150.653579
-21873.825000	-16201.530000	-16910.280000	-28496.655000	-35362.980000	-53026.065000	-41419.620000	-9060.570000	-7.554631	-4.463186	-3.646069	-3.854704	-3.908487	-3.891169	-4.175799	-11.734638	-9.171260	-3.967600	-3.402980	0.825376	-0.148559	0.521727	-1.000000	-1.000000	-1.000000	-1.000000	-1.000000	-1.000000	-1.000000	38.689655	0.000000	-1.000000	-1.000000	306431.000000	1774294150.658780
-21873.735000	-16193.880000	-16904.205000	-28490.760000	-35356.905000	-53020.305000	-41412.510000	-9055.845000	-10.335120	-4.701727	-4.039942	-3.665319	-3.493389	-4.065223	-5.758308	-15.499464	-9.171260	-3.967600	-3.402980	0.825376	-0.148559	0.521727	-1.000000	-1.000000	-1.000000	-1.000000	-1.000000	-1.000000	-1.000000	38.689655	0.000000	-1.000000	-1.000000	306432.000000	1774294150.658792
-21865.365000	-16182.540000	-16889.940000	-28475.775000	-35342.505000	-53004.870000	-41405.400000	-9048.195000	-11.486354	-4.600762	-4.002951	-3.196390	-2.876618	-3.738702	-7.077273	-18.320131	-9.171260	-3.967600	-3.402980	0.825376	-0.148559	0.521727	-1.000000	-1.000000	-1.000000	-1.000000	-1.000000	-1.000000	-1.000000	38.689655	0.000000	-1.000000	-1.000000	306433.000000	1774294150.661602
-21870.315000	-16190.235000	-16890.660000	-28474.875000	-35341.830000	-53001.495000	-41406.705000	-9054.540000	-9.609040	-3.526189	-3.087845	-2.125753	-1.856059	-2.541046	-6.139648	-14.956667	-9.171260	-3.967600	-3.402980	0.825376	-0.148559	0.521727	-1.000000	-1.000000	-1.000000	-1.000000	-1.000000	-1.000000	-1.000000	38.689655	0.000000	-1.000000	-1.000000	306434.000000	1774294150.661613
-21871.395000	-16186.680000	-16882.515000	-28467.360000	-35334.540000	-52992.540000	-41409.315000	-9058.095000	-4.468754	-0.943435	-0.642644	0.203415	0.271661	0.027419	-2.269661	-4.583736	-9.171260	-3.967600	-3.402980	0.825376	-0.148559	0.521727	-1.000000	-1.000000	-1.000000	-1.000000	-1.000000	-1.000000	-1.000000	38.689655	0.000000	-1.000000	-1.000000	306435.000000	1774294150.666118
-21887.145000	-16181.955000	-16870.095000	-28455.120000	-35323.380000	-52981.560000	-41409.090000	-9064.530000	1.470102	2.511271	3.148161	3.678399	3.527275	3.564194	2.422891	6.372457	-9.171260	-3.967600	-3.402980	0.825376	-0.148559	0.521727	-1.000000	-1.000000	-1.000000	-1.000000	-1.000000	-1.000000	-1.000000	38.689655	0.000000	-1.000000	-1.000000	306436.000000	1774294150.666128
-21916.170000	-16208.100000	-16893.315000	-28477.710000	-35345.880000	-53003.520000	-41418.990000	-9075.555000	4.677642	4.704837	6.205618	6.324127	5.999278	5.999657	5.051967	11.788012	-9.171260	-3.967600	-3.402980	0.825376	-0.148559	0.521727	-1.000000	-1.000000	-1.000000	-1.000000	-1.000000	-1.000000	-1.000000	38.689655	0.000000	-1.000000	-1.000000	306437.000000	1774294150.669491
