Channel1	Channel2	Channel3	Channel4	Channel5	Channel6	Channel7	Channel8	FilteredChannel1	FilteredChannel2	FilteredChannel3	FilteredChannel4	FilteredChannel5	FilteredChannel6	FilteredChannel7	FilteredChannel8	GyroX	GyroY	GyroZ	AccX	AccY	AccZ	PPG1	PPG2	rawPPG1	rawPPG2	rawPPG3	Hr	Hrv	Battery	Trigger	PhysicalTrigger	AutoTrigger	NumMeasurements	Timestamp
-391.680000	-11775.285000	7995.465000	11603.745000	-36913.545000	-43930.710000	6969.735000	11973.735000	3.441976	0.964277	0.755213	-0.362746	0.220089	1.520278	1.037650	3.946646	-1.037680	-1.480220	0.747740	0.846067	-0.245971	0.460753	-1.000000	-1.000000	-1.000000	-1.000000	-1.000000	-1.000000	-1.000000	84.137931	0.000000	-1.000000	-1.000000	584901.000000	1773865412.825132
-385.605000	-11765.745000	8006.580000	11608.245000	-36906.795000	-43927.290000	6973.515000	11977.335000	-3.005672	1.197141	3.042734	2.275029	3.175678	3.633603	2.634246	1.069934	-1.037680	-1.480220	0.747740	0.846067	-0.245971	0.460753	-1.000000	-1.000000	-1.000000	-1.000000	-1.000000	-1.000000	-1.000000	84.137931	0.000000	-1.000000	-1.000000	584902.000000	1773865412.825142
-393.390000	-11765.205000	8010.045000	11614.140000	-36898.290000	-43920.045000	6974.955000	11972.205000	-7.096200	1.324169	4.452048	4.123148	5.042684	4.603613	3.288769	-2.182046	-1.037680	-1.480220	0.747740	0.846067	-0.245971	0.460753	-1.000000	-1.000000	-1.000000	-1.000000	-1.000000	-1.000000	-1.000000	84.137931	0.000000	-1.000000	-1.000000	584903.000000	1773865412.829162
-412.605000	-11785.950000	7987.590000	11610.585000	-36904.950000	-43922.430000	6969.150000	11964.285000	-6.688895	1.317070	3.732944	4.463083	5.447269	4.341089	2.729723	-3.662117	-1.037680	-1.480220	0.747740	0.846067	-0.245971	0.460753	-1.000000	-1.000000	-1.000000	-1.000000	-1.000000	-1.000000	-1.000000	84.137931	0.000000	-1.000000	-1.000000	584904.000000	1773865412.829172
-416.520000	-11784.555000	7993.575000	11624.310000	-36895.635000	-43913.430000	6968.880000	11970.360000	-3.808245	0.337647	0.534191	2.910883	3.950774	2.608053	1.138530	-2.935420	-1.037680	-1.480220	0.747740	0.846067	-0.245971	0.460753	-1.000000	-1.000000	-1.000000	-1.000000	-1.000000	-1.000000	-1.000000	84.137931	0.000000	-1.000000	-1.000000	584905.000000	1773865412.833016
-408.780000	-11780.190000	8000.370000	11629.305000	-36894.690000	-43912.935000	6969.150000	11978.460000	-1.706320	-1.752257	-3.564481	0.258261	1.014748	-0.139090	-0.798303	-0.988235	-1.037680	-1.480220	0.747740	0.846067	-0.245971	0.460753	-1.000000	-1.000000	-1.000000	-1.000000	-1.000000	-1.000000	-1.000000	84.137931	0.000000	-1.000000	-1.000000	584906.000000	1773865412.833027
-394.920000	-11772.000000	8002.530000	11632.770000	-36894.870000	-43909.830000	6967.980000	11981.205000	-0.960390	-3.610835	-6.021780	-2.016826	-2.088148	-2.756630	-2.243776	1.029599	-1.037680	-1.480220	0.747740	0.846067	-0.245971	0.460753	-1.000000	-1.000000	-1.000000	-1.000000	-1.000000	-1.000000	-1.000000	84.137931	0.000000	-1.000000	-1.000000	584907.000000	1773865412.837244
-381.465000	-11770.695000	7995.555000	11618.955000	-36906.120000	-43921.890000	6966.405000	11984.760000	0.766210	-3.708089	-5.773354	-3.349890	-4.558377	-4.572828	-2.794006	2.718865	-1.037680	-1.480220	0.747740	0.846067	-0.245971	0.460753	-1.000000	-1.000000	-1.000000	-1.000000	-1.000000	-1.000000	-1.000000	84.137931	0.000000	-1.000000	-1.000000	584908.000000	1773865412.837254
-391.185000	-11777.220000	7992.225000	11608.020000	-36911.565000	-43930.755000	6972.930000	11979.090000	4.467616	-1.740548	-3.293258	-3.623990	-5.715154	-5.119575	-2.348575	3.865889	-1.037680	-1.480220	0.747740	0.846067	-0.245971	0.460753	-1.000000	-1.000000	-1.000000	-1.000000	-1.000000	-1.000000	-1.000000	84.137931	0.000000	-1.000000	-1.000000	584909.000000	1773865412.841119
-388.710000	-11763.450000	8005.455000	11613.780000	-36902.655000	-43924.095000	6981.480000	11981.295000	7.191089	1.226902	0.538178	-2.331711	-4.467228	-3.570300	-0.792994	3.517087	-1.037680	-1.480220	0.747740	0.846067	-0.245971	0.460753	-1.000000	-1.000000	-1.000000	-1.000000	-1.000000	-1.000000	-1.000000	84.137931	0.000000	-1.000000	-1.000000	584910.000000	1773865412.841130
-389.385000	-11761.560000	8006.670000	11609.865000	-36903.555000	-43926.795000	6981.885000	11984.265000	5.926055	3.758565	4.337801	0.316437	-0.806227	0.012881	1.443991	1.190736	-2.380560	-0.778260	2.044840	0.846555	-0.246887	0.462584	-1.000000	-1.000000	-1.000000	-1.000000	-1.000000	-1.000000	-1.000000	84.137931	0.000000	-1.000000	-1.000000	584911.000000	1773865412.845490
-395.505000	-11768.895000	8003.655000	11615.715000	-36902.295000	-43924.815000	6974.370000	11974.680000	1.604350	4.753906	6.320281	2.713058	3.179188	3.666342	2.994368	-1.854881	-2.380560	-0.778260	2.044840	0.846555	-0.246887	0.462584	-1.000000	-1.000000	-1.000000	-1.000000	-1.000000	-1.000000	-1.000000	84.137931	0.000000	-1.000000	-1.000000	584912.000000	1773865412.845501
-386.415000	-11766.690000	8008.605000	11632.950000	-36891.270000	-43910.730000	6974.955000	11985.255000	-2.413388	3.891792	5.744685	3.514746	5.214570	5.260818	2.696883	-3.751806	-2.380560	-0.778260	2.044840	0.846555	-0.246887	0.462584	-1.000000	-1.000000	-1.000000	-1.000000	-1.000000	-1.000000	-1.000000	84.137931	0.000000	-1.000000	-1.000000	584913.000000	1773865412.849135
-394.965000	-11770.380000	8007.885000	11635.155000	-36888.480000	-43906.770000	6981.660000	11986.830000	-4.042152	1.668692	3.277502	2.776099	4.769710	4.472014	0.918770	-3.649129	-2.380560	-0.778260	2.044840	0.846555	-0.246887	0.462584	-1.000000	-1.000000	-1.000000	-1.000000	-1.000000	-1.000000	-1.000000	84.137931	0.000000	-1.000000	-1.000000	584914.000000	1773865412.849146
-403.515000	-11773.080000	8006.580000	11640.690000	-36888.390000	-43905.915000	6974.595000	11968.605000	-4.127232	-1.361549	-0.237609	1.057015	2.544591	2.201015	-1.015276	-2.474162	-2.380560	-0.778260	2.044840	0.846555	-0.246887	0.462584	-1.000000	-1.000000	-1.000000	-1.000000	-1.000000	-1.000000	-1.000000	84.137931	0.000000	-1.000000	-1.000000	584915.000000	1773865412.853936
-395.145000	-11766.240000	8008.335000	11636.685000	-36891.000000	-43909.290000	6972.660000	11965.545000	-4.278451	-4.421350	-3.848659	-1.063652	-0.437884	-0.616406	-2.292722	-1.884020	-2.380560	-0.778260	2.044840	0.846555	-0.246887	0.462584	-1.000000	-1.000000	-1.000000	-1.000000	-1.000000	-1.000000	-1.000000	84.137931	0.000000	-1.000000	-1.000000	584916.000000	1773865412.853946
-399.645000	-11770.155000	8001.270000	11618.595000	-36903.240000	-43923.915000	6971.850000	11966.400000	-4.292163	-5.990979	-5.987655	-2.745588	-2.970757	-3.039139	-2.773192	-1.994250	-2.380560	-0.778260	2.044840	0.846555	-0.246887	0.462584	-1.000000	-1.000000	-1.000000	-1.000000	-1.000000	-1.000000	-1.000000	84.137931	0.000000	-1.000000	-1.000000	584917.000000	1773865412.857045
-401.310000	-11778.165000	7995.735000	11607.660000	-36910.305000	-43932.645000	6975.045000	11978.550000	-3.157308	-5.095350	-5.632343	-3.363965	-4.143183	-4.223458	-2.463422	-1.329486	-2.380560	-0.778260	2.044840	0.846555	-0.246887	0.462584	-1.000000	-1.000000	-1.000000	-1.000000	-1.000000	-1.000000	-1.000000	84.137931	0.000000	-1.000000	-1.000000	584918.000000	1773865412.857054
-390.960000	-11769.390000	8003.925000	11610.045000	-36905.310000	-43930.035000	6980.895000	11985.660000	-0.692987	-2.490508	-3.424360	-2.984948	-3.865498	-3.947338	-1.462289	1.049656	-2.380560	-0.778260	2.044840	0.846555	-0.246887	0.462584	-1.000000	-1.000000	-1.000000	-1.000000	-1.000000	-1.000000	-1.000000	84.137931	0.000000	-1.000000	-1.000000	584919.000000	1773865412.865961
-381.870000	-11758.860000	8009.280000	11616.255000	-36902.475000	-43926.615000	6979.230000	11977.875000	2.748845	0.635316	-0.577063	-1.819473	-2.458370	-2.449719	0.026573	4.224237	-2.380560	-0.778260	2.044840	0.846555	-0.246887	0.462584	-1.000000	-1.000000	-1.000000	-1.000000	-1.000000	-1.000000	-1.000000	84.137931	0.000000	-1.000000	-1.000000	584920.000000	1773865412.865972
-384.480000	-11760.750000	8008.605000	11627.910000	-36898.380000	-43919.145000	6974.595000	11976.660000	6.304033	3.786266	2.239822	0.028067	-0.330803	-0.184190	1.604872	6.118909	-3.219860	0.427280	2.548420	0.846616	-0.248779	0.460631	-1.000000	-1.000000	-1.000000	-1.000000	-1.000000	-1.000000	-1.000000	84.137931	0.000000	-1.000000	-1.000000	584921.000000	1773865412.866215
-391.725000	-11775.195000	7998.120000	11623.680000	-36904.095000	-43923.960000	6972.030000	11983.500000	8.019036	5.928317	4.147124	1.815205	1.588227	1.828206	2.526646	5.310578	-3.219860	0.427280	2.548420	0.846616	-0.248779	0.460631	-1.000000	-1.000000	-1.000000	-1.000000	-1.000000	-1.000000	-1.000000	84.137931	0.000000	-1.000000	-1.000000	584922.000000	1773865412.866221
-383.850000	-11779.245000	7998.795000	11629.800000	-36900.180000	-43919.280000	6971.265000	11991.600000	6.307010	5.339320	3.964499	2.398810	2.242920	2.465438	2.167244	2.323114	-3.219860	0.427280	2.548420	0.846616	-0.248779	0.460631	-1.000000	-1.000000	-1.000000	-1.000000	-1.000000	-1.000000	-1.000000	84.137931	0.000000	-1.000000	-1.000000	584923.000000	1773865412.869096
-398.295000	-11789.370000	7994.475000	11627.820000	-36900.630000	-43919.325000	6969.780000	11980.215000	1.809556	1.700966	1.706951	1.581344	1.649323	1.736853	0.833020	-0.867922	-3.219860	0.427280	2.548420	0.846616	-0.248779	0.460631	-1.000000	-1.000000	-1.000000	-1.000000	-1.000000	-1.000000	-1.000000	84.137931	0.000000	-1.000000	-1.000000	584924.000000	1773865412.869103
-403.065000	-11786.940000	7992.900000	11615.985000	-36907.245000	-43928.955000	6970.365000	11977.425000	-3.559792	-3.098454	-1.079091	0.287874	0.800468	0.680060	-0.429343	-2.876758	-3.219860	0.427280	2.548420	0.846616	-0.248779	0.460631	-1.000000	-1.000000	-1.000000	-1.000000	-1.000000	-1.000000	-1.000000	84.137931	0.000000	-1.000000	-1.000000	584925.000000	1773865412.876186
-402.345000	-11776.185000	7993.080000	11605.455000	-36913.950000	-43939.305000	6972.705000	11975.130000	-7.704433	-5.965033	-2.511574	-0.380058	0.536232	0.195268	-0.878104	-3.774573	-3.219860	0.427280	2.548420	0.846616	-0.248779	0.460631	-1.000000	-1.000000	-1.000000	-1.000000	-1.000000	-1.000000	-1.000000	84.137931	0.000000	-1.000000	-1.000000	584926.000000	1773865412.876197
-393.165000	-11769.030000	7995.510000	11599.830000	-36918.180000	-43944.615000	6975.765000	11979.990000	-8.559031	-4.658988	-1.774184	-0.081186	0.814343	0.328231	-0.589081	-4.066853	-3.219860	0.427280	2.548420	0.846616	-0.248779	0.460631	-1.000000	-1.000000	-1.000000	-1.000000	-1.000000	-1.000000	-1.000000	84.137931	0.000000	-1.000000	-1.000000	584927.000000	1773865412.877047
-388.350000	-11763.045000	8003.205000	11605.095000	-36912.510000	-43939.440000	6977.835000	11982.060000	-5.526935	-0.066355	0.261102	0.567687	0.923823	0.503023	-0.094425	-3.737213	-3.219860	0.427280	2.548420	0.846616	-0.248779	0.460631	-1.000000	-1.000000	-1.000000	-1.000000	-1.000000	-1.000000	-1.000000	84.137931	0.000000	-1.000000	-1.000000	584928.000000	1773865412.877055
-391.455000	-11767.905000	8005.950000	11621.970000	-36902.250000	-43927.245000	6977.205000	11979.270000	-0.340683	4.397969	2.090613	0.981731	0.591991	0.479295	0.288466	-2.305940	-3.219860	0.427280	2.548420	0.846616	-0.248779	0.460631	-1.000000	-1.000000	-1.000000	-1.000000	-1.000000	-1.000000	-1.000000	84.137931	0.000000	-1.000000	-1.000000	584929.000000	1773865412.881093
-400.815000	-11774.340000	8006.760000	11633.670000	-36894.645000	-43917.975000	6977.610000	11975.535000	4.137091	5.851172	2.864419	1.239396	0.337178	0.588769	0.602629	0.043200	-3.219860	0.427280	2.548420	0.846616	-0.248779	0.460631	-1.000000	-1.000000	-1.000000	-1.000000	-1.000000	-1.000000	-1.000000	84.137931	0.000000	-1.000000	-1.000000	584930.000000	1773865412.881104
-415.260000	-11769.705000	8009.820000	11639.115000	-36891.450000	-43913.340000	6978.870000	11968.245000	5.624845	4.025421	2.529323	1.515214	0.541506	1.006534	0.827100	1.861151	-4.410140	1.907500	2.609460	0.846311	-0.249511	0.457885	-1.000000	-1.000000	-1.000000	-1.000000	-1.000000	-1.000000	-1.000000	84.137931	0.000000	-1.000000	-1.000000	584931.000000	1773865412.884953
-405.810000	-11764.080000	8010.450000	11641.185000	-36892.575000	-43912.440000	6975.135000	11970.360000	3.840626	0.931990	1.429974	1.513793	0.811942	1.313659	0.737820	2.020869	-4.410140	1.907500	2.609460	0.846311	-0.249511	0.457885	-1.000000	-1.000000	-1.000000	-1.000000	-1.000000	-1.000000	-1.000000	84.137931	0.000000	-1.000000	-1.000000	584932.000000	1773865412.884960
-386.550000	-11762.955000	8013.015000	11636.235000	-36892.215000	-43913.340000	6977.295000	11985.525000	1.172613	-1.272420	0.004366	0.782173	0.491170	0.929143	0.223861	1.497779	-4.410140	1.907500	2.609460	0.846311	-0.249511	0.457885	-1.000000	-1.000000	-1.000000	-1.000000	-1.000000	-1.000000	-1.000000	84.137931	0.000000	-1.000000	-1.000000	584933.000000	1773865412.889136
-393.975000	-11769.165000	8008.155000	11622.195000	-36899.505000	-43923.690000	6980.400000	11983.545000	0.426084	-2.121042	-1.303206	-0.559759	-0.409379	-0.094575	-0.462694	2.031071	-4.410140	1.907500	2.609460	0.846311	-0.249511	0.457885	-1.000000	-1.000000	-1.000000	-1.000000	-1.000000	-1.000000	-1.000000	84.137931	0.000000	-1.000000	-1.000000	584934.000000	1773865412.889146
-412.380000	-11776.590000	8003.475000	11612.295000	-36905.445000	-43932.735000	6977.925000	11969.730000	1.210385	-2.671401	-2.291226	-1.949832	-1.344266	-1.228222	-1.000721	3.170389	-4.410140	1.907500	2.609460	0.846311	-0.249511	0.457885	-1.000000	-1.000000	-1.000000	-1.000000	-1.000000	-1.000000	-1.000000	84.137931	0.000000	-1.000000	-1.000000	584935.000000	1773865412.893068
-402.390000	-11773.080000	8000.280000	11602.755000	-36914.040000	-43942.995000	6973.560000	11968.875000	0.860483	-3.764586	-3.132504	-3.085868	-2.116167	-2.293451	-1.457774	2.678521	-4.410140	1.907500	2.609460	0.846311	-0.249511	0.457885	-1.000000	-1.000000	-1.000000	-1.000000	-1.000000	-1.000000	-1.000000	84.137931	0.000000	-1.000000	-1.000000	584936.000000	1773865412.893079
-394.380000	-11768.940000	8005.005000	11612.385000	-36911.385000	-43936.425000	6975.675000	11973.645000	-1.235912	-4.696961	-3.795738	-3.865674	-2.879806	-3.339397	-1.903904	0.002333	-4.410140	1.907500	2.609460	0.846311	-0.249511	0.457885	-1.000000	-1.000000	-1.000000	-1.000000	-1.000000	-1.000000	-1.000000	84.137931	0.000000	-1.000000	-1.000000	584937.000000	1773865412.897393
-414.810000	-11767.635000	8018.685000	11634.660000	-36898.110000	-43919.190000	6974.460000	11956.095000	-3.239729	-3.881799	-3.439349	-3.739655	-3.285033	-3.778005	-1.867304	-3.007752	-4.410140	1.907500	2.609460	0.846311	-0.249511	0.457885	-1.000000	-1.000000	-1.000000	-1.000000	-1.000000	-1.000000	-1.000000	84.137931	0.000000	-1.000000	-1.000000	584938.000000	1773865412.897407
-413.865000	-11775.600000	8008.155000	11626.380000	-36903.015000	-43923.555000	6971.535000	11953.620000	-3.741450	-0.853563	-1.349204	-2.144931	-2.552639	-2.745879	-0.978014	-4.686574	-4.410140	1.907500	2.609460	0.846311	-0.249511	0.457885	-1.000000	-1.000000	-1.000000	-1.000000	-1.000000	-1.000000	-1.000000	84.137931	0.000000	-1.000000	-1.000000	584939.000000	1773865412.901232
-383.580000	-11785.455000	7972.785000	11610.360000	-36916.335000	-43934.265000	6964.650000	11978.055000	-2.095910	2.665480	1.057891	0.033647	-0.856002	-0.646124	0.298906	-4.163078	-4.410140	1.907500	2.609460	0.846311	-0.249511	0.457885	-1.000000	-1.000000	-1.000000	-1.000000	-1.000000	-1.000000	-1.000000	84.137931	0.000000	-1.000000	-1.000000	584940.000000	1773865412.901241
-387.945000	-11781.450000	7981.605000	11615.400000	-36911.520000	-43931.520000	6968.520000	11984.085000	1.567728	4.348463	1.375450	1.212401	0.715208	1.109970	1.259007	-0.917665	-1.953280	4.852680	3.036740	0.845091	-0.250488	0.454894	-1.000000	-1.000000	-1.000000	-1.000000	-1.000000	-1.000000	-1.000000	84.137931	0.000000	-1.000000	-1.000000	584941.000000	1773865412.905197
-396.675000	-11781.495000	7993.305000	11609.955000	-36916.650000	-43941.555000	6966.045000	11973.735000	4.783696	3.707376	0.068490	1.519188	1.775444	1.959377	1.682245	3.492384	-1.953280	4.852680	3.036740	0.845091	-0.250488	0.454894	-1.000000	-1.000000	-1.000000	-1.000000	-1.000000	-1.000000	-1.000000	84.137931	0.000000	-1.000000	-1.000000	584942.000000	1773865412.905206
-396.180000	-11774.070000	7998.570000	11606.400000	-36915.840000	-43942.590000	6967.980000	11975.895000	4.783427	2.174973	0.061766	2.332134	2.749019	2.431924	1.610675	5.871233	-1.953280	4.852680	3.036740	0.845091	-0.250488	0.454894	-1.000000	-1.000000	-1.000000	-1.000000	-1.000000	-1.000000	-1.000000	84.137931	0.000000	-1.000000	-1.000000	584943.000000	1773865412.909069
-407.070000	-11787.345000	7981.515000	11590.605000	-36922.410000	-43948.350000	6971.040000	11972.025000	1.752278	1.062013	2.279756	3.797544	3.705899	3.016864	1.233666	4.837260	-1.953280	4.852680	3.036740	0.845091	-0.250488	0.454894	-1.000000	-1.000000	-1.000000	-1.000000	-1.000000	-1.000000	-1.000000	84.137931	0.000000	-1.000000	-1.000000	584944.000000	1773865412.909078
-414.855000	-11792.655000	7976.880000	11595.510000	-36919.665000	-43944.840000	6969.870000	11966.580000	-2.467135	0.108814	4.357132	4.498166	4.049103	3.497689	0.903037	1.460218	-1.953280	4.852680	3.036740	0.845091	-0.250488	0.454894	-1.000000	-1.000000	-1.000000	-1.000000	-1.000000	-1.000000	-1.000000	84.137931	0.000000	-1.000000	-1.000000	584945.000000	1773865412.913002
-406.755000	-11784.240000	7987.635000	11615.355000	-36911.745000	-43934.400000	6966.135000	11964.420000	-5.967883	-1.257526	3.962133	3.370530	3.167900	3.151373	0.642410	-2.405971	-1.953280	4.852680	3.036740	0.845091	-0.250488	0.454894	-1.000000	-1.000000	-1.000000	-1.000000	-1.000000	-1.000000	-1.000000	84.137931	0.000000	-1.000000	-1.000000	584946.000000	1773865412.913022
-398.835000	-11777.625000	7995.150000	11623.860000	-36905.265000	-43928.190000	6967.260000	11969.235000	-6.314177	-2.115198	1.528938	0.911516	1.136500	1.563578	0.183251	-4.690696	-1.953280	4.852680	3.036740	0.845091	-0.250488	0.454894	-1.000000	-1.000000	-1.000000	-1.000000	-1.000000	-1.000000	-1.000000	84.137931	0.000000	-1.000000	-1.000000	584947.000000	1773865412.916993
-401.310000	-11781.630000	7992.495000	11624.580000	-36907.245000	-43927.020000	6965.235000	11965.770000	-2.586608	-1.207532	-0.603410	-1.358560	-1.116284	-0.644177	-0.400576	-4.215919	-1.953280	4.852680	3.036740	0.845091	-0.250488	0.454894	-1.000000	-1.000000	-1.000000	-1.000000	-1.000000	-1.000000	-1.000000	84.137931	0.000000	-1.000000	-1.000000	584948.000000	1773865412.917007
-399.195000	-11785.680000	7984.845000	11616.165000	-36916.155000	-43933.545000	6962.085000	11966.310000	2.388086	0.944880	-0.768116	-2.295133	-2.566466	-2.301358	-0.769486	-2.148853	-1.953280	4.852680	3.036740	0.845091	-0.250488	0.454894	-1.000000	-1.000000	-1.000000	-1.000000	-1.000000	-1.000000	-1.000000	84.137931	0.000000	-1.000000	-1.000000	584949.000000	1773865412.920962
-395.370000	-11777.490000	7993.755000	11615.130000	-36910.080000	-43930.935000	6969.465000	11973.960000	4.991616	2.545958	0.377536	-2.128649	-2.961732	-2.832336	-0.773941	-0.436527	-1.953280	4.852680	3.036740	0.845091	-0.250488	0.454894	-1.000000	-1.000000	-1.000000	-1.000000	-1.000000	-1.000000	-1.000000	84.137931	0.000000	-1.000000	-1.000000	584950.000000	1773865412.920973
-393.570000	-11774.070000	7997.355000	11609.820000	-36909.585000	-43932.780000	6973.920000	11977.065000	4.592966	2.551446	0.924942	-1.665818	-2.407004	-2.230445	-0.372115	0.662939	-1.297100	7.324800	2.990960	0.844541	-0.248596	0.453490	-1.000000	-1.000000	-1.000000	-1.000000	-1.000000	-1.000000	-1.000000	84.137931	0.000000	-1.000000	-1.000000	584951.000000	1773865412.930970
-394.470000	-11774.205000	7995.285000	11600.685000	-36915.300000	-43939.980000	6973.470000	11978.010000	2.806831	1.254392	0.047959	-1.198412	-1.096560	-0.835456	0.299041	1.848289	-1.297100	7.324800	2.990960	0.844541	-0.248596	0.453490	-1.000000	-1.000000	-1.000000	-1.000000	-1.000000	-1.000000	-1.000000	84.137931	0.000000	-1.000000	-1.000000	584952.000000	1773865412.930992
-396.855000	-11775.240000	7994.430000	11599.965000	-36916.740000	-43942.140000	6972.885000	11976.885000	1.051449	-0.427649	-1.434938	-0.679642	0.274708	0.453331	0.698705	2.995264	-1.297100	7.324800	2.990960	0.844541	-0.248596	0.453490	-1.000000	-1.000000	-1.000000	-1.000000	-1.000000	-1.000000	-1.000000	84.137931	0.000000	-1.000000	-1.000000	584953.000000	1773865412.931005
-397.665000	-11777.490000	7995.330000	11612.970000	-36909.765000	-43932.240000	6972.210000	11973.780000	-0.292857	-1.722903	-2.384105	-0.176325	0.948574	0.821870	0.416157	3.297009	-1.297100	7.324800	2.990960	0.844541	-0.248596	0.453490	-1.000000	-1.000000	-1.000000	-1.000000	-1.000000	-1.000000	-1.000000	84.137931	0.000000	-1.000000	-1.000000	584954.000000	1773865412.931010
-398.790000	-11772.495000	8004.960000	11632.005000	-36894.150000	-43915.995000	6969.960000	11959.605000	-1.418162	-2.459377	-2.554246	0.099525	0.834252	0.342537	-0.341428	2.128186	-1.297100	7.324800	2.990960	0.844541	-0.248596	0.453490	-1.000000	-1.000000	-1.000000	-1.000000	-1.000000	-1.000000	-1.000000	84.137931	0.000000	-1.000000	-1.000000	584955.000000	1773865412.934120
-394.965000	-11756.475000	8022.330000	11651.220000	-36876.015000	-43898.490000	6970.365000	11948.805000	-2.347507	-2.439454	-1.956992	0.429212	0.704305	-0.006561	-1.057035	-0.582388	-1.297100	7.324800	2.990960	0.844541	-0.248596	0.453490	-1.000000	-1.000000	-1.000000	-1.000000	-1.000000	-1.000000	-1.000000	84.137931	0.000000	-1.000000	-1.000000	584956.000000	1773865412.934131
-408.735000	-11769.345000	8007.885000	11640.195000	-36891.495000	-43912.080000	6960.960000	11946.330000	-2.978660	-1.259696	-0.298024	1.366360	1.256818	0.532351	-1.378826	-3.973785	-1.297100	7.324800	2.990960	0.844541	-0.248596	0.453490	-1.000000	-1.000000	-1.000000	-1.000000	-1.000000	-1.000000	-1.000000	84.137931	0.000000	-1.000000	-1.000000	584957.000000	1773865412.937201
-441.585000	-11798.235000	7983.270000	11612.070000	-36914.805000	-43933.365000	6961.770000	11961.990000	-3.869122	0.030956	1.367474	1.981967	1.469514	0.966875	-1.334248	-6.072819	-1.297100	7.324800	2.990960	0.844541	-0.248596	0.453490	-1.000000	-1.000000	-1.000000	-1.000000	-1.000000	-1.000000	-1.000000	84.137931	0.000000	-1.000000	-1.000000	584958.000000	1773865412.937211
-424.755000	-11778.480000	7996.095000	11611.215000	-36908.505000	-43928.640000	6976.305000	11980.305000	-5.224256	-0.384862	0.937672	0.532974	-0.286307	-0.224858	-0.946469	-4.787590	-1.297100	7.324800	2.990960	0.844541	-0.248596	0.453490	-1.000000	-1.000000	-1.000000	-1.000000	-1.000000	-1.000000	-1.000000	84.137931	0.000000	-1.000000	-1.000000	584959.000000	1773865412.945498
-404.190000	-11772.360000	7994.610000	11600.550000	-36917.280000	-43941.555000	6969.825000	11974.455000	-4.893693	-1.815197	-1.411360	-2.519941	-3.326813	-2.506147	-0.058288	-0.064833	-1.297100	7.324800	2.990960	0.844541	-0.248596	0.453490	-1.000000	-1.000000	-1.000000	-1.000000	-1.000000	-1.000000	-1.000000	84.137931	0.000000	-1.000000	-1.000000	584960.000000	1773865412.945513
-388.755000	-11789.280000	7975.710000	11578.770000	-36934.830000	-43959.105000	6965.055000	11974.095000	-0.375258	-2.045636	-3.375421	-4.895411	-5.389248	-4.128622	0.919203	5.217504	-0.900340	7.538440	1.144500	0.841551	-0.247741	0.455077	-1.000000	-1.000000	-1.000000	-1.000000	-1.000000	-1.000000	-1.000000	84.137931	0.000000	-1.000000	-1.000000	584961.000000	1773865412.945526
-389.790000	-11793.645000	7974.450000	11584.575000	-36933.300000	-43953.390000	6965.325000	11979.180000	7.099860	-0.795114	-3.592667	-5.249420	-5.289474	-4.208367	1.213713	7.745044	-0.900340	7.538440	1.144500	0.841551	-0.247741	0.455077	-1.000000	-1.000000	-1.000000	-1.000000	-1.000000	-1.000000	-1.000000	84.137931	0.000000	-1.000000	-1.000000	584962.000000	1773865412.945531
-392.040000	-11779.425000	7992.135000	11611.035000	-36913.005000	-43931.610000	6968.610000	11985.660000	12.747728	0.909513	-1.971137	-3.447154	-3.017453	-2.527618	0.858486	6.720514	-0.900340	7.538440	1.144500	0.841551	-0.247741	0.455077	-1.000000	-1.000000	-1.000000	-1.000000	-1.000000	-1.000000	-1.000000	84.137931	0.000000	-1.000000	-1.000000	584963.000000	1773865412.949331
-391.590000	-11771.370000	8000.235000	11620.845000	-36905.490000	-43924.590000	6973.335000	11988.135000	12.447297	2.588752	1.095029	0.093258	0.815078	0.642943	0.603876	3.742669	-0.900340	7.538440	1.144500	0.841551	-0.247741	0.455077	-1.000000	-1.000000	-1.000000	-1.000000	-1.000000	-1.000000	-1.000000	84.137931	0.000000	-1.000000	-1.000000	584964.000000	1773865412.949354
-407.205000	-11778.705000	7999.560000	11628.135000	-36900.720000	-43917.750000	6972.930000	11976.255000	5.892494	3.747780	4.368136	4.101405	4.744884	4.064147	0.919679	0.517079	-0.900340	7.538440	1.144500	0.841551	-0.247741	0.455077	-1.000000	-1.000000	-1.000000	-1.000000	-1.000000	-1.000000	-1.000000	84.137931	0.000000	-1.000000	-1.000000	584965.000000	1773865412.953135
-412.875000	-11791.080000	7990.515000	11619.135000	-36906.795000	-43924.950000	6968.250000	11963.880000	-3.481895	3.659832	6.353389	7.039916	7.315567	6.376650	1.505527	-2.750027	-0.900340	7.538440	1.144500	0.841551	-0.247741	0.455077	-1.000000	-1.000000	-1.000000	-1.000000	-1.000000	-1.000000	-1.000000	84.137931	0.000000	-1.000000	-1.000000	584966.000000	1773865412.953154
-408.285000	-11790.405000	7988.040000	11605.365000	-36914.490000	-43935.030000	6969.780000	11966.805000	-10.510103	2.329226	6.264130	7.878548	7.782990	6.800998	1.468729	-6.429658	-0.900340	7.538440	1.144500	0.841551	-0.247741	0.455077	-1.000000	-1.000000	-1.000000	-1.000000	-1.000000	-1.000000	-1.000000	84.137931	0.000000	-1.000000	-1.000000	584967.000000	1773865412.957200
-401.760000	-11781.135000	7990.335000	11596.770000	-36918.495000	-43940.790000	6971.085000	11970.810000	-11.842645	0.347898	3.910345	5.974282	5.675947	4.843470	0.163656	-9.452595	-0.900340	7.538440	1.144500	0.841551	-0.247741	0.455077	-1.000000	-1.000000	-1.000000	-1.000000	-1.000000	-1.000000	-1.000000	84.137931	0.000000	-1.000000	-1.000000	584968.000000	1773865412.957210
-391.455000	-11763.765000	7998.120000	11594.295000	-36919.350000	-43944.525000	6973.380000	11973.330000	-8.201065	-1.307579	0.199183	1.850192	1.503750	1.057964	-1.769061	-9.443445	-0.900340	7.538440	1.144500	0.841551	-0.247741	0.455077	-1.000000	-1.000000	-1.000000	-1.000000	-1.000000	-1.000000	-1.000000	84.137931	0.000000	-1.000000	-1.000000	584969.000000	1773865412.962343
-400.590000	-11763.045000	8005.635000	11607.030000	-36908.820000	-43934.085000	6976.935000	11969.640000	-2.727275	-1.254170	-2.535805	-2.131587	-2.481731	-2.421299	-2.756977	-5.313117	-0.900340	7.538440	1.144500	0.841551	-0.247741	0.455077	-1.000000	-1.000000	-1.000000	-1.000000	-1.000000	-1.000000	-1.000000	84.137931	0.000000	-1.000000	-1.000000	584970.000000	1773865412.962353
-412.380000	-11774.070000	8002.350000	11620.170000	-36903.015000	-43924.995000	6975.720000	11964.780000	1.543028	0.357989	-2.875841	-3.846115	-4.220514	-3.804443	-2.017018	1.019489	-1.373400	7.416360	0.259420	0.842832	-0.247863	0.457152	-1.000000	-1.000000	-1.000000	-1.000000	-1.000000	-1.000000	-1.000000	84.000000	0.000000	-1.000000	-1.000000	584971.000000	1773865412.965019
-410.445000	-11775.825000	8003.835000	11626.335000	-36898.065000	-43918.560000	6975.180000	11973.375000	3.178528	1.021765	-2.216928	-3.724586	-4.047824	-3.501666	-0.353505	6.302063	-1.373400	7.416360	0.259420	0.842832	-0.247863	0.457152	-1.000000	-1.000000	-1.000000	-1.000000	-1.000000	-1.000000	-1.000000	84.000000	0.000000	-1.000000	-1.000000	584972.000000	1773865412.965030
-405.855000	-11772.135000	8011.260000	11638.755000	-36887.355000	-43907.355000	6974.955000	11974.770000	2.965069	-0.941181	-2.491491	-3.440710	-3.513232	-2.915264	0.862051	8.762991	-1.373400	7.416360	0.259420	0.842832	-0.247863	0.457152	-1.000000	-1.000000	-1.000000	-1.000000	-1.000000	-1.000000	-1.000000	84.000000	0.000000	-1.000000	-1.000000	584973.000000	1773865412.968952
-393.165000	-11782.080000	7998.885000	11627.820000	-36899.910000	-43920.135000	6965.235000	11967.030000	2.989227	-3.977795	-3.466016	-3.428703	-3.121911	-2.513013	0.956721	8.463805	-1.373400	7.416360	0.259420	0.842832	-0.247863	0.457152	-1.000000	-1.000000	-1.000000	-1.000000	-1.000000	-1.000000	-1.000000	84.000000	0.000000	-1.000000	-1.000000	584974.000000	1773865412.968960
-386.235000	-11776.140000	7997.985000	11615.715000	-36907.245000	-43931.250000	6960.150000	11964.195000	4.603458	-5.112760	-3.619133	-3.046220	-2.505250	-2.062186	0.090552	5.937905	-1.373400	7.416360	0.259420	0.842832	-0.247863	0.457152	-1.000000	-1.000000	-1.000000	-1.000000	-1.000000	-1.000000	-1.000000	84.000000	0.000000	-1.000000	-1.000000	584975.000000	1773865412.973253
-402.480000	-11785.815000	7981.830000	11589.030000	-36929.475000	-43955.055000	6954.210000	11958.930000	6.435291	-3.262769	-2.442007	-2.109894	-1.690066	-1.626331	-1.251320	1.695381	-1.373400	7.416360	0.259420	0.842832	-0.247863	0.457152	-1.000000	-1.000000	-1.000000	-1.000000	-1.000000	-1.000000	-1.000000	84.000000	0.000000	-1.000000	-1.000000	584976.000000	1773865412.973261
-422.730000	-11792.565000	7978.005000	11580.210000	-36933.615000	-43960.635000	6961.095000	11961.990000	4.950937	-0.414831	-0.983288	-1.223174	-1.165694	-1.475413	-2.287590	-3.120571	-1.373400	7.416360	0.259420	0.842832	-0.247863	0.457152	-1.000000	-1.000000	-1.000000	-1.000000	-1.000000	-1.000000	-1.000000	84.000000	0.000000	-1.000000	-1.000000	584977.000000	1773865412.979058
-412.920000	-11783.880000	7989.075000	11591.190000	-36921.465000	-43948.575000	6969.915000	11970.585000	-1.153291	1.030215	-0.012290	-0.460049	-0.659793	-1.055708	-1.894414	-6.371431	-1.373400	7.416360	0.259420	0.842832	-0.247863	0.457152	-1.000000	-1.000000	-1.000000	-1.000000	-1.000000	-1.000000	-1.000000	84.000000	0.000000	-1.000000	-1.000000	584978.000000	1773865412.979071
-395.955000	-11779.470000	7990.470000	11604.510000	-36916.155000	-43940.610000	6969.555000	11980.665000	-7.814073	1.268773	1.073848	0.946650	0.784720	0.623282	0.323771	-6.096507	-1.373400	7.416360	0.259420	0.842832	-0.247863	0.457152	-1.000000	-1.000000	-1.000000	-1.000000	-1.000000	-1.000000	-1.000000	84.000000	0.000000	-1.000000	-1.000000	584979.000000	1773865412.982753
-391.815000	-11786.580000	7980.885000	11602.350000	-36922.950000	-43944.840000	6966.495000	11974.500000	-9.297283	1.817999	2.519889	2.792584	2.810034	2.980251	3.091037	-2.510077	-1.373400	7.416360	0.259420	0.842832	-0.247863	0.457152	-1.000000	-1.000000	-1.000000	-1.000000	-1.000000	-1.000000	-1.000000	84.000000	0.000000	-1.000000	-1.000000	584980.000000	1773865412.982763
-403.965000	-11786.490000	7981.740000	11604.510000	-36922.050000	-43943.715000	6964.245000	11967.975000	-4.664676	2.729565	3.230588	3.538737	3.630424	3.997387	4.442083	1.558287	-1.480220	4.654300	-0.183120	0.841001	-0.249511	0.460021	-1.000000	-1.000000	-1.000000	-1.000000	-1.000000	-1.000000	-1.000000	84.000000	0.000000	-1.000000	-1.000000	584981.000000	1773865412.985676
-413.100000	-11779.335000	7998.435000	11627.685000	-36900.630000	-43922.655000	6967.755000	11964.735000	1.568967	3.109535	2.722115	2.689628	2.702643	3.016145	3.584719	3.196514	-1.480220	4.654300	-0.183120	0.841001	-0.249511	0.460021	-1.000000	-1.000000	-1.000000	-1.000000	-1.000000	-1.000000	-1.000000	84.000000	0.000000	-1.000000	-1.000000	584982.000000	1773865412.985687
-405.135000	-11772.450000	8004.105000	11625.615000	-36898.560000	-43924.635000	6968.160000	11960.685000	4.742894	3.023678	2.354076	1.930313	1.855213	1.851216	1.526344	2.077875	-1.480220	4.654300	-0.183120	0.841001	-0.249511	0.460021	-1.000000	-1.000000	-1.000000	-1.000000	-1.000000	-1.000000	-1.000000	84.000000	0.000000	-1.000000	-1.000000	584983.000000	1773865412.988986
-403.020000	-11776.905000	7991.325000	11599.920000	-36918.900000	-43947.495000	6965.910000	11962.620000	4.095689	2.867453	3.023511	2.452716	2.400516	1.944719	-0.261788	-0.089724	-1.480220	4.654300	-0.183120	0.841001	-0.249511	0.460021	-1.000000	-1.000000	-1.000000	-1.000000	-1.000000	-1.000000	-1.000000	84.000000	0.000000	-1.000000	-1.000000	584984.000000	1773865412.989009
-402.480000	-11782.170000	7984.845000	11584.890000	-36929.925000	-43959.330000	6967.080000	11975.895000	1.937829	2.065700	3.384417	2.945148	2.995266	2.237287	-1.277484	-1.415230	-1.480220	4.654300	-0.183120	0.841001	-0.249511	0.460021	-1.000000	-1.000000	-1.000000	-1.000000	-1.000000	-1.000000	-1.000000	84.000000	0.000000	-1.000000	-1.000000	584985.000000	1773865412.995632
-397.170000	-11776.770000	7996.815000	11585.205000	-36931.050000	-43959.870000	6970.815000	11982.555000	0.637908	0.043989	1.966260	1.708517	1.778340	1.139083	-1.820927	-0.890679	-1.480220	4.654300	-0.183120	0.841001	-0.249511	0.460021	-1.000000	-1.000000	-1.000000	-1.000000	-1.000000	-1.000000	-1.000000	84.000000	0.000000	-1.000000	-1.000000	584986.000000	1773865412.995643
-401.355000	-11776.320000	8004.735000	11593.440000	-36929.520000	-43956.180000	6968.385000	11975.175000	0.526472	-2.606221	-0.770854	-1.196811	-1.359708	-1.443323	-2.261437	0.725677	-1.480220	4.654300	-0.183120	0.841001	-0.249511	0.460021	-1.000000	-1.000000	-1.000000	-1.000000	-1.000000	-1.000000	-1.000000	84.000000	0.000000	-1.000000	-1.000000	584987.000000	1773865412.997466
-402.525000	-11776.320000	7997.760000	11604.870000	-36915.120000	-43939.980000	6966.540000	11972.745000	0.196865	-4.595612	-3.340397	-4.272614	-4.708748	-4.130997	-2.626000	1.461554	-1.480220	4.654300	-0.183120	0.841001	-0.249511	0.460021	-1.000000	-1.000000	-1.000000	-1.000000	-1.000000	-1.000000	-1.000000	84.000000	0.000000	-1.000000	-1.000000	584988.000000	1773865412.997476
-404.190000	-11780.010000	7977.060000	11606.940000	-36906.795000	-43931.385000	6968.610000	11973.510000	-1.171423	-4.906695	-4.993355	-5.708877	-5.798759	-4.901841	-2.483211	0.481997	-1.480220	4.654300	-0.183120	0.841001	-0.249511	0.460021	-1.000000	-1.000000	-1.000000	-1.000000	-1.000000	-1.000000	-1.000000	84.000000	0.000000	-1.000000	-1.000000	584989.000000	1773865413.002369
-405.090000	-11776.410000	7992.270000	11626.380000	-36897.390000	-43923.735000	6968.655000	11973.015000	-2.565252	-3.471548	-5.792993	-4.591704	-3.631672	-2.969520	-1.431430	-1.064466	-1.480220	4.654300	-0.183120	0.841001	-0.249511	0.460021	-1.000000	-1.000000	-1.000000	-1.000000	-1.000000	-1.000000	-1.000000	84.000000	0.000000	-1.000000	-1.000000	584990.000000	1773865413.002379
-397.080000	-11762.730000	8013.825000	11638.935000	-36885.645000	-43916.580000	6973.200000	11977.740000	-2.483905	-0.942330	-5.101385	-1.397301	0.244705	0.233851	0.331862	-1.588187	-2.517900	1.617560	-0.717220	0.840879	-0.251220	0.462157	-1.000000	-1.000000	-1.000000	-1.000000	-1.000000	-1.000000	-1.000000	84.000000	0.000000	-1.000000	-1.000000	584991.000000	1773865413.006781
-398.565000	-11761.110000	8011.125000	11624.535000	-36893.565000	-43926.435000	6973.245000	11971.530000	-0.810308	1.902552	-1.923880	2.490293	3.521305	2.771507	2.138568	-0.650628	-2.517900	1.617560	-0.717220	0.840879	-0.251220	0.462157	-1.000000	-1.000000	-1.000000	-1.000000	-1.000000	-1.000000	-1.000000	84.000000	0.000000	-1.000000	-1.000000	584992.000000	1773865413.006798
-382.410000	-11755.215000	8008.785000	11611.980000	-36902.385000	-43935.255000	6976.350000	11976.300000	1.334762	4.170551	2.915650	5.379945	4.887575	3.830439	3.265743	0.720885	-2.517900	1.617560	-0.717220	0.840879	-0.251220	0.462157	-1.000000	-1.000000	-1.000000	-1.000000	-1.000000	-1.000000	-1.000000	84.000000	0.000000	-1.000000	-1.000000	584993.000000	1773865413.012838
-386.055000	-11761.830000	8002.350000	11598.750000	-36911.790000	-43945.650000	6978.690000	11978.685000	2.992753	4.931117	6.705172	5.846502	4.034315	3.352447	3.211670	1.167137	-2.517900	1.617560	-0.717220	0.840879	-0.251220	0.462157	-1.000000	-1.000000	-1.000000	-1.000000	-1.000000	-1.000000	-1.000000	84.000000	0.000000	-1.000000	-1.000000	584994.000000	1773865413.012847
-394.110000	-11767.455000	8000.910000	11603.430000	-36909.540000	-43943.670000	6979.320000	11981.295000	3.285335	3.431892	6.801332	3.342559	1.262895	1.360344	1.885517	0.361098	-2.517900	1.617560	-0.717220	0.840879	-0.251220	0.462157	-1.000000	-1.000000	-1.000000	-1.000000	-1.000000	-1.000000	-1.000000	84.000000	0.000000	-1.000000	-1.000000	584995.000000	1773865413.012952
-392.490000	-11773.395000	7995.825000	11612.295000	-36909.630000	-43940.475000	6975.405000	11988.045000	1.506270	-0.225135	2.743591	-1.156462	-2.420856	-1.682539	-0.247973	-0.728777	-2.517900	1.617560	-0.717220	0.840879	-0.251220	0.462157	-1.000000	-1.000000	-1.000000	-1.000000	-1.000000	-1.000000	-1.000000	84.000000	0.000000	-1.000000	-1.000000	584996.000000	1773865413.012962
-389.970000	-11771.235000	7998.210000	11617.560000	-36907.830000	-43937.550000	6972.345000	11983.140000	-1.476532	-4.262424	-2.750924	-5.289267	-5.496781	-4.567645	-2.304672	-0.921060	-2.517900	1.617560	-0.717220	0.840879	-0.251220	0.462157	-1.000000	-1.000000	-1.000000	-1.000000	-1.000000	-1.000000	-1.000000	84.000000	0.000000	-1.000000	-1.000000	584997.000000	1773865413.017049
-393.390000	-11771.460000	7999.965000	11624.175000	-36904.140000	-43931.880000	6970.095000	11976.390000	-3.631649	-6.183976	-5.762892	-6.867348	-6.648544	-5.904785	-3.489794	-0.266866	-2.517900	1.617560	-0.717220	0.840879	-0.251220	0.462157	-1.000000	-1.000000	-1.000000	-1.000000	-1.000000	-1.000000	-1.000000	84.000000	0.000000	-1.000000	-1.000000	584998.000000	1773865413.017061
-398.880000	-11774.745000	7999.335000	11624.310000	-36902.610000	-43930.440000	6969.735000	11975.670000	-3.827382	-5.040341	-4.973973	-5.598953	-5.457405	-4.990123	-3.453254	0.225567	-2.517900	1.617560	-0.717220	0.840879	-0.251220	0.462157	-1.000000	-1.000000	-1.000000	-1.000000	-1.000000	-1.000000	-1.000000	84.000000	0.000000	-1.000000	-1.000000	584999.000000	1773865413.021022
-401.220000	-11779.200000	7994.295000	11611.170000	-36910.530000	-43940.700000	6970.770000	11976.255000	-2.624555	-2.186387	-2.470453	-2.963328	-2.635264	-2.313608	-2.289533	0.101103	-2.517900	1.617560	-0.717220	0.840879	-0.251220	0.462157	-1.000000	-1.000000	-1.000000	-1.000000	-1.000000	-1.000000	-1.000000	84.000000	0.000000	-1.000000	-1.000000	585000.000000	1773865413.021029
-406.530000	-11780.730000	7993.845000	11602.080000	-36913.950000	-43946.955000	6973.065000	11974.590000	-1.276616	0.410627	-0.451464	-0.219827	0.769577	1.007106	-0.405784	-0.229754	-3.982860	-0.778260	-2.578940	0.839720	-0.250793	0.462706	-1.000000	-1.000000	-1.000000	-1.000000	-1.000000	-1.000000	-1.000000	84.000000	0.000000	-1.000000	-1.000000	585001.000000	1773865413.024970
-407.745000	-11778.750000	7994.070000	11594.430000	-36918.405000	-43952.490000	6971.895000	11972.295000	-0.533098	1.997242	0.956581	2.503359	4.112076	4.072988	1.525074	-0.450836	-3.982860	-0.778260	-2.578940	0.839720	-0.250793	0.462706	-1.000000	-1.000000	-1.000000	-1.000000	-1.000000	-1.000000	-1.000000	84.000000	0.000000	-1.000000	-1.000000	585002.000000	1773865413.024978
-400.680000	-11769.345000	8002.395000	11600.415000	-36912.735000	-43946.235000	6977.160000	11984.130000	-0.055207	3.092167	2.436403	5.073768	6.716930	6.176921	2.729674	-0.553929	-3.982860	-0.778260	-2.578940	0.839720	-0.250793	0.462706	-1.000000	-1.000000	-1.000000	-1.000000	-1.000000	-1.000000	-1.000000	84.000000	0.000000	-1.000000	-1.000000	585003.000000	1773865413.028972
-430.560000	-11780.730000	8002.440000	11615.445000	-36903.240000	-43933.860000	6975.135000	11970.495000	0.746305	4.149112	3.908127	6.676058	7.686984	6.726602	2.859281	-0.457123	-3.982860	-0.778260	-2.578940	0.839720	-0.250793	0.462706	-1.000000	-1.000000	-1.000000	-1.000000	-1.000000	-1.000000	-1.000000	84.000000	0.000000	-1.000000	-1.000000	585004.000000	1773865413.028978
-424.890000	-11777.040000	8004.825000	11625.120000	-36898.290000	-43926.705000	6970.860000	11964.105000	1.360331	4.597914	4.614438	6.463958	6.514206	5.511046	2.118445	-0.430631	-3.982860	-0.778260	-2.578940	0.839720	-0.250793	0.462706	-1.000000	-1.000000	-1.000000	-1.000000	-1.000000	-1.000000	-1.000000	84.000000	0.000000	-1.000000	-1.000000	585005.000000	1773865413.033032
-402.255000	-11779.245000	7991.280000	11613.375000	-36914.490000	-43940.970000	6960.960000	11964.780000	1.631141	3.680709	3.817030	4.049725	3.163983	2.522886	0.785743	-0.684103	-3.982860	-0.778260	-2.578940	0.839720	-0.250793	0.462706	-1.000000	-1.000000	-1.000000	-1.000000	-1.000000	-1.000000	-1.000000	84.000000	0.000000	-1.000000	-1.000000	585006.000000	1773865413.033038
-380.025000	-11766.555000	7997.130000	11619.630000	-36910.755000	-43937.145000	6961.680000	11979.855000	3.058472	1.654691	1.261757	-0.310233	-1.881982	-1.953207	-0.849930	-0.337971	-3.982860	-0.778260	-2.578940	0.839720	-0.250793	0.462706	-1.000000	-1.000000	-1.000000	-1.000000	-1.000000	-1.000000	-1.000000	84.000000	0.000000	-1.000000	-1.000000	585007.000000	1773865413.037820
-370.665000	-11758.320000	8007.705000	11624.220000	-36900.900000	-43928.055000	6969.780000	11989.530000	6.234416	-0.274031	-2.057691	-4.912669	-6.656908	-6.208473	-2.030875	1.584317	-3.982860	-0.778260	-2.578940	0.839720	-0.250793	0.462706	-1.000000	-1.000000	-1.000000	-1.000000	-1.000000	-1.000000	-1.000000	84.000000	0.000000	-1.000000	-1.000000	585008.000000	1773865413.037832
-381.645000	-11758.140000	8006.760000	11613.645000	-36906.165000	-43936.290000	6970.680000	11981.745000	8.745710	-1.138982	-4.088712	-7.024953	-8.271393	-7.537326	-1.884430	4.273937	-3.982860	-0.778260	-2.578940	0.839720	-0.250793	0.462706	-1.000000	-1.000000	-1.000000	-1.000000	-1.000000	-1.000000	-1.000000	84.000000	0.000000	-1.000000	-1.000000	585009.000000	1773865413.040994
-385.200000	-11761.425000	8004.735000	11606.130000	-36910.755000	-43942.365000	6970.680000	11981.070000	7.212565	-1.237284	-3.712259	-5.392885	-5.701310	-5.008212	-0.518721	5.392264	-3.982860	-0.778260	-2.578940	0.839720	-0.250793	0.462706	-1.000000	-1.000000	-1.000000	-1.000000	-1.000000	-1.000000	-1.000000	84.000000	0.000000	-1.000000	-1.000000	585010.000000	1773865413.041004
-411.165000	-11780.370000	7988.535000	11589.120000	-36926.820000	-43959.690000	6962.130000	11963.340000	0.634270	-1.841769	-1.989813	-1.599991	-1.026555	-0.691785	0.837420	3.199723	-4.471180	-1.480220	-2.716280	0.840818	-0.249816	0.461180	-1.000000	-1.000000	-1.000000	-1.000000	-1.000000	-1.000000	-1.000000	84.000000	0.000000	-1.000000	-1.000000	585011.000000	1773865413.045031
-404.640000	-11776.770000	7993.080000	11599.785000	-36919.935000	-43950.735000	6961.905000	11972.790000	-8.270338	-3.664443	-0.891095	1.442981	2.476126	2.296518	0.960748	-1.746400	-4.471180	-1.480220	-2.716280	0.840818	-0.249816	0.461180	-1.000000	-1.000000	-1.000000	-1.000000	-1.000000	-1.000000	-1.000000	84.000000	0.000000	-1.000000	-1.000000	585012.000000	1773865413.045041
-390.735000	-11766.915000	8000.145000	11616.570000	-36908.325000	-43933.995000	6969.195000	11985.255000	-13.953455	-5.255550	-0.859923	2.235829	3.278146	2.720869	0.025420	-6.161183	-4.471180	-1.480220	-2.716280	0.840818	-0.249816	0.461180	-1.000000	-1.000000	-1.000000	-1.000000	-1.000000	-1.000000	-1.000000	84.000000	0.000000	-1.000000	-1.000000	585013.000000	1773865413.049082
-391.095000	-11762.370000	8004.600000	11622.060000	-36901.890000	-43925.220000	6977.430000	11982.195000	-12.389419	-4.263837	-0.502906	1.664851	2.480045	1.947259	-0.383553	-6.511521	-4.471180	-1.480220	-2.716280	0.840818	-0.249816	0.461180	-1.000000	-1.000000	-1.000000	-1.000000	-1.000000	-1.000000	-1.000000	84.000000	0.000000	-1.000000	-1.000000	585014.000000	1773865413.049093
-396.045000	-11772.720000	7998.120000	11623.410000	-36903.645000	-43925.490000	6970.095000	11972.970000	-5.480467	-0.729135	1.081642	1.259091	1.864745	1.745860	0.718280	-2.962555	-4.471180	-1.480220	-2.716280	0.840818	-0.249816	0.461180	-1.000000	-1.000000	-1.000000	-1.000000	-1.000000	-1.000000	-1.000000	84.000000	0.000000	-1.000000	-1.000000	585015.000000	1773865413.053064
-398.835000	-11778.705000	7994.160000	11617.560000	-36908.100000	-43929.945000	6967.755000	11965.005000	1.228590	2.542381	2.731980	1.229896	1.689139	2.072596	2.191856	0.803066	-4.471180	-1.480220	-2.716280	0.840818	-0.249816	0.461180	-1.000000	-1.000000	-1.000000	-1.000000	-1.000000	-1.000000	-1.000000	84.000000	0.000000	-1.000000	-1.000000	585016.000000	1773865413.053074
-433.035000	-11780.370000	8002.440000	11616.480000	-36902.520000	-43928.460000	6973.335000	11952.900000	3.841451	3.111390	2.741920	0.835519	1.032655	1.666052	2.187972	1.636809	-4.471180	-1.480220	-2.716280	0.840818	-0.249816	0.461180	-1.000000	-1.000000	-1.000000	-1.000000	-1.000000	-1.000000	-1.000000	84.000000	0.000000	-1.000000	-1.000000	585017.000000	1773865413.057036
-451.170000	-11781.270000	8000.100000	11606.895000	-36910.215000	-43939.305000	6971.130000	11950.740000	2.031752	1.337403	1.207699	0.055363	-0.222192	0.211969	0.419141	-0.281498	-4.471180	-1.480220	-2.716280	0.840818	-0.249816	0.461180	-1.000000	-1.000000	-1.000000	-1.000000	-1.000000	-1.000000	-1.000000	84.000000	0.000000	-1.000000	-1.000000	585018.000000	1773865413.057045
-394.560000	-11762.865000	7998.975000	11594.970000	-36921.960000	-43953.075000	6968.520000	11976.660000	-0.604022	-0.220972	-0.360372	-0.472297	-1.331645	-1.478971	-1.869186	-1.886506	-4.471180	-1.480220	-2.716280	0.840818	-0.249816	0.461180	-1.000000	-1.000000	-1.000000	-1.000000	-1.000000	-1.000000	-1.000000	84.000000	0.000000	-1.000000	-1.000000	585019.000000	1773865413.061010
-374.895000	-11765.160000	7992.495000	11592.315000	-36927.450000	-43957.485000	6967.485000	11990.430000	1.476901	0.674144	-0.944640	-0.595613	-1.926258	-2.691666	-3.272632	-0.064975	-4.471180	-1.480220	-2.716280	0.840818	-0.249816	0.461180	-1.000000	-1.000000	-1.000000	-1.000000	-1.000000	-1.000000	-1.000000	84.000000	0.000000	-1.000000	-1.000000	585020.000000	1773865413.061016
-397.845000	-11770.020000	8001.135000	11617.245000	-36908.145000	-43934.670000	6973.920000	11984.805000	8.709882	3.356017	-0.690120	-0.555243	-1.974473	-3.001689	-3.048675	4.683969	-3.662400	1.327620	-2.151660	0.845518	-0.251830	0.458800	-1.000000	-1.000000	-1.000000	-1.000000	-1.000000	-1.000000	-1.000000	84.000000	0.000000	-1.000000	-1.000000	585021.000000	1773865413.065196
-392.040000	-11764.890000	8006.085000	11625.570000	-36900.855000	-43928.685000	6970.950000	11982.915000	14.193797	4.822194	-0.190180	-0.325548	-1.284476	-2.121051	-1.481933	8.129221	-3.662400	1.327620	-2.151660	0.845518	-0.251830	0.458800	-1.000000	-1.000000	-1.000000	-1.000000	-1.000000	-1.000000	-1.000000	84.000000	0.000000	-1.000000	-1.000000	585022.000000	1773865413.065207
-393.345000	-11761.920000	8010.810000	11635.920000	-36893.205000	-43920.945000	6965.730000	11974.005000	11.904548	3.372447	0.334052	0.300759	0.214271	-0.234332	0.274087	6.893954	-3.662400	1.327620	-2.151660	0.845518	-0.251830	0.458800	-1.000000	-1.000000	-1.000000	-1.000000	-1.000000	-1.000000	-1.000000	84.000000	0.000000	-1.000000	-1.000000	585023.000000	1773865413.072730
-381.510000	-11761.065000	8012.160000	11636.415000	-36891.900000	-43918.695000	6965.910000	11976.075000	2.895848	0.147911	0.926966	1.206102	2.032523	1.941671	1.268640	1.619344	-3.662400	1.327620	-2.151660	0.845518	-0.251830	0.458800	-1.000000	-1.000000	-1.000000	-1.000000	-1.000000	-1.000000	-1.000000	84.000000	0.000000	-1.000000	-1.000000	585024.000000	1773865413.072740
-391.185000	-11760.705000	8009.145000	11622.375000	-36900.945000	-43927.830000	6971.490000	11979.270000	-7.073268	-2.723247	1.236712	1.630118	3.042349	3.334574	1.506010	-4.195460	-3.662400	1.327620	-2.151660	0.845518	-0.251830	0.458800	-1.000000	-1.000000	-1.000000	-1.000000	-1.000000	-1.000000	-1.000000	84.000000	0.000000	-1.000000	-1.000000	585025.000000	1773865413.073231
-402.975000	-11773.350000	7990.875000	11592.000000	-36925.245000	-43950.645000	6973.245000	11981.295000	-12.566907	-4.174678	0.351738	0.419976	1.886947	2.747310	1.410878	-7.047916	-3.662400	1.327620	-2.151660	0.845518	-0.251830	0.458800	-1.000000	-1.000000	-1.000000	-1.000000	-1.000000	-1.000000	-1.000000	84.000000	0.000000	-1.000000	-1.000000	585026.000000	1773865413.073237
-389.790000	-11766.870000	7994.835000	11588.985000	-36924.615000	-43953.435000	6977.070000	11987.910000	-11.768154	-4.420194	-1.977273	-2.503083	-1.427892	0.096615	1.269844	-5.878859	-3.662400	1.327620	-2.151660	0.845518	-0.251830	0.458800	-1.000000	-1.000000	-1.000000	-1.000000	-1.000000	-1.000000	-1.000000	84.000000	0.000000	-1.000000	-1.000000	585027.000000	1773865413.077356
-395.280000	-11771.595000	7990.785000	11586.960000	-36926.820000	-43957.080000	6974.055000	11977.920000	-7.176910	-3.895067	-4.145453	-4.972577	-4.442004	-2.639682	1.196034	-2.743924	-3.662400	1.327620	-2.151660	0.845518	-0.251830	0.458800	-1.000000	-1.000000	-1.000000	-1.000000	-1.000000	-1.000000	-1.000000	84.000000	0.000000	-1.000000	-1.000000	585028.000000	1773865413.077367
-405.045000	-11771.505000	7997.940000	11605.320000	-36915.525000	-43943.670000	6970.590000	11971.395000	-2.922940	-2.674905	-4.089433	-4.502807	-4.490118	-3.241015	0.928762	-0.783532	-3.662400	1.327620	-2.151660	0.845518	-0.251830	0.458800	-1.000000	-1.000000	-1.000000	-1.000000	-1.000000	-1.000000	-1.000000	84.000000	0.000000	-1.000000	-1.000000	585029.000000	1773865413.082541
-399.105000	-11771.595000	8001.765000	11614.095000	-36911.835000	-43938.405000	6967.080000	11977.245000	-0.601372	-0.788944	-1.559815	-1.161633	-1.676189	-1.672628	-0.039748	-0.959204	-3.662400	1.327620	-2.151660	0.845518	-0.251830	0.458800	-1.000000	-1.000000	-1.000000	-1.000000	-1.000000	-1.000000	-1.000000	84.000000	0.000000	-1.000000	-1.000000	585030.000000	1773865413.082551
-399.555000	-11773.800000	7997.985000	11614.545000	-36913.680000	-43939.305000	6964.605000	11975.670000	1.003814	1.252424	1.739034	2.647579	1.578015	0.315877	-1.615497	-1.433731	-3.021480	2.594200	-0.824040	0.849424	-0.252136	0.456481	-1.000000	-1.000000	-1.000000	-1.000000	-1.000000	-1.000000	-1.000000	84.000000	0.000000	-1.000000	-1.000000	585031.000000	1773865413.085144
-407.160000	-11781.045000	7988.985000	11616.390000	-36909.225000	-43931.970000	6962.805000	11972.295000	2.681197	2.522992	3.638353	4.578266	3.183179	1.341428	-2.790077	-0.352781	-3.021480	2.594200	-0.824040	0.849424	-0.252136	0.456481	-1.000000	-1.000000	-1.000000	-1.000000	-1.000000	-1.000000	-1.000000	84.000000	0.000000	-1.000000	-1.000000	585032.000000	1773865413.085154
-396.180000	-11779.650000	7986.195000	11608.920000	-36911.970000	-43936.470000	6965.415000	11978.460000	3.890878	2.527697	3.090339	3.993888	2.886456	1.386757	-2.616278	2.102938	-3.021480	2.594200	-0.824040	0.849424	-0.252136	0.456481	-1.000000	-1.000000	-1.000000	-1.000000	-1.000000	-1.000000	-1.000000	84.000000	0.000000	-1.000000	-1.000000	585033.000000	1773865413.089004
-391.815000	-11776.140000	7994.205000	11598.885000	-36921.060000	-43949.430000	6967.755000	11978.190000	4.729673	1.845229	1.083722	2.015734	1.715340	1.070161	-1.177499	4.461919	-3.021480	2.594200	-0.824040	0.849424	-0.252136	0.456481	-1.000000	-1.000000	-1.000000	-1.000000	-1.000000	-1.000000	-1.000000	84.000000	0.000000	-1.000000	-1.000000	585034.000000	1773865413.089013
-386.370000	-11767.950000	8008.920000	11598.750000	-36920.655000	-43949.790000	6974.145000	11985.300000	5.913793	1.647391	0.029508	0.509414	0.855378	0.933931	0.711074	5.398415	-3.021480	2.594200	-0.824040	0.849424	-0.252136	0.456481	-1.000000	-1.000000	-1.000000	-1.000000	-1.000000	-1.000000	-1.000000	84.000000	0.000000	-1.000000	-1.000000	585035.000000	1773865413.093192
-390.465000	-11763.630000	8008.695000	11593.395000	-36919.215000	-43950.240000	6977.385000	11985.255000	6.427409	2.319288	1.281344	0.483868	0.910879	1.318014	2.331021	4.352989	-3.021480	2.594200	-0.824040	0.849424	-0.252136	0.456481	-1.000000	-1.000000	-1.000000	-1.000000	-1.000000	-1.000000	-1.000000	84.000000	0.000000	-1.000000	-1.000000	585036.000000	1773865413.093202
-398.970000	-11767.005000	7989.795000	11597.535000	-36912.510000	-43943.265000	6976.530000	11980.395000	4.150703	2.939182	3.187808	1.109135	1.506946	1.972543	3.237340	1.684171	-3.021480	2.594200	-0.824040	0.849424	-0.252136	0.456481	-1.000000	-1.000000	-1.000000	-1.000000	-1.000000	-1.000000	-1.000000	84.000000	0.000000	-1.000000	-1.000000	585037.000000	1773865413.096973
-398.295000	-11770.650000	7989.570000	11611.080000	-36910.665000	-43939.980000	6969.060000	11974.230000	-0.766863	2.311005	2.709305	0.767415	1.523662	1.900382	2.992225	-1.561535	-3.021480	2.594200	-0.824040	0.849424	-0.252136	0.456481	-1.000000	-1.000000	-1.000000	-1.000000	-1.000000	-1.000000	-1.000000	84.000000	0.000000	-1.000000	-1.000000	585038.000000	1773865413.096982
-395.010000	-11765.790000	8003.700000	11623.815000	-36902.925000	-43934.445000	6968.340000	11974.275000	-5.600172	0.184128	-0.708007	-0.879326	0.207775	0.373217	1.400706	-4.213620	-3.021480	2.594200	-0.824040	0.849424	-0.252136	0.456481	-1.000000	-1.000000	-1.000000	-1.000000	-1.000000	-1.000000	-1.000000	84.000000	0.000000	-1.000000	-1.000000	585039.000000	1773865413.101041
-406.080000	-11766.690000	8011.800000	11638.170000	-36889.605000	-43920.855000	6970.905000	11971.260000	-7.878973	-2.374028	-4.106127	-2.376279	-1.674112	-1.806271	-0.809605	-5.264378	-3.021480	2.594200	-0.824040	0.849424	-0.252136	0.456481	-1.000000	-1.000000	-1.000000	-1.000000	-1.000000	-1.000000	-1.000000	84.000000	0.000000	-1.000000	-1.000000	585040.000000	1773865413.101050
-423.990000	-11779.155000	8002.260000	11624.220000	-36900.585000	-43931.250000	6968.835000	11965.590000	-7.352180	-4.030924	-4.589410	-2.435151	-2.745293	-3.126113	-2.349476	-4.318962	-2.701020	4.349100	1.022420	0.851621	-0.250854	0.454467	-1.000000	-1.000000	-1.000000	-1.000000	-1.000000	-1.000000	-1.000000	84.000000	0.000000	-1.000000	-1.000000	585041.000000	1773865413.105183
-414.225000	-11776.770000	8001.585000	11611.575000	-36906.345000	-43939.890000	6971.220000	11979.585000	-5.238015	-4.404846	-2.449746	-1.567626	-2.783211	-3.151181	-2.637157	-1.913292	-2.701020	4.349100	1.022420	0.851621	-0.250854	0.454467	-1.000000	-1.000000	-1.000000	-1.000000	-1.000000	-1.000000	-1.000000	84.000000	0.000000	-1.000000	-1.000000	585042.000000	1773865413.105193
-394.155000	-11769.120000	8002.125000	11603.115000	-36910.080000	-43945.830000	6972.435000	11984.040000	-1.904078	-3.572173	-0.006822	-0.907571	-2.217759	-2.246320	-2.024519	1.119905	-2.701020	4.349100	1.022420	0.851621	-0.250854	0.454467	-1.000000	-1.000000	-1.000000	-1.000000	-1.000000	-1.000000	-1.000000	84.000000	0.000000	-1.000000	-1.000000	585043.000000	1773865413.109148
-403.965000	-11776.500000	7994.655000	11590.920000	-36919.260000	-43956.225000	6968.520000	11974.455000	2.635043	-1.751745	0.896134	-0.818794	-1.304086	-0.859615	-1.182111	3.591275	-2.701020	4.349100	1.022420	0.851621	-0.250854	0.454467	-1.000000	-1.000000	-1.000000	-1.000000	-1.000000	-1.000000	-1.000000	84.000000	0.000000	-1.000000	-1.000000	585044.000000	1773865413.109158
-404.370000	-11773.395000	7997.760000	11597.040000	-36917.055000	-43952.940000	6967.485000	11977.605000	6.552204	0.218789	0.155566	-1.020373	-0.481339	0.329036	-0.631071	4.081388	-2.701020	4.349100	1.022420	0.851621	-0.250854	0.454467	-1.000000	-1.000000	-1.000000	-1.000000	-1.000000	-1.000000	-1.000000	84.000000	0.000000	-1.000000	-1.000000	585045.000000	1773865413.113022
-395.100000	-11765.475000	8001.090000	11610.225000	-36914.670000	-43947.720000	6964.110000	11973.555000	7.878852	1.785606	-0.578109	-0.890277	-0.096361	0.854378	-0.339503	2.571746	-2.701020	4.349100	1.022420	0.851621	-0.250854	0.454467	-1.000000	-1.000000	-1.000000	-1.000000	-1.000000	-1.000000	-1.000000	84.000000	0.000000	-1.000000	-1.000000	585046.000000	1773865413.113031
-390.195000	-11759.670000	8004.555000	11615.760000	-36911.565000	-43942.320000	6965.280000	11968.920000	6.641340	3.169627	0.071638	-0.135307	-0.003718	0.854848	0.166406	0.392683	-2.701020	4.349100	1.022420	0.851621	-0.250854	0.454467	-1.000000	-1.000000	-1.000000	-1.000000	-1.000000	-1.000000	-1.000000	84.000000	0.000000	-1.000000	-1.000000	585047.000000	1773865413.117615
-389.025000	-11763.180000	8002.215000	11619.720000	-36910.935000	-43938.090000	6970.455000	11970.900000	3.814213	4.124358	1.370110	0.697190	0.058959	0.704022	1.184805	-1.303323	-2.701020	4.349100	1.022420	0.851621	-0.250854	0.454467	-1.000000	-1.000000	-1.000000	-1.000000	-1.000000	-1.000000	-1.000000	84.000000	0.000000	-1.000000	-1.000000	585048.000000	1773865413.117626
-388.350000	-11759.490000	8010.945000	11629.620000	-36899.415000	-43928.010000	6973.425000	11980.395000	0.546143	3.893166	1.902792	1.105389	0.310619	0.702347	2.461964	-1.721729	-2.701020	4.349100	1.022420	0.851621	-0.250854	0.454467	-1.000000	-1.000000	-1.000000	-1.000000	-1.000000	-1.000000	-1.000000	84.000000	0.000000	-1.000000	-1.000000	585049.000000	1773865413.121041
-392.400000	-11766.960000	8005.005000	11615.445000	-36906.705000	-43939.485000	6972.570000	11986.740000	-2.025657	2.380756	1.578547	1.421145	1.114689	1.061858	3.249166	-0.542591	-2.701020	4.349100	1.022420	0.851621	-0.250854	0.454467	-1.000000	-1.000000	-1.000000	-1.000000	-1.000000	-1.000000	-1.000000	84.000000	0.000000	-1.000000	-1.000000	585050.000000	1773865413.121047
-387.945000	-11767.500000	8000.280000	11600.955000	-36916.020000	-43952.085000	6972.210000	11984.760000	-3.695424	0.020906	0.880433	1.872654	2.349803	1.553613	2.753583	1.196870	-2.624720	4.959500	2.319520	0.850279	-0.249755	0.454406	-1.000000	-1.000000	-1.000000	-1.000000	-1.000000	-1.000000	-1.000000	84.000000	0.000000	-1.000000	-1.000000	585051.000000	1773865413.127054
-384.570000	-11764.035000	8003.655000	11596.095000	-36916.740000	-43953.435000	6974.505000	11988.315000	-4.897710	-2.583674	-0.126899	1.932831	3.078679	1.544534	0.898128	1.779159	-2.624720	4.959500	2.319520	0.850279	-0.249755	0.454406	-1.000000	-1.000000	-1.000000	-1.000000	-1.000000	-1.000000	-1.000000	84.000000	0.000000	-1.000000	-1.000000	585052.000000	1773865413.127065
-399.510000	-11768.670000	7999.515000	11590.155000	-36923.805000	-43958.430000	6971.895000	11981.160000	-5.575934	-4.405891	-1.146423	1.236359	2.581198	0.849818	-1.403148	0.682600	-2.624720	4.959500	2.319520	0.850279	-0.249755	0.454406	-1.000000	-1.000000	-1.000000	-1.000000	-1.000000	-1.000000	-1.000000	84.000000	0.000000	-1.000000	-1.000000	585053.000000	1773865413.129084
-407.970000	-11775.600000	7994.295000	11596.680000	-36925.380000	-43955.910000	6967.710000	11970.180000	-5.414135	-4.721771	-1.676843	-0.063023	0.841994	-0.259838	-3.012941	-1.368062	-2.624720	4.959500	2.319520	0.850279	-0.249755	0.454406	-1.000000	-1.000000	-1.000000	-1.000000	-1.000000	-1.000000	-1.000000	84.000000	0.000000	-1.000000	-1.000000	585054.000000	1773865413.129098
-414.990000	-11781.765000	7998.570000	11612.475000	-36913.905000	-43941.915000	6970.275000	11974.185000	-4.496622	-3.893496	-1.650694	-1.504000	-1.453346	-1.359529	-3.299768	-3.253158	-2.624720	4.959500	2.319520	0.850279	-0.249755	0.454406	-1.000000	-1.000000	-1.000000	-1.000000	-1.000000	-1.000000	-1.000000	84.000000	0.000000	-1.000000	-1.000000	585055.000000	1773865413.140350
-430.425000	-11789.595000	7993.080000	11610.675000	-36920.385000	-43945.515000	6966.540000	11970.405000	-3.196548	-2.724148	-1.303064	-2.353371	-3.069910	-1.859808	-2.303795	-3.729127	-2.624720	4.959500	2.319520	0.850279	-0.249755	0.454406	-1.000000	-1.000000	-1.000000	-1.000000	-1.000000	-1.000000	-1.000000	84.000000	0.000000	-1.000000	-1.000000	585056.000000	1773865413.140362
-436.005000	-11782.395000	7995.060000	11616.480000	-36920.565000	-43945.740000	6963.525000	11960.865000	-1.685722	-1.354434	-0.883728	-2.267953	-3.420937	-1.753329	-0.828462	-2.498977	-2.624720	4.959500	2.319520	0.850279	-0.249755	0.454406	-1.000000	-1.000000	-1.000000	-1.000000	-1.000000	-1.000000	-1.000000	84.000000	0.000000	-1.000000	-1.000000	585057.000000	1773865413.140435
-411.615000	-11769.120000	7997.985000	11610.675000	-36920.610000	-43951.905000	6964.245000	11962.395000	0.753034	0.947554	-0.366078	-1.487639	-2.833790	-1.603416	0.181850	-0.710541	-2.624720	4.959500	2.319520	0.850279	-0.249755	0.454406	-1.000000	-1.000000	-1.000000	-1.000000	-1.000000	-1.000000	-1.000000	84.000000	0.000000	-1.000000	-1.000000	585058.000000	1773865413.140445
-393.930000	-11768.040000	7992.630000	11593.980000	-36928.845000	-43964.865000	6965.460000	11970.855000	5.126738	4.466204	0.517833	-0.282048	-1.506000	-1.418578	0.578352	0.627164	-2.624720	4.959500	2.319520	0.850279	-0.249755	0.454406	-1.000000	-1.000000	-1.000000	-1.000000	-1.000000	-1.000000	-1.000000	84.000000	0.000000	-1.000000	-1.000000	585059.000000	1773865413.141149
-387.765000	-11765.385000	7994.385000	11588.400000	-36929.790000	-43967.700000	6969.330000	11976.615000	10.330752	7.652920	1.631088	1.028819	0.471240	-0.689354	0.830434	1.680596	-2.624720	4.959500	2.319520	0.850279	-0.249755	0.454406	-1.000000	-1.000000	-1.000000	-1.000000	-1.000000	-1.000000	-1.000000	84.000000	0.000000	-1.000000	-1.000000	585060.000000	1773865413.141156
-390.780000	-11769.480000	7990.560000	11582.100000	-36932.670000	-43973.595000	6968.655000	11975.535000	12.952011	8.127443	2.332388	1.986465	2.524677	0.673563	1.244303	2.827905	-2.166920	6.088740	3.143560	0.849424	-0.250244	0.453978	-1.000000	-1.000000	-1.000000	-1.000000	-1.000000	-1.000000	-1.000000	84.000000	0.000000	-1.000000	-1.000000	585061.000000	1773865413.146837
-403.560000	-11776.365000	7991.055000	11593.305000	-36924.525000	-43964.280000	6966.045000	11969.820000	10.475720	4.988503	2.195124	2.338794	3.913554	2.178056	1.666903	3.726643	-2.166920	6.088740	3.143560	0.849424	-0.250244	0.453978	-1.000000	-1.000000	-1.000000	-1.000000	-1.000000	-1.000000	-1.000000	84.000000	0.000000	-1.000000	-1.000000	585062.000000	1773865413.146858
-397.890000	-11767.680000	8002.260000	11615.760000	-36906.030000	-43943.535000	6966.450000	11976.615000	3.574195	-0.238878	1.538691	2.260470	4.375836	3.381645	1.759095	3.802855	-2.166920	6.088740	3.143560	0.849424	-0.250244	0.453978	-1.000000	-1.000000	-1.000000	-1.000000	-1.000000	-1.000000	-1.000000	84.000000	0.000000	-1.000000	-1.000000	585063.000000	1773865413.151665
-399.780000	-11768.130000	8003.250000	11619.765000	-36902.610000	-43939.350000	6968.790000	11976.930000	-4.404319	-4.630356	0.988770	1.988109	3.990779	4.018468	1.383753	2.944321	-2.166920	6.088740	3.143560	0.849424	-0.250244	0.453978	-1.000000	-1.000000	-1.000000	-1.000000	-1.000000	-1.000000	-1.000000	84.000000	0.000000	-1.000000	-1.000000	585064.000000	1773865413.151686
-423.090000	-11776.680000	8003.475000	11626.875000	-36899.730000	-43933.680000	6965.460000	11964.555000	-9.953007	-6.247284	0.621870	1.376082	2.677481	3.649405	0.651694	1.242250	-2.166920	6.088740	3.143560	0.849424	-0.250244	0.453978	-1.000000	-1.000000	-1.000000	-1.000000	-1.000000	-1.000000	-1.000000	84.000000	0.000000	-1.000000	-1.000000	585065.000000	1773865413.153767
-420.435000	-11764.080000	8016.435000	11634.705000	-36889.245000	-43924.365000	6970.185000	11957.310000	-11.756576	-5.371282	0.157894	0.313774	0.523563	2.130398	-0.203530	-1.245076	-2.166920	6.088740	3.143560	0.849424	-0.250244	0.453978	-1.000000	-1.000000	-1.000000	-1.000000	-1.000000	-1.000000	-1.000000	84.000000	0.000000	-1.000000	-1.000000	585066.000000	1773865413.153774
-413.730000	-11757.015000	8018.640000	11626.245000	-36893.565000	-43931.115000	6969.960000	11946.645000	-10.378850	-3.160835	-0.292702	-0.740671	-1.762852	0.126815	-0.874539	-4.164367	-2.166920	6.088740	3.143560	0.849424	-0.250244	0.453978	-1.000000	-1.000000	-1.000000	-1.000000	-1.000000	-1.000000	-1.000000	84.000000	0.000000	-1.000000	-1.000000	585067.000000	1773865413.157161
-405.045000	-11756.835000	8014.860000	11613.915000	-36902.070000	-43941.465000	6973.110000	11964.510000	-6.813262	-0.540954	-0.545131	-1.312562	-3.445547	-1.625061	-1.182092	-6.418681	-2.166920	6.088740	3.143560	0.849424	-0.250244	0.453978	-1.000000	-1.000000	-1.000000	-1.000000	-1.000000	-1.000000	-1.000000	84.000000	0.000000	-1.000000	-1.000000	585068.000000	1773865413.157172
-389.385000	-11764.620000	7999.290000	11589.795000	-36925.110000	-43965.090000	6971.310000	11983.995000	-1.821711	1.444767	-1.103908	-1.829663	-4.623227	-3.271376	-1.221354	-6.050061	-2.166920	6.088740	3.143560	0.849424	-0.250244	0.453978	-1.000000	-1.000000	-1.000000	-1.000000	-1.000000	-1.000000	-1.000000	84.000000	0.000000	-1.000000	-1.000000	585069.000000	1773865413.160990
-375.165000	-11772.315000	7990.380000	11585.655000	-36929.790000	-43965.045000	6972.075000	11994.705000	4.131426	1.887175	-2.607585	-3.115687	-5.789504	-5.214049	-1.118861	-1.807289	-2.166920	6.088740	3.143560	0.849424	-0.250244	0.453978	-1.000000	-1.000000	-1.000000	-1.000000	-1.000000	-1.000000	-1.000000	84.000000	0.000000	-1.000000	-1.000000	585070.000000	1773865413.161000
-394.065000	-11783.520000	7981.110000	11590.650000	-36932.445000	-43963.110000	6959.025000	11977.785000	9.644976	0.769748	-4.662615	-4.952036	-6.637270	-6.826893	-0.962310	4.448591	-2.014320	5.722500	3.402980	0.848325	-0.251708	0.454833	-1.000000	-1.000000	-1.000000	-1.000000	-1.000000	-1.000000	-1.000000	84.000000	0.000000	-1.000000	-1.000000	585071.000000	1773865413.165749
-385.875000	-11771.910000	7987.815000	11597.535000	-36927.405000	-43958.970000	6954.975000	11982.735000	11.776836	-0.953216	-5.904241	-6.015430	-6.170669	-6.908102	-1.038884	8.379203	-2.014320	5.722500	3.402980	0.848325	-0.251708	0.454833	-1.000000	-1.000000	-1.000000	-1.000000	-1.000000	-1.000000	-1.000000	84.000000	0.000000	-1.000000	-1.000000	585072.000000	1773865413.165760
-392.445000	-11767.185000	8004.510000	11620.845000	-36906.255000	-43937.190000	6961.320000	11981.835000	8.967702	-1.616196	-4.674350	-4.693557	-3.357416	-4.538782	-1.304269	7.351397	-2.014320	5.722500	3.402980	0.848325	-0.251708	0.454833	-1.000000	-1.000000	-1.000000	-1.000000	-1.000000	-1.000000	-1.000000	84.000000	0.000000	-1.000000	-1.000000	585073.000000	1773865413.169104
-421.245000	-11782.080000	8001.585000	11619.630000	-36907.605000	-43936.290000	6967.170000	11960.730000	2.738789	-0.385131	-0.401184	-0.349876	1.963863	0.379089	-0.903626	2.518433	-2.014320	5.722500	3.402980	0.848325	-0.251708	0.454833	-1.000000	-1.000000	-1.000000	-1.000000	-1.000000	-1.000000	-1.000000	84.000000	0.000000	-1.000000	-1.000000	585074.000000	1773865413.169111
-410.355000	-11783.430000	7993.485000	11598.615000	-36923.940000	-43953.030000	6966.585000	11967.030000	-4.356327	1.209163	4.698987	4.945791	7.462439	5.809840	0.638771	-3.130015	-2.014320	5.722500	3.402980	0.848325	-0.251708	0.454833	-1.000000	-1.000000	-1.000000	-1.000000	-1.000000	-1.000000	-1.000000	84.000000	0.000000	-1.000000	-1.000000	585075.000000	1773865413.174800
-389.205000	-11772.225000	7993.305000	11589.120000	-36927.000000	-43958.205000	6972.660000	11985.345000	-9.474649	1.409149	7.258024	7.757735	9.683331	8.587697	2.510149	-6.505835	-2.014320	5.722500	3.402980	0.848325	-0.251708	0.454833	-1.000000	-1.000000	-1.000000	-1.000000	-1.000000	-1.000000	-1.000000	84.000000	0.000000	-1.000000	-1.000000	585076.000000	1773865413.174811
-396.720000	-11771.505000	7989.435000	11584.935000	-36923.670000	-43956.630000	6977.655000	11982.645000	-10.206661	0.741517	6.259950	6.989148	7.904948	7.780757	3.580205	-6.097252	-2.014320	5.722500	3.402980	0.848325	-0.251708	0.454833	-1.000000	-1.000000	-1.000000	-1.000000	-1.000000	-1.000000	-1.000000	84.000000	0.000000	-1.000000	-1.000000	585077.000000	1773865413.180396
-416.655000	-11775.060000	7991.865000	11585.160000	-36925.380000	-43960.680000	6972.480000	11965.410000	-7.242812	0.634231	3.424447	4.450943	4.471143	5.123344	3.290289	-3.666587	-2.014320	5.722500	3.402980	0.848325	-0.251708	0.454833	-1.000000	-1.000000	-1.000000	-1.000000	-1.000000	-1.000000	-1.000000	84.000000	0.000000	-1.000000	-1.000000	585078.000000	1773865413.180441
-416.835000	-11778.255000	7993.440000	11597.895000	-36920.520000	-43953.075000	6968.340000	11963.160000	-3.452109	1.408555	1.048888	2.237539	1.625627	2.359822	1.657063	-2.016227	-2.014320	5.722500	3.402980	0.848325	-0.251708	0.454833	-1.000000	-1.000000	-1.000000	-1.000000	-1.000000	-1.000000	-1.000000	84.000000	0.000000	-1.000000	-1.000000	585079.000000	1773865413.181127
-395.280000	-11777.040000	7993.800000	11607.030000	-36916.425000	-43946.055000	6967.980000	11976.255000	0.165671	2.286873	0.057915	0.859191	-0.274741	-0.078086	-0.573667	-1.228630	-2.014320	5.722500	3.402980	0.848325	-0.251708	0.454833	-1.000000	-1.000000	-1.000000	-1.000000	-1.000000	-1.000000	-1.000000	84.000000	0.000000	-1.000000	-1.000000	585080.000000	1773865413.181133
-385.740000	-11770.650000	7998.480000	11613.510000	-36911.520000	-43940.520000	6968.610000	11975.535000	4.496614	2.248589	-0.354118	-0.428582	-1.947528	-2.298500	-2.243572	0.459027	-2.380560	5.188400	3.067260	0.846433	-0.250610	0.453673	-1.000000	-1.000000	-1.000000	-1.000000	-1.000000	-1.000000	-1.000000	84.000000	0.000000	-1.000000	-1.000000	585081.000000	1773865413.185170
-394.695000	-11770.965000	8001.225000	11620.890000	-36906.840000	-43935.570000	6964.110000	11965.815000	9.127567	1.053291	-1.304938	-2.297262	-3.838849	-4.260822	-2.882694	3.269436	-2.380560	5.188400	3.067260	0.846433	-0.250610	0.453673	-1.000000	-1.000000	-1.000000	-1.000000	-1.000000	-1.000000	-1.000000	84.000000	0.000000	-1.000000	-1.000000	585082.000000	1773865413.185177
-382.725000	-11771.190000	7996.545000	11607.480000	-36916.200000	-43946.100000	6965.595000	11981.970000	11.912707	-0.520357	-2.831790	-4.402333	-5.488292	-5.568914	-2.862854	5.909810	-2.380560	5.188400	3.067260	0.846433	-0.250610	0.453673	-1.000000	-1.000000	-1.000000	-1.000000	-1.000000	-1.000000	-1.000000	84.000000	0.000000	-1.000000	-1.000000	585083.000000	1773865413.189208
-389.745000	-11778.975000	7991.010000	11591.955000	-36923.445000	-43955.820000	6970.455000	11982.780000	10.595774	-1.846780	-4.052219	-5.612029	-5.875086	-5.539522	-2.393633	7.174741	-2.380560	5.188400	3.067260	0.846433	-0.250610	0.453673	-1.000000	-1.000000	-1.000000	-1.000000	-1.000000	-1.000000	-1.000000	84.000000	0.000000	-1.000000	-1.000000	585084.000000	1773865413.189219
-416.520000	-11770.605000	8007.030000	11601.855000	-36907.020000	-43942.545000	6983.055000	11976.525000	3.893480	-2.962597	-3.895134	-4.849255	-4.179174	-3.607198	-1.192489	5.772350	-2.380560	5.188400	3.067260	0.846433	-0.250610	0.453673	-1.000000	-1.000000	-1.000000	-1.000000	-1.000000	-1.000000	-1.000000	84.000000	0.000000	-1.000000	-1.000000	585085.000000	1773865413.201582
-450.810000	-11759.040000	8022.870000	11613.285000	-36894.915000	-43932.060000	6988.770000	11957.805000	-6.903684	-3.348780	-1.487765	-1.601884	-0.259911	0.279047	0.846664	1.025680	-2.380560	5.188400	3.067260	0.846433	-0.250610	0.453673	-1.000000	-1.000000	-1.000000	-1.000000	-1.000000	-1.000000	-1.000000	84.000000	0.000000	-1.000000	-1.000000	585086.000000	1773865413.201592
-436.230000	-11758.770000	8025.345000	11618.775000	-36901.530000	-43935.030000	6980.760000	11947.410000	-16.629134	-1.934738	2.751385	3.195213	4.524537	4.859983	3.022019	-5.356786	-2.380560	5.188400	3.067260	0.846433	-0.250610	0.453673	-1.000000	-1.000000	-1.000000	-1.000000	-1.000000	-1.000000	-1.000000	84.000000	0.000000	-1.000000	-1.000000	585087.000000	1773865413.201605
-398.070000	-11765.430000	8012.340000	11610.180000	-36918.855000	-43947.360000	6969.150000	11963.340000	-18.397821	0.917281	6.199413	6.544636	7.008803	7.194051	3.912112	-9.690520	-2.380560	5.188400	3.067260	0.846433	-0.250610	0.453673	-1.000000	-1.000000	-1.000000	-1.000000	-1.000000	-1.000000	-1.000000	84.000000	0.000000	-1.000000	-1.000000	585088.000000	1773865413.201610
-386.460000	-11773.080000	7988.085000	11597.085000	-36925.200000	-43954.695000	6965.100000	11973.735000	-9.545141	2.955875	5.534440	5.306835	4.608007	4.797228	2.511504	-8.980269	-2.380560	5.188400	3.067260	0.846433	-0.250610	0.453673	-1.000000	-1.000000	-1.000000	-1.000000	-1.000000	-1.000000	-1.000000	84.000000	0.000000	-1.000000	-1.000000	585089.000000	1773865413.202678
-388.530000	-11775.600000	7978.365000	11605.005000	-36918.855000	-43947.990000	6963.930000	11972.745000	4.885817	2.273303	-0.214023	-0.490804	-1.594568	-1.402301	-0.569844	-3.364523	-2.380560	5.188400	3.067260	0.846433	-0.250610	0.453673	-1.000000	-1.000000	-1.000000	-1.000000	-1.000000	-1.000000	-1.000000	84.000000	0.000000	-1.000000	-1.000000	585090.000000	1773865413.202690
-400.275000	-11784.915000	7978.095000	11596.860000	-36931.365000	-43963.425000	6957.405000	11969.235000	16.149961	-0.673328	-7.889873	-7.001926	-7.437023	-7.451142	-3.489599	3.907173	-1.587040	4.013380	2.350040	0.843565	-0.249938	0.454345	-1.000000	-1.000000	-1.000000	-1.000000	-1.000000	-1.000000	-1.000000	84.000000	0.000000	-1.000000	-1.000000	585091.000000	1773865413.205780
-414.585000	-11789.685000	7978.185000	11585.160000	-36936.855000	-43973.415000	6955.200000	11969.010000	17.992419	-3.681122	-12.037150	-9.638799	-9.183247	-9.642874	-4.741923	8.595884	-1.587040	4.013380	2.350040	0.843565	-0.249938	0.454345	-1.000000	-1.000000	-1.000000	-1.000000	-1.000000	-1.000000	-1.000000	84.000000	0.000000	-1.000000	-1.000000	585092.000000	1773865413.205790
-411.705000	-11785.050000	7982.910000	11581.470000	-36935.190000	-43972.965000	6965.010000	11979.180000	10.138398	-4.700224	-9.369100	-6.606617	-5.900075	-6.817951	-3.930457	8.317147	-1.587040	4.013380	2.350040	0.843565	-0.249938	0.454345	-1.000000	-1.000000	-1.000000	-1.000000	-1.000000	-1.000000	-1.000000	84.000000	0.000000	-1.000000	-1.000000	585093.000000	1773865413.209445
-399.915000	-11780.145000	7985.520000	11576.385000	-36935.955000	-43974.315000	6974.010000	11982.960000	-1.168928	-3.042077	-1.481998	-0.032432	0.253182	-0.731256	-1.459447	4.349289	-1.587040	4.013380	2.350040	0.843565	-0.249938	0.454345	-1.000000	-1.000000	-1.000000	-1.000000	-1.000000	-1.000000	-1.000000	84.000000	0.000000	-1.000000	-1.000000	585094.000000	1773865413.209459
-397.890000	-11777.625000	7987.275000	11581.425000	-36933.885000	-43972.830000	6969.600000	11980.035000	-7.905036	0.355240	6.760209	5.933656	5.687443	5.218755	1.701042	0.133714	-1.587040	4.013380	2.350040	0.843565	-0.249938	0.454345	-1.000000	-1.000000	-1.000000	-1.000000	-1.000000	-1.000000	-1.000000	84.000000	0.000000	-1.000000	-1.000000	585095.000000	1773865413.213282
-410.355000	-11781.270000	7987.410000	11597.310000	-36927.360000	-43963.605000	6963.480000	11968.515000	-7.749681	3.725003	11.205598	8.584653	8.270309	8.557964	4.249349	-2.243331	-1.587040	4.013380	2.350040	0.843565	-0.249938	0.454345	-1.000000	-1.000000	-1.000000	-1.000000	-1.000000	-1.000000	-1.000000	84.000000	0.000000	-1.000000	-1.000000	585096.000000	1773865413.213292
-414.900000	-11787.480000	7984.080000	11598.750000	-36928.755000	-43963.155000	6961.905000	11962.530000	-5.185609	5.543125	10.904261	8.114598	8.211443	8.971056	5.220658	-3.561079	-1.587040	4.013380	2.350040	0.843565	-0.249938	0.454345	-1.000000	-1.000000	-1.000000	-1.000000	-1.000000	-1.000000	-1.000000	84.000000	0.000000	-1.000000	-1.000000	585097.000000	1773865413.221864
-401.445000	-11781.270000	7989.345000	11608.560000	-36921.735000	-43954.380000	6967.260000	11967.210000	-4.469935	5.194547	7.574584	5.969481	6.367214	7.176887	4.488631	-5.109192	-1.587040	4.013380	2.350040	0.843565	-0.249938	0.454345	-1.000000	-1.000000	-1.000000	-1.000000	-1.000000	-1.000000	-1.000000	84.000000	0.000000	-1.000000	-1.000000	585098.000000	1773865413.221876
-394.200000	-11777.490000	7994.475000	11613.870000	-36915.075000	-43947.945000	6969.105000	11973.510000	-4.555198	3.344119	3.524495	3.115360	3.311940	3.974430	2.668120	-5.950671	-1.587040	4.013380	2.350040	0.843565	-0.249938	0.454345	-1.000000	-1.000000	-1.000000	-1.000000	-1.000000	-1.000000	-1.000000	84.000000	0.000000	-1.000000	-1.000000	585099.000000	1773865413.221888
-405.495000	-11785.815000	7989.210000	11601.585000	-36922.140000	-43957.440000	6969.060000	11969.955000	-2.470594	1.216973	-0.020966	0.053901	-0.092908	0.416583	0.604646	-4.335385	-1.587040	4.013380	2.350040	0.843565	-0.249938	0.454345	-1.000000	-1.000000	-1.000000	-1.000000	-1.000000	-1.000000	-1.000000	84.000000	0.000000	-1.000000	-1.000000	585100.000000	1773865413.221894
-403.830000	-11785.320000	7986.645000	11588.445000	-36929.790000	-43967.610000	6969.600000	11969.280000	1.749418	-0.630339	-3.046504	-2.785417	-2.952268	-2.586219	-1.225474	-0.718034	-0.579880	3.128300	2.060100	0.841551	-0.251281	0.454284	-1.000000	-1.000000	-1.000000	-1.000000	-1.000000	-1.000000	-1.000000	84.000000	0.000000	-1.000000	-1.000000	585101.000000	1773865413.225244
-394.155000	-11769.705000	7992.270000	11583.360000	-36931.995000	-43973.640000	6970.905000	11973.870000	5.721717	-2.075306	-5.616814	-5.090709	-5.066228	-4.940352	-2.894661	2.656991	-0.579880	3.128300	2.060100	0.841551	-0.251281	0.454284	-1.000000	-1.000000	-1.000000	-1.000000	-1.000000	-1.000000	-1.000000	84.000000	0.000000	-1.000000	-1.000000	585102.000000	1773865413.225255
-394.155000	-11756.025000	8005.635000	11596.635000	-36919.440000	-43961.355000	6978.060000	11982.870000	7.562500	-2.599588	-6.991688	-6.293204	-6.235914	-6.527736	-4.306259	4.433543	-0.579880	3.128300	2.060100	0.841551	-0.251281	0.454284	-1.000000	-1.000000	-1.000000	-1.000000	-1.000000	-1.000000	-1.000000	84.000000	0.000000	-1.000000	-1.000000	585103.000000	1773865413.229166
-400.140000	-11765.925000	8001.540000	11606.175000	-36916.650000	-43954.650000	6975.405000	11974.590000	6.551064	-1.957517	-6.254958	-5.561701	-5.670108	-6.391242	-4.555100	4.858642	-0.579880	3.128300	2.060100	0.841551	-0.251281	0.454284	-1.000000	-1.000000	-1.000000	-1.000000	-1.000000	-1.000000	-1.000000	84.000000	0.000000	-1.000000	-1.000000	585104.000000	1773865413.229176
-419.580000	-11778.795000	7994.385000	11608.785000	-36917.325000	-43953.255000	6968.430000	11962.125000	2.699684	-1.112794	-3.705044	-3.007485	-3.176026	-4.033893	-2.957889	4.139075	-0.579880	3.128300	2.060100	0.841551	-0.251281	0.454284	-1.000000	-1.000000	-1.000000	-1.000000	-1.000000	-1.000000	-1.000000	84.000000	0.000000	-1.000000	-1.000000	585105.000000	1773865413.234572
-420.930000	-11778.930000	7994.250000	11611.080000	-36916.290000	-43952.490000	6965.010000	11960.235000	-3.043441	-1.210870	-0.706230	0.030209	0.063648	-0.566292	-0.338477	1.901647	-0.579880	3.128300	2.060100	0.841551	-0.251281	0.454284	-1.000000	-1.000000	-1.000000	-1.000000	-1.000000	-1.000000	-1.000000	84.000000	0.000000	-1.000000	-1.000000	585106.000000	1773865413.234583
-412.515000	-11779.695000	7990.245000	11607.615000	-36922.275000	-43955.775000	6964.335000	11964.420000	-8.200433	-2.131618	1.506699	2.003507	2.274082	2.060268	1.656794	-1.361961	-0.579880	3.128300	2.060100	0.841551	-0.251281	0.454284	-1.000000	-1.000000	-1.000000	-1.000000	-1.000000	-1.000000	-1.000000	84.000000	0.000000	-1.000000	-1.000000	585107.000000	1773865413.237164
-417.150000	-11781.180000	7990.785000	11600.505000	-36922.680000	-43957.350000	6965.010000	11962.260000	-9.684529	-2.761142	2.329493	2.099284	2.412125	2.649035	2.183474	-3.969157	-0.579880	3.128300	2.060100	0.841551	-0.251281	0.454284	-1.000000	-1.000000	-1.000000	-1.000000	-1.000000	-1.000000	-1.000000	84.000000	0.000000	-1.000000	-1.000000	585108.000000	1773865413.237171
-412.290000	-11771.820000	8000.820000	11600.505000	-36914.760000	-43953.345000	6971.760000	11961.675000	-6.212179	-1.942165	2.182800	1.096654	1.341002	1.944838	1.734361	-4.548269	-0.579880	3.128300	2.060100	0.841551	-0.251281	0.454284	-1.000000	-1.000000	-1.000000	-1.000000	-1.000000	-1.000000	-1.000000	84.000000	0.000000	-1.000000	-1.000000	585109.000000	1773865413.242742
-412.155000	-11770.290000	7999.785000	11592.045000	-36920.430000	-43960.005000	6972.345000	11960.910000	0.467027	0.505691	2.086901	0.671962	0.866931	1.593698	1.221098	-3.103221	-0.579880	3.128300	2.060100	0.841551	-0.251281	0.454284	-1.000000	-1.000000	-1.000000	-1.000000	-1.000000	-1.000000	-1.000000	84.000000	0.000000	-1.000000	-1.000000	585110.000000	1773865413.242754
-414.720000	-11777.535000	7991.370000	11579.670000	-36930.420000	-43970.085000	6969.555000	11966.805000	6.561722	2.869883	1.950552	1.073089	1.156336	1.738672	0.807702	-0.709403	-1.098720	1.449700	0.671440	0.839170	-0.253356	0.455321	-1.000000	-1.000000	-1.000000	-1.000000	-1.000000	-1.000000	-1.000000	84.000000	0.000000	-1.000000	-1.000000	585111.000000	1773865413.247114
-395.685000	-11773.710000	7989.525000	11584.755000	-36931.455000	-43967.430000	6968.160000	11983.905000	9.125976	3.017303	0.679796	0.899062	0.736762	1.069733	0.092275	1.724172	-1.098720	1.449700	0.671440	0.839170	-0.253356	0.455321	-1.000000	-1.000000	-1.000000	-1.000000	-1.000000	-1.000000	-1.000000	84.000000	0.000000	-1.000000	-1.000000	585112.000000	1773865413.247125
-392.355000	-11772.315000	7994.610000	11602.350000	-36921.375000	-43953.885000	6966.225000	11981.070000	8.284828	1.282047	-1.470196	-0.339676	-0.794676	-0.689449	-0.762639	4.034928	-1.098720	1.449700	0.671440	0.839170	-0.253356	0.455321	-1.000000	-1.000000	-1.000000	-1.000000	-1.000000	-1.000000	-1.000000	84.000000	0.000000	-1.000000	-1.000000	585113.000000	1773865413.249091
-395.370000	-11776.005000	7993.710000	11605.275000	-36919.530000	-43951.500000	6966.270000	11972.880000	5.742127	-0.051925	-2.556141	-1.223003	-1.904510	-2.007300	-0.969688	5.621046	-1.098720	1.449700	0.671440	0.839170	-0.253356	0.455321	-1.000000	-1.000000	-1.000000	-1.000000	-1.000000	-1.000000	-1.000000	84.000000	0.000000	-1.000000	-1.000000	585114.000000	1773865413.249101
-382.095000	-11764.395000	8004.780000	11622.105000	-36904.230000	-43934.940000	6972.435000	11983.860000	2.441440	0.243915	-1.309554	-0.411142	-1.141676	-1.463980	-0.130235	5.183104	-1.098720	1.449700	0.671440	0.839170	-0.253356	0.455321	-1.000000	-1.000000	-1.000000	-1.000000	-1.000000	-1.000000	-1.000000	84.000000	0.000000	-1.000000	-1.000000	585115.000000	1773865413.253086
-396.180000	-11762.865000	8010.045000	11624.805000	-36898.875000	-43930.305000	6975.990000	11979.270000	-1.389491	1.591569	1.615575	1.889747	1.391657	0.850056	1.313353	2.383791	-1.098720	1.449700	0.671440	0.839170	-0.253356	0.455321	-1.000000	-1.000000	-1.000000	-1.000000	-1.000000	-1.000000	-1.000000	84.000000	0.000000	-1.000000	-1.000000	585116.000000	1773865413.253095
-414.720000	-11771.145000	8004.555000	11610.675000	-36906.300000	-43941.465000	6975.000000	11968.335000	-5.525158	2.553650	4.213414	4.090003	4.039590	3.338547	2.358767	-1.762887	-1.098720	1.449700	0.671440	0.839170	-0.253356	0.455321	-1.000000	-1.000000	-1.000000	-1.000000	-1.000000	-1.000000	-1.000000	84.000000	0.000000	-1.000000	-1.000000	585117.000000	1773865413.257101
-433.395000	-11783.970000	7992.180000	11590.605000	-36922.905000	-43961.580000	6964.470000	11947.950000	-9.404352	1.556113	4.192311	4.008508	4.355052	3.628213	1.877035	-5.966943	-1.098720	1.449700	0.671440	0.839170	-0.253356	0.455321	-1.000000	-1.000000	-1.000000	-1.000000	-1.000000	-1.000000	-1.000000	84.000000	0.000000	-1.000000	-1.000000	585118.000000	1773865413.257111
-407.565000	-11778.210000	7984.485000	11571.390000	-36941.445000	-43980.615000	6958.845000	11950.920000	-11.335493	-1.667623	0.767733	0.620615	1.072121	0.493333	-0.539496	-8.935166	-1.098720	1.449700	0.671440	0.839170	-0.253356	0.455321	-1.000000	-1.000000	-1.000000	-1.000000	-1.000000	-1.000000	-1.000000	84.000000	0.000000	-1.000000	-1.000000	585119.000000	1773865413.261153
-390.870000	-11768.985000	7990.020000	11578.410000	-36935.415000	-43973.280000	6965.415000	11963.970000	-8.760144	-4.951635	-4.041511	-4.424031	-4.154053	-4.414792	-3.603725	-9.081902	-1.098720	1.449700	0.671440	0.839170	-0.253356	0.455321	-1.000000	-1.000000	-1.000000	-1.000000	-1.000000	-1.000000	-1.000000	84.000000	0.000000	-1.000000	-1.000000	585120.000000	1773865413.261159
-406.935000	-11775.015000	7986.915000	11588.400000	-36934.830000	-43968.780000	6963.435000	11970.360000	-1.694424	-5.598330	-6.859167	-7.781699	-7.731585	-7.584673	-4.961206	-5.416929	-1.938020	1.648080	0.793520	0.840147	-0.252441	0.454894	-1.000000	-1.000000	-1.000000	-1.000000	-1.000000	-1.000000	-1.000000	84.000000	0.000000	-1.000000	-1.000000	585121.000000	1773865413.268998
-406.485000	-11778.525000	7988.085000	11591.145000	-36935.145000	-43967.565000	6961.500000	11980.845000	5.774818	-3.185888	-5.899481	-7.287632	-7.299359	-6.800056	-3.415888	1.239247	-1.938020	1.648080	0.793520	0.840147	-0.252441	0.454894	-1.000000	-1.000000	-1.000000	-1.000000	-1.000000	-1.000000	-1.000000	84.000000	0.000000	-1.000000	-1.000000	585122.000000	1773865413.269009
-403.245000	-11778.120000	7994.880000	11602.575000	-36926.820000	-43958.745000	6961.680000	11975.985000	9.577165	0.509609	-1.950154	-3.387752	-3.357460	-2.672614	-0.006851	8.197474	-1.938020	1.648080	0.793520	0.840147	-0.252441	0.454894	-1.000000	-1.000000	-1.000000	-1.000000	-1.000000	-1.000000	-1.000000	84.000000	0.000000	-1.000000	-1.000000	585123.000000	1773865413.281219
-413.685000	-11790.315000	7984.845000	11596.995000	-36929.610000	-43961.085000	6960.555000	11965.050000	8.629723	3.141848	2.553042	1.651797	1.728395	2.383126	3.067975	11.683339	-1.938020	1.648080	0.793520	0.840147	-0.252441	0.454894	-1.000000	-1.000000	-1.000000	-1.000000	-1.000000	-1.000000	-1.000000	84.000000	0.000000	-1.000000	-1.000000	585124.000000	1773865413.281231
-413.955000	-11792.655000	7975.035000	11584.665000	-36932.085000	-43966.440000	6960.960000	11967.390000	4.435577	3.264368	4.864310	5.163350	5.374211	5.804312	4.153879	9.449244	-1.938020	1.648080	0.793520	0.840147	-0.252441	0.454894	-1.000000	-1.000000	-1.000000	-1.000000	-1.000000	-1.000000	-1.000000	84.000000	0.000000	-1.000000	-1.000000	585125.000000	1773865413.281244
-409.320000	-11782.395000	7981.920000	11584.485000	-36927.540000	-43966.530000	6965.235000	11973.060000	0.248971	1.705621	4.053763	5.933203	6.441552	6.549055	3.213470	3.439020	-1.938020	1.648080	0.793520	0.840147	-0.252441	0.454894	-1.000000	-1.000000	-1.000000	-1.000000	-1.000000	-1.000000	-1.000000	84.000000	0.000000	-1.000000	-1.000000	585126.000000	1773865413.281249
-403.245000	-11776.320000	7987.680000	11579.895000	-36931.725000	-43973.550000	6967.530000	11975.850000	-1.270813	0.796163	1.996092	5.016234	5.750259	5.533065	1.594289	-1.959683	-1.938020	1.648080	0.793520	0.840147	-0.252441	0.454894	-1.000000	-1.000000	-1.000000	-1.000000	-1.000000	-1.000000	-1.000000	84.000000	0.000000	-1.000000	-1.000000	585127.000000	1773865413.281255
-405.720000	-11774.295000	7990.560000	11582.370000	-36930.555000	-43972.695000	6972.390000	11968.785000	-0.699827	1.470413	1.057826	3.995979	4.526012	4.046146	0.599991	-4.399083	-1.938020	1.648080	0.793520	0.840147	-0.252441	0.454894	-1.000000	-1.000000	-1.000000	-1.000000	-1.000000	-1.000000	-1.000000	84.000000	0.000000	-1.000000	-1.000000	585128.000000	1773865413.281260
-410.670000	-11774.340000	7991.190000	11593.485000	-36925.335000	-43964.955000	6966.945000	11960.595000	-0.717783	2.384891	1.487707	3.086354	2.973800	2.364051	0.275426	-5.037669	-1.938020	1.648080	0.793520	0.840147	-0.252441	0.454894	-1.000000	-1.000000	-1.000000	-1.000000	-1.000000	-1.000000	-1.000000	84.000000	0.000000	-1.000000	-1.000000	585129.000000	1773865413.281266
-413.145000	-11784.555000	7982.370000	11591.730000	-36931.995000	-43968.510000	6960.780000	11959.830000	-2.344545	1.971883	1.767577	1.402388	0.640212	0.104457	-0.250117	-5.677690	-1.938020	1.648080	0.793520	0.840147	-0.252441	0.454894	-1.000000	-1.000000	-1.000000	-1.000000	-1.000000	-1.000000	-1.000000	84.000000	0.000000	-1.000000	-1.000000	585130.000000	1773865413.281271
-414.360000	-11785.725000	7984.665000	11598.885000	-36926.325000	-43961.130000	6962.670000	11960.280000	-4.056777	0.040780	0.613176	-1.472126	-2.449854	-2.664772	-1.378067	-6.104191	-2.136400	3.799740	0.778260	0.841734	-0.253051	0.453734	-1.000000	-1.000000	-1.000000	-1.000000	-1.000000	-1.000000	-1.000000	84.000000	0.000000	-1.000000	-1.000000	585131.000000	1773865413.285227
-408.060000	-11775.330000	7996.770000	11615.220000	-36910.890000	-43947.315000	6964.830000	11962.935000	-4.166824	-2.205843	-1.588246	-4.431157	-5.127271	-4.870116	-2.476857	-4.824839	-2.136400	3.799740	0.778260	0.841734	-0.253051	0.453734	-1.000000	-1.000000	-1.000000	-1.000000	-1.000000	-1.000000	-1.000000	84.000000	0.000000	-1.000000	-1.000000	585132.000000	1773865413.285240
-406.620000	-11778.120000	7994.430000	11606.355000	-36916.470000	-43955.595000	6965.145000	11960.820000	-2.136970	-3.066979	-3.060800	-5.591122	-5.818370	-5.236782	-2.697363	-1.224443	-2.136400	3.799740	0.778260	0.841734	-0.253051	0.453734	-1.000000	-1.000000	-1.000000	-1.000000	-1.000000	-1.000000	-1.000000	84.000000	0.000000	-1.000000	-1.000000	585133.000000	1773865413.289300
-417.645000	-11787.435000	7983.900000	11585.475000	-36932.625000	-43973.910000	6963.480000	11955.420000	1.230287	-2.143299	-2.778160	-4.446199	-4.447660	-3.882542	-1.900185	3.337890	-2.136400	3.799740	0.778260	0.841734	-0.253051	0.453734	-1.000000	-1.000000	-1.000000	-1.000000	-1.000000	-1.000000	-1.000000	84.000000	0.000000	-1.000000	-1.000000	585134.000000	1773865413.289312
-411.255000	-11777.445000	7990.110000	11582.145000	-36931.140000	-43974.810000	6969.870000	11970.765000	3.948110	-0.744722	-1.567315	-2.373411	-2.484632	-2.113980	-0.570368	6.626596	-2.136400	3.799740	0.778260	0.841734	-0.253051	0.453734	-1.000000	-1.000000	-1.000000	-1.000000	-1.000000	-1.000000	-1.000000	84.000000	0.000000	-1.000000	-1.000000	585135.000000	1773865413.294551
-416.295000	-11777.760000	7990.830000	11578.905000	-36931.185000	-43976.205000	6973.830000	11974.365000	4.329942	0.000525	-0.558686	-0.608156	-0.748645	-0.520628	0.839422	7.574454	-2.136400	3.799740	0.778260	0.841734	-0.253051	0.453734	-1.000000	-1.000000	-1.000000	-1.000000	-1.000000	-1.000000	-1.000000	84.000000	0.000000	-1.000000	-1.000000	585136.000000	1773865413.294564
-440.775000	-11787.840000	7989.975000	11589.750000	-36924.615000	-43967.475000	6972.795000	11957.265000	1.926413	-0.118944	-0.063789	0.726781	0.994509	1.143932	1.935225	6.137368	-2.136400	3.799740	0.778260	0.841734	-0.253051	0.453734	-1.000000	-1.000000	-1.000000	-1.000000	-1.000000	-1.000000	-1.000000	84.000000	0.000000	-1.000000	-1.000000	585137.000000	1773865413.297244
-438.255000	-11785.770000	7991.955000	11603.205000	-36918.945000	-43959.915000	6965.460000	11946.960000	-2.228776	-0.820300	0.106960	1.832724	2.718694	2.745572	2.218673	2.332760	-2.136400	3.799740	0.778260	0.841734	-0.253051	0.453734	-1.000000	-1.000000	-1.000000	-1.000000	-1.000000	-1.000000	-1.000000	84.000000	0.000000	-1.000000	-1.000000	585138.000000	1773865413.297255
-406.620000	-11775.105000	7989.660000	11599.920000	-36925.515000	-43966.305000	6959.565000	11949.210000	-4.984072	-0.971390	0.356548	2.684202	3.835766	3.622787	1.446450	-2.810435	-2.136400	3.799740	0.778260	0.841734	-0.253051	0.453734	-1.000000	-1.000000	-1.000000	-1.000000	-1.000000	-1.000000	-1.000000	84.000000	0.000000	-1.000000	-1.000000	585139.000000	1773865413.302912
-395.280000	-11773.305000	7988.760000	11604.330000	-36926.865000	-43964.595000	6957.360000	11956.680000	-3.148501	0.448625	0.679687	2.707737	3.422188	2.943687	-0.136703	-6.699869	-2.136400	3.799740	0.778260	0.841734	-0.253051	0.453734	-1.000000	-1.000000	-1.000000	-1.000000	-1.000000	-1.000000	-1.000000	84.000000	0.000000	-1.000000	-1.000000	585140.000000	1773865413.302926
-405.270000	-11784.015000	7980.345000	11593.035000	-36936.180000	-43973.550000	6954.345000	11962.710000	2.372452	2.465720	0.418071	1.214216	0.921951	0.436746	-1.862511	-6.939730	-1.617560	3.921820	-1.205540	0.841062	-0.256164	0.453917	-1.000000	-1.000000	-1.000000	-1.000000	-1.000000	-1.000000	-1.000000	84.000000	0.000000	-1.000000	-1.000000	585141.000000	1773865413.310058
-398.970000	-11778.570000	7983.675000	11584.485000	-36936.900000	-43977.330000	6957.900000	11976.030000	7.092353	3.176297	-0.505675	-1.257346	-2.527593	-2.618987	-2.799893	-3.205399	-1.617560	3.921820	-1.205540	0.841062	-0.256164	0.453917	-1.000000	-1.000000	-1.000000	-1.000000	-1.000000	-1.000000	-1.000000	84.000000	0.000000	-1.000000	-1.000000	585142.000000	1773865413.310070
-412.695000	-11779.245000	7986.105000	11579.085000	-36936.315000	-43980.750000	6959.655000	11970.630000	7.575164	2.174153	-0.978038	-2.846036	-4.361589	-3.946922	-2.252736	2.354390	-1.617560	3.921820	-1.205540	0.841062	-0.256164	0.453917	-1.000000	-1.000000	-1.000000	-1.000000	-1.000000	-1.000000	-1.000000	84.000000	0.000000	-1.000000	-1.000000	585143.000000	1773865413.310084
-441.720000	-11794.905000	7978.995000	11568.285000	-36942.345000	-43987.815000	6959.745000	11955.600000	3.121972	0.049884	-0.336846	-2.330131	-3.115539	-2.509250	-0.473848	5.875753	-1.617560	3.921820	-1.205540	0.841062	-0.256164	0.453917	-1.000000	-1.000000	-1.000000	-1.000000	-1.000000	-1.000000	-1.000000	84.000000	0.000000	-1.000000	-1.000000	585144.000000	1773865413.310090
-439.065000	-11795.760000	7975.395000	11568.150000	-36946.710000	-43991.415000	6955.605000	11951.865000	-4.420847	-2.675860	0.564068	-0.475551	-0.026586	0.342166	1.335209	4.615534	-1.617560	3.921820	-1.205540	0.841062	-0.256164	0.453917	-1.000000	-1.000000	-1.000000	-1.000000	-1.000000	-1.000000	-1.000000	84.000000	0.000000	-1.000000	-1.000000	585145.000000	1773865413.313444
-414.855000	-11786.670000	7983.585000	11582.910000	-36943.695000	-43982.775000	6956.865000	11957.220000	-10.035592	-4.561845	0.862460	1.132012	2.429459	2.377362	2.169278	0.096000	-1.617560	3.921820	-1.205540	0.841062	-0.256164	0.453917	-1.000000	-1.000000	-1.000000	-1.000000	-1.000000	-1.000000	-1.000000	84.000000	0.000000	-1.000000	-1.000000	585146.000000	1773865413.313453
-409.365000	-11782.755000	7992.765000	11591.595000	-36939.060000	-43975.710000	6957.810000	11955.555000	-9.046874	-3.780350	0.991243	1.865048	3.028100	2.728062	2.181571	-3.477642	-1.617560	3.921820	-1.205540	0.841062	-0.256164	0.453917	-1.000000	-1.000000	-1.000000	-1.000000	-1.000000	-1.000000	-1.000000	84.000000	0.000000	-1.000000	-1.000000	585147.000000	1773865413.317144
-400.635000	-11784.240000	7988.760000	11596.590000	-36929.205000	-43965.135000	6957.855000	11960.010000	-2.552483	-0.580087	1.583977	2.107327	2.488822	2.251567	2.054662	-3.786739	-1.617560	3.921820	-1.205540	0.841062	-0.256164	0.453917	-1.000000	-1.000000	-1.000000	-1.000000	-1.000000	-1.000000	-1.000000	84.000000	0.000000	-1.000000	-1.000000	585148.000000	1773865413.317156
-394.605000	-11792.430000	7963.920000	11587.455000	-36930.960000	-43968.240000	6956.235000	11966.175000	4.229180	2.641409	1.806545	1.971769	1.960681	1.873145	1.867499	-1.644247	-1.617560	3.921820	-1.205540	0.841062	-0.256164	0.453917	-1.000000	-1.000000	-1.000000	-1.000000	-1.000000	-1.000000	-1.000000	84.000000	0.000000	-1.000000	-1.000000	585149.000000	1773865413.321221
-401.715000	-11784.465000	7976.160000	11587.590000	-36931.050000	-43972.965000	6957.630000	11965.095000	7.499270	3.968964	0.471888	1.220494	1.661256	1.492547	1.219509	0.887492	-1.617560	3.921820	-1.205540	0.841062	-0.256164	0.453917	-1.000000	-1.000000	-1.000000	-1.000000	-1.000000	-1.000000	-1.000000	84.000000	0.000000	-1.000000	-1.000000	585150.000000	1773865413.321231
-426.915000	-11788.380000	7980.795000	11579.175000	-36937.440000	-43983.045000	6959.160000	11953.305000	6.213951	3.382118	-1.526900	0.258477	1.138554	0.626315	-0.001716	1.933625	-0.839300	4.532220	-1.266580	0.841001	-0.258300	0.455504	-1.000000	-1.000000	-1.000000	-1.000000	-1.000000	-1.000000	-1.000000	84.000000	0.000000	-1.000000	-1.000000	585151.000000	1773865413.325224
-420.615000	-11790.360000	7979.625000	11571.345000	-36940.275000	-43986.600000	6963.165000	11958.795000	1.570484	1.716784	-2.285228	-0.356726	-0.021092	-0.809807	-1.390223	0.935778	-0.839300	4.532220	-1.266580	0.841001	-0.258300	0.455504	-1.000000	-1.000000	-1.000000	-1.000000	-1.000000	-1.000000	-1.000000	84.000000	0.000000	-1.000000	-1.000000	585152.000000	1773865413.325234
-402.570000	-11785.365000	7986.510000	11577.510000	-36931.950000	-43976.790000	6967.395000	11971.395000	-2.663054	-0.030849	-1.261252	-0.562705	-1.499357	-2.114679	-2.245067	-0.473627	-0.839300	4.532220	-1.266580	0.841001	-0.258300	0.455504	-1.000000	-1.000000	-1.000000	-1.000000	-1.000000	-1.000000	-1.000000	84.000000	0.000000	-1.000000	-1.000000	585153.000000	1773865413.329170
-396.585000	-11779.470000	7987.815000	11588.760000	-36929.205000	-43970.670000	6964.920000	11972.340000	-2.979033	-0.837757	0.757660	-0.401489	-2.277111	-2.239337	-2.088777	-0.162127	-0.839300	4.532220	-1.266580	0.841001	-0.258300	0.455504	-1.000000	-1.000000	-1.000000	-1.000000	-1.000000	-1.000000	-1.000000	84.000000	0.000000	-1.000000	-1.000000	585154.000000	1773865413.329180
-411.030000	-11767.140000	8002.530000	11611.260000	-36911.295000	-43952.670000	6967.080000	11965.860000	-0.376043	-0.456180	2.486416	0.020801	-1.744587	-1.006866	-1.119950	1.673786	-0.839300	4.532220	-1.266580	0.841001	-0.258300	0.455504	-1.000000	-1.000000	-1.000000	-1.000000	-1.000000	-1.000000	-1.000000	84.000000	0.000000	-1.000000	-1.000000	585155.000000	1773865413.333098
-418.320000	-11764.215000	8012.655000	11625.480000	-36898.245000	-43939.530000	6969.555000	11949.255000	0.887531	0.426868	3.052839	0.629489	-0.108110	0.841372	0.059838	2.610015	-0.839300	4.532220	-1.266580	0.841001	-0.258300	0.455504	-1.000000	-1.000000	-1.000000	-1.000000	-1.000000	-1.000000	-1.000000	84.000000	0.000000	-1.000000	-1.000000	585156.000000	1773865413.333107
-409.995000	-11767.050000	8003.160000	11615.580000	-36910.800000	-43949.205000	6963.975000	11945.295000	-1.285764	0.868940	2.482962	1.134849	1.521137	2.111722	0.865168	0.737666	-0.839300	4.532220	-1.266580	0.841001	-0.258300	0.455504	-1.000000	-1.000000	-1.000000	-1.000000	-1.000000	-1.000000	-1.000000	84.000000	0.000000	-1.000000	-1.000000	585157.000000	1773865413.340585
-410.760000	-11778.750000	7986.735000	11590.245000	-36932.175000	-43969.095000	6959.835000	11951.820000	-4.636161	0.187116	0.933432	0.443916	1.229382	1.373185	0.807033	-3.098399	-0.839300	4.532220	-1.266580	0.841001	-0.258300	0.455504	-1.000000	-1.000000	-1.000000	-1.000000	-1.000000	-1.000000	-1.000000	84.000000	0.000000	-1.000000	-1.000000	585158.000000	1773865413.340595
-418.770000	-11791.305000	7974.450000	11569.320000	-36946.395000	-43984.575000	6960.645000	11966.130000	-5.579255	-1.856613	-1.868402	-2.318419	-1.838485	-1.707873	-0.155991	-5.638741	-0.839300	4.532220	-1.266580	0.841001	-0.258300	0.455504	-1.000000	-1.000000	-1.000000	-1.000000	-1.000000	-1.000000	-1.000000	84.000000	0.000000	-1.000000	-1.000000	585159.000000	1773865413.341144
-402.165000	-11777.355000	7983.135000	11568.735000	-36942.750000	-43984.260000	6965.280000	11977.560000	-2.476103	-4.373742	-5.435724	-5.937308	-5.765881	-5.246592	-1.314466	-4.037153	-0.839300	4.532220	-1.266580	0.841001	-0.258300	0.455504	-1.000000	-1.000000	-1.000000	-1.000000	-1.000000	-1.000000	-1.000000	84.000000	0.000000	-1.000000	-1.000000	585160.000000	1773865413.341153
-400.860000	-11772.585000	7987.140000	11568.195000	-36941.535000	-43984.305000	6968.250000	11974.140000	3.465802	-5.096199	-7.473282	-7.400876	-7.168394	-6.423400	-1.724300	1.125235	-1.724380	4.654300	-0.656180	0.842649	-0.258056	0.457701	-1.000000	-1.000000	-1.000000	-1.000000	-1.000000	-1.000000	-1.000000	84.000000	0.000000	-1.000000	-1.000000	585161.000000	1773865413.349009
-405.180000	-11774.970000	7990.290000	11581.605000	-36932.535000	-43973.190000	6966.585000	11969.685000	8.450857	-2.757819	-5.897834	-4.789555	-4.353164	-4.008235	-1.055291	5.889853	-1.724380	4.654300	-0.656180	0.842649	-0.258056	0.457701	-1.000000	-1.000000	-1.000000	-1.000000	-1.000000	-1.000000	-1.000000	84.000000	0.000000	-1.000000	-1.000000	585162.000000	1773865413.349020
-403.335000	-11774.295000	7994.790000	11599.245000	-36921.015000	-43959.105000	6966.045000	11970.360000	8.771938	0.991322	-1.319194	0.794691	1.338354	0.789718	0.230878	6.714592	-1.724380	4.654300	-0.656180	0.842649	-0.258056	0.457701	-1.000000	-1.000000	-1.000000	-1.000000	-1.000000	-1.000000	-1.000000	84.000000	0.000000	-1.000000	-1.000000	585163.000000	1773865413.349032
-405.900000	-11777.535000	7990.470000	11598.345000	-36923.040000	-43959.870000	6964.245000	11965.185000	4.369512	3.366759	3.390321	6.086951	6.630162	5.278624	1.341194	3.624769	-1.724380	4.654300	-0.656180	0.842649	-0.258056	0.457701	-1.000000	-1.000000	-1.000000	-1.000000	-1.000000	-1.000000	-1.000000	84.000000	0.000000	-1.000000	-1.000000	585164.000000	1773865413.349038
-401.895000	-11773.665000	7994.610000	11607.210000	-36915.255000	-43950.240000	6964.695000	11966.040000	-1.605557	3.194176	5.587872	8.095386	8.518951	6.983303	1.704108	-0.671120	-1.724380	4.654300	-0.656180	0.842649	-0.258056	0.457701	-1.000000	-1.000000	-1.000000	-1.000000	-1.000000	-1.000000	-1.000000	84.000000	0.000000	-1.000000	-1.000000	585165.000000	1773865413.353104
-403.695000	-11776.005000	7992.630000	11602.305000	-36919.170000	-43954.965000	6963.435000	11959.155000	-5.999312	1.615106	5.166643	6.563871	6.677324	5.632438	1.383140	-3.695089	-1.724380	4.654300	-0.656180	0.842649	-0.258056	0.457701	-1.000000	-1.000000	-1.000000	-1.000000	-1.000000	-1.000000	-1.000000	84.000000	0.000000	-1.000000	-1.000000	585166.000000	1773865413.353114
-399.555000	-11771.595000	7996.320000	11595.735000	-36919.395000	-43959.105000	6967.755000	11968.380000	-7.191319	0.615195	3.986732	3.706454	3.359893	3.069651	0.911490	-4.743667	-1.724380	4.654300	-0.656180	0.842649	-0.258056	0.457701	-1.000000	-1.000000	-1.000000	-1.000000	-1.000000	-1.000000	-1.000000	84.000000	0.000000	-1.000000	-1.000000	585167.000000	1773865413.357430
-405.495000	-11775.690000	7991.280000	11580.255000	-36930.735000	-43972.650000	6968.295000	11973.195000	-5.073282	1.009331	3.147072	1.335734	0.598563	0.878192	0.615429	-4.161888	-1.724380	4.654300	-0.656180	0.842649	-0.258056	0.457701	-1.000000	-1.000000	-1.000000	-1.000000	-1.000000	-1.000000	-1.000000	84.000000	0.000000	-1.000000	-1.000000	585168.000000	1773865413.357440
-424.350000	-11776.365000	7993.980000	11572.920000	-36937.125000	-43979.355000	6968.475000	11957.040000	-1.520195	1.717203	2.016566	-0.639713	-1.521663	-0.958072	0.271606	-2.693351	-1.724380	4.654300	-0.656180	0.842649	-0.258056	0.457701	-1.000000	-1.000000	-1.000000	-1.000000	-1.000000	-1.000000	-1.000000	84.000000	0.000000	-1.000000	-1.000000	585169.000000	1773865413.361239
-429.570000	-11778.525000	7993.395000	11574.675000	-36940.230000	-43982.730000	6962.355000	11945.475000	0.567857	1.198784	-0.168242	-2.879214	-3.719340	-3.032562	-0.509751	-1.497845	-1.724380	4.654300	-0.656180	0.842649	-0.258056	0.457701	-1.000000	-1.000000	-1.000000	-1.000000	-1.000000	-1.000000	-1.000000	84.000000	0.000000	-1.000000	-1.000000	585170.000000	1773865413.361249
-414.405000	-11778.615000	7992.180000	11590.245000	-36929.205000	-43969.680000	6961.455000	11959.020000	0.490579	-0.654642	-2.976788	-5.034948	-5.715041	-5.050602	-1.631020	-0.889467	-3.158820	4.623780	-0.427280	0.843137	-0.257140	0.458190	-1.000000	-1.000000	-1.000000	-1.000000	-1.000000	-1.000000	-1.000000	84.000000	0.000000	-1.000000	-1.000000	585171.000000	1773865413.365278
-404.100000	-11789.145000	7977.195000	11587.905000	-36930.285000	-43969.410000	6958.980000	11963.970000	0.430714	-2.761327	-5.412675	-6.105703	-6.334278	-5.886434	-2.405413	0.356137	-3.158820	4.623780	-0.427280	0.843137	-0.257140	0.458190	-1.000000	-1.000000	-1.000000	-1.000000	-1.000000	-1.000000	-1.000000	84.000000	0.000000	-1.000000	-1.000000	585172.000000	1773865413.365290
-416.070000	-11789.865000	7985.655000	11601.135000	-36919.620000	-43957.170000	6962.490000	11965.410000	1.974904	-4.115556	-6.608377	-5.412557	-4.829992	-4.691396	-2.157406	3.038335	-3.158820	4.623780	-0.427280	0.843137	-0.257140	0.458190	-1.000000	-1.000000	-1.000000	-1.000000	-1.000000	-1.000000	-1.000000	84.000000	0.000000	-1.000000	-1.000000	585173.000000	1773865413.369227
-423.315000	-11786.580000	7988.130000	11601.045000	-36921.780000	-43959.555000	6964.065000	11967.210000	3.735941	-3.979214	-5.544278	-2.785417	-1.489576	-1.587571	-0.745545	5.985156	-3.158820	4.623780	-0.427280	0.843137	-0.257140	0.458190	-1.000000	-1.000000	-1.000000	-1.000000	-1.000000	-1.000000	-1.000000	84.000000	0.000000	-1.000000	-1.000000	585174.000000	1773865413.369236
-408.285000	-11778.120000	7986.285000	11586.195000	-36932.040000	-43973.640000	6962.085000	11968.830000	3.758720	-1.844282	-1.833986	1.074062	2.400049	2.179567	1.244630	7.118051	-3.158820	4.623780	-0.427280	0.843137	-0.257140	0.458190	-1.000000	-1.000000	-1.000000	-1.000000	-1.000000	-1.000000	-1.000000	84.000000	0.000000	-1.000000	-1.000000	585175.000000	1773865413.373331
-402.930000	-11778.885000	7982.820000	11574.630000	-36938.745000	-43981.380000	6961.950000	11967.570000	2.463901	1.820576	3.000547	4.437163	5.061374	4.813911	2.655829	5.138445	-3.158820	4.623780	-0.427280	0.843137	-0.257140	0.458190	-1.000000	-1.000000	-1.000000	-1.000000	-1.000000	-1.000000	-1.000000	84.000000	0.000000	-1.000000	-1.000000	585176.000000	1773865413.373341
-414.630000	-11783.475000	7979.940000	11566.935000	-36944.100000	-43988.220000	6962.670000	11962.350000	1.299226	5.132597	6.356572	5.766721	5.435294	5.297155	2.614814	0.472675	-3.158820	4.623780	-0.427280	0.843137	-0.257140	0.458190	-1.000000	-1.000000	-1.000000	-1.000000	-1.000000	-1.000000	-1.000000	84.000000	0.000000	-1.000000	-1.000000	585177.000000	1773865413.377980
-422.415000	-11786.670000	7978.635000	11563.740000	-36945.945000	-43991.595000	6959.790000	11957.535000	0.446579	5.954754	6.548065	4.772590	3.818230	3.890403	1.275908	-4.551224	-3.158820	4.623780	-0.427280	0.843137	-0.257140	0.458190	-1.000000	-1.000000	-1.000000	-1.000000	-1.000000	-1.000000	-1.000000	84.000000	0.000000	-1.000000	-1.000000	585178.000000	1773865413.377990
-428.310000	-11791.215000	7982.775000	11580.660000	-36936.090000	-43978.590000	6959.880000	11956.905000	-0.786268	3.694959	3.890280	2.259010	1.351691	1.573796	-0.400954	-7.181226	-3.158820	4.623780	-0.427280	0.843137	-0.257140	0.458190	-1.000000	-1.000000	-1.000000	-1.000000	-1.000000	-1.000000	-1.000000	84.000000	0.000000	-1.000000	-1.000000	585179.000000	1773865413.381105
-429.390000	-11797.470000	7979.535000	11586.510000	-36935.415000	-43975.395000	6960.555000	11954.070000	-2.798873	-0.313578	0.308263	-0.455768	-0.834042	-0.587852	-1.388637	-6.555428	-3.158820	4.623780	-0.427280	0.843137	-0.257140	0.458190	-1.000000	-1.000000	-1.000000	-1.000000	-1.000000	-1.000000	-1.000000	84.000000	0.000000	-1.000000	-1.000000	585180.000000	1773865413.381116
-409.230000	-11790.810000	7976.070000	11584.575000	-36940.230000	-43979.760000	6956.280000	11958.885000	-4.671538	-3.740294	-2.241253	-2.356714	-2.294340	-2.097080	-1.341054	-3.820870	-2.029580	5.447820	-0.885080	0.840513	-0.257018	0.457213	-1.000000	-1.000000	-1.000000	-1.000000	-1.000000	-1.000000	-1.000000	84.000000	0.000000	-1.000000	-1.000000	585181.000000	1773865413.385151
-386.955000	-11776.455000	7986.960000	11597.625000	-36929.475000	-43968.240000	6957.720000	11969.955000	-3.967645	-4.468300	-2.972731	-3.104164	-3.026904	-2.942071	-0.750597	-0.273908	-2.029580	5.447820	-0.885080	0.840513	-0.257018	0.457213	-1.000000	-1.000000	-1.000000	-1.000000	-1.000000	-1.000000	-1.000000	84.000000	0.000000	-1.000000	-1.000000	585182.000000	1773865413.385159
-403.290000	-11773.125000	7997.670000	11601.630000	-36919.215000	-43960.095000	6966.090000	11970.270000	0.171171	-2.082402	-1.939904	-2.395129	-2.493007	-2.581490	-0.098787	3.196597	-2.029580	5.447820	-0.885080	0.840513	-0.257018	0.457213	-1.000000	-1.000000	-1.000000	-1.000000	-1.000000	-1.000000	-1.000000	84.000000	0.000000	-1.000000	-1.000000	585183.000000	1773865413.389048
-428.355000	-11780.415000	7993.935000	11589.705000	-36925.740000	-43969.680000	6969.690000	11956.635000	4.141892	1.396039	0.280385	-0.122012	-0.148942	-0.392951	0.683047	5.184905	-2.029580	5.447820	-0.885080	0.840513	-0.257018	0.457213	-1.000000	-1.000000	-1.000000	-1.000000	-1.000000	-1.000000	-1.000000	84.000000	0.000000	-1.000000	-1.000000	585184.000000	1773865413.389056
-440.775000	-11783.790000	7988.850000	11577.060000	-36935.235000	-43980.570000	6969.375000	11950.830000	3.489798	3.147604	2.224855	2.479958	2.831566	2.526365	1.499727	4.240288	-2.029580	5.447820	-0.885080	0.840513	-0.257018	0.457213	-1.000000	-1.000000	-1.000000	-1.000000	-1.000000	-1.000000	-1.000000	84.000000	0.000000	-1.000000	-1.000000	585185.000000	1773865413.393043
-428.940000	-11785.455000	7981.560000	11565.360000	-36945.945000	-43992.990000	6963.795000	11951.775000	-1.116711	2.146395	2.276944	3.357597	4.059237	3.795854	1.659875	0.926377	-2.029580	5.447820	-0.885080	0.840513	-0.257018	0.457213	-1.000000	-1.000000	-1.000000	-1.000000	-1.000000	-1.000000	-1.000000	84.000000	0.000000	-1.000000	-1.000000	585186.000000	1773865413.393050
-400.230000	-11783.745000	7981.470000	11574.810000	-36941.400000	-43986.420000	6960.690000	11967.120000	-4.267011	-0.325986	0.133305	1.635742	2.347149	2.206496	0.661364	-1.920912	-2.029580	5.447820	-0.885080	0.840513	-0.257018	0.457213	-1.000000	-1.000000	-1.000000	-1.000000	-1.000000	-1.000000	-1.000000	84.000000	0.000000	-1.000000	-1.000000	585187.000000	1773865413.401185
-403.920000	-11784.555000	7983.495000	11589.795000	-36932.130000	-43974.315000	6960.420000	11965.950000	-2.134846	-2.237727	-2.804190	-1.508870	-1.145257	-1.115841	-1.061297	-1.980693	-2.029580	5.447820	-0.885080	0.840513	-0.257018	0.457213	-1.000000	-1.000000	-1.000000	-1.000000	-1.000000	-1.000000	-1.000000	84.000000	0.000000	-1.000000	-1.000000	585188.000000	1773865413.401192
-410.265000	-11777.040000	7993.485000	11600.910000	-36921.555000	-43963.560000	6963.705000	11965.365000	3.092793	-2.327109	-4.279636	-3.738908	-3.840353	-3.667040	-2.375594	0.157179	-2.029580	5.447820	-0.885080	0.840513	-0.257018	0.457213	-1.000000	-1.000000	-1.000000	-1.000000	-1.000000	-1.000000	-1.000000	84.000000	0.000000	-1.000000	-1.000000	585189.000000	1773865413.401601
-419.175000	-11782.980000	7988.400000	11600.235000	-36926.370000	-43965.495000	6960.555000	11960.955000	5.816837	-0.908865	-3.042580	-3.524429	-3.943564	-3.712879	-2.382293	1.932965	-2.029580	5.447820	-0.885080	0.840513	-0.257018	0.457213	-1.000000	-1.000000	-1.000000	-1.000000	-1.000000	-1.000000	-1.000000	84.000000	0.000000	-1.000000	-1.000000	585190.000000	1773865413.401607
-436.950000	-11800.980000	7972.065000	11582.325000	-36942.975000	-43981.830000	6954.075000	11949.570000	2.871391	0.088813	-0.537663	-1.797403	-2.322559	-2.071255	-1.339691	1.299882	1.403920	6.546540	-1.220800	0.836851	-0.254760	0.453734	-1.000000	-1.000000	-1.000000	-1.000000	-1.000000	-1.000000	-1.000000	84.000000	0.000000	-1.000000	-1.000000	585191.000000	1773865413.407493
-424.845000	-11797.470000	7973.280000	11572.155000	-36945.585000	-43987.815000	6954.660000	11953.800000	-3.434827	-0.865916	0.608289	-0.736389	-1.233433	-0.934044	-0.387369	-1.540016	1.403920	6.546540	-1.220800	0.836851	-0.254760	0.453734	-1.000000	-1.000000	-1.000000	-1.000000	-1.000000	-1.000000	-1.000000	84.000000	0.000000	-1.000000	-1.000000	585192.000000	1773865413.407504
-398.295000	-11773.620000	7985.835000	11572.515000	-36941.040000	-43986.915000	6961.410000	11964.555000	-6.951810	-2.289201	0.179239	-0.685825	-1.035993	-0.754393	-0.041697	-3.913581	1.403920	6.546540	-1.220800	0.836851	-0.254760	0.453734	-1.000000	-1.000000	-1.000000	-1.000000	-1.000000	-1.000000	-1.000000	84.000000	0.000000	-1.000000	-1.000000	585193.000000	1773865413.409051
-402.705000	-11776.995000	7981.650000	11563.380000	-36946.980000	-43995.060000	6963.390000	11960.955000	-3.649228	-1.263191	0.269409	-0.076460	-0.140075	-0.095981	0.325623	-3.208652	1.403920	6.546540	-1.220800	0.836851	-0.254760	0.453734	-1.000000	-1.000000	-1.000000	-1.000000	-1.000000	-1.000000	-1.000000	84.000000	0.000000	-1.000000	-1.000000	585194.000000	1773865413.409062
-416.565000	-11789.595000	7975.260000	11563.920000	-36948.150000	-43995.195000	6957.945000	11942.775000	3.402538	2.117787	1.744504	1.764726	2.055163	1.701781	1.249683	-0.132624	1.403920	6.546540	-1.220800	0.836851	-0.254760	0.453734	-1.000000	-1.000000	-1.000000	-1.000000	-1.000000	-1.000000	-1.000000	84.000000	0.000000	-1.000000	-1.000000	585195.000000	1773865413.413274
-417.375000	-11787.615000	7981.020000	11582.010000	-36936.810000	-43980.345000	6957.135000	11940.660000	7.198228	4.720614	3.281537	3.667042	4.223625	3.594819	2.258645	2.010186	1.403920	6.546540	-1.220800	0.836851	-0.254760	0.453734	-1.000000	-1.000000	-1.000000	-1.000000	-1.000000	-1.000000	-1.000000	84.000000	0.000000	-1.000000	-1.000000	585196.000000	1773865413.413284
-416.745000	-11783.745000	7986.105000	11591.055000	-36929.610000	-43972.200000	6958.980000	11948.805000	4.648180	4.489697	3.553275	4.235541	4.820291	4.245592	2.510857	1.553761	1.403920	6.546540	-1.220800	0.836851	-0.254760	0.453734	-1.000000	-1.000000	-1.000000	-1.000000	-1.000000	-1.000000	-1.000000	84.000000	0.000000	-1.000000	-1.000000	585197.000000	1773865413.417159
-419.535000	-11787.705000	7985.430000	11597.310000	-36926.550000	-43966.620000	6961.725000	11967.345000	-1.278451	1.966907	2.403591	3.134197	3.464452	3.238599	1.782806	0.295312	1.403920	6.546540	-1.220800	0.836851	-0.254760	0.453734	-1.000000	-1.000000	-1.000000	-1.000000	-1.000000	-1.000000	-1.000000	84.000000	0.000000	-1.000000	-1.000000	585198.000000	1773865413.417179
-422.955000	-11792.970000	7979.535000	11591.865000	-36932.355000	-43971.840000	6959.070000	11965.230000	-5.879461	-1.225864	0.387227	1.000900	0.916685	1.132802	0.558234	0.639349	1.403920	6.546540	-1.220800	0.836851	-0.254760	0.453734	-1.000000	-1.000000	-1.000000	-1.000000	-1.000000	-1.000000	-1.000000	84.000000	0.000000	-1.000000	-1.000000	585199.000000	1773865413.421137
-420.435000	-11788.290000	7980.435000	11581.065000	-36937.665000	-43980.120000	6959.655000	11962.485000	-6.417101	-3.370181	-1.578969	-1.161080	-1.606035	-1.100295	-0.568772	2.493864	1.403920	6.546540	-1.220800	0.836851	-0.254760	0.453734	-1.000000	-1.000000	-1.000000	-1.000000	-1.000000	-1.000000	-1.000000	84.000000	0.000000	-1.000000	-1.000000	585200.000000	1773865413.421146
-415.170000	-11788.290000	7982.010000	11574.180000	-36937.890000	-43983.405000	6963.885000	11967.345000	-3.152587	-3.493618	-2.655240	-2.560540	-3.155052	-2.650474	-1.298983	3.776365	3.174080	10.102120	-1.266580	0.836363	-0.253173	0.452147	-1.000000	-1.000000	-1.000000	-1.000000	-1.000000	-1.000000	-1.000000	84.000000	0.000000	-1.000000	-1.000000	585201.000000	1773865413.425097
-405.810000	-11792.925000	7974.045000	11559.600000	-36949.005000	-43996.950000	6960.870000	11969.235000	1.378542	-2.343998	-2.801543	-3.030244	-3.503984	-3.233770	-1.657872	2.969134	3.174080	10.102120	-1.266580	0.836363	-0.253173	0.452147	-1.000000	-1.000000	-1.000000	-1.000000	-1.000000	-1.000000	-1.000000	84.000000	0.000000	-1.000000	-1.000000	585202.000000	1773865413.425104
-394.020000	-11776.320000	7986.555000	11569.770000	-36939.690000	-43987.905000	6965.820000	11973.330000	4.844100	-0.991293	-2.280964	-2.666122	-2.828105	-2.854321	-1.705542	0.550789	3.174080	10.102120	-1.266580	0.836363	-0.253173	0.452147	-1.000000	-1.000000	-1.000000	-1.000000	-1.000000	-1.000000	-1.000000	84.000000	0.000000	-1.000000	-1.000000	585203.000000	1773865413.431648
-419.445000	-11774.790000	7991.010000	11586.645000	-36931.050000	-43975.710000	6965.595000	11960.505000	6.090070	0.843375	-0.805920	-1.276316	-1.178144	-1.402368	-1.192839	-1.868824	3.174080	10.102120	-1.266580	0.836363	-0.253173	0.452147	-1.000000	-1.000000	-1.000000	-1.000000	-1.000000	-1.000000	-1.000000	84.000000	0.000000	-1.000000	-1.000000	585204.000000	1773865413.431658
-414.045000	-11770.650000	7996.500000	11599.560000	-36921.915000	-43964.505000	6966.855000	11959.020000	4.317959	3.179451	1.442846	0.858148	0.967576	0.720186	-0.055594	-3.454513	3.174080	10.102120	-1.266580	0.836363	-0.253173	0.452147	-1.000000	-1.000000	-1.000000	-1.000000	-1.000000	-1.000000	-1.000000	84.000000	0.000000	-1.000000	-1.000000	585205.000000	1773865413.433114
-419.535000	-11775.285000	7994.205000	11602.260000	-36920.205000	-43962.480000	6962.085000	11946.195000	0.133627	4.484583	3.058501	2.467599	2.416269	2.273437	0.988520	-4.579029	3.174080	10.102120	-1.266580	0.836363	-0.253173	0.452147	-1.000000	-1.000000	-1.000000	-1.000000	-1.000000	-1.000000	-1.000000	84.000000	0.000000	-1.000000	-1.000000	585206.000000	1773865413.433122
-406.665000	-11772.900000	7994.025000	11605.185000	-36918.630000	-43958.745000	6961.545000	11959.605000	-3.819667	3.474477	2.830200	2.484264	2.368604	2.331227	1.082355	-5.455128	3.174080	10.102120	-1.266580	0.836363	-0.253173	0.452147	-1.000000	-1.000000	-1.000000	-1.000000	-1.000000	-1.000000	-1.000000	84.000000	0.000000	-1.000000	-1.000000	585207.000000	1773865413.437013
-411.795000	-11784.915000	7981.785000	11586.960000	-36931.950000	-43971.435000	6960.285000	11967.030000	-4.963600	0.591978	0.917941	1.006084	1.087622	1.116284	0.250799	-4.888313	3.174080	10.102120	-1.266580	0.836363	-0.253173	0.452147	-1.000000	-1.000000	-1.000000	-1.000000	-1.000000	-1.000000	-1.000000	84.000000	0.000000	-1.000000	-1.000000	585208.000000	1773865413.437020
-427.590000	-11789.595000	7979.805000	11575.845000	-36935.955000	-43977.870000	6961.725000	11962.755000	-3.298433	-2.849941	-1.681830	-1.119843	-0.686974	-0.537805	-0.725361	-1.714471	3.174080	10.102120	-1.266580	0.836363	-0.253173	0.452147	-1.000000	-1.000000	-1.000000	-1.000000	-1.000000	-1.000000	-1.000000	84.000000	0.000000	-1.000000	-1.000000	585209.000000	1773865413.443830
-432.225000	-11785.950000	7984.620000	11572.245000	-36935.325000	-43979.895000	6962.850000	11957.580000	-1.364427	-5.518302	-3.709368	-2.794739	-2.122810	-1.789556	-1.190065	2.682936	3.174080	10.102120	-1.266580	0.836363	-0.253173	0.452147	-1.000000	-1.000000	-1.000000	-1.000000	-1.000000	-1.000000	-1.000000	84.000000	0.000000	-1.000000	-1.000000	585210.000000	1773865413.443849
-412.335000	-11781.360000	7987.230000	11566.035000	-36941.715000	-43986.060000	6965.730000	11962.080000	-0.846580	-6.051276	-3.874594	-2.995264	-2.410587	-1.976319	-0.921367	5.534957	4.593260	13.718740	0.778260	0.838743	-0.253173	0.452575	-1.000000	-1.000000	-1.000000	-1.000000	-1.000000	-1.000000	-1.000000	84.000000	0.000000	-1.000000	-1.000000	585211.000000	1773865413.445099
-397.755000	-11772.675000	8002.800000	11584.170000	-36930.330000	-43970.040000	6970.275000	11970.405000	-0.384960	-3.843104	-1.768182	-1.570323	-1.436889	-1.058348	0.015231	5.865784	4.593260	13.718740	0.778260	0.838743	-0.253173	0.452575	-1.000000	-1.000000	-1.000000	-1.000000	-1.000000	-1.000000	-1.000000	84.000000	0.000000	-1.000000	-1.000000	585212.000000	1773865413.445111
-411.930000	-11782.440000	7997.490000	11589.660000	-36929.070000	-43964.055000	6964.605000	11967.795000	1.791440	0.013362	1.458316	0.480052	0.020823	0.268776	1.162788	4.741171	4.593260	13.718740	0.778260	0.838743	-0.253173	0.452575	-1.000000	-1.000000	-1.000000	-1.000000	-1.000000	-1.000000	-1.000000	84.000000	0.000000	-1.000000	-1.000000	585213.000000	1773865413.449319
-418.500000	-11785.050000	7978.365000	11583.765000	-36930.105000	-43966.125000	6965.010000	11963.700000	4.519131	3.238022	3.430818	1.637680	0.909667	0.997609	1.730306	3.107098	4.593260	13.718740	0.778260	0.838743	-0.253173	0.452575	-1.000000	-1.000000	-1.000000	-1.000000	-1.000000	-1.000000	-1.000000	84.000000	0.000000	-1.000000	-1.000000	585214.000000	1773865413.449330
-408.195000	-11780.370000	7981.155000	11594.160000	-36923.940000	-43959.465000	6964.695000	11965.770000	5.195427	4.303400	2.425427	1.160078	0.791929	0.595427	1.336907	0.979926	4.593260	13.718740	0.778260	0.838743	-0.253173	0.452575	-1.000000	-1.000000	-1.000000	-1.000000	-1.000000	-1.000000	-1.000000	84.000000	0.000000	-1.000000	-1.000000	585215.000000	1773865413.453964
-395.730000	-11772.225000	7986.105000	11595.060000	-36921.915000	-43959.645000	6967.305000	11974.680000	3.391534	3.738050	-0.369216	0.125526	0.420310	-0.256665	0.434921	-1.533174	4.593260	13.718740	0.778260	0.838743	-0.253173	0.452575	-1.000000	-1.000000	-1.000000	-1.000000	-1.000000	-1.000000	-1.000000	84.000000	0.000000	-1.000000	-1.000000	585216.000000	1773865413.453975
