Channel1	Channel2	Channel3	Channel4	Channel5	Channel6	Channel7	Channel8	FilteredChannel1	FilteredChannel2	FilteredChannel3	FilteredChannel4	FilteredChannel5	FilteredChannel6	FilteredChannel7	FilteredChannel8	GyroX	GyroY	GyroZ	AccX	AccY	AccZ	PPG1	PPG2	rawPPG1	rawPPG2	rawPPG3	Hr	Hrv	Battery	Trigger	PhysicalTrigger	AutoTrigger	NumMeasurements	Timestamp
-15507.180000	-19111.815000	-10923.165000	-3782.520000	-15534.090000	-10721.970000	-13656.105000	7123.770000	27.044517	24.524016	21.375695	23.431226	21.779455	18.198496	6.219484	0.106437	-3.967600	1.358140	-8.743980	0.951597	-0.101135	0.280639	-1.000000	-1.000000	-1.000000	-1.000000	-1.000000	-1.000000	-1.000000	58.758621	0.000000	-1.000000	-1.000000	1209020.000000	1772739815.963526
-15535.395000	-19125.540000	-10891.170000	-3789.000000	-15541.560000	-10724.940000	-13604.760000	7146.585000	25.132464	24.516976	20.432862	26.912700	27.012169	23.621255	4.859691	-7.501901	-3.769220	6.058220	-4.898460	0.966123	-0.110412	0.278075	-1.000000	-1.000000	-1.000000	-1.000000	-1.000000	-1.000000	-1.000000	58.758621	0.000000	-1.000000	-1.000000	1209021.000000	1772739815.966232
-15593.130000	-19177.110000	-10934.820000	-3883.950000	-15625.125000	-10793.565000	-13639.140000	7132.185000	14.599771	16.463949	16.141246	22.546127	24.565298	22.567400	4.216066	-8.638935	-3.769220	6.058220	-4.898460	0.966123	-0.110412	0.278075	-1.000000	-1.000000	-1.000000	-1.000000	-1.000000	-1.000000	-1.000000	58.758621	0.000000	-1.000000	-1.000000	1209022.000000	1772739815.966237
-15579.360000	-19148.670000	-10908.450000	-3869.640000	-15613.920000	-10785.015000	-13671.765000	7087.500000	-3.079734	1.615706	9.076226	8.040044	11.205770	11.398294	2.887634	-5.336702	-3.769220	6.058220	-4.898460	0.966123	-0.110412	0.278075	-1.000000	-1.000000	-1.000000	-1.000000	-1.000000	-1.000000	-1.000000	58.758621	0.000000	-1.000000	-1.000000	1209023.000000	1772739815.972948
-15556.770000	-19135.980000	-10878.615000	-3800.970000	-15571.305000	-10738.260000	-13656.240000	7086.960000	-21.711374	-16.887205	-3.160157	-14.146812	-11.344671	-8.965808	-2.473291	-2.719299	-3.769220	6.058220	-4.898460	0.966123	-0.110412	0.278075	-1.000000	-1.000000	-1.000000	-1.000000	-1.000000	-1.000000	-1.000000	58.758621	0.000000	-1.000000	-1.000000	1209024.000000	1772739815.972958
-15583.320000	-19191.915000	-10938.195000	-3800.475000	-15567.795000	-10731.015000	-13650.390000	7088.670000	-31.657591	-30.264020	-16.403945	-30.399537	-30.216383	-26.922787	-9.150286	-1.334606	-3.769220	6.058220	-4.898460	0.966123	-0.110412	0.278075	-1.000000	-1.000000	-1.000000	-1.000000	-1.000000	-1.000000	-1.000000	58.758621	0.000000	-1.000000	-1.000000	1209025.000000	1772739815.974214
-15588.405000	-19184.580000	-10910.745000	-3798.450000	-15563.160000	-10729.395000	-13639.365000	7089.075000	-27.961843	-30.711465	-22.897514	-28.376983	-31.849789	-29.414718	-10.173743	0.592720	-3.769220	6.058220	-4.898460	0.966123	-0.110412	0.278075	-1.000000	-1.000000	-1.000000	-1.000000	-1.000000	-1.000000	-1.000000	58.758621	0.000000	-1.000000	-1.000000	1209026.000000	1772739815.974222
-15598.170000	-19178.955000	-10925.190000	-3824.100000	-15566.805000	-10731.690000	-13646.295000	7059.060000	-14.132599	-17.534962	-18.281557	-10.066416	-15.013991	-14.386316	-3.318173	0.861881	-3.769220	6.058220	-4.898460	0.966123	-0.110412	0.278075	-1.000000	-1.000000	-1.000000	-1.000000	-1.000000	-1.000000	-1.000000	58.758621	0.000000	-1.000000	-1.000000	1209027.000000	1772739815.979675
-15585.480000	-19164.240000	-10920.330000	-3841.965000	-15585.435000	-10757.655000	-13643.955000	7113.870000	1.197059	1.955489	-5.669942	9.986221	7.619063	6.911754	6.128485	-1.788226	-3.769220	6.058220	-4.898460	0.966123	-0.110412	0.278075	-1.000000	-1.000000	-1.000000	-1.000000	-1.000000	-1.000000	-1.000000	58.758621	0.000000	-1.000000	-1.000000	1209028.000000	1772739815.979683
-15558.480000	-19137.420000	-10904.580000	-3839.985000	-15590.340000	-10768.230000	-13635.855000	7101.315000	11.537994	17.602156	6.542076	17.987432	20.452216	19.610071	11.031109	-2.728214	-3.769220	6.058220	-4.898460	0.966123	-0.110412	0.278075	-1.000000	-1.000000	-1.000000	-1.000000	-1.000000	-1.000000	-1.000000	58.758621	0.000000	-1.000000	-1.000000	1209029.000000	1772739815.992940
-15522.795000	-19109.115000	-10871.280000	-3789.585000	-15553.620000	-10737.765000	-13633.695000	7059.780000	17.863512	25.263462	13.266399	13.985779	19.478065	18.892213	8.472120	0.535980	-3.769220	6.058220	-4.898460	0.966123	-0.110412	0.278075	-1.000000	-1.000000	-1.000000	-1.000000	-1.000000	-1.000000	-1.000000	58.758621	0.000000	-1.000000	-1.000000	1209030.000000	1772739815.992951
-15554.880000	-19159.560000	-10896.390000	-3784.230000	-15555.645000	-10733.220000	-13640.445000	7069.635000	22.838662	25.526766	14.522475	8.515571	12.564333	11.429684	1.263491	4.369391	-2.456860	9.949520	-5.890360	0.966428	-0.096618	0.292968	-1.000000	-1.000000	-1.000000	-1.000000	-1.000000	-1.000000	-1.000000	58.758621	0.000000	-1.000000	-1.000000	1209031.000000	1772739815.992962
-15631.380000	-19214.730000	-10934.685000	-3803.085000	-15562.755000	-10730.925000	-13655.970000	7089.705000	21.860315	16.101010	9.395436	6.156185	5.683167	3.640984	-5.324576	6.671946	-2.456860	9.949520	-5.890360	0.966428	-0.096618	0.292968	-1.000000	-1.000000	-1.000000	-1.000000	-1.000000	-1.000000	-1.000000	58.758621	0.000000	-1.000000	-1.000000	1209032.000000	1772739815.992967
-15598.665000	-19164.465000	-10878.030000	-3754.395000	-15513.615000	-10681.920000	-13649.850000	7124.400000	9.143664	-2.499384	-1.681149	2.213243	-1.543836	-3.443710	-8.308478	9.212215	-2.456860	9.949520	-5.890360	0.966428	-0.096618	0.292968	-1.000000	-1.000000	-1.000000	-1.000000	-1.000000	-1.000000	-1.000000	58.758621	0.000000	-1.000000	-1.000000	1209033.000000	1772739815.992971
-15495.525000	-19072.845000	-10806.750000	-3698.145000	-15460.740000	-10636.695000	-13618.305000	7202.835000	-8.157250	-17.483146	-9.669602	-3.949035	-7.190357	-7.822524	-7.049294	13.001690	-2.456860	9.949520	-5.890360	0.966428	-0.096618	0.292968	-1.000000	-1.000000	-1.000000	-1.000000	-1.000000	-1.000000	-1.000000	58.758621	0.000000	-1.000000	-1.000000	1209034.000000	1772739815.992975
-15480.405000	-19068.705000	-10818.765000	-3719.520000	-15483.465000	-10657.080000	-13596.165000	7148.070000	-14.844820	-15.283631	-5.540228	-6.442037	-6.930406	-6.237739	-1.491598	15.125037	-2.456860	9.949520	-5.890360	0.966428	-0.096618	0.292968	-1.000000	-1.000000	-1.000000	-1.000000	-1.000000	-1.000000	-1.000000	58.758621	0.000000	-1.000000	-1.000000	1209035.000000	1772739815.995914
-15499.890000	-19124.415000	-10894.590000	-3804.750000	-15572.745000	-10746.585000	-13649.670000	6988.815000	-7.567239	-0.380988	5.386708	-4.838268	-3.489031	-1.927764	5.518014	7.738282	-2.456860	9.949520	-5.890360	0.966428	-0.096618	0.292968	-1.000000	-1.000000	-1.000000	-1.000000	-1.000000	-1.000000	-1.000000	58.758621	0.000000	-1.000000	-1.000000	1209036.000000	1772739815.995922
-15614.190000	-19213.740000	-10965.105000	-3871.665000	-15633.900000	-10802.925000	-13658.130000	6953.130000	0.649420	8.462142	8.316696	-6.369275	-5.396488	-3.081680	7.888761	-14.488657	-2.456860	9.949520	-5.890360	0.966428	-0.096618	0.292968	-1.000000	-1.000000	-1.000000	-1.000000	-1.000000	-1.000000	-1.000000	58.758621	0.000000	-1.000000	-1.000000	1209037.000000	1772739815.999349
-15614.280000	-19214.595000	-10945.395000	-3846.870000	-15609.555000	-10778.130000	-13647.690000	7090.245000	-3.290961	-0.240091	-3.168446	-14.002370	-14.222300	-11.058790	2.813735	-39.669963	-2.456860	9.949520	-5.890360	0.966428	-0.096618	0.292968	-1.000000	-1.000000	-1.000000	-1.000000	-1.000000	-1.000000	-1.000000	58.758621	0.000000	-1.000000	-1.000000	1209038.000000	1772739815.999358
-15562.485000	-19204.155000	-10945.710000	-3845.475000	-15600.780000	-10764.405000	-13641.165000	7201.440000	-16.103673	-18.257715	-19.526511	-20.450739	-20.673923	-17.179932	-5.156033	-42.241239	-2.456860	9.949520	-5.890360	0.966428	-0.096618	0.292968	-1.000000	-1.000000	-1.000000	-1.000000	-1.000000	-1.000000	-1.000000	58.758621	0.000000	-1.000000	-1.000000	1209039.000000	1772739816.002431
-15593.355000	-19201.770000	-10948.950000	-3850.155000	-15608.925000	-10769.580000	-13664.835000	7149.105000	-22.222832	-27.279530	-25.912499	-17.268166	-15.979724	-13.521125	-9.224606	-12.573299	-2.456860	9.949520	-5.890360	0.966428	-0.096618	0.292968	-1.000000	-1.000000	-1.000000	-1.000000	-1.000000	-1.000000	-1.000000	58.758621	0.000000	-1.000000	-1.000000	1209040.000000	1772739816.002439
-15564.915000	-19153.080000	-10904.175000	-3806.415000	-15568.515000	-10729.710000	-13662.045000	7131.510000	-12.480076	-16.907386	-15.882846	-3.925021	-1.176160	-1.241216	-7.038630	27.505740	-22.645840	10.956680	-0.427280	0.956479	-0.073608	0.299010	-1.000000	-1.000000	-1.000000	-1.000000	-1.000000	-1.000000	-1.000000	58.758621	0.000000	-1.000000	-1.000000	1209041.000000	1772739816.006366
-15538.950000	-19151.145000	-10916.505000	-3817.620000	-15572.295000	-10733.355000	-13665.330000	7124.220000	7.477969	7.140402	4.716096	12.714164	15.295526	12.155751	-1.222879	47.249588	-22.645840	10.956680	-0.427280	0.956479	-0.073608	0.299010	-1.000000	-1.000000	-1.000000	-1.000000	-1.000000	-1.000000	-1.000000	58.758621	0.000000	-1.000000	-1.000000	1209042.000000	1772739816.006374
-15536.790000	-19112.490000	-10876.905000	-3775.680000	-15536.115000	-10705.410000	-13656.330000	7048.845000	23.713886	28.602190	22.936636	23.968410	24.824147	19.600685	3.945725	34.013401	-22.645840	10.956680	-0.427280	0.956479	-0.073608	0.299010	-1.000000	-1.000000	-1.000000	-1.000000	-1.000000	-1.000000	-1.000000	58.758621	0.000000	-1.000000	-1.000000	1209043.000000	1772739816.018244
-15511.590000	-19089.495000	-10848.870000	-3746.970000	-15507.405000	-10681.560000	-13629.060000	7035.255000	26.195326	35.318634	30.321007	26.932055	25.526895	20.120873	6.370656	-0.462910	-22.645840	10.956680	-0.427280	0.956479	-0.073608	0.299010	-1.000000	-1.000000	-1.000000	-1.000000	-1.000000	-1.000000	-1.000000	58.758621	0.000000	-1.000000	-1.000000	1209044.000000	1772739816.018251
-15535.080000	-19153.710000	-10905.390000	-3806.685000	-15563.340000	-10734.390000	-13606.965000	7204.275000	16.669918	27.119038	27.722663	24.683994	21.484532	17.649630	7.969157	-27.373281	-22.645840	10.956680	-0.427280	0.956479	-0.073608	0.299010	-1.000000	-1.000000	-1.000000	-1.000000	-1.000000	-1.000000	-1.000000	58.758621	0.000000	-1.000000	-1.000000	1209045.000000	1772739816.018260
-15547.545000	-19141.830000	-10889.190000	-3804.345000	-15565.095000	-10743.030000	-13600.080000	7186.905000	4.230971	10.602832	18.400881	18.428043	14.708107	13.522224	10.471442	-24.358855	-22.645840	10.956680	-0.427280	0.956479	-0.073608	0.299010	-1.000000	-1.000000	-1.000000	-1.000000	-1.000000	-1.000000	-1.000000	58.758621	0.000000	-1.000000	-1.000000	1209046.000000	1772739816.018264
-15528.240000	-19139.265000	-10905.255000	-3823.515000	-15586.380000	-10762.110000	-13640.355000	7120.980000	-4.547987	-6.577879	4.345737	6.481050	3.607657	5.072484	10.659569	-1.307237	-22.645840	10.956680	-0.427280	0.956479	-0.073608	0.299010	-1.000000	-1.000000	-1.000000	-1.000000	-1.000000	-1.000000	-1.000000	58.758621	0.000000	-1.000000	-1.000000	1209047.000000	1772739816.018268
-15574.500000	-19200.555000	-10971.000000	-3885.480000	-15642.765000	-10805.850000	-13685.670000	7097.310000	-9.475641	-19.190908	-12.142625	-10.754663	-11.984983	-8.760940	3.791361	12.208713	-22.645840	10.956680	-0.427280	0.956479	-0.073608	0.299010	-1.000000	-1.000000	-1.000000	-1.000000	-1.000000	-1.000000	-1.000000	58.758621	0.000000	-1.000000	-1.000000	1209048.000000	1772739816.018272
-15538.230000	-19144.305000	-10896.120000	-3803.130000	-15562.395000	-10727.730000	-13655.340000	7129.530000	-12.159302	-25.304059	-26.365185	-27.525386	-26.875803	-22.948865	-8.560994	4.612616	-22.645840	10.956680	-0.427280	0.956479	-0.073608	0.299010	-1.000000	-1.000000	-1.000000	-1.000000	-1.000000	-1.000000	-1.000000	58.758621	0.000000	-1.000000	-1.000000	1209049.000000	1772739816.022580
-15508.620000	-19122.165000	-10860.345000	-3754.755000	-15508.125000	-10673.145000	-13619.790000	7118.505000	-11.518870	-23.342000	-30.594431	-33.650048	-31.371147	-27.791834	-17.445871	-10.485805	-22.645840	10.956680	-0.427280	0.956479	-0.073608	0.299010	-1.000000	-1.000000	-1.000000	-1.000000	-1.000000	-1.000000	-1.000000	58.758621	0.000000	-1.000000	-1.000000	1209050.000000	1772739816.022588
-15573.600000	-19168.110000	-10917.270000	-3789.000000	-15532.830000	-10693.080000	-13619.160000	7061.625000	-8.037487	-14.405158	-21.874455	-24.212423	-20.956847	-18.572304	-15.652651	-18.040177	-29.406020	17.121720	3.616620	0.954099	-0.074707	0.296935	-1.000000	-1.000000	-1.000000	-1.000000	-1.000000	-1.000000	-1.000000	58.758621	0.000000	-1.000000	-1.000000	1209051.000000	1772739816.032651
-15639.975000	-19208.520000	-10993.095000	-3837.870000	-15579.090000	-10739.970000	-13653.855000	7024.995000	-7.079326	-5.400712	-8.804101	-7.315301	-3.807890	-2.690653	-5.967412	-14.703660	-29.406020	17.121720	3.616620	0.954099	-0.074707	0.296935	-1.000000	-1.000000	-1.000000	-1.000000	-1.000000	-1.000000	-1.000000	58.758621	0.000000	-1.000000	-1.000000	1209052.000000	1772739816.032659
-15585.165000	-19203.570000	-10968.570000	-3838.590000	-15586.515000	-10751.580000	-13618.665000	7139.745000	-10.497476	-1.367679	-1.138635	5.195658	8.066467	8.341113	3.071498	-2.880131	-29.406020	17.121720	3.616620	0.954099	-0.074707	0.296935	-1.000000	-1.000000	-1.000000	-1.000000	-1.000000	-1.000000	-1.000000	58.758621	0.000000	-1.000000	-1.000000	1209053.000000	1772739816.034263
-15502.005000	-19150.605000	-10869.885000	-3799.215000	-15562.395000	-10734.975000	-13602.195000	7176.825000	-9.363568	2.197450	4.086254	11.382006	12.168179	11.622663	7.172075	13.142671	-29.406020	17.121720	3.616620	0.954099	-0.074707	0.296935	-1.000000	-1.000000	-1.000000	-1.000000	-1.000000	-1.000000	-1.000000	58.758621	0.000000	-1.000000	-1.000000	1209054.000000	1772739816.034272
-15505.155000	-19122.750000	-10867.770000	-3813.750000	-15579.495000	-10750.860000	-13643.820000	7109.100000	4.808029	11.869881	14.979709	15.874495	13.258354	11.522882	7.091946	24.857434	-29.406020	17.121720	3.616620	0.954099	-0.074707	0.296935	-1.000000	-1.000000	-1.000000	-1.000000	-1.000000	-1.000000	-1.000000	58.758621	0.000000	-1.000000	-1.000000	1209055.000000	1772739816.034281
-15577.830000	-19156.050000	-10908.315000	-3822.570000	-15580.980000	-10747.890000	-13656.420000	7094.835000	24.124193	24.605703	28.341121	19.055433	13.503791	10.628355	4.327098	23.774308	-29.406020	17.121720	3.616620	0.954099	-0.074707	0.296935	-1.000000	-1.000000	-1.000000	-1.000000	-1.000000	-1.000000	-1.000000	58.758621	0.000000	-1.000000	-1.000000	1209056.000000	1772739816.034285
-15639.435000	-19166.040000	-10911.195000	-3819.105000	-15575.940000	-10738.350000	-13659.840000	7045.425000	30.859894	30.125723	32.483146	17.662374	11.807345	8.544475	1.078026	9.646537	-29.406020	17.121720	3.616620	0.954099	-0.074707	0.296935	-1.000000	-1.000000	-1.000000	-1.000000	-1.000000	-1.000000	-1.000000	58.758621	0.000000	-1.000000	-1.000000	1209057.000000	1772739816.038381
-15561.360000	-19131.300000	-10868.445000	-3768.840000	-15518.970000	-10671.615000	-13591.845000	7127.730000	18.124400	21.884312	21.135565	9.934120	6.897728	4.471940	-0.042574	-8.563875	-29.406020	17.121720	3.616620	0.954099	-0.074707	0.296935	-1.000000	-1.000000	-1.000000	-1.000000	-1.000000	-1.000000	-1.000000	58.758621	0.000000	-1.000000	-1.000000	1209058.000000	1772739816.038388
-15553.665000	-19145.070000	-10884.600000	-3782.205000	-15533.325000	-10691.280000	-13607.370000	7111.935000	-3.481692	2.874345	-0.944073	-2.443315	-1.186405	-1.599179	1.490317	-18.676713	-29.406020	17.121720	3.616620	0.954099	-0.074707	0.296935	-1.000000	-1.000000	-1.000000	-1.000000	-1.000000	-1.000000	-1.000000	58.758621	0.000000	-1.000000	-1.000000	1209059.000000	1772739816.044180
-15576.615000	-19151.865000	-10889.010000	-3786.390000	-15540.795000	-10706.400000	-13623.570000	7072.200000	-18.005398	-16.750353	-21.513611	-13.938161	-9.563185	-7.922041	3.138206	-14.732508	-29.406020	17.121720	3.616620	0.954099	-0.074707	0.296935	-1.000000	-1.000000	-1.000000	-1.000000	-1.000000	-1.000000	-1.000000	58.758621	0.000000	-1.000000	-1.000000	1209060.000000	1772739816.044188
-15500.970000	-19112.580000	-10845.000000	-3743.865000	-15500.970000	-10673.190000	-13569.030000	7223.130000	-17.321194	-26.408743	-28.758380	-17.694971	-13.068914	-10.808251	2.731016	-0.285650	-22.371160	24.049760	7.462140	0.962095	-0.086181	0.294067	-1.000000	-1.000000	-1.000000	-1.000000	-1.000000	-1.000000	-1.000000	58.758621	0.000000	-1.000000	-1.000000	1209061.000000	1772739816.049105
-15546.150000	-19140.615000	-10887.120000	-3791.430000	-15549.705000	-10727.640000	-13630.950000	7120.035000	-5.434988	-22.108895	-20.546782	-11.443472	-8.871173	-7.662998	0.347192	14.129923	-22.371160	24.049760	7.462140	0.962095	-0.086181	0.294067	-1.000000	-1.000000	-1.000000	-1.000000	-1.000000	-1.000000	-1.000000	58.758621	0.000000	-1.000000	-1.000000	1209062.000000	1772739816.049114
-15581.835000	-19174.365000	-10946.790000	-3862.620000	-15626.745000	-10800.900000	-13696.335000	7070.445000	4.454767	-10.425828	-8.081731	-2.328186	-2.113826	-2.440012	-5.190369	14.601360	-22.371160	24.049760	7.462140	0.962095	-0.086181	0.294067	-1.000000	-1.000000	-1.000000	-1.000000	-1.000000	-1.000000	-1.000000	58.758621	0.000000	-1.000000	-1.000000	1209063.000000	1772739816.050408
-15504.705000	-19115.685000	-10894.005000	-3816.180000	-15588.720000	-10765.080000	-13686.435000	7098.885000	3.922682	-1.157126	-2.815843	0.795484	-0.350176	-1.359242	-13.187637	-1.269913	-22.371160	24.049760	7.462140	0.962095	-0.086181	0.294067	-1.000000	-1.000000	-1.000000	-1.000000	-1.000000	-1.000000	-1.000000	58.758621	0.000000	-1.000000	-1.000000	1209064.000000	1772739816.050415
-15525.540000	-19133.190000	-10898.190000	-3807.045000	-15573.015000	-10736.595000	-13670.730000	7105.050000	-0.339838	4.101518	-2.015620	-0.543388	-2.209848	-2.745310	-16.369688	-17.850491	-22.371160	24.049760	7.462140	0.962095	-0.086181	0.294067	-1.000000	-1.000000	-1.000000	-1.000000	-1.000000	-1.000000	-1.000000	58.758621	0.000000	-1.000000	-1.000000	1209065.000000	1772739816.054506
-15573.195000	-19182.915000	-10929.330000	-3815.955000	-15566.355000	-10713.690000	-13629.420000	7128.900000	-0.063804	7.276620	1.376260	-0.387111	-1.886777	-1.131174	-8.794988	-20.112802	-22.371160	24.049760	7.462140	0.962095	-0.086181	0.294067	-1.000000	-1.000000	-1.000000	-1.000000	-1.000000	-1.000000	-1.000000	58.758621	0.000000	-1.000000	-1.000000	1209066.000000	1772739816.054514
-15578.235000	-19167.075000	-10917.495000	-3808.395000	-15559.605000	-10712.655000	-13618.080000	7106.445000	0.841103	6.116102	5.595103	0.877219	0.525688	2.827711	5.749708	-8.857837	-22.371160	24.049760	7.462140	0.962095	-0.086181	0.294067	-1.000000	-1.000000	-1.000000	-1.000000	-1.000000	-1.000000	-1.000000	58.758621	0.000000	-1.000000	-1.000000	1209067.000000	1772739816.058416
-15547.545000	-19125.315000	-10876.005000	-3794.805000	-15549.750000	-10710.360000	-13638.960000	7087.185000	-2.877810	1.416135	7.697670	1.234718	2.398824	5.359664	17.748709	5.157606	-22.371160	24.049760	7.462140	0.962095	-0.086181	0.294067	-1.000000	-1.000000	-1.000000	-1.000000	-1.000000	-1.000000	-1.000000	58.758621	0.000000	-1.000000	-1.000000	1209068.000000	1772739816.058423
-15560.955000	-19149.165000	-10907.235000	-3838.005000	-15582.330000	-10736.370000	-13632.795000	7092.720000	-7.215954	-0.807217	9.462944	1.609647	3.540441	5.560891	20.406045	13.357798	-22.371160	24.049760	7.462140	0.962095	-0.086181	0.294067	-1.000000	-1.000000	-1.000000	-1.000000	-1.000000	-1.000000	-1.000000	58.758621	0.000000	-1.000000	-1.000000	1209069.000000	1772739816.062445
-15546.960000	-19144.485000	-10939.905000	-3844.170000	-15593.670000	-10754.730000	-13618.125000	7149.330000	-7.348360	1.208671	10.117822	1.818311	3.572619	3.799679	13.352620	12.776832	-22.371160	24.049760	7.462140	0.962095	-0.086181	0.294067	-1.000000	-1.000000	-1.000000	-1.000000	-1.000000	-1.000000	-1.000000	58.758621	0.000000	-1.000000	-1.000000	1209070.000000	1772739816.062454
-15548.085000	-19152.180000	-10924.740000	-3810.870000	-15568.695000	-10736.820000	-13628.070000	7110.675000	-3.415253	4.219642	6.766801	2.181295	3.097161	1.678030	2.297672	6.208395	-21.592900	25.148480	10.193680	0.957395	-0.083984	0.290405	-1.000000	-1.000000	-1.000000	-1.000000	-1.000000	-1.000000	-1.000000	58.758621	0.000000	-1.000000	-1.000000	1209071.000000	1772739816.066525
-15567.570000	-19147.680000	-10887.165000	-3786.975000	-15544.980000	-10713.375000	-13638.330000	7067.655000	2.353552	5.521633	1.724339	5.873373	5.512200	2.858226	-5.200695	-0.291780	-21.592900	25.148480	10.193680	0.957395	-0.083984	0.290405	-1.000000	-1.000000	-1.000000	-1.000000	-1.000000	-1.000000	-1.000000	58.758621	0.000000	-1.000000	-1.000000	1209072.000000	1772739816.066534
-15565.590000	-19142.100000	-10891.215000	-3785.985000	-15543.090000	-10707.435000	-13623.975000	7111.620000	6.338488	3.944389	-0.541923	12.241519	10.711494	7.373962	-6.208201	-3.622550	-21.592900	25.148480	10.193680	0.957395	-0.083984	0.290405	-1.000000	-1.000000	-1.000000	-1.000000	-1.000000	-1.000000	-1.000000	58.758621	0.000000	-1.000000	-1.000000	1209073.000000	1772739816.070411
-15542.955000	-19110.105000	-10848.195000	-3744.045000	-15509.205000	-10669.005000	-13594.545000	7135.020000	7.200535	0.982823	0.541005	15.214937	12.933129	9.672040	-3.479373	-3.247254	-21.592900	25.148480	10.193680	0.957395	-0.083984	0.290405	-1.000000	-1.000000	-1.000000	-1.000000	-1.000000	-1.000000	-1.000000	58.758621	0.000000	-1.000000	-1.000000	1209074.000000	1772739816.070418
-15541.695000	-19094.670000	-10827.450000	-3727.620000	-15494.715000	-10652.130000	-13587.525000	7123.770000	7.593433	0.298787	3.152231	11.060803	8.044652	5.541449	-1.541172	-0.021039	-21.592900	25.148480	10.193680	0.957395	-0.083984	0.290405	-1.000000	-1.000000	-1.000000	-1.000000	-1.000000	-1.000000	-1.000000	58.758621	0.000000	-1.000000	-1.000000	1209075.000000	1772739816.082193
-15578.640000	-19197.045000	-10934.145000	-3821.130000	-15571.170000	-10718.685000	-13623.390000	7100.685000	7.627245	0.915293	3.236183	0.103672	-3.325099	-4.292174	-3.359404	2.663843	-21.592900	25.148480	10.193680	0.957395	-0.083984	0.290405	-1.000000	-1.000000	-1.000000	-1.000000	-1.000000	-1.000000	-1.000000	58.758621	0.000000	-1.000000	-1.000000	1209076.000000	1772739816.082201
-15544.530000	-19159.695000	-10910.115000	-3805.065000	-15559.155000	-10713.015000	-13619.475000	7072.110000	4.395400	-2.843986	-4.093256	-15.134271	-17.336222	-15.815104	-8.029940	2.150885	-21.592900	25.148480	10.193680	0.957395	-0.083984	0.290405	-1.000000	-1.000000	-1.000000	-1.000000	-1.000000	-1.000000	-1.000000	58.758621	0.000000	-1.000000	-1.000000	1209077.000000	1772739816.082211
-15523.515000	-19125.495000	-10883.700000	-3786.795000	-15547.455000	-10711.980000	-13603.455000	7143.885000	-1.340640	-9.877780	-15.151269	-26.851359	-26.284448	-22.416290	-11.363233	-1.305261	-21.592900	25.148480	10.193680	0.957395	-0.083984	0.290405	-1.000000	-1.000000	-1.000000	-1.000000	-1.000000	-1.000000	-1.000000	58.758621	0.000000	-1.000000	-1.000000	1209078.000000	1772739816.082215
-15527.970000	-19113.525000	-10864.305000	-3764.745000	-15520.905000	-10687.275000	-13571.640000	7150.950000	-5.696694	-11.616092	-18.529864	-25.636519	-22.516595	-18.166198	-9.314112	-4.902904	-21.592900	25.148480	10.193680	0.957395	-0.083984	0.290405	-1.000000	-1.000000	-1.000000	-1.000000	-1.000000	-1.000000	-1.000000	58.758621	0.000000	-1.000000	-1.000000	1209079.000000	1772739816.084995
-15520.050000	-19112.040000	-10874.070000	-3786.705000	-15551.775000	-10718.955000	-13615.110000	7109.235000	-6.554848	-4.448552	-9.702357	-11.325487	-6.999568	-4.209053	-1.213602	-4.929222	-21.592900	25.148480	10.193680	0.957395	-0.083984	0.290405	-1.000000	-1.000000	-1.000000	-1.000000	-1.000000	-1.000000	-1.000000	58.758621	0.000000	-1.000000	-1.000000	1209080.000000	1772739816.085014
-15525.090000	-19139.760000	-10902.870000	-3808.305000	-15565.410000	-10725.165000	-13623.975000	7160.760000	-4.473675	5.778470	3.452286	5.661524	9.737123	10.260091	8.301181	-0.479852	-32.244380	22.630580	6.729660	0.938779	-0.075012	0.286498	-1.000000	-1.000000	-1.000000	-1.000000	-1.000000	-1.000000	-1.000000	58.758621	0.000000	-1.000000	-1.000000	1209081.000000	1772739816.093998
-15515.055000	-19123.515000	-10879.515000	-3772.665000	-15522.480000	-10669.905000	-13581.630000	7201.710000	-1.426288	10.788861	10.632157	14.840323	17.652258	16.593506	13.034357	5.943854	-32.244380	22.630580	6.729660	0.938779	-0.075012	0.286498	-1.000000	-1.000000	-1.000000	-1.000000	-1.000000	-1.000000	-1.000000	58.758621	0.000000	-1.000000	-1.000000	1209082.000000	1772739816.094006
-15615.720000	-19208.340000	-10967.040000	-3864.105000	-15616.980000	-10758.330000	-13706.820000	6992.730000	-0.554396	6.763037	7.908689	12.799624	14.075135	12.714497	9.429612	7.694333	-32.244380	22.630580	6.729660	0.938779	-0.075012	0.286498	-1.000000	-1.000000	-1.000000	-1.000000	-1.000000	-1.000000	-1.000000	58.758621	0.000000	-1.000000	-1.000000	1209083.000000	1772739816.094015
-15635.475000	-19211.805000	-10953.135000	-3845.070000	-15598.530000	-10744.830000	-13690.800000	6979.050000	-4.904327	-4.170894	-1.988284	2.353359	2.032799	1.156820	-2.716825	-2.996728	-32.244380	22.630580	6.729660	0.938779	-0.075012	0.286498	-1.000000	-1.000000	-1.000000	-1.000000	-1.000000	-1.000000	-1.000000	58.758621	0.000000	-1.000000	-1.000000	1209084.000000	1772739816.094019
-15599.070000	-19185.795000	-10925.955000	-3818.340000	-15570.720000	-10719.450000	-13637.925000	7085.340000	-11.578545	-13.459972	-9.782368	-7.023436	-9.203471	-9.854678	-15.191832	-19.569067	-32.244380	22.630580	6.729660	0.938779	-0.075012	0.286498	-1.000000	-1.000000	-1.000000	-1.000000	-1.000000	-1.000000	-1.000000	58.758621	0.000000	-1.000000	-1.000000	1209085.000000	1772739816.094237
-15506.820000	-19119.510000	-10884.330000	-3786.975000	-15543.900000	-10702.080000	-13596.165000	7195.635000	-11.385334	-11.595636	-6.141951	-5.262020	-9.168510	-10.310843	-15.090235	-21.594026	-32.244380	22.630580	6.729660	0.938779	-0.075012	0.286498	-1.000000	-1.000000	-1.000000	-1.000000	-1.000000	-1.000000	-1.000000	58.758621	0.000000	-1.000000	-1.000000	1209086.000000	1772739816.094244
-15556.005000	-19128.870000	-10896.525000	-3806.145000	-15568.110000	-10735.065000	-13634.730000	7131.735000	-0.260775	1.378151	7.154247	6.329839	1.758544	-0.119450	-1.110292	-2.497670	-32.244380	22.630580	6.729660	0.938779	-0.075012	0.286498	-1.000000	-1.000000	-1.000000	-1.000000	-1.000000	-1.000000	-1.000000	58.758621	0.000000	-1.000000	-1.000000	1209087.000000	1772739816.098429
-15594.165000	-19116.990000	-10884.870000	-3802.410000	-15569.865000	-10738.170000	-13643.775000	7079.805000	13.596654	15.635447	19.112466	16.714625	13.009409	10.875577	14.379098	20.315336	-32.244380	22.630580	6.729660	0.938779	-0.075012	0.286498	-1.000000	-1.000000	-1.000000	-1.000000	-1.000000	-1.000000	-1.000000	58.758621	0.000000	-1.000000	-1.000000	1209088.000000	1772739816.098433
-15598.395000	-19180.260000	-10934.505000	-3839.715000	-15596.730000	-10750.995000	-13618.215000	7099.560000	18.691812	20.723199	20.446247	17.142439	15.640376	14.277589	20.872281	28.327561	-32.244380	22.630580	6.729660	0.938779	-0.075012	0.286498	-1.000000	-1.000000	-1.000000	-1.000000	-1.000000	-1.000000	-1.000000	58.758621	0.000000	-1.000000	-1.000000	1209089.000000	1772739816.109631
-15538.905000	-19159.290000	-10920.465000	-3827.520000	-15585.255000	-10735.740000	-13642.920000	7088.445000	13.193622	13.085952	9.915263	7.262258	8.613730	9.076824	17.305785	18.524118	-32.244380	22.630580	6.729660	0.938779	-0.075012	0.286498	-1.000000	-1.000000	-1.000000	-1.000000	-1.000000	-1.000000	-1.000000	58.758621	0.000000	-1.000000	-1.000000	1209090.000000	1772739816.109639
-15484.905000	-19110.915000	-10867.365000	-3766.050000	-15521.400000	-10672.605000	-13643.595000	7097.220000	5.812758	-0.755630	-4.891335	-5.712172	-2.118813	0.136827	6.855931	-0.074849	-34.853840	27.208580	10.331020	0.939878	-0.068725	0.280334	-1.000000	-1.000000	-1.000000	-1.000000	-1.000000	-1.000000	-1.000000	58.758621	0.000000	-1.000000	-1.000000	1209091.000000	1772739816.109650
-15475.005000	-19099.665000	-10854.270000	-3748.815000	-15508.755000	-10664.955000	-13636.305000	7149.555000	5.480413	-8.941453	-12.634306	-11.584547	-7.452619	-4.922899	-4.643665	-12.039935	-34.853840	27.208580	10.331020	0.939878	-0.068725	0.280334	-1.000000	-1.000000	-1.000000	-1.000000	-1.000000	-1.000000	-1.000000	58.758621	0.000000	-1.000000	-1.000000	1209092.000000	1772739816.109653
-15549.660000	-19171.125000	-10943.505000	-3808.080000	-15553.170000	-10698.030000	-13604.400000	7151.085000	10.231290	-7.059924	-9.971887	-7.323360	-4.297467	-3.033276	-10.353537	-7.404845	-34.853840	27.208580	10.331020	0.939878	-0.068725	0.280334	-1.000000	-1.000000	-1.000000	-1.000000	-1.000000	-1.000000	-1.000000	58.758621	0.000000	-1.000000	-1.000000	1209093.000000	1772739816.110373
-15591.555000	-19181.430000	-10974.510000	-3810.240000	-15551.865000	-10700.505000	-13585.545000	7081.020000	7.468552	-3.225614	-5.963928	-1.279184	0.146219	0.179768	-9.165006	4.032186	-34.853840	27.208580	10.331020	0.939878	-0.068725	0.280334	-1.000000	-1.000000	-1.000000	-1.000000	-1.000000	-1.000000	-1.000000	58.758621	0.000000	-1.000000	-1.000000	1209094.000000	1772739816.110380
-15646.230000	-19226.115000	-10992.690000	-3858.390000	-15600.465000	-10757.790000	-13628.520000	7066.980000	-10.990136	-6.879485	-9.282892	-2.373041	-1.921087	-1.945238	-6.182645	3.086082	-34.853840	27.208580	10.331020	0.939878	-0.068725	0.280334	-1.000000	-1.000000	-1.000000	-1.000000	-1.000000	-1.000000	-1.000000	58.758621	0.000000	-1.000000	-1.000000	1209095.000000	1772739816.114377
-15581.655000	-19197.675000	-10932.885000	-3878.685000	-15611.355000	-10764.315000	-13618.215000	7142.310000	-34.923838	-16.608228	-16.020024	-10.410853	-10.066607	-9.297612	-5.702232	-11.563202	-34.853840	27.208580	10.331020	0.939878	-0.068725	0.280334	-1.000000	-1.000000	-1.000000	-1.000000	-1.000000	-1.000000	-1.000000	58.758621	0.000000	-1.000000	-1.000000	1209096.000000	1772739816.114385
-15481.575000	-19112.715000	-10863.450000	-3820.410000	-15572.520000	-10725.210000	-13594.545000	7203.600000	-41.515219	-20.372307	-14.116326	-16.911485	-16.483964	-15.028730	-6.146683	-20.358332	-34.853840	27.208580	10.331020	0.939878	-0.068725	0.280334	-1.000000	-1.000000	-1.000000	-1.000000	-1.000000	-1.000000	-1.000000	58.758621	0.000000	-1.000000	-1.000000	1209097.000000	1772739816.126497
-15506.190000	-19104.930000	-10843.515000	-3746.565000	-15515.415000	-10672.920000	-13589.415000	7175.475000	-19.851212	-7.810791	2.535718	-11.486264	-12.317144	-11.312108	-3.673442	-10.532102	-34.853840	27.208580	10.331020	0.939878	-0.068725	0.280334	-1.000000	-1.000000	-1.000000	-1.000000	-1.000000	-1.000000	-1.000000	58.758621	0.000000	-1.000000	-1.000000	1209098.000000	1772739816.126504
-15543.225000	-19109.745000	-10828.980000	-3721.050000	-15487.605000	-10645.560000	-13613.220000	7112.025000	14.036362	15.816088	25.238678	7.264470	3.176873	2.119292	1.405990	7.539251	-34.853840	27.208580	10.331020	0.939878	-0.068725	0.280334	-1.000000	-1.000000	-1.000000	-1.000000	-1.000000	-1.000000	-1.000000	58.758621	0.000000	-1.000000	-1.000000	1209099.000000	1772739816.126878
-15577.740000	-19144.890000	-10882.440000	-3786.885000	-15549.345000	-10700.370000	-13643.595000	7021.980000	33.661936	32.330216	36.454261	26.035963	18.901986	15.333436	5.106702	15.348375	-34.853840	27.208580	10.331020	0.939878	-0.068725	0.280334	-1.000000	-1.000000	-1.000000	-1.000000	-1.000000	-1.000000	-1.000000	58.758621	0.000000	-1.000000	-1.000000	1209100.000000	1772739816.126882
-15585.165000	-19182.195000	-10937.700000	-3845.565000	-15603.165000	-10752.210000	-13648.050000	7056.900000	28.647316	28.951210	25.562210	28.128487	21.237378	16.844992	4.398612	6.511573	-36.105160	25.301080	10.025820	0.943967	-0.067505	0.275146	-1.000000	-1.000000	-1.000000	-1.000000	-1.000000	-1.000000	-1.000000	58.758621	0.000000	-1.000000	-1.000000	1209101.000000	1772739816.126889
-15594.390000	-19201.815000	-10949.940000	-3848.535000	-15596.865000	-10742.760000	-13644.945000	7106.490000	9.609926	9.201219	-1.029894	10.792985	7.968438	5.296149	-0.537982	-8.532533	-36.105160	25.301080	10.025820	0.943967	-0.067505	0.275146	-1.000000	-1.000000	-1.000000	-1.000000	-1.000000	-1.000000	-1.000000	58.758621	0.000000	-1.000000	-1.000000	1209102.000000	1772739816.126892
-15581.295000	-19161.675000	-10929.870000	-3848.985000	-15601.095000	-10755.765000	-13649.490000	7099.290000	-6.697202	-12.602770	-25.386284	-12.580786	-9.743007	-9.250767	-6.449514	-14.245996	-36.105160	25.301080	10.025820	0.943967	-0.067505	0.275146	-1.000000	-1.000000	-1.000000	-1.000000	-1.000000	-1.000000	-1.000000	58.758621	0.000000	-1.000000	-1.000000	1209103.000000	1772739816.130422
-15565.545000	-19131.795000	-10906.065000	-3850.740000	-15600.780000	-10758.285000	-13632.435000	7105.275000	-10.918464	-22.681856	-33.082112	-25.651875	-18.542764	-15.262583	-8.184869	-6.065224	-36.105160	25.301080	10.025820	0.943967	-0.067505	0.275146	-1.000000	-1.000000	-1.000000	-1.000000	-1.000000	-1.000000	-1.000000	58.758621	0.000000	-1.000000	-1.000000	1209104.000000	1772739816.130431
-15536.790000	-19120.230000	-10915.200000	-3841.245000	-15588.765000	-10743.930000	-13625.145000	7154.100000	-4.833285	-17.325140	-23.564329	-21.712446	-13.529860	-9.200721	-2.735691	7.890335	-36.105160	25.301080	10.025820	0.943967	-0.067505	0.275146	-1.000000	-1.000000	-1.000000	-1.000000	-1.000000	-1.000000	-1.000000	58.758621	0.000000	-1.000000	-1.000000	1209105.000000	1772739816.137615
-15538.635000	-19134.765000	-10925.865000	-3804.840000	-15559.200000	-10716.795000	-13615.470000	7095.735000	2.505887	-4.938628	-7.689779	-6.384771	-0.045342	3.257362	6.748279	16.590370	-36.105160	25.301080	10.025820	0.943967	-0.067505	0.275146	-1.000000	-1.000000	-1.000000	-1.000000	-1.000000	-1.000000	-1.000000	58.758621	0.000000	-1.000000	-1.000000	1209106.000000	1772739816.137623
-15540.795000	-19133.415000	-10861.335000	-3751.155000	-15510.555000	-10664.775000	-13590.270000	7096.230000	4.104863	3.553688	4.692362	9.326701	12.340970	13.299371	14.108348	14.241256	-36.105160	25.301080	10.025820	0.943967	-0.067505	0.275146	-1.000000	-1.000000	-1.000000	-1.000000	-1.000000	-1.000000	-1.000000	58.758621	0.000000	-1.000000	-1.000000	1209107.000000	1772739816.138591
-15562.080000	-19102.635000	-10826.235000	-3718.845000	-15473.295000	-10624.500000	-13575.735000	7167.285000	0.520760	5.066502	12.504598	18.272090	17.714278	16.383686	16.535459	6.089698	-36.105160	25.301080	10.025820	0.943967	-0.067505	0.275146	-1.000000	-1.000000	-1.000000	-1.000000	-1.000000	-1.000000	-1.000000	58.758621	0.000000	-1.000000	-1.000000	1209108.000000	1772739816.138598
-15536.700000	-19071.630000	-10810.530000	-3711.780000	-15472.890000	-10633.635000	-13613.805000	7086.060000	-3.330209	4.527083	18.949710	20.316292	16.772555	14.140652	14.189448	2.200884	-36.105160	25.301080	10.025820	0.943967	-0.067505	0.275146	-1.000000	-1.000000	-1.000000	-1.000000	-1.000000	-1.000000	-1.000000	58.758621	0.000000	-1.000000	-1.000000	1209109.000000	1772739816.142464
-15503.445000	-19121.895000	-10880.055000	-3796.560000	-15564.420000	-10726.515000	-13681.890000	7023.195000	-2.746369	6.686618	23.617872	17.155072	11.562957	8.511884	5.648125	1.087657	-36.105160	25.301080	10.025820	0.943967	-0.067505	0.275146	-1.000000	-1.000000	-1.000000	-1.000000	-1.000000	-1.000000	-1.000000	58.758621	0.000000	-1.000000	-1.000000	1209110.000000	1772739816.142473
-15503.940000	-19176.165000	-10933.065000	-3842.910000	-15602.445000	-10759.140000	-13647.960000	7169.805000	3.009888	8.473168	20.392187	6.965460	0.466258	-2.282551	-9.196475	-4.509941	-33.663560	17.320100	2.487380	0.926389	-0.070801	0.271911	-1.000000	-1.000000	-1.000000	-1.000000	-1.000000	-1.000000	-1.000000	58.758621	0.000000	-1.000000	-1.000000	1209111.000000	1772739816.148796
-15547.005000	-19191.420000	-10948.950000	-3848.895000	-15596.640000	-10751.130000	-13616.865000	7146.855000	8.425593	2.931912	4.751452	-10.139428	-15.494426	-16.689053	-22.439453	-10.433686	-33.663560	17.320100	2.487380	0.926389	-0.070801	0.271911	-1.000000	-1.000000	-1.000000	-1.000000	-1.000000	-1.000000	-1.000000	58.758621	0.000000	-1.000000	-1.000000	1209112.000000	1772739816.148806
-15555.780000	-19170.765000	-10936.755000	-3843.090000	-15595.830000	-10747.845000	-13621.365000	7142.130000	6.087623	-9.643722	-17.627669	-25.774366	-27.487305	-25.883182	-24.045981	-10.074450	-33.663560	17.320100	2.487380	0.926389	-0.070801	0.271911	-1.000000	-1.000000	-1.000000	-1.000000	-1.000000	-1.000000	-1.000000	58.758621	0.000000	-1.000000	-1.000000	1209113.000000	1772739816.164136
-15565.365000	-19176.030000	-10940.805000	-3848.040000	-15601.050000	-10750.050000	-13651.785000	7122.240000	-5.411723	-20.382293	-33.624393	-30.317271	-27.503816	-23.298093	-13.902915	-6.585600	-33.663560	17.320100	2.487380	0.926389	-0.070801	0.271911	-1.000000	-1.000000	-1.000000	-1.000000	-1.000000	-1.000000	-1.000000	58.758621	0.000000	-1.000000	-1.000000	1209114.000000	1772739816.164145
-15533.910000	-19139.895000	-10900.440000	-3806.190000	-15558.975000	-10705.680000	-13637.790000	7140.510000	-18.505412	-20.429182	-33.333473	-22.200244	-16.243314	-11.264678	-0.673601	-4.133837	-33.663560	17.320100	2.487380	0.926389	-0.070801	0.271911	-1.000000	-1.000000	-1.000000	-1.000000	-1.000000	-1.000000	-1.000000	58.758621	0.000000	-1.000000	-1.000000	1209115.000000	1772739816.164156
-15536.565000	-19141.830000	-10899.855000	-3806.370000	-15561.630000	-10702.080000	-13617.270000	7151.490000	-22.202327	-8.124024	-17.551396	-7.156548	-0.604064	2.906587	8.588909	-1.442164	-33.663560	17.320100	2.487380	0.926389	-0.070801	0.271911	-1.000000	-1.000000	-1.000000	-1.000000	-1.000000	-1.000000	-1.000000	58.758621	0.000000	-1.000000	-1.000000	1209116.000000	1772739816.164160
-15555.690000	-19131.705000	-10891.260000	-3807.225000	-15575.985000	-10726.695000	-13628.385000	7100.055000	-12.495690	9.351420	3.723876	7.416481	11.760756	12.310728	12.661118	2.258266	-33.663560	17.320100	2.487380	0.926389	-0.070801	0.271911	-1.000000	-1.000000	-1.000000	-1.000000	-1.000000	-1.000000	-1.000000	58.758621	0.000000	-1.000000	-1.000000	1209117.000000	1772739816.164164
-15533.730000	-19107.990000	-10861.470000	-3773.295000	-15537.510000	-10690.740000	-13614.615000	7114.905000	3.997895	22.250943	20.893808	17.874768	18.009189	15.316439	13.561009	5.322315	-33.663560	17.320100	2.487380	0.926389	-0.070801	0.271911	-1.000000	-1.000000	-1.000000	-1.000000	-1.000000	-1.000000	-1.000000	58.758621	0.000000	-1.000000	-1.000000	1209118.000000	1772739816.164168
-15543.405000	-19142.865000	-10890.450000	-3784.590000	-15529.770000	-10675.530000	-13589.370000	7154.820000	17.057243	26.133084	30.624119	25.267394	21.637579	16.791816	13.696594	7.360592	-33.663560	17.320100	2.487380	0.926389	-0.070801	0.271911	-1.000000	-1.000000	-1.000000	-1.000000	-1.000000	-1.000000	-1.000000	58.758621	0.000000	-1.000000	-1.000000	1209119.000000	1772739816.164172
-15511.860000	-19101.510000	-10854.270000	-3762.765000	-15522.930000	-10687.455000	-13594.140000	7164.045000	21.175689	21.925024	32.397253	29.659485	24.920763	19.851035	12.715630	7.429204	-33.663560	17.320100	2.487380	0.926389	-0.070801	0.271911	-1.000000	-1.000000	-1.000000	-1.000000	-1.000000	-1.000000	-1.000000	58.758621	0.000000	-1.000000	-1.000000	1209120.000000	1772739816.164176
-15566.445000	-19158.570000	-10918.170000	-3825.900000	-15582.555000	-10744.470000	-13653.765000	7062.480000	17.172657	11.771667	24.825102	26.668563	23.047117	19.219759	6.526981	2.394907	-25.667320	12.345340	6.958560	0.914854	-0.074463	0.271850	-1.000000	-1.000000	-1.000000	-1.000000	-1.000000	-1.000000	-1.000000	58.758621	0.000000	-1.000000	-1.000000	1209121.000000	1772739816.170114
-15568.380000	-19173.915000	-10934.100000	-3839.940000	-15593.715000	-10746.135000	-13643.820000	7067.970000	7.687925	-3.260286	6.950186	11.905469	10.068220	8.195768	-6.427348	-8.256695	-25.667320	12.345340	6.958560	0.914854	-0.074463	0.271850	-1.000000	-1.000000	-1.000000	-1.000000	-1.000000	-1.000000	-1.000000	58.758621	0.000000	-1.000000	-1.000000	1209122.000000	1772739816.170122
-15562.890000	-19176.525000	-10920.015000	-3813.300000	-15558.975000	-10700.910000	-13610.655000	7060.770000	-4.240570	-20.040098	-16.434273	-11.386867	-11.200816	-10.473667	-19.103598	-18.202706	-25.667320	12.345340	6.958560	0.914854	-0.074463	0.271850	-1.000000	-1.000000	-1.000000	-1.000000	-1.000000	-1.000000	-1.000000	58.758621	0.000000	-1.000000	-1.000000	1209123.000000	1772739816.170478
-15544.890000	-19150.605000	-10879.920000	-3770.820000	-15517.170000	-10655.460000	-13602.960000	7071.750000	-13.454483	-30.825154	-33.991167	-31.544602	-29.175314	-25.552221	-22.008629	-18.873557	-25.667320	12.345340	6.958560	0.914854	-0.074463	0.271850	-1.000000	-1.000000	-1.000000	-1.000000	-1.000000	-1.000000	-1.000000	58.758621	0.000000	-1.000000	-1.000000	1209124.000000	1772739816.170483
-15583.455000	-19169.865000	-10895.580000	-3782.250000	-15527.565000	-10665.000000	-13617.360000	7071.750000	-15.614548	-29.154581	-36.508995	-37.547550	-33.607027	-28.060031	-13.896745	-8.165467	-25.667320	12.345340	6.958560	0.914854	-0.074463	0.271850	-1.000000	-1.000000	-1.000000	-1.000000	-1.000000	-1.000000	-1.000000	58.758621	0.000000	-1.000000	-1.000000	1209125.000000	1772739816.176303
-15566.355000	-19158.165000	-10906.470000	-3802.770000	-15554.925000	-10700.325000	-13634.955000	7134.165000	-10.863792	-16.139735	-24.377486	-27.798921	-23.774407	-18.413607	-1.489336	9.674146	-25.667320	12.345340	6.958560	0.914854	-0.074463	0.271850	-1.000000	-1.000000	-1.000000	-1.000000	-1.000000	-1.000000	-1.000000	58.758621	0.000000	-1.000000	-1.000000	1209126.000000	1772739816.176312
-15506.595000	-19124.865000	-10909.530000	-3822.840000	-15582.195000	-10729.980000	-13643.775000	7124.445000	-1.982479	2.050890	-5.382087	-9.790686	-7.665223	-4.700044	7.875378	27.401088	-25.667320	12.345340	6.958560	0.914854	-0.074463	0.271850	-1.000000	-1.000000	-1.000000	-1.000000	-1.000000	-1.000000	-1.000000	58.758621	0.000000	-1.000000	-1.000000	1209127.000000	1772739816.180879
-15541.290000	-19124.370000	-10896.705000	-3810.780000	-15568.470000	-10721.160000	-13611.645000	7092.270000	7.644468	19.289593	12.431959	7.391861	5.866546	5.151769	10.858829	33.872279	-25.667320	12.345340	6.958560	0.914854	-0.074463	0.271850	-1.000000	-1.000000	-1.000000	-1.000000	-1.000000	-1.000000	-1.000000	58.758621	0.000000	-1.000000	-1.000000	1209128.000000	1772739816.180889
-15581.295000	-19143.855000	-10899.585000	-3809.970000	-15563.880000	-10723.905000	-13616.280000	7084.575000	12.753450	29.283751	23.840235	18.730992	13.665922	9.685748	9.141326	21.812612	-25.667320	12.345340	6.958560	0.914854	-0.074463	0.271850	-1.000000	-1.000000	-1.000000	-1.000000	-1.000000	-1.000000	-1.000000	58.758621	0.000000	-1.000000	-1.000000	1209129.000000	1772739816.186218
-15553.530000	-19110.060000	-10876.140000	-3791.070000	-15552.090000	-10718.010000	-13620.195000	7084.260000	10.141587	27.737038	26.755802	23.583300	17.473442	12.005152	6.687779	-1.049921	-25.667320	12.345340	6.958560	0.914854	-0.074463	0.271850	-1.000000	-1.000000	-1.000000	-1.000000	-1.000000	-1.000000	-1.000000	58.758621	0.000000	-1.000000	-1.000000	1209130.000000	1772739816.186227
-15499.755000	-19019.115000	-10793.565000	-3700.665000	-15464.700000	-10635.390000	-13585.455000	7008.975000	4.008101	18.218068	23.412544	24.016810	19.722786	14.478745	5.566770	-20.215720	-14.878500	10.010560	3.067260	0.921628	-0.077453	0.273681	-1.000000	-1.000000	-1.000000	-1.000000	-1.000000	-1.000000	-1.000000	58.758621	0.000000	-1.000000	-1.000000	1209131.000000	1772739816.186261
-15538.770000	-19113.660000	-10915.335000	-3780.405000	-15527.790000	-10683.225000	-13649.355000	6960.960000	-0.033174	7.046106	15.483455	20.113946	19.165279	15.285679	3.944827	-29.563987	-14.878500	10.010560	3.067260	0.921628	-0.077453	0.273681	-1.000000	-1.000000	-1.000000	-1.000000	-1.000000	-1.000000	-1.000000	58.758621	0.000000	-1.000000	-1.000000	1209132.000000	1772739816.186268
-15623.280000	-19238.220000	-11018.610000	-3865.230000	-15598.620000	-10730.520000	-13640.715000	7152.930000	-3.303811	-7.321266	-1.427207	6.727539	9.626381	8.546699	-1.525022	-27.553852	-14.878500	10.010560	3.067260	0.921628	-0.077453	0.273681	-1.000000	-1.000000	-1.000000	-1.000000	-1.000000	-1.000000	-1.000000	58.758621	0.000000	-1.000000	-1.000000	1209133.000000	1772739816.190280
-15624.540000	-19241.370000	-10973.835000	-3868.605000	-15612.345000	-10743.120000	-13618.575000	7226.325000	-9.388177	-27.498398	-26.490303	-16.684363	-10.370479	-6.964675	-8.950427	-9.889794	-14.878500	10.010560	3.067260	0.921628	-0.077453	0.273681	-1.000000	-1.000000	-1.000000	-1.000000	-1.000000	-1.000000	-1.000000	58.758621	0.000000	-1.000000	-1.000000	1209134.000000	1772739816.190288
-15568.560000	-19188.315000	-10898.730000	-3843.045000	-15601.230000	-10745.505000	-13637.475000	7157.745000	-15.311212	-43.707261	-42.976284	-36.782236	-29.365386	-21.600635	-11.611668	18.119634	-14.878500	10.010560	3.067260	0.921628	-0.077453	0.273681	-1.000000	-1.000000	-1.000000	-1.000000	-1.000000	-1.000000	-1.000000	58.758621	0.000000	-1.000000	-1.000000	1209135.000000	1772739816.204919
-15519.555000	-19163.250000	-10912.815000	-3837.240000	-15597.315000	-10749.015000	-13636.395000	7140.105000	-13.957610	-40.857143	-34.471535	-37.610563	-32.862191	-24.092916	-7.348948	35.999258	-14.878500	10.010560	3.067260	0.921628	-0.077453	0.273681	-1.000000	-1.000000	-1.000000	-1.000000	-1.000000	-1.000000	-1.000000	58.758621	0.000000	-1.000000	-1.000000	1209136.000000	1772739816.204930
-15522.345000	-19117.530000	-10875.375000	-3790.215000	-15553.530000	-10715.940000	-13602.015000	7125.930000	-2.443713	-15.549801	-4.817974	-16.864238	-17.505624	-12.422486	-0.215142	29.394172	-14.878500	10.010560	3.067260	0.921628	-0.077453	0.273681	-1.000000	-1.000000	-1.000000	-1.000000	-1.000000	-1.000000	-1.000000	58.758621	0.000000	-1.000000	-1.000000	1209137.000000	1772739816.204942
-15511.095000	-19058.805000	-10811.565000	-3725.055000	-15484.455000	-10649.070000	-13569.210000	7107.660000	14.206303	20.878429	27.856849	14.269491	8.627383	7.426968	6.559003	4.638975	-14.878500	10.010560	3.067260	0.921628	-0.077453	0.273681	-1.000000	-1.000000	-1.000000	-1.000000	-1.000000	-1.000000	-1.000000	58.758621	0.000000	-1.000000	-1.000000	1209138.000000	1772739816.204946
-15494.670000	-19037.700000	-10787.805000	-3705.075000	-15458.670000	-10623.015000	-13581.540000	7065.810000	25.787367	50.152386	47.106274	39.996767	32.698660	26.266752	11.666570	-21.187968	-14.878500	10.010560	3.067260	0.921628	-0.077453	0.273681	-1.000000	-1.000000	-1.000000	-1.000000	-1.000000	-1.000000	-1.000000	58.758621	0.000000	-1.000000	-1.000000	1209139.000000	1772739816.204950
-15534.765000	-19129.185000	-10884.105000	-3802.905000	-15556.095000	-10708.065000	-13640.490000	7059.105000	23.580083	55.253849	43.176826	45.179359	40.315818	32.345457	11.508160	-33.799632	-14.878500	10.010560	3.067260	0.921628	-0.077453	0.273681	-1.000000	-1.000000	-1.000000	-1.000000	-1.000000	-1.000000	-1.000000	58.758621	0.000000	-1.000000	-1.000000	1209140.000000	1772739816.204954
-15570.765000	-19200.420000	-10949.040000	-3855.465000	-15602.220000	-10735.380000	-13629.060000	7125.390000	7.401007	31.425540	16.606648	24.031335	23.579309	18.086874	3.653944	-27.910505	-7.004340	8.927100	-0.686700	0.920530	-0.076965	0.276550	-1.000000	-1.000000	-1.000000	-1.000000	-1.000000	-1.000000	-1.000000	58.758621	0.000000	-1.000000	-1.000000	1209141.000000	1772739816.211906
-15536.790000	-19147.635000	-10890.270000	-3792.330000	-15540.075000	-10679.310000	-13619.880000	7135.425000	-11.956984	-5.867433	-17.054312	-9.883570	-6.954263	-7.964180	-7.186554	-10.454876	-7.004340	8.927100	-0.686700	0.920530	-0.076965	0.276550	-1.000000	-1.000000	-1.000000	-1.000000	-1.000000	-1.000000	-1.000000	58.758621	0.000000	-1.000000	-1.000000	1209142.000000	1772739816.211915
-15508.215000	-19114.110000	-10862.640000	-3763.620000	-15505.290000	-10650.330000	-13592.790000	7171.920000	-21.219632	-32.208096	-37.323661	-32.510395	-28.374195	-25.768865	-13.095747	5.500327	-7.004340	8.927100	-0.686700	0.920530	-0.076965	0.276550	-1.000000	-1.000000	-1.000000	-1.000000	-1.000000	-1.000000	-1.000000	58.758621	0.000000	-1.000000	-1.000000	1209143.000000	1772739816.211924
-15565.185000	-19143.495000	-10902.420000	-3815.955000	-15563.880000	-10711.215000	-13593.915000	7155.990000	-18.425432	-36.381993	-36.761955	-32.274367	-28.322121	-24.448489	-10.182806	13.993571	-7.004340	8.927100	-0.686700	0.920530	-0.076965	0.276550	-1.000000	-1.000000	-1.000000	-1.000000	-1.000000	-1.000000	-1.000000	58.758621	0.000000	-1.000000	-1.000000	1209144.000000	1772739816.211928
-15572.790000	-19158.345000	-10937.430000	-3869.055000	-15620.445000	-10774.080000	-13647.105000	7104.600000	-12.580156	-25.785104	-23.370868	-18.162845	-15.175544	-11.910319	-2.133293	16.179020	-7.004340	8.927100	-0.686700	0.920530	-0.076965	0.276550	-1.000000	-1.000000	-1.000000	-1.000000	-1.000000	-1.000000	-1.000000	58.758621	0.000000	-1.000000	-1.000000	1209145.000000	1772739816.235879
-15555.645000	-19118.970000	-10896.480000	-3841.020000	-15592.680000	-10751.895000	-13643.550000	7105.905000	-9.002955	-12.491456	-8.291803	-5.502510	-4.361828	-2.480010	2.615748	12.938916	-7.004340	8.927100	-0.686700	0.920530	-0.076965	0.276550	-1.000000	-1.000000	-1.000000	-1.000000	-1.000000	-1.000000	-1.000000	58.758621	0.000000	-1.000000	-1.000000	1209146.000000	1772739816.235890
-15545.745000	-19124.100000	-10897.065000	-3820.500000	-15568.110000	-10725.840000	-13634.595000	7102.170000	-4.755792	-2.559695	2.783382	-0.436909	-1.658499	-1.176601	0.496798	6.457827	-7.004340	8.927100	-0.686700	0.920530	-0.076965	0.276550	-1.000000	-1.000000	-1.000000	-1.000000	-1.000000	-1.000000	-1.000000	58.758621	0.000000	-1.000000	-1.000000	1209147.000000	1772739816.235902
-15591.195000	-19164.825000	-10937.655000	-3816.720000	-15563.115000	-10712.925000	-13604.895000	7123.455000	1.878373	2.705891	8.616308	0.850461	-2.222051	-2.730671	-3.119421	1.905899	-7.004340	8.927100	-0.686700	0.920530	-0.076965	0.276550	-1.000000	-1.000000	-1.000000	-1.000000	-1.000000	-1.000000	-1.000000	58.758621	0.000000	-1.000000	-1.000000	1209148.000000	1772739816.235907
-15552.585000	-19114.020000	-10838.295000	-3724.920000	-15476.940000	-10626.570000	-13560.165000	7098.435000	8.824955	6.239365	12.737285	6.266697	2.498237	1.373400	-0.304998	1.823870	-7.004340	8.927100	-0.686700	0.920530	-0.076965	0.276550	-1.000000	-1.000000	-1.000000	-1.000000	-1.000000	-1.000000	-1.000000	58.758621	0.000000	-1.000000	-1.000000	1209149.000000	1772739816.235912
-15511.860000	-19061.775000	-10777.365000	-3666.240000	-15412.905000	-10562.040000	-13528.440000	7035.930000	15.965538	14.725712	22.481352	21.126067	17.633557	15.681341	10.575545	0.529291	-7.004340	8.927100	-0.686700	0.920530	-0.076965	0.276550	-1.000000	-1.000000	-1.000000	-1.000000	-1.000000	-1.000000	-1.000000	58.758621	0.000000	-1.000000	-1.000000	1209150.000000	1772739816.235915
-15472.890000	-19063.080000	-10804.815000	-3707.280000	-15459.255000	-10611.495000	-13571.865000	7083.225000	23.097881	27.564299	35.399338	37.726471	35.224317	32.272030	21.058336	-8.559096	-3.052000	3.143560	-3.998120	0.915037	-0.076294	0.282775	-1.000000	-1.000000	-1.000000	-1.000000	-1.000000	-1.000000	-1.000000	58.758621	0.000000	-1.000000	-1.000000	1209151.000000	1772739816.235920
-15483.600000	-19161.675000	-10932.885000	-3834.720000	-15570.270000	-10712.970000	-13647.330000	7145.280000	25.113292	31.414053	34.586684	37.067280	36.415642	33.612652	18.843594	-19.308263	-3.052000	3.143560	-3.998120	0.915037	-0.076294	0.282775	-1.000000	-1.000000	-1.000000	-1.000000	-1.000000	-1.000000	-1.000000	58.758621	0.000000	-1.000000	-1.000000	1209152.000000	1772739816.235924
-15559.965000	-19231.245000	-11030.985000	-3947.265000	-15656.220000	-10792.755000	-13666.590000	7108.020000	16.132497	14.694423	8.548295	9.173576	11.654212	11.247367	0.533083	-18.650357	-3.052000	3.143560	-3.998120	0.915037	-0.076294	0.282775	-1.000000	-1.000000	-1.000000	-1.000000	-1.000000	-1.000000	-1.000000	58.758621	0.000000	-1.000000	-1.000000	1209153.000000	1772739816.235928
-15521.355000	-19135.035000	-10938.105000	-3862.530000	-15595.560000	-10745.235000	-13625.145000	7093.935000	-2.930708	-15.794674	-30.744140	-32.025251	-25.803456	-22.457386	-22.043152	-4.282605	-3.052000	3.143560	-3.998120	0.915037	-0.076294	0.282775	-1.000000	-1.000000	-1.000000	-1.000000	-1.000000	-1.000000	-1.000000	58.758621	0.000000	-1.000000	-1.000000	1209154.000000	1772739816.235932
-15586.020000	-19158.390000	-10933.245000	-3847.860000	-15597.720000	-10747.980000	-13638.510000	7020.495000	-23.405737	-39.206943	-56.385195	-58.538984	-51.104812	-45.245350	-32.168575	12.717886	-3.052000	3.143560	-3.998120	0.915037	-0.076294	0.282775	-1.000000	-1.000000	-1.000000	-1.000000	-1.000000	-1.000000	-1.000000	58.758621	0.000000	-1.000000	-1.000000	1209155.000000	1772739816.261435
-15613.290000	-19193.670000	-10921.815000	-3831.255000	-15588.000000	-10735.560000	-13623.840000	7046.010000	-36.166449	-41.594527	-51.517430	-53.411294	-49.926935	-44.735323	-24.217261	20.064741	-3.052000	3.143560	-3.998120	0.915037	-0.076294	0.282775	-1.000000	-1.000000	-1.000000	-1.000000	-1.000000	-1.000000	-1.000000	58.758621	0.000000	-1.000000	-1.000000	1209156.000000	1772739816.261445
-15549.705000	-19157.355000	-10914.120000	-3818.205000	-15581.295000	-10729.125000	-13622.445000	7171.155000	-35.296132	-24.459444	-20.819155	-22.329594	-26.214987	-24.585003	-5.535970	17.151117	-3.052000	3.143560	-3.998120	0.915037	-0.076294	0.282775	-1.000000	-1.000000	-1.000000	-1.000000	-1.000000	-1.000000	-1.000000	58.758621	0.000000	-1.000000	-1.000000	1209157.000000	1772739816.261456
-15543.180000	-19132.470000	-10890.540000	-3789.495000	-15552.045000	-10697.535000	-13615.650000	7156.485000	-18.676132	2.718218	16.932374	15.398161	5.480921	2.538996	12.218498	13.074100	-3.052000	3.143560	-3.998120	0.915037	-0.076294	0.282775	-1.000000	-1.000000	-1.000000	-1.000000	-1.000000	-1.000000	-1.000000	58.758621	0.000000	-1.000000	-1.000000	1209158.000000	1772739816.261461
-15524.820000	-19124.685000	-10891.440000	-3792.285000	-15549.075000	-10694.565000	-13614.570000	7132.770000	6.500270	27.113604	41.406703	40.459975	29.662645	23.489283	20.632560	11.054412	-3.052000	3.143560	-3.998120	0.915037	-0.076294	0.282775	-1.000000	-1.000000	-1.000000	-1.000000	-1.000000	-1.000000	-1.000000	58.758621	0.000000	-1.000000	-1.000000	1209159.000000	1772739816.261466
-15516.405000	-19118.205000	-10883.610000	-3784.500000	-15540.705000	-10688.220000	-13612.185000	7135.740000	26.183587	37.587282	43.419914	44.587370	38.586227	32.174198	19.184164	4.849566	-3.052000	3.143560	-3.998120	0.915037	-0.076294	0.282775	-1.000000	-1.000000	-1.000000	-1.000000	-1.000000	-1.000000	-1.000000	58.758621	0.000000	-1.000000	-1.000000	1209160.000000	1772739816.261470
-15511.230000	-19116.720000	-10865.385000	-3772.530000	-15528.465000	-10684.890000	-13613.580000	7142.715000	31.920597	33.035027	30.420592	34.518042	35.919533	31.932883	13.730192	-8.681023	-2.075360	-0.228900	-5.173140	0.922666	-0.072571	0.287048	-1.000000	-1.000000	-1.000000	-1.000000	-1.000000	-1.000000	-1.000000	58.758621	0.000000	-1.000000	-1.000000	1209161.000000	1772739816.261474
-15521.940000	-19116.990000	-10868.355000	-3784.005000	-15539.805000	-10703.970000	-13622.535000	7113.420000	25.593003	20.101112	15.759462	21.769578	28.760640	27.935794	8.810127	-22.696067	-2.075360	-0.228900	-5.173140	0.922666	-0.072571	0.287048	-1.000000	-1.000000	-1.000000	-1.000000	-1.000000	-1.000000	-1.000000	58.758621	0.000000	-1.000000	-1.000000	1209162.000000	1772739816.261478
-15508.125000	-19083.465000	-10839.015000	-3759.120000	-15522.885000	-10687.545000	-13599.180000	7126.695000	13.160953	3.675290	3.545966	9.002851	17.640500	19.290161	3.887049	-27.099250	-2.075360	-0.228900	-5.173140	0.922666	-0.072571	0.287048	-1.000000	-1.000000	-1.000000	-1.000000	-1.000000	-1.000000	-1.000000	58.758621	0.000000	-1.000000	-1.000000	1209163.000000	1772739816.261482
-15483.195000	-19052.910000	-10819.305000	-3737.205000	-15502.860000	-10663.695000	-13568.805000	7157.835000	0.675526	-12.284088	-8.992058	-6.770775	0.437617	3.718863	-1.909799	-17.271083	-2.075360	-0.228900	-5.173140	0.922666	-0.072571	0.287048	-1.000000	-1.000000	-1.000000	-1.000000	-1.000000	-1.000000	-1.000000	58.758621	0.000000	-1.000000	-1.000000	1209164.000000	1772739816.261485
-15595.335000	-19201.905000	-10995.255000	-3845.655000	-15571.755000	-10709.775000	-13596.390000	7075.845000	-8.299207	-23.183663	-22.855258	-24.629022	-19.722260	-15.341743	-7.178441	0.324952	-2.075360	-0.228900	-5.173140	0.922666	-0.072571	0.287048	-1.000000	-1.000000	-1.000000	-1.000000	-1.000000	-1.000000	-1.000000	58.758621	0.000000	-1.000000	-1.000000	1209165.000000	1772739816.261489
-15598.125000	-19222.020000	-11012.580000	-3863.430000	-15589.440000	-10723.410000	-13611.510000	7112.655000	-16.372876	-29.826488	-37.625687	-40.661882	-36.895866	-31.739048	-11.524865	10.963376	-2.075360	-0.228900	-5.173140	0.922666	-0.072571	0.287048	-1.000000	-1.000000	-1.000000	-1.000000	-1.000000	-1.000000	-1.000000	58.758621	0.000000	-1.000000	-1.000000	1209166.000000	1772739816.261492
-15533.550000	-19142.370000	-10881.990000	-3789.270000	-15538.185000	-10683.540000	-13595.490000	7168.365000	-24.349601	-32.888767	-46.469178	-48.052434	-44.869940	-39.898062	-15.032108	9.125446	-2.075360	-0.228900	-5.173140	0.922666	-0.072571	0.287048	-1.000000	-1.000000	-1.000000	-1.000000	-1.000000	-1.000000	-1.000000	58.758621	0.000000	-1.000000	-1.000000	1209167.000000	1772739816.261496
-15510.465000	-19077.930000	-10787.220000	-3726.270000	-15478.515000	-10625.940000	-13579.245000	7121.205000	-25.031869	-25.331637	-34.999166	-37.117191	-36.791545	-34.080358	-15.084621	3.538775	-2.075360	-0.228900	-5.173140	0.922666	-0.072571	0.287048	-1.000000	-1.000000	-1.000000	-1.000000	-1.000000	-1.000000	-1.000000	58.758621	0.000000	-1.000000	-1.000000	1209168.000000	1772739816.261500
-15521.715000	-19083.105000	-10816.470000	-3733.380000	-15485.355000	-10636.830000	-13569.390000	7057.260000	-13.962869	-3.056745	0.142749	-6.194173	-11.468829	-12.759111	-8.623840	-0.192860	-2.075360	-0.228900	-5.173140	0.922666	-0.072571	0.287048	-1.000000	-1.000000	-1.000000	-1.000000	-1.000000	-1.000000	-1.000000	58.758621	0.000000	-1.000000	-1.000000	1209169.000000	1772739816.263646
-15579.540000	-19149.660000	-10897.155000	-3814.290000	-15565.815000	-10724.490000	-13598.640000	6988.635000	2.898650	23.870516	39.288516	29.907964	19.385253	14.348383	2.669270	-4.781612	-2.075360	-0.228900	-5.173140	0.922666	-0.072571	0.287048	-1.000000	-1.000000	-1.000000	-1.000000	-1.000000	-1.000000	-1.000000	58.758621	0.000000	-1.000000	-1.000000	1209170.000000	1772739816.263654
-15541.695000	-19158.660000	-10908.720000	-3824.865000	-15578.505000	-10739.475000	-13618.125000	7103.880000	15.668936	37.594754	55.453381	49.006873	37.091602	30.534326	11.752578	-8.716899	-5.020540	-1.754900	-3.250380	0.943540	-0.070556	0.293517	-1.000000	-1.000000	-1.000000	-1.000000	-1.000000	-1.000000	-1.000000	58.758621	0.000000	-1.000000	-1.000000	1209171.000000	1772739816.268461
-15518.205000	-19135.035000	-10897.830000	-3824.955000	-15586.695000	-10743.390000	-13604.850000	7152.660000	19.959297	29.282684	38.911618	40.236835	32.017297	26.841375	12.398801	-3.492899	-5.020540	-1.754900	-3.250380	0.943540	-0.070556	0.293517	-1.000000	-1.000000	-1.000000	-1.000000	-1.000000	-1.000000	-1.000000	58.758621	0.000000	-1.000000	-1.000000	1209172.000000	1772739816.268469
-15548.175000	-19131.705000	-10886.220000	-3795.300000	-15545.970000	-10696.275000	-13599.360000	7095.060000	17.909676	7.943722	4.698134	13.071116	11.732568	9.863127	5.426499	12.059257	-5.020540	-1.754900	-3.250380	0.943540	-0.070556	0.293517	-1.000000	-1.000000	-1.000000	-1.000000	-1.000000	-1.000000	-1.000000	58.758621	0.000000	-1.000000	-1.000000	1209173.000000	1772739816.270392
-15551.955000	-19138.815000	-10891.800000	-3794.265000	-15545.430000	-10690.650000	-13621.770000	7119.045000	13.042102	-8.533127	-21.225455	-11.402704	-6.504582	-5.177654	-2.800814	25.732547	-5.020540	-1.754900	-3.250380	0.943540	-0.070556	0.293517	-1.000000	-1.000000	-1.000000	-1.000000	-1.000000	-1.000000	-1.000000	58.758621	0.000000	-1.000000	-1.000000	1209174.000000	1772739816.270399
-15547.095000	-19155.915000	-10905.975000	-3806.370000	-15554.160000	-10694.160000	-13611.375000	7141.770000	6.879999	-11.183080	-25.278641	-19.543425	-11.802086	-8.844777	-6.796097	25.793346	-5.020540	-1.754900	-3.250380	0.943540	-0.070556	0.293517	-1.000000	-1.000000	-1.000000	-1.000000	-1.000000	-1.000000	-1.000000	58.758621	0.000000	-1.000000	-1.000000	1209175.000000	1772739816.275726
-15585.210000	-19174.590000	-10902.195000	-3798.855000	-15546.195000	-10691.640000	-13614.795000	7107.750000	-1.922165	-7.091336	-16.286778	-15.070306	-7.616516	-4.473460	-5.486182	11.451638	-5.020540	-1.754900	-3.250380	0.943540	-0.070556	0.293517	-1.000000	-1.000000	-1.000000	-1.000000	-1.000000	-1.000000	-1.000000	58.758621	0.000000	-1.000000	-1.000000	1209176.000000	1772739816.275735
-15581.790000	-19179.495000	-10911.465000	-3812.670000	-15552.945000	-10697.580000	-13609.755000	7094.385000	-13.860510	-7.182237	-9.655765	-8.965074	-3.147274	-0.533257	-1.181733	-9.161676	-5.020540	-1.754900	-3.250380	0.943540	-0.070556	0.293517	-1.000000	-1.000000	-1.000000	-1.000000	-1.000000	-1.000000	-1.000000	58.758621	0.000000	-1.000000	-1.000000	1209177.000000	1772739816.281587
-15534.675000	-19115.955000	-10874.745000	-3787.695000	-15533.010000	-10687.275000	-13582.980000	7087.725000	-22.415971	-10.815251	-7.858678	-5.195004	-1.476787	0.211050	3.710940	-23.930135	-5.020540	-1.754900	-3.250380	0.943540	-0.070556	0.293517	-1.000000	-1.000000	-1.000000	-1.000000	-1.000000	-1.000000	-1.000000	58.758621	0.000000	-1.000000	-1.000000	1209178.000000	1772739816.281595
-15496.020000	-19085.715000	-10862.055000	-3778.965000	-15528.105000	-10686.015000	-13594.140000	7113.690000	-17.883442	-7.805257	-2.359178	0.262750	1.281896	1.759732	8.295166	-24.295948	-5.020540	-1.754900	-3.250380	0.943540	-0.070556	0.293517	-1.000000	-1.000000	-1.000000	-1.000000	-1.000000	-1.000000	-1.000000	58.758621	0.000000	-1.000000	-1.000000	1209179.000000	1772739816.282485
-15538.680000	-19133.775000	-10902.825000	-3809.745000	-15559.605000	-10713.510000	-13633.065000	7093.260000	-1.124923	4.489069	9.322935	8.651127	6.694495	6.021713	10.470824	-13.412587	-5.020540	-1.754900	-3.250380	0.943540	-0.070556	0.293517	-1.000000	-1.000000	-1.000000	-1.000000	-1.000000	-1.000000	-1.000000	58.758621	0.000000	-1.000000	-1.000000	1209180.000000	1772739816.282498
-15528.150000	-19151.505000	-10913.130000	-3826.305000	-15577.065000	-10722.240000	-13618.125000	7113.870000	14.610280	14.994895	17.985918	13.276071	9.213610	7.939131	6.807275	-2.199312	-3.723440	-2.487380	-8.194620	0.950376	-0.070373	0.299255	-1.000000	-1.000000	-1.000000	-1.000000	-1.000000	-1.000000	-1.000000	58.758621	0.000000	-1.000000	-1.000000	1209181.000000	1772739816.303267
-15483.375000	-19089.540000	-10857.600000	-3796.200000	-15545.655000	-10683.405000	-13584.780000	7121.070000	19.968667	14.965851	16.953568	9.127051	4.385452	3.204021	-1.287117	4.094800	-3.723440	-2.487380	-8.194620	0.950376	-0.070373	0.299255	-1.000000	-1.000000	-1.000000	-1.000000	-1.000000	-1.000000	-1.000000	58.758621	0.000000	-1.000000	-1.000000	1209182.000000	1772739816.303281
-15478.920000	-19049.895000	-10812.690000	-3741.615000	-15488.730000	-10626.030000	-13564.035000	7102.710000	16.948616	9.107750	11.112549	1.022935	-3.319659	-4.101652	-6.780706	6.731096	-3.723440	-2.487380	-8.194620	0.950376	-0.070373	0.299255	-1.000000	-1.000000	-1.000000	-1.000000	-1.000000	-1.000000	-1.000000	58.758621	0.000000	-1.000000	-1.000000	1209183.000000	1772739816.303296
-15522.930000	-19116.855000	-10886.895000	-3758.985000	-15496.605000	-10634.445000	-13570.245000	7135.560000	9.047908	4.033189	5.660582	-3.438962	-6.314271	-6.836892	-5.633063	6.262616	-3.723440	-2.487380	-8.194620	0.950376	-0.070373	0.299255	-1.000000	-1.000000	-1.000000	-1.000000	-1.000000	-1.000000	-1.000000	58.758621	0.000000	-1.000000	-1.000000	1209184.000000	1772739816.303301
-15592.500000	-19202.940000	-10927.305000	-3801.060000	-15544.125000	-10684.530000	-13609.395000	7092.045000	-3.695351	-2.876951	-2.810454	-4.231692	-4.543057	-4.976554	-1.594063	3.804974	-3.723440	-2.487380	-8.194620	0.950376	-0.070373	0.299255	-1.000000	-1.000000	-1.000000	-1.000000	-1.000000	-1.000000	-1.000000	58.758621	0.000000	-1.000000	-1.000000	1209185.000000	1772739816.303307
-15668.190000	-19200.600000	-10930.050000	-3822.300000	-15566.760000	-10713.105000	-13627.755000	7030.980000	-20.161206	-15.440042	-16.330292	-6.274450	-4.076293	-4.423450	-1.053811	1.084405	-3.723440	-2.487380	-8.194620	0.950376	-0.070373	0.299255	-1.000000	-1.000000	-1.000000	-1.000000	-1.000000	-1.000000	-1.000000	58.758621	0.000000	-1.000000	-1.000000	1209186.000000	1772739816.303311
-15638.490000	-19184.490000	-10922.895000	-3824.055000	-15572.745000	-10725.975000	-13605.840000	7071.660000	-34.380269	-28.012199	-27.331602	-10.345457	-7.151179	-7.358778	-5.270023	-1.415055	-3.723440	-2.487380	-8.194620	0.950376	-0.070373	0.299255	-1.000000	-1.000000	-1.000000	-1.000000	-1.000000	-1.000000	-1.000000	58.758621	0.000000	-1.000000	-1.000000	1209187.000000	1772739816.303316
-15540.840000	-19156.140000	-10914.390000	-3824.730000	-15575.940000	-10726.695000	-13591.575000	7166.385000	-35.423622	-29.605346	-26.408331	-12.168449	-9.680776	-9.663622	-8.545186	-1.193576	-3.723440	-2.487380	-8.194620	0.950376	-0.070373	0.299255	-1.000000	-1.000000	-1.000000	-1.000000	-1.000000	-1.000000	-1.000000	58.758621	0.000000	-1.000000	-1.000000	1209188.000000	1772739816.303320
-15507.855000	-19141.830000	-10912.320000	-3826.665000	-15578.280000	-10727.550000	-13601.655000	7154.415000	-15.296448	-14.749004	-11.765585	-8.042569	-7.029730	-6.759443	-5.289147	4.224534	-3.723440	-2.487380	-8.194620	0.950376	-0.070373	0.299255	-1.000000	-1.000000	-1.000000	-1.000000	-1.000000	-1.000000	-1.000000	58.758621	0.000000	-1.000000	-1.000000	1209189.000000	1772739816.303328
-15556.815000	-19122.210000	-10877.400000	-3783.555000	-15533.145000	-10680.030000	-13600.755000	7088.760000	18.230118	10.889432	9.763828	1.699612	1.445349	1.687307	2.625190	10.220653	-3.723440	-2.487380	-8.194620	0.950376	-0.070373	0.299255	-1.000000	-1.000000	-1.000000	-1.000000	-1.000000	-1.000000	-1.000000	58.758621	0.000000	-1.000000	-1.000000	1209190.000000	1772739816.303332
-15565.590000	-19138.680000	-10883.790000	-3783.555000	-15528.915000	-10665.225000	-13608.180000	7074.360000	43.299556	32.732521	26.885864	12.561504	11.685447	11.515025	8.350605	8.268691	-2.868880	-3.479280	-1.495480	0.942319	-0.078491	0.303100	-1.000000	-1.000000	-1.000000	-1.000000	-1.000000	-1.000000	-1.000000	58.758621	0.000000	-1.000000	-1.000000	1209191.000000	1772739816.309942
-15487.380000	-19143.090000	-10906.020000	-3812.130000	-15561.180000	-10696.995000	-13621.140000	7158.465000	45.052464	37.494238	30.099772	17.378960	16.472932	16.071789	7.512707	-1.892319	-2.868880	-3.479280	-1.495480	0.942319	-0.078491	0.303100	-1.000000	-1.000000	-1.000000	-1.000000	-1.000000	-1.000000	-1.000000	58.758621	0.000000	-1.000000	-1.000000	1209192.000000	1772739816.309951
-15493.545000	-19140.615000	-10910.205000	-3817.080000	-15571.305000	-10713.060000	-13626.720000	7129.395000	28.834355	24.870744	18.858324	12.082590	11.285229	11.292298	1.628439	-10.822451	-2.868880	-3.479280	-1.495480	0.942319	-0.078491	0.303100	-1.000000	-1.000000	-1.000000	-1.000000	-1.000000	-1.000000	-1.000000	58.758621	0.000000	-1.000000	-1.000000	1209193.000000	1772739816.311690
-15475.680000	-19093.140000	-10858.545000	-3762.495000	-15515.415000	-10667.790000	-13595.670000	7156.035000	9.448320	7.191634	2.873769	1.867480	0.974647	1.546029	-3.249640	-10.626689	-2.868880	-3.479280	-1.495480	0.942319	-0.078491	0.303100	-1.000000	-1.000000	-1.000000	-1.000000	-1.000000	-1.000000	-1.000000	58.758621	0.000000	-1.000000	-1.000000	1209194.000000	1772739816.311697
-15467.085000	-19041.885000	-10798.065000	-3708.630000	-15468.030000	-10637.730000	-13616.505000	7103.835000	-3.775992	-3.594806	-6.262349	-2.881385	-3.798787	-3.371634	-2.416076	-1.951043	-2.868880	-3.479280	-1.495480	0.942319	-0.078491	0.303100	-1.000000	-1.000000	-1.000000	-1.000000	-1.000000	-1.000000	-1.000000	58.758621	0.000000	-1.000000	-1.000000	1209195.000000	1772739816.314296
-15539.625000	-19075.140000	-10833.480000	-3746.655000	-15499.125000	-10662.705000	-13609.125000	6988.005000	-12.373714	-6.368322	-5.470131	1.234177	0.848933	0.355963	2.122787	4.814577	-2.868880	-3.479280	-1.495480	0.942319	-0.078491	0.303100	-1.000000	-1.000000	-1.000000	-1.000000	-1.000000	-1.000000	-1.000000	58.758621	0.000000	-1.000000	-1.000000	1209196.000000	1772739816.314303
-15595.335000	-19149.660000	-10932.525000	-3840.570000	-15579.270000	-10719.135000	-13577.985000	7068.150000	-24.474823	-9.187230	-2.931147	5.543622	6.600959	5.687953	5.598851	-1.210174	-2.868880	-3.479280	-1.495480	0.942319	-0.078491	0.303100	-1.000000	-1.000000	-1.000000	-1.000000	-1.000000	-1.000000	-1.000000	58.758621	0.000000	-1.000000	-1.000000	1209197.000000	1772739816.318409
-15568.920000	-19195.065000	-10985.895000	-3877.830000	-15610.680000	-10744.245000	-13608.990000	7149.780000	-40.312387	-18.701744	-8.898925	-0.699263	2.542902	3.038332	6.077889	-13.212312	-2.868880	-3.479280	-1.495480	0.942319	-0.078491	0.303100	-1.000000	-1.000000	-1.000000	-1.000000	-1.000000	-1.000000	-1.000000	58.758621	0.000000	-1.000000	-1.000000	1209198.000000	1772739816.318416
-15563.115000	-19203.120000	-10966.770000	-3838.185000	-15575.895000	-10704.555000	-13596.390000	7123.050000	-46.433276	-31.548780	-22.860417	-16.494427	-11.723511	-8.715071	3.269802	-13.032892	-2.868880	-3.479280	-1.495480	0.942319	-0.078491	0.303100	-1.000000	-1.000000	-1.000000	-1.000000	-1.000000	-1.000000	-1.000000	58.758621	0.000000	-1.000000	-1.000000	1209199.000000	1772739816.322661
-15539.850000	-19174.545000	-10952.550000	-3805.875000	-15542.190000	-10676.205000	-13602.285000	7121.520000	-31.781327	-36.431856	-32.388868	-28.383890	-24.485353	-20.298561	-1.854309	2.381979	-2.868880	-3.479280	-1.495480	0.942319	-0.078491	0.303100	-1.000000	-1.000000	-1.000000	-1.000000	-1.000000	-1.000000	-1.000000	58.758621	0.000000	-1.000000	-1.000000	1209200.000000	1772739816.322668
-15527.790000	-19127.880000	-10898.460000	-3785.130000	-15532.155000	-10672.290000	-13585.545000	7143.345000	-1.686917	-23.799103	-24.772657	-23.678186	-23.204279	-20.746561	-6.116147	18.457163	1.541260	-2.029580	5.951400	0.950864	-0.091003	0.301086	-1.000000	-1.000000	-1.000000	-1.000000	-1.000000	-1.000000	-1.000000	58.758621	0.000000	-1.000000	-1.000000	1209201.000000	1772739816.331916
-15529.815000	-19115.145000	-10836.315000	-3773.115000	-15528.735000	-10673.865000	-13591.980000	7137.180000	28.402901	4.832579	1.372481	-2.808163	-6.715232	-8.014293	-6.703964	22.891181	1.541260	-2.029580	5.951400	0.950864	-0.091003	0.301086	-1.000000	-1.000000	-1.000000	-1.000000	-1.000000	-1.000000	-1.000000	58.758621	0.000000	-1.000000	-1.000000	1209202.000000	1772739816.331923
-15500.835000	-19094.580000	-10835.685000	-3771.315000	-15526.800000	-10679.625000	-13583.835000	7142.985000	45.697134	34.860557	32.661968	20.703779	13.623137	9.075679	-3.939590	15.649609	1.541260	-2.029580	5.951400	0.950864	-0.091003	0.301086	-1.000000	-1.000000	-1.000000	-1.000000	-1.000000	-1.000000	-1.000000	58.758621	0.000000	-1.000000	-1.000000	1209203.000000	1772739816.332198
-15480.270000	-19082.880000	-10850.355000	-3774.105000	-15528.915000	-10681.245000	-13568.805000	7160.220000	45.925386	48.772740	48.975950	31.654521	24.368404	19.212481	-0.056082	4.620230	1.541260	-2.029580	5.951400	0.950864	-0.091003	0.301086	-1.000000	-1.000000	-1.000000	-1.000000	-1.000000	-1.000000	-1.000000	58.758621	0.000000	-1.000000	-1.000000	1209204.000000	1772739816.332205
-15505.290000	-19113.480000	-10880.190000	-3799.755000	-15552.945000	-10704.420000	-13608.405000	7122.105000	32.378118	40.230862	40.195404	25.665073	21.343697	18.221026	2.487020	-3.113431	1.541260	-2.029580	5.951400	0.950864	-0.091003	0.301086	-1.000000	-1.000000	-1.000000	-1.000000	-1.000000	-1.000000	-1.000000	58.758621	0.000000	-1.000000	-1.000000	1209205.000000	1772739816.334293
-15567.975000	-19141.290000	-10889.235000	-3802.500000	-15553.980000	-10702.575000	-13610.520000	7079.535000	10.812963	16.839730	14.548780	10.760269	10.799669	10.300820	1.290029	-9.043487	1.541260	-2.029580	5.951400	0.950864	-0.091003	0.301086	-1.000000	-1.000000	-1.000000	-1.000000	-1.000000	-1.000000	-1.000000	58.758621	0.000000	-1.000000	-1.000000	1209206.000000	1772739816.334299
-15573.420000	-19151.280000	-10893.330000	-3801.555000	-15550.290000	-10693.350000	-13595.895000	7096.275000	-13.345058	-8.267104	-11.364805	-2.680160	0.863829	1.730157	-2.726485	-17.845902	1.541260	-2.029580	5.951400	0.950864	-0.091003	0.301086	-1.000000	-1.000000	-1.000000	-1.000000	-1.000000	-1.000000	-1.000000	58.758621	0.000000	-1.000000	-1.000000	1209207.000000	1772739816.339136
-15543.315000	-19137.240000	-10874.970000	-3769.965000	-15505.380000	-10641.420000	-13581.315000	7109.190000	-32.458235	-24.871008	-26.576720	-10.542612	-5.269526	-4.227068	-4.847496	-25.161968	1.541260	-2.029580	5.951400	0.950864	-0.091003	0.301086	-1.000000	-1.000000	-1.000000	-1.000000	-1.000000	-1.000000	-1.000000	58.758621	0.000000	-1.000000	-1.000000	1209208.000000	1772739816.339144
-15536.520000	-19140.840000	-10889.505000	-3791.520000	-15534.270000	-10673.820000	-13601.565000	7082.685000	-38.315093	-29.293337	-29.338025	-13.890568	-8.340276	-7.176673	-2.553994	-22.698892	1.541260	-2.029580	5.951400	0.950864	-0.091003	0.301086	-1.000000	-1.000000	-1.000000	-1.000000	-1.000000	-1.000000	-1.000000	58.758621	0.000000	-1.000000	-1.000000	1209209.000000	1772739816.346057
-15557.220000	-19146.015000	-10901.565000	-3811.635000	-15560.055000	-10701.900000	-13610.655000	7079.535000	-29.261527	-24.038913	-24.071431	-14.854525	-10.221661	-8.426681	1.628516	-10.590848	1.541260	-2.029580	5.951400	0.950864	-0.091003	0.301086	-1.000000	-1.000000	-1.000000	-1.000000	-1.000000	-1.000000	-1.000000	58.758621	0.000000	-1.000000	-1.000000	1209210.000000	1772739816.346065
-15566.355000	-19159.785000	-10918.080000	-3825.765000	-15567.705000	-10712.430000	-13608.855000	7094.385000	-11.661795	-14.577923	-17.151560	-14.782982	-12.098334	-9.509210	4.002780	4.843412	-1.098720	0.442540	10.529400	0.965269	-0.089660	0.295287	-1.000000	-1.000000	-1.000000	-1.000000	-1.000000	-1.000000	-1.000000	58.758621	0.000000	-1.000000	-1.000000	1209211.000000	1772739816.346429
-15545.385000	-19144.260000	-10921.005000	-3834.270000	-15555.780000	-10704.105000	-13597.380000	7066.080000	5.538953	-5.585021	-11.622858	-13.368225	-12.703223	-9.753678	3.680703	17.704923	-1.098720	0.442540	10.529400	0.965269	-0.089660	0.295287	-1.000000	-1.000000	-1.000000	-1.000000	-1.000000	-1.000000	-1.000000	58.758621	0.000000	-1.000000	-1.000000	1209212.000000	1772739816.346434
-15529.140000	-19097.055000	-10867.095000	-3788.145000	-15521.760000	-10672.605000	-13574.070000	7020.855000	16.803841	2.202677	-4.452281	-8.168287	-8.648411	-6.288164	2.577439	23.119184	-1.098720	0.442540	10.529400	0.965269	-0.089660	0.295287	-1.000000	-1.000000	-1.000000	-1.000000	-1.000000	-1.000000	-1.000000	58.758621	0.000000	-1.000000	-1.000000	1209213.000000	1772739816.355196
-15551.325000	-19130.490000	-10892.655000	-3792.600000	-15546.870000	-10693.350000	-13590.045000	7061.445000	21.668671	10.978469	8.662089	3.432891	1.826612	2.377153	2.818122	19.568792	-1.098720	0.442540	10.529400	0.965269	-0.089660	0.295287	-1.000000	-1.000000	-1.000000	-1.000000	-1.000000	-1.000000	-1.000000	58.758621	0.000000	-1.000000	-1.000000	1209214.000000	1772739816.355204
-15547.590000	-19148.490000	-10903.410000	-3811.365000	-15565.815000	-10713.915000	-13617.540000	7100.145000	21.581569	19.563456	24.520832	18.290424	14.154414	12.149110	3.598685	11.819501	-1.098720	0.442540	10.529400	0.965269	-0.089660	0.295287	-1.000000	-1.000000	-1.000000	-1.000000	-1.000000	-1.000000	-1.000000	58.758621	0.000000	-1.000000	-1.000000	1209215.000000	1772739816.355218
-15510.645000	-19106.010000	-10840.455000	-3767.670000	-15519.105000	-10662.480000	-13584.195000	7148.520000	17.507098	23.014724	33.801019	27.239663	20.088743	15.917726	2.221284	6.470006	-1.098720	0.442540	10.529400	0.965269	-0.089660	0.295287	-1.000000	-1.000000	-1.000000	-1.000000	-1.000000	-1.000000	-1.000000	58.758621	0.000000	-1.000000	-1.000000	1209216.000000	1772739816.355223
-15531.480000	-19123.380000	-10882.980000	-3775.455000	-15511.545000	-10649.970000	-13578.660000	7123.230000	9.642223	18.601095	30.529085	24.066052	16.201413	11.434062	-1.083160	4.841597	-1.098720	0.442540	10.529400	0.965269	-0.089660	0.295287	-1.000000	-1.000000	-1.000000	-1.000000	-1.000000	-1.000000	-1.000000	58.758621	0.000000	-1.000000	-1.000000	1209217.000000	1772739816.363389
-15544.620000	-19132.470000	-10903.590000	-3775.635000	-15519.465000	-10664.865000	-13600.170000	7073.685000	-1.848900	7.211362	14.849205	10.723901	6.172514	2.930629	-3.535647	2.137164	-1.098720	0.442540	10.529400	0.965269	-0.089660	0.295287	-1.000000	-1.000000	-1.000000	-1.000000	-1.000000	-1.000000	-1.000000	58.758621	0.000000	-1.000000	-1.000000	1209218.000000	1772739816.363399
-15548.580000	-19140.615000	-10875.285000	-3774.330000	-15524.730000	-10670.760000	-13577.220000	7140.555000	-13.905767	-7.362679	-7.219821	-5.319578	-3.849254	-4.128959	-3.731823	-5.078561	-1.098720	0.442540	10.529400	0.965269	-0.089660	0.295287	-1.000000	-1.000000	-1.000000	-1.000000	-1.000000	-1.000000	-1.000000	58.758621	0.000000	-1.000000	-1.000000	1209219.000000	1772739816.363463
-15550.335000	-19152.270000	-10896.390000	-3807.720000	-15555.150000	-10706.445000	-13596.210000	7138.530000	-21.031992	-19.258720	-25.054161	-16.855501	-10.314234	-7.704000	-2.270504	-12.785901	-1.098720	0.442540	10.529400	0.965269	-0.089660	0.295287	-1.000000	-1.000000	-1.000000	-1.000000	-1.000000	-1.000000	-1.000000	58.758621	0.000000	-1.000000	-1.000000	1209220.000000	1772739816.363469
-15550.560000	-19164.330000	-10916.370000	-3825.270000	-15571.125000	-10723.770000	-13613.130000	7123.500000	-20.492754	-24.364917	-31.266226	-21.479471	-13.696598	-9.545661	-1.351622	-14.921220	-8.194620	1.373400	9.400160	0.961301	-0.076355	0.287292	-1.000000	-1.000000	-1.000000	-1.000000	-1.000000	-1.000000	-1.000000	58.758621	0.000000	-1.000000	-1.000000	1209221.000000	1772739816.372513
-15535.755000	-19129.365000	-10887.570000	-3798.090000	-15546.465000	-10697.535000	-13597.290000	7099.245000	-13.339549	-21.450110	-25.837899	-19.982383	-14.552128	-10.732316	-2.576282	-10.920360	-8.194620	1.373400	9.400160	0.961301	-0.076355	0.287292	-1.000000	-1.000000	-1.000000	-1.000000	-1.000000	-1.000000	-1.000000	58.758621	0.000000	-1.000000	-1.000000	1209222.000000	1772739816.372522
-15513.570000	-19082.880000	-10832.490000	-3742.965000	-15496.290000	-10649.520000	-13575.870000	7059.330000	-1.434670	-9.442036	-11.067786	-11.807658	-9.862514	-7.960362	-3.438268	-6.050983	-8.194620	1.373400	9.400160	0.961301	-0.076355	0.287292	-1.000000	-1.000000	-1.000000	-1.000000	-1.000000	-1.000000	-1.000000	58.758621	0.000000	-1.000000	-1.000000	1209223.000000	1772739816.373326
-15537.870000	-19111.995000	-10844.370000	-3744.495000	-15490.170000	-10630.710000	-13571.505000	7078.770000	11.393785	9.283744	8.825430	2.661548	2.069392	1.531789	-0.364265	-5.824971	-8.194620	1.373400	9.400160	0.961301	-0.076355	0.287292	-1.000000	-1.000000	-1.000000	-1.000000	-1.000000	-1.000000	-1.000000	58.758621	0.000000	-1.000000	-1.000000	1209224.000000	1772739816.373334
-15554.115000	-19121.265000	-10857.195000	-3759.210000	-15509.520000	-10650.645000	-13579.560000	7129.530000	17.796446	24.202643	23.708091	16.220210	14.398266	12.254299	4.949419	-8.571293	-8.194620	1.373400	9.400160	0.961301	-0.076355	0.287292	-1.000000	-1.000000	-1.000000	-1.000000	-1.000000	-1.000000	-1.000000	58.758621	0.000000	-1.000000	-1.000000	1209225.000000	1772739816.375957
-15589.935000	-19152.000000	-10914.390000	-3817.755000	-15560.055000	-10695.915000	-13594.365000	7133.310000	12.982388	24.780668	24.065714	18.925369	16.557408	14.318818	7.260216	-6.364007	-8.194620	1.373400	9.400160	0.961301	-0.076355	0.287292	-1.000000	-1.000000	-1.000000	-1.000000	-1.000000	-1.000000	-1.000000	58.758621	0.000000	-1.000000	-1.000000	1209226.000000	1772739816.375962
-15579.810000	-19177.470000	-10928.565000	-3826.755000	-15564.465000	-10698.705000	-13595.400000	7124.130000	0.837743	11.020393	10.183050	8.391481	6.170288	5.180317	4.510955	4.188940	-8.194620	1.373400	9.400160	0.961301	-0.076355	0.287292	-1.000000	-1.000000	-1.000000	-1.000000	-1.000000	-1.000000	-1.000000	58.758621	0.000000	-1.000000	-1.000000	1209227.000000	1772739816.378888
-15554.070000	-19155.195000	-10893.465000	-3794.895000	-15537.555000	-10684.890000	-13617.765000	7063.155000	-9.065003	-7.443662	-8.388211	-6.945584	-7.932581	-7.201747	-1.193914	15.218698	-8.194620	1.373400	9.400160	0.961301	-0.076355	0.287292	-1.000000	-1.000000	-1.000000	-1.000000	-1.000000	-1.000000	-1.000000	58.758621	0.000000	-1.000000	-1.000000	1209228.000000	1772739816.378898
-15540.300000	-19126.620000	-10863.990000	-3768.030000	-15514.200000	-10666.440000	-13604.490000	7106.940000	-9.772755	-18.531245	-18.832857	-14.268124	-13.850332	-12.323410	-6.359745	16.789414	-8.194620	1.373400	9.400160	0.961301	-0.076355	0.287292	-1.000000	-1.000000	-1.000000	-1.000000	-1.000000	-1.000000	-1.000000	58.758621	0.000000	-1.000000	-1.000000	1209229.000000	1772739816.386744
-15552.720000	-19127.745000	-10881.720000	-3790.845000	-15538.455000	-10684.710000	-13569.570000	7164.225000	-2.471139	-16.250977	-14.648787	-8.269066	-7.687490	-6.898958	-7.211821	10.848976	-8.194620	1.373400	9.400160	0.961301	-0.076355	0.287292	-1.000000	-1.000000	-1.000000	-1.000000	-1.000000	-1.000000	-1.000000	58.758621	0.000000	-1.000000	-1.000000	1209230.000000	1772739816.386762
-15521.985000	-19132.695000	-10939.815000	-3847.230000	-15589.620000	-10732.455000	-13604.130000	7116.480000	6.132422	-5.176005	-2.513462	2.874289	2.615431	2.028045	-2.767704	6.291332	-17.579520	0.152600	10.498880	0.946165	-0.066955	0.283202	-1.000000	-1.000000	-1.000000	-1.000000	-1.000000	-1.000000	-1.000000	58.758621	0.000000	-1.000000	-1.000000	1209231.000000	1772739816.386778
-15481.080000	-19125.225000	-10972.485000	-3851.235000	-15571.440000	-10703.430000	-13590.675000	7122.915000	11.186227	5.239244	4.564075	6.724069	6.296438	5.001150	2.849538	4.690954	-17.579520	0.152600	10.498880	0.946165	-0.066955	0.283202	-1.000000	-1.000000	-1.000000	-1.000000	-1.000000	-1.000000	-1.000000	58.758621	0.000000	-1.000000	-1.000000	1209232.000000	1772739816.386825
-15517.755000	-19143.180000	-10935.135000	-3815.460000	-15543.720000	-10672.110000	-13576.950000	7112.295000	11.603503	9.380118	1.802302	1.002969	1.892313	1.014119	5.355515	1.048553	-17.579520	0.152600	10.498880	0.946165	-0.066955	0.283202	-1.000000	-1.000000	-1.000000	-1.000000	-1.000000	-1.000000	-1.000000	58.758621	0.000000	-1.000000	-1.000000	1209233.000000	1772739816.398846
-15517.305000	-19096.605000	-10817.865000	-3740.940000	-15504.300000	-10648.800000	-13568.805000	7116.570000	7.193784	8.125978	-1.582996	-4.260440	-2.446583	-2.594184	4.852911	-7.088675	-17.579520	0.152600	10.498880	0.946165	-0.066955	0.283202	-1.000000	-1.000000	-1.000000	-1.000000	-1.000000	-1.000000	-1.000000	58.758621	0.000000	-1.000000	-1.000000	1209234.000000	1772739816.398857
-15538.095000	-19102.635000	-10836.000000	-3771.270000	-15539.490000	-10686.555000	-13594.320000	7090.380000	-0.727844	6.074174	5.927545	0.621926	0.318147	-0.042353	3.317454	-16.131609	-17.579520	0.152600	10.498880	0.946165	-0.066955	0.283202	-1.000000	-1.000000	-1.000000	-1.000000	-1.000000	-1.000000	-1.000000	58.758621	0.000000	-1.000000	-1.000000	1209235.000000	1772739816.398868
-15534.675000	-19154.160000	-10922.265000	-3834.090000	-15583.320000	-10725.390000	-13608.810000	7092.270000	-8.915050	5.055409	19.877518	11.550218	7.093540	5.682509	1.097205	-19.783055	-17.579520	0.152600	10.498880	0.946165	-0.066955	0.283202	-1.000000	-1.000000	-1.000000	-1.000000	-1.000000	-1.000000	-1.000000	58.758621	0.000000	-1.000000	-1.000000	1209236.000000	1772739816.398872
-15544.980000	-19182.645000	-10944.855000	-3843.585000	-15586.830000	-10729.665000	-13585.095000	7133.760000	-14.676740	1.240878	22.611473	14.898920	8.681482	7.076548	-1.678651	-13.921237	-17.579520	0.152600	10.498880	0.946165	-0.066955	0.283202	-1.000000	-1.000000	-1.000000	-1.000000	-1.000000	-1.000000	-1.000000	58.758621	0.000000	-1.000000	-1.000000	1209237.000000	1772739816.416147
-15573.060000	-19192.140000	-10955.205000	-3847.185000	-15587.595000	-10727.595000	-13587.525000	7119.495000	-16.755333	-7.879892	6.339959	4.977556	1.886528	1.954207	-3.443375	-0.369958	-17.579520	0.152600	10.498880	0.946165	-0.066955	0.283202	-1.000000	-1.000000	-1.000000	-1.000000	-1.000000	-1.000000	-1.000000	58.758621	0.000000	-1.000000	-1.000000	1209238.000000	1772739816.416158
-15553.305000	-19149.435000	-10893.645000	-3811.815000	-15565.545000	-10711.215000	-13592.745000	7112.520000	-14.477106	-17.022632	-16.643270	-9.557920	-6.815512	-4.411976	-3.660859	12.460591	-17.579520	0.152600	10.498880	0.946165	-0.066955	0.283202	-1.000000	-1.000000	-1.000000	-1.000000	-1.000000	-1.000000	-1.000000	58.758621	0.000000	-1.000000	-1.000000	1209239.000000	1772739816.416169
-15558.030000	-19129.950000	-10871.190000	-3783.105000	-15533.505000	-10676.745000	-13591.485000	7070.355000	-7.977985	-17.410768	-26.827306	-15.513286	-8.676252	-5.392044	-3.073328	16.754973	-17.579520	0.152600	10.498880	0.946165	-0.066955	0.283202	-1.000000	-1.000000	-1.000000	-1.000000	-1.000000	-1.000000	-1.000000	58.758621	0.000000	-1.000000	-1.000000	1209240.000000	1772739816.416173
-15581.745000	-19145.745000	-10882.890000	-3778.200000	-15516.585000	-10648.755000	-13588.065000	7034.130000	0.294764	-6.659568	-16.850782	-8.367234	-1.792260	0.172480	-1.928846	11.030334	-18.113620	4.532220	14.710640	0.948240	-0.070679	0.276244	-1.000000	-1.000000	-1.000000	-1.000000	-1.000000	-1.000000	-1.000000	58.758621	0.000000	-1.000000	-1.000000	1209241.000000	1772739816.416178
-15546.195000	-19128.465000	-10868.490000	-3769.785000	-15514.200000	-10652.400000	-13579.965000	7098.210000	7.727843	8.428200	2.168307	3.861770	7.071458	6.719293	-0.576565	-0.184509	-18.113620	4.532220	14.710640	0.948240	-0.070679	0.276244	-1.000000	-1.000000	-1.000000	-1.000000	-1.000000	-1.000000	-1.000000	58.758621	0.000000	-1.000000	-1.000000	1209242.000000	1772739816.416181
-15548.985000	-19091.790000	-10828.440000	-3736.575000	-15489.765000	-10638.405000	-13570.920000	7055.280000	14.278783	19.052903	14.138976	10.494718	10.416144	8.386676	0.865563	-8.551029	-18.113620	4.532220	14.710640	0.948240	-0.070679	0.276244	-1.000000	-1.000000	-1.000000	-1.000000	-1.000000	-1.000000	-1.000000	58.758621	0.000000	-1.000000	-1.000000	1209243.000000	1772739816.416185
-15525.855000	-19072.620000	-10823.940000	-3744.855000	-15503.580000	-10654.965000	-13588.650000	7044.660000	19.514308	21.748024	14.217038	9.252474	7.518649	5.038206	2.837001	-9.043878	-18.113620	4.532220	14.710640	0.948240	-0.070679	0.276244	-1.000000	-1.000000	-1.000000	-1.000000	-1.000000	-1.000000	-1.000000	58.758621	0.000000	-1.000000	-1.000000	1209244.000000	1772739816.416189
-15475.815000	-19089.720000	-10864.530000	-3780.315000	-15530.310000	-10685.340000	-13606.290000	7146.045000	21.226367	18.056361	8.162624	4.311355	1.837794	-0.193197	4.393056	-2.478877	-18.113620	4.532220	14.710640	0.948240	-0.070679	0.276244	-1.000000	-1.000000	-1.000000	-1.000000	-1.000000	-1.000000	-1.000000	58.758621	0.000000	-1.000000	-1.000000	1209245.000000	1772739816.416193
-15498.405000	-19108.845000	-10883.160000	-3787.920000	-15532.425000	-10682.280000	-13590.675000	7130.880000	17.847185	9.689613	1.103599	-1.553145	-4.502279	-5.508530	3.526303	8.006373	-18.113620	4.532220	14.710640	0.948240	-0.070679	0.276244	-1.000000	-1.000000	-1.000000	-1.000000	-1.000000	-1.000000	-1.000000	58.758621	0.000000	-1.000000	-1.000000	1209246.000000	1772739816.416196
-15543.990000	-19170.855000	-10923.390000	-3824.370000	-15562.395000	-10701.405000	-13577.490000	7175.925000	8.341407	-3.270715	-6.433533	-7.966815	-10.535676	-9.960685	0.450564	16.690996	-18.113620	4.532220	14.710640	0.948240	-0.070679	0.276244	-1.000000	-1.000000	-1.000000	-1.000000	-1.000000	-1.000000	-1.000000	58.758621	0.000000	-1.000000	-1.000000	1209247.000000	1772739816.422248
-15542.550000	-19163.790000	-10913.355000	-3832.200000	-15571.215000	-10712.295000	-13600.260000	7126.245000	-7.021416	-19.373792	-14.358366	-14.151260	-14.938871	-12.459223	-2.384315	17.822783	-18.113620	4.532220	14.710640	0.948240	-0.070679	0.276244	-1.000000	-1.000000	-1.000000	-1.000000	-1.000000	-1.000000	-1.000000	58.758621	0.000000	-1.000000	-1.000000	1209248.000000	1772739816.422258
-15554.070000	-19148.355000	-10904.265000	-3824.505000	-15561.945000	-10694.205000	-13600.395000	7097.670000	-23.110612	-31.860307	-19.109237	-17.559980	-16.143508	-12.417285	-3.671863	9.912311	-18.113620	4.532220	14.710640	0.948240	-0.070679	0.276244	-1.000000	-1.000000	-1.000000	-1.000000	-1.000000	-1.000000	-1.000000	58.758621	0.000000	-1.000000	-1.000000	1209249.000000	1772739816.426565
-15493.905000	-19090.800000	-10874.880000	-3765.870000	-15511.770000	-10650.285000	-13566.195000	7143.390000	-30.650433	-30.922228	-15.540612	-14.266875	-12.138852	-8.962364	-3.417133	-3.604450	-18.113620	4.532220	14.710640	0.948240	-0.070679	0.276244	-1.000000	-1.000000	-1.000000	-1.000000	-1.000000	-1.000000	-1.000000	58.758621	0.000000	-1.000000	-1.000000	1209250.000000	1772739816.426575
-15419.025000	-19035.360000	-10790.910000	-3684.105000	-15435.720000	-10584.855000	-13518.855000	7140.870000	-22.638204	-13.066597	-2.691113	-1.905550	-1.095480	-0.317537	-0.716706	-15.797408	-11.658640	9.705360	9.568020	0.958982	-0.075073	0.274719	-1.000000	-1.000000	-1.000000	-1.000000	-1.000000	-1.000000	-1.000000	58.758621	0.000000	-1.000000	-1.000000	1209251.000000	1772739816.451382
-15507.225000	-19054.440000	-10783.395000	-3688.875000	-15437.070000	-10590.705000	-13569.345000	7080.750000	-2.589124	12.748546	14.242082	16.024284	15.057231	12.880241	4.178007	-21.218533	-11.658640	9.705360	9.568020	0.958982	-0.075073	0.274719	-1.000000	-1.000000	-1.000000	-1.000000	-1.000000	-1.000000	-1.000000	58.758621	0.000000	-1.000000	-1.000000	1209252.000000	1772739816.451393
-15584.940000	-19154.790000	-10904.580000	-3819.330000	-15566.670000	-10715.715000	-13635.540000	7095.510000	13.555184	29.660995	25.359481	28.391509	26.856367	22.898148	6.582400	-19.778446	-11.658640	9.705360	9.568020	0.958982	-0.075073	0.274719	-1.000000	-1.000000	-1.000000	-1.000000	-1.000000	-1.000000	-1.000000	58.758621	0.000000	-1.000000	-1.000000	1209253.000000	1772739816.451784
-15617.295000	-19248.390000	-10993.680000	-3897.990000	-15633.045000	-10761.840000	-13597.515000	7112.565000	11.544122	25.179266	20.834124	23.139906	22.375647	19.099403	2.413387	-14.584813	-11.658640	9.705360	9.568020	0.958982	-0.075073	0.274719	-1.000000	-1.000000	-1.000000	-1.000000	-1.000000	-1.000000	-1.000000	58.758621	0.000000	-1.000000	-1.000000	1209254.000000	1772739816.451792
-15571.845000	-19214.865000	-10972.620000	-3879.540000	-15615.180000	-10747.575000	-13602.555000	7118.640000	-3.905593	3.039141	1.466530	0.903800	1.383127	1.103832	-5.244696	-7.689038	-11.658640	9.705360	9.568020	0.958982	-0.075073	0.274719	-1.000000	-1.000000	-1.000000	-1.000000	-1.000000	-1.000000	-1.000000	58.758621	0.000000	-1.000000	-1.000000	1209255.000000	1772739816.451801
-15556.185000	-19189.215000	-10946.790000	-3851.280000	-15586.155000	-10723.095000	-13603.095000	7114.770000	-13.950685	-17.722630	-18.060967	-21.640950	-20.320526	-17.560911	-10.011271	0.512975	-11.658640	9.705360	9.568020	0.958982	-0.075073	0.274719	-1.000000	-1.000000	-1.000000	-1.000000	-1.000000	-1.000000	-1.000000	58.758621	0.000000	-1.000000	-1.000000	1209256.000000	1772739816.451805
-15532.245000	-19143.225000	-10895.355000	-3798.855000	-15533.550000	-10667.520000	-13576.320000	7123.275000	-7.066259	-20.324673	-22.442367	-26.852389	-25.572704	-22.228061	-8.235982	9.840748	-11.658640	9.705360	9.568020	0.958982	-0.075073	0.274719	-1.000000	-1.000000	-1.000000	-1.000000	-1.000000	-1.000000	-1.000000	58.758621	0.000000	-1.000000	-1.000000	1209257.000000	1772739816.451809
-15547.230000	-19151.955000	-10901.475000	-3803.535000	-15538.320000	-10669.140000	-13593.555000	7107.885000	10.942489	-5.123838	-9.559137	-12.251359	-11.828449	-10.573460	-0.799893	18.634878	-11.658640	9.705360	9.568020	0.958982	-0.075073	0.274719	-1.000000	-1.000000	-1.000000	-1.000000	-1.000000	-1.000000	-1.000000	58.758621	0.000000	-1.000000	-1.000000	1209258.000000	1772739816.451813
-15561.315000	-19161.180000	-10913.760000	-3818.745000	-15556.950000	-10692.405000	-13613.985000	7096.410000	24.344254	13.076815	8.627120	8.173867	7.578050	5.965197	6.129485	21.710685	-11.658640	9.705360	9.568020	0.958982	-0.075073	0.274719	-1.000000	-1.000000	-1.000000	-1.000000	-1.000000	-1.000000	-1.000000	58.758621	0.000000	-1.000000	-1.000000	1209259.000000	1772739816.451817
-15519.015000	-19111.545000	-10869.660000	-3776.490000	-15515.370000	-10660.140000	-13619.115000	7088.760000	22.306055	19.895065	17.267239	17.895676	16.961455	13.817825	6.236914	15.317492	-11.658640	9.705360	9.568020	0.958982	-0.075073	0.274719	-1.000000	-1.000000	-1.000000	-1.000000	-1.000000	-1.000000	-1.000000	58.758621	0.000000	-1.000000	-1.000000	1209260.000000	1772739816.451820
-15466.815000	-19046.745000	-10817.730000	-3735.090000	-15458.805000	-10608.480000	-13576.905000	7102.485000	10.298217	15.249742	13.811541	14.711122	14.447151	11.716138	1.890186	3.913474	-11.673900	9.659580	5.157880	0.949338	-0.074707	0.273681	-1.000000	-1.000000	-1.000000	-1.000000	-1.000000	-1.000000	-1.000000	58.758621	0.000000	-1.000000	-1.000000	1209261.000000	1772739816.451824
-15509.115000	-19097.505000	-10871.865000	-3799.080000	-15526.530000	-10667.565000	-13551.345000	7082.280000	1.639641	9.827140	8.461760	9.437325	10.349486	9.076383	1.837682	-5.555494	-11.673900	9.659580	5.157880	0.949338	-0.074707	0.273681	-1.000000	-1.000000	-1.000000	-1.000000	-1.000000	-1.000000	-1.000000	58.758621	0.000000	-1.000000	-1.000000	1209262.000000	1772739816.451828
-15561.585000	-19094.715000	-10886.850000	-3756.600000	-15507.630000	-10653.930000	-13544.415000	7079.670000	-1.019976	8.838449	7.932969	9.174664	10.222510	10.252366	8.267331	-11.427672	-11.673900	9.659580	5.157880	0.949338	-0.074707	0.273681	-1.000000	-1.000000	-1.000000	-1.000000	-1.000000	-1.000000	-1.000000	58.758621	0.000000	-1.000000	-1.000000	1209263.000000	1772739816.451832
-15608.655000	-19106.370000	-10899.765000	-3735.090000	-15472.620000	-10624.860000	-13564.980000	6996.060000	-5.738625	7.229993	7.713319	11.045254	10.084289	10.529450	13.447990	-15.329636	-11.673900	9.659580	5.157880	0.949338	-0.074707	0.273681	-1.000000	-1.000000	-1.000000	-1.000000	-1.000000	-1.000000	-1.000000	58.758621	0.000000	-1.000000	-1.000000	1209264.000000	1772739816.451836
-15612.840000	-19222.650000	-10984.905000	-3858.390000	-15587.415000	-10717.965000	-13617.810000	7053.435000	-16.724892	-2.803598	-0.239228	6.959133	3.558225	3.973954	9.324969	-17.082206	-11.673900	9.659580	5.157880	0.949338	-0.074707	0.273681	-1.000000	-1.000000	-1.000000	-1.000000	-1.000000	-1.000000	-1.000000	58.758621	0.000000	-1.000000	-1.000000	1209265.000000	1772739816.462714
-15557.670000	-19199.925000	-10927.980000	-3858.480000	-15595.020000	-10719.540000	-13612.590000	7124.535000	-26.934708	-22.790224	-16.951703	-9.355100	-12.966055	-11.756500	-4.550318	-11.802243	-11.673900	9.659580	5.157880	0.949338	-0.074707	0.273681	-1.000000	-1.000000	-1.000000	-1.000000	-1.000000	-1.000000	-1.000000	58.758621	0.000000	-1.000000	-1.000000	1209266.000000	1772739816.462724
-15567.345000	-19147.860000	-10870.065000	-3794.850000	-15531.120000	-10662.795000	-13595.805000	7022.745000	-25.458013	-40.994082	-30.970019	-31.002870	-32.378622	-29.535068	-19.692294	2.359396	-11.673900	9.659580	5.157880	0.949338	-0.074707	0.273681	-1.000000	-1.000000	-1.000000	-1.000000	-1.000000	-1.000000	-1.000000	58.758621	0.000000	-1.000000	-1.000000	1209267.000000	1772739816.462735
-15529.185000	-19124.145000	-10861.740000	-3783.555000	-15523.155000	-10661.400000	-13596.255000	7044.165000	-10.288575	-40.890809	-28.872873	-40.494045	-38.831633	-35.054639	-25.119046	16.131031	-11.673900	9.659580	5.157880	0.949338	-0.074707	0.273681	-1.000000	-1.000000	-1.000000	-1.000000	-1.000000	-1.000000	-1.000000	58.758621	0.000000	-1.000000	-1.000000	1209268.000000	1772739816.462739
-15496.920000	-19139.805000	-10897.470000	-3818.205000	-15560.820000	-10702.350000	-13591.485000	7183.305000	10.243065	-20.134019	-12.136031	-30.007560	-26.269319	-23.290910	-17.131725	22.016449	-11.673900	9.659580	5.157880	0.949338	-0.074707	0.273681	-1.000000	-1.000000	-1.000000	-1.000000	-1.000000	-1.000000	-1.000000	58.758621	0.000000	-1.000000	-1.000000	1209269.000000	1772739816.462743
-15532.425000	-19155.780000	-10912.230000	-3831.795000	-15572.655000	-10716.615000	-13585.410000	7137.540000	25.406009	7.836905	6.176375	-7.479946	-3.863434	-3.107815	-1.362767	22.561810	-11.673900	9.659580	5.157880	0.949338	-0.074707	0.273681	-1.000000	-1.000000	-1.000000	-1.000000	-1.000000	-1.000000	-1.000000	58.758621	0.000000	-1.000000	-1.000000	1209270.000000	1772739816.462747
-15553.665000	-19155.510000	-10885.635000	-3795.705000	-15533.145000	-10680.075000	-13581.270000	7058.700000	28.324667	29.183938	18.112858	16.321451	17.980817	15.913923	12.693595	17.267196	-6.271860	9.919000	7.706300	0.940488	-0.087646	0.278259	-1.000000	-1.000000	-1.000000	-1.000000	-1.000000	-1.000000	-1.000000	58.758621	0.000000	-1.000000	-1.000000	1209271.000000	1772739816.466753
-15510.555000	-19111.095000	-10835.955000	-3740.400000	-15475.365000	-10622.160000	-13550.940000	7096.815000	20.314327	38.510717	24.778185	34.444957	34.267903	29.863914	18.697781	2.703010	-6.271860	9.919000	7.706300	0.940488	-0.087646	0.278259	-1.000000	-1.000000	-1.000000	-1.000000	-1.000000	-1.000000	-1.000000	58.758621	0.000000	-1.000000	-1.000000	1209272.000000	1772739816.466760
-15548.400000	-19091.610000	-10827.495000	-3739.725000	-15477.615000	-10622.745000	-13562.820000	7132.140000	8.600426	36.931295	28.028957	41.859481	41.144526	36.131618	17.118632	-14.184112	-6.271860	9.919000	7.706300	0.940488	-0.087646	0.278259	-1.000000	-1.000000	-1.000000	-1.000000	-1.000000	-1.000000	-1.000000	58.758621	0.000000	-1.000000	-1.000000	1209273.000000	1772739816.475116
-15514.830000	-19038.375000	-10818.855000	-3751.830000	-15501.510000	-10644.255000	-13600.125000	7040.070000	-2.066014	28.884268	26.074773	36.542092	35.707277	32.015713	11.325483	-23.693821	-6.271860	9.919000	7.706300	0.940488	-0.087646	0.278259	-1.000000	-1.000000	-1.000000	-1.000000	-1.000000	-1.000000	-1.000000	58.758621	0.000000	-1.000000	-1.000000	1209274.000000	1772739816.475127
-15503.355000	-19094.715000	-10884.150000	-3799.620000	-15537.555000	-10670.310000	-13609.980000	7044.255000	-10.664755	16.774506	14.536562	19.352270	17.961563	16.619360	2.715925	-26.100373	-6.271860	9.919000	7.706300	0.940488	-0.087646	0.278259	-1.000000	-1.000000	-1.000000	-1.000000	-1.000000	-1.000000	-1.000000	58.758621	0.000000	-1.000000	-1.000000	1209275.000000	1772739816.475157
-15499.395000	-19178.730000	-10933.515000	-3832.155000	-15562.890000	-10688.670000	-13590.360000	7165.170000	-16.060281	-2.901767	-9.128018	-7.413345	-8.885303	-7.337133	-7.101674	-21.399696	-6.271860	9.919000	7.706300	0.940488	-0.087646	0.278259	-1.000000	-1.000000	-1.000000	-1.000000	-1.000000	-1.000000	-1.000000	58.758621	0.000000	-1.000000	-1.000000	1209276.000000	1772739816.475162
-15494.490000	-19159.920000	-10909.800000	-3814.785000	-15548.760000	-10678.635000	-13564.530000	7209.180000	-17.566121	-30.262828	-37.247582	-35.560879	-35.659386	-30.995403	-13.408245	-5.073426	-6.271860	9.919000	7.706300	0.940488	-0.087646	0.278259	-1.000000	-1.000000	-1.000000	-1.000000	-1.000000	-1.000000	-1.000000	58.758621	0.000000	-1.000000	-1.000000	1209277.000000	1772739816.488503
-15531.840000	-19139.580000	-10916.550000	-3828.690000	-15566.085000	-10709.640000	-13597.065000	7142.085000	-16.212530	-52.030000	-52.254137	-50.351212	-48.578736	-42.101407	-12.640155	15.820217	-6.271860	9.919000	7.706300	0.940488	-0.087646	0.278259	-1.000000	-1.000000	-1.000000	-1.000000	-1.000000	-1.000000	-1.000000	58.758621	0.000000	-1.000000	-1.000000	1209278.000000	1772739816.488514
-15547.455000	-19120.365000	-10913.040000	-3819.105000	-15559.650000	-10707.840000	-13609.215000	7061.175000	-12.617316	-51.196244	-41.846593	-41.882223	-39.612038	-34.490136	-7.335644	24.274511	-6.271860	9.919000	7.706300	0.940488	-0.087646	0.278259	-1.000000	-1.000000	-1.000000	-1.000000	-1.000000	-1.000000	-1.000000	58.758621	0.000000	-1.000000	-1.000000	1209279.000000	1772739816.488524
-15534.450000	-19107.315000	-10887.840000	-3790.845000	-15533.055000	-10682.460000	-13600.980000	7046.640000	-5.748294	-25.055830	-10.885115	-14.936892	-14.119539	-13.344819	-2.655553	14.206541	-6.271860	9.919000	7.706300	0.940488	-0.087646	0.278259	-1.000000	-1.000000	-1.000000	-1.000000	-1.000000	-1.000000	-1.000000	58.758621	0.000000	-1.000000	-1.000000	1209280.000000	1772739816.488528
-15493.905000	-19071.045000	-10809.405000	-3745.350000	-15496.110000	-10644.030000	-13555.395000	7129.215000	4.762226	11.607908	24.026668	15.259486	13.656332	9.679234	0.231333	-3.535998	1.983800	13.444060	9.491720	0.948911	-0.101989	0.284972	-1.000000	-1.000000	-1.000000	-1.000000	-1.000000	-1.000000	-1.000000	58.758621	0.000000	-1.000000	-1.000000	1209281.000000	1772739816.488533
-15495.885000	-19056.240000	-10799.910000	-3762.000000	-15512.490000	-10653.840000	-13578.210000	7141.725000	16.346471	39.425266	47.617811	35.172565	31.619641	25.251479	3.935003	-13.285996	1.983800	13.444060	9.491720	0.948911	-0.101989	0.284972	-1.000000	-1.000000	-1.000000	-1.000000	-1.000000	-1.000000	-1.000000	58.758621	0.000000	-1.000000	-1.000000	1209282.000000	1772739816.488536
-15551.820000	-19163.115000	-10926.810000	-3838.005000	-15562.620000	-10684.170000	-13600.980000	7119.045000	22.364641	45.417934	50.103443	38.207131	34.775398	29.507449	8.837139	-8.462669	1.983800	13.444060	9.491720	0.948911	-0.101989	0.284972	-1.000000	-1.000000	-1.000000	-1.000000	-1.000000	-1.000000	-1.000000	58.758621	0.000000	-1.000000	-1.000000	1209283.000000	1772739816.490451
-15508.350000	-19122.930000	-10883.880000	-3771.315000	-15514.920000	-10650.915000	-13575.915000	7133.805000	16.824212	28.341663	29.422671	25.205542	24.501441	22.895877	11.518897	4.268668	1.983800	13.444060	9.491720	0.948911	-0.101989	0.284972	-1.000000	-1.000000	-1.000000	-1.000000	-1.000000	-1.000000	-1.000000	58.758621	0.000000	-1.000000	-1.000000	1209284.000000	1772739816.490460
-15512.490000	-19135.530000	-10873.125000	-3767.175000	-15507.720000	-10649.115000	-13581.315000	7113.420000	2.879628	1.671738	-2.145294	5.787892	8.282570	10.239837	9.282952	11.852015	1.983800	13.444060	9.491720	0.948911	-0.101989	0.284972	-1.000000	-1.000000	-1.000000	-1.000000	-1.000000	-1.000000	-1.000000	58.758621	0.000000	-1.000000	-1.000000	1209285.000000	1772739816.497646
-15568.650000	-19186.470000	-10948.185000	-3837.870000	-15562.035000	-10698.840000	-13601.340000	7054.470000	-10.738468	-18.332909	-26.854488	-9.810376	-5.904527	-2.545604	2.390351	5.435875	1.983800	13.444060	9.491720	0.948911	-0.101989	0.284972	-1.000000	-1.000000	-1.000000	-1.000000	-1.000000	-1.000000	-1.000000	58.758621	0.000000	-1.000000	-1.000000	1209286.000000	1772739816.497653
-15563.700000	-19164.285000	-10926.270000	-3826.890000	-15557.895000	-10703.745000	-13598.505000	7045.425000	-17.987378	-25.989224	-36.417773	-18.740745	-15.099229	-12.171272	-6.063041	-10.576703	1.983800	13.444060	9.491720	0.948911	-0.101989	0.284972	-1.000000	-1.000000	-1.000000	-1.000000	-1.000000	-1.000000	-1.000000	58.758621	0.000000	-1.000000	-1.000000	1209287.000000	1772739816.503201
-15535.665000	-19151.370000	-10902.375000	-3811.815000	-15546.690000	-10692.765000	-13594.995000	7088.985000	-15.483271	-22.177879	-30.529577	-20.901803	-18.529662	-16.725558	-11.245794	-19.877500	1.983800	13.444060	9.491720	0.948911	-0.101989	0.284972	-1.000000	-1.000000	-1.000000	-1.000000	-1.000000	-1.000000	-1.000000	58.758621	0.000000	-1.000000	-1.000000	1209288.000000	1772739816.503210
-15552.765000	-19159.785000	-10909.890000	-3821.310000	-15552.675000	-10690.560000	-13586.355000	7099.335000	-4.348564	-10.327989	-13.978190	-16.948953	-16.581896	-15.918250	-10.716440	-11.337267	1.983800	13.444060	9.491720	0.948911	-0.101989	0.284972	-1.000000	-1.000000	-1.000000	-1.000000	-1.000000	-1.000000	-1.000000	58.758621	0.000000	-1.000000	-1.000000	1209289.000000	1772739816.503219
-15559.290000	-19151.910000	-10901.925000	-3808.620000	-15540.345000	-10670.580000	-13576.950000	7106.985000	7.526166	2.571596	2.954404	-10.029775	-11.594822	-11.547888	-6.112497	7.723692	1.983800	13.444060	9.491720	0.948911	-0.101989	0.284972	-1.000000	-1.000000	-1.000000	-1.000000	-1.000000	-1.000000	-1.000000	58.758621	0.000000	-1.000000	-1.000000	1209290.000000	1772739816.503222
-15545.475000	-19130.355000	-10872.000000	-3774.195000	-15506.820000	-10634.355000	-13573.440000	7095.150000	12.849976	11.146752	13.164414	-1.358061	-4.012129	-4.094751	0.307018	21.430241	2.395820	12.024880	7.797860	0.950742	-0.108398	0.287475	-1.000000	-1.000000	-1.000000	-1.000000	-1.000000	-1.000000	-1.000000	58.758621	0.000000	-1.000000	-1.000000	1209291.000000	1772739816.506384
-15554.160000	-19130.760000	-10873.170000	-3776.130000	-15511.230000	-10644.210000	-13586.265000	7039.125000	11.319692	15.855766	18.617410	10.068522	6.962858	6.398314	6.775072	21.230530	2.395820	12.024880	7.797860	0.950742	-0.108398	0.287475	-1.000000	-1.000000	-1.000000	-1.000000	-1.000000	-1.000000	-1.000000	58.758621	0.000000	-1.000000	-1.000000	1209292.000000	1772739816.506391
-15526.845000	-19119.330000	-10861.110000	-3763.080000	-15499.845000	-10636.200000	-13569.885000	7085.160000	6.167143	18.149740	21.825055	20.371748	17.190346	15.481237	10.234847	8.759071	2.395820	12.024880	7.797860	0.950742	-0.108398	0.287475	-1.000000	-1.000000	-1.000000	-1.000000	-1.000000	-1.000000	-1.000000	58.758621	0.000000	-1.000000	-1.000000	1209293.000000	1772739816.510496
-15500.295000	-19107.630000	-10852.290000	-3755.880000	-15494.670000	-10636.065000	-13578.300000	7123.680000	0.983794	16.782227	20.311753	22.643898	20.058543	17.407101	8.517698	-6.458809	2.395820	12.024880	7.797860	0.950742	-0.108398	0.287475	-1.000000	-1.000000	-1.000000	-1.000000	-1.000000	-1.000000	-1.000000	58.758621	0.000000	-1.000000	-1.000000	1209294.000000	1772739816.510504
-15541.335000	-19108.170000	-10860.345000	-3770.685000	-15512.985000	-10663.920000	-13619.745000	7035.660000	-0.973693	10.983377	12.880828	15.869293	14.419433	11.799963	2.645946	-13.812809	2.395820	12.024880	7.797860	0.950742	-0.108398	0.287475	-1.000000	-1.000000	-1.000000	-1.000000	-1.000000	-1.000000	-1.000000	58.758621	0.000000	-1.000000	-1.000000	1209295.000000	1772739816.514460
-15577.470000	-19130.445000	-10890.540000	-3804.120000	-15543.855000	-10685.160000	-13590.495000	7020.900000	-0.785634	1.415607	1.407192	3.793885	3.620675	2.109433	-4.381101	-11.833940	2.395820	12.024880	7.797860	0.950742	-0.108398	0.287475	-1.000000	-1.000000	-1.000000	-1.000000	-1.000000	-1.000000	-1.000000	58.758621	0.000000	-1.000000	-1.000000	1209296.000000	1772739816.514469
-15576.615000	-19162.935000	-10915.920000	-3822.885000	-15555.465000	-10687.095000	-13568.670000	7032.780000	-3.024927	-11.058233	-12.572949	-10.584462	-9.163564	-8.532458	-8.484648	-6.510982	2.395820	12.024880	7.797860	0.950742	-0.108398	0.287475	-1.000000	-1.000000	-1.000000	-1.000000	-1.000000	-1.000000	-1.000000	58.758621	0.000000	-1.000000	-1.000000	1209297.000000	1772739816.518457
-15543.315000	-19137.330000	-10897.425000	-3806.190000	-15542.550000	-10677.330000	-13586.490000	7015.005000	-7.764549	-22.969553	-25.650143	-23.156188	-19.871694	-16.806439	-7.416086	-2.807311	2.395820	12.024880	7.797860	0.950742	-0.108398	0.287475	-1.000000	-1.000000	-1.000000	-1.000000	-1.000000	-1.000000	-1.000000	58.758621	0.000000	-1.000000	-1.000000	1209298.000000	1772739816.518466
-15504.390000	-19074.330000	-10836.090000	-3744.270000	-15483.915000	-10618.605000	-13556.520000	7093.080000	-9.211255	-27.027984	-30.383143	-26.766744	-22.375006	-18.327606	-2.934539	-0.956691	2.395820	12.024880	7.797860	0.950742	-0.108398	0.287475	-1.000000	-1.000000	-1.000000	-1.000000	-1.000000	-1.000000	-1.000000	58.758621	0.000000	-1.000000	-1.000000	1209299.000000	1772739816.522367
-15505.605000	-19090.170000	-10869.255000	-3754.035000	-15490.080000	-10624.725000	-13579.830000	7020.405000	-3.686477	-18.144506	-21.354711	-17.021394	-13.293625	-10.749149	2.181330	2.241860	2.395820	12.024880	7.797860	0.950742	-0.108398	0.287475	-1.000000	-1.000000	-1.000000	-1.000000	-1.000000	-1.000000	-1.000000	58.758621	0.000000	-1.000000	-1.000000	1209300.000000	1772739816.522375
-15583.185000	-19175.310000	-10977.705000	-3829.590000	-15551.640000	-10674.855000	-13587.030000	7073.325000	4.052187	-1.704011	-4.265597	-0.053212	1.715934	1.507574	5.394666	7.470345	-2.807840	8.347220	9.094960	0.941404	-0.118835	0.288329	-1.000000	-1.000000	-1.000000	-1.000000	-1.000000	-1.000000	-1.000000	58.758621	0.000000	-1.000000	-1.000000	1209301.000000	1772739816.526524
-15611.040000	-19179.000000	-10944.090000	-3819.465000	-15547.005000	-10672.605000	-13570.335000	7097.310000	4.587745	9.647265	7.950668	11.359866	11.429571	9.626253	4.801062	11.341795	-2.807840	8.347220	9.094960	0.941404	-0.118835	0.288329	-1.000000	-1.000000	-1.000000	-1.000000	-1.000000	-1.000000	-1.000000	58.758621	0.000000	-1.000000	-1.000000	1209302.000000	1772739816.526535
-15529.455000	-19119.465000	-10839.510000	-3778.740000	-15525.450000	-10667.070000	-13555.845000	7132.815000	-3.083407	10.789817	12.114791	12.514549	11.471415	10.031096	2.111077	11.765116	-2.807840	8.347220	9.094960	0.941404	-0.118835	0.288329	-1.000000	-1.000000	-1.000000	-1.000000	-1.000000	-1.000000	-1.000000	58.758621	0.000000	-1.000000	-1.000000	1209303.000000	1772739816.530803
-15502.230000	-19122.345000	-10861.605000	-3806.055000	-15552.945000	-10697.265000	-13573.530000	7169.940000	-7.311667	8.165963	16.042366	9.614517	7.098489	6.602340	0.900021	11.124732	-2.807840	8.347220	9.094960	0.941404	-0.118835	0.288329	-1.000000	-1.000000	-1.000000	-1.000000	-1.000000	-1.000000	-1.000000	58.758621	0.000000	-1.000000	-1.000000	1209304.000000	1772739816.530813
-15512.670000	-19128.915000	-10888.830000	-3819.015000	-15571.215000	-10720.395000	-13605.615000	7156.755000	0.417435	7.979138	21.570982	7.834736	3.567011	3.093746	0.571286	11.365971	-2.807840	8.347220	9.094960	0.941404	-0.118835	0.288329	-1.000000	-1.000000	-1.000000	-1.000000	-1.000000	-1.000000	-1.000000	58.758621	0.000000	-1.000000	-1.000000	1209305.000000	1772739816.537756
-15520.815000	-19130.760000	-10892.340000	-3812.715000	-15558.480000	-10700.820000	-13588.200000	7151.355000	13.408922	9.564565	21.598251	6.601135	1.605286	0.067610	-2.233993	8.425714	-2.807840	8.347220	9.094960	0.941404	-0.118835	0.288329	-1.000000	-1.000000	-1.000000	-1.000000	-1.000000	-1.000000	-1.000000	58.758621	0.000000	-1.000000	-1.000000	1209306.000000	1772739816.537765
-15550.920000	-19146.960000	-10902.240000	-3806.325000	-15536.025000	-10663.515000	-13592.070000	7044.345000	18.194500	8.485497	11.327560	3.868546	0.468150	-1.861021	-6.721850	-3.643119	-2.807840	8.347220	9.094960	0.941404	-0.118835	0.288329	-1.000000	-1.000000	-1.000000	-1.000000	-1.000000	-1.000000	-1.000000	58.758621	0.000000	-1.000000	-1.000000	1209307.000000	1772739816.538491
-15540.120000	-19128.690000	-10874.115000	-3777.075000	-15510.240000	-10637.055000	-13593.690000	7042.905000	8.647887	1.636805	-6.072429	-0.952566	-0.319968	-1.616926	-8.755696	-24.287029	-2.807840	8.347220	9.094960	0.941404	-0.118835	0.288329	-1.000000	-1.000000	-1.000000	-1.000000	-1.000000	-1.000000	-1.000000	58.758621	0.000000	-1.000000	-1.000000	1209308.000000	1772739816.538498
-15551.280000	-19157.895000	-10894.635000	-3794.670000	-15528.195000	-10656.630000	-13583.475000	7074.720000	-8.458712	-7.796061	-20.450674	-5.477371	-0.574447	0.615111	-5.922687	-41.432313	-2.807840	8.347220	9.094960	0.941404	-0.118835	0.288329	-1.000000	-1.000000	-1.000000	-1.000000	-1.000000	-1.000000	-1.000000	58.758621	0.000000	-1.000000	-1.000000	1209309.000000	1772739816.556004
-15530.400000	-19141.155000	-10886.895000	-3791.835000	-15529.365000	-10660.725000	-13576.590000	7074.135000	-19.538005	-12.134084	-22.067278	-6.062137	0.309182	3.399148	0.989400	-40.595831	-2.807840	8.347220	9.094960	0.941404	-0.118835	0.288329	-1.000000	-1.000000	-1.000000	-1.000000	-1.000000	-1.000000	-1.000000	58.758621	0.000000	-1.000000	-1.000000	1209310.000000	1772739816.556014
-15553.890000	-19125.270000	-10881.270000	-3790.395000	-15532.380000	-10670.580000	-13576.140000	7060.095000	-17.153331	-7.665870	-11.662878	-2.588824	1.620207	4.634957	8.171147	-21.282657	-6.241340	7.523180	14.039200	0.939390	-0.128296	0.288207	-1.000000	-1.000000	-1.000000	-1.000000	-1.000000	-1.000000	-1.000000	58.758621	0.000000	-1.000000	-1.000000	1209311.000000	1772739816.556025
-15567.255000	-19132.920000	-10892.295000	-3804.480000	-15551.865000	-10693.080000	-13562.235000	7123.680000	-6.706367	1.052164	0.105069	0.952823	1.296819	2.756115	11.588425	5.293716	-6.241340	7.523180	14.039200	0.939390	-0.128296	0.288207	-1.000000	-1.000000	-1.000000	-1.000000	-1.000000	-1.000000	-1.000000	58.758621	0.000000	-1.000000	-1.000000	1209312.000000	1772739816.556029
-15540.705000	-19166.220000	-10940.355000	-3841.605000	-15574.770000	-10709.820000	-13582.440000	7119.135000	2.123588	6.119400	4.271446	1.063281	-1.439722	-1.535794	10.243315	28.454643	-6.241340	7.523180	14.039200	0.939390	-0.128296	0.288207	-1.000000	-1.000000	-1.000000	-1.000000	-1.000000	-1.000000	-1.000000	58.758621	0.000000	-1.000000	-1.000000	1209313.000000	1772739816.556033
-15499.755000	-19149.030000	-10916.280000	-3815.010000	-15553.980000	-10690.335000	-13572.270000	7124.580000	6.963631	4.460923	1.482513	-1.682401	-4.580265	-5.345970	5.455146	40.671393	-6.241340	7.523180	14.039200	0.939390	-0.128296	0.288207	-1.000000	-1.000000	-1.000000	-1.000000	-1.000000	-1.000000	-1.000000	58.758621	0.000000	-1.000000	-1.000000	1209314.000000	1772739816.556037
-15536.070000	-19136.970000	-10875.555000	-3782.655000	-15526.170000	-10662.435000	-13570.065000	7094.160000	10.277162	-0.206295	-1.037502	-3.438309	-5.154872	-6.066266	-0.691356	38.197609	-6.241340	7.523180	14.039200	0.939390	-0.128296	0.288207	-1.000000	-1.000000	-1.000000	-1.000000	-1.000000	-1.000000	-1.000000	58.758621	0.000000	-1.000000	-1.000000	1209315.000000	1772739816.556041
-15544.755000	-19124.415000	-10876.590000	-3784.500000	-15519.690000	-10645.920000	-13572.765000	7083.360000	11.233383	-2.905980	1.610930	-1.843337	-2.699051	-3.958058	-5.953828	23.746338	-6.241340	7.523180	14.039200	0.939390	-0.128296	0.288207	-1.000000	-1.000000	-1.000000	-1.000000	-1.000000	-1.000000	-1.000000	58.758621	0.000000	-1.000000	-1.000000	1209316.000000	1772739816.556045
-15521.985000	-19121.535000	-10877.445000	-3784.950000	-15522.300000	-10649.295000	-13571.910000	7106.985000	7.723697	-2.044541	7.169243	1.102770	0.251249	-1.404770	-8.664854	4.876065	-6.241340	7.523180	14.039200	0.939390	-0.128296	0.288207	-1.000000	-1.000000	-1.000000	-1.000000	-1.000000	-1.000000	-1.000000	58.758621	0.000000	-1.000000	-1.000000	1209317.000000	1772739816.560236
-15555.915000	-19151.280000	-10901.205000	-3806.730000	-15543.540000	-10669.095000	-13577.715000	7089.255000	1.393164	1.068607	10.625545	2.602626	1.637255	0.201231	-8.352715	-11.384182	-6.241340	7.523180	14.039200	0.939390	-0.128296	0.288207	-1.000000	-1.000000	-1.000000	-1.000000	-1.000000	-1.000000	-1.000000	58.758621	0.000000	-1.000000	-1.000000	1209318.000000	1772739816.560244
-15553.215000	-19111.815000	-10863.765000	-3785.715000	-15524.730000	-10660.140000	-13563.450000	7087.905000	-4.615762	3.956983	9.581094	2.283787	1.670863	1.126445	-5.805212	-21.846911	-6.241340	7.523180	14.039200	0.939390	-0.128296	0.288207	-1.000000	-1.000000	-1.000000	-1.000000	-1.000000	-1.000000	-1.000000	58.758621	0.000000	-1.000000	-1.000000	1209319.000000	1772739816.565703
-15490.440000	-19082.160000	-10855.845000	-3794.355000	-15531.705000	-10674.990000	-13553.190000	7127.865000	-7.416670	4.990540	4.684877	1.129638	1.515972	1.940283	-2.038338	-25.052172	-6.241340	7.523180	14.039200	0.939390	-0.128296	0.288207	-1.000000	-1.000000	-1.000000	-1.000000	-1.000000	-1.000000	-1.000000	58.758621	0.000000	-1.000000	-1.000000	1209320.000000	1772739816.565714
-15520.680000	-19116.720000	-10909.170000	-3809.565000	-15547.005000	-10688.580000	-13563.180000	7116.030000	-4.948291	4.128935	-2.014355	0.144742	1.895537	2.824748	2.027661	-20.523736	-7.553700	8.423520	15.534680	0.945798	-0.133850	0.286742	-1.000000	-1.000000	-1.000000	-1.000000	-1.000000	-1.000000	-1.000000	58.758621	0.000000	-1.000000	-1.000000	1209321.000000	1772739816.569725
-15544.845000	-19145.520000	-10923.435000	-3798.450000	-15537.105000	-10677.105000	-13584.915000	7062.705000	-0.489629	1.108869	-8.398117	0.135174	2.653810	3.540249	4.784554	-11.811184	-7.553700	8.423520	15.534680	0.945798	-0.133850	0.286742	-1.000000	-1.000000	-1.000000	-1.000000	-1.000000	-1.000000	-1.000000	58.758621	0.000000	-1.000000	-1.000000	1209322.000000	1772739816.569729
-15501.645000	-19100.655000	-10882.170000	-3795.480000	-15512.265000	-10649.880000	-13581.315000	7057.980000	0.450028	-3.736531	-12.156450	0.825715	3.040838	3.614990	4.599288	-4.169037	-7.553700	8.423520	15.534680	0.945798	-0.133850	0.286742	-1.000000	-1.000000	-1.000000	-1.000000	-1.000000	-1.000000	-1.000000	58.758621	0.000000	-1.000000	-1.000000	1209323.000000	1772739816.570536
-15486.570000	-19073.880000	-10860.795000	-3798.720000	-15507.630000	-10634.490000	-13561.560000	7077.330000	-0.899390	-7.211614	-11.132413	0.287103	2.014091	2.374845	2.016934	1.836233	-7.553700	8.423520	15.534680	0.945798	-0.133850	0.286742	-1.000000	-1.000000	-1.000000	-1.000000	-1.000000	-1.000000	-1.000000	58.758621	0.000000	-1.000000	-1.000000	1209324.000000	1772739816.570544
-15545.970000	-19141.380000	-10893.735000	-3799.080000	-15538.005000	-10659.375000	-13565.880000	7067.835000	-0.707456	-7.215313	-5.774316	-2.550880	-1.359024	-0.893899	-0.218494	8.745692	-7.553700	8.423520	15.534680	0.945798	-0.133850	0.286742	-1.000000	-1.000000	-1.000000	-1.000000	-1.000000	-1.000000	-1.000000	58.758621	0.000000	-1.000000	-1.000000	1209325.000000	1772739816.574664
-15564.375000	-19155.465000	-10880.640000	-3762.765000	-15519.780000	-10651.680000	-13564.755000	7037.325000	-0.669754	-6.111891	0.793238	-4.998080	-6.021948	-5.365633	-0.392547	14.755115	-7.553700	8.423520	15.534680	0.945798	-0.133850	0.286742	-1.000000	-1.000000	-1.000000	-1.000000	-1.000000	-1.000000	-1.000000	58.758621	0.000000	-1.000000	-1.000000	1209326.000000	1772739816.574670
-15547.905000	-19117.305000	-10852.425000	-3746.790000	-15508.710000	-10651.860000	-13566.330000	7008.930000	-2.633788	-5.091130	6.456883	-2.808659	-8.012817	-7.780307	0.634745	14.579880	-7.553700	8.423520	15.534680	0.945798	-0.133850	0.286742	-1.000000	-1.000000	-1.000000	-1.000000	-1.000000	-1.000000	-1.000000	58.758621	0.000000	-1.000000	-1.000000	1209327.000000	1772739816.580018
