Channel1	Channel2	Channel3	Channel4	Channel5	Channel6	Channel7	Channel8	FilteredChannel1	FilteredChannel2	FilteredChannel3	FilteredChannel4	FilteredChannel5	FilteredChannel6	FilteredChannel7	FilteredChannel8	GyroX	GyroY	GyroZ	AccX	AccY	AccZ	PPG1	PPG2	rawPPG1	rawPPG2	rawPPG3	Hr	Hrv	Battery	Trigger	PhysicalTrigger	AutoTrigger	NumMeasurements	Timestamp
-21518.415000	-14291.190000	-21549.240000	-14759.235000	-24319.080000	-15882.075000	-1680.750000	-9176.175000	8.490010	12.349371	8.971407	5.608858	3.607828	2.593001	1.823307	-1.713181	-4.394880	7.172200	-1.205540	0.884641	-0.311156	0.337829	-1.000000	-1.000000	-1.000000	-1.000000	-1.000000	-1.000000	-1.000000	69.724138	0.000000	-1.000000	-1.000000	2610473.000000	1770066718.465597
-21526.605000	-14290.875000	-21553.200000	-14764.770000	-24322.410000	-15883.020000	-1680.705000	-9181.440000	4.511470	5.657054	0.204213	-2.357637	-3.569177	-3.762348	-4.463691	-10.608473	-4.394880	7.172200	-1.205540	0.884641	-0.311156	0.337829	-1.000000	-1.000000	-1.000000	-1.000000	-1.000000	-1.000000	-1.000000	69.724138	0.000000	-1.000000	-1.000000	2610474.000000	1770066718.465603
-21460.770000	-14248.620000	-21527.505000	-14753.565000	-24318.180000	-15880.230000	-1681.965000	-9169.155000	7.070290	2.766089	-5.567779	-6.902933	-7.021800	-6.410756	-7.068640	-10.841553	-4.394880	7.172200	-1.205540	0.884641	-0.311156	0.337829	-1.000000	-1.000000	-1.000000	-1.000000	-1.000000	-1.000000	-1.000000	69.724138	0.000000	-1.000000	-1.000000	2610475.000000	1770066718.469784
-21447.450000	-14251.545000	-21527.325000	-14744.070000	-24303.915000	-15863.985000	-1676.070000	-9172.170000	13.915236	5.747864	-5.022952	-5.714180	-5.101463	-4.160877	-5.229955	-5.329838	-4.394880	7.172200	-1.205540	0.884641	-0.311156	0.337829	-1.000000	-1.000000	-1.000000	-1.000000	-1.000000	-1.000000	-1.000000	69.724138	0.000000	-1.000000	-1.000000	2610476.000000	1770066718.469796
-21510.270000	-14237.730000	-21523.500000	-14739.615000	-24298.020000	-15857.955000	-1677.465000	-9202.005000	15.721052	9.515846	-0.693481	-1.001362	-0.096235	0.606127	-1.344700	-0.999041	-4.394880	7.172200	-1.205540	0.884641	-0.311156	0.337829	-1.000000	-1.000000	-1.000000	-1.000000	-1.000000	-1.000000	-1.000000	69.724138	0.000000	-1.000000	-1.000000	2610477.000000	1770066718.473989
-21563.235000	-14260.320000	-21528.630000	-14753.295000	-24318.180000	-15879.780000	-1690.155000	-9204.570000	4.498003	7.798035	2.642251	3.107703	4.020297	4.083719	1.516747	-1.404534	-4.394880	7.172200	-1.205540	0.884641	-0.311156	0.337829	-1.000000	-1.000000	-1.000000	-1.000000	-1.000000	-1.000000	-1.000000	69.724138	0.000000	-1.000000	-1.000000	2610478.000000	1770066718.474002
-21514.365000	-14295.780000	-21538.305000	-14759.955000	-24327.585000	-15890.265000	-1691.235000	-9160.065000	-14.974647	-0.281919	3.199625	4.448350	4.848323	4.059738	2.107377	-3.654153	-4.394880	7.172200	-1.205540	0.884641	-0.311156	0.337829	-1.000000	-1.000000	-1.000000	-1.000000	-1.000000	-1.000000	-1.000000	69.724138	0.000000	-1.000000	-1.000000	2610479.000000	1770066718.479396
-21466.170000	-14269.590000	-21506.445000	-14725.350000	-24290.235000	-15853.050000	-1665.990000	-9156.645000	-26.974754	-10.165205	2.400971	3.994307	3.444609	1.927111	1.707220	-2.985632	-4.394880	7.172200	-1.205540	0.884641	-0.311156	0.337829	-1.000000	-1.000000	-1.000000	-1.000000	-1.000000	-1.000000	-1.000000	69.724138	0.000000	-1.000000	-1.000000	2610480.000000	1770066718.479406
-21511.440000	-14246.415000	-21523.455000	-14738.940000	-24298.740000	-15861.465000	-1676.115000	-9223.695000	-21.806891	-14.878198	1.806733	3.424109	2.329533	0.715461	2.070193	0.606534	-3.723440	7.858900	-1.800680	0.889280	-0.312560	0.337279	-1.000000	-1.000000	-1.000000	-1.000000	-1.000000	-1.000000	-1.000000	69.724138	0.000000	-1.000000	-1.000000	2610481.000000	1770066718.483237
-21616.695000	-14304.510000	-21522.105000	-14729.310000	-24290.820000	-15859.395000	-1682.640000	-9284.040000	-6.909002	-11.205391	1.004898	2.481262	1.835025	0.911302	2.720711	2.066132	-3.723440	7.858900	-1.800680	0.889280	-0.312560	0.337279	-1.000000	-1.000000	-1.000000	-1.000000	-1.000000	-1.000000	-1.000000	69.724138	0.000000	-1.000000	-1.000000	2610482.000000	1770066718.483246
-21612.780000	-14314.365000	-21535.200000	-14738.085000	-24295.320000	-15859.665000	-1683.630000	-9255.015000	2.997413	-3.871227	-1.167171	0.224500	0.675383	0.792674	2.034264	-0.979619	-3.723440	7.858900	-1.800680	0.889280	-0.312560	0.337279	-1.000000	-1.000000	-1.000000	-1.000000	-1.000000	-1.000000	-1.000000	69.724138	0.000000	-1.000000	-1.000000	2610483.000000	1770066718.487050
-21468.600000	-14244.525000	-21551.670000	-14771.115000	-24329.565000	-15886.620000	-1685.565000	-9159.120000	4.313679	1.421185	-4.816662	-3.486332	-1.989552	-0.859316	-0.072432	-3.083725	-3.723440	7.858900	-1.800680	0.889280	-0.312560	0.337279	-1.000000	-1.000000	-1.000000	-1.000000	-1.000000	-1.000000	-1.000000	69.724138	0.000000	-1.000000	-1.000000	2610484.000000	1770066718.487062
-21421.080000	-14229.405000	-21540.555000	-14767.200000	-24331.545000	-15889.230000	-1681.290000	-9115.605000	6.497367	4.869993	-8.640309	-8.260007	-6.443465	-4.429503	-2.389142	2.981625	-3.723440	7.858900	-1.800680	0.889280	-0.312560	0.337279	-1.000000	-1.000000	-1.000000	-1.000000	-1.000000	-1.000000	-1.000000	69.724138	0.000000	-1.000000	-1.000000	2610485.000000	1770066718.490022
-21459.870000	-14257.485000	-21551.850000	-14772.015000	-24333.165000	-15888.645000	-1678.005000	-9112.140000	15.810713	7.698784	-10.008643	-11.831958	-10.833846	-8.402546	-3.576252	16.306534	-3.723440	7.858900	-1.800680	0.889280	-0.312560	0.337279	-1.000000	-1.000000	-1.000000	-1.000000	-1.000000	-1.000000	-1.000000	69.724138	0.000000	-1.000000	-1.000000	2610486.000000	1770066718.490033
-21484.980000	-14262.660000	-21545.910000	-14766.165000	-24326.505000	-15884.595000	-1675.395000	-9136.350000	25.385675	8.264600	-6.761616	-10.464236	-10.866636	-8.908190	-2.602919	26.166953	-3.723440	7.858900	-1.800680	0.889280	-0.312560	0.337279	-1.000000	-1.000000	-1.000000	-1.000000	-1.000000	-1.000000	-1.000000	69.724138	0.000000	-1.000000	-1.000000	2610487.000000	1770066718.493610
-21505.725000	-14280.435000	-21545.640000	-14763.690000	-24322.770000	-15880.770000	-1675.395000	-9166.770000	23.133814	5.668777	0.511917	-3.051316	-4.319303	-3.697274	0.140964	20.796535	-3.723440	7.858900	-1.800680	0.889280	-0.312560	0.337279	-1.000000	-1.000000	-1.000000	-1.000000	-1.000000	-1.000000	-1.000000	69.724138	0.000000	-1.000000	-1.000000	2610488.000000	1770066718.493616
-21507.885000	-14278.500000	-21551.490000	-14772.555000	-24332.625000	-15890.670000	-1682.505000	-9164.745000	5.289044	0.731960	8.054980	6.436849	5.217161	4.203984	2.378247	-0.348391	-3.723440	7.858900	-1.800680	0.889280	-0.312560	0.337279	-1.000000	-1.000000	-1.000000	-1.000000	-1.000000	-1.000000	-1.000000	69.724138	0.000000	-1.000000	-1.000000	2610489.000000	1770066718.497772
-21527.730000	-14268.015000	-21548.835000	-14769.450000	-24329.160000	-15889.455000	-1682.595000	-9174.195000	-17.866440	-4.610149	11.707627	12.258771	11.484723	9.319341	2.232964	-23.373081	-3.723440	7.858900	-1.800680	0.889280	-0.312560	0.337279	-1.000000	-1.000000	-1.000000	-1.000000	-1.000000	-1.000000	-1.000000	69.724138	0.000000	-1.000000	-1.000000	2610490.000000	1770066718.497782
-21515.760000	-14269.770000	-21543.705000	-14764.275000	-24325.965000	-15885.405000	-1681.695000	-9183.285000	-30.025301	-6.613820	10.525568	12.110119	11.619818	9.288292	0.411493	-32.482271	-1.052940	8.057280	-3.296160	0.894346	-0.319274	0.341552	-1.000000	-1.000000	-1.000000	-1.000000	-1.000000	-1.000000	-1.000000	69.724138	0.000000	-1.000000	-1.000000	2610491.000000	1770066718.502079
-21532.770000	-14272.605000	-21542.130000	-14759.955000	-24321.015000	-15879.375000	-1684.665000	-9227.025000	-25.017075	-3.776397	6.544675	8.006980	7.543576	5.924916	-1.121877	-25.538686	-1.052940	8.057280	-3.296160	0.894346	-0.319274	0.341552	-1.000000	-1.000000	-1.000000	-1.000000	-1.000000	-1.000000	-1.000000	69.724138	0.000000	-1.000000	-1.000000	2610492.000000	1770066718.502092
-21544.605000	-14283.225000	-21553.830000	-14766.705000	-24325.065000	-15883.335000	-1693.260000	-9225.945000	-12.938632	-0.516695	1.930890	3.310303	2.939079	2.302964	-1.584158	-13.705834	-1.052940	8.057280	-3.296160	0.894346	-0.319274	0.341552	-1.000000	-1.000000	-1.000000	-1.000000	-1.000000	-1.000000	-1.000000	69.724138	0.000000	-1.000000	-1.000000	2610493.000000	1770066718.505590
-21481.380000	-14257.530000	-21537.765000	-14753.880000	-24314.580000	-15872.355000	-1680.030000	-9146.565000	-4.882902	-1.093857	-2.240771	-0.147021	-0.027944	0.049864	-1.371313	-5.145086	-1.052940	8.057280	-3.296160	0.894346	-0.319274	0.341552	-1.000000	-1.000000	-1.000000	-1.000000	-1.000000	-1.000000	-1.000000	69.724138	0.000000	-1.000000	-1.000000	2610494.000000	1770066718.505602
-21439.845000	-14241.375000	-21490.875000	-14708.160000	-24270.390000	-15828.390000	-1643.085000	-9093.240000	1.860172	-2.771204	-4.289771	-1.548059	-0.757321	-0.313484	-0.110629	3.793882	-1.052940	8.057280	-3.296160	0.894346	-0.319274	0.341552	-1.000000	-1.000000	-1.000000	-1.000000	-1.000000	-1.000000	-1.000000	69.724138	0.000000	-1.000000	-1.000000	2610495.000000	1770066718.509641
-21462.390000	-14249.700000	-21502.530000	-14721.255000	-24283.260000	-15841.800000	-1654.470000	-9121.725000	13.411870	-0.493678	-2.509543	-0.476807	0.599659	1.243679	2.819420	17.011962	-1.052940	8.057280	-3.296160	0.894346	-0.319274	0.341552	-1.000000	-1.000000	-1.000000	-1.000000	-1.000000	-1.000000	-1.000000	69.724138	0.000000	-1.000000	-1.000000	2610496.000000	1770066718.509653
-21480.885000	-14217.840000	-21517.335000	-14740.425000	-24302.565000	-15859.710000	-1667.205000	-9163.755000	24.632868	5.627965	0.842063	0.693305	1.463236	2.281046	5.387837	27.894426	-1.052940	8.057280	-3.296160	0.894346	-0.319274	0.341552	-1.000000	-1.000000	-1.000000	-1.000000	-1.000000	-1.000000	-1.000000	69.724138	0.000000	-1.000000	-1.000000	2610497.000000	1770066718.513542
-21512.520000	-14254.470000	-21529.890000	-14751.900000	-24314.760000	-15872.760000	-1675.890000	-9183.510000	25.418423	10.657590	1.118570	-1.599234	-1.481767	-0.513563	4.377709	26.777648	-1.052940	8.057280	-3.296160	0.894346	-0.319274	0.341552	-1.000000	-1.000000	-1.000000	-1.000000	-1.000000	-1.000000	-1.000000	69.724138	0.000000	-1.000000	-1.000000	2610498.000000	1770066718.513549
-21490.920000	-14232.015000	-21506.445000	-14740.605000	-24312.825000	-15876.315000	-1677.240000	-9168.840000	14.169657	9.887475	-2.553959	-6.977488	-7.591699	-6.647443	-0.302084	13.366031	-1.052940	8.057280	-3.296160	0.894346	-0.319274	0.341552	-1.000000	-1.000000	-1.000000	-1.000000	-1.000000	-1.000000	-1.000000	69.724138	0.000000	-1.000000	-1.000000	2610499.000000	1770066718.517826
-21491.640000	-14249.610000	-21529.485000	-14752.395000	-24314.985000	-15872.760000	-1672.245000	-9162.720000	-1.361584	3.339650	-6.809851	-11.387491	-12.555737	-11.972148	-5.432122	-3.094055	-1.052940	8.057280	-3.296160	0.894346	-0.319274	0.341552	-1.000000	-1.000000	-1.000000	-1.000000	-1.000000	-1.000000	-1.000000	69.724138	0.000000	-1.000000	-1.000000	2610500.000000	1770066718.517835
-21500.865000	-14264.640000	-21542.220000	-14758.470000	-24314.670000	-15870.645000	-1673.775000	-9176.940000	-13.524972	-5.470291	-8.727409	-11.506249	-12.472463	-12.436415	-7.553711	-13.751551	0.274680	4.730600	-4.761120	0.893736	-0.321532	0.343261	-1.000000	-1.000000	-1.000000	-1.000000	-1.000000	-1.000000	-1.000000	69.724138	0.000000	-1.000000	-1.000000	2610501.000000	1770066718.522108
-21524.130000	-14267.115000	-21530.295000	-14744.565000	-24302.745000	-15861.780000	-1674.540000	-9196.380000	-20.268203	-13.126218	-7.544970	-6.830174	-6.563390	-6.959031	-5.608150	-17.321144	0.274680	4.730600	-4.761120	0.893736	-0.321532	0.343261	-1.000000	-1.000000	-1.000000	-1.000000	-1.000000	-1.000000	-1.000000	69.724138	0.000000	-1.000000	-1.000000	2610502.000000	1770066718.522119
-21522.510000	-14260.770000	-21522.015000	-14736.240000	-24296.895000	-15858.765000	-1675.440000	-9194.490000	-22.402173	-16.526411	-3.656547	0.629767	2.335299	1.635564	-1.615552	-17.943690	0.274680	4.730600	-4.761120	0.893736	-0.321532	0.343261	-1.000000	-1.000000	-1.000000	-1.000000	-1.000000	-1.000000	-1.000000	69.724138	0.000000	-1.000000	-1.000000	2610503.000000	1770066718.525792
-21509.820000	-14256.135000	-21525.570000	-14741.550000	-24303.600000	-15863.715000	-1671.390000	-9172.215000	-19.546172	-13.423647	1.138328	7.075239	9.245618	8.310016	1.314255	-17.530727	0.274680	4.730600	-4.761120	0.893736	-0.321532	0.343261	-1.000000	-1.000000	-1.000000	-1.000000	-1.000000	-1.000000	-1.000000	69.724138	0.000000	-1.000000	-1.000000	2610504.000000	1770066718.525802
-21511.890000	-14234.265000	-21503.160000	-14720.400000	-24283.800000	-15845.040000	-1659.645000	-9200.880000	-10.168120	-4.214312	5.003397	9.803563	11.075476	10.162895	2.296016	-12.864870	0.274680	4.730600	-4.761120	0.893736	-0.321532	0.343261	-1.000000	-1.000000	-1.000000	-1.000000	-1.000000	-1.000000	-1.000000	69.724138	0.000000	-1.000000	-1.000000	2610505.000000	1770066718.529612
-21610.440000	-14277.555000	-21513.870000	-14726.790000	-24286.095000	-15848.865000	-1671.300000	-9269.820000	3.398425	6.860993	7.901805	9.585919	9.215016	8.684169	2.876963	-2.427646	0.274680	4.730600	-4.761120	0.893736	-0.321532	0.343261	-1.000000	-1.000000	-1.000000	-1.000000	-1.000000	-1.000000	-1.000000	69.724138	0.000000	-1.000000	-1.000000	2610506.000000	1770066718.529622
-21580.425000	-14299.155000	-21549.240000	-14769.270000	-24327.045000	-15888.195000	-1688.760000	-9208.665000	14.195563	13.276734	9.067999	7.436841	5.852121	5.926695	3.623579	9.795158	0.274680	4.730600	-4.761120	0.893736	-0.321532	0.343261	-1.000000	-1.000000	-1.000000	-1.000000	-1.000000	-1.000000	-1.000000	69.724138	0.000000	-1.000000	-1.000000	2610507.000000	1770066718.533751
-21465.180000	-14280.930000	-21566.655000	-14791.590000	-24348.915000	-15907.680000	-1689.795000	-9128.520000	19.647132	11.949817	5.902465	2.092565	0.538580	1.339935	3.213100	20.559104	0.274680	4.730600	-4.761120	0.893736	-0.321532	0.343261	-1.000000	-1.000000	-1.000000	-1.000000	-1.000000	-1.000000	-1.000000	69.724138	0.000000	-1.000000	-1.000000	2610508.000000	1770066718.533764
-21473.775000	-14272.200000	-21558.690000	-14774.220000	-24332.265000	-15892.605000	-1683.900000	-9145.665000	23.107782	6.316351	-1.077721	-5.554184	-6.221112	-4.863154	1.191484	28.468924	0.274680	4.730600	-4.761120	0.893736	-0.321532	0.343261	-1.000000	-1.000000	-1.000000	-1.000000	-1.000000	-1.000000	-1.000000	69.724138	0.000000	-1.000000	-1.000000	2610509.000000	1770066718.537833
-21500.460000	-14262.480000	-21525.165000	-14742.180000	-24306.255000	-15871.545000	-1677.420000	-9165.465000	23.700030	1.975062	-6.231661	-9.952794	-10.080208	-8.903551	-0.877606	28.846181	0.274680	4.730600	-4.761120	0.893736	-0.321532	0.343261	-1.000000	-1.000000	-1.000000	-1.000000	-1.000000	-1.000000	-1.000000	69.724138	0.000000	-1.000000	-1.000000	2610510.000000	1770066718.537844
-21543.300000	-14288.490000	-21521.385000	-14733.720000	-24295.275000	-15861.600000	-1674.270000	-9170.730000	15.573389	0.687585	-5.038471	-6.921550	-7.392871	-7.245859	-1.382473	17.120837	-3.555580	2.060100	-4.608520	0.889219	-0.317321	0.346923	-1.000000	-1.000000	-1.000000	-1.000000	-1.000000	-1.000000	-1.000000	69.724138	0.000000	-1.000000	-1.000000	2610511.000000	1770066718.544622
-21511.530000	-14276.745000	-21529.215000	-14740.470000	-24296.805000	-15857.955000	-1669.995000	-9171.855000	-1.942852	0.090016	0.430447	0.873120	-0.028011	-0.992554	-0.488890	-4.021336	-3.555580	2.060100	-4.608520	0.889219	-0.317321	0.346923	-1.000000	-1.000000	-1.000000	-1.000000	-1.000000	-1.000000	-1.000000	69.724138	0.000000	-1.000000	-1.000000	2610512.000000	1770066718.544632
-21490.695000	-14287.230000	-21530.880000	-14742.585000	-24299.280000	-15860.970000	-1672.650000	-9168.120000	-20.087531	-1.818136	4.470027	6.961238	6.541575	5.309260	0.381330	-24.812491	-3.555580	2.060100	-4.608520	0.889219	-0.317321	0.346923	-1.000000	-1.000000	-1.000000	-1.000000	-1.000000	-1.000000	-1.000000	69.724138	0.000000	-1.000000	-1.000000	2610513.000000	1770066718.545885
-21454.290000	-14223.195000	-21508.830000	-14735.070000	-24300.000000	-15867.945000	-1674.540000	-9149.670000	-26.948739	-3.698928	4.241152	7.518832	8.242032	7.626512	0.220820	-33.646083	-3.555580	2.060100	-4.608520	0.889219	-0.317321	0.346923	-1.000000	-1.000000	-1.000000	-1.000000	-1.000000	-1.000000	-1.000000	69.724138	0.000000	-1.000000	-1.000000	2610514.000000	1770066718.545896
-21473.595000	-14230.755000	-21532.320000	-14754.645000	-24313.095000	-15876.180000	-1674.540000	-9162.990000	-17.370340	-1.974591	1.464746	3.632727	5.021534	5.197865	-0.523863	-24.962874	-3.555580	2.060100	-4.608520	0.889219	-0.317321	0.346923	-1.000000	-1.000000	-1.000000	-1.000000	-1.000000	-1.000000	-1.000000	69.724138	0.000000	-1.000000	-1.000000	2610515.000000	1770066718.549818
-21481.020000	-14228.370000	-21528.540000	-14750.235000	-24307.830000	-15870.015000	-1667.520000	-9166.230000	0.428306	3.782703	-0.949166	-0.878406	0.292821	0.988653	-0.465377	-6.205926	-3.555580	2.060100	-4.608520	0.889219	-0.317321	0.346923	-1.000000	-1.000000	-1.000000	-1.000000	-1.000000	-1.000000	-1.000000	69.724138	0.000000	-1.000000	-1.000000	2610516.000000	1770066718.549829
-21546.765000	-14248.665000	-21517.740000	-14738.580000	-24300.495000	-15867.720000	-1678.770000	-9229.365000	9.637071	8.004502	-1.400624	-2.653032	-2.138025	-1.332357	0.680095	7.074748	-3.555580	2.060100	-4.608520	0.889219	-0.317321	0.346923	-1.000000	-1.000000	-1.000000	-1.000000	-1.000000	-1.000000	-1.000000	69.724138	0.000000	-1.000000	-1.000000	2610517.000000	1770066718.559280
-21595.320000	-14334.480000	-21570.255000	-14776.065000	-24329.790000	-15892.830000	-1702.755000	-9241.380000	1.312067	4.065301	-0.866304	-1.938946	-2.082780	-1.663859	1.016551	6.454140	-3.555580	2.060100	-4.608520	0.889219	-0.317321	0.346923	-1.000000	-1.000000	-1.000000	-1.000000	-1.000000	-1.000000	-1.000000	69.724138	0.000000	-1.000000	-1.000000	2610518.000000	1770066718.559290
-21573.090000	-14343.885000	-21591.270000	-14793.390000	-24341.400000	-15898.635000	-1701.045000	-9181.665000	-15.438135	-8.816638	-3.017989	-2.758586	-3.021618	-3.017712	-1.204226	-1.350196	-3.555580	2.060100	-4.608520	0.889219	-0.317321	0.346923	-1.000000	-1.000000	-1.000000	-1.000000	-1.000000	-1.000000	-1.000000	69.724138	0.000000	-1.000000	-1.000000	2610519.000000	1770066718.559301
-21491.415000	-14264.820000	-21534.210000	-14746.365000	-24301.080000	-15859.260000	-1667.655000	-9142.920000	-21.966431	-21.396938	-8.133878	-6.454604	-6.126960	-5.950099	-4.310320	-3.172345	-3.555580	2.060100	-4.608520	0.889219	-0.317321	0.346923	-1.000000	-1.000000	-1.000000	-1.000000	-1.000000	-1.000000	-1.000000	69.724138	0.000000	-1.000000	-1.000000	2610520.000000	1770066718.559307
-21476.295000	-14256.630000	-21536.280000	-14754.870000	-24312.420000	-15870.780000	-1673.100000	-9146.700000	-8.628420	-20.791201	-9.920487	-8.264274	-7.575278	-6.949240	-4.598499	5.608465	-7.446880	-0.656180	-3.738700	0.885984	-0.310546	0.349425	-1.000000	-1.000000	-1.000000	-1.000000	-1.000000	-1.000000	-1.000000	69.724138	0.000000	-1.000000	-1.000000	2610521.000000	1770066718.561591
-21457.980000	-14248.080000	-21524.670000	-14747.400000	-24308.730000	-15868.800000	-1671.615000	-9150.705000	15.891634	-5.270997	-4.214486	-4.423200	-4.430904	-3.840685	-1.156787	17.459951	-7.446880	-0.656180	-3.738700	0.885984	-0.310546	0.349425	-1.000000	-1.000000	-1.000000	-1.000000	-1.000000	-1.000000	-1.000000	69.724138	0.000000	-1.000000	-1.000000	2610522.000000	1770066718.561601
-21461.805000	-14237.055000	-21528.090000	-14754.105000	-24316.155000	-15876.945000	-1676.565000	-9156.465000	34.436478	13.646957	5.363695	2.890092	1.588634	1.537123	3.373704	22.327557	-7.446880	-0.656180	-3.738700	0.885984	-0.310546	0.349425	-1.000000	-1.000000	-1.000000	-1.000000	-1.000000	-1.000000	-1.000000	69.724138	0.000000	-1.000000	-1.000000	2610523.000000	1770066718.567675
-21486.015000	-14240.745000	-21539.565000	-14765.040000	-24327.045000	-15886.080000	-1683.000000	-9167.580000	35.917333	23.959102	12.561662	9.142708	6.945162	6.071873	5.934242	16.196523	-7.446880	-0.656180	-3.738700	0.885984	-0.310546	0.349425	-1.000000	-1.000000	-1.000000	-1.000000	-1.000000	-1.000000	-1.000000	69.724138	0.000000	-1.000000	-1.000000	2610524.000000	1770066718.567686
-21496.140000	-14250.420000	-21532.230000	-14754.330000	-24316.695000	-15876.765000	-1678.140000	-9167.895000	19.919581	21.648225	13.713486	11.267880	9.151697	7.723833	5.209373	2.030867	-7.446880	-0.656180	-3.738700	0.885984	-0.310546	0.349425	-1.000000	-1.000000	-1.000000	-1.000000	-1.000000	-1.000000	-1.000000	69.724138	0.000000	-1.000000	-1.000000	2610525.000000	1770066718.569716
-21505.320000	-14252.625000	-21526.200000	-14744.430000	-24305.580000	-15865.065000	-1672.020000	-9166.365000	-4.215444	10.392475	9.163239	8.956232	7.911174	6.491757	2.391342	-12.158554	-7.446880	-0.656180	-3.738700	0.885984	-0.310546	0.349425	-1.000000	-1.000000	-1.000000	-1.000000	-1.000000	-1.000000	-1.000000	69.724138	0.000000	-1.000000	-1.000000	2610526.000000	1770066718.569722
-21527.640000	-14249.250000	-21512.115000	-14731.920000	-24296.625000	-15858.945000	-1676.205000	-9184.545000	-22.941252	-1.504476	2.807447	4.604563	5.013692	4.104311	-0.013410	-18.905238	-7.446880	-0.656180	-3.738700	0.885984	-0.310546	0.349425	-1.000000	-1.000000	-1.000000	-1.000000	-1.000000	-1.000000	-1.000000	69.724138	0.000000	-1.000000	-1.000000	2610527.000000	1770066718.573740
-21548.970000	-14245.110000	-21501.765000	-14720.625000	-24286.320000	-15848.460000	-1676.205000	-9222.030000	-29.276295	-7.819999	-1.545813	0.832924	2.178264	1.840260	-1.161432	-18.518955	-7.446880	-0.656180	-3.738700	0.885984	-0.310546	0.349425	-1.000000	-1.000000	-1.000000	-1.000000	-1.000000	-1.000000	-1.000000	69.724138	0.000000	-1.000000	-1.000000	2610528.000000	1770066718.573750
-21547.980000	-14269.680000	-21528.045000	-14734.305000	-24289.740000	-15847.695000	-1681.920000	-9270.450000	-26.222310	-9.955545	-4.347644	-2.393953	-0.793061	-0.744901	-2.457778	-16.911866	-7.446880	-0.656180	-3.738700	0.885984	-0.310546	0.349425	-1.000000	-1.000000	-1.000000	-1.000000	-1.000000	-1.000000	-1.000000	69.724138	0.000000	-1.000000	-1.000000	2610529.000000	1770066718.577731
-21509.280000	-14270.085000	-21534.120000	-14742.090000	-24296.490000	-15853.815000	-1680.750000	-9226.125000	-18.515782	-12.334138	-8.292324	-6.415870	-4.525913	-4.051229	-4.590920	-15.615938	-7.446880	-0.656180	-3.738700	0.885984	-0.310546	0.349425	-1.000000	-1.000000	-1.000000	-1.000000	-1.000000	-1.000000	-1.000000	69.724138	0.000000	-1.000000	-1.000000	2610530.000000	1770066718.577736
-21547.395000	-14282.820000	-21544.470000	-14753.970000	-24307.830000	-15860.655000	-1673.055000	-9164.520000	-7.601686	-15.125938	-13.014976	-10.597338	-8.101701	-6.936568	-5.831450	-8.626627	-6.317640	-1.022420	-3.311420	0.888914	-0.311034	0.348937	-1.000000	-1.000000	-1.000000	-1.000000	-1.000000	-1.000000	-1.000000	69.724138	0.000000	-1.000000	-1.000000	2610531.000000	1770066718.581694
-21526.155000	-14301.225000	-21564.450000	-14776.155000	-24331.590000	-15883.965000	-1686.690000	-9162.585000	4.984534	-15.229850	-15.034538	-12.545833	-9.866045	-7.952306	-4.320088	8.035383	-6.317640	-1.022420	-3.311420	0.888914	-0.311034	0.348937	-1.000000	-1.000000	-1.000000	-1.000000	-1.000000	-1.000000	-1.000000	69.724138	0.000000	-1.000000	-1.000000	2610532.000000	1770066718.581703
-21511.530000	-14302.305000	-21573.045000	-14782.995000	-24337.215000	-15888.780000	-1692.405000	-9158.805000	16.563332	-10.473783	-11.768063	-10.582452	-8.922593	-6.782771	-0.719041	27.339644	-6.317640	-1.022420	-3.311420	0.888914	-0.311034	0.348937	-1.000000	-1.000000	-1.000000	-1.000000	-1.000000	-1.000000	-1.000000	69.724138	0.000000	-1.000000	-1.000000	2610533.000000	1770066718.585692
-21513.105000	-14295.105000	-21563.955000	-14775.660000	-24329.655000	-15881.130000	-1689.885000	-9166.905000	24.525691	-0.906447	-3.812098	-5.088746	-5.470088	-4.019063	2.619914	36.791724	-6.317640	-1.022420	-3.311420	0.888914	-0.311034	0.348937	-1.000000	-1.000000	-1.000000	-1.000000	-1.000000	-1.000000	-1.000000	69.724138	0.000000	-1.000000	-1.000000	2610534.000000	1770066718.585702
-21545.865000	-14274.630000	-21543.030000	-14758.515000	-24315.165000	-15867.990000	-1687.815000	-9204.930000	25.908198	11.409883	6.160525	2.213447	-0.283863	-0.212929	4.284732	29.650858	-6.317640	-1.022420	-3.311420	0.888914	-0.311034	0.348937	-1.000000	-1.000000	-1.000000	-1.000000	-1.000000	-1.000000	-1.000000	69.724138	0.000000	-1.000000	-1.000000	2610535.000000	1770066718.589652
-21483.045000	-14248.575000	-21539.340000	-14761.620000	-24322.545000	-15876.180000	-1692.135000	-9190.170000	19.748012	22.615778	14.857515	9.086323	5.263775	3.864401	4.347610	9.141052	-6.317640	-1.022420	-3.311420	0.888914	-0.311034	0.348937	-1.000000	-1.000000	-1.000000	-1.000000	-1.000000	-1.000000	-1.000000	69.724138	0.000000	-1.000000	-1.000000	2610536.000000	1770066718.589661
-21462.300000	-14260.275000	-21543.750000	-14763.555000	-24322.140000	-15874.920000	-1686.420000	-9167.490000	9.594352	27.417331	18.571263	12.675279	8.734765	6.363524	3.201536	-13.155591	-6.317640	-1.022420	-3.311420	0.888914	-0.311034	0.348937	-1.000000	-1.000000	-1.000000	-1.000000	-1.000000	-1.000000	-1.000000	69.724138	0.000000	-1.000000	-1.000000	2610537.000000	1770066718.595603
-21507.165000	-14293.845000	-21534.615000	-14748.795000	-24306.030000	-15859.080000	-1673.955000	-9155.565000	-1.216609	21.490422	15.484608	11.540155	8.663822	6.138501	1.561177	-24.731868	-6.317640	-1.022420	-3.311420	0.888914	-0.311034	0.348937	-1.000000	-1.000000	-1.000000	-1.000000	-1.000000	-1.000000	-1.000000	69.724138	0.000000	-1.000000	-1.000000	2610538.000000	1770066718.595615
-21517.110000	-14247.540000	-21513.330000	-14734.215000	-24295.590000	-15853.095000	-1672.965000	-9169.110000	-13.016507	6.298855	8.049877	7.670295	6.593402	4.630529	0.496995	-22.767695	-6.317640	-1.022420	-3.311420	0.888914	-0.311034	0.348937	-1.000000	-1.000000	-1.000000	-1.000000	-1.000000	-1.000000	-1.000000	69.724138	0.000000	-1.000000	-1.000000	2610539.000000	1770066718.597743
-21505.500000	-14243.850000	-21539.340000	-14759.325000	-24316.020000	-15870.915000	-1685.070000	-9184.995000	-23.678353	-9.686601	0.396437	3.809931	4.641669	3.583046	0.068754	-14.972774	-6.317640	-1.022420	-3.311420	0.888914	-0.311034	0.348937	-1.000000	-1.000000	-1.000000	-1.000000	-1.000000	-1.000000	-1.000000	69.724138	0.000000	-1.000000	-1.000000	2610540.000000	1770066718.597758
-21535.065000	-14279.355000	-21542.265000	-14753.565000	-24308.055000	-15859.845000	-1675.035000	-9175.725000	-27.402827	-18.370047	-5.285417	0.671521	3.073747	3.028667	-0.373087	-8.841598	-4.135460	-1.388660	-5.157880	0.890623	-0.314208	0.346618	-1.000000	-1.000000	-1.000000	-1.000000	-1.000000	-1.000000	-1.000000	69.724138	0.000000	-1.000000	-1.000000	2610541.000000	1770066718.605984
-21641.670000	-14321.835000	-21552.030000	-14749.830000	-24298.605000	-15846.930000	-1669.905000	-9194.805000	-23.470104	-19.339754	-8.728431	-2.004638	1.382952	2.462760	-0.648115	-5.064046	-4.135460	-1.388660	-5.157880	0.890623	-0.314208	0.346618	-1.000000	-1.000000	-1.000000	-1.000000	-1.000000	-1.000000	-1.000000	69.724138	0.000000	-1.000000	-1.000000	2610542.000000	1770066718.605992
-21511.305000	-14304.960000	-21546.540000	-14748.885000	-24299.820000	-15849.630000	-1681.155000	-9180.090000	-14.808711	-16.571409	-10.302315	-4.426511	-0.880972	1.259773	-0.599053	-0.860098	-4.135460	-1.388660	-5.157880	0.890623	-0.314208	0.346618	-1.000000	-1.000000	-1.000000	-1.000000	-1.000000	-1.000000	-1.000000	69.724138	0.000000	-1.000000	-1.000000	2610543.000000	1770066718.609490
-21354.255000	-14212.935000	-21505.500000	-14731.380000	-24296.130000	-15852.735000	-1686.195000	-9141.075000	2.009905	-10.642217	-9.747766	-6.517311	-3.990870	-1.435939	-1.033573	6.080285	-4.135460	-1.388660	-5.157880	0.890623	-0.314208	0.346618	-1.000000	-1.000000	-1.000000	-1.000000	-1.000000	-1.000000	-1.000000	69.724138	0.000000	-1.000000	-1.000000	2610544.000000	1770066718.609500
-21482.235000	-14245.290000	-21525.660000	-14744.385000	-24305.220000	-15860.565000	-1687.410000	-9175.275000	26.388511	-0.219630	-6.380279	-7.526761	-7.217463	-5.386626	-2.347100	14.441078	-4.135460	-1.388660	-5.157880	0.890623	-0.314208	0.346618	-1.000000	-1.000000	-1.000000	-1.000000	-1.000000	-1.000000	-1.000000	69.724138	0.000000	-1.000000	-1.000000	2610545.000000	1770066718.609672
-21639.150000	-14364.630000	-21597.255000	-14791.860000	-24335.370000	-15880.140000	-1695.510000	-9235.035000	39.139192	9.505669	-2.357411	-7.575254	-9.522771	-9.121009	-3.860034	17.441707	-4.135460	-1.388660	-5.157880	0.890623	-0.314208	0.346618	-1.000000	-1.000000	-1.000000	-1.000000	-1.000000	-1.000000	-1.000000	69.724138	0.000000	-1.000000	-1.000000	2610546.000000	1770066718.609682
-21505.005000	-14236.245000	-21523.680000	-14751.360000	-24313.095000	-15862.635000	-1679.040000	-9207.540000	24.906183	11.393377	-0.942943	-7.491868	-10.270057	-10.900913	-4.494561	9.908532	-4.135460	-1.388660	-5.157880	0.890623	-0.314208	0.346618	-1.000000	-1.000000	-1.000000	-1.000000	-1.000000	-1.000000	-1.000000	69.724138	0.000000	-1.000000	-1.000000	2610547.000000	1770066718.613659
-21546.180000	-14227.155000	-21502.035000	-14732.505000	-24297.165000	-15850.440000	-1670.175000	-9202.680000	-3.329109	8.009700	-0.092824	-5.497512	-7.827342	-8.685293	-2.994463	-3.393289	-4.135460	-1.388660	-5.157880	0.890623	-0.314208	0.346618	-1.000000	-1.000000	-1.000000	-1.000000	-1.000000	-1.000000	-1.000000	69.724138	0.000000	-1.000000	-1.000000	2610548.000000	1770066718.613669
-21576.825000	-14296.365000	-21557.790000	-14773.005000	-24325.290000	-15871.095000	-1677.195000	-9175.005000	-23.345782	5.158355	3.745510	0.476026	-1.089260	-1.833419	0.944032	-12.072664	-4.135460	-1.388660	-5.157880	0.890623	-0.314208	0.346618	-1.000000	-1.000000	-1.000000	-1.000000	-1.000000	-1.000000	-1.000000	69.724138	0.000000	-1.000000	-1.000000	2610549.000000	1770066718.617639
-21571.920000	-14314.005000	-21560.265000	-14768.865000	-24323.175000	-15866.145000	-1662.975000	-9171.045000	-26.316195	2.395390	8.084911	7.559078	6.933357	6.354173	5.394313	-10.420045	-4.135460	-1.388660	-5.157880	0.890623	-0.314208	0.346618	-1.000000	-1.000000	-1.000000	-1.000000	-1.000000	-1.000000	-1.000000	69.724138	0.000000	-1.000000	-1.000000	2610550.000000	1770066718.617648
-21518.370000	-14323.185000	-21557.520000	-14763.825000	-24318.360000	-15856.920000	-1643.805000	-9173.295000	-13.509778	-1.477647	8.541517	10.908857	11.349481	11.071954	7.983409	-1.093348	-3.067260	-0.396760	-3.769220	0.887632	-0.313720	0.343627	-1.000000	-1.000000	-1.000000	-1.000000	-1.000000	-1.000000	-1.000000	69.724138	0.000000	-1.000000	-1.000000	2610551.000000	1770066718.621633
-21476.115000	-14254.740000	-21535.380000	-14748.570000	-24305.265000	-15845.895000	-1640.340000	-9145.755000	6.431546	-4.433145	4.917822	9.264690	10.482144	10.662954	8.092743	8.627715	-3.067260	-0.396760	-3.769220	0.887632	-0.313720	0.343627	-1.000000	-1.000000	-1.000000	-1.000000	-1.000000	-1.000000	-1.000000	69.724138	0.000000	-1.000000	-1.000000	2610552.000000	1770066718.621641
-21518.775000	-14226.345000	-21522.150000	-14736.870000	-24294.015000	-15847.245000	-1690.020000	-9165.735000	18.592963	-4.430810	-0.088503	4.798593	6.447968	6.909340	5.388295	12.387125	-3.067260	-0.396760	-3.769220	0.887632	-0.313720	0.343627	-1.000000	-1.000000	-1.000000	-1.000000	-1.000000	-1.000000	-1.000000	69.724138	0.000000	-1.000000	-1.000000	2610553.000000	1770066718.628565
-21470.625000	-14211.855000	-21519.765000	-14740.965000	-24301.980000	-15858.720000	-1701.000000	-9186.255000	16.760124	-0.336004	-3.052658	0.702796	2.333640	2.222088	-1.056901	8.342201	-3.067260	-0.396760	-3.769220	0.887632	-0.313720	0.343627	-1.000000	-1.000000	-1.000000	-1.000000	-1.000000	-1.000000	-1.000000	69.724138	0.000000	-1.000000	-1.000000	2610554.000000	1770066718.628577
-21473.190000	-14233.365000	-21533.895000	-14749.830000	-24300.540000	-15840.405000	-1663.200000	-9214.920000	10.096507	7.169534	-1.985727	-1.119195	-0.308237	-1.735976	-9.014221	-0.476840	-3.067260	-0.396760	-3.769220	0.887632	-0.313720	0.343627	-1.000000	-1.000000	-1.000000	-1.000000	-1.000000	-1.000000	-1.000000	69.724138	0.000000	-1.000000	-1.000000	2610555.000000	1770066718.629699
-21506.580000	-14222.520000	-21496.230000	-14708.655000	-24257.655000	-15800.355000	-1643.850000	-9251.910000	5.277269	11.599281	0.675991	-1.426980	-1.556959	-3.526851	-12.585991	-10.020011	-3.067260	-0.396760	-3.769220	0.887632	-0.313720	0.343627	-1.000000	-1.000000	-1.000000	-1.000000	-1.000000	-1.000000	-1.000000	69.724138	0.000000	-1.000000	-1.000000	2610556.000000	1770066718.629709
-21456.540000	-14180.895000	-21475.305000	-14694.255000	-24246.450000	-15797.340000	-1659.195000	-9240.210000	-0.420374	6.893540	1.714837	-1.166279	-1.336395	-2.227242	-8.747616	-17.340003	-3.067260	-0.396760	-3.769220	0.887632	-0.313720	0.343627	-1.000000	-1.000000	-1.000000	-1.000000	-1.000000	-1.000000	-1.000000	69.724138	0.000000	-1.000000	-1.000000	2610557.000000	1770066718.634888
-21507.480000	-14228.820000	-21514.950000	-14729.895000	-24283.080000	-15836.175000	-1698.390000	-9277.380000	-6.844067	-2.573217	1.654202	-0.196326	-0.057115	0.498862	-1.318918	-19.465032	-3.067260	-0.396760	-3.769220	0.887632	-0.313720	0.343627	-1.000000	-1.000000	-1.000000	-1.000000	-1.000000	-1.000000	-1.000000	69.724138	0.000000	-1.000000	-1.000000	2610558.000000	1770066718.634894
-21502.485000	-14279.040000	-21576.015000	-14796.495000	-24353.190000	-15900.165000	-1723.230000	-9197.415000	-11.009442	-9.518791	0.242177	-0.851424	-1.177605	-0.205798	2.835087	-13.819707	-3.067260	-0.396760	-3.769220	0.887632	-0.313720	0.343627	-1.000000	-1.000000	-1.000000	-1.000000	-1.000000	-1.000000	-1.000000	69.724138	0.000000	-1.000000	-1.000000	2610559.000000	1770066718.637626
-21416.760000	-14269.230000	-21578.895000	-14803.335000	-24362.550000	-15905.880000	-1704.915000	-9079.650000	-12.367127	-13.077976	-5.038032	-6.480439	-7.971588	-7.384056	1.014834	1.575268	-3.067260	-0.396760	-3.769220	0.887632	-0.313720	0.343627	-1.000000	-1.000000	-1.000000	-1.000000	-1.000000	-1.000000	-1.000000	69.724138	0.000000	-1.000000	-1.000000	2610560.000000	1770066718.637636
-21455.865000	-14256.495000	-21554.145000	-14775.345000	-24333.345000	-15877.260000	-1680.165000	-9084.555000	-11.407119	-15.078108	-12.523148	-14.388733	-16.678244	-16.181309	-2.077046	23.642007	-1.724380	5.554640	-1.266580	0.887693	-0.309081	0.337768	-1.000000	-1.000000	-1.000000	-1.000000	-1.000000	-1.000000	-1.000000	69.724138	0.000000	-1.000000	-1.000000	2610561.000000	1770066718.643031
-21514.320000	-14275.305000	-21544.605000	-14755.365000	-24310.800000	-15859.080000	-1677.105000	-9149.265000	-9.592123	-15.358805	-15.609716	-16.444134	-18.230273	-17.038931	0.264738	39.286160	-1.724380	5.554640	-1.266580	0.887693	-0.309081	0.337768	-1.000000	-1.000000	-1.000000	-1.000000	-1.000000	-1.000000	-1.000000	69.724138	0.000000	-1.000000	-1.000000	2610562.000000	1770066718.643042
-21536.280000	-14304.555000	-21559.680000	-14762.925000	-24313.095000	-15861.375000	-1683.945000	-9170.640000	-8.248962	-11.776652	-9.714154	-7.897883	-7.996268	-6.066545	8.133062	35.164751	-1.724380	5.554640	-1.266580	0.887693	-0.309081	0.337768	-1.000000	-1.000000	-1.000000	-1.000000	-1.000000	-1.000000	-1.000000	69.724138	0.000000	-1.000000	-1.000000	2610563.000000	1770066718.645630
-21518.730000	-14292.540000	-21561.480000	-14769.855000	-24322.095000	-15871.365000	-1690.380000	-9161.235000	-6.281664	-3.432470	2.317702	6.818222	8.505282	9.992755	14.005833	12.216071	-1.724380	5.554640	-1.266580	0.887693	-0.309081	0.337768	-1.000000	-1.000000	-1.000000	-1.000000	-1.000000	-1.000000	-1.000000	69.724138	0.000000	-1.000000	-1.000000	2610564.000000	1770066718.645640
-21500.190000	-14272.920000	-21567.060000	-14778.045000	-24330.465000	-15880.500000	-1694.520000	-9163.395000	-1.014209	7.082505	12.250371	17.496533	19.991925	19.771176	11.236148	-15.325506	-1.724380	5.554640	-1.266580	0.887693	-0.309081	0.337768	-1.000000	-1.000000	-1.000000	-1.000000	-1.000000	-1.000000	-1.000000	69.724138	0.000000	-1.000000	-1.000000	2610565.000000	1770066718.649659
-21512.520000	-14277.735000	-21561.705000	-14773.275000	-24326.910000	-15878.475000	-1693.440000	-9171.720000	8.055006	16.067676	14.657869	17.901358	19.892337	18.003286	1.549422	-32.950464	-1.724380	5.554640	-1.266580	0.887693	-0.309081	0.337768	-1.000000	-1.000000	-1.000000	-1.000000	-1.000000	-1.000000	-1.000000	69.724138	0.000000	-1.000000	-1.000000	2610566.000000	1770066718.649669
-21510.585000	-14276.475000	-21553.155000	-14762.700000	-24316.065000	-15866.685000	-1684.755000	-9162.495000	17.408380	21.709839	11.905899	11.332817	11.958537	9.581840	-7.170688	-34.866768	-1.724380	5.554640	-1.266580	0.887693	-0.309081	0.337768	-1.000000	-1.000000	-1.000000	-1.000000	-1.000000	-1.000000	-1.000000	69.724138	0.000000	-1.000000	-1.000000	2610567.000000	1770066718.653718
-21501.720000	-14272.695000	-21549.735000	-14758.920000	-24311.610000	-15862.275000	-1685.790000	-9167.940000	21.619619	23.574004	9.557603	5.459990	4.763523	3.025117	-9.154204	-25.067972	-1.724380	5.554640	-1.266580	0.887693	-0.309081	0.337768	-1.000000	-1.000000	-1.000000	-1.000000	-1.000000	-1.000000	-1.000000	69.724138	0.000000	-1.000000	-1.000000	2610568.000000	1770066718.653726
-21507.120000	-14283.225000	-21558.915000	-14766.030000	-24317.370000	-15867.900000	-1691.055000	-9171.180000	16.084626	19.724715	8.580484	3.215546	2.019488	1.328167	-5.634916	-13.132674	-1.724380	5.554640	-1.266580	0.887693	-0.309081	0.337768	-1.000000	-1.000000	-1.000000	-1.000000	-1.000000	-1.000000	-1.000000	69.724138	0.000000	-1.000000	-1.000000	2610569.000000	1770066718.660630
-21499.965000	-14271.030000	-21546.810000	-14754.915000	-24305.355000	-15858.000000	-1683.765000	-9168.120000	2.617568	8.150737	5.111434	1.154029	0.393894	0.707608	-1.589431	-4.437597	-1.724380	5.554640	-1.266580	0.887693	-0.309081	0.337768	-1.000000	-1.000000	-1.000000	-1.000000	-1.000000	-1.000000	-1.000000	69.724138	0.000000	-1.000000	-1.000000	2610570.000000	1770066718.660641
-21497.220000	-14265.630000	-21543.615000	-14753.340000	-24304.410000	-15858.450000	-1683.180000	-9169.020000	-8.758768	-7.199697	-2.328491	-3.697792	-3.723317	-2.564069	0.299258	4.271015	-2.945180	9.629060	-3.311420	0.886045	-0.306213	0.334777	-1.000000	-1.000000	-1.000000	-1.000000	-1.000000	-1.000000	-1.000000	69.724138	0.000000	-1.000000	-1.000000	2610571.000000	1770066718.661773
-21503.250000	-14269.230000	-21544.965000	-14755.545000	-24308.460000	-15863.130000	-1683.900000	-9171.405000	-10.432058	-17.865786	-9.949412	-9.466028	-9.303057	-7.735650	0.427196	16.026802	-2.945180	9.629060	-3.311420	0.886045	-0.306213	0.334777	-1.000000	-1.000000	-1.000000	-1.000000	-1.000000	-1.000000	-1.000000	69.724138	0.000000	-1.000000	-1.000000	2610572.000000	1770066718.661779
-21515.355000	-14279.400000	-21550.905000	-14759.415000	-24312.195000	-15865.335000	-1684.440000	-9177.255000	-5.269303	-19.986257	-13.754000	-12.632091	-13.014569	-11.711484	-0.258679	26.401398	-2.945180	9.629060	-3.311420	0.886045	-0.306213	0.334777	-1.000000	-1.000000	-1.000000	-1.000000	-1.000000	-1.000000	-1.000000	69.724138	0.000000	-1.000000	-1.000000	2610573.000000	1770066718.665617
-21519.945000	-14282.325000	-21557.025000	-14765.265000	-24317.730000	-15871.365000	-1685.205000	-9182.070000	-0.894398	-16.420418	-13.088408	-11.756643	-12.778188	-12.106463	-0.920704	28.325848	-2.945180	9.629060	-3.311420	0.886045	-0.306213	0.334777	-1.000000	-1.000000	-1.000000	-1.000000	-1.000000	-1.000000	-1.000000	69.724138	0.000000	-1.000000	-1.000000	2610574.000000	1770066718.665622
-21520.170000	-14281.020000	-21557.835000	-14764.770000	-24315.750000	-15868.620000	-1685.475000	-9184.680000	-0.714895	-10.489335	-9.083411	-7.455868	-8.504936	-8.340185	-0.743443	19.669482	-2.945180	9.629060	-3.311420	0.886045	-0.306213	0.334777	-1.000000	-1.000000	-1.000000	-1.000000	-1.000000	-1.000000	-1.000000	69.724138	0.000000	-1.000000	-1.000000	2610575.000000	1770066718.669652
-21540.285000	-14292.090000	-21545.055000	-14746.005000	-24295.590000	-15848.190000	-1677.375000	-9205.920000	-2.988265	-3.188695	-2.862087	-0.999914	-1.303533	-1.411600	0.466080	4.028608	-2.945180	9.629060	-3.311420	0.886045	-0.306213	0.334777	-1.000000	-1.000000	-1.000000	-1.000000	-1.000000	-1.000000	-1.000000	69.724138	0.000000	-1.000000	-1.000000	2610576.000000	1770066718.669658
-21571.425000	-14284.530000	-21519.990000	-14720.490000	-24272.235000	-15829.875000	-1676.565000	-9261.540000	-6.207051	4.127759	4.465573	6.329663	7.111049	6.716565	2.059299	-13.565202	-2.945180	9.629060	-3.311420	0.886045	-0.306213	0.334777	-1.000000	-1.000000	-1.000000	-1.000000	-1.000000	-1.000000	-1.000000	69.724138	0.000000	-1.000000	-1.000000	2610577.000000	1770066718.684119
-21510.090000	-14248.710000	-21509.370000	-14716.755000	-24274.305000	-15835.005000	-1684.710000	-9218.700000	-8.913230	9.401521	10.918344	12.360783	13.766186	12.873384	2.814248	-27.315299	-2.945180	9.629060	-3.311420	0.886045	-0.306213	0.334777	-1.000000	-1.000000	-1.000000	-1.000000	-1.000000	-1.000000	-1.000000	69.724138	0.000000	-1.000000	-1.000000	2610578.000000	1770066718.684131
-21474.990000	-14281.560000	-21529.170000	-14732.055000	-24287.130000	-15843.330000	-1676.430000	-9120.780000	-6.025021	11.364683	13.209107	13.553750	14.585030	13.296115	1.870025	-28.100515	-2.945180	9.629060	-3.311420	0.886045	-0.306213	0.334777	-1.000000	-1.000000	-1.000000	-1.000000	-1.000000	-1.000000	-1.000000	69.724138	0.000000	-1.000000	-1.000000	2610579.000000	1770066718.684143
-21484.035000	-14274.540000	-21538.980000	-14749.470000	-24302.250000	-15851.430000	-1668.510000	-9128.205000	4.856786	9.316712	8.934593	7.730423	7.750579	6.851155	-0.065574	-10.652257	-2.945180	9.629060	-3.311420	0.886045	-0.306213	0.334777	-1.000000	-1.000000	-1.000000	-1.000000	-1.000000	-1.000000	-1.000000	69.724138	0.000000	-1.000000	-1.000000	2610580.000000	1770066718.684148
-21501.900000	-14265.765000	-21561.795000	-14779.980000	-24333.030000	-15879.420000	-1683.360000	-9151.650000	16.768942	4.199153	-0.491531	-3.117268	-3.831489	-3.378763	-1.611886	15.255165	-4.578000	4.761120	-5.554640	0.869444	-0.309570	0.339294	-1.000000	-1.000000	-1.000000	-1.000000	-1.000000	-1.000000	-1.000000	69.724138	0.000000	-1.000000	-1.000000	2610581.000000	1770066718.684155
-21508.875000	-14249.115000	-21556.665000	-14778.315000	-24333.795000	-15884.415000	-1689.885000	-9164.655000	20.053088	-0.843881	-10.158229	-13.610972	-14.317008	-12.386787	-2.500417	31.148919	-4.578000	4.761120	-5.554640	0.869444	-0.309570	0.339294	-1.000000	-1.000000	-1.000000	-1.000000	-1.000000	-1.000000	-1.000000	69.724138	0.000000	-1.000000	-1.000000	2610582.000000	1770066718.684160
-21497.985000	-14255.415000	-21544.965000	-14763.105000	-24319.350000	-15873.165000	-1684.260000	-9166.905000	12.215110	-3.197356	-14.383024	-17.614742	-17.873284	-15.583176	-2.856615	27.189713	-4.578000	4.761120	-5.554640	0.869444	-0.309570	0.339294	-1.000000	-1.000000	-1.000000	-1.000000	-1.000000	-1.000000	-1.000000	69.724138	0.000000	-1.000000	-1.000000	2610583.000000	1770066718.685764
-21507.795000	-14295.420000	-21559.770000	-14765.670000	-24319.395000	-15866.865000	-1674.990000	-9174.825000	-1.100774	-3.342622	-10.650524	-12.202916	-12.053157	-10.920644	-2.083548	8.161326	-4.578000	4.761120	-5.554640	0.869444	-0.309570	0.339294	-1.000000	-1.000000	-1.000000	-1.000000	-1.000000	-1.000000	-1.000000	69.724138	0.000000	-1.000000	-1.000000	2610584.000000	1770066718.685777
-21508.110000	-14304.690000	-21585.690000	-14779.575000	-24328.755000	-15868.395000	-1662.075000	-9177.975000	-12.127728	-3.876050	-2.523370	-1.042093	-0.606980	-1.137007	0.178030	-13.158331	-4.578000	4.761120	-5.554640	0.869444	-0.309570	0.339294	-1.000000	-1.000000	-1.000000	-1.000000	-1.000000	-1.000000	-1.000000	69.724138	0.000000	-1.000000	-1.000000	2610585.000000	1770066718.689835
-21500.415000	-14265.045000	-21593.790000	-14786.865000	-24338.205000	-15874.380000	-1655.640000	-9173.070000	-16.301404	-5.490641	3.380553	8.207033	8.973648	7.743261	3.184111	-25.045158	-4.578000	4.761120	-5.554640	0.869444	-0.309570	0.339294	-1.000000	-1.000000	-1.000000	-1.000000	-1.000000	-1.000000	-1.000000	69.724138	0.000000	-1.000000	-1.000000	2610586.000000	1770066718.689848
-21479.580000	-14213.520000	-21551.130000	-14747.310000	-24300.225000	-15843.915000	-1652.355000	-9158.310000	-13.757581	-5.119968	4.603558	11.277813	12.327087	11.663857	5.459628	-23.772952	-4.578000	4.761120	-5.554640	0.869444	-0.309570	0.339294	-1.000000	-1.000000	-1.000000	-1.000000	-1.000000	-1.000000	-1.000000	69.724138	0.000000	-1.000000	-1.000000	2610587.000000	1770066718.693866
-21470.625000	-14213.205000	-21546.855000	-14745.645000	-24293.340000	-15837.750000	-1671.840000	-9160.155000	-7.549710	0.303467	4.825106	10.376590	11.314957	11.288558	5.194413	-14.482512	-4.578000	4.761120	-5.554640	0.869444	-0.309570	0.339294	-1.000000	-1.000000	-1.000000	-1.000000	-1.000000	-1.000000	-1.000000	69.724138	0.000000	-1.000000	-1.000000	2610588.000000	1770066718.693878
-21489.615000	-14254.065000	-21572.550000	-14779.755000	-24325.515000	-15859.440000	-1666.755000	-9168.840000	-0.707497	7.938132	7.087429	8.749122	9.133104	8.786338	1.492589	-4.145450	-4.578000	4.761120	-5.554640	0.869444	-0.309570	0.339294	-1.000000	-1.000000	-1.000000	-1.000000	-1.000000	-1.000000	-1.000000	69.724138	0.000000	-1.000000	-1.000000	2610589.000000	1770066718.697750
-21488.985000	-14234.445000	-21545.190000	-14768.415000	-24323.130000	-15857.910000	-1649.295000	-9173.070000	4.745734	10.497867	9.631441	6.414697	6.023817	4.871513	-3.380658	4.328918	-4.578000	4.761120	-5.554640	0.869444	-0.309570	0.339294	-1.000000	-1.000000	-1.000000	-1.000000	-1.000000	-1.000000	-1.000000	69.724138	0.000000	-1.000000	-1.000000	2610590.000000	1770066718.697761
-21480.480000	-14219.235000	-21509.370000	-14738.490000	-24302.655000	-15848.325000	-1644.570000	-9169.065000	7.716327	5.457695	10.222019	3.123127	1.747114	0.200465	-5.368687	10.620334	-1.526000	6.668620	-6.531280	0.855833	-0.308654	0.347472	-1.000000	-1.000000	-1.000000	-1.000000	-1.000000	-1.000000	-1.000000	69.724138	0.000000	-1.000000	-1.000000	2610591.000000	1770066718.705853
-21465.405000	-14216.040000	-21476.610000	-14706.945000	-24279.120000	-15837.975000	-1653.345000	-9146.070000	8.240697	-2.128442	9.034098	0.434013	-2.159265	-3.803676	-3.450878	14.372504	-1.526000	6.668620	-6.531280	0.855833	-0.308654	0.347472	-1.000000	-1.000000	-1.000000	-1.000000	-1.000000	-1.000000	-1.000000	69.724138	0.000000	-1.000000	-1.000000	2610592.000000	1770066718.705864
-21527.820000	-14274.675000	-21518.055000	-14723.685000	-24281.415000	-15836.850000	-1663.065000	-9170.010000	6.323532	-6.741510	6.158469	-0.798050	-4.184835	-6.198349	-0.700244	14.865558	-1.526000	6.668620	-6.531280	0.855833	-0.308654	0.347472	-1.000000	-1.000000	-1.000000	-1.000000	-1.000000	-1.000000	-1.000000	69.724138	0.000000	-1.000000	-1.000000	2610593.000000	1770066718.706004
-21556.170000	-14300.550000	-21529.350000	-14723.685000	-24275.205000	-15821.865000	-1637.730000	-9209.295000	0.871995	-8.424223	0.170959	-1.995419	-4.498420	-6.736338	0.054114	10.783666	-1.526000	6.668620	-6.531280	0.855833	-0.308654	0.347472	-1.000000	-1.000000	-1.000000	-1.000000	-1.000000	-1.000000	-1.000000	69.724138	0.000000	-1.000000	-1.000000	2610594.000000	1770066718.706010
-21560.265000	-14301.720000	-21521.070000	-14712.705000	-24263.235000	-15809.400000	-1627.380000	-9222.795000	-7.624766	-10.458542	-8.911912	-4.637739	-4.202081	-5.351044	-0.450150	1.445606	-1.526000	6.668620	-6.531280	0.855833	-0.308654	0.347472	-1.000000	-1.000000	-1.000000	-1.000000	-1.000000	-1.000000	-1.000000	69.724138	0.000000	-1.000000	-1.000000	2610595.000000	1770066718.709768
-21516.795000	-14266.665000	-21526.605000	-14726.475000	-24279.840000	-15829.875000	-1654.695000	-9186.930000	-14.336263	-12.630441	-17.675417	-8.418196	-4.544984	-3.123144	-0.392665	-10.045283	-1.526000	6.668620	-6.531280	0.855833	-0.308654	0.347472	-1.000000	-1.000000	-1.000000	-1.000000	-1.000000	-1.000000	-1.000000	69.724138	0.000000	-1.000000	-1.000000	2610596.000000	1770066718.709779
-21466.845000	-14261.265000	-21565.530000	-14764.590000	-24312.015000	-15859.080000	-1687.455000	-9146.160000	-12.418257	-9.976826	-21.940718	-11.925441	-6.413594	-2.399680	-0.410652	-16.242852	-1.526000	6.668620	-6.531280	0.855833	-0.308654	0.347472	-1.000000	-1.000000	-1.000000	-1.000000	-1.000000	-1.000000	-1.000000	69.724138	0.000000	-1.000000	-1.000000	2610597.000000	1770066718.713788
-21470.895000	-14287.455000	-21605.130000	-14799.420000	-24343.020000	-15884.280000	-1715.310000	-9138.555000	0.339112	0.000787	-19.987999	-13.384375	-8.879814	-3.948229	-2.358091	-11.234661	-1.526000	6.668620	-6.531280	0.855833	-0.308654	0.347472	-1.000000	-1.000000	-1.000000	-1.000000	-1.000000	-1.000000	-1.000000	69.724138	0.000000	-1.000000	-1.000000	2610598.000000	1770066718.713799
-21492.360000	-14296.725000	-21632.220000	-14825.025000	-24361.470000	-15880.770000	-1681.245000	-9145.620000	16.493922	11.840079	-13.628002	-11.905671	-9.812475	-5.661543	-5.504852	2.163946	-1.526000	6.668620	-6.531280	0.855833	-0.308654	0.347472	-1.000000	-1.000000	-1.000000	-1.000000	-1.000000	-1.000000	-1.000000	69.724138	0.000000	-1.000000	-1.000000	2610599.000000	1770066718.717846
-21495.690000	-14278.815000	-21637.620000	-14850.990000	-24392.790000	-15888.240000	-1646.370000	-9170.190000	23.950725	17.709833	-6.298581	-8.626085	-8.564796	-5.006780	-5.462853	13.647396	-1.526000	6.668620	-6.531280	0.855833	-0.308654	0.347472	-1.000000	-1.000000	-1.000000	-1.000000	-1.000000	-1.000000	-1.000000	69.724138	0.000000	-1.000000	-1.000000	2610600.000000	1770066718.717856
-21487.185000	-14247.000000	-21645.180000	-14871.195000	-24417.405000	-15890.670000	-1611.540000	-9162.315000	17.646116	16.492621	0.625174	-5.002347	-6.162152	-1.536362	1.413284	14.714165	0.228900	17.075940	-2.945180	0.859373	-0.312011	0.350890	-1.000000	-1.000000	-1.000000	-1.000000	-1.000000	-1.000000	-1.000000	69.724138	0.000000	-1.000000	-1.000000	2610601.000000	1770066718.725710
-21464.415000	-14224.320000	-21647.970000	-14872.995000	-24417.315000	-15886.125000	-1624.050000	-9136.575000	4.181228	13.566157	8.582324	-0.345669	-2.774043	3.276644	12.327479	6.660588	0.228900	17.075940	-2.945180	0.859373	-0.312011	0.350890	-1.000000	-1.000000	-1.000000	-1.000000	-1.000000	-1.000000	-1.000000	69.724138	0.000000	-1.000000	-1.000000	2610602.000000	1770066718.725720
-21472.470000	-14234.445000	-21666.690000	-14882.670000	-24424.245000	-15906.285000	-1682.190000	-9145.665000	-6.181226	12.054618	17.653357	6.671405	2.636377	7.178205	18.007873	-1.967697	0.228900	17.075940	-2.945180	0.859373	-0.312011	0.350890	-1.000000	-1.000000	-1.000000	-1.000000	-1.000000	-1.000000	-1.000000	69.724138	0.000000	-1.000000	-1.000000	2610603.000000	1770066718.725840
-21479.805000	-14225.580000	-21631.500000	-14843.250000	-24387.480000	-15885.990000	-1682.460000	-9162.945000	-10.165987	8.478975	24.116650	14.982207	10.031687	8.326539	11.225474	-6.106344	0.228900	17.075940	-2.945180	0.859373	-0.312011	0.350890	-1.000000	-1.000000	-1.000000	-1.000000	-1.000000	-1.000000	-1.000000	69.724138	0.000000	-1.000000	-1.000000	2610604.000000	1770066718.725850
-21501.765000	-14248.170000	-21581.370000	-14776.920000	-24323.445000	-15857.505000	-1648.170000	-9174.195000	-11.988072	-1.267004	25.334343	22.928601	18.686948	7.763490	-3.405793	-8.141564	0.228900	17.075940	-2.945180	0.859373	-0.312011	0.350890	-1.000000	-1.000000	-1.000000	-1.000000	-1.000000	-1.000000	-1.000000	69.724138	0.000000	-1.000000	-1.000000	2610605.000000	1770066718.729994
-21513.015000	-14277.195000	-21536.055000	-14721.390000	-24266.430000	-15812.505000	-1578.735000	-9161.550000	-15.455037	-15.402690	23.447922	30.391113	28.209233	9.178475	-12.255125	-10.977758	0.228900	17.075940	-2.945180	0.859373	-0.312011	0.350890	-1.000000	-1.000000	-1.000000	-1.000000	-1.000000	-1.000000	-1.000000	69.724138	0.000000	-1.000000	-1.000000	2610606.000000	1770066718.730004
-21508.965000	-14299.470000	-21519.360000	-14698.485000	-24241.365000	-15797.655000	-1582.110000	-9161.955000	-18.272474	-27.039013	20.732856	35.247237	35.548660	13.727075	-7.331370	-12.607844	0.228900	17.075940	-2.945180	0.859373	-0.312011	0.350890	-1.000000	-1.000000	-1.000000	-1.000000	-1.000000	-1.000000	-1.000000	69.724138	0.000000	-1.000000	-1.000000	2610607.000000	1770066718.733861
-21518.280000	-14291.505000	-21534.075000	-14711.130000	-24245.010000	-15797.295000	-1620.765000	-9177.570000	-14.948261	-29.508309	14.681258	31.176191	33.742743	16.701496	4.203334	-9.455415	0.228900	17.075940	-2.945180	0.859373	-0.312011	0.350890	-1.000000	-1.000000	-1.000000	-1.000000	-1.000000	-1.000000	-1.000000	69.724138	0.000000	-1.000000	-1.000000	2610608.000000	1770066718.733872
-21570.570000	-14294.970000	-21540.510000	-14716.890000	-24247.305000	-15809.445000	-1687.140000	-9239.265000	-4.916869	-21.026065	1.217075	13.393614	17.845644	11.743303	7.370429	-2.375194	0.228900	17.075940	-2.945180	0.859373	-0.312011	0.350890	-1.000000	-1.000000	-1.000000	-1.000000	-1.000000	-1.000000	-1.000000	69.724138	0.000000	-1.000000	-1.000000	2610609.000000	1770066718.737692
-21563.865000	-14288.895000	-21537.225000	-14717.205000	-24251.535000	-15808.905000	-1662.750000	-9231.615000	6.089942	-5.492965	-17.877079	-14.084020	-8.569760	-2.096923	-3.811915	3.699228	0.228900	17.075940	-2.945180	0.859373	-0.312011	0.350890	-1.000000	-1.000000	-1.000000	-1.000000	-1.000000	-1.000000	-1.000000	69.724138	0.000000	-1.000000	-1.000000	2610610.000000	1770066718.737713
-21545.235000	-14256.540000	-21544.515000	-14735.115000	-24273.630000	-15832.485000	-1695.555000	-9189.630000	13.421675	10.880580	-34.040684	-39.689387	-35.012960	-18.947529	-19.619843	6.706869	17.808420	17.549000	-3.723440	0.866453	-0.331847	0.356017	-1.000000	-1.000000	-1.000000	-1.000000	-1.000000	-1.000000	-1.000000	69.724138	0.000000	-1.000000	-1.000000	2610611.000000	1770066718.741753
-21444.030000	-14220.945000	-21549.510000	-14761.350000	-24304.455000	-15858.945000	-1710.990000	-9106.695000	18.167981	23.393565	-39.369498	-53.020891	-51.487526	-30.982625	-25.760642	10.520554	17.808420	17.549000	-3.723440	0.866453	-0.331847	0.356017	-1.000000	-1.000000	-1.000000	-1.000000	-1.000000	-1.000000	-1.000000	69.724138	0.000000	-1.000000	-1.000000	2610612.000000	1770066718.741774
-21455.190000	-14258.250000	-21519.180000	-14717.025000	-24253.515000	-15801.480000	-1639.395000	-9117.945000	22.831692	28.482264	-32.465683	-50.338267	-52.796029	-32.585445	-16.094560	17.860434	17.808420	17.549000	-3.723440	0.866453	-0.331847	0.356017	-1.000000	-1.000000	-1.000000	-1.000000	-1.000000	-1.000000	-1.000000	69.724138	0.000000	-1.000000	-1.000000	2610613.000000	1770066718.745643
-21444.840000	-14217.930000	-21512.385000	-14705.370000	-24235.290000	-15784.650000	-1629.810000	-9127.980000	24.707032	23.991772	-17.417987	-33.582143	-38.419445	-21.723708	4.921496	23.220711	17.808420	17.549000	-3.723440	0.866453	-0.331847	0.356017	-1.000000	-1.000000	-1.000000	-1.000000	-1.000000	-1.000000	-1.000000	69.724138	0.000000	-1.000000	-1.000000	2610614.000000	1770066718.745654
-21474.315000	-14246.415000	-21546.900000	-14752.935000	-24289.830000	-15845.805000	-1693.305000	-9193.905000	18.150184	12.665166	-0.981453	-9.738356	-14.131892	-3.346735	24.135820	17.468090	17.808420	17.549000	-3.723440	0.866453	-0.331847	0.356017	-1.000000	-1.000000	-1.000000	-1.000000	-1.000000	-1.000000	-1.000000	69.724138	0.000000	-1.000000	-1.000000	2610615.000000	1770066718.749806
-21535.425000	-14282.820000	-21585.780000	-14791.095000	-24326.595000	-15876.900000	-1700.550000	-9188.010000	1.531827	-0.549938	9.992684	10.795309	8.593813	11.267302	28.256337	-1.065762	17.808420	17.549000	-3.723440	0.866453	-0.331847	0.356017	-1.000000	-1.000000	-1.000000	-1.000000	-1.000000	-1.000000	-1.000000	69.724138	0.000000	-1.000000	-1.000000	2610616.000000	1770066718.749814
-21512.790000	-14241.195000	-21586.770000	-14779.350000	-24308.550000	-15847.155000	-1630.035000	-9154.350000	-19.509295	-12.395894	12.943540	21.651710	21.610328	15.413979	17.734461	-21.539398	17.808420	17.549000	-3.723440	0.866453	-0.331847	0.356017	-1.000000	-1.000000	-1.000000	-1.000000	-1.000000	-1.000000	-1.000000	69.724138	0.000000	-1.000000	-1.000000	2610617.000000	1770066718.753832
-21458.385000	-14233.590000	-21607.380000	-14791.005000	-24316.695000	-15834.870000	-1566.990000	-9126.495000	-32.586835	-19.095052	11.064091	24.423837	25.793008	13.096639	6.285271	-28.703340	17.808420	17.549000	-3.723440	0.866453	-0.331847	0.356017	-1.000000	-1.000000	-1.000000	-1.000000	-1.000000	-1.000000	-1.000000	69.724138	0.000000	-1.000000	-1.000000	2610618.000000	1770066718.753842
-21499.515000	-14316.165000	-21688.425000	-14860.530000	-24371.415000	-15853.995000	-1543.230000	-9127.620000	-28.697776	-19.118938	7.875072	22.426304	24.769847	10.914594	4.033304	-18.128208	17.808420	17.549000	-3.723440	0.866453	-0.331847	0.356017	-1.000000	-1.000000	-1.000000	-1.000000	-1.000000	-1.000000	-1.000000	69.724138	0.000000	-1.000000	-1.000000	2610619.000000	1770066718.757775
-21540.015000	-14354.730000	-21747.195000	-14885.145000	-24367.275000	-15831.720000	-1547.235000	-9160.965000	-13.913794	-17.268667	3.234621	16.186119	19.838409	10.782808	8.228013	-1.063782	17.808420	17.549000	-3.723440	0.866453	-0.331847	0.356017	-1.000000	-1.000000	-1.000000	-1.000000	-1.000000	-1.000000	-1.000000	69.724138	0.000000	-1.000000	-1.000000	2610620.000000	1770066718.757784
-21460.995000	-14252.220000	-21775.095000	-14909.355000	-24376.995000	-15844.005000	-1606.185000	-9137.970000	-1.465788	-15.902935	-3.179151	6.717759	12.376895	11.086650	8.773085	7.767645	32.992120	17.991540	-20.646780	0.875669	-0.336364	0.340331	-1.000000	-1.000000	-1.000000	-1.000000	-1.000000	-1.000000	-1.000000	69.724138	0.000000	-1.000000	-1.000000	2610621.000000	1770066718.761711
-21448.215000	-14273.190000	-21843.990000	-14970.915000	-24427.440000	-15906.555000	-1704.915000	-9121.320000	4.870312	-9.096129	-9.326361	-3.850355	3.253074	7.440674	-3.810836	5.236877	32.992120	17.991540	-20.646780	0.875669	-0.336364	0.340331	-1.000000	-1.000000	-1.000000	-1.000000	-1.000000	-1.000000	-1.000000	69.724138	0.000000	-1.000000	-1.000000	2610622.000000	1770066718.761717
-21496.455000	-14335.425000	-21846.465000	-14964.345000	-24422.940000	-15915.690000	-1682.280000	-9148.950000	8.748021	4.741570	-12.105551	-13.086750	-7.315944	-3.490024	-28.347933	-0.625049	32.992120	17.991540	-20.646780	0.875669	-0.336364	0.340331	-1.000000	-1.000000	-1.000000	-1.000000	-1.000000	-1.000000	-1.000000	69.724138	0.000000	-1.000000	-1.000000	2610623.000000	1770066718.768601
-21501.900000	-14342.310000	-21744.045000	-14885.010000	-24366.330000	-15891.840000	-1674.540000	-9152.010000	11.100448	17.177985	-6.116410	-14.511923	-13.886906	-15.799804	-47.622054	-2.348483	32.992120	17.991540	-20.646780	0.875669	-0.336364	0.340331	-1.000000	-1.000000	-1.000000	-1.000000	-1.000000	-1.000000	-1.000000	69.724138	0.000000	-1.000000	-1.000000	2610624.000000	1770066718.768613
-21496.815000	-14297.265000	-21604.680000	-14802.120000	-24317.910000	-15879.780000	-1689.345000	-9153.765000	11.585087	22.049298	14.389043	-0.857690	-8.367279	-18.389413	-44.153830	0.939838	32.992120	17.991540	-20.646780	0.875669	-0.336364	0.340331	-1.000000	-1.000000	-1.000000	-1.000000	-1.000000	-1.000000	-1.000000	69.724138	0.000000	-1.000000	-1.000000	2610625.000000	1770066718.769845
-21506.625000	-14274.360000	-21447.855000	-14669.595000	-24216.210000	-15808.275000	-1675.080000	-9168.165000	10.451885	20.425929	46.377687	25.410736	9.175742	-7.764870	-19.200016	5.151498	32.992120	17.991540	-20.646780	0.875669	-0.336364	0.340331	-1.000000	-1.000000	-1.000000	-1.000000	-1.000000	-1.000000	-1.000000	69.724138	0.000000	-1.000000	-1.000000	2610626.000000	1770066718.769851
-21496.410000	-14187.960000	-21425.805000	-14655.645000	-24194.340000	-15754.815000	-1549.530000	-9157.635000	6.638374	16.244912	73.917243	50.416692	28.966388	10.191243	12.749389	5.913231	32.992120	17.991540	-20.646780	0.875669	-0.336364	0.340331	-1.000000	-1.000000	-1.000000	-1.000000	-1.000000	-1.000000	-1.000000	69.724138	0.000000	-1.000000	-1.000000	2610627.000000	1770066718.775440
-21476.295000	-14166.990000	-21455.235000	-14677.740000	-24204.195000	-15742.395000	-1500.255000	-9142.965000	1.139920	14.148106	76.359384	57.088252	38.244740	26.058961	39.871345	3.092511	32.992120	17.991540	-20.646780	0.875669	-0.336364	0.340331	-1.000000	-1.000000	-1.000000	-1.000000	-1.000000	-1.000000	-1.000000	69.724138	0.000000	-1.000000	-1.000000	2610628.000000	1770066718.775450
-21530.070000	-14231.655000	-21486.420000	-14686.155000	-24204.465000	-15762.195000	-1593.405000	-9206.640000	-3.392144	12.921372	43.270527	36.207071	28.444276	30.338530	53.959506	-0.870341	32.992120	17.991540	-20.646780	0.875669	-0.336364	0.340331	-1.000000	-1.000000	-1.000000	-1.000000	-1.000000	-1.000000	-1.000000	69.724138	0.000000	-1.000000	-1.000000	2610629.000000	1770066718.777952
-21546.090000	-14286.240000	-21509.955000	-14704.965000	-24229.260000	-15803.415000	-1685.835000	-9210.240000	-8.441225	2.858976	-15.552012	-5.779984	1.239198	17.981511	46.568008	-5.501897	32.992120	17.991540	-20.646780	0.875669	-0.336364	0.340331	-1.000000	-1.000000	-1.000000	-1.000000	-1.000000	-1.000000	-1.000000	69.724138	0.000000	-1.000000	-1.000000	2610630.000000	1770066718.777962
-21563.730000	-14349.600000	-21570.615000	-14753.160000	-24275.655000	-15855.750000	-1759.680000	-9187.470000	-15.274100	-19.923036	-74.623014	-50.105888	-31.637186	-6.703253	16.925815	-9.541117	14.191800	12.696320	-27.208580	0.871641	-0.312621	0.304992	-1.000000	-1.000000	-1.000000	-1.000000	-1.000000	-1.000000	-1.000000	69.724138	0.000000	-1.000000	-1.000000	2610631.000000	1770066718.781781
-21508.830000	-14295.060000	-21600.585000	-14784.030000	-24297.255000	-15867.540000	-1728.045000	-9158.085000	-17.674266	-42.306578	-109.028068	-78.144861	-55.749104	-31.593106	-21.203007	-7.802023	14.191800	12.696320	-27.208580	0.871641	-0.312621	0.304992	-1.000000	-1.000000	-1.000000	-1.000000	-1.000000	-1.000000	-1.000000	69.724138	0.000000	-1.000000	-1.000000	2610632.000000	1770066718.781791
-21485.025000	-14250.600000	-21584.205000	-14780.295000	-24295.230000	-15848.235000	-1676.115000	-9167.085000	-8.057675	-45.158126	-107.981482	-81.018837	-61.469959	-43.827998	-46.134123	2.139021	14.191800	12.696320	-27.208580	0.871641	-0.312621	0.304992	-1.000000	-1.000000	-1.000000	-1.000000	-1.000000	-1.000000	-1.000000	69.724138	0.000000	-1.000000	-1.000000	2610633.000000	1770066718.785751
-21485.835000	-14254.470000	-21605.580000	-14790.105000	-24306.840000	-15846.840000	-1651.995000	-9178.065000	11.040794	-23.859361	-77.154407	-61.100651	-47.853351	-37.518294	-43.481317	14.107452	14.191800	12.696320	-27.208580	0.871641	-0.312621	0.304992	-1.000000	-1.000000	-1.000000	-1.000000	-1.000000	-1.000000	-1.000000	69.724138	0.000000	-1.000000	-1.000000	2610634.000000	1770066718.785761
-21512.745000	-14319.135000	-21720.600000	-14865.390000	-24368.355000	-15876.855000	-1648.980000	-9169.245000	26.648961	5.749330	-33.691148	-29.428009	-23.066862	-18.266192	-18.436001	19.131345	14.191800	12.696320	-27.208580	0.871641	-0.312621	0.304992	-1.000000	-1.000000	-1.000000	-1.000000	-1.000000	-1.000000	-1.000000	69.724138	0.000000	-1.000000	-1.000000	2610635.000000	1770066718.794116
-21539.205000	-14377.590000	-21857.490000	-14977.755000	-24468.210000	-15921.360000	-1602.585000	-9169.965000	26.804712	22.238494	4.126338	0.543502	0.703034	1.186106	8.923118	13.859078	14.191800	12.696320	-27.208580	0.871641	-0.312621	0.304992	-1.000000	-1.000000	-1.000000	-1.000000	-1.000000	-1.000000	-1.000000	69.724138	0.000000	-1.000000	-1.000000	2610636.000000	1770066718.794127
-21525.255000	-14389.605000	-21964.455000	-15110.145000	-24615.945000	-15977.970000	-1518.030000	-9146.475000	11.215785	18.017801	27.768020	20.111543	14.376912	11.512640	23.974581	2.285792	14.191800	12.696320	-27.208580	0.871641	-0.312621	0.304992	-1.000000	-1.000000	-1.000000	-1.000000	-1.000000	-1.000000	-1.000000	69.724138	0.000000	-1.000000	-1.000000	2610637.000000	1770066718.794139
-21529.980000	-14409.270000	-22019.760000	-15182.190000	-24685.470000	-16015.545000	-1608.345000	-9158.310000	-8.951272	3.870208	39.668655	27.543306	15.762094	12.440962	27.428855	-7.802293	14.191800	12.696320	-27.208580	0.871641	-0.312621	0.304992	-1.000000	-1.000000	-1.000000	-1.000000	-1.000000	-1.000000	-1.000000	69.724138	0.000000	-1.000000	-1.000000	2610638.000000	1770066718.794144
-21469.320000	-14326.290000	-21894.030000	-15081.300000	-24601.455000	-15975.720000	-1684.755000	-9170.685000	-20.436512	-2.858687	48.674914	29.587584	13.056881	11.304079	23.597637	-11.763309	14.191800	12.696320	-27.208580	0.871641	-0.312621	0.304992	-1.000000	-1.000000	-1.000000	-1.000000	-1.000000	-1.000000	-1.000000	69.724138	0.000000	-1.000000	-1.000000	2610639.000000	1770066718.797803
-21456.720000	-14301.225000	-21801.195000	-15028.785000	-24549.480000	-15946.065000	-1624.140000	-9151.695000	-16.963746	7.283367	63.998511	38.242006	20.702763	16.637962	13.655671	-10.971078	14.191800	12.696320	-27.208580	0.871641	-0.312621	0.304992	-1.000000	-1.000000	-1.000000	-1.000000	-1.000000	-1.000000	-1.000000	69.724138	0.000000	-1.000000	-1.000000	2610640.000000	1770066718.797814
-21497.265000	-14320.890000	-21682.260000	-14932.350000	-24439.275000	-15915.600000	-1669.590000	-9153.135000	-4.066333	26.475530	83.798634	56.469457	43.121878	28.720344	0.061580	-8.197635	-3.448760	-4.791640	-14.695380	0.866514	-0.290466	0.308715	-1.000000	-1.000000	-1.000000	-1.000000	-1.000000	-1.000000	-1.000000	69.724138	0.000000	-1.000000	-1.000000	2610641.000000	1770066718.801847
-21510.540000	-14262.300000	-21557.205000	-14779.575000	-24273.495000	-15851.790000	-1705.005000	-9190.305000	5.367260	36.001075	92.581413	72.921221	68.818336	38.295522	-14.861743	-5.089913	-3.448760	-4.791640	-14.695380	0.866514	-0.290466	0.308715	-1.000000	-1.000000	-1.000000	-1.000000	-1.000000	-1.000000	-1.000000	69.724138	0.000000	-1.000000	-1.000000	2610642.000000	1770066718.801862
-21476.340000	-14157.360000	-21476.115000	-14699.295000	-24195.330000	-15799.590000	-1665.045000	-9191.070000	4.910918	27.816232	76.209096	73.735957	81.204444	36.530491	-28.151849	-2.930809	-3.448760	-4.791640	-14.695380	0.866514	-0.290466	0.308715	-1.000000	-1.000000	-1.000000	-1.000000	-1.000000	-1.000000	-1.000000	69.724138	0.000000	-1.000000	-1.000000	2610643.000000	1770066718.808898
-21546.945000	-14178.150000	-21394.305000	-14640.840000	-24178.590000	-15797.430000	-1672.200000	-9224.055000	-1.078948	10.641628	36.418030	53.355345	68.745421	22.082575	-33.380848	-2.245064	-3.448760	-4.791640	-14.695380	0.866514	-0.290466	0.308715	-1.000000	-1.000000	-1.000000	-1.000000	-1.000000	-1.000000	-1.000000	69.724138	0.000000	-1.000000	-1.000000	2610644.000000	1770066718.808910
-21640.455000	-14194.755000	-21297.285000	-14528.160000	-24086.790000	-15716.070000	-1635.660000	-9300.600000	-7.902638	-5.822393	-9.624475	18.563553	32.460130	1.002769	-26.970066	-3.663942	-3.448760	-4.791640	-14.695380	0.866514	-0.290466	0.308715	-1.000000	-1.000000	-1.000000	-1.000000	-1.000000	-1.000000	-1.000000	69.724138	0.000000	-1.000000	-1.000000	2610645.000000	1770066718.809722
-21656.925000	-14178.915000	-21300.345000	-14524.605000	-24085.350000	-15707.295000	-1638.945000	-9355.590000	-14.704379	-18.731135	-44.104136	-16.442693	-12.677159	-16.670512	-11.309289	-7.877730	-3.448760	-4.791640	-14.695380	0.866514	-0.290466	0.308715	-1.000000	-1.000000	-1.000000	-1.000000	-1.000000	-1.000000	-1.000000	69.724138	0.000000	-1.000000	-1.000000	2610646.000000	1770066718.809729
-21534.255000	-14193.180000	-21397.410000	-14616.045000	-24169.320000	-15760.620000	-1612.530000	-9262.170000	-16.820855	-27.249847	-64.553707	-44.888005	-52.012833	-25.752406	10.456530	-10.702479	-3.448760	-4.791640	-14.695380	0.866514	-0.290466	0.308715	-1.000000	-1.000000	-1.000000	-1.000000	-1.000000	-1.000000	-1.000000	69.724138	0.000000	-1.000000	-1.000000	2610647.000000	1770066718.815081
-21476.610000	-14265.270000	-21530.250000	-14732.145000	-24267.645000	-15825.870000	-1608.255000	-9152.550000	-6.311921	-32.053905	-82.578503	-72.297872	-82.940050	-30.990496	33.958818	-2.618243	-3.448760	-4.791640	-14.695380	0.866514	-0.290466	0.308715	-1.000000	-1.000000	-1.000000	-1.000000	-1.000000	-1.000000	-1.000000	69.724138	0.000000	-1.000000	-1.000000	2610648.000000	1770066718.815094
-21499.155000	-14370.120000	-21659.895000	-14852.790000	-24393.420000	-15935.715000	-1719.540000	-9121.185000	15.219617	-36.142486	-105.491532	-101.848191	-106.787022	-39.328963	47.022229	19.054820	-3.448760	-4.791640	-14.695380	0.866514	-0.290466	0.308715	-1.000000	-1.000000	-1.000000	-1.000000	-1.000000	-1.000000	-1.000000	69.724138	0.000000	-1.000000	-1.000000	2610649.000000	1770066718.817814
-21538.980000	-14417.820000	-21727.665000	-14919.930000	-24499.845000	-15982.830000	-1674.450000	-9152.955000	33.504579	-39.839152	-123.634638	-123.198214	-119.049194	-50.395212	37.291347	41.383614	-3.448760	-4.791640	-14.695380	0.866514	-0.290466	0.308715	-1.000000	-1.000000	-1.000000	-1.000000	-1.000000	-1.000000	-1.000000	69.724138	0.000000	-1.000000	-1.000000	2610650.000000	1770066718.817826
-21517.650000	-14364.045000	-21787.605000	-14983.740000	-24590.475000	-15987.690000	-1544.940000	-9191.880000	35.096263	-37.436322	-117.610613	-119.917492	-111.704469	-55.242964	11.049510	46.078421	-17.945760	-2.258480	-22.371160	0.870237	-0.285888	0.348754	-1.000000	-1.000000	-1.000000	-1.000000	-1.000000	-1.000000	-1.000000	69.724138	0.000000	-1.000000	-1.000000	2610651.000000	1770066718.821801
-21442.680000	-14291.370000	-21789.000000	-15001.380000	-24623.820000	-16011.090000	-1613.025000	-9119.655000	20.430594	-20.909504	-74.582456	-82.295926	-78.013835	-43.372170	-12.674101	27.384849	-17.945760	-2.258480	-22.371160	0.870237	-0.285888	0.348754	-1.000000	-1.000000	-1.000000	-1.000000	-1.000000	-1.000000	-1.000000	69.724138	0.000000	-1.000000	-1.000000	2610652.000000	1770066718.821808
-21488.355000	-14352.705000	-21866.715000	-15081.930000	-24678.495000	-16105.545000	-1818.000000	-9133.155000	2.011046	10.834586	-0.450713	-15.504004	-17.944369	-13.889179	-28.107948	-2.613628	-17.945760	-2.258480	-22.371160	0.870237	-0.285888	0.348754	-1.000000	-1.000000	-1.000000	-1.000000	-1.000000	-1.000000	-1.000000	69.724138	0.000000	-1.000000	-1.000000	2610653.000000	1770066718.825655
-21498.930000	-14348.295000	-21828.195000	-15093.675000	-24641.730000	-16078.905000	-1779.390000	-9157.455000	-9.494806	45.585023	80.006197	59.112796	55.386269	21.717455	-41.942067	-26.460397	-17.945760	-2.258480	-22.371160	0.870237	-0.285888	0.348754	-1.000000	-1.000000	-1.000000	-1.000000	-1.000000	-1.000000	-1.000000	69.724138	0.000000	-1.000000	-1.000000	2610654.000000	1770066718.825662
-21471.390000	-14258.070000	-21665.205000	-14912.640000	-24432.750000	-15925.230000	-1658.205000	-9154.125000	-13.557827	66.887156	140.880097	118.601142	122.181054	52.836826	-48.256461	-35.581300	-17.945760	-2.258480	-22.371160	0.870237	-0.285888	0.348754	-1.000000	-1.000000	-1.000000	-1.000000	-1.000000	-1.000000	-1.000000	69.724138	0.000000	-1.000000	-1.000000	2610655.000000	1770066718.829790
-21506.445000	-14265.810000	-21675.690000	-14840.010000	-24332.850000	-15848.640000	-1551.015000	-9170.865000	-16.640943	67.584192	168.976704	153.045150	167.328207	77.928997	-29.789846	-33.360885	-17.945760	-2.258480	-22.371160	0.870237	-0.285888	0.348754	-1.000000	-1.000000	-1.000000	-1.000000	-1.000000	-1.000000	-1.000000	69.724138	0.000000	-1.000000	-1.000000	2610656.000000	1770066718.829800
-21509.955000	-14315.670000	-21726.360000	-14852.970000	-24312.780000	-15837.480000	-1593.495000	-9150.210000	-23.758427	49.514585	157.229385	157.551222	177.494236	93.359488	13.422824	-28.300441	-17.945760	-2.258480	-22.371160	0.870237	-0.285888	0.348754	-1.000000	-1.000000	-1.000000	-1.000000	-1.000000	-1.000000	-1.000000	69.724138	0.000000	-1.000000	-1.000000	2610657.000000	1770066718.833958
-21531.735000	-14353.020000	-21720.645000	-14857.020000	-24311.340000	-15849.405000	-1724.490000	-9191.790000	-30.467708	18.889362	103.873342	124.873471	141.080732	87.716693	54.746303	-23.809790	-17.945760	-2.258480	-22.371160	0.870237	-0.285888	0.348754	-1.000000	-1.000000	-1.000000	-1.000000	-1.000000	-1.000000	-1.000000	69.724138	0.000000	-1.000000	-1.000000	2610658.000000	1770066718.833968
-21519.675000	-14297.220000	-21591.720000	-14769.270000	-24250.815000	-15796.845000	-1638.855000	-9206.550000	-26.898103	-14.241472	24.540799	57.732337	62.332238	53.974155	64.472700	-16.254997	-17.945760	-2.258480	-22.371160	0.870237	-0.285888	0.348754	-1.000000	-1.000000	-1.000000	-1.000000	-1.000000	-1.000000	-1.000000	69.724138	0.000000	-1.000000	-1.000000	2610659.000000	1770066718.837826
-21532.275000	-14328.045000	-21563.505000	-14735.520000	-24221.745000	-15769.620000	-1617.345000	-9182.160000	-10.866618	-40.189522	-50.093534	-22.444745	-32.494680	0.384958	37.366190	-2.122119	-17.945760	-2.258480	-22.371160	0.870237	-0.285888	0.348754	-1.000000	-1.000000	-1.000000	-1.000000	-1.000000	-1.000000	-1.000000	69.724138	0.000000	-1.000000	-1.000000	2610660.000000	1770066718.837833
-21572.775000	-14388.075000	-21572.910000	-14728.545000	-24226.470000	-15800.040000	-1723.680000	-9215.370000	8.707753	-54.741590	-95.183755	-86.928801	-108.968473	-52.845286	-5.649933	15.433038	1.663340	-19.990600	-47.031320	0.880247	-0.274047	0.377990	-1.000000	-1.000000	-1.000000	-1.000000	-1.000000	-1.000000	-1.000000	69.724138	0.000000	-1.000000	-1.000000	2610661.000000	1770066718.843032
-21548.655000	-14339.205000	-21610.845000	-14767.335000	-24255.270000	-15806.520000	-1684.530000	-9213.435000	22.612721	-55.219935	-105.393252	-117.201719	-144.439806	-86.024128	-37.343132	28.556498	1.663340	-19.990600	-47.031320	0.880247	-0.274047	0.377990	-1.000000	-1.000000	-1.000000	-1.000000	-1.000000	-1.000000	-1.000000	69.724138	0.000000	-1.000000	-1.000000	2610662.000000	1770066718.843038
-21552.480000	-14310.405000	-21678.885000	-14817.780000	-24297.075000	-15827.580000	-1662.255000	-9201.060000	28.833596	-38.401744	-91.767725	-113.164606	-137.992294	-91.310933	-43.038555	32.911372	1.663340	-19.990600	-47.031320	0.880247	-0.274047	0.377990	-1.000000	-1.000000	-1.000000	-1.000000	-1.000000	-1.000000	-1.000000	69.724138	0.000000	-1.000000	-1.000000	2610663.000000	1770066718.848622
-21560.940000	-14296.545000	-21704.040000	-14870.745000	-24361.965000	-15887.070000	-1699.605000	-9213.660000	27.223947	-9.066500	-70.415400	-89.396362	-106.192784	-75.729763	-28.809549	28.790903	1.663340	-19.990600	-47.031320	0.880247	-0.274047	0.377990	-1.000000	-1.000000	-1.000000	-1.000000	-1.000000	-1.000000	-1.000000	69.724138	0.000000	-1.000000	-1.000000	2610664.000000	1770066718.848633
-21533.445000	-14279.445000	-21760.830000	-14932.170000	-24443.820000	-15932.205000	-1690.740000	-9191.205000	17.630963	20.146720	-48.515387	-60.792272	-67.699368	-51.880282	-11.952723	17.200619	1.663340	-19.990600	-47.031320	0.880247	-0.274047	0.377990	-1.000000	-1.000000	-1.000000	-1.000000	-1.000000	-1.000000	-1.000000	69.724138	0.000000	-1.000000	-1.000000	2610665.000000	1770066718.849861
-21510.405000	-14261.760000	-21788.505000	-15026.265000	-24611.490000	-16022.520000	-1716.525000	-9183.645000	4.940455	39.955147	-22.342920	-31.851807	-31.575754	-26.392265	-0.739176	1.417920	1.663340	-19.990600	-47.031320	0.880247	-0.274047	0.377990	-1.000000	-1.000000	-1.000000	-1.000000	-1.000000	-1.000000	-1.000000	69.724138	0.000000	-1.000000	-1.000000	2610666.000000	1770066718.849869
-21533.940000	-14324.760000	-21788.370000	-15126.795000	-24802.785000	-16131.195000	-1719.630000	-9191.880000	-3.966547	45.809977	9.313766	-2.990773	-1.401859	-1.555390	8.522656	-11.711075	1.663340	-19.990600	-47.031320	0.880247	-0.274047	0.377990	-1.000000	-1.000000	-1.000000	-1.000000	-1.000000	-1.000000	-1.000000	69.724138	0.000000	-1.000000	-1.000000	2610667.000000	1770066718.857304
-21544.335000	-14374.395000	-21823.245000	-15227.820000	-24941.295000	-16217.865000	-1737.405000	-9192.555000	-7.853774	33.010768	37.297381	20.474801	18.973664	17.768216	15.883098	-16.720621	1.663340	-19.990600	-47.031320	0.880247	-0.274047	0.377990	-1.000000	-1.000000	-1.000000	-1.000000	-1.000000	-1.000000	-1.000000	69.724138	0.000000	-1.000000	-1.000000	2610668.000000	1770066718.857324
-21530.880000	-14367.780000	-21770.145000	-15192.990000	-24911.145000	-16213.320000	-1738.305000	-9186.705000	-9.577026	3.841914	51.389349	34.284864	31.635675	28.498299	16.171246	-14.173327	1.663340	-19.990600	-47.031320	0.880247	-0.274047	0.377990	-1.000000	-1.000000	-1.000000	-1.000000	-1.000000	-1.000000	-1.000000	69.724138	0.000000	-1.000000	-1.000000	2610669.000000	1770066718.858109
-21520.125000	-14318.415000	-21730.770000	-15118.785000	-24722.865000	-16101.540000	-1743.120000	-9197.280000	-9.435469	-24.830114	52.468498	44.474588	49.620749	37.317936	11.761856	-8.291584	1.663340	-19.990600	-47.031320	0.880247	-0.274047	0.377990	-1.000000	-1.000000	-1.000000	-1.000000	-1.000000	-1.000000	-1.000000	69.724138	0.000000	-1.000000	-1.000000	2610670.000000	1770066718.858119
-21506.535000	-14304.870000	-21612.240000	-14886.315000	-24373.710000	-15917.220000	-1733.715000	-9198.585000	-6.041380	-34.913979	49.622136	62.158481	86.425729	54.610410	8.989032	-2.513821	-46.008900	-47.794320	-37.844800	0.865965	-0.265807	0.396117	-1.000000	-1.000000	-1.000000	-1.000000	-1.000000	-1.000000	-1.000000	69.724138	0.000000	-1.000000	-1.000000	2610671.000000	1770066718.861814
-21540.375000	-14323.545000	-21591.720000	-14763.780000	-24224.580000	-15821.865000	-1691.370000	-9206.955000	-1.494220	-25.125508	47.653102	88.680347	136.048840	79.085055	7.695494	1.008580	-46.008900	-47.794320	-37.844800	0.865965	-0.265807	0.396117	-1.000000	-1.000000	-1.000000	-1.000000	-1.000000	-1.000000	-1.000000	69.724138	0.000000	-1.000000	-1.000000	2610672.000000	1770066718.861825
-21570.345000	-14370.750000	-21735.045000	-14880.195000	-24386.760000	-15878.520000	-1676.610000	-9216.990000	-0.633583	-8.495194	39.592840	105.198300	163.040148	92.349232	5.238350	1.034983	-46.008900	-47.794320	-37.844800	0.865965	-0.265807	0.396117	-1.000000	-1.000000	-1.000000	-1.000000	-1.000000	-1.000000	-1.000000	69.724138	0.000000	-1.000000	-1.000000	2610673.000000	1770066718.865889
-21583.035000	-14418.315000	-21896.460000	-15089.265000	-24632.145000	-16005.240000	-1701.585000	-9229.545000	-5.524226	2.324217	13.314049	82.581640	124.734574	71.941891	1.361991	-2.228956	-46.008900	-47.794320	-37.844800	0.865965	-0.265807	0.396117	-1.000000	-1.000000	-1.000000	-1.000000	-1.000000	-1.000000	-1.000000	69.724138	0.000000	-1.000000	-1.000000	2610674.000000	1770066718.865901
-21569.130000	-14450.355000	-21876.480000	-15151.005000	-24725.295000	-16077.555000	-1717.740000	-9219.645000	-12.018450	3.867613	-30.152911	12.589822	16.790060	13.930224	-3.010175	-6.239720	-46.008900	-47.794320	-37.844800	0.865965	-0.265807	0.396117	-1.000000	-1.000000	-1.000000	-1.000000	-1.000000	-1.000000	-1.000000	69.724138	0.000000	-1.000000	-1.000000	2610675.000000	1770066718.872210
-21539.340000	-14369.940000	-21690.720000	-15032.070000	-24581.835000	-16013.475000	-1728.180000	-9212.670000	-12.276398	2.480787	-67.275355	-72.423439	-107.652379	-56.266681	-7.314481	-6.474428	-46.008900	-47.794320	-37.844800	0.865965	-0.265807	0.396117	-1.000000	-1.000000	-1.000000	-1.000000	-1.000000	-1.000000	-1.000000	69.724138	0.000000	-1.000000	-1.000000	2610676.000000	1770066718.872220
-21509.595000	-14232.780000	-21525.390000	-14813.280000	-24422.940000	-15927.210000	-1711.890000	-9208.215000	-2.182817	9.009665	-68.318070	-119.382290	-175.045405	-99.570429	-11.282559	-0.887324	-46.008900	-47.794320	-37.844800	0.865965	-0.265807	0.396117	-1.000000	-1.000000	-1.000000	-1.000000	-1.000000	-1.000000	-1.000000	69.724138	0.000000	-1.000000	-1.000000	2610677.000000	1770066718.873969
-21539.340000	-14295.105000	-21678.885000	-14904.450000	-24530.400000	-15928.875000	-1688.580000	-9217.800000	13.254137	25.489546	-30.206845	-101.732376	-154.933436	-94.868811	-12.043164	7.148434	-46.008900	-47.794320	-37.844800	0.865965	-0.265807	0.396117	-1.000000	-1.000000	-1.000000	-1.000000	-1.000000	-1.000000	-1.000000	69.724138	0.000000	-1.000000	-1.000000	2610678.000000	1770066718.873979
-21542.895000	-14270.580000	-21718.305000	-15083.280000	-24822.540000	-16035.930000	-1695.285000	-9221.265000	23.136867	37.407142	13.873529	-47.423896	-87.710111	-57.503575	-6.616089	12.437938	-46.008900	-47.794320	-37.844800	0.865965	-0.265807	0.396117	-1.000000	-1.000000	-1.000000	-1.000000	-1.000000	-1.000000	-1.000000	69.724138	0.000000	-1.000000	-1.000000	2610679.000000	1770066718.877722
-21508.875000	-14277.330000	-21745.080000	-15189.840000	-24982.155000	-16151.445000	-1733.940000	-9197.190000	20.901306	29.401179	28.896339	-10.124506	-41.856731	-24.135111	0.937120	12.543722	-46.008900	-47.794320	-37.844800	0.865965	-0.265807	0.396117	-1.000000	-1.000000	-1.000000	-1.000000	-1.000000	-1.000000	-1.000000	69.724138	0.000000	-1.000000	-1.000000	2610680.000000	1770066718.877732
-21481.470000	-14314.770000	-21870.675000	-15326.730000	-25100.325000	-16183.530000	-1736.370000	-9174.825000	10.573362	3.008663	10.702359	-14.379868	-42.725239	-16.028625	2.653447	8.895195	-46.893980	-48.374200	-19.349680	0.855283	-0.265380	0.406737	-1.000000	-1.000000	-1.000000	-1.000000	-1.000000	-1.000000	-1.000000	69.724138	0.000000	-1.000000	-1.000000	2610681.000000	1770066718.882034
-21531.960000	-14426.640000	-21920.490000	-15400.350000	-25104.555000	-16188.345000	-1708.920000	-9188.730000	0.100830	-27.881755	-17.660796	-36.929377	-52.586234	-19.892660	-2.395626	4.117175	-46.893980	-48.374200	-19.349680	0.855283	-0.265380	0.406737	-1.000000	-1.000000	-1.000000	-1.000000	-1.000000	-1.000000	-1.000000	69.724138	0.000000	-1.000000	-1.000000	2610682.000000	1770066718.882092
-21567.015000	-14436.765000	-21861.585000	-15341.895000	-24904.755000	-16143.840000	-1701.720000	-9215.550000	-8.303987	-48.949501	-27.585538	-34.971459	-16.664969	-7.211847	-6.173636	-1.338874	-46.893980	-48.374200	-19.349680	0.855283	-0.265380	0.406737	-1.000000	-1.000000	-1.000000	-1.000000	-1.000000	-1.000000	-1.000000	69.724138	0.000000	-1.000000	-1.000000	2610683.000000	1770066718.885732
-21577.860000	-14340.555000	-21676.140000	-15081.030000	-24537.285000	-16006.140000	-1684.035000	-9232.650000	-16.123353	-49.342022	-6.662736	13.831978	81.123788	33.682116	-1.719108	-8.084524	-46.893980	-48.374200	-19.349680	0.855283	-0.265380	0.406737	-1.000000	-1.000000	-1.000000	-1.000000	-1.000000	-1.000000	-1.000000	69.724138	0.000000	-1.000000	-1.000000	2610684.000000	1770066718.885741
-21587.490000	-14375.430000	-21666.195000	-14897.565000	-24318.945000	-15925.995000	-1696.680000	-9247.320000	-22.110621	-27.802811	30.252470	91.451626	198.426235	85.364945	8.465602	-14.699687	-46.893980	-48.374200	-19.349680	0.855283	-0.265380	0.406737	-1.000000	-1.000000	-1.000000	-1.000000	-1.000000	-1.000000	-1.000000	69.724138	0.000000	-1.000000	-1.000000	2610685.000000	1770066718.891816
-21602.295000	-14433.705000	-21712.140000	-14802.885000	-24284.340000	-15876.720000	-1703.250000	-9264.780000	-22.782861	0.851514	52.686404	150.772543	260.400697	114.486618	15.573089	-18.025986	-46.893980	-48.374200	-19.349680	0.855283	-0.265380	0.406737	-1.000000	-1.000000	-1.000000	-1.000000	-1.000000	-1.000000	-1.000000	69.724138	0.000000	-1.000000	-1.000000	2610686.000000	1770066718.891828
-21590.730000	-14400.990000	-21754.845000	-14888.205000	-24546.195000	-15957.630000	-1694.790000	-9253.890000	-15.535869	19.239893	43.284093	150.843641	213.253065	97.141965	13.740300	-15.227415	-46.893980	-48.374200	-19.349680	0.855283	-0.265380	0.406737	-1.000000	-1.000000	-1.000000	-1.000000	-1.000000	-1.000000	-1.000000	69.724138	0.000000	-1.000000	-1.000000	2610687.000000	1770066718.893805
-21552.795000	-14372.955000	-21827.475000	-15105.915000	-24960.060000	-16112.745000	-1689.030000	-9218.160000	-0.788582	24.394574	10.204724	83.516864	60.602307	34.674103	4.765353	-5.420739	-46.893980	-48.374200	-19.349680	0.855283	-0.265380	0.406737	-1.000000	-1.000000	-1.000000	-1.000000	-1.000000	-1.000000	-1.000000	69.724138	0.000000	-1.000000	-1.000000	2610688.000000	1770066718.893816
-21579.750000	-14427.045000	-21906.360000	-15321.465000	-25080.705000	-16191.495000	-1710.135000	-9226.980000	15.805281	22.332236	-27.065426	-27.388392	-136.617704	-47.696447	-5.170676	8.112830	-46.893980	-48.374200	-19.349680	0.855283	-0.265380	0.406737	-1.000000	-1.000000	-1.000000	-1.000000	-1.000000	-1.000000	-1.000000	69.724138	0.000000	-1.000000	-1.000000	2610689.000000	1770066718.897780
-21534.030000	-14312.385000	-21791.565000	-15322.680000	-24911.280000	-16215.930000	-1759.590000	-9219.285000	26.183223	19.341131	-47.524824	-134.056985	-281.802321	-112.293956	-12.274370	18.347305	-46.893980	-48.374200	-19.349680	0.855283	-0.265380	0.406737	-1.000000	-1.000000	-1.000000	-1.000000	-1.000000	-1.000000	-1.000000	69.724138	0.000000	-1.000000	-1.000000	2610690.000000	1770066718.897786
-21481.875000	-14262.165000	-21724.695000	-15146.190000	-24579.405000	-16044.615000	-1721.880000	-9186.210000	28.139120	22.281694	-34.895380	-179.650344	-291.200617	-125.933166	-15.998219	20.731527	17.335360	-46.115720	30.504740	0.854307	-0.277953	0.416320	-1.000000	-1.000000	-1.000000	-1.000000	-1.000000	-1.000000	-1.000000	69.586207	0.000000	-1.000000	-1.000000	2610691.000000	1770066718.901778
-21594.465000	-14416.515000	-21799.395000	-15028.155000	-24426.540000	-15895.665000	-1669.500000	-9243.045000	23.717659	28.379444	2.300023	-136.359527	-158.057022	-78.276967	-13.881163	16.147678	17.335360	-46.115720	30.504740	0.854307	-0.277953	0.416320	-1.000000	-1.000000	-1.000000	-1.000000	-1.000000	-1.000000	-1.000000	69.586207	0.000000	-1.000000	-1.000000	2610692.000000	1770066718.901789
-21595.005000	-14371.065000	-21753.270000	-14844.420000	-24258.735000	-15857.730000	-1703.790000	-9264.195000	11.441645	21.056731	29.965653	-33.656852	32.727039	5.423267	-4.116234	6.538480	17.335360	-46.115720	30.504740	0.854307	-0.277953	0.416320	-1.000000	-1.000000	-1.000000	-1.000000	-1.000000	-1.000000	-1.000000	69.586207	0.000000	-1.000000	-1.000000	2610693.000000	1770066718.905800
-21542.355000	-14289.705000	-21703.365000	-14836.140000	-24230.700000	-15864.120000	-1752.165000	-9254.385000	-7.091966	-4.492719	25.840517	63.945807	169.574483	75.332087	7.468181	-5.443299	17.335360	-46.115720	30.504740	0.854307	-0.277953	0.416320	-1.000000	-1.000000	-1.000000	-1.000000	-1.000000	-1.000000	-1.000000	69.586207	0.000000	-1.000000	-1.000000	2610694.000000	1770066718.905806
-21587.400000	-14390.280000	-21673.980000	-14853.690000	-24315.120000	-15826.365000	-1708.020000	-9267.795000	-22.092839	-31.101999	2.556817	106.172956	193.803844	94.280610	12.770129	-14.389836	17.335360	-46.115720	30.504740	0.854307	-0.277953	0.416320	-1.000000	-1.000000	-1.000000	-1.000000	-1.000000	-1.000000	-1.000000	69.586207	0.000000	-1.000000	-1.000000	2610695.000000	1770066718.910863
-21654.990000	-14526.360000	-21888.405000	-15066.135000	-24734.385000	-15947.370000	-1655.730000	-9269.730000	-27.653031	-46.034227	-16.622509	85.069185	120.575977	63.031988	11.517718	-16.514301	17.335360	-46.115720	30.504740	0.854307	-0.277953	0.416320	-1.000000	-1.000000	-1.000000	-1.000000	-1.000000	-1.000000	-1.000000	69.586207	0.000000	-1.000000	-1.000000	2610696.000000	1770066718.910874
-21582.450000	-14392.350000	-21996.945000	-15324.975000	-25250.895000	-16241.400000	-1699.515000	-9242.280000	-25.730779	-48.747239	-25.616768	26.082262	2.436832	6.378362	8.481535	-12.644098	17.335360	-46.115720	30.504740	0.854307	-0.277953	0.416320	-1.000000	-1.000000	-1.000000	-1.000000	-1.000000	-1.000000	-1.000000	69.586207	0.000000	-1.000000	-1.000000	2610697.000000	1770066718.914063
-21456.630000	-14221.260000	-21949.290000	-15441.435000	-25410.870000	-16381.215000	-1746.135000	-9191.070000	-15.368103	-33.214257	-27.074542	-35.335851	-108.839098	-51.235574	4.728377	-4.619640	17.335360	-46.115720	30.504740	0.854307	-0.277953	0.416320	-1.000000	-1.000000	-1.000000	-1.000000	-1.000000	-1.000000	-1.000000	69.586207	0.000000	-1.000000	-1.000000	2610698.000000	1770066718.914073
-21469.635000	-14248.845000	-21772.665000	-15358.860000	-25114.950000	-16274.520000	-1750.590000	-9211.230000	4.854474	3.530003	-16.563435	-68.846889	-168.035235	-87.657790	-1.360234	5.452736	17.335360	-46.115720	30.504740	0.854307	-0.277953	0.416320	-1.000000	-1.000000	-1.000000	-1.000000	-1.000000	-1.000000	-1.000000	69.586207	0.000000	-1.000000	-1.000000	2610699.000000	1770066718.918005
-21557.880000	-14396.580000	-21745.485000	-15182.055000	-24628.725000	-16064.595000	-1760.760000	-9256.185000	24.639991	41.307961	9.056687	-59.611638	-139.745452	-82.260187	-9.016273	12.216129	17.335360	-46.115720	30.504740	0.854307	-0.277953	0.416320	-1.000000	-1.000000	-1.000000	-1.000000	-1.000000	-1.000000	-1.000000	69.586207	0.000000	-1.000000	-1.000000	2610700.000000	1770066718.918015
-21615.705000	-14470.965000	-21760.695000	-14936.805000	-24265.305000	-15910.740000	-1737.945000	-9283.365000	29.122728	52.215240	37.907571	-14.504948	-24.797143	-31.755616	-15.005696	10.884996	17.228540	-86.615760	17.014900	0.824827	-0.267150	0.545897	-1.000000	-1.000000	-1.000000	-1.000000	-1.000000	-1.000000	-1.000000	69.586207	0.000000	-1.000000	-1.000000	2610701.000000	1770066718.921954
-21611.385000	-14502.960000	-21904.920000	-14877.180000	-24246.585000	-15896.115000	-1713.825000	-9269.955000	15.142263	28.506290	46.901305	40.746749	119.634206	39.548172	-14.336770	3.407456	17.228540	-86.615760	17.014900	0.824827	-0.267150	0.545897	-1.000000	-1.000000	-1.000000	-1.000000	-1.000000	-1.000000	-1.000000	69.586207	0.000000	-1.000000	-1.000000	2610702.000000	1770066718.921963
-21526.695000	-14344.650000	-21889.440000	-14975.415000	-24491.025000	-15945.525000	-1717.965000	-9224.550000	-6.066539	-10.576261	23.008943	73.189204	205.314209	91.752435	-4.082783	-3.248642	17.228540	-86.615760	17.014900	0.824827	-0.267150	0.545897	-1.000000	-1.000000	-1.000000	-1.000000	-1.000000	-1.000000	-1.000000	69.586207	0.000000	-1.000000	-1.000000	2610703.000000	1770066718.926113
-21519.090000	-14327.415000	-21916.350000	-15100.695000	-24660.360000	-15981.525000	-1704.105000	-9207.090000	-17.643318	-32.051863	-18.288192	63.323244	179.134983	96.061562	10.062830	-3.389873	17.228540	-86.615760	17.014900	0.824827	-0.267150	0.545897	-1.000000	-1.000000	-1.000000	-1.000000	-1.000000	-1.000000	-1.000000	69.586207	0.000000	-1.000000	-1.000000	2610704.000000	1770066718.926121
-21559.905000	-14334.345000	-21783.330000	-15072.615000	-24766.650000	-16046.595000	-1709.550000	-9231.480000	-12.461886	-19.246243	-41.614819	23.737294	70.564109	56.876708	17.633215	1.746996	17.228540	-86.615760	17.014900	0.824827	-0.267150	0.545897	-1.000000	-1.000000	-1.000000	-1.000000	-1.000000	-1.000000	-1.000000	69.586207	0.000000	-1.000000	-1.000000	2610705.000000	1770066718.929944
-21586.860000	-14409.135000	-21746.520000	-15120.630000	-24933.105000	-16086.915000	-1701.450000	-9235.620000	-1.258405	9.109575	-23.648135	-10.015676	-39.739064	6.434370	15.012020	4.595386	17.228540	-86.615760	17.014900	0.824827	-0.267150	0.545897	-1.000000	-1.000000	-1.000000	-1.000000	-1.000000	-1.000000	-1.000000	69.586207	0.000000	-1.000000	-1.000000	2610706.000000	1770066718.929950
-21592.530000	-14417.190000	-21809.250000	-15269.580000	-25005.420000	-16145.640000	-1721.430000	-9250.830000	0.476374	20.058910	19.693134	-18.449525	-99.109440	-26.813008	7.344093	-0.242576	17.228540	-86.615760	17.014900	0.824827	-0.267150	0.545897	-1.000000	-1.000000	-1.000000	-1.000000	-1.000000	-1.000000	-1.000000	69.586207	0.000000	-1.000000	-1.000000	2610707.000000	1770066718.936939
-21540.600000	-14355.495000	-21675.195000	-15037.830000	-24581.475000	-15972.840000	-1731.465000	-9233.730000	-7.861159	5.167733	47.109867	-14.286846	-110.304913	-39.282950	-0.122161	-9.356630	17.228540	-86.615760	17.014900	0.824827	-0.267150	0.545897	-1.000000	-1.000000	-1.000000	-1.000000	-1.000000	-1.000000	-1.000000	69.586207	0.000000	-1.000000	-1.000000	2610708.000000	1770066718.936944
-21581.640000	-14361.795000	-21720.240000	-14922.180000	-24265.665000	-15788.700000	-1696.590000	-9263.610000	-11.871390	-12.440103	36.660139	-14.688242	-93.357409	-40.170653	-5.940039	-13.754054	17.228540	-86.615760	17.014900	0.824827	-0.267150	0.545897	-1.000000	-1.000000	-1.000000	-1.000000	-1.000000	-1.000000	-1.000000	69.586207	0.000000	-1.000000	-1.000000	2610709.000000	1770066718.937951
-21641.580000	-14355.270000	-21766.995000	-14940.765000	-24223.815000	-15785.190000	-1683.360000	-9320.220000	-2.962374	-10.859892	0.047628	-24.810875	-61.687883	-35.081390	-9.129093	-9.367473	17.228540	-86.615760	17.014900	0.824827	-0.267150	0.545897	-1.000000	-1.000000	-1.000000	-1.000000	-1.000000	-1.000000	-1.000000	69.586207	0.000000	-1.000000	-1.000000	2610710.000000	1770066718.937962
-21626.910000	-14386.950000	-21788.415000	-15092.955000	-24523.515000	-15907.815000	-1654.425000	-9291.240000	10.351135	5.098471	-37.466002	-43.189202	-29.691074	-28.134953	-8.250955	-1.146036	-52.509660	-135.051000	10.208940	0.813536	-0.165771	0.602965	-1.000000	-1.000000	-1.000000	-1.000000	-1.000000	-1.000000	-1.000000	69.586207	0.000000	-1.000000	-1.000000	2610711.000000	1770066718.941963
-21561.795000	-14330.115000	-21817.935000	-15137.370000	-24805.620000	-16047.225000	-1657.395000	-9229.545000	16.386941	15.612996	-55.470987	-58.461407	-10.560817	-24.989370	-3.870446	5.503276	-52.509660	-135.051000	10.208940	0.813536	-0.165771	0.602965	-1.000000	-1.000000	-1.000000	-1.000000	-1.000000	-1.000000	-1.000000	69.586207	0.000000	-1.000000	-1.000000	2610712.000000	1770066718.941983
-21523.050000	-14298.345000	-21820.185000	-15112.035000	-24848.865000	-16092.315000	-1718.325000	-9207.765000	14.882083	11.890721	-47.611076	-50.522846	-1.380574	-25.363543	-0.353711	10.537149	-52.509660	-135.051000	10.208940	0.813536	-0.165771	0.602965	-1.000000	-1.000000	-1.000000	-1.000000	-1.000000	-1.000000	-1.000000	69.586207	0.000000	-1.000000	-1.000000	2610713.000000	1770066718.945961
-21559.095000	-14423.040000	-21918.915000	-15338.610000	-24996.735000	-16090.920000	-1706.760000	-9205.920000	11.640922	-0.276140	-22.950527	-12.626373	15.415869	-18.258211	-2.006772	14.541296	-52.509660	-135.051000	10.208940	0.813536	-0.165771	0.602965	-1.000000	-1.000000	-1.000000	-1.000000	-1.000000	-1.000000	-1.000000	69.586207	0.000000	-1.000000	-1.000000	2610714.000000	1770066718.945971
-21569.850000	-14415.570000	-21820.680000	-15228.675000	-24744.735000	-15985.980000	-1639.080000	-9227.745000	7.183972	-14.436011	3.109379	37.294876	51.015678	7.734009	-5.491478	14.770778	-52.509660	-135.051000	10.208940	0.813536	-0.165771	0.602965	-1.000000	-1.000000	-1.000000	-1.000000	-1.000000	-1.000000	-1.000000	69.586207	0.000000	-1.000000	-1.000000	2610715.000000	1770066718.949850
-21485.880000	-14270.265000	-21749.175000	-15106.680000	-24544.170000	-15902.865000	-1537.605000	-9204.435000	-0.237168	-23.308184	22.572661	76.975907	94.804335	47.620950	-1.549609	8.717997	-52.509660	-135.051000	10.208940	0.813536	-0.165771	0.602965	-1.000000	-1.000000	-1.000000	-1.000000	-1.000000	-1.000000	-1.000000	69.586207	0.000000	-1.000000	-1.000000	2610716.000000	1770066718.949860
-21545.640000	-14335.965000	-21928.230000	-15073.155000	-24610.545000	-16017.345000	-1591.245000	-9231.885000	-7.686070	-17.873224	31.431588	89.981101	109.499215	73.347201	11.665888	-1.399399	-52.509660	-135.051000	10.208940	0.813536	-0.165771	0.602965	-1.000000	-1.000000	-1.000000	-1.000000	-1.000000	-1.000000	-1.000000	69.586207	0.000000	-1.000000	-1.000000	2610717.000000	1770066718.953924
-21566.925000	-14430.735000	-22159.530000	-15313.545000	-25014.015000	-16236.585000	-1759.905000	-9227.745000	-11.360033	-1.426293	20.903830	60.664952	52.127623	51.662282	19.898752	-9.898512	-52.509660	-135.051000	10.208940	0.813536	-0.165771	0.602965	-1.000000	-1.000000	-1.000000	-1.000000	-1.000000	-1.000000	-1.000000	69.586207	0.000000	-1.000000	-1.000000	2610718.000000	1770066718.953935
-21548.115000	-14493.780000	-22069.170000	-15380.955000	-25025.985000	-16206.570000	-1753.605000	-9227.385000	-10.272867	10.345821	-6.699599	-8.460715	-68.996880	-15.953302	7.369177	-12.141283	-52.509660	-135.051000	10.208940	0.813536	-0.165771	0.602965	-1.000000	-1.000000	-1.000000	-1.000000	-1.000000	-1.000000	-1.000000	69.586207	0.000000	-1.000000	-1.000000	2610719.000000	1770066718.959759
-21475.440000	-14317.605000	-21759.750000	-15170.445000	-24438.060000	-15969.600000	-1654.020000	-9224.640000	-5.283872	10.060220	-23.283063	-76.190095	-162.816014	-76.775183	-18.951054	-8.911865	-52.509660	-135.051000	10.208940	0.813536	-0.165771	0.602965	-1.000000	-1.000000	-1.000000	-1.000000	-1.000000	-1.000000	-1.000000	69.586207	0.000000	-1.000000	-1.000000	2610720.000000	1770066718.959770
-21527.370000	-14242.275000	-21679.155000	-15061.365000	-24079.725000	-15781.365000	-1629.990000	-9262.170000	-0.108667	7.134001	-0.474270	-88.032908	-124.357985	-70.798141	-33.804871	-6.325800	-73.324300	21.745500	43.536780	1.093930	-0.243713	0.288207	-1.000000	-1.000000	-1.000000	-1.000000	-1.000000	-1.000000	-1.000000	69.586207	0.000000	-1.000000	-1.000000	2610721.000000	1770066718.962012
-21573.405000	-14356.080000	-21904.470000	-15036.075000	-24170.940000	-15782.805000	-1664.775000	-9259.830000	-0.432201	10.082768	48.591986	-30.902487	44.173732	6.595427	-22.849930	-8.466618	-73.324300	21.745500	43.536780	1.093930	-0.243713	0.288207	-1.000000	-1.000000	-1.000000	-1.000000	-1.000000	-1.000000	-1.000000	69.586207	0.000000	-1.000000	-1.000000	2610722.000000	1770066718.962018
-21582.045000	-14418.990000	-21945.960000	-15183.225000	-24526.755000	-15974.280000	-1686.915000	-9247.590000	-7.049667	13.282447	75.535198	52.616132	213.111500	94.215286	3.561190	-11.626556	-73.324300	21.745500	43.536780	1.093930	-0.243713	0.288207	-1.000000	-1.000000	-1.000000	-1.000000	-1.000000	-1.000000	-1.000000	69.586207	0.000000	-1.000000	-1.000000	2610723.000000	1770066718.965825
-21586.140000	-14444.370000	-21915.270000	-15331.410000	-24935.220000	-16200.450000	-1692.585000	-9234.090000	-13.714332	6.956112	49.950646	98.843031	235.876908	116.078024	23.494444	-8.819529	-73.324300	21.745500	43.536780	1.093930	-0.243713	0.288207	-1.000000	-1.000000	-1.000000	-1.000000	-1.000000	-1.000000	-1.000000	69.586207	0.000000	-1.000000	-1.000000	2610724.000000	1770066718.965830
-21498.930000	-14275.350000	-21741.480000	-15250.230000	-25061.670000	-16312.590000	-1699.380000	-9206.010000	-13.347232	-7.922328	-9.924118	70.714686	71.909101	45.250147	23.721984	1.948232	-73.324300	21.745500	43.536780	1.093930	-0.243713	0.288207	-1.000000	-1.000000	-1.000000	-1.000000	-1.000000	-1.000000	-1.000000	69.586207	0.000000	-1.000000	-1.000000	2610725.000000	1770066718.969889
-21445.335000	-14111.865000	-21893.670000	-15280.965000	-24808.455000	-16127.190000	-1566.900000	-9222.615000	-1.130173	-14.400454	-58.319819	-10.925359	-171.747806	-69.022751	11.354365	15.949834	-73.324300	21.745500	43.536780	1.093930	-0.243713	0.288207	-1.000000	-1.000000	-1.000000	-1.000000	-1.000000	-1.000000	-1.000000	69.586207	0.000000	-1.000000	-1.000000	2610726.000000	1770066718.969899
-21468.690000	-14189.265000	-22069.170000	-15412.140000	-24639.570000	-15935.535000	-1463.580000	-9215.055000	20.821752	2.046952	-67.862104	-86.729583	-316.828869	-136.813966	7.247948	25.554183	-73.324300	21.745500	43.536780	1.093930	-0.243713	0.288207	-1.000000	-1.000000	-1.000000	-1.000000	-1.000000	-1.000000	-1.000000	69.586207	0.000000	-1.000000	-1.000000	2610727.000000	1770066718.974290
-21476.385000	-14197.860000	-21946.590000	-15313.680000	-24705.765000	-16019.370000	-1557.090000	-9178.695000	37.862573	27.944262	-49.222744	-109.899720	-265.689673	-108.900854	18.287703	25.382043	-73.324300	21.745500	43.536780	1.093930	-0.243713	0.288207	-1.000000	-1.000000	-1.000000	-1.000000	-1.000000	-1.000000	-1.000000	69.586207	0.000000	-1.000000	-1.000000	2610728.000000	1770066718.974302
-21511.215000	-14389.245000	-22121.550000	-15397.740000	-24815.790000	-16201.845000	-1699.920000	-9200.340000	33.552356	30.557425	-29.084769	-75.985629	-80.447427	-23.090591	22.964638	15.398245	-73.324300	21.745500	43.536780	1.093930	-0.243713	0.288207	-1.000000	-1.000000	-1.000000	-1.000000	-1.000000	-1.000000	-1.000000	69.586207	0.000000	-1.000000	-1.000000	2610729.000000	1770066718.977872
-21500.235000	-14347.665000	-22019.625000	-15421.140000	-24900.885000	-16272.540000	-1686.420000	-9194.490000	8.011599	-4.900895	-20.548857	-16.111941	97.928965	43.826568	1.168444	-0.051501	-73.324300	21.745500	43.536780	1.093930	-0.243713	0.288207	-1.000000	-1.000000	-1.000000	-1.000000	-1.000000	-1.000000	-1.000000	69.586207	0.000000	-1.000000	-1.000000	2610730.000000	1770066718.977884
-21435.120000	-14240.430000	-21823.785000	-15224.625000	-24582.690000	-16028.460000	-1708.515000	-9186.705000	-19.965640	-50.804731	-8.078857	38.599160	187.019634	59.198747	-35.213441	-14.432799	177.687440	160.428380	33.541480	1.417660	-0.664671	-0.152649	-1.000000	-1.000000	-1.000000	-1.000000	-1.000000	-1.000000	-1.000000	69.586207	0.000000	-1.000000	-1.000000	2610731.000000	1770066718.982068
-21526.380000	-14297.400000	-21589.380000	-15167.925000	-24508.575000	-15955.245000	-1746.270000	-9238.230000	-31.944045	-63.790812	30.929455	80.723781	201.510745	51.686352	-57.964122	-22.764279	177.687440	160.428380	33.541480	1.417660	-0.664671	-0.152649	-1.000000	-1.000000	-1.000000	-1.000000	-1.000000	-1.000000	-1.000000	69.586207	0.000000	-1.000000	-1.000000	2610732.000000	1770066718.982078
-21611.520000	-14437.665000	-21540.330000	-15072.975000	-24387.030000	-15878.925000	-1696.230000	-9259.740000	-28.815584	-37.116420	85.185100	107.277621	182.623559	56.045079	-52.113310	-24.880570	177.687440	160.428380	33.541480	1.417660	-0.664671	-0.152649	-1.000000	-1.000000	-1.000000	-1.000000	-1.000000	-1.000000	-1.000000	69.586207	0.000000	-1.000000	-1.000000	2610733.000000	1770066718.987262
-21672.765000	-14619.240000	-21802.905000	-15098.445000	-24278.985000	-15857.460000	-1663.605000	-9272.025000	-24.350567	-5.417835	109.637966	102.477072	139.806994	69.446098	-21.495937	-22.412071	177.687440	160.428380	33.541480	1.417660	-0.664671	-0.152649	-1.000000	-1.000000	-1.000000	-1.000000	-1.000000	-1.000000	-1.000000	69.586207	0.000000	-1.000000	-1.000000	2610734.000000	1770066718.987272
-21634.515000	-14434.605000	-21651.705000	-14923.260000	-24237.630000	-15894.855000	-1689.930000	-9280.080000	-23.477762	3.981986	76.034820	59.806486	63.327764	62.351322	16.837466	-14.941650	177.687440	160.428380	33.541480	1.417660	-0.664671	-0.152649	-1.000000	-1.000000	-1.000000	-1.000000	-1.000000	-1.000000	-1.000000	69.586207	0.000000	-1.000000	-1.000000	2610735.000000	1770066718.989766
-21571.605000	-14271.840000	-21634.155000	-14951.475000	-24443.190000	-16006.770000	-1717.605000	-9250.605000	-16.554833	5.370791	7.510868	0.276926	-43.599990	14.081164	41.558231	-2.324235	177.687440	160.428380	33.541480	1.417660	-0.664671	-0.152649	-1.000000	-1.000000	-1.000000	-1.000000	-1.000000	-1.000000	-1.000000	69.586207	0.000000	-1.000000	-1.000000	2610736.000000	1770066718.989777
-21567.870000	-14371.515000	-21797.955000	-15129.000000	-24790.635000	-16140.870000	-1708.785000	-9220.230000	4.462607	24.219425	-56.413272	-53.055893	-157.181416	-62.054032	43.615717	12.447808	177.687440	160.428380	33.541480	1.417660	-0.664671	-0.152649	-1.000000	-1.000000	-1.000000	-1.000000	-1.000000	-1.000000	-1.000000	69.586207	0.000000	-1.000000	-1.000000	2610737.000000	1770066718.995068
-21600.585000	-14463.765000	-21865.590000	-15134.850000	-24846.255000	-16124.175000	-1702.080000	-9233.370000	32.077932	53.149901	-98.095216	-93.361744	-239.705975	-123.621769	32.010713	24.395656	177.687440	160.428380	33.541480	1.417660	-0.664671	-0.152649	-1.000000	-1.000000	-1.000000	-1.000000	-1.000000	-1.000000	-1.000000	69.586207	0.000000	-1.000000	-1.000000	2610738.000000	1770066718.995075
-21518.235000	-14326.830000	-22016.790000	-15178.545000	-24700.680000	-16002.045000	-1696.995000	-9209.745000	50.278163	65.449931	-113.411400	-113.412046	-247.892661	-130.480894	19.213403	28.790710	177.687440	160.428380	33.541480	1.417660	-0.664671	-0.152649	-1.000000	-1.000000	-1.000000	-1.000000	-1.000000	-1.000000	-1.000000	69.586207	0.000000	-1.000000	-1.000000	2610739.000000	1770066719.000908
-21538.665000	-14291.550000	-22056.165000	-15283.080000	-24828.885000	-16096.590000	-1676.745000	-9215.280000	49.749360	51.348973	-104.157838	-105.386594	-164.091591	-78.591540	9.589694	23.805444	177.687440	160.428380	33.541480	1.417660	-0.664671	-0.152649	-1.000000	-1.000000	-1.000000	-1.000000	-1.000000	-1.000000	-1.000000	69.586207	0.000000	-1.000000	-1.000000	2610740.000000	1770066719.000914
-21616.920000	-14421.870000	-21824.325000	-15197.175000	-24924.420000	-16233.975000	-1722.465000	-9258.930000	31.679119	20.091031	-73.938716	-71.789073	-25.383962	-4.451290	1.437128	11.687853	240.802800	156.399740	-33.526220	1.230221	-0.654906	-0.057800	-1.000000	-1.000000	-1.000000	-1.000000	-1.000000	-1.000000	-1.000000	69.586207	0.000000	-1.000000	-1.000000	2610741.000000	1770066719.002023
-21476.835000	-14235.570000	-21588.345000	-14852.250000	-24342.255000	-16055.370000	-1780.560000	-9212.175000	5.829545	-12.473453	-16.886464	-16.530697	108.855783	51.194350	-9.754195	-2.566864	240.802800	156.399740	-33.526220	1.230221	-0.654906	-0.057800	-1.000000	-1.000000	-1.000000	-1.000000	-1.000000	-1.000000	-1.000000	69.586207	0.000000	-1.000000	-1.000000	2610742.000000	1770066719.002033
-21550.815000	-14345.820000	-21766.365000	-14957.190000	-24087.240000	-15733.665000	-1725.840000	-9243.810000	-14.236992	-31.100475	65.758516	52.791347	204.842327	79.984038	-25.095828	-13.011716	240.802800	156.399740	-33.526220	1.230221	-0.654906	-0.057800	-1.000000	-1.000000	-1.000000	-1.000000	-1.000000	-1.000000	-1.000000	69.586207	0.000000	-1.000000	-1.000000	2610743.000000	1770066719.005768
-21715.155000	-14526.090000	-21892.995000	-15013.260000	-24225.840000	-15687.855000	-1666.710000	-9302.940000	-26.317518	-38.952237	136.357378	107.211285	243.579560	95.767390	-35.153981	-17.560037	240.802800	156.399740	-33.526220	1.230221	-0.654906	-0.057800	-1.000000	-1.000000	-1.000000	-1.000000	-1.000000	-1.000000	-1.000000	69.586207	0.000000	-1.000000	-1.000000	2610744.000000	1770066719.005778
-21608.280000	-14322.555000	-21859.695000	-15057.360000	-24467.625000	-15930.540000	-1721.115000	-9246.240000	-38.093581	-49.918190	146.305078	114.078803	204.536643	97.875420	-29.046295	-18.888189	240.802800	156.399740	-33.526220	1.230221	-0.654906	-0.057800	-1.000000	-1.000000	-1.000000	-1.000000	-1.000000	-1.000000	-1.000000	69.586207	0.000000	-1.000000	-1.000000	2610745.000000	1770066719.009870
-21506.760000	-14206.905000	-21901.545000	-15109.290000	-24583.680000	-16066.980000	-1754.235000	-9209.025000	-43.974061	-52.569088	91.709134	73.190867	93.120585	68.126136	-9.581618	-16.833647	240.802800	156.399740	-33.526220	1.230221	-0.654906	-0.057800	-1.000000	-1.000000	-1.000000	-1.000000	-1.000000	-1.000000	-1.000000	69.586207	0.000000	-1.000000	-1.000000	2610746.000000	1770066719.009879
-21523.860000	-14287.455000	-21882.735000	-15121.575000	-24654.960000	-16113.960000	-1754.955000	-9211.365000	-30.164096	-26.262394	13.361058	13.062344	-46.544014	2.401080	9.973569	-8.447885	240.802800	156.399740	-33.526220	1.230221	-0.654906	-0.057800	-1.000000	-1.000000	-1.000000	-1.000000	-1.000000	-1.000000	-1.000000	69.586207	0.000000	-1.000000	-1.000000	2610747.000000	1770066719.013960
-21568.815000	-14385.780000	-21822.120000	-15035.805000	-24667.380000	-16060.050000	-1752.480000	-9232.650000	-1.723321	14.161603	-45.050194	-34.856590	-159.080727	-73.587781	19.755457	3.580004	240.802800	156.399740	-33.526220	1.230221	-0.654906	-0.057800	-1.000000	-1.000000	-1.000000	-1.000000	-1.000000	-1.000000	-1.000000	69.586207	0.000000	-1.000000	-1.000000	2610748.000000	1770066719.013970
-21599.730000	-14412.915000	-21774.780000	-14944.635000	-24507.945000	-15915.015000	-1717.875000	-9242.370000	21.613180	34.914380	-65.287830	-50.145889	-200.683537	-116.792178	19.271851	12.217596	240.802800	156.399740	-33.526220	1.230221	-0.654906	-0.057800	-1.000000	-1.000000	-1.000000	-1.000000	-1.000000	-1.000000	-1.000000	69.586207	0.000000	-1.000000	-1.000000	2610749.000000	1770066719.017927
-21577.770000	-14373.090000	-21754.620000	-14891.940000	-24406.605000	-15890.895000	-1703.520000	-9233.235000	29.170208	27.903755	-59.591438	-34.902423	-156.089856	-97.495315	14.538672	14.196773	240.802800	156.399740	-33.526220	1.230221	-0.654906	-0.057800	-1.000000	-1.000000	-1.000000	-1.000000	-1.000000	-1.000000	-1.000000	69.586207	0.000000	-1.000000	-1.000000	2610750.000000	1770066719.017937
-21580.740000	-14355.900000	-21718.080000	-14855.490000	-24395.040000	-15908.940000	-1690.830000	-9240.030000	22.953063	10.219297	-48.392655	-13.504454	-62.167695	-32.738004	10.765883	10.778684	276.862180	97.633480	185.302180	0.737425	-0.200317	0.177063	-1.000000	-1.000000	-1.000000	-1.000000	-1.000000	-1.000000	-1.000000	69.586207	0.000000	-1.000000	-1.000000	2610751.000000	1770066719.021833
-21547.080000	-14281.200000	-21728.565000	-14888.970000	-24375.870000	-15791.490000	-1555.830000	-9239.670000	11.328278	0.312975	-33.940038	-5.467048	16.894200	26.230011	8.535162	5.018378	276.862180	97.633480	185.302180	0.737425	-0.200317	0.177063	-1.000000	-1.000000	-1.000000	-1.000000	-1.000000	-1.000000	-1.000000	69.586207	0.000000	-1.000000	-1.000000	2610752.000000	1770066719.021841
-21457.125000	-14173.110000	-21547.980000	-14733.450000	-24258.105000	-15662.520000	-1348.245000	-9216.405000	5.729953	7.092417	-7.178664	-6.027277	55.823184	50.717509	9.688861	0.647221	276.862180	97.633480	185.302180	0.737425	-0.200317	0.177063	-1.000000	-1.000000	-1.000000	-1.000000	-1.000000	-1.000000	-1.000000	69.586207	0.000000	-1.000000	-1.000000	2610753.000000	1770066719.025847
-21398.940000	-14143.545000	-21478.230000	-14670.180000	-24135.390000	-15603.435000	-1243.845000	-9135.630000	9.682082	22.863607	30.902952	1.349296	78.621635	55.667135	18.936114	-0.425932	276.862180	97.633480	185.302180	0.737425	-0.200317	0.177063	-1.000000	-1.000000	-1.000000	-1.000000	-1.000000	-1.000000	-1.000000	69.586207	0.000000	-1.000000	-1.000000	2610754.000000	1770066719.025854
-21497.580000	-14279.940000	-21704.940000	-14828.490000	-24266.385000	-15764.805000	-1528.515000	-9141.750000	12.120738	26.972090	60.933464	19.138849	103.433351	59.178880	28.049135	0.769085	276.862180	97.633480	185.302180	0.737425	-0.200317	0.177063	-1.000000	-1.000000	-1.000000	-1.000000	-1.000000	-1.000000	-1.000000	69.586207	0.000000	-1.000000	-1.000000	2610755.000000	1770066719.030102
-21659.265000	-14392.620000	-21838.590000	-14957.280000	-24466.365000	-15999.345000	-1890.225000	-9258.300000	-1.168460	6.238460	54.895328	26.860624	108.181864	48.422498	9.651578	-0.065632	276.862180	97.633480	185.302180	0.737425	-0.200317	0.177063	-1.000000	-1.000000	-1.000000	-1.000000	-1.000000	-1.000000	-1.000000	69.586207	0.000000	-1.000000	-1.000000	2610756.000000	1770066719.030114
-21724.965000	-14471.550000	-21829.995000	-14999.670000	-24474.105000	-15982.560000	-1793.700000	-9247.500000	-30.330185	-30.706372	5.763476	5.894073	63.579853	4.131085	-47.032286	-7.199785	276.862180	97.633480	185.302180	0.737425	-0.200317	0.177063	-1.000000	-1.000000	-1.000000	-1.000000	-1.000000	-1.000000	-1.000000	69.586207	0.000000	-1.000000	-1.000000	2610757.000000	1770066719.034121
-21713.805000	-14519.610000	-21844.890000	-15010.830000	-24480.000000	-15983.055000	-1762.470000	-9235.710000	-56.271884	-60.288205	-58.245002	-35.272248	-20.822213	-59.007679	-104.910301	-16.547667	276.862180	97.633480	185.302180	0.737425	-0.200317	0.177063	-1.000000	-1.000000	-1.000000	-1.000000	-1.000000	-1.000000	-1.000000	69.586207	0.000000	-1.000000	-1.000000	2610758.000000	1770066719.034130
-21591.945000	-14407.965000	-21811.905000	-15033.195000	-24545.430000	-16040.880000	-1862.370000	-9257.265000	-55.607554	-62.482817	-97.153220	-69.953708	-104.617723	-101.900613	-114.751374	-19.044450	276.862180	97.633480	185.302180	0.737425	-0.200317	0.177063	-1.000000	-1.000000	-1.000000	-1.000000	-1.000000	-1.000000	-1.000000	69.586207	0.000000	-1.000000	-1.000000	2610759.000000	1770066719.037924
-21571.065000	-14395.905000	-21828.150000	-15075.765000	-24591.330000	-16062.345000	-1861.065000	-9281.925000	-21.349458	-32.942789	-86.920023	-75.426816	-151.089384	-100.887446	-67.736949	-12.184703	276.862180	97.633480	185.302180	0.737425	-0.200317	0.177063	-1.000000	-1.000000	-1.000000	-1.000000	-1.000000	-1.000000	-1.000000	69.586207	0.000000	-1.000000	-1.000000	2610760.000000	1770066719.037935
-21628.845000	-14382.855000	-21841.110000	-15089.265000	-24594.570000	-16025.625000	-1719.990000	-9294.300000	28.715847	13.877792	-32.610768	-45.290519	-140.503006	-61.303911	6.444595	-0.626060	244.800920	72.713900	65.892680	0.591307	-0.168762	0.325256	-1.000000	-1.000000	-1.000000	-1.000000	-1.000000	-1.000000	-1.000000	69.586207	0.000000	-1.000000	-1.000000	2610761.000000	1770066719.043924
-21539.070000	-14224.905000	-21627.855000	-14892.030000	-24411.735000	-15804.495000	-1367.235000	-9305.775000	63.471262	53.059689	36.230969	9.027392	-72.224121	-0.045947	75.436209	8.743696	244.800920	72.713900	65.892680	0.591307	-0.168762	0.325256	-1.000000	-1.000000	-1.000000	-1.000000	-1.000000	-1.000000	-1.000000	69.586207	0.000000	-1.000000	-1.000000	2610762.000000	1770066719.043941
-21324.690000	-13958.505000	-21297.960000	-14567.265000	-24096.465000	-15469.335000	-966.960000	-9236.745000	67.193833	71.948066	93.945117	71.657039	35.284821	71.940324	128.104699	11.345998	244.800920	72.713900	65.892680	0.591307	-0.168762	0.325256	-1.000000	-1.000000	-1.000000	-1.000000	-1.000000	-1.000000	-1.000000	69.586207	0.000000	-1.000000	-1.000000	2610763.000000	1770066719.045907
-21251.430000	-13917.420000	-21309.165000	-14571.900000	-24080.895000	-15494.220000	-1149.165000	-9102.780000	52.788944	77.477766	132.543258	128.795826	147.314613	141.957886	163.016310	11.880670	244.800920	72.713900	65.892680	0.591307	-0.168762	0.325256	-1.000000	-1.000000	-1.000000	-1.000000	-1.000000	-1.000000	-1.000000	69.586207	0.000000	-1.000000	-1.000000	2610764.000000	1770066719.045917
-21489.885000	-14221.440000	-21644.820000	-14909.895000	-24417.900000	-15914.430000	-1794.555000	-9182.520000	35.597085	69.962834	135.783345	151.431667	211.507108	173.395558	153.540615	18.878153	244.800920	72.713900	65.892680	0.591307	-0.168762	0.325256	-1.000000	-1.000000	-1.000000	-1.000000	-1.000000	-1.000000	-1.000000	69.586207	0.000000	-1.000000	-1.000000	2610765.000000	1770066719.051128
-21629.385000	-14462.505000	-21864.240000	-15143.040000	-24659.145000	-16159.590000	-1991.115000	-9278.730000	9.855403	31.503312	75.132769	102.414113	176.810989	120.260325	59.904334	26.559923	244.800920	72.713900	65.892680	0.591307	-0.168762	0.325256	-1.000000	-1.000000	-1.000000	-1.000000	-1.000000	-1.000000	-1.000000	69.586207	0.000000	-1.000000	-1.000000	2610766.000000	1770066719.051138
-21462.345000	-14280.120000	-21724.020000	-15007.455000	-24543.450000	-15976.800000	-1693.395000	-9171.675000	-30.318802	-38.824788	-41.416567	-13.102091	45.675186	-10.889400	-94.912608	20.786813	244.800920	72.713900	65.892680	0.591307	-0.168762	0.325256	-1.000000	-1.000000	-1.000000	-1.000000	-1.000000	-1.000000	-1.000000	69.586207	0.000000	-1.000000	-1.000000	2610767.000000	1770066719.053903
-21416.985000	-14247.315000	-21718.530000	-14995.215000	-24516.765000	-15951.465000	-1658.655000	-9146.205000	-67.310353	-103.444145	-149.537429	-129.738369	-106.979060	-141.451727	-211.382333	3.089284	244.800920	72.713900	65.892680	0.591307	-0.168762	0.325256	-1.000000	-1.000000	-1.000000	-1.000000	-1.000000	-1.000000	-1.000000	69.586207	0.000000	-1.000000	-1.000000	2610768.000000	1770066719.053910
-21479.670000	-14272.290000	-21703.770000	-14976.540000	-24457.140000	-15909.795000	-1580.715000	-9224.820000	-77.864599	-121.678426	-182.858547	-176.295327	-191.336086	-191.357018	-211.978104	-13.527697	244.800920	72.713900	65.892680	0.591307	-0.168762	0.325256	-1.000000	-1.000000	-1.000000	-1.000000	-1.000000	-1.000000	-1.000000	69.586207	0.000000	-1.000000	-1.000000	2610769.000000	1770066719.057887
-21490.965000	-14268.195000	-21699.630000	-14971.995000	-24447.870000	-15897.690000	-1547.235000	-9217.305000	-58.557031	-88.236511	-129.582566	-134.900526	-171.483797	-145.753608	-112.728254	-23.316858	244.800920	72.713900	65.892680	0.591307	-0.168762	0.325256	-1.000000	-1.000000	-1.000000	-1.000000	-1.000000	-1.000000	-1.000000	69.586207	0.000000	-1.000000	-1.000000	2610770.000000	1770066719.057897
-21413.295000	-14198.670000	-21587.805000	-14869.665000	-24401.520000	-15808.995000	-1482.480000	-9212.355000	-24.600190	-29.943073	-32.411778	-44.581100	-80.244346	-49.267263	8.190551	-27.190788	79.474080	24.309180	-57.804880	0.750181	-0.154113	0.331603	-1.000000	-1.000000	-1.000000	-1.000000	-1.000000	-1.000000	-1.000000	69.586207	0.000000	-1.000000	-1.000000	2610771.000000	1770066719.061773
-21398.850000	-14113.305000	-21515.355000	-14802.840000	-24350.895000	-15775.020000	-1480.905000	-9250.560000	5.685275	21.988111	53.249019	39.147887	18.101607	39.289403	82.650140	-27.143044	79.474080	24.309180	-57.804880	0.750181	-0.154113	0.331603	-1.000000	-1.000000	-1.000000	-1.000000	-1.000000	-1.000000	-1.000000	69.586207	0.000000	-1.000000	-1.000000	2610772.000000	1770066719.061783
-21434.985000	-14133.645000	-21510.765000	-14785.785000	-24279.120000	-15757.020000	-1517.445000	-9180.900000	24.109291	54.626943	99.537211	86.260217	81.246665	89.286245	101.188521	-24.023586	79.474080	24.309180	-57.804880	0.750181	-0.154113	0.331603	-1.000000	-1.000000	-1.000000	-1.000000	-1.000000	-1.000000	-1.000000	69.586207	0.000000	-1.000000	-1.000000	2610773.000000	1770066719.065768
-21697.740000	-14474.970000	-21762.225000	-15015.420000	-24498.990000	-15997.950000	-1795.005000	-9244.800000	32.925880	69.784062	108.119085	97.950113	105.162999	104.136312	96.223968	-13.836473	79.474080	24.309180	-57.804880	0.750181	-0.154113	0.331603	-1.000000	-1.000000	-1.000000	-1.000000	-1.000000	-1.000000	-1.000000	69.586207	0.000000	-1.000000	-1.000000	2610774.000000	1770066719.065778
-21647.880000	-14424.705000	-21758.715000	-14986.215000	-24478.290000	-15891.840000	-1489.545000	-9314.865000	33.590717	66.842838	86.190241	82.556637	96.853537	93.464389	87.925503	4.123453	79.474080	24.309180	-57.804880	0.750181	-0.154113	0.331603	-1.000000	-1.000000	-1.000000	-1.000000	-1.000000	-1.000000	-1.000000	69.586207	0.000000	-1.000000	-1.000000	2610775.000000	1770066719.070150
-21378.780000	-14052.555000	-21328.785000	-14555.565000	-24061.185000	-15436.620000	-947.115000	-9240.660000	27.594269	48.219158	45.568585	50.515277	64.952295	66.109239	77.642951	20.115329	79.474080	24.309180	-57.804880	0.750181	-0.154113	0.331603	-1.000000	-1.000000	-1.000000	-1.000000	-1.000000	-1.000000	-1.000000	69.586207	0.000000	-1.000000	-1.000000	2610776.000000	1770066719.070160
