Channel1	Channel2	Channel3	Channel4	Channel5	Channel6	Channel7	Channel8	FilteredChannel1	FilteredChannel2	FilteredChannel3	FilteredChannel4	FilteredChannel5	FilteredChannel6	FilteredChannel7	FilteredChannel8	GyroX	GyroY	GyroZ	AccX	AccY	AccZ	PPG1	PPG2	rawPPG1	rawPPG2	rawPPG3	Hr	Hrv	Battery	Trigger	PhysicalTrigger	AutoTrigger	NumMeasurements	Timestamp
-15813.360000	-40465.215000	-4166.730000	3076.020000	-16071.300000	-11883.105000	11423.655000	2801.520000	-7.504313	-10.591631	-12.812404	-15.451738	-15.391467	-10.779666	-11.956107	-12.014819	-1.159760	2.655240	-1.693860	0.894651	0.439330	0.080017	-1.000000	-1.000000	-1.000000	-1.000000	-1.000000	-1.000000	-1.000000	66.413793	0.000000	-1.000000	-1.000000	2517044.000000	1772662923.643668
-15813.360000	-40465.215000	-4166.730000	3076.020000	-16071.300000	-11883.105000	11423.655000	2801.520000	-7.504313	-10.591631	-12.812404	-15.451738	-15.391467	-10.779666	-11.956107	-12.014819	-1.159760	2.655240	-1.693860	0.894651	0.439330	0.080017	-1.000000	-1.000000	-1.000000	-1.000000	-1.000000	-1.000000	-1.000000	66.413793	0.000000	-1.000000	-1.000000	2517044.000000	1772662923.643668
-15813.360000	-40465.215000	-4166.730000	3076.020000	-16071.300000	-11883.105000	11423.655000	2801.520000	-7.504313	-10.591631	-12.812404	-15.451738	-15.391467	-10.779666	-11.956107	-12.014819	-1.159760	2.655240	-1.693860	0.894651	0.439330	0.080017	-1.000000	-1.000000	-1.000000	-1.000000	-1.000000	-1.000000	-1.000000	66.413793	0.000000	-1.000000	-1.000000	2517044.000000	1772662923.643668
-15809.715000	-40460.805000	-4161.240000	3085.785000	-16068.960000	-11879.145000	11429.865000	2802.780000	-13.721330	-19.319099	-21.899079	-22.703826	-18.332266	-19.463632	-14.382715	-15.121344	-1.159760	2.655240	-1.693860	0.894651	0.439330	0.080017	-1.000000	-1.000000	-1.000000	-1.000000	-1.000000	-1.000000	-1.000000	66.413793	0.000000	-1.000000	-1.000000	2517045.000000	1772662923.647710
-15809.715000	-40460.805000	-4161.240000	3085.785000	-16068.960000	-11879.145000	11429.865000	2802.780000	-13.721330	-19.319099	-21.899079	-22.703826	-18.332266	-19.463632	-14.382715	-15.121344	-1.159760	2.655240	-1.693860	0.894651	0.439330	0.080017	-1.000000	-1.000000	-1.000000	-1.000000	-1.000000	-1.000000	-1.000000	66.413793	0.000000	-1.000000	-1.000000	2517045.000000	1772662923.647710
-15809.715000	-40460.805000	-4161.240000	3085.785000	-16068.960000	-11879.145000	11429.865000	2802.780000	-13.721330	-19.319099	-21.899079	-22.703826	-18.332266	-19.463632	-14.382715	-15.121344	-1.159760	2.655240	-1.693860	0.894651	0.439330	0.080017	-1.000000	-1.000000	-1.000000	-1.000000	-1.000000	-1.000000	-1.000000	66.413793	0.000000	-1.000000	-1.000000	2517045.000000	1772662923.647710
-15798.465000	-40445.685000	-4147.875000	3098.295000	-16065.720000	-11880.405000	11433.375000	2810.565000	-17.566585	-24.089055	-26.386335	-26.401283	-19.820340	-24.599693	-14.254538	-15.475139	-1.159760	2.655240	-1.693860	0.894651	0.439330	0.080017	-1.000000	-1.000000	-1.000000	-1.000000	-1.000000	-1.000000	-1.000000	66.413793	0.000000	-1.000000	-1.000000	2517046.000000	1772662923.647718
-15798.465000	-40445.685000	-4147.875000	3098.295000	-16065.720000	-11880.405000	11433.375000	2810.565000	-17.566585	-24.089055	-26.386335	-26.401283	-19.820340	-24.599693	-14.254538	-15.475139	-1.159760	2.655240	-1.693860	0.894651	0.439330	0.080017	-1.000000	-1.000000	-1.000000	-1.000000	-1.000000	-1.000000	-1.000000	66.413793	0.000000	-1.000000	-1.000000	2517046.000000	1772662923.647718
-15798.465000	-40445.685000	-4147.875000	3098.295000	-16065.720000	-11880.405000	11433.375000	2810.565000	-17.566585	-24.089055	-26.386335	-26.401283	-19.820340	-24.599693	-14.254538	-15.475139	-1.159760	2.655240	-1.693860	0.894651	0.439330	0.080017	-1.000000	-1.000000	-1.000000	-1.000000	-1.000000	-1.000000	-1.000000	66.413793	0.000000	-1.000000	-1.000000	2517046.000000	1772662923.647718
-15794.415000	-40441.050000	-4143.780000	3097.170000	-16069.725000	-11885.895000	11428.380000	2815.605000	-17.597440	-23.444291	-25.194308	-25.220943	-20.379505	-25.203049	-11.949410	-14.253328	-1.159760	2.655240	-1.693860	0.894651	0.439330	0.080017	-1.000000	-1.000000	-1.000000	-1.000000	-1.000000	-1.000000	-1.000000	66.413793	0.000000	-1.000000	-1.000000	2517047.000000	1772662923.652586
-15794.415000	-40441.050000	-4143.780000	3097.170000	-16069.725000	-11885.895000	11428.380000	2815.605000	-17.597440	-23.444291	-25.194308	-25.220943	-20.379505	-25.203049	-11.949410	-14.253328	-1.159760	2.655240	-1.693860	0.894651	0.439330	0.080017	-1.000000	-1.000000	-1.000000	-1.000000	-1.000000	-1.000000	-1.000000	66.413793	0.000000	-1.000000	-1.000000	2517047.000000	1772662923.652586
-15794.415000	-40441.050000	-4143.780000	3097.170000	-16069.725000	-11885.895000	11428.380000	2815.605000	-17.597440	-23.444291	-25.194308	-25.220943	-20.379505	-25.203049	-11.949410	-14.253328	-1.159760	2.655240	-1.693860	0.894651	0.439330	0.080017	-1.000000	-1.000000	-1.000000	-1.000000	-1.000000	-1.000000	-1.000000	66.413793	0.000000	-1.000000	-1.000000	2517047.000000	1772662923.652586
-15786.990000	-40432.950000	-4136.310000	3102.030000	-16062.030000	-11874.870000	11430.045000	2814.345000	-12.710175	-16.583192	-17.676585	-17.904495	-17.445989	-20.047684	-7.375704	-10.609210	-1.159760	2.655240	-1.693860	0.894651	0.439330	0.080017	-1.000000	-1.000000	-1.000000	-1.000000	-1.000000	-1.000000	-1.000000	66.413793	0.000000	-1.000000	-1.000000	2517048.000000	1772662923.652594
-15786.990000	-40432.950000	-4136.310000	3102.030000	-16062.030000	-11874.870000	11430.045000	2814.345000	-12.710175	-16.583192	-17.676585	-17.904495	-17.445989	-20.047684	-7.375704	-10.609210	-1.159760	2.655240	-1.693860	0.894651	0.439330	0.080017	-1.000000	-1.000000	-1.000000	-1.000000	-1.000000	-1.000000	-1.000000	66.413793	0.000000	-1.000000	-1.000000	2517048.000000	1772662923.652594
-15786.990000	-40432.950000	-4136.310000	3102.030000	-16062.030000	-11874.870000	11430.045000	2814.345000	-12.710175	-16.583192	-17.676585	-17.904495	-17.445989	-20.047684	-7.375704	-10.609210	-1.159760	2.655240	-1.693860	0.894651	0.439330	0.080017	-1.000000	-1.000000	-1.000000	-1.000000	-1.000000	-1.000000	-1.000000	66.413793	0.000000	-1.000000	-1.000000	2517048.000000	1772662923.652594
-15798.420000	-40446.810000	-4151.070000	3088.845000	-16071.930000	-11879.820000	11435.670000	2807.820000	-4.289709	-5.314471	-5.549723	-5.641430	-9.005673	-9.268061	-1.319613	-4.897154	-1.159760	2.655240	-1.693860	0.894651	0.439330	0.080017	-1.000000	-1.000000	-1.000000	-1.000000	-1.000000	-1.000000	-1.000000	66.413793	0.000000	-1.000000	-1.000000	2517049.000000	1772662923.655818
-15798.420000	-40446.810000	-4151.070000	3088.845000	-16071.930000	-11879.820000	11435.670000	2807.820000	-4.289709	-5.314471	-5.549723	-5.641430	-9.005673	-9.268061	-1.319613	-4.897154	-1.159760	2.655240	-1.693860	0.894651	0.439330	0.080017	-1.000000	-1.000000	-1.000000	-1.000000	-1.000000	-1.000000	-1.000000	66.413793	0.000000	-1.000000	-1.000000	2517049.000000	1772662923.655818
-15798.420000	-40446.810000	-4151.070000	3088.845000	-16071.930000	-11879.820000	11435.670000	2807.820000	-4.289709	-5.314471	-5.549723	-5.641430	-9.005673	-9.268061	-1.319613	-4.897154	-1.159760	2.655240	-1.693860	0.894651	0.439330	0.080017	-1.000000	-1.000000	-1.000000	-1.000000	-1.000000	-1.000000	-1.000000	66.413793	0.000000	-1.000000	-1.000000	2517049.000000	1772662923.655818
-15805.080000	-40459.770000	-4166.190000	3072.150000	-16089.570000	-11898.675000	11425.185000	2807.955000	4.043314	5.948680	6.729674	7.487176	3.179518	3.871974	4.615638	1.193068	-1.159760	2.655240	-1.693860	0.894651	0.439330	0.080017	-1.000000	-1.000000	-1.000000	-1.000000	-1.000000	-1.000000	-1.000000	66.413793	0.000000	-1.000000	-1.000000	2517050.000000	1772662923.655827
-15805.080000	-40459.770000	-4166.190000	3072.150000	-16089.570000	-11898.675000	11425.185000	2807.955000	4.043314	5.948680	6.729674	7.487176	3.179518	3.871974	4.615638	1.193068	-1.159760	2.655240	-1.693860	0.894651	0.439330	0.080017	-1.000000	-1.000000	-1.000000	-1.000000	-1.000000	-1.000000	-1.000000	66.413793	0.000000	-1.000000	-1.000000	2517050.000000	1772662923.655827
-15805.080000	-40459.770000	-4166.190000	3072.150000	-16089.570000	-11898.675000	11425.185000	2807.955000	4.043314	5.948680	6.729674	7.487176	3.179518	3.871974	4.615638	1.193068	-1.159760	2.655240	-1.693860	0.894651	0.439330	0.080017	-1.000000	-1.000000	-1.000000	-1.000000	-1.000000	-1.000000	-1.000000	66.413793	0.000000	-1.000000	-1.000000	2517050.000000	1772662923.655827
-15801.210000	-40457.115000	-4160.610000	3081.195000	-16083.855000	-11895.615000	11419.830000	2813.580000	9.022757	12.875243	14.514312	16.628607	13.710227	13.969455	8.412911	6.013019	-1.510740	4.074420	-1.342880	0.895383	0.439147	0.079834	-1.000000	-1.000000	-1.000000	-1.000000	-1.000000	-1.000000	-1.000000	66.413793	0.000000	-1.000000	-1.000000	2517051.000000	1772662923.659677
-15801.210000	-40457.115000	-4160.610000	3081.195000	-16083.855000	-11895.615000	11419.830000	2813.580000	9.022757	12.875243	14.514312	16.628607	13.710227	13.969455	8.412911	6.013019	-1.510740	4.074420	-1.342880	0.895383	0.439147	0.079834	-1.000000	-1.000000	-1.000000	-1.000000	-1.000000	-1.000000	-1.000000	66.413793	0.000000	-1.000000	-1.000000	2517051.000000	1772662923.659677
-15801.210000	-40457.115000	-4160.610000	3081.195000	-16083.855000	-11895.615000	11419.830000	2813.580000	9.022757	12.875243	14.514312	16.628607	13.710227	13.969455	8.412911	6.013019	-1.510740	4.074420	-1.342880	0.895383	0.439147	0.079834	-1.000000	-1.000000	-1.000000	-1.000000	-1.000000	-1.000000	-1.000000	66.413793	0.000000	-1.000000	-1.000000	2517051.000000	1772662923.659677
-15803.910000	-40453.290000	-4153.410000	3092.895000	-16073.280000	-11882.790000	11420.145000	2811.420000	9.975935	14.370566	16.468966	19.676576	18.113222	17.919730	9.067148	9.000700	-1.510740	4.074420	-1.342880	0.895383	0.439147	0.079834	-1.000000	-1.000000	-1.000000	-1.000000	-1.000000	-1.000000	-1.000000	66.413793	0.000000	-1.000000	-1.000000	2517052.000000	1772662923.659683
-15803.910000	-40453.290000	-4153.410000	3092.895000	-16073.280000	-11882.790000	11420.145000	2811.420000	9.975935	14.370566	16.468966	19.676576	18.113222	17.919730	9.067148	9.000700	-1.510740	4.074420	-1.342880	0.895383	0.439147	0.079834	-1.000000	-1.000000	-1.000000	-1.000000	-1.000000	-1.000000	-1.000000	66.413793	0.000000	-1.000000	-1.000000	2517052.000000	1772662923.659683
-15803.910000	-40453.290000	-4153.410000	3092.895000	-16073.280000	-11882.790000	11420.145000	2811.420000	9.975935	14.370566	16.468966	19.676576	18.113222	17.919730	9.067148	9.000700	-1.510740	4.074420	-1.342880	0.895383	0.439147	0.079834	-1.000000	-1.000000	-1.000000	-1.000000	-1.000000	-1.000000	-1.000000	66.413793	0.000000	-1.000000	-1.000000	2517052.000000	1772662923.659683
-15798.015000	-40451.985000	-4155.255000	3088.845000	-16072.785000	-11879.595000	11418.525000	2809.935000	8.043821	11.939561	13.985630	17.144553	15.698613	16.246668	6.930656	9.903598	-1.510740	4.074420	-1.342880	0.895383	0.439147	0.079834	-1.000000	-1.000000	-1.000000	-1.000000	-1.000000	-1.000000	-1.000000	66.413793	0.000000	-1.000000	-1.000000	2517053.000000	1772662923.663904
-15798.015000	-40451.985000	-4155.255000	3088.845000	-16072.785000	-11879.595000	11418.525000	2809.935000	8.043821	11.939561	13.985630	17.144553	15.698613	16.246668	6.930656	9.903598	-1.510740	4.074420	-1.342880	0.895383	0.439147	0.079834	-1.000000	-1.000000	-1.000000	-1.000000	-1.000000	-1.000000	-1.000000	66.413793	0.000000	-1.000000	-1.000000	2517053.000000	1772662923.663904
-15798.015000	-40451.985000	-4155.255000	3088.845000	-16072.785000	-11879.595000	11418.525000	2809.935000	8.043821	11.939561	13.985630	17.144553	15.698613	16.246668	6.930656	9.903598	-1.510740	4.074420	-1.342880	0.895383	0.439147	0.079834	-1.000000	-1.000000	-1.000000	-1.000000	-1.000000	-1.000000	-1.000000	66.413793	0.000000	-1.000000	-1.000000	2517053.000000	1772662923.663904
-15799.680000	-40457.295000	-4165.695000	3069.405000	-16086.150000	-11893.320000	11423.700000	2804.805000	4.456320	6.988455	8.252339	9.680017	8.245898	10.482880	2.931106	7.763190	-1.510740	4.074420	-1.342880	0.895383	0.439147	0.079834	-1.000000	-1.000000	-1.000000	-1.000000	-1.000000	-1.000000	-1.000000	66.413793	0.000000	-1.000000	-1.000000	2517054.000000	1772662923.663912
-15799.680000	-40457.295000	-4165.695000	3069.405000	-16086.150000	-11893.320000	11423.700000	2804.805000	4.456320	6.988455	8.252339	9.680017	8.245898	10.482880	2.931106	7.763190	-1.510740	4.074420	-1.342880	0.895383	0.439147	0.079834	-1.000000	-1.000000	-1.000000	-1.000000	-1.000000	-1.000000	-1.000000	66.413793	0.000000	-1.000000	-1.000000	2517054.000000	1772662923.663912
-15799.680000	-40457.295000	-4165.695000	3069.405000	-16086.150000	-11893.320000	11423.700000	2804.805000	4.456320	6.988455	8.252339	9.680017	8.245898	10.482880	2.931106	7.763190	-1.510740	4.074420	-1.342880	0.895383	0.439147	0.079834	-1.000000	-1.000000	-1.000000	-1.000000	-1.000000	-1.000000	-1.000000	66.413793	0.000000	-1.000000	-1.000000	2517054.000000	1772662923.663912
-15803.145000	-40452.615000	-4162.005000	3068.910000	-16089.750000	-11893.230000	11425.185000	2793.960000	0.135199	0.520164	0.287386	-1.289121	-1.266091	2.350982	-1.246006	2.422641	-1.510740	4.074420	-1.342880	0.895383	0.439147	0.079834	-1.000000	-1.000000	-1.000000	-1.000000	-1.000000	-1.000000	-1.000000	66.413793	0.000000	-1.000000	-1.000000	2517055.000000	1772662923.667685
-15803.145000	-40452.615000	-4162.005000	3068.910000	-16089.750000	-11893.230000	11425.185000	2793.960000	0.135199	0.520164	0.287386	-1.289121	-1.266091	2.350982	-1.246006	2.422641	-1.510740	4.074420	-1.342880	0.895383	0.439147	0.079834	-1.000000	-1.000000	-1.000000	-1.000000	-1.000000	-1.000000	-1.000000	66.413793	0.000000	-1.000000	-1.000000	2517055.000000	1772662923.667685
-15803.145000	-40452.615000	-4162.005000	3068.910000	-16089.750000	-11893.230000	11425.185000	2793.960000	0.135199	0.520164	0.287386	-1.289121	-1.266091	2.350982	-1.246006	2.422641	-1.510740	4.074420	-1.342880	0.895383	0.439147	0.079834	-1.000000	-1.000000	-1.000000	-1.000000	-1.000000	-1.000000	-1.000000	66.413793	0.000000	-1.000000	-1.000000	2517055.000000	1772662923.667685
-15814.620000	-40460.985000	-4167.270000	3071.655000	-16093.980000	-11895.840000	11420.235000	2800.665000	-3.989800	-5.642842	-7.355437	-11.497271	-8.989287	-5.327311	-3.731970	-4.052813	-1.510740	4.074420	-1.342880	0.895383	0.439147	0.079834	-1.000000	-1.000000	-1.000000	-1.000000	-1.000000	-1.000000	-1.000000	66.413793	0.000000	-1.000000	-1.000000	2517056.000000	1772662923.667694
-15814.620000	-40460.985000	-4167.270000	3071.655000	-16093.980000	-11895.840000	11420.235000	2800.665000	-3.989800	-5.642842	-7.355437	-11.497271	-8.989287	-5.327311	-3.731970	-4.052813	-1.510740	4.074420	-1.342880	0.895383	0.439147	0.079834	-1.000000	-1.000000	-1.000000	-1.000000	-1.000000	-1.000000	-1.000000	66.413793	0.000000	-1.000000	-1.000000	2517056.000000	1772662923.667694
-15814.620000	-40460.985000	-4167.270000	3071.655000	-16093.980000	-11895.840000	11420.235000	2800.665000	-3.989800	-5.642842	-7.355437	-11.497271	-8.989287	-5.327311	-3.731970	-4.052813	-1.510740	4.074420	-1.342880	0.895383	0.439147	0.079834	-1.000000	-1.000000	-1.000000	-1.000000	-1.000000	-1.000000	-1.000000	66.413793	0.000000	-1.000000	-1.000000	2517056.000000	1772662923.667694
-15812.280000	-40459.680000	-4162.500000	3081.690000	-16089.705000	-11899.080000	11419.740000	2804.445000	-6.641295	-9.076670	-11.202068	-15.469943	-11.517582	-9.601827	-3.951701	-8.186347	-1.510740	4.074420	-1.342880	0.895383	0.439147	0.079834	-1.000000	-1.000000	-1.000000	-1.000000	-1.000000	-1.000000	-1.000000	66.413793	0.000000	-1.000000	-1.000000	2517057.000000	1772662923.676500
-15812.280000	-40459.680000	-4162.500000	3081.690000	-16089.705000	-11899.080000	11419.740000	2804.445000	-6.641295	-9.076670	-11.202068	-15.469943	-11.517582	-9.601827	-3.951701	-8.186347	-1.510740	4.074420	-1.342880	0.895383	0.439147	0.079834	-1.000000	-1.000000	-1.000000	-1.000000	-1.000000	-1.000000	-1.000000	66.413793	0.000000	-1.000000	-1.000000	2517057.000000	1772662923.676500
-15812.280000	-40459.680000	-4162.500000	3081.690000	-16089.705000	-11899.080000	11419.740000	2804.445000	-6.641295	-9.076670	-11.202068	-15.469943	-11.517582	-9.601827	-3.951701	-8.186347	-1.510740	4.074420	-1.342880	0.895383	0.439147	0.079834	-1.000000	-1.000000	-1.000000	-1.000000	-1.000000	-1.000000	-1.000000	66.413793	0.000000	-1.000000	-1.000000	2517057.000000	1772662923.676500
-15801.120000	-40447.035000	-4149.090000	3091.905000	-16081.740000	-11891.385000	11423.790000	2807.640000	-6.166416	-7.875812	-8.950153	-10.597478	-7.548804	-9.021513	-2.548146	-7.441289	-1.510740	4.074420	-1.342880	0.895383	0.439147	0.079834	-1.000000	-1.000000	-1.000000	-1.000000	-1.000000	-1.000000	-1.000000	66.413793	0.000000	-1.000000	-1.000000	2517058.000000	1772662923.676544
-15801.120000	-40447.035000	-4149.090000	3091.905000	-16081.740000	-11891.385000	11423.790000	2807.640000	-6.166416	-7.875812	-8.950153	-10.597478	-7.548804	-9.021513	-2.548146	-7.441289	-1.510740	4.074420	-1.342880	0.895383	0.439147	0.079834	-1.000000	-1.000000	-1.000000	-1.000000	-1.000000	-1.000000	-1.000000	66.413793	0.000000	-1.000000	-1.000000	2517058.000000	1772662923.676544
-15801.120000	-40447.035000	-4149.090000	3091.905000	-16081.740000	-11891.385000	11423.790000	2807.640000	-6.166416	-7.875812	-8.950153	-10.597478	-7.548804	-9.021513	-2.548146	-7.441289	-1.510740	4.074420	-1.342880	0.895383	0.439147	0.079834	-1.000000	-1.000000	-1.000000	-1.000000	-1.000000	-1.000000	-1.000000	66.413793	0.000000	-1.000000	-1.000000	2517058.000000	1772662923.676544
-15791.940000	-40439.700000	-4143.555000	3082.365000	-16075.440000	-11880.270000	11432.745000	2815.155000	-1.822314	-1.940535	-1.229891	0.420310	1.087035	-3.925934	-0.166017	-2.415616	-1.510740	4.074420	-1.342880	0.895383	0.439147	0.079834	-1.000000	-1.000000	-1.000000	-1.000000	-1.000000	-1.000000	-1.000000	66.413793	0.000000	-1.000000	-1.000000	2517059.000000	1772662923.676558
-15791.940000	-40439.700000	-4143.555000	3082.365000	-16075.440000	-11880.270000	11432.745000	2815.155000	-1.822314	-1.940535	-1.229891	0.420310	1.087035	-3.925934	-0.166017	-2.415616	-1.510740	4.074420	-1.342880	0.895383	0.439147	0.079834	-1.000000	-1.000000	-1.000000	-1.000000	-1.000000	-1.000000	-1.000000	66.413793	0.000000	-1.000000	-1.000000	2517059.000000	1772662923.676558
-15791.940000	-40439.700000	-4143.555000	3082.365000	-16075.440000	-11880.270000	11432.745000	2815.155000	-1.822314	-1.940535	-1.229891	0.420310	1.087035	-3.925934	-0.166017	-2.415616	-1.510740	4.074420	-1.342880	0.895383	0.439147	0.079834	-1.000000	-1.000000	-1.000000	-1.000000	-1.000000	-1.000000	-1.000000	66.413793	0.000000	-1.000000	-1.000000	2517059.000000	1772662923.676558
-15800.040000	-40452.345000	-4157.370000	3068.145000	-16081.920000	-11885.400000	11428.110000	2809.485000	4.377588	5.607641	7.496084	10.463060	9.413459	3.126342	2.642630	3.635932	-1.510740	4.074420	-1.342880	0.895383	0.439147	0.079834	-1.000000	-1.000000	-1.000000	-1.000000	-1.000000	-1.000000	-1.000000	66.413793	0.000000	-1.000000	-1.000000	2517060.000000	1772662923.676564
-15800.040000	-40452.345000	-4157.370000	3068.145000	-16081.920000	-11885.400000	11428.110000	2809.485000	4.377588	5.607641	7.496084	10.463060	9.413459	3.126342	2.642630	3.635932	-1.510740	4.074420	-1.342880	0.895383	0.439147	0.079834	-1.000000	-1.000000	-1.000000	-1.000000	-1.000000	-1.000000	-1.000000	66.413793	0.000000	-1.000000	-1.000000	2517060.000000	1772662923.676564
-15800.040000	-40452.345000	-4157.370000	3068.145000	-16081.920000	-11885.400000	11428.110000	2809.485000	4.377588	5.607641	7.496084	10.463060	9.413459	3.126342	2.642630	3.635932	-1.510740	4.074420	-1.342880	0.895383	0.439147	0.079834	-1.000000	-1.000000	-1.000000	-1.000000	-1.000000	-1.000000	-1.000000	66.413793	0.000000	-1.000000	-1.000000	2517060.000000	1772662923.676564
-15804.225000	-40457.790000	-4159.845000	3086.190000	-16081.605000	-11893.815000	11423.520000	2808.540000	8.378643	9.686148	11.339795	13.175609	11.979758	7.622396	4.450968	7.260800	-2.182180	4.944240	-0.503580	0.894956	0.441039	0.079529	-1.000000	-1.000000	-1.000000	-1.000000	-1.000000	-1.000000	-1.000000	66.413793	0.000000	-1.000000	-1.000000	2517061.000000	1772662923.679752
-15804.225000	-40457.790000	-4159.845000	3086.190000	-16081.605000	-11893.815000	11423.520000	2808.540000	8.378643	9.686148	11.339795	13.175609	11.979758	7.622396	4.450968	7.260800	-2.182180	4.944240	-0.503580	0.894956	0.441039	0.079529	-1.000000	-1.000000	-1.000000	-1.000000	-1.000000	-1.000000	-1.000000	66.413793	0.000000	-1.000000	-1.000000	2517061.000000	1772662923.679752
-15804.225000	-40457.790000	-4159.845000	3086.190000	-16081.605000	-11893.815000	11423.520000	2808.540000	8.378643	9.686148	11.339795	13.175609	11.979758	7.622396	4.450968	7.260800	-2.182180	4.944240	-0.503580	0.894956	0.441039	0.079529	-1.000000	-1.000000	-1.000000	-1.000000	-1.000000	-1.000000	-1.000000	66.413793	0.000000	-1.000000	-1.000000	2517061.000000	1772662923.679752
-15765.705000	-40412.025000	-4112.415000	3138.705000	-16041.195000	-11855.655000	11450.385000	2841.345000	7.910268	8.111507	8.573746	8.963741	7.776396	6.957697	3.952481	7.185710	-2.182180	4.944240	-0.503580	0.894956	0.441039	0.079529	-1.000000	-1.000000	-1.000000	-1.000000	-1.000000	-1.000000	-1.000000	66.413793	0.000000	-1.000000	-1.000000	2517062.000000	1772662923.679758
-15765.705000	-40412.025000	-4112.415000	3138.705000	-16041.195000	-11855.655000	11450.385000	2841.345000	7.910268	8.111507	8.573746	8.963741	7.776396	6.957697	3.952481	7.185710	-2.182180	4.944240	-0.503580	0.894956	0.441039	0.079529	-1.000000	-1.000000	-1.000000	-1.000000	-1.000000	-1.000000	-1.000000	66.413793	0.000000	-1.000000	-1.000000	2517062.000000	1772662923.679758
-15765.705000	-40412.025000	-4112.415000	3138.705000	-16041.195000	-11855.655000	11450.385000	2841.345000	7.910268	8.111507	8.573746	8.963741	7.776396	6.957697	3.952481	7.185710	-2.182180	4.944240	-0.503580	0.894956	0.441039	0.079529	-1.000000	-1.000000	-1.000000	-1.000000	-1.000000	-1.000000	-1.000000	66.413793	0.000000	-1.000000	-1.000000	2517062.000000	1772662923.679758
-15729.885000	-40373.505000	-4074.705000	3175.605000	-15997.095000	-11815.920000	11469.960000	2873.835000	4.991839	4.111720	3.535539	4.036684	1.822010	3.877941	2.053808	5.348026	-2.182180	4.944240	-0.503580	0.894956	0.441039	0.079529	-1.000000	-1.000000	-1.000000	-1.000000	-1.000000	-1.000000	-1.000000	66.413793	0.000000	-1.000000	-1.000000	2517063.000000	1772662923.683753
-15729.885000	-40373.505000	-4074.705000	3175.605000	-15997.095000	-11815.920000	11469.960000	2873.835000	4.991839	4.111720	3.535539	4.036684	1.822010	3.877941	2.053808	5.348026	-2.182180	4.944240	-0.503580	0.894956	0.441039	0.079529	-1.000000	-1.000000	-1.000000	-1.000000	-1.000000	-1.000000	-1.000000	66.413793	0.000000	-1.000000	-1.000000	2517063.000000	1772662923.683753
-15729.885000	-40373.505000	-4074.705000	3175.605000	-15997.095000	-11815.920000	11469.960000	2873.835000	4.991839	4.111720	3.535539	4.036684	1.822010	3.877941	2.053808	5.348026	-2.182180	4.944240	-0.503580	0.894956	0.441039	0.079529	-1.000000	-1.000000	-1.000000	-1.000000	-1.000000	-1.000000	-1.000000	66.413793	0.000000	-1.000000	-1.000000	2517063.000000	1772662923.683753
-15786.270000	-40433.670000	-4133.295000	3115.305000	-16049.970000	-11866.005000	11423.835000	2803.005000	2.166120	0.937662	0.067454	1.736107	-1.256411	1.914899	0.015607	3.267916	-2.182180	4.944240	-0.503580	0.894956	0.441039	0.079529	-1.000000	-1.000000	-1.000000	-1.000000	-1.000000	-1.000000	-1.000000	66.413793	0.000000	-1.000000	-1.000000	2517064.000000	1772662923.683761
-15786.270000	-40433.670000	-4133.295000	3115.305000	-16049.970000	-11866.005000	11423.835000	2803.005000	2.166120	0.937662	0.067454	1.736107	-1.256411	1.914899	0.015607	3.267916	-2.182180	4.944240	-0.503580	0.894956	0.441039	0.079529	-1.000000	-1.000000	-1.000000	-1.000000	-1.000000	-1.000000	-1.000000	66.413793	0.000000	-1.000000	-1.000000	2517064.000000	1772662923.683761
-15786.270000	-40433.670000	-4133.295000	3115.305000	-16049.970000	-11866.005000	11423.835000	2803.005000	2.166120	0.937662	0.067454	1.736107	-1.256411	1.914899	0.015607	3.267916	-2.182180	4.944240	-0.503580	0.894956	0.441039	0.079529	-1.000000	-1.000000	-1.000000	-1.000000	-1.000000	-1.000000	-1.000000	66.413793	0.000000	-1.000000	-1.000000	2517064.000000	1772662923.683761
-15822.630000	-40468.500000	-4168.755000	3069.090000	-16104.555000	-11896.965000	11421.225000	2775.780000	-2.004995	-3.192776	-3.849292	-1.933715	-3.667112	-0.569398	-2.908122	-1.516582	-2.182180	4.944240	-0.503580	0.894956	0.441039	0.079529	-1.000000	-1.000000	-1.000000	-1.000000	-1.000000	-1.000000	-1.000000	66.413793	0.000000	-1.000000	-1.000000	2517065.000000	1772662923.687725
-15822.630000	-40468.500000	-4168.755000	3069.090000	-16104.555000	-11896.965000	11421.225000	2775.780000	-2.004995	-3.192776	-3.849292	-1.933715	-3.667112	-0.569398	-2.908122	-1.516582	-2.182180	4.944240	-0.503580	0.894956	0.441039	0.079529	-1.000000	-1.000000	-1.000000	-1.000000	-1.000000	-1.000000	-1.000000	66.413793	0.000000	-1.000000	-1.000000	2517065.000000	1772662923.687725
-15822.630000	-40468.500000	-4168.755000	3069.090000	-16104.555000	-11896.965000	11421.225000	2775.780000	-2.004995	-3.192776	-3.849292	-1.933715	-3.667112	-0.569398	-2.908122	-1.516582	-2.182180	4.944240	-0.503580	0.894956	0.441039	0.079529	-1.000000	-1.000000	-1.000000	-1.000000	-1.000000	-1.000000	-1.000000	66.413793	0.000000	-1.000000	-1.000000	2517065.000000	1772662923.687725
-15828.075000	-40477.770000	-4182.300000	3044.565000	-16128.090000	-11910.690000	11425.725000	2796.255000	-9.065143	-10.123973	-10.640188	-10.783102	-9.623200	-6.275199	-6.616091	-9.752503	-2.182180	4.944240	-0.503580	0.894956	0.441039	0.079529	-1.000000	-1.000000	-1.000000	-1.000000	-1.000000	-1.000000	-1.000000	66.413793	0.000000	-1.000000	-1.000000	2517066.000000	1772662923.687730
-15828.075000	-40477.770000	-4182.300000	3044.565000	-16128.090000	-11910.690000	11425.725000	2796.255000	-9.065143	-10.123973	-10.640188	-10.783102	-9.623200	-6.275199	-6.616091	-9.752503	-2.182180	4.944240	-0.503580	0.894956	0.441039	0.079529	-1.000000	-1.000000	-1.000000	-1.000000	-1.000000	-1.000000	-1.000000	66.413793	0.000000	-1.000000	-1.000000	2517066.000000	1772662923.687730
-15828.075000	-40477.770000	-4182.300000	3044.565000	-16128.090000	-11910.690000	11425.725000	2796.255000	-9.065143	-10.123973	-10.640188	-10.783102	-9.623200	-6.275199	-6.616091	-9.752503	-2.182180	4.944240	-0.503580	0.894956	0.441039	0.079529	-1.000000	-1.000000	-1.000000	-1.000000	-1.000000	-1.000000	-1.000000	66.413793	0.000000	-1.000000	-1.000000	2517066.000000	1772662923.687730
-15815.925000	-40470.210000	-4174.875000	3062.070000	-16098.030000	-11897.910000	11419.110000	2782.530000	-15.470847	-16.262015	-17.014430	-20.517058	-16.700529	-12.677957	-8.599850	-16.000106	-2.182180	4.944240	-0.503580	0.894956	0.441039	0.079529	-1.000000	-1.000000	-1.000000	-1.000000	-1.000000	-1.000000	-1.000000	66.413793	0.000000	-1.000000	-1.000000	2517067.000000	1772662923.691685
-15815.925000	-40470.210000	-4174.875000	3062.070000	-16098.030000	-11897.910000	11419.110000	2782.530000	-15.470847	-16.262015	-17.014430	-20.517058	-16.700529	-12.677957	-8.599850	-16.000106	-2.182180	4.944240	-0.503580	0.894956	0.441039	0.079529	-1.000000	-1.000000	-1.000000	-1.000000	-1.000000	-1.000000	-1.000000	66.413793	0.000000	-1.000000	-1.000000	2517067.000000	1772662923.691685
-15815.925000	-40470.210000	-4174.875000	3062.070000	-16098.030000	-11897.910000	11419.110000	2782.530000	-15.470847	-16.262015	-17.014430	-20.517058	-16.700529	-12.677957	-8.599850	-16.000106	-2.182180	4.944240	-0.503580	0.894956	0.441039	0.079529	-1.000000	-1.000000	-1.000000	-1.000000	-1.000000	-1.000000	-1.000000	66.413793	0.000000	-1.000000	-1.000000	2517067.000000	1772662923.691685
-15780.780000	-40436.595000	-4139.010000	3115.350000	-16035.615000	-11863.845000	11450.250000	2816.910000	-15.210428	-15.576932	-16.610688	-21.549498	-16.731079	-13.893679	-6.656883	-14.581673	-2.182180	4.944240	-0.503580	0.894956	0.441039	0.079529	-1.000000	-1.000000	-1.000000	-1.000000	-1.000000	-1.000000	-1.000000	66.413793	0.000000	-1.000000	-1.000000	2517068.000000	1772662923.691691
-15780.780000	-40436.595000	-4139.010000	3115.350000	-16035.615000	-11863.845000	11450.250000	2816.910000	-15.210428	-15.576932	-16.610688	-21.549498	-16.731079	-13.893679	-6.656883	-14.581673	-2.182180	4.944240	-0.503580	0.894956	0.441039	0.079529	-1.000000	-1.000000	-1.000000	-1.000000	-1.000000	-1.000000	-1.000000	66.413793	0.000000	-1.000000	-1.000000	2517068.000000	1772662923.691691
-15780.780000	-40436.595000	-4139.010000	3115.350000	-16035.615000	-11863.845000	11450.250000	2816.910000	-15.210428	-15.576932	-16.610688	-21.549498	-16.731079	-13.893679	-6.656883	-14.581673	-2.182180	4.944240	-0.503580	0.894956	0.441039	0.079529	-1.000000	-1.000000	-1.000000	-1.000000	-1.000000	-1.000000	-1.000000	66.413793	0.000000	-1.000000	-1.000000	2517068.000000	1772662923.691691
-15769.845000	-40423.140000	-4124.970000	3120.255000	-16036.245000	-11857.815000	11453.445000	2857.770000	-5.749689	-5.486746	-6.303470	-8.943010	-5.195900	-6.739901	-0.569134	-4.345488	-2.182180	4.944240	-0.503580	0.894956	0.441039	0.079529	-1.000000	-1.000000	-1.000000	-1.000000	-1.000000	-1.000000	-1.000000	66.413793	0.000000	-1.000000	-1.000000	2517069.000000	1772662923.699468
-15769.845000	-40423.140000	-4124.970000	3120.255000	-16036.245000	-11857.815000	11453.445000	2857.770000	-5.749689	-5.486746	-6.303470	-8.943010	-5.195900	-6.739901	-0.569134	-4.345488	-2.182180	4.944240	-0.503580	0.894956	0.441039	0.079529	-1.000000	-1.000000	-1.000000	-1.000000	-1.000000	-1.000000	-1.000000	66.413793	0.000000	-1.000000	-1.000000	2517069.000000	1772662923.699468
-15769.845000	-40423.140000	-4124.970000	3120.255000	-16036.245000	-11857.815000	11453.445000	2857.770000	-5.749689	-5.486746	-6.303470	-8.943010	-5.195900	-6.739901	-0.569134	-4.345488	-2.182180	4.944240	-0.503580	0.894956	0.441039	0.079529	-1.000000	-1.000000	-1.000000	-1.000000	-1.000000	-1.000000	-1.000000	66.413793	0.000000	-1.000000	-1.000000	2517069.000000	1772662923.699468
-15806.250000	-40459.860000	-4162.140000	3067.830000	-16089.660000	-11895.210000	11414.835000	2837.520000	7.989589	9.060910	8.979022	9.852315	11.121752	4.840454	6.430855	10.325851	-2.182180	4.944240	-0.503580	0.894956	0.441039	0.079529	-1.000000	-1.000000	-1.000000	-1.000000	-1.000000	-1.000000	-1.000000	66.413793	0.000000	-1.000000	-1.000000	2517070.000000	1772662923.699479
-15806.250000	-40459.860000	-4162.140000	3067.830000	-16089.660000	-11895.210000	11414.835000	2837.520000	7.989589	9.060910	8.979022	9.852315	11.121752	4.840454	6.430855	10.325851	-2.182180	4.944240	-0.503580	0.894956	0.441039	0.079529	-1.000000	-1.000000	-1.000000	-1.000000	-1.000000	-1.000000	-1.000000	66.413793	0.000000	-1.000000	-1.000000	2517070.000000	1772662923.699479
-15806.250000	-40459.860000	-4162.140000	3067.830000	-16089.660000	-11895.210000	11414.835000	2837.520000	7.989589	9.060910	8.979022	9.852315	11.121752	4.840454	6.430855	10.325851	-2.182180	4.944240	-0.503580	0.894956	0.441039	0.079529	-1.000000	-1.000000	-1.000000	-1.000000	-1.000000	-1.000000	-1.000000	66.413793	0.000000	-1.000000	-1.000000	2517070.000000	1772662923.699479
-15825.825000	-40484.205000	-4188.195000	3041.640000	-16123.230000	-11923.020000	11393.730000	2818.080000	15.654953	17.222955	17.909652	19.798884	18.496143	11.526376	8.228325	19.716172	-1.052940	6.271860	0.335720	0.897825	0.442015	0.079590	-1.000000	-1.000000	-1.000000	-1.000000	-1.000000	-1.000000	-1.000000	66.413793	0.000000	-1.000000	-1.000000	2517071.000000	1772662923.699857
-15825.825000	-40484.205000	-4188.195000	3041.640000	-16123.230000	-11923.020000	11393.730000	2818.080000	15.654953	17.222955	17.909652	19.798884	18.496143	11.526376	8.228325	19.716172	-1.052940	6.271860	0.335720	0.897825	0.442015	0.079590	-1.000000	-1.000000	-1.000000	-1.000000	-1.000000	-1.000000	-1.000000	66.413793	0.000000	-1.000000	-1.000000	2517071.000000	1772662923.699857
-15825.825000	-40484.205000	-4188.195000	3041.640000	-16123.230000	-11923.020000	11393.730000	2818.080000	15.654953	17.222955	17.909652	19.798884	18.496143	11.526376	8.228325	19.716172	-1.052940	6.271860	0.335720	0.897825	0.442015	0.079590	-1.000000	-1.000000	-1.000000	-1.000000	-1.000000	-1.000000	-1.000000	66.413793	0.000000	-1.000000	-1.000000	2517071.000000	1772662923.699857
-15819.165000	-40476.150000	-4180.095000	3065.175000	-16101.000000	-11917.305000	11395.080000	2827.755000	11.511535	12.668805	13.733366	14.133489	10.912758	7.952376	2.526837	16.792527	-1.052940	6.271860	0.335720	0.897825	0.442015	0.079590	-1.000000	-1.000000	-1.000000	-1.000000	-1.000000	-1.000000	-1.000000	66.413793	0.000000	-1.000000	-1.000000	2517072.000000	1772662923.699860
-15819.165000	-40476.150000	-4180.095000	3065.175000	-16101.000000	-11917.305000	11395.080000	2827.755000	11.511535	12.668805	13.733366	14.133489	10.912758	7.952376	2.526837	16.792527	-1.052940	6.271860	0.335720	0.897825	0.442015	0.079590	-1.000000	-1.000000	-1.000000	-1.000000	-1.000000	-1.000000	-1.000000	66.413793	0.000000	-1.000000	-1.000000	2517072.000000	1772662923.699860
-15819.165000	-40476.150000	-4180.095000	3065.175000	-16101.000000	-11917.305000	11395.080000	2827.755000	11.511535	12.668805	13.733366	14.133489	10.912758	7.952376	2.526837	16.792527	-1.052940	6.271860	0.335720	0.897825	0.442015	0.079590	-1.000000	-1.000000	-1.000000	-1.000000	-1.000000	-1.000000	-1.000000	66.413793	0.000000	-1.000000	-1.000000	2517072.000000	1772662923.699860
-15796.845000	-40448.655000	-4152.465000	3099.510000	-16061.715000	-11893.005000	11429.550000	2834.460000	1.671686	1.803681	2.761445	2.203407	-2.042200	-0.293859	-4.521164	5.702682	-1.052940	6.271860	0.335720	0.897825	0.442015	0.079590	-1.000000	-1.000000	-1.000000	-1.000000	-1.000000	-1.000000	-1.000000	66.413793	0.000000	-1.000000	-1.000000	2517073.000000	1772662923.703781
-15796.845000	-40448.655000	-4152.465000	3099.510000	-16061.715000	-11893.005000	11429.550000	2834.460000	1.671686	1.803681	2.761445	2.203407	-2.042200	-0.293859	-4.521164	5.702682	-1.052940	6.271860	0.335720	0.897825	0.442015	0.079590	-1.000000	-1.000000	-1.000000	-1.000000	-1.000000	-1.000000	-1.000000	66.413793	0.000000	-1.000000	-1.000000	2517073.000000	1772662923.703781
-15796.845000	-40448.655000	-4152.465000	3099.510000	-16061.715000	-11893.005000	11429.550000	2834.460000	1.671686	1.803681	2.761445	2.203407	-2.042200	-0.293859	-4.521164	5.702682	-1.052940	6.271860	0.335720	0.897825	0.442015	0.079590	-1.000000	-1.000000	-1.000000	-1.000000	-1.000000	-1.000000	-1.000000	66.413793	0.000000	-1.000000	-1.000000	2517073.000000	1772662923.703781
-15828.345000	-40485.060000	-4189.860000	3054.555000	-16107.840000	-11917.890000	11418.300000	2804.760000	-3.504412	-4.047850	-3.507342	-2.712237	-6.527547	-3.398096	-5.083009	-4.107289	-1.052940	6.271860	0.335720	0.897825	0.442015	0.079590	-1.000000	-1.000000	-1.000000	-1.000000	-1.000000	-1.000000	-1.000000	66.413793	0.000000	-1.000000	-1.000000	2517074.000000	1772662923.703789
-15828.345000	-40485.060000	-4189.860000	3054.555000	-16107.840000	-11917.890000	11418.300000	2804.760000	-3.504412	-4.047850	-3.507342	-2.712237	-6.527547	-3.398096	-5.083009	-4.107289	-1.052940	6.271860	0.335720	0.897825	0.442015	0.079590	-1.000000	-1.000000	-1.000000	-1.000000	-1.000000	-1.000000	-1.000000	66.413793	0.000000	-1.000000	-1.000000	2517074.000000	1772662923.703789
-15828.345000	-40485.060000	-4189.860000	3054.555000	-16107.840000	-11917.890000	11418.300000	2804.760000	-3.504412	-4.047850	-3.507342	-2.712237	-6.527547	-3.398096	-5.083009	-4.107289	-1.052940	6.271860	0.335720	0.897825	0.442015	0.079590	-1.000000	-1.000000	-1.000000	-1.000000	-1.000000	-1.000000	-1.000000	66.413793	0.000000	-1.000000	-1.000000	2517074.000000	1772662923.703789
-15824.430000	-40482.990000	-4189.680000	3050.055000	-16121.250000	-11910.960000	11424.825000	2790.765000	-1.633915	-2.093673	-1.988101	1.168900	-0.807347	0.887867	1.019719	-8.972604	-1.052940	6.271860	0.335720	0.897825	0.442015	0.079590	-1.000000	-1.000000	-1.000000	-1.000000	-1.000000	-1.000000	-1.000000	66.413793	0.000000	-1.000000	-1.000000	2517075.000000	1772662923.707814
-15824.430000	-40482.990000	-4189.680000	3050.055000	-16121.250000	-11910.960000	11424.825000	2790.765000	-1.633915	-2.093673	-1.988101	1.168900	-0.807347	0.887867	1.019719	-8.972604	-1.052940	6.271860	0.335720	0.897825	0.442015	0.079590	-1.000000	-1.000000	-1.000000	-1.000000	-1.000000	-1.000000	-1.000000	66.413793	0.000000	-1.000000	-1.000000	2517075.000000	1772662923.707814
-15824.430000	-40482.990000	-4189.680000	3050.055000	-16121.250000	-11910.960000	11424.825000	2790.765000	-1.633915	-2.093673	-1.988101	1.168900	-0.807347	0.887867	1.019719	-8.972604	-1.052940	6.271860	0.335720	0.897825	0.442015	0.079590	-1.000000	-1.000000	-1.000000	-1.000000	-1.000000	-1.000000	-1.000000	66.413793	0.000000	-1.000000	-1.000000	2517075.000000	1772662923.707814
-15815.565000	-40467.150000	-4173.435000	3060.855000	-16105.275000	-11897.640000	11430.720000	2765.700000	2.134503	2.328806	2.178040	6.076494	5.877545	6.977314	7.743509	-10.858852	-1.052940	6.271860	0.335720	0.897825	0.442015	0.079590	-1.000000	-1.000000	-1.000000	-1.000000	-1.000000	-1.000000	-1.000000	66.413793	0.000000	-1.000000	-1.000000	2517076.000000	1772662923.707820
-15815.565000	-40467.150000	-4173.435000	3060.855000	-16105.275000	-11897.640000	11430.720000	2765.700000	2.134503	2.328806	2.178040	6.076494	5.877545	6.977314	7.743509	-10.858852	-1.052940	6.271860	0.335720	0.897825	0.442015	0.079590	-1.000000	-1.000000	-1.000000	-1.000000	-1.000000	-1.000000	-1.000000	66.413793	0.000000	-1.000000	-1.000000	2517076.000000	1772662923.707820
-15815.565000	-40467.150000	-4173.435000	3060.855000	-16105.275000	-11897.640000	11430.720000	2765.700000	2.134503	2.328806	2.178040	6.076494	5.877545	6.977314	7.743509	-10.858852	-1.052940	6.271860	0.335720	0.897825	0.442015	0.079590	-1.000000	-1.000000	-1.000000	-1.000000	-1.000000	-1.000000	-1.000000	66.413793	0.000000	-1.000000	-1.000000	2517076.000000	1772662923.707820
-15812.370000	-40464.405000	-4171.860000	3064.950000	-16090.515000	-11899.305000	11432.475000	2778.795000	3.043883	4.191095	3.935776	5.649812	6.121392	8.939940	9.750948	-11.563788	-1.052940	6.271860	0.335720	0.897825	0.442015	0.079590	-1.000000	-1.000000	-1.000000	-1.000000	-1.000000	-1.000000	-1.000000	66.413793	0.000000	-1.000000	-1.000000	2517077.000000	1772662923.711650
-15812.370000	-40464.405000	-4171.860000	3064.950000	-16090.515000	-11899.305000	11432.475000	2778.795000	3.043883	4.191095	3.935776	5.649812	6.121392	8.939940	9.750948	-11.563788	-1.052940	6.271860	0.335720	0.897825	0.442015	0.079590	-1.000000	-1.000000	-1.000000	-1.000000	-1.000000	-1.000000	-1.000000	66.413793	0.000000	-1.000000	-1.000000	2517077.000000	1772662923.711650
-15812.370000	-40464.405000	-4171.860000	3064.950000	-16090.515000	-11899.305000	11432.475000	2778.795000	3.043883	4.191095	3.935776	5.649812	6.121392	8.939940	9.750948	-11.563788	-1.052940	6.271860	0.335720	0.897825	0.442015	0.079590	-1.000000	-1.000000	-1.000000	-1.000000	-1.000000	-1.000000	-1.000000	66.413793	0.000000	-1.000000	-1.000000	2517077.000000	1772662923.711650
-15790.815000	-40441.275000	-4147.380000	3091.995000	-16054.155000	-11877.930000	11442.105000	2816.190000	0.777797	2.602102	2.283822	0.306974	1.267853	5.465341	6.107407	-10.135981	-1.052940	6.271860	0.335720	0.897825	0.442015	0.079590	-1.000000	-1.000000	-1.000000	-1.000000	-1.000000	-1.000000	-1.000000	66.413793	0.000000	-1.000000	-1.000000	2517078.000000	1772662923.711653
-15790.815000	-40441.275000	-4147.380000	3091.995000	-16054.155000	-11877.930000	11442.105000	2816.190000	0.777797	2.602102	2.283822	0.306974	1.267853	5.465341	6.107407	-10.135981	-1.052940	6.271860	0.335720	0.897825	0.442015	0.079590	-1.000000	-1.000000	-1.000000	-1.000000	-1.000000	-1.000000	-1.000000	66.413793	0.000000	-1.000000	-1.000000	2517078.000000	1772662923.711653
-15790.815000	-40441.275000	-4147.380000	3091.995000	-16054.155000	-11877.930000	11442.105000	2816.190000	0.777797	2.602102	2.283822	0.306974	1.267853	5.465341	6.107407	-10.135981	-1.052940	6.271860	0.335720	0.897825	0.442015	0.079590	-1.000000	-1.000000	-1.000000	-1.000000	-1.000000	-1.000000	-1.000000	66.413793	0.000000	-1.000000	-1.000000	2517078.000000	1772662923.711653
-15787.845000	-40432.365000	-4134.105000	3110.760000	-16050.060000	-11864.970000	11446.245000	2823.030000	-1.356836	0.296642	0.045376	-4.133649	-1.821317	0.375090	0.366777	-4.070362	-1.052940	6.271860	0.335720	0.897825	0.442015	0.079590	-1.000000	-1.000000	-1.000000	-1.000000	-1.000000	-1.000000	-1.000000	66.413793	0.000000	-1.000000	-1.000000	2517079.000000	1772662923.721720
-15787.845000	-40432.365000	-4134.105000	3110.760000	-16050.060000	-11864.970000	11446.245000	2823.030000	-1.356836	0.296642	0.045376	-4.133649	-1.821317	0.375090	0.366777	-4.070362	-1.052940	6.271860	0.335720	0.897825	0.442015	0.079590	-1.000000	-1.000000	-1.000000	-1.000000	-1.000000	-1.000000	-1.000000	66.413793	0.000000	-1.000000	-1.000000	2517079.000000	1772662923.721720
-15787.845000	-40432.365000	-4134.105000	3110.760000	-16050.060000	-11864.970000	11446.245000	2823.030000	-1.356836	0.296642	0.045376	-4.133649	-1.821317	0.375090	0.366777	-4.070362	-1.052940	6.271860	0.335720	0.897825	0.442015	0.079590	-1.000000	-1.000000	-1.000000	-1.000000	-1.000000	-1.000000	-1.000000	66.413793	0.000000	-1.000000	-1.000000	2517079.000000	1772662923.721720
-15803.190000	-40450.320000	-4156.290000	3085.785000	-16077.915000	-11886.390000	11434.590000	2808.450000	-1.193772	-0.484246	-0.387199	-3.742239	-0.149980	-2.415519	-3.499809	5.866954	-1.052940	6.271860	0.335720	0.897825	0.442015	0.079590	-1.000000	-1.000000	-1.000000	-1.000000	-1.000000	-1.000000	-1.000000	66.413793	0.000000	-1.000000	-1.000000	2517080.000000	1772662923.721729
-15803.190000	-40450.320000	-4156.290000	3085.785000	-16077.915000	-11886.390000	11434.590000	2808.450000	-1.193772	-0.484246	-0.387199	-3.742239	-0.149980	-2.415519	-3.499809	5.866954	-1.052940	6.271860	0.335720	0.897825	0.442015	0.079590	-1.000000	-1.000000	-1.000000	-1.000000	-1.000000	-1.000000	-1.000000	66.413793	0.000000	-1.000000	-1.000000	2517080.000000	1772662923.721729
-15803.190000	-40450.320000	-4156.290000	3085.785000	-16077.915000	-11886.390000	11434.590000	2808.450000	-1.193772	-0.484246	-0.387199	-3.742239	-0.149980	-2.415519	-3.499809	5.866954	-1.052940	6.271860	0.335720	0.897825	0.442015	0.079590	-1.000000	-1.000000	-1.000000	-1.000000	-1.000000	-1.000000	-1.000000	66.413793	0.000000	-1.000000	-1.000000	2517080.000000	1772662923.721729
-15806.340000	-40451.940000	-4159.305000	3078.540000	-16083.990000	-11890.755000	11431.170000	2799.090000	-0.373707	-0.991238	-0.531357	-1.487174	1.750387	-3.466016	-4.984196	14.069766	-1.983800	5.936140	-0.656180	0.894407	0.443908	0.079345	-1.000000	-1.000000	-1.000000	-1.000000	-1.000000	-1.000000	-1.000000	66.413793	0.000000	-1.000000	-1.000000	2517081.000000	1772662923.721740
-15806.340000	-40451.940000	-4159.305000	3078.540000	-16083.990000	-11890.755000	11431.170000	2799.090000	-0.373707	-0.991238	-0.531357	-1.487174	1.750387	-3.466016	-4.984196	14.069766	-1.983800	5.936140	-0.656180	0.894407	0.443908	0.079345	-1.000000	-1.000000	-1.000000	-1.000000	-1.000000	-1.000000	-1.000000	66.413793	0.000000	-1.000000	-1.000000	2517081.000000	1772662923.721740
-15806.340000	-40451.940000	-4159.305000	3078.540000	-16083.990000	-11890.755000	11431.170000	2799.090000	-0.373707	-0.991238	-0.531357	-1.487174	1.750387	-3.466016	-4.984196	14.069766	-1.983800	5.936140	-0.656180	0.894407	0.443908	0.079345	-1.000000	-1.000000	-1.000000	-1.000000	-1.000000	-1.000000	-1.000000	66.413793	0.000000	-1.000000	-1.000000	2517081.000000	1772662923.721740
-15800.130000	-40446.315000	-4153.545000	3083.670000	-16076.430000	-11887.290000	11428.875000	2803.320000	-0.735050	-2.682581	-2.280890	-1.632480	-0.402551	-4.811093	-5.756206	15.716767	-1.983800	5.936140	-0.656180	0.894407	0.443908	0.079345	-1.000000	-1.000000	-1.000000	-1.000000	-1.000000	-1.000000	-1.000000	66.413793	0.000000	-1.000000	-1.000000	2517082.000000	1772662923.721744
-15800.130000	-40446.315000	-4153.545000	3083.670000	-16076.430000	-11887.290000	11428.875000	2803.320000	-0.735050	-2.682581	-2.280890	-1.632480	-0.402551	-4.811093	-5.756206	15.716767	-1.983800	5.936140	-0.656180	0.894407	0.443908	0.079345	-1.000000	-1.000000	-1.000000	-1.000000	-1.000000	-1.000000	-1.000000	66.413793	0.000000	-1.000000	-1.000000	2517082.000000	1772662923.721744
-15800.130000	-40446.315000	-4153.545000	3083.670000	-16076.430000	-11887.290000	11428.875000	2803.320000	-0.735050	-2.682581	-2.280890	-1.632480	-0.402551	-4.811093	-5.756206	15.716767	-1.983800	5.936140	-0.656180	0.894407	0.443908	0.079345	-1.000000	-1.000000	-1.000000	-1.000000	-1.000000	-1.000000	-1.000000	66.413793	0.000000	-1.000000	-1.000000	2517082.000000	1772662923.721744
-15795.765000	-40446.000000	-4153.680000	3082.725000	-16077.645000	-11890.080000	11428.560000	2821.860000	-1.345788	-4.108036	-4.124923	-3.200186	-4.240010	-5.914731	-6.456201	11.439687	-1.983800	5.936140	-0.656180	0.894407	0.443908	0.079345	-1.000000	-1.000000	-1.000000	-1.000000	-1.000000	-1.000000	-1.000000	66.413793	0.000000	-1.000000	-1.000000	2517083.000000	1772662923.725516
-15795.765000	-40446.000000	-4153.680000	3082.725000	-16077.645000	-11890.080000	11428.560000	2821.860000	-1.345788	-4.108036	-4.124923	-3.200186	-4.240010	-5.914731	-6.456201	11.439687	-1.983800	5.936140	-0.656180	0.894407	0.443908	0.079345	-1.000000	-1.000000	-1.000000	-1.000000	-1.000000	-1.000000	-1.000000	66.413793	0.000000	-1.000000	-1.000000	2517083.000000	1772662923.725516
-15795.765000	-40446.000000	-4153.680000	3082.725000	-16077.645000	-11890.080000	11428.560000	2821.860000	-1.345788	-4.108036	-4.124923	-3.200186	-4.240010	-5.914731	-6.456201	11.439687	-1.983800	5.936140	-0.656180	0.894407	0.443908	0.079345	-1.000000	-1.000000	-1.000000	-1.000000	-1.000000	-1.000000	-1.000000	66.413793	0.000000	-1.000000	-1.000000	2517083.000000	1772662923.725516
-15804.405000	-40457.205000	-4164.480000	3076.830000	-16087.545000	-11898.315000	11427.210000	2815.605000	-1.015618	-3.715407	-4.073516	-3.144234	-5.480411	-5.544372	-6.155139	5.316059	-1.983800	5.936140	-0.656180	0.894407	0.443908	0.079345	-1.000000	-1.000000	-1.000000	-1.000000	-1.000000	-1.000000	-1.000000	66.413793	0.000000	-1.000000	-1.000000	2517084.000000	1772662923.725526
-15804.405000	-40457.205000	-4164.480000	3076.830000	-16087.545000	-11898.315000	11427.210000	2815.605000	-1.015618	-3.715407	-4.073516	-3.144234	-5.480411	-5.544372	-6.155139	5.316059	-1.983800	5.936140	-0.656180	0.894407	0.443908	0.079345	-1.000000	-1.000000	-1.000000	-1.000000	-1.000000	-1.000000	-1.000000	66.413793	0.000000	-1.000000	-1.000000	2517084.000000	1772662923.725526
-15804.405000	-40457.205000	-4164.480000	3076.830000	-16087.545000	-11898.315000	11427.210000	2815.605000	-1.015618	-3.715407	-4.073516	-3.144234	-5.480411	-5.544372	-6.155139	5.316059	-1.983800	5.936140	-0.656180	0.894407	0.443908	0.079345	-1.000000	-1.000000	-1.000000	-1.000000	-1.000000	-1.000000	-1.000000	66.413793	0.000000	-1.000000	-1.000000	2517084.000000	1772662923.725526
-15806.295000	-40455.990000	-4160.835000	3086.505000	-16079.670000	-11894.625000	11427.480000	2809.035000	-0.872545	-2.752604	-3.087609	-1.664207	-4.348002	-4.350850	-4.257788	-0.023361	-1.983800	5.936140	-0.656180	0.894407	0.443908	0.079345	-1.000000	-1.000000	-1.000000	-1.000000	-1.000000	-1.000000	-1.000000	66.413793	0.000000	-1.000000	-1.000000	2517085.000000	1772662923.729620
-15806.295000	-40455.990000	-4160.835000	3086.505000	-16079.670000	-11894.625000	11427.480000	2809.035000	-0.872545	-2.752604	-3.087609	-1.664207	-4.348002	-4.350850	-4.257788	-0.023361	-1.983800	5.936140	-0.656180	0.894407	0.443908	0.079345	-1.000000	-1.000000	-1.000000	-1.000000	-1.000000	-1.000000	-1.000000	66.413793	0.000000	-1.000000	-1.000000	2517085.000000	1772662923.729620
-15806.295000	-40455.990000	-4160.835000	3086.505000	-16079.670000	-11894.625000	11427.480000	2809.035000	-0.872545	-2.752604	-3.087609	-1.664207	-4.348002	-4.350850	-4.257788	-0.023361	-1.983800	5.936140	-0.656180	0.894407	0.443908	0.079345	-1.000000	-1.000000	-1.000000	-1.000000	-1.000000	-1.000000	-1.000000	66.413793	0.000000	-1.000000	-1.000000	2517085.000000	1772662923.729620
-15806.880000	-40455.945000	-4160.295000	3083.625000	-16079.220000	-11890.305000	11425.185000	2804.130000	-2.295383	-2.923910	-2.911432	-0.841853	-3.585772	-3.228504	-1.386077	-5.124538	-1.983800	5.936140	-0.656180	0.894407	0.443908	0.079345	-1.000000	-1.000000	-1.000000	-1.000000	-1.000000	-1.000000	-1.000000	66.413793	0.000000	-1.000000	-1.000000	2517086.000000	1772662923.729629
-15806.880000	-40455.945000	-4160.295000	3083.625000	-16079.220000	-11890.305000	11425.185000	2804.130000	-2.295383	-2.923910	-2.911432	-0.841853	-3.585772	-3.228504	-1.386077	-5.124538	-1.983800	5.936140	-0.656180	0.894407	0.443908	0.079345	-1.000000	-1.000000	-1.000000	-1.000000	-1.000000	-1.000000	-1.000000	66.413793	0.000000	-1.000000	-1.000000	2517086.000000	1772662923.729629
-15806.880000	-40455.945000	-4160.295000	3083.625000	-16079.220000	-11890.305000	11425.185000	2804.130000	-2.295383	-2.923910	-2.911432	-0.841853	-3.585772	-3.228504	-1.386077	-5.124538	-1.983800	5.936140	-0.656180	0.894407	0.443908	0.079345	-1.000000	-1.000000	-1.000000	-1.000000	-1.000000	-1.000000	-1.000000	66.413793	0.000000	-1.000000	-1.000000	2517086.000000	1772662923.729629
-15800.940000	-40449.690000	-4153.770000	3088.935000	-16072.110000	-11883.870000	11426.580000	2802.105000	-4.391835	-3.710461	-3.339436	-1.397367	-3.835012	-1.784810	1.569587	-10.898672	-1.983800	5.936140	-0.656180	0.894407	0.443908	0.079345	-1.000000	-1.000000	-1.000000	-1.000000	-1.000000	-1.000000	-1.000000	66.413793	0.000000	-1.000000	-1.000000	2517087.000000	1772662923.731879
-15800.940000	-40449.690000	-4153.770000	3088.935000	-16072.110000	-11883.870000	11426.580000	2802.105000	-4.391835	-3.710461	-3.339436	-1.397367	-3.835012	-1.784810	1.569587	-10.898672	-1.983800	5.936140	-0.656180	0.894407	0.443908	0.079345	-1.000000	-1.000000	-1.000000	-1.000000	-1.000000	-1.000000	-1.000000	66.413793	0.000000	-1.000000	-1.000000	2517087.000000	1772662923.731879
-15800.940000	-40449.690000	-4153.770000	3088.935000	-16072.110000	-11883.870000	11426.580000	2802.105000	-4.391835	-3.710461	-3.339436	-1.397367	-3.835012	-1.784810	1.569587	-10.898672	-1.983800	5.936140	-0.656180	0.894407	0.443908	0.079345	-1.000000	-1.000000	-1.000000	-1.000000	-1.000000	-1.000000	-1.000000	66.413793	0.000000	-1.000000	-1.000000	2517087.000000	1772662923.731879
-15790.815000	-40436.055000	-4141.305000	3100.815000	-16062.210000	-11876.175000	11433.735000	2810.880000	-4.703826	-3.088165	-2.707875	-2.091585	-3.120403	0.682643	4.217345	-15.283954	-1.983800	5.936140	-0.656180	0.894407	0.443908	0.079345	-1.000000	-1.000000	-1.000000	-1.000000	-1.000000	-1.000000	-1.000000	66.413793	0.000000	-1.000000	-1.000000	2517088.000000	1772662923.731886
-15790.815000	-40436.055000	-4141.305000	3100.815000	-16062.210000	-11876.175000	11433.735000	2810.880000	-4.703826	-3.088165	-2.707875	-2.091585	-3.120403	0.682643	4.217345	-15.283954	-1.983800	5.936140	-0.656180	0.894407	0.443908	0.079345	-1.000000	-1.000000	-1.000000	-1.000000	-1.000000	-1.000000	-1.000000	66.413793	0.000000	-1.000000	-1.000000	2517088.000000	1772662923.731886
-15790.815000	-40436.055000	-4141.305000	3100.815000	-16062.210000	-11876.175000	11433.735000	2810.880000	-4.703826	-3.088165	-2.707875	-2.091585	-3.120403	0.682643	4.217345	-15.283954	-1.983800	5.936140	-0.656180	0.894407	0.443908	0.079345	-1.000000	-1.000000	-1.000000	-1.000000	-1.000000	-1.000000	-1.000000	66.413793	0.000000	-1.000000	-1.000000	2517088.000000	1772662923.731886
-15794.415000	-40438.575000	-4145.175000	3092.670000	-16072.515000	-11888.865000	11428.695000	2825.865000	-1.649425	0.340625	0.350932	-1.014765	0.403857	4.074460	6.372710	-14.103725	-1.983800	5.936140	-0.656180	0.894407	0.443908	0.079345	-1.000000	-1.000000	-1.000000	-1.000000	-1.000000	-1.000000	-1.000000	66.413793	0.000000	-1.000000	-1.000000	2517089.000000	1772662923.735716
-15794.415000	-40438.575000	-4145.175000	3092.670000	-16072.515000	-11888.865000	11428.695000	2825.865000	-1.649425	0.340625	0.350932	-1.014765	0.403857	4.074460	6.372710	-14.103725	-1.983800	5.936140	-0.656180	0.894407	0.443908	0.079345	-1.000000	-1.000000	-1.000000	-1.000000	-1.000000	-1.000000	-1.000000	66.413793	0.000000	-1.000000	-1.000000	2517089.000000	1772662923.735716
-15794.415000	-40438.575000	-4145.175000	3092.670000	-16072.515000	-11888.865000	11428.695000	2825.865000	-1.649425	0.340625	0.350932	-1.014765	0.403857	4.074460	6.372710	-14.103725	-1.983800	5.936140	-0.656180	0.894407	0.443908	0.079345	-1.000000	-1.000000	-1.000000	-1.000000	-1.000000	-1.000000	-1.000000	66.413793	0.000000	-1.000000	-1.000000	2517089.000000	1772662923.735716
-15781.770000	-40421.745000	-4128.255000	3104.550000	-16060.725000	-11879.820000	11441.655000	2839.680000	3.657455	5.572454	5.150323	2.110478	5.621121	7.020455	7.422283	-5.617937	-1.983800	5.936140	-0.656180	0.894407	0.443908	0.079345	-1.000000	-1.000000	-1.000000	-1.000000	-1.000000	-1.000000	-1.000000	66.413793	0.000000	-1.000000	-1.000000	2517090.000000	1772662923.735724
-15781.770000	-40421.745000	-4128.255000	3104.550000	-16060.725000	-11879.820000	11441.655000	2839.680000	3.657455	5.572454	5.150323	2.110478	5.621121	7.020455	7.422283	-5.617937	-1.983800	5.936140	-0.656180	0.894407	0.443908	0.079345	-1.000000	-1.000000	-1.000000	-1.000000	-1.000000	-1.000000	-1.000000	66.413793	0.000000	-1.000000	-1.000000	2517090.000000	1772662923.735724
-15781.770000	-40421.745000	-4128.255000	3104.550000	-16060.725000	-11879.820000	11441.655000	2839.680000	3.657455	5.572454	5.150323	2.110478	5.621121	7.020455	7.422283	-5.617937	-1.983800	5.936140	-0.656180	0.894407	0.443908	0.079345	-1.000000	-1.000000	-1.000000	-1.000000	-1.000000	-1.000000	-1.000000	66.413793	0.000000	-1.000000	-1.000000	2517090.000000	1772662923.735724
-15750.990000	-40385.295000	-4090.365000	3142.620000	-16024.500000	-11845.440000	11469.060000	2850.165000	8.616232	10.260888	9.673288	6.104543	9.962090	8.341239	7.025197	6.594477	-3.738700	6.729660	-0.030520	0.894712	0.442565	0.080505	-1.000000	-1.000000	-1.000000	-1.000000	-1.000000	-1.000000	-1.000000	66.413793	0.000000	-1.000000	-1.000000	2517091.000000	1772662923.740377
-15750.990000	-40385.295000	-4090.365000	3142.620000	-16024.500000	-11845.440000	11469.060000	2850.165000	8.616232	10.260888	9.673288	6.104543	9.962090	8.341239	7.025197	6.594477	-3.738700	6.729660	-0.030520	0.894712	0.442565	0.080505	-1.000000	-1.000000	-1.000000	-1.000000	-1.000000	-1.000000	-1.000000	66.413793	0.000000	-1.000000	-1.000000	2517091.000000	1772662923.740377
-15750.990000	-40385.295000	-4090.365000	3142.620000	-16024.500000	-11845.440000	11469.060000	2850.165000	8.616232	10.260888	9.673288	6.104543	9.962090	8.341239	7.025197	6.594477	-3.738700	6.729660	-0.030520	0.894712	0.442565	0.080505	-1.000000	-1.000000	-1.000000	-1.000000	-1.000000	-1.000000	-1.000000	66.413793	0.000000	-1.000000	-1.000000	2517091.000000	1772662923.740377
-15727.320000	-40361.895000	-4065.390000	3174.300000	-15991.920000	-11808.270000	11488.050000	2869.110000	11.532523	12.997015	12.658668	10.190214	12.589955	8.772785	5.920679	16.022881	-3.738700	6.729660	-0.030520	0.894712	0.442565	0.080505	-1.000000	-1.000000	-1.000000	-1.000000	-1.000000	-1.000000	-1.000000	66.413793	0.000000	-1.000000	-1.000000	2517092.000000	1772662923.740384
-15727.320000	-40361.895000	-4065.390000	3174.300000	-15991.920000	-11808.270000	11488.050000	2869.110000	11.532523	12.997015	12.658668	10.190214	12.589955	8.772785	5.920679	16.022881	-3.738700	6.729660	-0.030520	0.894712	0.442565	0.080505	-1.000000	-1.000000	-1.000000	-1.000000	-1.000000	-1.000000	-1.000000	66.413793	0.000000	-1.000000	-1.000000	2517092.000000	1772662923.740384
-15727.320000	-40361.895000	-4065.390000	3174.300000	-15991.920000	-11808.270000	11488.050000	2869.110000	11.532523	12.997015	12.658668	10.190214	12.589955	8.772785	5.920679	16.022881	-3.738700	6.729660	-0.030520	0.894712	0.442565	0.080505	-1.000000	-1.000000	-1.000000	-1.000000	-1.000000	-1.000000	-1.000000	66.413793	0.000000	-1.000000	-1.000000	2517092.000000	1772662923.740384
-15782.985000	-40430.430000	-4134.465000	3099.150000	-16050.015000	-11855.205000	11441.475000	2828.430000	10.653662	11.727019	11.904185	11.744449	12.187675	8.235823	3.823235	17.695651	-3.738700	6.729660	-0.030520	0.894712	0.442565	0.080505	-1.000000	-1.000000	-1.000000	-1.000000	-1.000000	-1.000000	-1.000000	66.413793	0.000000	-1.000000	-1.000000	2517093.000000	1772662923.744616
-15782.985000	-40430.430000	-4134.465000	3099.150000	-16050.015000	-11855.205000	11441.475000	2828.430000	10.653662	11.727019	11.904185	11.744449	12.187675	8.235823	3.823235	17.695651	-3.738700	6.729660	-0.030520	0.894712	0.442565	0.080505	-1.000000	-1.000000	-1.000000	-1.000000	-1.000000	-1.000000	-1.000000	66.413793	0.000000	-1.000000	-1.000000	2517093.000000	1772662923.744616
-15782.985000	-40430.430000	-4134.465000	3099.150000	-16050.015000	-11855.205000	11441.475000	2828.430000	10.653662	11.727019	11.904185	11.744449	12.187675	8.235823	3.823235	17.695651	-3.738700	6.729660	-0.030520	0.894712	0.442565	0.080505	-1.000000	-1.000000	-1.000000	-1.000000	-1.000000	-1.000000	-1.000000	66.413793	0.000000	-1.000000	-1.000000	2517093.000000	1772662923.744616
-15827.085000	-40483.530000	-4193.055000	3032.730000	-16110.720000	-11910.870000	11404.935000	2789.505000	3.170057	2.740845	3.206797	5.005110	4.543141	3.072942	-1.735974	9.881518	-3.738700	6.729660	-0.030520	0.894712	0.442565	0.080505	-1.000000	-1.000000	-1.000000	-1.000000	-1.000000	-1.000000	-1.000000	66.413793	0.000000	-1.000000	-1.000000	2517094.000000	1772662923.744624
-15827.085000	-40483.530000	-4193.055000	3032.730000	-16110.720000	-11910.870000	11404.935000	2789.505000	3.170057	2.740845	3.206797	5.005110	4.543141	3.072942	-1.735974	9.881518	-3.738700	6.729660	-0.030520	0.894712	0.442565	0.080505	-1.000000	-1.000000	-1.000000	-1.000000	-1.000000	-1.000000	-1.000000	66.413793	0.000000	-1.000000	-1.000000	2517094.000000	1772662923.744624
-15827.085000	-40483.530000	-4193.055000	3032.730000	-16110.720000	-11910.870000	11404.935000	2789.505000	3.170057	2.740845	3.206797	5.005110	4.543141	3.072942	-1.735974	9.881518	-3.738700	6.729660	-0.030520	0.894712	0.442565	0.080505	-1.000000	-1.000000	-1.000000	-1.000000	-1.000000	-1.000000	-1.000000	66.413793	0.000000	-1.000000	-1.000000	2517094.000000	1772662923.744624
-15837.255000	-40494.780000	-4204.215000	3034.215000	-16126.515000	-11934.450000	11398.410000	2792.250000	-10.307080	-13.356831	-13.251197	-10.969099	-11.313446	-8.941769	-10.941226	-4.671369	-3.738700	6.729660	-0.030520	0.894712	0.442565	0.080505	-1.000000	-1.000000	-1.000000	-1.000000	-1.000000	-1.000000	-1.000000	66.413793	0.000000	-1.000000	-1.000000	2517095.000000	1772662923.748088
-15837.255000	-40494.780000	-4204.215000	3034.215000	-16126.515000	-11934.450000	11398.410000	2792.250000	-10.307080	-13.356831	-13.251197	-10.969099	-11.313446	-8.941769	-10.941226	-4.671369	-3.738700	6.729660	-0.030520	0.894712	0.442565	0.080505	-1.000000	-1.000000	-1.000000	-1.000000	-1.000000	-1.000000	-1.000000	66.413793	0.000000	-1.000000	-1.000000	2517095.000000	1772662923.748088
-15837.255000	-40494.780000	-4204.215000	3034.215000	-16126.515000	-11934.450000	11398.410000	2792.250000	-10.307080	-13.356831	-13.251197	-10.969099	-11.313446	-8.941769	-10.941226	-4.671369	-3.738700	6.729660	-0.030520	0.894712	0.442565	0.080505	-1.000000	-1.000000	-1.000000	-1.000000	-1.000000	-1.000000	-1.000000	66.413793	0.000000	-1.000000	-1.000000	2517095.000000	1772662923.748088
-15833.070000	-40486.230000	-4192.695000	3056.220000	-16115.175000	-11928.870000	11402.010000	2790.495000	-22.524124	-27.677129	-28.314598	-26.270609	-27.103043	-22.391313	-18.545978	-18.045862	-3.738700	6.729660	-0.030520	0.894712	0.442565	0.080505	-1.000000	-1.000000	-1.000000	-1.000000	-1.000000	-1.000000	-1.000000	66.413793	0.000000	-1.000000	-1.000000	2517096.000000	1772662923.748095
-15833.070000	-40486.230000	-4192.695000	3056.220000	-16115.175000	-11928.870000	11402.010000	2790.495000	-22.524124	-27.677129	-28.314598	-26.270609	-27.103043	-22.391313	-18.545978	-18.045862	-3.738700	6.729660	-0.030520	0.894712	0.442565	0.080505	-1.000000	-1.000000	-1.000000	-1.000000	-1.000000	-1.000000	-1.000000	66.413793	0.000000	-1.000000	-1.000000	2517096.000000	1772662923.748095
-15833.070000	-40486.230000	-4192.695000	3056.220000	-16115.175000	-11928.870000	11402.010000	2790.495000	-22.524124	-27.677129	-28.314598	-26.270609	-27.103043	-22.391313	-18.545978	-18.045862	-3.738700	6.729660	-0.030520	0.894712	0.442565	0.080505	-1.000000	-1.000000	-1.000000	-1.000000	-1.000000	-1.000000	-1.000000	66.413793	0.000000	-1.000000	-1.000000	2517096.000000	1772662923.748095
-15807.195000	-40459.590000	-4167.360000	3083.895000	-16085.520000	-11905.920000	11412.180000	2797.830000	-24.523328	-29.458195	-30.437756	-28.139778	-30.694949	-27.095257	-18.228778	-22.118018	-3.738700	6.729660	-0.030520	0.894712	0.442565	0.080505	-1.000000	-1.000000	-1.000000	-1.000000	-1.000000	-1.000000	-1.000000	66.413793	0.000000	-1.000000	-1.000000	2517097.000000	1772662923.751990
-15807.195000	-40459.590000	-4167.360000	3083.895000	-16085.520000	-11905.920000	11412.180000	2797.830000	-24.523328	-29.458195	-30.437756	-28.139778	-30.694949	-27.095257	-18.228778	-22.118018	-3.738700	6.729660	-0.030520	0.894712	0.442565	0.080505	-1.000000	-1.000000	-1.000000	-1.000000	-1.000000	-1.000000	-1.000000	66.413793	0.000000	-1.000000	-1.000000	2517097.000000	1772662923.751990
-15807.195000	-40459.590000	-4167.360000	3083.895000	-16085.520000	-11905.920000	11412.180000	2797.830000	-24.523328	-29.458195	-30.437756	-28.139778	-30.694949	-27.095257	-18.228778	-22.118018	-3.738700	6.729660	-0.030520	0.894712	0.442565	0.080505	-1.000000	-1.000000	-1.000000	-1.000000	-1.000000	-1.000000	-1.000000	66.413793	0.000000	-1.000000	-1.000000	2517097.000000	1772662923.751990
-15792.165000	-40443.795000	-4154.715000	3088.710000	-16078.860000	-11898.630000	11416.365000	2795.265000	-13.077571	-15.277089	-15.830012	-13.035132	-17.053400	-17.181585	-8.558748	-14.920550	-3.738700	6.729660	-0.030520	0.894712	0.442565	0.080505	-1.000000	-1.000000	-1.000000	-1.000000	-1.000000	-1.000000	-1.000000	66.413793	0.000000	-1.000000	-1.000000	2517098.000000	1772662923.751998
-15792.165000	-40443.795000	-4154.715000	3088.710000	-16078.860000	-11898.630000	11416.365000	2795.265000	-13.077571	-15.277089	-15.830012	-13.035132	-17.053400	-17.181585	-8.558748	-14.920550	-3.738700	6.729660	-0.030520	0.894712	0.442565	0.080505	-1.000000	-1.000000	-1.000000	-1.000000	-1.000000	-1.000000	-1.000000	66.413793	0.000000	-1.000000	-1.000000	2517098.000000	1772662923.751998
-15792.165000	-40443.795000	-4154.715000	3088.710000	-16078.860000	-11898.630000	11416.365000	2795.265000	-13.077571	-15.277089	-15.830012	-13.035132	-17.053400	-17.181585	-8.558748	-14.920550	-3.738700	6.729660	-0.030520	0.894712	0.442565	0.080505	-1.000000	-1.000000	-1.000000	-1.000000	-1.000000	-1.000000	-1.000000	66.413793	0.000000	-1.000000	-1.000000	2517098.000000	1772662923.751998
-15780.690000	-40422.825000	-4131.630000	3107.205000	-16062.570000	-11875.590000	11442.870000	2815.290000	6.171738	7.809989	8.067796	10.362057	6.748178	3.094304	5.787097	-1.085332	-3.738700	6.729660	-0.030520	0.894712	0.442565	0.080505	-1.000000	-1.000000	-1.000000	-1.000000	-1.000000	-1.000000	-1.000000	66.413793	0.000000	-1.000000	-1.000000	2517099.000000	1772662923.757529
-15780.690000	-40422.825000	-4131.630000	3107.205000	-16062.570000	-11875.590000	11442.870000	2815.290000	6.171738	7.809989	8.067796	10.362057	6.748178	3.094304	5.787097	-1.085332	-3.738700	6.729660	-0.030520	0.894712	0.442565	0.080505	-1.000000	-1.000000	-1.000000	-1.000000	-1.000000	-1.000000	-1.000000	66.413793	0.000000	-1.000000	-1.000000	2517099.000000	1772662923.757529
-15780.690000	-40422.825000	-4131.630000	3107.205000	-16062.570000	-11875.590000	11442.870000	2815.290000	6.171738	7.809989	8.067796	10.362057	6.748178	3.094304	5.787097	-1.085332	-3.738700	6.729660	-0.030520	0.894712	0.442565	0.080505	-1.000000	-1.000000	-1.000000	-1.000000	-1.000000	-1.000000	-1.000000	66.413793	0.000000	-1.000000	-1.000000	2517099.000000	1772662923.757529
-15810.255000	-40449.825000	-4154.265000	3086.460000	-16083.495000	-11890.035000	11434.860000	2804.490000	21.692307	26.539398	27.499965	27.765789	26.418423	21.887246	17.235996	12.007176	-3.738700	6.729660	-0.030520	0.894712	0.442565	0.080505	-1.000000	-1.000000	-1.000000	-1.000000	-1.000000	-1.000000	-1.000000	66.413793	0.000000	-1.000000	-1.000000	2517100.000000	1772662923.757536
-15810.255000	-40449.825000	-4154.265000	3086.460000	-16083.495000	-11890.035000	11434.860000	2804.490000	21.692307	26.539398	27.499965	27.765789	26.418423	21.887246	17.235996	12.007176	-3.738700	6.729660	-0.030520	0.894712	0.442565	0.080505	-1.000000	-1.000000	-1.000000	-1.000000	-1.000000	-1.000000	-1.000000	66.413793	0.000000	-1.000000	-1.000000	2517100.000000	1772662923.757536
-15810.255000	-40449.825000	-4154.265000	3086.460000	-16083.495000	-11890.035000	11434.860000	2804.490000	21.692307	26.539398	27.499965	27.765789	26.418423	21.887246	17.235996	12.007176	-3.738700	6.729660	-0.030520	0.894712	0.442565	0.080505	-1.000000	-1.000000	-1.000000	-1.000000	-1.000000	-1.000000	-1.000000	66.413793	0.000000	-1.000000	-1.000000	2517100.000000	1772662923.757536
-15817.995000	-40466.520000	-4170.240000	3072.105000	-16106.400000	-11892.330000	11426.130000	2773.440000	24.319072	30.477352	31.842299	29.416267	30.731589	28.434239	20.023097	17.969753	-1.190280	5.600420	-0.885080	0.894407	0.437011	0.081116	-1.000000	-1.000000	-1.000000	-1.000000	-1.000000	-1.000000	-1.000000	66.413793	0.000000	-1.000000	-1.000000	2517101.000000	1772662923.767403
-15817.995000	-40466.520000	-4170.240000	3072.105000	-16106.400000	-11892.330000	11426.130000	2773.440000	24.319072	30.477352	31.842299	29.416267	30.731589	28.434239	20.023097	17.969753	-1.190280	5.600420	-0.885080	0.894407	0.437011	0.081116	-1.000000	-1.000000	-1.000000	-1.000000	-1.000000	-1.000000	-1.000000	66.413793	0.000000	-1.000000	-1.000000	2517101.000000	1772662923.767403
-15817.995000	-40466.520000	-4170.240000	3072.105000	-16106.400000	-11892.330000	11426.130000	2773.440000	24.319072	30.477352	31.842299	29.416267	30.731589	28.434239	20.023097	17.969753	-1.190280	5.600420	-0.885080	0.894407	0.437011	0.081116	-1.000000	-1.000000	-1.000000	-1.000000	-1.000000	-1.000000	-1.000000	66.413793	0.000000	-1.000000	-1.000000	2517101.000000	1772662923.767403
-15790.680000	-40438.890000	-4146.795000	3088.530000	-16083.315000	-11870.145000	11440.755000	2786.760000	15.439719	20.555805	21.888101	17.580194	20.171285	21.733972	14.472988	15.333361	-1.190280	5.600420	-0.885080	0.894407	0.437011	0.081116	-1.000000	-1.000000	-1.000000	-1.000000	-1.000000	-1.000000	-1.000000	66.413793	0.000000	-1.000000	-1.000000	2517102.000000	1772662923.767412
-15790.680000	-40438.890000	-4146.795000	3088.530000	-16083.315000	-11870.145000	11440.755000	2786.760000	15.439719	20.555805	21.888101	17.580194	20.171285	21.733972	14.472988	15.333361	-1.190280	5.600420	-0.885080	0.894407	0.437011	0.081116	-1.000000	-1.000000	-1.000000	-1.000000	-1.000000	-1.000000	-1.000000	66.413793	0.000000	-1.000000	-1.000000	2517102.000000	1772662923.767412
-15790.680000	-40438.890000	-4146.795000	3088.530000	-16083.315000	-11870.145000	11440.755000	2786.760000	15.439719	20.555805	21.888101	17.580194	20.171285	21.733972	14.472988	15.333361	-1.190280	5.600420	-0.885080	0.894407	0.437011	0.081116	-1.000000	-1.000000	-1.000000	-1.000000	-1.000000	-1.000000	-1.000000	66.413793	0.000000	-1.000000	-1.000000	2517102.000000	1772662923.767412
-15801.345000	-40445.280000	-4152.195000	3086.010000	-16071.030000	-11880.630000	11417.940000	2799.945000	4.649047	7.176892	7.951736	3.503159	5.771636	10.012273	6.048102	8.783568	-1.190280	5.600420	-0.885080	0.894407	0.437011	0.081116	-1.000000	-1.000000	-1.000000	-1.000000	-1.000000	-1.000000	-1.000000	66.413793	0.000000	-1.000000	-1.000000	2517103.000000	1772662923.767421
-15801.345000	-40445.280000	-4152.195000	3086.010000	-16071.030000	-11880.630000	11417.940000	2799.945000	4.649047	7.176892	7.951736	3.503159	5.771636	10.012273	6.048102	8.783568	-1.190280	5.600420	-0.885080	0.894407	0.437011	0.081116	-1.000000	-1.000000	-1.000000	-1.000000	-1.000000	-1.000000	-1.000000	66.413793	0.000000	-1.000000	-1.000000	2517103.000000	1772662923.767421
-15801.345000	-40445.280000	-4152.195000	3086.010000	-16071.030000	-11880.630000	11417.940000	2799.945000	4.649047	7.176892	7.951736	3.503159	5.771636	10.012273	6.048102	8.783568	-1.190280	5.600420	-0.885080	0.894407	0.437011	0.081116	-1.000000	-1.000000	-1.000000	-1.000000	-1.000000	-1.000000	-1.000000	66.413793	0.000000	-1.000000	-1.000000	2517103.000000	1772662923.767421
-15805.170000	-40448.655000	-4153.995000	3090.510000	-16059.870000	-11892.195000	11380.770000	2787.705000	-1.651405	-1.835250	-1.910293	-4.876592	-2.700176	0.461190	-1.583114	3.354203	-1.190280	5.600420	-0.885080	0.894407	0.437011	0.081116	-1.000000	-1.000000	-1.000000	-1.000000	-1.000000	-1.000000	-1.000000	66.413793	0.000000	-1.000000	-1.000000	2517104.000000	1772662923.767426
-15805.170000	-40448.655000	-4153.995000	3090.510000	-16059.870000	-11892.195000	11380.770000	2787.705000	-1.651405	-1.835250	-1.910293	-4.876592	-2.700176	0.461190	-1.583114	3.354203	-1.190280	5.600420	-0.885080	0.894407	0.437011	0.081116	-1.000000	-1.000000	-1.000000	-1.000000	-1.000000	-1.000000	-1.000000	66.413793	0.000000	-1.000000	-1.000000	2517104.000000	1772662923.767426
-15805.170000	-40448.655000	-4153.995000	3090.510000	-16059.870000	-11892.195000	11380.770000	2787.705000	-1.651405	-1.835250	-1.910293	-4.876592	-2.700176	0.461190	-1.583114	3.354203	-1.190280	5.600420	-0.885080	0.894407	0.437011	0.081116	-1.000000	-1.000000	-1.000000	-1.000000	-1.000000	-1.000000	-1.000000	66.413793	0.000000	-1.000000	-1.000000	2517104.000000	1772662923.767426
-15760.215000	-40398.840000	-4106.295000	3135.015000	-16024.365000	-11849.490000	11438.325000	2816.010000	-3.871277	-6.040524	-6.884227	-7.705547	-4.282431	-5.594122	-7.784063	-0.074717	-1.190280	5.600420	-0.885080	0.894407	0.437011	0.081116	-1.000000	-1.000000	-1.000000	-1.000000	-1.000000	-1.000000	-1.000000	66.413793	0.000000	-1.000000	-1.000000	2517105.000000	1772662923.767832
-15760.215000	-40398.840000	-4106.295000	3135.015000	-16024.365000	-11849.490000	11438.325000	2816.010000	-3.871277	-6.040524	-6.884227	-7.705547	-4.282431	-5.594122	-7.784063	-0.074717	-1.190280	5.600420	-0.885080	0.894407	0.437011	0.081116	-1.000000	-1.000000	-1.000000	-1.000000	-1.000000	-1.000000	-1.000000	66.413793	0.000000	-1.000000	-1.000000	2517105.000000	1772662923.767832
-15760.215000	-40398.840000	-4106.295000	3135.015000	-16024.365000	-11849.490000	11438.325000	2816.010000	-3.871277	-6.040524	-6.884227	-7.705547	-4.282431	-5.594122	-7.784063	-0.074717	-1.190280	5.600420	-0.885080	0.894407	0.437011	0.081116	-1.000000	-1.000000	-1.000000	-1.000000	-1.000000	-1.000000	-1.000000	66.413793	0.000000	-1.000000	-1.000000	2517105.000000	1772662923.767832
-15768.810000	-40413.690000	-4123.800000	3117.510000	-16044.705000	-11856.915000	11480.040000	2866.365000	-4.269159	-7.543358	-8.849789	-7.895142	-3.485848	-8.795538	-9.934059	-1.651507	-1.190280	5.600420	-0.885080	0.894407	0.437011	0.081116	-1.000000	-1.000000	-1.000000	-1.000000	-1.000000	-1.000000	-1.000000	66.413793	0.000000	-1.000000	-1.000000	2517106.000000	1772662923.767837
-15768.810000	-40413.690000	-4123.800000	3117.510000	-16044.705000	-11856.915000	11480.040000	2866.365000	-4.269159	-7.543358	-8.849789	-7.895142	-3.485848	-8.795538	-9.934059	-1.651507	-1.190280	5.600420	-0.885080	0.894407	0.437011	0.081116	-1.000000	-1.000000	-1.000000	-1.000000	-1.000000	-1.000000	-1.000000	66.413793	0.000000	-1.000000	-1.000000	2517106.000000	1772662923.767837
-15768.810000	-40413.690000	-4123.800000	3117.510000	-16044.705000	-11856.915000	11480.040000	2866.365000	-4.269159	-7.543358	-8.849789	-7.895142	-3.485848	-8.795538	-9.934059	-1.651507	-1.190280	5.600420	-0.885080	0.894407	0.437011	0.081116	-1.000000	-1.000000	-1.000000	-1.000000	-1.000000	-1.000000	-1.000000	66.413793	0.000000	-1.000000	-1.000000	2517106.000000	1772662923.767837
-15796.305000	-40445.190000	-4155.165000	3083.940000	-16077.105000	-11879.235000	11460.240000	2831.895000	-5.350550	-9.116216	-10.468767	-8.409948	-5.357320	-10.395669	-6.139986	-1.433232	-1.190280	5.600420	-0.885080	0.894407	0.437011	0.081116	-1.000000	-1.000000	-1.000000	-1.000000	-1.000000	-1.000000	-1.000000	66.413793	0.000000	-1.000000	-1.000000	2517107.000000	1772662923.771833
-15796.305000	-40445.190000	-4155.165000	3083.940000	-16077.105000	-11879.235000	11460.240000	2831.895000	-5.350550	-9.116216	-10.468767	-8.409948	-5.357320	-10.395669	-6.139986	-1.433232	-1.190280	5.600420	-0.885080	0.894407	0.437011	0.081116	-1.000000	-1.000000	-1.000000	-1.000000	-1.000000	-1.000000	-1.000000	66.413793	0.000000	-1.000000	-1.000000	2517107.000000	1772662923.771833
-15796.305000	-40445.190000	-4155.165000	3083.940000	-16077.105000	-11879.235000	11460.240000	2831.895000	-5.350550	-9.116216	-10.468767	-8.409948	-5.357320	-10.395669	-6.139986	-1.433232	-1.190280	5.600420	-0.885080	0.894407	0.437011	0.081116	-1.000000	-1.000000	-1.000000	-1.000000	-1.000000	-1.000000	-1.000000	66.413793	0.000000	-1.000000	-1.000000	2517107.000000	1772662923.771833
-15816.420000	-40467.330000	-4176.855000	3055.905000	-16119.990000	-11914.875000	11426.670000	2799.045000	-9.107517	-13.124620	-14.123757	-11.528720	-12.164557	-12.687412	-1.116692	-2.531593	-1.190280	5.600420	-0.885080	0.894407	0.437011	0.081116	-1.000000	-1.000000	-1.000000	-1.000000	-1.000000	-1.000000	-1.000000	66.413793	0.000000	-1.000000	-1.000000	2517108.000000	1772662923.771838
-15816.420000	-40467.330000	-4176.855000	3055.905000	-16119.990000	-11914.875000	11426.670000	2799.045000	-9.107517	-13.124620	-14.123757	-11.528720	-12.164557	-12.687412	-1.116692	-2.531593	-1.190280	5.600420	-0.885080	0.894407	0.437011	0.081116	-1.000000	-1.000000	-1.000000	-1.000000	-1.000000	-1.000000	-1.000000	66.413793	0.000000	-1.000000	-1.000000	2517108.000000	1772662923.771838
-15816.420000	-40467.330000	-4176.855000	3055.905000	-16119.990000	-11914.875000	11426.670000	2799.045000	-9.107517	-13.124620	-14.123757	-11.528720	-12.164557	-12.687412	-1.116692	-2.531593	-1.190280	5.600420	-0.885080	0.894407	0.437011	0.081116	-1.000000	-1.000000	-1.000000	-1.000000	-1.000000	-1.000000	-1.000000	66.413793	0.000000	-1.000000	-1.000000	2517108.000000	1772662923.771838
-15811.875000	-40462.155000	-4171.725000	3066.975000	-16112.520000	-11916.000000	11427.435000	2805.120000	-13.570978	-17.383942	-17.858637	-15.446197	-20.379384	-15.821625	-0.976736	-7.539804	-1.190280	5.600420	-0.885080	0.894407	0.437011	0.081116	-1.000000	-1.000000	-1.000000	-1.000000	-1.000000	-1.000000	-1.000000	66.413793	0.000000	-1.000000	-1.000000	2517109.000000	1772662923.775815
-15811.875000	-40462.155000	-4171.725000	3066.975000	-16112.520000	-11916.000000	11427.435000	2805.120000	-13.570978	-17.383942	-17.858637	-15.446197	-20.379384	-15.821625	-0.976736	-7.539804	-1.190280	5.600420	-0.885080	0.894407	0.437011	0.081116	-1.000000	-1.000000	-1.000000	-1.000000	-1.000000	-1.000000	-1.000000	66.413793	0.000000	-1.000000	-1.000000	2517109.000000	1772662923.775815
-15811.875000	-40462.155000	-4171.725000	3066.975000	-16112.520000	-11916.000000	11427.435000	2805.120000	-13.570978	-17.383942	-17.858637	-15.446197	-20.379384	-15.821625	-0.976736	-7.539804	-1.190280	5.600420	-0.885080	0.894407	0.437011	0.081116	-1.000000	-1.000000	-1.000000	-1.000000	-1.000000	-1.000000	-1.000000	66.413793	0.000000	-1.000000	-1.000000	2517109.000000	1772662923.775815
-15803.910000	-40449.645000	-4157.370000	3085.785000	-16075.305000	-11897.595000	11428.920000	2818.215000	-13.567028	-15.848732	-15.823772	-14.173472	-21.622046	-15.791891	-4.905317	-12.536593	-1.190280	5.600420	-0.885080	0.894407	0.437011	0.081116	-1.000000	-1.000000	-1.000000	-1.000000	-1.000000	-1.000000	-1.000000	66.413793	0.000000	-1.000000	-1.000000	2517110.000000	1772662923.775823
-15803.910000	-40449.645000	-4157.370000	3085.785000	-16075.305000	-11897.595000	11428.920000	2818.215000	-13.567028	-15.848732	-15.823772	-14.173472	-21.622046	-15.791891	-4.905317	-12.536593	-1.190280	5.600420	-0.885080	0.894407	0.437011	0.081116	-1.000000	-1.000000	-1.000000	-1.000000	-1.000000	-1.000000	-1.000000	66.413793	0.000000	-1.000000	-1.000000	2517110.000000	1772662923.775823
-15803.910000	-40449.645000	-4157.370000	3085.785000	-16075.305000	-11897.595000	11428.920000	2818.215000	-13.567028	-15.848732	-15.823772	-14.173472	-21.622046	-15.791891	-4.905317	-12.536593	-1.190280	5.600420	-0.885080	0.894407	0.437011	0.081116	-1.000000	-1.000000	-1.000000	-1.000000	-1.000000	-1.000000	-1.000000	66.413793	0.000000	-1.000000	-1.000000	2517110.000000	1772662923.775823
-15789.105000	-40428.990000	-4134.600000	3108.060000	-16043.130000	-11872.890000	11436.885000	2806.695000	-6.383554	-5.476440	-4.879016	-3.877897	-10.187647	-8.239670	-7.131694	-11.772069	-0.656180	3.662400	-1.602300	0.893125	0.435851	0.081909	-1.000000	-1.000000	-1.000000	-1.000000	-1.000000	-1.000000	-1.000000	66.413793	0.000000	-1.000000	-1.000000	2517111.000000	1772662923.779782
-15789.105000	-40428.990000	-4134.600000	3108.060000	-16043.130000	-11872.890000	11436.885000	2806.695000	-6.383554	-5.476440	-4.879016	-3.877897	-10.187647	-8.239670	-7.131694	-11.772069	-0.656180	3.662400	-1.602300	0.893125	0.435851	0.081909	-1.000000	-1.000000	-1.000000	-1.000000	-1.000000	-1.000000	-1.000000	66.413793	0.000000	-1.000000	-1.000000	2517111.000000	1772662923.779782
-15789.105000	-40428.990000	-4134.600000	3108.060000	-16043.130000	-11872.890000	11436.885000	2806.695000	-6.383554	-5.476440	-4.879016	-3.877897	-10.187647	-8.239670	-7.131694	-11.772069	-0.656180	3.662400	-1.602300	0.893125	0.435851	0.081909	-1.000000	-1.000000	-1.000000	-1.000000	-1.000000	-1.000000	-1.000000	66.413793	0.000000	-1.000000	-1.000000	2517111.000000	1772662923.779782
-15781.950000	-40415.040000	-4120.110000	3118.500000	-16044.885000	-11870.190000	11449.125000	2812.815000	5.413869	9.999003	11.275979	11.856727	9.660502	6.136955	-3.561850	-5.252091	-0.656180	3.662400	-1.602300	0.893125	0.435851	0.081909	-1.000000	-1.000000	-1.000000	-1.000000	-1.000000	-1.000000	-1.000000	66.413793	0.000000	-1.000000	-1.000000	2517112.000000	1772662923.779787
-15781.950000	-40415.040000	-4120.110000	3118.500000	-16044.885000	-11870.190000	11449.125000	2812.815000	5.413869	9.999003	11.275979	11.856727	9.660502	6.136955	-3.561850	-5.252091	-0.656180	3.662400	-1.602300	0.893125	0.435851	0.081909	-1.000000	-1.000000	-1.000000	-1.000000	-1.000000	-1.000000	-1.000000	66.413793	0.000000	-1.000000	-1.000000	2517112.000000	1772662923.779787
-15781.950000	-40415.040000	-4120.110000	3118.500000	-16044.885000	-11870.190000	11449.125000	2812.815000	5.413869	9.999003	11.275979	11.856727	9.660502	6.136955	-3.561850	-5.252091	-0.656180	3.662400	-1.602300	0.893125	0.435851	0.081909	-1.000000	-1.000000	-1.000000	-1.000000	-1.000000	-1.000000	-1.000000	66.413793	0.000000	-1.000000	-1.000000	2517112.000000	1772662923.779787
-15783.480000	-40419.540000	-4122.225000	3120.255000	-16041.240000	-11867.130000	11451.420000	2845.350000	15.694794	22.400632	24.098491	23.836038	25.832025	20.419270	4.856105	3.105494	-0.656180	3.662400	-1.602300	0.893125	0.435851	0.081909	-1.000000	-1.000000	-1.000000	-1.000000	-1.000000	-1.000000	-1.000000	66.413793	0.000000	-1.000000	-1.000000	2517113.000000	1772662923.786250
-15783.480000	-40419.540000	-4122.225000	3120.255000	-16041.240000	-11867.130000	11451.420000	2845.350000	15.694794	22.400632	24.098491	23.836038	25.832025	20.419270	4.856105	3.105494	-0.656180	3.662400	-1.602300	0.893125	0.435851	0.081909	-1.000000	-1.000000	-1.000000	-1.000000	-1.000000	-1.000000	-1.000000	66.413793	0.000000	-1.000000	-1.000000	2517113.000000	1772662923.786250
-15783.480000	-40419.540000	-4122.225000	3120.255000	-16041.240000	-11867.130000	11451.420000	2845.350000	15.694794	22.400632	24.098491	23.836038	25.832025	20.419270	4.856105	3.105494	-0.656180	3.662400	-1.602300	0.893125	0.435851	0.081909	-1.000000	-1.000000	-1.000000	-1.000000	-1.000000	-1.000000	-1.000000	66.413793	0.000000	-1.000000	-1.000000	2517113.000000	1772662923.786250
-15777.090000	-40416.930000	-4122.000000	3116.385000	-16042.005000	-11863.980000	11447.460000	2844.810000	18.262140	24.051783	25.564329	23.977862	28.242243	25.871083	11.785318	9.500001	-0.656180	3.662400	-1.602300	0.893125	0.435851	0.081909	-1.000000	-1.000000	-1.000000	-1.000000	-1.000000	-1.000000	-1.000000	66.413793	0.000000	-1.000000	-1.000000	2517114.000000	1772662923.786268
-15777.090000	-40416.930000	-4122.000000	3116.385000	-16042.005000	-11863.980000	11447.460000	2844.810000	18.262140	24.051783	25.564329	23.977862	28.242243	25.871083	11.785318	9.500001	-0.656180	3.662400	-1.602300	0.893125	0.435851	0.081909	-1.000000	-1.000000	-1.000000	-1.000000	-1.000000	-1.000000	-1.000000	66.413793	0.000000	-1.000000	-1.000000	2517114.000000	1772662923.786268
-15777.090000	-40416.930000	-4122.000000	3116.385000	-16042.005000	-11863.980000	11447.460000	2844.810000	18.262140	24.051783	25.564329	23.977862	28.242243	25.871083	11.785318	9.500001	-0.656180	3.662400	-1.602300	0.893125	0.435851	0.081909	-1.000000	-1.000000	-1.000000	-1.000000	-1.000000	-1.000000	-1.000000	66.413793	0.000000	-1.000000	-1.000000	2517114.000000	1772662923.786268
-15748.245000	-40396.140000	-4107.600000	3126.285000	-16033.950000	-11849.040000	11476.530000	2859.840000	12.127290	14.186366	14.873202	12.269636	16.845311	19.348514	11.041805	10.873123	-0.656180	3.662400	-1.602300	0.893125	0.435851	0.081909	-1.000000	-1.000000	-1.000000	-1.000000	-1.000000	-1.000000	-1.000000	66.413793	0.000000	-1.000000	-1.000000	2517115.000000	1772662923.788917
-15748.245000	-40396.140000	-4107.600000	3126.285000	-16033.950000	-11849.040000	11476.530000	2859.840000	12.127290	14.186366	14.873202	12.269636	16.845311	19.348514	11.041805	10.873123	-0.656180	3.662400	-1.602300	0.893125	0.435851	0.081909	-1.000000	-1.000000	-1.000000	-1.000000	-1.000000	-1.000000	-1.000000	66.413793	0.000000	-1.000000	-1.000000	2517115.000000	1772662923.788917
-15748.245000	-40396.140000	-4107.600000	3126.285000	-16033.950000	-11849.040000	11476.530000	2859.840000	12.127290	14.186366	14.873202	12.269636	16.845311	19.348514	11.041805	10.873123	-0.656180	3.662400	-1.602300	0.893125	0.435851	0.081909	-1.000000	-1.000000	-1.000000	-1.000000	-1.000000	-1.000000	-1.000000	66.413793	0.000000	-1.000000	-1.000000	2517115.000000	1772662923.788917
-15777.405000	-40438.305000	-4152.285000	3089.160000	-16074.405000	-11891.205000	11446.110000	2879.145000	2.584490	-0.179761	-0.823826	-3.329043	0.155217	5.543386	3.568079	7.652416	-0.656180	3.662400	-1.602300	0.893125	0.435851	0.081909	-1.000000	-1.000000	-1.000000	-1.000000	-1.000000	-1.000000	-1.000000	66.413793	0.000000	-1.000000	-1.000000	2517116.000000	1772662923.788926
-15777.405000	-40438.305000	-4152.285000	3089.160000	-16074.405000	-11891.205000	11446.110000	2879.145000	2.584490	-0.179761	-0.823826	-3.329043	0.155217	5.543386	3.568079	7.652416	-0.656180	3.662400	-1.602300	0.893125	0.435851	0.081909	-1.000000	-1.000000	-1.000000	-1.000000	-1.000000	-1.000000	-1.000000	66.413793	0.000000	-1.000000	-1.000000	2517116.000000	1772662923.788926
-15777.405000	-40438.305000	-4152.285000	3089.160000	-16074.405000	-11891.205000	11446.110000	2879.145000	2.584490	-0.179761	-0.823826	-3.329043	0.155217	5.543386	3.568079	7.652416	-0.656180	3.662400	-1.602300	0.893125	0.435851	0.081909	-1.000000	-1.000000	-1.000000	-1.000000	-1.000000	-1.000000	-1.000000	66.413793	0.000000	-1.000000	-1.000000	2517116.000000	1772662923.788926
-15798.600000	-40458.555000	-4170.960000	3068.415000	-16097.085000	-11909.790000	11423.655000	2867.400000	-5.248536	-11.821904	-13.850868	-14.865639	-13.187113	-8.530440	-4.993498	3.832248	-0.656180	3.662400	-1.602300	0.893125	0.435851	0.081909	-1.000000	-1.000000	-1.000000	-1.000000	-1.000000	-1.000000	-1.000000	66.413793	0.000000	-1.000000	-1.000000	2517117.000000	1772662923.794950
-15798.600000	-40458.555000	-4170.960000	3068.415000	-16097.085000	-11909.790000	11423.655000	2867.400000	-5.248536	-11.821904	-13.850868	-14.865639	-13.187113	-8.530440	-4.993498	3.832248	-0.656180	3.662400	-1.602300	0.893125	0.435851	0.081909	-1.000000	-1.000000	-1.000000	-1.000000	-1.000000	-1.000000	-1.000000	66.413793	0.000000	-1.000000	-1.000000	2517117.000000	1772662923.794950
-15798.600000	-40458.555000	-4170.960000	3068.415000	-16097.085000	-11909.790000	11423.655000	2867.400000	-5.248536	-11.821904	-13.850868	-14.865639	-13.187113	-8.530440	-4.993498	3.832248	-0.656180	3.662400	-1.602300	0.893125	0.435851	0.081909	-1.000000	-1.000000	-1.000000	-1.000000	-1.000000	-1.000000	-1.000000	66.413793	0.000000	-1.000000	-1.000000	2517117.000000	1772662923.794950
-15819.795000	-40468.140000	-4180.005000	3050.100000	-16108.020000	-11907.045000	11416.995000	2771.145000	-10.237973	-17.653404	-20.338506	-19.437502	-19.428738	-17.777030	-10.405601	0.167257	-0.656180	3.662400	-1.602300	0.893125	0.435851	0.081909	-1.000000	-1.000000	-1.000000	-1.000000	-1.000000	-1.000000	-1.000000	66.413793	0.000000	-1.000000	-1.000000	2517118.000000	1772662923.794958
-15819.795000	-40468.140000	-4180.005000	3050.100000	-16108.020000	-11907.045000	11416.995000	2771.145000	-10.237973	-17.653404	-20.338506	-19.437502	-19.428738	-17.777030	-10.405601	0.167257	-0.656180	3.662400	-1.602300	0.893125	0.435851	0.081909	-1.000000	-1.000000	-1.000000	-1.000000	-1.000000	-1.000000	-1.000000	66.413793	0.000000	-1.000000	-1.000000	2517118.000000	1772662923.794958
-15819.795000	-40468.140000	-4180.005000	3050.100000	-16108.020000	-11907.045000	11416.995000	2771.145000	-10.237973	-17.653404	-20.338506	-19.437502	-19.428738	-17.777030	-10.405601	0.167257	-0.656180	3.662400	-1.602300	0.893125	0.435851	0.081909	-1.000000	-1.000000	-1.000000	-1.000000	-1.000000	-1.000000	-1.000000	66.413793	0.000000	-1.000000	-1.000000	2517118.000000	1772662923.794958
-15822.630000	-40473.855000	-4185.450000	3048.120000	-16113.330000	-11917.395000	11405.340000	2780.505000	-12.751233	-17.260441	-19.379408	-17.707564	-19.027627	-19.784687	-11.125741	-6.396748	-0.656180	3.662400	-1.602300	0.893125	0.435851	0.081909	-1.000000	-1.000000	-1.000000	-1.000000	-1.000000	-1.000000	-1.000000	66.413793	0.000000	-1.000000	-1.000000	2517119.000000	1772662923.795788
-15822.630000	-40473.855000	-4185.450000	3048.120000	-16113.330000	-11917.395000	11405.340000	2780.505000	-12.751233	-17.260441	-19.379408	-17.707564	-19.027627	-19.784687	-11.125741	-6.396748	-0.656180	3.662400	-1.602300	0.893125	0.435851	0.081909	-1.000000	-1.000000	-1.000000	-1.000000	-1.000000	-1.000000	-1.000000	66.413793	0.000000	-1.000000	-1.000000	2517119.000000	1772662923.795788
-15822.630000	-40473.855000	-4185.450000	3048.120000	-16113.330000	-11917.395000	11405.340000	2780.505000	-12.751233	-17.260441	-19.379408	-17.707564	-19.027627	-19.784687	-11.125741	-6.396748	-0.656180	3.662400	-1.602300	0.893125	0.435851	0.081909	-1.000000	-1.000000	-1.000000	-1.000000	-1.000000	-1.000000	-1.000000	66.413793	0.000000	-1.000000	-1.000000	2517119.000000	1772662923.795788
-15823.710000	-40472.145000	-4177.395000	3068.190000	-16092.720000	-11904.750000	11405.340000	2816.685000	-12.376439	-11.917918	-12.446457	-11.228170	-13.900798	-15.095506	-7.616267	-13.711782	-0.656180	3.662400	-1.602300	0.893125	0.435851	0.081909	-1.000000	-1.000000	-1.000000	-1.000000	-1.000000	-1.000000	-1.000000	66.413793	0.000000	-1.000000	-1.000000	2517120.000000	1772662923.795793
-15823.710000	-40472.145000	-4177.395000	3068.190000	-16092.720000	-11904.750000	11405.340000	2816.685000	-12.376439	-11.917918	-12.446457	-11.228170	-13.900798	-15.095506	-7.616267	-13.711782	-0.656180	3.662400	-1.602300	0.893125	0.435851	0.081909	-1.000000	-1.000000	-1.000000	-1.000000	-1.000000	-1.000000	-1.000000	66.413793	0.000000	-1.000000	-1.000000	2517120.000000	1772662923.795793
-15823.710000	-40472.145000	-4177.395000	3068.190000	-16092.720000	-11904.750000	11405.340000	2816.685000	-12.376439	-11.917918	-12.446457	-11.228170	-13.900798	-15.095506	-7.616267	-13.711782	-0.656180	3.662400	-1.602300	0.893125	0.435851	0.081909	-1.000000	-1.000000	-1.000000	-1.000000	-1.000000	-1.000000	-1.000000	66.413793	0.000000	-1.000000	-1.000000	2517120.000000	1772662923.795793
-15827.580000	-40473.720000	-4179.240000	3069.135000	-16091.595000	-11901.825000	11417.085000	2773.080000	-8.451200	-3.917261	-2.537601	-1.701640	-5.322046	-5.955937	-1.417331	-15.049044	-2.685760	4.043900	-2.380560	0.893247	0.437621	0.081665	-1.000000	-1.000000	-1.000000	-1.000000	-1.000000	-1.000000	-1.000000	66.413793	0.000000	-1.000000	-1.000000	2517121.000000	1772662923.799883
-15827.580000	-40473.720000	-4179.240000	3069.135000	-16091.595000	-11901.825000	11417.085000	2773.080000	-8.451200	-3.917261	-2.537601	-1.701640	-5.322046	-5.955937	-1.417331	-15.049044	-2.685760	4.043900	-2.380560	0.893247	0.437621	0.081665	-1.000000	-1.000000	-1.000000	-1.000000	-1.000000	-1.000000	-1.000000	66.413793	0.000000	-1.000000	-1.000000	2517121.000000	1772662923.799883
-15827.580000	-40473.720000	-4179.240000	3069.135000	-16091.595000	-11901.825000	11417.085000	2773.080000	-8.451200	-3.917261	-2.537601	-1.701640	-5.322046	-5.955937	-1.417331	-15.049044	-2.685760	4.043900	-2.380560	0.893247	0.437621	0.081665	-1.000000	-1.000000	-1.000000	-1.000000	-1.000000	-1.000000	-1.000000	66.413793	0.000000	-1.000000	-1.000000	2517121.000000	1772662923.799883
-15806.565000	-40452.075000	-4162.590000	3080.520000	-16080.075000	-11889.900000	11440.710000	2791.080000	-1.583984	4.382992	7.002979	8.023385	4.897509	4.452785	5.603761	-9.281921	-2.685760	4.043900	-2.380560	0.893247	0.437621	0.081665	-1.000000	-1.000000	-1.000000	-1.000000	-1.000000	-1.000000	-1.000000	66.413793	0.000000	-1.000000	-1.000000	2517122.000000	1772662923.799887
-15806.565000	-40452.075000	-4162.590000	3080.520000	-16080.075000	-11889.900000	11440.710000	2791.080000	-1.583984	4.382992	7.002979	8.023385	4.897509	4.452785	5.603761	-9.281921	-2.685760	4.043900	-2.380560	0.893247	0.437621	0.081665	-1.000000	-1.000000	-1.000000	-1.000000	-1.000000	-1.000000	-1.000000	66.413793	0.000000	-1.000000	-1.000000	2517122.000000	1772662923.799887
-15806.565000	-40452.075000	-4162.590000	3080.520000	-16080.075000	-11889.900000	11440.710000	2791.080000	-1.583984	4.382992	7.002979	8.023385	4.897509	4.452785	5.603761	-9.281921	-2.685760	4.043900	-2.380560	0.893247	0.437621	0.081665	-1.000000	-1.000000	-1.000000	-1.000000	-1.000000	-1.000000	-1.000000	66.413793	0.000000	-1.000000	-1.000000	2517122.000000	1772662923.799887
-15824.745000	-40469.490000	-4177.170000	3067.020000	-16101.045000	-11907.045000	11419.470000	2791.080000	5.727347	10.662360	13.213124	14.320224	13.075992	11.964180	10.588452	-0.782601	-2.685760	4.043900	-2.380560	0.893247	0.437621	0.081665	-1.000000	-1.000000	-1.000000	-1.000000	-1.000000	-1.000000	-1.000000	66.413793	0.000000	-1.000000	-1.000000	2517123.000000	1772662923.804099
-15824.745000	-40469.490000	-4177.170000	3067.020000	-16101.045000	-11907.045000	11419.470000	2791.080000	5.727347	10.662360	13.213124	14.320224	13.075992	11.964180	10.588452	-0.782601	-2.685760	4.043900	-2.380560	0.893247	0.437621	0.081665	-1.000000	-1.000000	-1.000000	-1.000000	-1.000000	-1.000000	-1.000000	66.413793	0.000000	-1.000000	-1.000000	2517123.000000	1772662923.804099
-15824.745000	-40469.490000	-4177.170000	3067.020000	-16101.045000	-11907.045000	11419.470000	2791.080000	5.727347	10.662360	13.213124	14.320224	13.075992	11.964180	10.588452	-0.782601	-2.685760	4.043900	-2.380560	0.893247	0.437621	0.081665	-1.000000	-1.000000	-1.000000	-1.000000	-1.000000	-1.000000	-1.000000	66.413793	0.000000	-1.000000	-1.000000	2517123.000000	1772662923.804099
-15840.810000	-40482.540000	-4188.555000	3057.930000	-16109.595000	-11918.160000	11408.715000	2765.430000	9.943706	12.745273	14.319721	15.002867	15.816382	13.442361	10.281648	6.357883	-2.685760	4.043900	-2.380560	0.893247	0.437621	0.081665	-1.000000	-1.000000	-1.000000	-1.000000	-1.000000	-1.000000	-1.000000	66.413793	0.000000	-1.000000	-1.000000	2517124.000000	1772662923.804109
-15840.810000	-40482.540000	-4188.555000	3057.930000	-16109.595000	-11918.160000	11408.715000	2765.430000	9.943706	12.745273	14.319721	15.002867	15.816382	13.442361	10.281648	6.357883	-2.685760	4.043900	-2.380560	0.893247	0.437621	0.081665	-1.000000	-1.000000	-1.000000	-1.000000	-1.000000	-1.000000	-1.000000	66.413793	0.000000	-1.000000	-1.000000	2517124.000000	1772662923.804109
-15840.810000	-40482.540000	-4188.555000	3057.930000	-16109.595000	-11918.160000	11408.715000	2765.430000	9.943706	12.745273	14.319721	15.002867	15.816382	13.442361	10.281648	6.357883	-2.685760	4.043900	-2.380560	0.893247	0.437621	0.081665	-1.000000	-1.000000	-1.000000	-1.000000	-1.000000	-1.000000	-1.000000	66.413793	0.000000	-1.000000	-1.000000	2517124.000000	1772662923.804109
-15818.445000	-40461.705000	-4169.385000	3072.690000	-16089.840000	-11901.780000	11426.850000	2787.435000	9.957106	10.900928	11.423257	11.302857	13.558440	9.990559	5.237763	9.932775	-2.685760	4.043900	-2.380560	0.893247	0.437621	0.081665	-1.000000	-1.000000	-1.000000	-1.000000	-1.000000	-1.000000	-1.000000	66.413793	0.000000	-1.000000	-1.000000	2517125.000000	1772662923.807805
-15818.445000	-40461.705000	-4169.385000	3072.690000	-16089.840000	-11901.780000	11426.850000	2787.435000	9.957106	10.900928	11.423257	11.302857	13.558440	9.990559	5.237763	9.932775	-2.685760	4.043900	-2.380560	0.893247	0.437621	0.081665	-1.000000	-1.000000	-1.000000	-1.000000	-1.000000	-1.000000	-1.000000	66.413793	0.000000	-1.000000	-1.000000	2517125.000000	1772662923.807805
-15818.445000	-40461.705000	-4169.385000	3072.690000	-16089.840000	-11901.780000	11426.850000	2787.435000	9.957106	10.900928	11.423257	11.302857	13.558440	9.990559	5.237763	9.932775	-2.685760	4.043900	-2.380560	0.893247	0.437621	0.081665	-1.000000	-1.000000	-1.000000	-1.000000	-1.000000	-1.000000	-1.000000	66.413793	0.000000	-1.000000	-1.000000	2517125.000000	1772662923.807805
-15814.170000	-40460.400000	-4168.665000	3069.945000	-16093.440000	-11905.335000	11414.700000	2795.670000	8.704152	8.340800	7.991005	6.847859	9.930647	5.923644	0.381708	11.217621	-2.685760	4.043900	-2.380560	0.893247	0.437621	0.081665	-1.000000	-1.000000	-1.000000	-1.000000	-1.000000	-1.000000	-1.000000	66.413793	0.000000	-1.000000	-1.000000	2517126.000000	1772662923.807814
-15814.170000	-40460.400000	-4168.665000	3069.945000	-16093.440000	-11905.335000	11414.700000	2795.670000	8.704152	8.340800	7.991005	6.847859	9.930647	5.923644	0.381708	11.217621	-2.685760	4.043900	-2.380560	0.893247	0.437621	0.081665	-1.000000	-1.000000	-1.000000	-1.000000	-1.000000	-1.000000	-1.000000	66.413793	0.000000	-1.000000	-1.000000	2517126.000000	1772662923.807814
-15814.170000	-40460.400000	-4168.665000	3069.945000	-16093.440000	-11905.335000	11414.700000	2795.670000	8.704152	8.340800	7.991005	6.847859	9.930647	5.923644	0.381708	11.217621	-2.685760	4.043900	-2.380560	0.893247	0.437621	0.081665	-1.000000	-1.000000	-1.000000	-1.000000	-1.000000	-1.000000	-1.000000	66.413793	0.000000	-1.000000	-1.000000	2517126.000000	1772662923.807814
-15814.845000	-40458.645000	-4167.000000	3074.670000	-16090.380000	-11902.455000	11397.510000	2782.035000	8.477749	6.743238	5.601400	3.628467	6.629993	3.372025	-1.373290	13.263655	-2.685760	4.043900	-2.380560	0.893247	0.437621	0.081665	-1.000000	-1.000000	-1.000000	-1.000000	-1.000000	-1.000000	-1.000000	66.413793	0.000000	-1.000000	-1.000000	2517127.000000	1772662923.811787
-15814.845000	-40458.645000	-4167.000000	3074.670000	-16090.380000	-11902.455000	11397.510000	2782.035000	8.477749	6.743238	5.601400	3.628467	6.629993	3.372025	-1.373290	13.263655	-2.685760	4.043900	-2.380560	0.893247	0.437621	0.081665	-1.000000	-1.000000	-1.000000	-1.000000	-1.000000	-1.000000	-1.000000	66.413793	0.000000	-1.000000	-1.000000	2517127.000000	1772662923.811787
-15814.845000	-40458.645000	-4167.000000	3074.670000	-16090.380000	-11902.455000	11397.510000	2782.035000	8.477749	6.743238	5.601400	3.628467	6.629993	3.372025	-1.373290	13.263655	-2.685760	4.043900	-2.380560	0.893247	0.437621	0.081665	-1.000000	-1.000000	-1.000000	-1.000000	-1.000000	-1.000000	-1.000000	66.413793	0.000000	-1.000000	-1.000000	2517127.000000	1772662923.811787
-15799.050000	-40442.220000	-4151.070000	3089.970000	-16070.715000	-11882.970000	11423.655000	2795.625000	7.913514	4.662234	2.891858	0.815303	2.434794	1.319592	-1.160475	15.075195	-2.685760	4.043900	-2.380560	0.893247	0.437621	0.081665	-1.000000	-1.000000	-1.000000	-1.000000	-1.000000	-1.000000	-1.000000	66.413793	0.000000	-1.000000	-1.000000	2517128.000000	1772662923.811796
-15799.050000	-40442.220000	-4151.070000	3089.970000	-16070.715000	-11882.970000	11423.655000	2795.625000	7.913514	4.662234	2.891858	0.815303	2.434794	1.319592	-1.160475	15.075195	-2.685760	4.043900	-2.380560	0.893247	0.437621	0.081665	-1.000000	-1.000000	-1.000000	-1.000000	-1.000000	-1.000000	-1.000000	66.413793	0.000000	-1.000000	-1.000000	2517128.000000	1772662923.811796
-15799.050000	-40442.220000	-4151.070000	3089.970000	-16070.715000	-11882.970000	11423.655000	2795.625000	7.913514	4.662234	2.891858	0.815303	2.434794	1.319592	-1.160475	15.075195	-2.685760	4.043900	-2.380560	0.893247	0.437621	0.081665	-1.000000	-1.000000	-1.000000	-1.000000	-1.000000	-1.000000	-1.000000	66.413793	0.000000	-1.000000	-1.000000	2517128.000000	1772662923.811796
-15799.995000	-40442.805000	-4153.320000	3074.355000	-16073.595000	-11884.365000	11444.580000	2812.950000	4.968045	0.800895	-1.289017	-3.046238	-3.267253	-1.117094	-0.056031	12.461693	-2.685760	4.043900	-2.380560	0.893247	0.437621	0.081665	-1.000000	-1.000000	-1.000000	-1.000000	-1.000000	-1.000000	-1.000000	66.413793	0.000000	-1.000000	-1.000000	2517129.000000	1772662923.815811
-15799.995000	-40442.805000	-4153.320000	3074.355000	-16073.595000	-11884.365000	11444.580000	2812.950000	4.968045	0.800895	-1.289017	-3.046238	-3.267253	-1.117094	-0.056031	12.461693	-2.685760	4.043900	-2.380560	0.893247	0.437621	0.081665	-1.000000	-1.000000	-1.000000	-1.000000	-1.000000	-1.000000	-1.000000	66.413793	0.000000	-1.000000	-1.000000	2517129.000000	1772662923.815811
-15799.995000	-40442.805000	-4153.320000	3074.355000	-16073.595000	-11884.365000	11444.580000	2812.950000	4.968045	0.800895	-1.289017	-3.046238	-3.267253	-1.117094	-0.056031	12.461693	-2.685760	4.043900	-2.380560	0.893247	0.437621	0.081665	-1.000000	-1.000000	-1.000000	-1.000000	-1.000000	-1.000000	-1.000000	66.413793	0.000000	-1.000000	-1.000000	2517129.000000	1772662923.815811
-15793.605000	-40432.590000	-4143.645000	3089.340000	-16064.235000	-11876.490000	11449.170000	2818.485000	-0.590371	-4.426711	-6.411195	-8.126390	-9.214437	-3.941333	1.327961	4.613291	-2.685760	4.043900	-2.380560	0.893247	0.437621	0.081665	-1.000000	-1.000000	-1.000000	-1.000000	-1.000000	-1.000000	-1.000000	66.413793	0.000000	-1.000000	-1.000000	2517130.000000	1772662923.815818
-15793.605000	-40432.590000	-4143.645000	3089.340000	-16064.235000	-11876.490000	11449.170000	2818.485000	-0.590371	-4.426711	-6.411195	-8.126390	-9.214437	-3.941333	1.327961	4.613291	-2.685760	4.043900	-2.380560	0.893247	0.437621	0.081665	-1.000000	-1.000000	-1.000000	-1.000000	-1.000000	-1.000000	-1.000000	66.413793	0.000000	-1.000000	-1.000000	2517130.000000	1772662923.815818
-15793.605000	-40432.590000	-4143.645000	3089.340000	-16064.235000	-11876.490000	11449.170000	2818.485000	-0.590371	-4.426711	-6.411195	-8.126390	-9.214437	-3.941333	1.327961	4.613291	-2.685760	4.043900	-2.380560	0.893247	0.437621	0.081665	-1.000000	-1.000000	-1.000000	-1.000000	-1.000000	-1.000000	-1.000000	66.413793	0.000000	-1.000000	-1.000000	2517130.000000	1772662923.815818
-15785.415000	-40421.700000	-4132.845000	3109.140000	-16061.175000	-11875.095000	11449.710000	2821.770000	-7.221373	-9.374841	-10.631275	-12.037723	-13.068329	-6.635654	1.185063	-5.326178	-4.272800	3.418240	-2.182180	0.892820	0.437743	0.084289	-1.000000	-1.000000	-1.000000	-1.000000	-1.000000	-1.000000	-1.000000	66.413793	0.000000	-1.000000	-1.000000	2517131.000000	1772662923.821486
-15785.415000	-40421.700000	-4132.845000	3109.140000	-16061.175000	-11875.095000	11449.710000	2821.770000	-7.221373	-9.374841	-10.631275	-12.037723	-13.068329	-6.635654	1.185063	-5.326178	-4.272800	3.418240	-2.182180	0.892820	0.437743	0.084289	-1.000000	-1.000000	-1.000000	-1.000000	-1.000000	-1.000000	-1.000000	66.413793	0.000000	-1.000000	-1.000000	2517131.000000	1772662923.821486
-15785.415000	-40421.700000	-4132.845000	3109.140000	-16061.175000	-11875.095000	11449.710000	2821.770000	-7.221373	-9.374841	-10.631275	-12.037723	-13.068329	-6.635654	1.185063	-5.326178	-4.272800	3.418240	-2.182180	0.892820	0.437743	0.084289	-1.000000	-1.000000	-1.000000	-1.000000	-1.000000	-1.000000	-1.000000	66.413793	0.000000	-1.000000	-1.000000	2517131.000000	1772662923.821486
-15781.095000	-40415.175000	-4127.355000	3111.570000	-16069.455000	-11885.400000	11440.440000	2799.180000	-11.978537	-11.584828	-11.540062	-11.308766	-12.693347	-8.017096	-1.481951	-14.023726	-4.272800	3.418240	-2.182180	0.892820	0.437743	0.084289	-1.000000	-1.000000	-1.000000	-1.000000	-1.000000	-1.000000	-1.000000	66.413793	0.000000	-1.000000	-1.000000	2517132.000000	1772662923.821493
-15781.095000	-40415.175000	-4127.355000	3111.570000	-16069.455000	-11885.400000	11440.440000	2799.180000	-11.978537	-11.584828	-11.540062	-11.308766	-12.693347	-8.017096	-1.481951	-14.023726	-4.272800	3.418240	-2.182180	0.892820	0.437743	0.084289	-1.000000	-1.000000	-1.000000	-1.000000	-1.000000	-1.000000	-1.000000	66.413793	0.000000	-1.000000	-1.000000	2517132.000000	1772662923.821493
-15781.095000	-40415.175000	-4127.355000	3111.570000	-16069.455000	-11885.400000	11440.440000	2799.180000	-11.978537	-11.584828	-11.540062	-11.308766	-12.693347	-8.017096	-1.481951	-14.023726	-4.272800	3.418240	-2.182180	0.892820	0.437743	0.084289	-1.000000	-1.000000	-1.000000	-1.000000	-1.000000	-1.000000	-1.000000	66.413793	0.000000	-1.000000	-1.000000	2517132.000000	1772662923.821493
-15770.385000	-40396.545000	-4106.835000	3128.445000	-16048.260000	-11871.495000	11431.350000	2781.630000	-12.029934	-9.134406	-7.740543	-5.131138	-7.657917	-6.868992	-5.203670	-19.209824	-4.272800	3.418240	-2.182180	0.892820	0.437743	0.084289	-1.000000	-1.000000	-1.000000	-1.000000	-1.000000	-1.000000	-1.000000	66.413793	0.000000	-1.000000	-1.000000	2517133.000000	1772662923.823800
-15770.385000	-40396.545000	-4106.835000	3128.445000	-16048.260000	-11871.495000	11431.350000	2781.630000	-12.029934	-9.134406	-7.740543	-5.131138	-7.657917	-6.868992	-5.203670	-19.209824	-4.272800	3.418240	-2.182180	0.892820	0.437743	0.084289	-1.000000	-1.000000	-1.000000	-1.000000	-1.000000	-1.000000	-1.000000	66.413793	0.000000	-1.000000	-1.000000	2517133.000000	1772662923.823800
-15770.385000	-40396.545000	-4106.835000	3128.445000	-16048.260000	-11871.495000	11431.350000	2781.630000	-12.029934	-9.134406	-7.740543	-5.131138	-7.657917	-6.868992	-5.203670	-19.209824	-4.272800	3.418240	-2.182180	0.892820	0.437743	0.084289	-1.000000	-1.000000	-1.000000	-1.000000	-1.000000	-1.000000	-1.000000	66.413793	0.000000	-1.000000	-1.000000	2517133.000000	1772662923.823800
-15781.725000	-40413.645000	-4123.575000	3115.395000	-16057.395000	-11877.615000	11428.695000	2815.605000	-7.487671	-3.080843	-0.850191	3.232572	0.039012	-3.144416	-7.664542	-19.188761	-4.272800	3.418240	-2.182180	0.892820	0.437743	0.084289	-1.000000	-1.000000	-1.000000	-1.000000	-1.000000	-1.000000	-1.000000	66.413793	0.000000	-1.000000	-1.000000	2517134.000000	1772662923.823808
-15781.725000	-40413.645000	-4123.575000	3115.395000	-16057.395000	-11877.615000	11428.695000	2815.605000	-7.487671	-3.080843	-0.850191	3.232572	0.039012	-3.144416	-7.664542	-19.188761	-4.272800	3.418240	-2.182180	0.892820	0.437743	0.084289	-1.000000	-1.000000	-1.000000	-1.000000	-1.000000	-1.000000	-1.000000	66.413793	0.000000	-1.000000	-1.000000	2517134.000000	1772662923.823808
-15781.725000	-40413.645000	-4123.575000	3115.395000	-16057.395000	-11877.615000	11428.695000	2815.605000	-7.487671	-3.080843	-0.850191	3.232572	0.039012	-3.144416	-7.664542	-19.188761	-4.272800	3.418240	-2.182180	0.892820	0.437743	0.084289	-1.000000	-1.000000	-1.000000	-1.000000	-1.000000	-1.000000	-1.000000	66.413793	0.000000	-1.000000	-1.000000	2517134.000000	1772662923.823808
-15773.355000	-40415.895000	-4124.430000	3124.530000	-16040.745000	-11857.680000	11448.720000	2855.835000	-1.571692	2.407522	4.727000	8.804457	6.736093	1.555153	-6.910758	-12.025204	-4.272800	3.418240	-2.182180	0.892820	0.437743	0.084289	-1.000000	-1.000000	-1.000000	-1.000000	-1.000000	-1.000000	-1.000000	66.413793	0.000000	-1.000000	-1.000000	2517135.000000	1772662923.827661
-15773.355000	-40415.895000	-4124.430000	3124.530000	-16040.745000	-11857.680000	11448.720000	2855.835000	-1.571692	2.407522	4.727000	8.804457	6.736093	1.555153	-6.910758	-12.025204	-4.272800	3.418240	-2.182180	0.892820	0.437743	0.084289	-1.000000	-1.000000	-1.000000	-1.000000	-1.000000	-1.000000	-1.000000	66.413793	0.000000	-1.000000	-1.000000	2517135.000000	1772662923.827661
-15773.355000	-40415.895000	-4124.430000	3124.530000	-16040.745000	-11857.680000	11448.720000	2855.835000	-1.571692	2.407522	4.727000	8.804457	6.736093	1.555153	-6.910758	-12.025204	-4.272800	3.418240	-2.182180	0.892820	0.437743	0.084289	-1.000000	-1.000000	-1.000000	-1.000000	-1.000000	-1.000000	-1.000000	66.413793	0.000000	-1.000000	-1.000000	2517135.000000	1772662923.827661
-15772.140000	-40417.830000	-4128.165000	3118.635000	-16046.235000	-11859.840000	11457.090000	2842.200000	2.648614	3.878840	5.567134	8.632576	9.327382	5.061550	-2.066416	1.643669	-4.272800	3.418240	-2.182180	0.892820	0.437743	0.084289	-1.000000	-1.000000	-1.000000	-1.000000	-1.000000	-1.000000	-1.000000	66.413793	0.000000	-1.000000	-1.000000	2517136.000000	1772662923.827669
-15772.140000	-40417.830000	-4128.165000	3118.635000	-16046.235000	-11859.840000	11457.090000	2842.200000	2.648614	3.878840	5.567134	8.632576	9.327382	5.061550	-2.066416	1.643669	-4.272800	3.418240	-2.182180	0.892820	0.437743	0.084289	-1.000000	-1.000000	-1.000000	-1.000000	-1.000000	-1.000000	-1.000000	66.413793	0.000000	-1.000000	-1.000000	2517136.000000	1772662923.827669
-15772.140000	-40417.830000	-4128.165000	3118.635000	-16046.235000	-11859.840000	11457.090000	2842.200000	2.648614	3.878840	5.567134	8.632576	9.327382	5.061550	-2.066416	1.643669	-4.272800	3.418240	-2.182180	0.892820	0.437743	0.084289	-1.000000	-1.000000	-1.000000	-1.000000	-1.000000	-1.000000	-1.000000	66.413793	0.000000	-1.000000	-1.000000	2517136.000000	1772662923.827669
-15802.875000	-40452.795000	-4165.875000	3073.995000	-16090.965000	-11900.295000	11428.290000	2816.730000	3.596502	0.937074	1.436542	2.721317	6.145920	5.096277	4.114899	14.267747	-4.272800	3.418240	-2.182180	0.892820	0.437743	0.084289	-1.000000	-1.000000	-1.000000	-1.000000	-1.000000	-1.000000	-1.000000	66.413793	0.000000	-1.000000	-1.000000	2517137.000000	1772662923.831754
-15802.875000	-40452.795000	-4165.875000	3073.995000	-16090.965000	-11900.295000	11428.290000	2816.730000	3.596502	0.937074	1.436542	2.721317	6.145920	5.096277	4.114899	14.267747	-4.272800	3.418240	-2.182180	0.892820	0.437743	0.084289	-1.000000	-1.000000	-1.000000	-1.000000	-1.000000	-1.000000	-1.000000	66.413793	0.000000	-1.000000	-1.000000	2517137.000000	1772662923.831754
-15802.875000	-40452.795000	-4165.875000	3073.995000	-16090.965000	-11900.295000	11428.290000	2816.730000	3.596502	0.937074	1.436542	2.721317	6.145920	5.096277	4.114899	14.267747	-4.272800	3.418240	-2.182180	0.892820	0.437743	0.084289	-1.000000	-1.000000	-1.000000	-1.000000	-1.000000	-1.000000	-1.000000	66.413793	0.000000	-1.000000	-1.000000	2517137.000000	1772662923.831754
-15821.595000	-40470.840000	-4183.965000	3056.175000	-16107.930000	-11915.550000	11419.380000	2789.235000	0.713467	-4.769745	-5.659576	-6.743775	-2.462612	0.205550	6.043241	16.421594	-4.272800	3.418240	-2.182180	0.892820	0.437743	0.084289	-1.000000	-1.000000	-1.000000	-1.000000	-1.000000	-1.000000	-1.000000	66.413793	0.000000	-1.000000	-1.000000	2517138.000000	1772662923.831764
-15821.595000	-40470.840000	-4183.965000	3056.175000	-16107.930000	-11915.550000	11419.380000	2789.235000	0.713467	-4.769745	-5.659576	-6.743775	-2.462612	0.205550	6.043241	16.421594	-4.272800	3.418240	-2.182180	0.892820	0.437743	0.084289	-1.000000	-1.000000	-1.000000	-1.000000	-1.000000	-1.000000	-1.000000	66.413793	0.000000	-1.000000	-1.000000	2517138.000000	1772662923.831764
-15821.595000	-40470.840000	-4183.965000	3056.175000	-16107.930000	-11915.550000	11419.380000	2789.235000	0.713467	-4.769745	-5.659576	-6.743775	-2.462612	0.205550	6.043241	16.421594	-4.272800	3.418240	-2.182180	0.892820	0.437743	0.084289	-1.000000	-1.000000	-1.000000	-1.000000	-1.000000	-1.000000	-1.000000	66.413793	0.000000	-1.000000	-1.000000	2517138.000000	1772662923.831764
-15836.085000	-40487.895000	-4200.525000	3046.545000	-16113.420000	-11920.815000	11423.610000	2811.645000	-4.560527	-10.243366	-12.093582	-15.288290	-12.227050	-7.363359	1.716903	6.979924	-4.272800	3.418240	-2.182180	0.892820	0.437743	0.084289	-1.000000	-1.000000	-1.000000	-1.000000	-1.000000	-1.000000	-1.000000	66.413793	0.000000	-1.000000	-1.000000	2517139.000000	1772662923.835807
-15836.085000	-40487.895000	-4200.525000	3046.545000	-16113.420000	-11920.815000	11423.610000	2811.645000	-4.560527	-10.243366	-12.093582	-15.288290	-12.227050	-7.363359	1.716903	6.979924	-4.272800	3.418240	-2.182180	0.892820	0.437743	0.084289	-1.000000	-1.000000	-1.000000	-1.000000	-1.000000	-1.000000	-1.000000	66.413793	0.000000	-1.000000	-1.000000	2517139.000000	1772662923.835807
-15836.085000	-40487.895000	-4200.525000	3046.545000	-16113.420000	-11920.815000	11423.610000	2811.645000	-4.560527	-10.243366	-12.093582	-15.288290	-12.227050	-7.363359	1.716903	6.979924	-4.272800	3.418240	-2.182180	0.892820	0.437743	0.084289	-1.000000	-1.000000	-1.000000	-1.000000	-1.000000	-1.000000	-1.000000	66.413793	0.000000	-1.000000	-1.000000	2517139.000000	1772662923.835807
-15833.430000	-40486.095000	-4199.355000	3043.980000	-16114.905000	-11919.195000	11415.960000	2810.520000	-8.585549	-11.886502	-13.761466	-17.878701	-16.473828	-11.993768	-4.634623	-5.695583	-4.272800	3.418240	-2.182180	0.892820	0.437743	0.084289	-1.000000	-1.000000	-1.000000	-1.000000	-1.000000	-1.000000	-1.000000	66.413793	0.000000	-1.000000	-1.000000	2517140.000000	1772662923.835817
-15833.430000	-40486.095000	-4199.355000	3043.980000	-16114.905000	-11919.195000	11415.960000	2810.520000	-8.585549	-11.886502	-13.761466	-17.878701	-16.473828	-11.993768	-4.634623	-5.695583	-4.272800	3.418240	-2.182180	0.892820	0.437743	0.084289	-1.000000	-1.000000	-1.000000	-1.000000	-1.000000	-1.000000	-1.000000	66.413793	0.000000	-1.000000	-1.000000	2517140.000000	1772662923.835817
-15833.430000	-40486.095000	-4199.355000	3043.980000	-16114.905000	-11919.195000	11415.960000	2810.520000	-8.585549	-11.886502	-13.761466	-17.878701	-16.473828	-11.993768	-4.634623	-5.695583	-4.272800	3.418240	-2.182180	0.892820	0.437743	0.084289	-1.000000	-1.000000	-1.000000	-1.000000	-1.000000	-1.000000	-1.000000	66.413793	0.000000	-1.000000	-1.000000	2517140.000000	1772662923.835817
-15820.965000	-40470.975000	-4183.830000	3053.745000	-16110.810000	-11913.075000	11412.270000	2806.155000	-7.565924	-7.235545	-8.293827	-11.998965	-11.338701	-9.282015	-7.343249	-11.918897	-2.105880	3.052000	-1.831200	0.891294	0.438414	0.085937	-1.000000	-1.000000	-1.000000	-1.000000	-1.000000	-1.000000	-1.000000	66.413793	0.000000	-1.000000	-1.000000	2517141.000000	1772662923.839996
-15820.965000	-40470.975000	-4183.830000	3053.745000	-16110.810000	-11913.075000	11412.270000	2806.155000	-7.565924	-7.235545	-8.293827	-11.998965	-11.338701	-9.282015	-7.343249	-11.918897	-2.105880	3.052000	-1.831200	0.891294	0.438414	0.085937	-1.000000	-1.000000	-1.000000	-1.000000	-1.000000	-1.000000	-1.000000	66.413793	0.000000	-1.000000	-1.000000	2517141.000000	1772662923.839996
-15820.965000	-40470.975000	-4183.830000	3053.745000	-16110.810000	-11913.075000	11412.270000	2806.155000	-7.565924	-7.235545	-8.293827	-11.998965	-11.338701	-9.282015	-7.343249	-11.918897	-2.105880	3.052000	-1.831200	0.891294	0.438414	0.085937	-1.000000	-1.000000	-1.000000	-1.000000	-1.000000	-1.000000	-1.000000	66.413793	0.000000	-1.000000	-1.000000	2517141.000000	1772662923.839996
-15813.900000	-40458.645000	-4169.700000	3068.145000	-16104.465000	-11904.120000	11416.005000	2802.735000	-0.511258	3.123415	3.176126	0.764804	0.969117	0.179397	-4.185853	-8.638460	-2.105880	3.052000	-1.831200	0.891294	0.438414	0.085937	-1.000000	-1.000000	-1.000000	-1.000000	-1.000000	-1.000000	-1.000000	66.413793	0.000000	-1.000000	-1.000000	2517142.000000	1772662923.840006
-15813.900000	-40458.645000	-4169.700000	3068.145000	-16104.465000	-11904.120000	11416.005000	2802.735000	-0.511258	3.123415	3.176126	0.764804	0.969117	0.179397	-4.185853	-8.638460	-2.105880	3.052000	-1.831200	0.891294	0.438414	0.085937	-1.000000	-1.000000	-1.000000	-1.000000	-1.000000	-1.000000	-1.000000	66.413793	0.000000	-1.000000	-1.000000	2517142.000000	1772662923.840006
-15813.900000	-40458.645000	-4169.700000	3068.145000	-16104.465000	-11904.120000	11416.005000	2802.735000	-0.511258	3.123415	3.176126	0.764804	0.969117	0.179397	-4.185853	-8.638460	-2.105880	3.052000	-1.831200	0.891294	0.438414	0.085937	-1.000000	-1.000000	-1.000000	-1.000000	-1.000000	-1.000000	-1.000000	66.413793	0.000000	-1.000000	-1.000000	2517142.000000	1772662923.840006
-15810.030000	-40451.850000	-4162.005000	3077.820000	-16088.445000	-11894.220000	11422.035000	2800.665000	9.387871	15.077294	15.998088	15.243073	14.047380	11.249971	2.824944	-0.584528	-2.105880	3.052000	-1.831200	0.891294	0.438414	0.085937	-1.000000	-1.000000	-1.000000	-1.000000	-1.000000	-1.000000	-1.000000	66.413793	0.000000	-1.000000	-1.000000	2517143.000000	1772662923.843817
-15810.030000	-40451.850000	-4162.005000	3077.820000	-16088.445000	-11894.220000	11422.035000	2800.665000	9.387871	15.077294	15.998088	15.243073	14.047380	11.249971	2.824944	-0.584528	-2.105880	3.052000	-1.831200	0.891294	0.438414	0.085937	-1.000000	-1.000000	-1.000000	-1.000000	-1.000000	-1.000000	-1.000000	66.413793	0.000000	-1.000000	-1.000000	2517143.000000	1772662923.843817
-15810.030000	-40451.850000	-4162.005000	3077.820000	-16088.445000	-11894.220000	11422.035000	2800.665000	9.387871	15.077294	15.998088	15.243073	14.047380	11.249971	2.824944	-0.584528	-2.105880	3.052000	-1.831200	0.891294	0.438414	0.085937	-1.000000	-1.000000	-1.000000	-1.000000	-1.000000	-1.000000	-1.000000	66.413793	0.000000	-1.000000	-1.000000	2517143.000000	1772662923.843817
-15809.040000	-40450.680000	-4161.060000	3073.635000	-16093.890000	-11893.545000	11421.720000	2796.705000	16.687531	22.939698	24.183470	24.846487	21.575025	17.842644	9.274271	5.361881	-2.105880	3.052000	-1.831200	0.891294	0.438414	0.085937	-1.000000	-1.000000	-1.000000	-1.000000	-1.000000	-1.000000	-1.000000	66.413793	0.000000	-1.000000	-1.000000	2517144.000000	1772662923.843826
-15809.040000	-40450.680000	-4161.060000	3073.635000	-16093.890000	-11893.545000	11421.720000	2796.705000	16.687531	22.939698	24.183470	24.846487	21.575025	17.842644	9.274271	5.361881	-2.105880	3.052000	-1.831200	0.891294	0.438414	0.085937	-1.000000	-1.000000	-1.000000	-1.000000	-1.000000	-1.000000	-1.000000	66.413793	0.000000	-1.000000	-1.000000	2517144.000000	1772662923.843826
-15809.040000	-40450.680000	-4161.060000	3073.635000	-16093.890000	-11893.545000	11421.720000	2796.705000	16.687531	22.939698	24.183470	24.846487	21.575025	17.842644	9.274271	5.361881	-2.105880	3.052000	-1.831200	0.891294	0.438414	0.085937	-1.000000	-1.000000	-1.000000	-1.000000	-1.000000	-1.000000	-1.000000	66.413793	0.000000	-1.000000	-1.000000	2517144.000000	1772662923.843826
-15799.770000	-40437.180000	-4146.705000	3090.780000	-16089.345000	-11884.230000	11428.380000	2795.985000	17.467556	22.760286	23.778932	25.174715	20.398433	16.829201	11.401439	6.407076	-2.105880	3.052000	-1.831200	0.891294	0.438414	0.085937	-1.000000	-1.000000	-1.000000	-1.000000	-1.000000	-1.000000	-1.000000	66.413793	0.000000	-1.000000	-1.000000	2517145.000000	1772662923.847793
-15799.770000	-40437.180000	-4146.705000	3090.780000	-16089.345000	-11884.230000	11428.380000	2795.985000	17.467556	22.760286	23.778932	25.174715	20.398433	16.829201	11.401439	6.407076	-2.105880	3.052000	-1.831200	0.891294	0.438414	0.085937	-1.000000	-1.000000	-1.000000	-1.000000	-1.000000	-1.000000	-1.000000	66.413793	0.000000	-1.000000	-1.000000	2517145.000000	1772662923.847793
-15799.770000	-40437.180000	-4146.705000	3090.780000	-16089.345000	-11884.230000	11428.380000	2795.985000	17.467556	22.760286	23.778932	25.174715	20.398433	16.829201	11.401439	6.407076	-2.105880	3.052000	-1.831200	0.891294	0.438414	0.085937	-1.000000	-1.000000	-1.000000	-1.000000	-1.000000	-1.000000	-1.000000	66.413793	0.000000	-1.000000	-1.000000	2517145.000000	1772662923.847793
-15787.890000	-40425.165000	-4136.130000	3100.275000	-16081.515000	-11875.635000	11443.860000	2800.530000	12.254768	15.237159	15.735495	17.458183	12.430632	10.160917	8.936744	4.725071	-2.105880	3.052000	-1.831200	0.891294	0.438414	0.085937	-1.000000	-1.000000	-1.000000	-1.000000	-1.000000	-1.000000	-1.000000	66.413793	0.000000	-1.000000	-1.000000	2517146.000000	1772662923.847802
-15787.890000	-40425.165000	-4136.130000	3100.275000	-16081.515000	-11875.635000	11443.860000	2800.530000	12.254768	15.237159	15.735495	17.458183	12.430632	10.160917	8.936744	4.725071	-2.105880	3.052000	-1.831200	0.891294	0.438414	0.085937	-1.000000	-1.000000	-1.000000	-1.000000	-1.000000	-1.000000	-1.000000	66.413793	0.000000	-1.000000	-1.000000	2517146.000000	1772662923.847802
-15787.890000	-40425.165000	-4136.130000	3100.275000	-16081.515000	-11875.635000	11443.860000	2800.530000	12.254768	15.237159	15.735495	17.458183	12.430632	10.160917	8.936744	4.725071	-2.105880	3.052000	-1.831200	0.891294	0.438414	0.085937	-1.000000	-1.000000	-1.000000	-1.000000	-1.000000	-1.000000	-1.000000	66.413793	0.000000	-1.000000	-1.000000	2517146.000000	1772662923.847802
-15768.045000	-40399.290000	-4108.005000	3129.885000	-16029.720000	-11852.910000	11464.560000	2826.585000	5.028861	4.970896	4.948490	6.998376	3.429467	2.655919	4.647412	3.831084	-2.105880	3.052000	-1.831200	0.891294	0.438414	0.085937	-1.000000	-1.000000	-1.000000	-1.000000	-1.000000	-1.000000	-1.000000	66.413793	0.000000	-1.000000	-1.000000	2517147.000000	1772662923.851812
-15768.045000	-40399.290000	-4108.005000	3129.885000	-16029.720000	-11852.910000	11464.560000	2826.585000	5.028861	4.970896	4.948490	6.998376	3.429467	2.655919	4.647412	3.831084	-2.105880	3.052000	-1.831200	0.891294	0.438414	0.085937	-1.000000	-1.000000	-1.000000	-1.000000	-1.000000	-1.000000	-1.000000	66.413793	0.000000	-1.000000	-1.000000	2517147.000000	1772662923.851812
-15768.045000	-40399.290000	-4108.005000	3129.885000	-16029.720000	-11852.910000	11464.560000	2826.585000	5.028861	4.970896	4.948490	6.998376	3.429467	2.655919	4.647412	3.831084	-2.105880	3.052000	-1.831200	0.891294	0.438414	0.085937	-1.000000	-1.000000	-1.000000	-1.000000	-1.000000	-1.000000	-1.000000	66.413793	0.000000	-1.000000	-1.000000	2517147.000000	1772662923.851812
