Channel1	Channel2	Channel3	Channel4	Channel5	Channel6	Channel7	Channel8	FilteredChannel1	FilteredChannel2	FilteredChannel3	FilteredChannel4	FilteredChannel5	FilteredChannel6	FilteredChannel7	FilteredChannel8	GyroX	GyroY	GyroZ	AccX	AccY	AccZ	PPG1	PPG2	rawPPG1	rawPPG2	rawPPG3	Hr	Hrv	Battery	Trigger	PhysicalTrigger	AutoTrigger	NumMeasurements	Timestamp
12556.755000	20286.810000	26545.995000	21616.200000	-7900.920000	-4454.820000	2708.910000	13105.350000	6.496399	-1.193416	-2.303641	-4.613644	-9.733578	-6.861339	8.068268	13.114279	-2.777320	4.181240	-3.738700	0.940732	-0.125915	0.302367	-1.000000	-1.000000	-1.000000	-1.000000	-1.000000	-1.000000	-1.000000	80.965517	0.000000	-1.000000	-1.000000	1198957.000000	1770063894.116718
12575.475000	20301.705000	26561.160000	21631.770000	-7893.270000	-4454.235000	2700.360000	13106.655000	3.402882	6.109023	3.914245	-0.081184	-5.454400	-2.943474	7.152648	3.283223	-2.777320	4.181240	-3.738700	0.940732	-0.125915	0.302367	-1.000000	-1.000000	-1.000000	-1.000000	-1.000000	-1.000000	-1.000000	80.965517	0.000000	-1.000000	-1.000000	1198958.000000	1770063894.116728
12565.305000	20292.210000	26557.155000	21632.040000	-7891.335000	-4453.290000	2701.170000	13106.970000	-0.026677	9.643807	7.311203	3.366701	-0.493057	0.854964	4.166160	-3.837403	-2.777320	4.181240	-3.738700	0.940732	-0.125915	0.302367	-1.000000	-1.000000	-1.000000	-1.000000	-1.000000	-1.000000	-1.000000	80.965517	0.000000	-1.000000	-1.000000	1198959.000000	1770063894.118321
12543.210000	20271.420000	26537.670000	21611.385000	-7916.940000	-4473.990000	2695.095000	13092.705000	-2.032865	9.265725	8.053594	5.729075	3.899446	3.489204	0.250751	-5.291032	-2.777320	4.181240	-3.738700	0.940732	-0.125915	0.302367	-1.000000	-1.000000	-1.000000	-1.000000	-1.000000	-1.000000	-1.000000	80.965517	0.000000	-1.000000	-1.000000	1198960.000000	1770063894.118329
12551.985000	20288.070000	26547.570000	21611.745000	-7931.115000	-4487.535000	2692.800000	13082.355000	-3.750643	5.924254	6.391900	6.035435	5.646951	3.896126	-3.431707	-5.790576	-5.020540	3.723440	-4.852680	0.940793	-0.123535	0.302367	-1.000000	-1.000000	-1.000000	-1.000000	-1.000000	-1.000000	-1.000000	80.965517	0.000000	-1.000000	-1.000000	1198961.000000	1770063894.125046
12557.970000	20291.670000	26551.890000	21621.825000	-7911.720000	-4467.150000	2701.485000	13075.560000	-5.114226	1.920899	3.485266	4.471625	4.924766	3.068263	-5.427077	-8.993166	-5.020540	3.723440	-4.852680	0.940793	-0.123535	0.302367	-1.000000	-1.000000	-1.000000	-1.000000	-1.000000	-1.000000	-1.000000	80.965517	0.000000	-1.000000	-1.000000	1198962.000000	1770063894.125053
12569.445000	20295.180000	26559.135000	21634.425000	-7896.330000	-4456.800000	2708.460000	13098.780000	-4.018413	-0.609368	1.035813	2.834628	4.443977	3.314522	-4.571244	-11.362356	-5.020540	3.723440	-4.852680	0.940793	-0.123535	0.302367	-1.000000	-1.000000	-1.000000	-1.000000	-1.000000	-1.000000	-1.000000	80.965517	0.000000	-1.000000	-1.000000	1198963.000000	1770063894.129407
12560.760000	20293.830000	26556.255000	21630.240000	-7896.915000	-4455.945000	2705.085000	13078.125000	0.291866	-1.557318	-0.425692	2.040523	5.448148	4.804386	-1.290340	-7.374843	-5.020540	3.723440	-4.852680	0.940793	-0.123535	0.302367	-1.000000	-1.000000	-1.000000	-1.000000	-1.000000	-1.000000	-1.000000	80.965517	0.000000	-1.000000	-1.000000	1198964.000000	1770063894.129418
12554.730000	20292.930000	26554.455000	21628.485000	-7896.015000	-4455.990000	2702.385000	13068.045000	5.589427	-2.151829	-1.710009	0.986016	5.822770	5.099078	2.161645	2.071131	-5.020540	3.723440	-4.852680	0.940793	-0.123535	0.302367	-1.000000	-1.000000	-1.000000	-1.000000	-1.000000	-1.000000	-1.000000	80.965517	0.000000	-1.000000	-1.000000	1198965.000000	1770063894.131750
12554.460000	20284.875000	26545.545000	21618.045000	-7905.645000	-4465.170000	2692.665000	13083.345000	8.540313	-3.484526	-3.757718	-1.721104	3.142844	2.291639	3.305358	10.766793	-5.020540	3.723440	-4.852680	0.940793	-0.123535	0.302367	-1.000000	-1.000000	-1.000000	-1.000000	-1.000000	-1.000000	-1.000000	80.965517	0.000000	-1.000000	-1.000000	1198966.000000	1770063894.131760
12565.395000	20289.555000	26550.945000	21619.755000	-7909.965000	-4471.650000	2688.885000	13099.230000	7.546308	-5.460852	-6.293334	-5.702779	-2.294669	-2.817972	1.601514	14.951388	-5.020540	3.723440	-4.852680	0.940793	-0.123535	0.302367	-1.000000	-1.000000	-1.000000	-1.000000	-1.000000	-1.000000	-1.000000	80.965517	0.000000	-1.000000	-1.000000	1198967.000000	1770063894.134336
12568.185000	20301.570000	26560.395000	21626.370000	-7910.280000	-4473.000000	2693.835000	13105.485000	3.829200	-6.050137	-7.184708	-8.434578	-7.677051	-7.418740	-1.220971	14.758062	-5.020540	3.723440	-4.852680	0.940793	-0.123535	0.302367	-1.000000	-1.000000	-1.000000	-1.000000	-1.000000	-1.000000	-1.000000	80.965517	0.000000	-1.000000	-1.000000	1198968.000000	1770063894.134344
12557.430000	20304.720000	26567.010000	21634.380000	-7896.960000	-4457.520000	2706.300000	13116.645000	-0.256407	-3.004184	-4.155244	-6.959883	-9.270593	-8.268445	-2.690238	10.766206	-5.020540	3.723440	-4.852680	0.940793	-0.123535	0.302367	-1.000000	-1.000000	-1.000000	-1.000000	-1.000000	-1.000000	-1.000000	80.965517	0.000000	-1.000000	-1.000000	1198969.000000	1770063894.139825
12538.800000	20286.540000	26550.945000	21621.330000	-7902.225000	-4460.220000	2704.410000	13103.055000	-3.852671	2.381349	1.774919	-1.225953	-5.224870	-3.880207	-1.519379	3.639331	-5.020540	3.723440	-4.852680	0.940793	-0.123535	0.302367	-1.000000	-1.000000	-1.000000	-1.000000	-1.000000	-1.000000	-1.000000	80.965517	0.000000	-1.000000	-1.000000	1198970.000000	1770063894.139836
12556.620000	20289.870000	26547.840000	21613.995000	-7913.790000	-4474.665000	2694.690000	13090.410000	-7.005970	5.802971	6.274765	4.737892	1.495953	2.796033	0.958014	-4.965728	-5.707240	3.189340	-4.013380	0.942380	-0.123352	0.303466	-1.000000	-1.000000	-1.000000	-1.000000	-1.000000	-1.000000	-1.000000	80.965517	0.000000	-1.000000	-1.000000	1198971.000000	1770063894.142255
12564.945000	20291.940000	26549.595000	21614.490000	-7913.700000	-4473.540000	2688.345000	13062.600000	-8.217033	5.028215	6.264726	6.653969	5.378979	6.289556	2.023392	-12.807753	-5.707240	3.189340	-4.013380	0.942380	-0.123352	0.303466	-1.000000	-1.000000	-1.000000	-1.000000	-1.000000	-1.000000	-1.000000	80.965517	0.000000	-1.000000	-1.000000	1198972.000000	1770063894.142267
12572.415000	20289.375000	26550.765000	21620.745000	-7903.890000	-4463.190000	2689.335000	13070.340000	-5.511622	1.608464	2.701919	4.216200	4.245018	4.541289	0.738986	-17.094920	-5.707240	3.189340	-4.013380	0.942380	-0.123352	0.303466	-1.000000	-1.000000	-1.000000	-1.000000	-1.000000	-1.000000	-1.000000	80.965517	0.000000	-1.000000	-1.000000	1198973.000000	1770063894.147844
12571.245000	20298.060000	26559.630000	21629.565000	-7893.270000	-4451.220000	2699.055000	13082.895000	0.527626	-1.658321	-1.177216	0.567311	0.724920	0.457218	-1.197500	-15.042697	-5.707240	3.189340	-4.013380	0.942380	-0.123352	0.303466	-1.000000	-1.000000	-1.000000	-1.000000	-1.000000	-1.000000	-1.000000	80.965517	0.000000	-1.000000	-1.000000	1198974.000000	1770063894.147854
12587.670000	20314.890000	26578.080000	21648.960000	-7873.650000	-4436.280000	2705.220000	13115.430000	6.588996	-2.637056	-2.571262	-0.999556	-1.161082	-1.773538	-1.413805	-6.295224	-5.707240	3.189340	-4.013380	0.942380	-0.123352	0.303466	-1.000000	-1.000000	-1.000000	-1.000000	-1.000000	-1.000000	-1.000000	80.965517	0.000000	-1.000000	-1.000000	1198975.000000	1770063894.159407
12591.720000	20317.500000	26577.135000	21641.580000	-7887.330000	-4448.295000	2699.910000	13118.490000	9.307923	-0.843180	-0.888459	0.296800	0.124359	-0.607986	0.611903	5.554064	-5.707240	3.189340	-4.013380	0.942380	-0.123352	0.303466	-1.000000	-1.000000	-1.000000	-1.000000	-1.000000	-1.000000	-1.000000	80.965517	0.000000	-1.000000	-1.000000	1198976.000000	1770063894.159418
12590.820000	20320.335000	26577.855000	21637.350000	-7893.450000	-4448.790000	2708.055000	13117.095000	7.559054	2.047520	1.854369	2.233263	2.381795	1.803744	2.913934	14.334813	-5.707240	3.189340	-4.013380	0.942380	-0.123352	0.303466	-1.000000	-1.000000	-1.000000	-1.000000	-1.000000	-1.000000	-1.000000	80.965517	0.000000	-1.000000	-1.000000	1198977.000000	1770063894.159429
12573.810000	20294.775000	26557.605000	21630.690000	-7888.815000	-4450.140000	2713.995000	13117.500000	2.526109	3.315011	2.793138	2.132931	2.673388	2.475065	3.399701	15.319805	-5.707240	3.189340	-4.013380	0.942380	-0.123352	0.303466	-1.000000	-1.000000	-1.000000	-1.000000	-1.000000	-1.000000	-1.000000	80.965517	0.000000	-1.000000	-1.000000	1198978.000000	1770063894.159434
12556.935000	20290.050000	26553.150000	21626.055000	-7893.630000	-4456.890000	2711.790000	13109.400000	-3.719303	1.382507	0.723209	-0.332624	0.621773	0.606788	1.867291	8.915959	-5.707240	3.189340	-4.013380	0.942380	-0.123352	0.303466	-1.000000	-1.000000	-1.000000	-1.000000	-1.000000	-1.000000	-1.000000	80.965517	0.000000	-1.000000	-1.000000	1198979.000000	1770063894.171079
12561.300000	20291.355000	26553.465000	21621.195000	-7902.270000	-4468.635000	2709.720000	13101.570000	-9.192752	-2.634128	-2.906208	-3.417620	-2.247107	-2.577004	-0.530374	-0.223523	-5.707240	3.189340	-4.013380	0.942380	-0.123352	0.303466	-1.000000	-1.000000	-1.000000	-1.000000	-1.000000	-1.000000	-1.000000	80.965517	0.000000	-1.000000	-1.000000	1198980.000000	1770063894.171089
12580.110000	20295.045000	26553.105000	21616.200000	-7912.035000	-4475.340000	2700.090000	13089.690000	-11.534409	-5.762623	-5.431395	-5.349780	-4.652268	-5.457295	-2.589416	-7.109335	-1.495480	3.921820	-2.563680	0.945249	-0.127319	0.303649	-1.000000	-1.000000	-1.000000	-1.000000	-1.000000	-1.000000	-1.000000	80.965517	0.000000	-1.000000	-1.000000	1198981.000000	1770063894.171101
12568.995000	20282.670000	26546.040000	21615.255000	-7908.210000	-4464.630000	2703.645000	13095.090000	-8.836365	-5.911738	-5.363395	-5.448011	-5.999341	-6.764117	-3.760811	-9.351193	-1.495480	3.921820	-2.563680	0.945249	-0.127319	0.303649	-1.000000	-1.000000	-1.000000	-1.000000	-1.000000	-1.000000	-1.000000	80.965517	0.000000	-1.000000	-1.000000	1198982.000000	1770063894.171106
12559.095000	20287.260000	26552.610000	21623.310000	-7900.740000	-4460.805000	2703.780000	13106.655000	-2.422171	-3.507607	-3.190594	-3.866446	-5.679763	-5.582392	-3.927725	-7.628244	-1.495480	3.921820	-2.563680	0.945249	-0.127319	0.303649	-1.000000	-1.000000	-1.000000	-1.000000	-1.000000	-1.000000	-1.000000	80.965517	0.000000	-1.000000	-1.000000	1198983.000000	1770063894.171112
12566.925000	20296.710000	26559.810000	21628.845000	-7899.390000	-4465.080000	2694.960000	13103.460000	3.670130	-0.262890	-0.240188	-1.088168	-3.215776	-1.994980	-3.118250	-4.279655	-1.495480	3.921820	-2.563680	0.945249	-0.127319	0.303649	-1.000000	-1.000000	-1.000000	-1.000000	-1.000000	-1.000000	-1.000000	80.965517	0.000000	-1.000000	-1.000000	1198984.000000	1770063894.171117
12567.420000	20287.395000	26550.405000	21617.415000	-7911.990000	-4472.730000	2685.645000	13100.535000	6.700035	2.530609	2.396711	2.087343	0.849970	2.511536	-1.811919	-1.478054	-1.495480	3.921820	-2.563680	0.945249	-0.127319	0.303649	-1.000000	-1.000000	-1.000000	-1.000000	-1.000000	-1.000000	-1.000000	80.965517	0.000000	-1.000000	-1.000000	1198985.000000	1770063894.171123
12564.135000	20275.695000	26540.055000	21610.440000	-7911.180000	-4463.595000	2694.825000	13100.670000	6.849935	4.031668	3.873059	4.443666	4.844799	6.077949	-0.645850	0.108057	-1.495480	3.921820	-2.563680	0.945249	-0.127319	0.303649	-1.000000	-1.000000	-1.000000	-1.000000	-1.000000	-1.000000	-1.000000	80.965517	0.000000	-1.000000	-1.000000	1198986.000000	1770063894.171128
12574.575000	20297.700000	26561.610000	21632.580000	-7890.840000	-4449.150000	2703.780000	13096.305000	5.896096	4.437468	4.279413	5.376367	7.261190	7.836334	0.526756	1.179226	-1.495480	3.921820	-2.563680	0.945249	-0.127319	0.303649	-1.000000	-1.000000	-1.000000	-1.000000	-1.000000	-1.000000	-1.000000	80.965517	0.000000	-1.000000	-1.000000	1198987.000000	1770063894.174546
12574.485000	20313.585000	26575.065000	21643.380000	-7884.270000	-4441.590000	2712.780000	13090.500000	5.303829	5.224431	4.946594	5.739043	7.990346	8.100342	2.430502	2.514005	-1.495480	3.921820	-2.563680	0.945249	-0.127319	0.303649	-1.000000	-1.000000	-1.000000	-1.000000	-1.000000	-1.000000	-1.000000	80.965517	0.000000	-1.000000	-1.000000	1198988.000000	1770063894.174566
12561.795000	20296.530000	26557.425000	21625.605000	-7901.505000	-4456.890000	2700.315000	13081.590000	4.365341	6.344370	5.886045	5.855663	7.203188	6.998153	4.848864	4.132880	-1.495480	3.921820	-2.563680	0.945249	-0.127319	0.303649	-1.000000	-1.000000	-1.000000	-1.000000	-1.000000	-1.000000	-1.000000	80.965517	0.000000	-1.000000	-1.000000	1198989.000000	1770063894.189889
12557.610000	20275.740000	26536.860000	21607.110000	-7916.535000	-4475.430000	2682.000000	13072.995000	1.146314	5.103170	4.621958	3.999449	4.022109	3.477941	5.895497	5.224217	-1.495480	3.921820	-2.563680	0.945249	-0.127319	0.303649	-1.000000	-1.000000	-1.000000	-1.000000	-1.000000	-1.000000	-1.000000	80.965517	0.000000	-1.000000	-1.000000	1198990.000000	1770063894.189908
12551.760000	20265.705000	26530.470000	21601.485000	-7921.530000	-4481.460000	2679.345000	13067.280000	-3.965679	-0.146949	-0.414453	-1.084880	-1.911810	-3.056827	3.719479	4.459560	1.403920	3.967600	-2.243220	0.947935	-0.128235	0.305053	-1.000000	-1.000000	-1.000000	-1.000000	-1.000000	-1.000000	-1.000000	80.965517	0.000000	-1.000000	-1.000000	1198991.000000	1770063894.189920
12549.825000	20288.655000	26555.580000	21624.435000	-7900.875000	-4462.965000	2698.380000	13089.645000	-8.005597	-7.007542	-6.885493	-7.314458	-8.270726	-10.082212	-0.676100	1.474903	1.403920	3.967600	-2.243220	0.947935	-0.128235	0.305053	-1.000000	-1.000000	-1.000000	-1.000000	-1.000000	-1.000000	-1.000000	80.965517	0.000000	-1.000000	-1.000000	1198992.000000	1770063894.189925
12562.785000	20301.975000	26561.115000	21623.715000	-7902.630000	-4465.845000	2693.565000	13093.605000	-8.539863	-10.676200	-10.153071	-10.397813	-10.952538	-12.827830	-3.750207	-1.770685	1.403920	3.967600	-2.243220	0.947935	-0.128235	0.305053	-1.000000	-1.000000	-1.000000	-1.000000	-1.000000	-1.000000	-1.000000	80.965517	0.000000	-1.000000	-1.000000	1198993.000000	1770063894.189931
12522.915000	20261.025000	26525.070000	21594.600000	-7925.265000	-4485.870000	2673.090000	13069.260000	-5.726839	-8.720356	-8.066447	-8.227998	-8.111660	-9.265657	-3.736325	-3.228162	1.403920	3.967600	-2.243220	0.947935	-0.128235	0.305053	-1.000000	-1.000000	-1.000000	-1.000000	-1.000000	-1.000000	-1.000000	80.965517	0.000000	-1.000000	-1.000000	1198994.000000	1770063894.189936
12522.870000	20265.255000	26531.910000	21602.970000	-7922.250000	-4477.905000	2683.260000	13027.185000	-1.993630	-3.466567	-2.977630	-2.937825	-2.333462	-2.388974	-2.361882	-3.781188	1.403920	3.967600	-2.243220	0.947935	-0.128235	0.305053	-1.000000	-1.000000	-1.000000	-1.000000	-1.000000	-1.000000	-1.000000	80.965517	0.000000	-1.000000	-1.000000	1198995.000000	1770063894.190741
12545.415000	20294.595000	26559.585000	21626.370000	-7906.455000	-4463.010000	2695.320000	13020.930000	1.012890	1.625703	1.923127	2.266648	2.553948	3.691480	-1.338507	-5.221058	1.403920	3.967600	-2.243220	0.947935	-0.128235	0.305053	-1.000000	-1.000000	-1.000000	-1.000000	-1.000000	-1.000000	-1.000000	80.965517	0.000000	-1.000000	-1.000000	1198996.000000	1770063894.190750
12575.160000	20303.370000	26565.480000	21629.700000	-7903.980000	-4463.640000	2694.465000	13092.345000	4.275461	5.400713	5.574069	6.021627	5.195430	7.299898	-0.376552	-5.433799	1.403920	3.967600	-2.243220	0.947935	-0.128235	0.305053	-1.000000	-1.000000	-1.000000	-1.000000	-1.000000	-1.000000	-1.000000	80.965517	0.000000	-1.000000	-1.000000	1198997.000000	1770063894.194349
12590.055000	20283.480000	26543.880000	21612.735000	-7912.440000	-4466.295000	2698.200000	13160.025000	8.743480	7.643274	7.619764	7.925640	6.206468	8.524132	1.249366	0.914851	1.403920	3.967600	-2.243220	0.947935	-0.128235	0.305053	-1.000000	-1.000000	-1.000000	-1.000000	-1.000000	-1.000000	-1.000000	80.965517	0.000000	-1.000000	-1.000000	1198998.000000	1770063894.194359
12579.255000	20292.885000	26556.435000	21624.615000	-7904.565000	-4463.730000	2699.370000	13153.365000	12.459297	7.786528	7.429414	7.582792	6.131952	7.769915	3.470909	13.955258	1.403920	3.967600	-2.243220	0.947935	-0.128235	0.305053	-1.000000	-1.000000	-1.000000	-1.000000	-1.000000	-1.000000	-1.000000	80.965517	0.000000	-1.000000	-1.000000	1198999.000000	1770063894.205357
12545.595000	20305.935000	26573.895000	21642.435000	-7888.365000	-4452.615000	2704.410000	13112.280000	11.393950	5.871397	5.235461	5.315620	5.059491	5.402626	5.080858	23.676753	1.403920	3.967600	-2.243220	0.947935	-0.128235	0.305053	-1.000000	-1.000000	-1.000000	-1.000000	-1.000000	-1.000000	-1.000000	80.965517	0.000000	-1.000000	-1.000000	1199000.000000	1770063894.205369
12549.285000	20306.340000	26570.475000	21637.710000	-7888.680000	-4457.880000	2696.130000	13084.380000	3.464016	2.353124	1.768536	1.844803	2.894589	1.744171	4.320680	18.507380	-1.754900	4.028640	-1.770160	0.947813	-0.120605	0.303893	-1.000000	-1.000000	-1.000000	-1.000000	-1.000000	-1.000000	-1.000000	80.965517	0.000000	-1.000000	-1.000000	1199001.000000	1770063894.205382
12563.370000	20304.315000	26565.975000	21633.435000	-7888.815000	-4462.380000	2690.235000	13081.320000	-7.699802	-2.163920	-2.371646	-2.170890	-0.121101	-2.473721	0.817490	-1.560514	-1.754900	4.028640	-1.770160	0.947813	-0.120605	0.303893	-1.000000	-1.000000	-1.000000	-1.000000	-1.000000	-1.000000	-1.000000	80.965517	0.000000	-1.000000	-1.000000	1199002.000000	1770063894.205387
12583.305000	20295.855000	26557.155000	21623.220000	-7899.975000	-4462.020000	2695.590000	13107.375000	-14.305542	-5.780365	-5.667145	-5.397716	-2.957625	-5.727213	-3.435561	-23.044304	-1.754900	4.028640	-1.770160	0.947813	-0.120605	0.303893	-1.000000	-1.000000	-1.000000	-1.000000	-1.000000	-1.000000	-1.000000	80.965517	0.000000	-1.000000	-1.000000	1199003.000000	1770063894.220342
12577.995000	20282.400000	26545.230000	21614.940000	-7907.175000	-4462.155000	2691.225000	13100.760000	-11.857539	-7.026447	-6.964982	-6.978511	-5.049726	-6.888515	-6.052244	-30.661551	-1.754900	4.028640	-1.770160	0.947813	-0.120605	0.303893	-1.000000	-1.000000	-1.000000	-1.000000	-1.000000	-1.000000	-1.000000	80.965517	0.000000	-1.000000	-1.000000	1199004.000000	1770063894.220355
12559.635000	20270.295000	26533.305000	21605.220000	-7911.990000	-4465.530000	2685.780000	13085.280000	-4.235123	-7.246297	-7.381043	-7.726384	-6.817587	-6.319307	-6.491401	-21.135777	-1.754900	4.028640	-1.770160	0.947813	-0.120605	0.303893	-1.000000	-1.000000	-1.000000	-1.000000	-1.000000	-1.000000	-1.000000	80.965517	0.000000	-1.000000	-1.000000	1199005.000000	1770063894.220367
12563.505000	20280.600000	26542.035000	21609.405000	-7918.245000	-4476.285000	2692.395000	13091.085000	0.993049	-7.524099	-7.548126	-7.785974	-7.858542	-4.848596	-5.200141	-4.806558	-1.754900	4.028640	-1.770160	0.947813	-0.120605	0.303893	-1.000000	-1.000000	-1.000000	-1.000000	-1.000000	-1.000000	-1.000000	80.965517	0.000000	-1.000000	-1.000000	1199006.000000	1770063894.220372
12574.305000	20297.205000	26557.020000	21618.495000	-7925.850000	-4480.245000	2703.330000	13099.410000	1.045723	-5.584810	-5.208647	-5.257617	-6.721987	-2.764571	-2.107167	6.269226	-1.754900	4.028640	-1.770160	0.947813	-0.120605	0.303893	-1.000000	-1.000000	-1.000000	-1.000000	-1.000000	-1.000000	-1.000000	80.965517	0.000000	-1.000000	-1.000000	1199007.000000	1770063894.220379
12554.010000	20274.570000	26541.135000	21614.175000	-7915.410000	-4460.985000	2711.925000	13090.410000	-0.824890	0.105364	0.751513	0.465216	-2.985694	-0.018140	2.473927	8.937874	-1.754900	4.028640	-1.770160	0.947813	-0.120605	0.303893	-1.000000	-1.000000	-1.000000	-1.000000	-1.000000	-1.000000	-1.000000	80.965517	0.000000	-1.000000	-1.000000	1199008.000000	1770063894.220383
12559.995000	20294.460000	26560.755000	21631.275000	-7900.740000	-4457.970000	2706.435000	13082.985000	-0.723314	6.416836	7.004536	6.504742	2.065704	3.203792	6.593826	7.635747	-1.754900	4.028640	-1.770160	0.947813	-0.120605	0.303893	-1.000000	-1.000000	-1.000000	-1.000000	-1.000000	-1.000000	-1.000000	80.965517	0.000000	-1.000000	-1.000000	1199009.000000	1770063894.220389
12562.200000	20293.065000	26557.605000	21625.470000	-7908.840000	-4467.915000	2699.145000	13074.255000	2.000410	9.460634	9.839837	9.673384	6.543105	5.872450	7.798961	6.889054	-1.754900	4.028640	-1.770160	0.947813	-0.120605	0.303893	-1.000000	-1.000000	-1.000000	-1.000000	-1.000000	-1.000000	-1.000000	80.965517	0.000000	-1.000000	-1.000000	1199010.000000	1770063894.220394
12561.030000	20285.910000	26552.610000	21619.080000	-7915.815000	-4476.150000	2691.360000	13090.635000	5.105105	8.639083	8.866202	9.220992	8.792058	6.521178	5.316023	7.534169	-4.898460	4.150720	-0.976640	0.948423	-0.118347	0.303405	-1.000000	-1.000000	-1.000000	-1.000000	-1.000000	-1.000000	-1.000000	80.827586	0.000000	-1.000000	-1.000000	1199011.000000	1770063894.229953
12570.705000	20294.460000	26558.955000	21621.510000	-7913.520000	-4476.330000	2684.070000	13095.945000	6.120424	5.610688	5.709840	6.116593	8.100011	4.535608	0.371394	8.183472	-4.898460	4.150720	-0.976640	0.948423	-0.118347	0.303405	-1.000000	-1.000000	-1.000000	-1.000000	-1.000000	-1.000000	-1.000000	80.827586	0.000000	-1.000000	-1.000000	1199012.000000	1770063894.229964
12554.730000	20270.295000	26535.510000	21607.335000	-7912.170000	-4466.520000	2689.245000	13085.595000	4.406970	1.962133	1.782454	1.709952	5.131203	0.928810	-4.674934	7.409825	-4.898460	4.150720	-0.976640	0.948423	-0.118347	0.303405	-1.000000	-1.000000	-1.000000	-1.000000	-1.000000	-1.000000	-1.000000	80.827586	0.000000	-1.000000	-1.000000	1199013.000000	1770063894.229975
12557.160000	20267.730000	26531.190000	21601.260000	-7920.090000	-4476.420000	2680.290000	13086.360000	0.959719	-1.867560	-2.453810	-2.869061	1.250451	-2.216713	-7.293693	4.247629	-4.898460	4.150720	-0.976640	0.948423	-0.118347	0.303405	-1.000000	-1.000000	-1.000000	-1.000000	-1.000000	-1.000000	-1.000000	80.827586	0.000000	-1.000000	-1.000000	1199014.000000	1770063894.229980
12561.840000	20283.840000	26545.140000	21608.955000	-7918.425000	-4475.250000	2683.980000	13092.660000	-2.574354	-5.235860	-6.108334	-6.280472	-2.168363	-3.354797	-6.457642	-1.402018	-4.898460	4.150720	-0.976640	0.948423	-0.118347	0.303405	-1.000000	-1.000000	-1.000000	-1.000000	-1.000000	-1.000000	-1.000000	80.827586	0.000000	-1.000000	-1.000000	1199015.000000	1770063894.230379
12550.995000	20283.390000	26547.120000	21613.365000	-7910.055000	-4464.315000	2694.195000	13097.835000	-4.652598	-6.428812	-7.309454	-7.032999	-3.952830	-2.372952	-3.101913	-7.610085	-4.898460	4.150720	-0.976640	0.948423	-0.118347	0.303405	-1.000000	-1.000000	-1.000000	-1.000000	-1.000000	-1.000000	-1.000000	80.827586	0.000000	-1.000000	-1.000000	1199016.000000	1770063894.230390
12556.485000	20280.330000	26543.070000	21611.565000	-7908.030000	-4466.970000	2693.835000	13108.320000	-4.266626	-4.698789	-5.399379	-5.005643	-3.952713	-0.531481	1.063481	-10.642549	-4.898460	4.150720	-0.976640	0.948423	-0.118347	0.303405	-1.000000	-1.000000	-1.000000	-1.000000	-1.000000	-1.000000	-1.000000	80.827586	0.000000	-1.000000	-1.000000	1199017.000000	1770063894.235184
12564.675000	20283.570000	26545.230000	21613.005000	-7914.240000	-4470.975000	2691.360000	13115.430000	-1.412722	-1.564219	-2.030895	-1.859658	-3.341480	0.437160	4.407839	-7.882787	-4.898460	4.150720	-0.976640	0.948423	-0.118347	0.303405	-1.000000	-1.000000	-1.000000	-1.000000	-1.000000	-1.000000	-1.000000	80.827586	0.000000	-1.000000	-1.000000	1199018.000000	1770063894.235191
12556.440000	20274.300000	26539.110000	21612.645000	-7907.715000	-4458.465000	2702.160000	13122.720000	2.199079	0.879390	0.793885	0.859017	-2.843588	0.318840	6.108780	-0.713773	-4.898460	4.150720	-0.976640	0.948423	-0.118347	0.303405	-1.000000	-1.000000	-1.000000	-1.000000	-1.000000	-1.000000	-1.000000	80.827586	0.000000	-1.000000	-1.000000	1199019.000000	1770063894.247456
12545.595000	20277.540000	26536.860000	21605.580000	-7906.815000	-4459.365000	2699.370000	13109.310000	3.841901	1.915165	2.391611	2.759139	-1.737436	0.469078	6.274150	5.840768	-4.898460	4.150720	-0.976640	0.948423	-0.118347	0.303405	-1.000000	-1.000000	-1.000000	-1.000000	-1.000000	-1.000000	-1.000000	80.827586	0.000000	-1.000000	-1.000000	1199020.000000	1770063894.247468
12529.755000	20286.945000	26544.285000	21611.880000	-7883.820000	-4450.770000	2691.810000	13047.795000	1.963094	2.224349	3.067295	3.740064	0.633922	1.349363	4.844278	6.361580	0.076300	3.219860	-0.656180	0.944883	-0.121032	0.309997	-1.000000	-1.000000	-1.000000	-1.000000	-1.000000	-1.000000	-1.000000	80.827586	0.000000	-1.000000	-1.000000	1199021.000000	1770063894.247481
12542.670000	20294.730000	26561.295000	21636.720000	-7840.350000	-4432.590000	2688.345000	13029.885000	-1.944761	2.972555	3.798379	4.217501	4.268394	2.193174	1.567159	-0.703307	0.076300	3.219860	-0.656180	0.944883	-0.121032	0.309997	-1.000000	-1.000000	-1.000000	-1.000000	-1.000000	-1.000000	-1.000000	80.827586	0.000000	-1.000000	-1.000000	1199022.000000	1770063894.247486
12565.440000	20281.950000	26552.835000	21630.510000	-7841.655000	-4431.555000	2694.645000	13077.270000	-4.090225	4.100743	5.021680	4.901873	8.460857	2.660560	-2.578612	-10.117487	0.076300	3.219860	-0.656180	0.944883	-0.121032	0.309997	-1.000000	-1.000000	-1.000000	-1.000000	-1.000000	-1.000000	-1.000000	80.827586	0.000000	-1.000000	-1.000000	1199023.000000	1770063894.247492
12552.165000	20272.545000	26541.900000	21609.360000	-7919.955000	-4460.670000	2696.625000	13084.740000	-2.311190	3.440338	4.863722	4.525126	9.481057	2.107716	-5.589654	-13.225454	0.076300	3.219860	-0.656180	0.944883	-0.121032	0.309997	-1.000000	-1.000000	-1.000000	-1.000000	-1.000000	-1.000000	-1.000000	80.827586	0.000000	-1.000000	-1.000000	1199024.000000	1770063894.247497
12543.975000	20273.085000	26541.225000	21603.105000	-7970.040000	-4485.195000	2683.980000	13067.370000	1.615181	-0.278572	1.371659	0.823117	1.836016	-1.290809	-6.509711	-6.795147	0.076300	3.219860	-0.656180	0.944883	-0.121032	0.309997	-1.000000	-1.000000	-1.000000	-1.000000	-1.000000	-1.000000	-1.000000	80.827586	0.000000	-1.000000	-1.000000	1199025.000000	1770063894.266935
12555.900000	20292.525000	26559.630000	21624.300000	-7929.450000	-4471.020000	2683.215000	13057.335000	4.423048	-4.710412	-3.877839	-5.170462	-12.934520	-7.223400	-5.816004	3.908136	0.076300	3.219860	-0.656180	0.944883	-0.121032	0.309997	-1.000000	-1.000000	-1.000000	-1.000000	-1.000000	-1.000000	-1.000000	80.827586	0.000000	-1.000000	-1.000000	1199026.000000	1770063894.266973
12565.530000	20311.605000	26579.205000	21643.200000	-7897.680000	-4450.185000	2691.495000	13069.395000	4.634532	-5.999598	-6.783130	-8.823310	-23.127273	-10.957166	-3.805317	11.613496	0.076300	3.219860	-0.656180	0.944883	-0.121032	0.309997	-1.000000	-1.000000	-1.000000	-1.000000	-1.000000	-1.000000	-1.000000	80.827586	0.000000	-1.000000	-1.000000	1199027.000000	1770063894.266986
12543.435000	20291.355000	26558.325000	21617.055000	-7920.495000	-4483.530000	2641.905000	13057.155000	2.726888	-2.890672	-5.129688	-7.086837	-18.955396	-8.552023	-1.145386	13.041748	0.076300	3.219860	-0.656180	0.944883	-0.121032	0.309997	-1.000000	-1.000000	-1.000000	-1.000000	-1.000000	-1.000000	-1.000000	80.827586	0.000000	-1.000000	-1.000000	1199028.000000	1770063894.266991
12547.620000	20281.905000	26544.105000	21599.055000	-7934.040000	-4509.585000	2617.965000	13069.755000	-0.263156	1.531089	-1.225947	-2.234891	-3.699512	-2.366483	-0.061782	9.515726	0.076300	3.219860	-0.656180	0.944883	-0.121032	0.309997	-1.000000	-1.000000	-1.000000	-1.000000	-1.000000	-1.000000	-1.000000	80.827586	0.000000	-1.000000	-1.000000	1199029.000000	1770063894.275224
12547.440000	20282.760000	26543.970000	21608.505000	-7901.910000	-4476.780000	2654.955000	13062.555000	-2.863354	3.157834	0.909812	1.293286	11.475279	2.721895	-0.843135	5.265426	0.076300	3.219860	-0.656180	0.944883	-0.121032	0.309997	-1.000000	-1.000000	-1.000000	-1.000000	-1.000000	-1.000000	-1.000000	80.827586	0.000000	-1.000000	-1.000000	1199030.000000	1770063894.275232
12515.265000	20258.640000	26528.085000	21604.680000	-7896.600000	-4462.335000	2671.155000	13037.985000	-4.352936	1.045180	-0.109016	1.834145	18.720521	5.621373	0.171474	2.611901	1.342880	2.563680	0.366240	0.943296	-0.122680	0.315612	-1.000000	-1.000000	-1.000000	-1.000000	-1.000000	-1.000000	-1.000000	80.827586	0.000000	-1.000000	-1.000000	1199031.000000	1770063894.275240
12489.030000	20237.085000	26503.200000	21566.880000	-7967.520000	-4503.420000	2686.725000	13004.145000	-6.145280	-3.057374	-2.960112	0.346331	16.520508	7.381237	5.193383	-1.424995	1.342880	2.563680	0.366240	0.943296	-0.122680	0.315612	-1.000000	-1.000000	-1.000000	-1.000000	-1.000000	-1.000000	-1.000000	80.827586	0.000000	-1.000000	-1.000000	1199032.000000	1770063894.275245
12505.410000	20241.315000	26504.235000	21563.820000	-7971.975000	-4506.705000	2700.360000	13032.045000	-8.224873	-6.437171	-5.319806	-1.690954	7.953987	7.483749	11.436035	-8.843754	1.342880	2.563680	0.366240	0.943296	-0.122680	0.315612	-1.000000	-1.000000	-1.000000	-1.000000	-1.000000	-1.000000	-1.000000	80.827586	0.000000	-1.000000	-1.000000	1199033.000000	1770063894.275251
12551.535000	20249.370000	26513.010000	21576.825000	-7952.490000	-4508.595000	2676.735000	13081.635000	-6.562126	-6.353153	-4.823862	-2.417757	-0.634922	5.523635	14.107275	-13.934125	1.342880	2.563680	0.366240	0.943296	-0.122680	0.315612	-1.000000	-1.000000	-1.000000	-1.000000	-1.000000	-1.000000	-1.000000	80.827586	0.000000	-1.000000	-1.000000	1199034.000000	1770063894.275256
12555.585000	20251.395000	26514.360000	21576.015000	-7955.730000	-4511.025000	2668.095000	13106.835000	1.369478	-2.326612	-0.965432	-0.705421	-4.640923	2.355926	9.998510	-9.422955	1.342880	2.563680	0.366240	0.943296	-0.122680	0.315612	-1.000000	-1.000000	-1.000000	-1.000000	-1.000000	-1.000000	-1.000000	80.827586	0.000000	-1.000000	-1.000000	1199035.000000	1770063894.275261
12540.510000	20242.665000	26508.735000	21574.980000	-7956.315000	-4512.195000	2670.705000	13098.420000	11.346125	3.121256	4.092770	2.410976	-4.954156	-1.146605	0.204237	3.070131	1.342880	2.563680	0.366240	0.943296	-0.122680	0.315612	-1.000000	-1.000000	-1.000000	-1.000000	-1.000000	-1.000000	-1.000000	80.827586	0.000000	-1.000000	-1.000000	1199036.000000	1770063894.275266
12533.805000	20240.550000	26507.835000	21579.615000	-7940.790000	-4497.345000	2681.055000	13085.955000	16.250620	7.170641	7.891376	5.491139	-3.665686	-3.222491	-9.124549	13.863416	1.342880	2.563680	0.366240	0.943296	-0.122680	0.315612	-1.000000	-1.000000	-1.000000	-1.000000	-1.000000	-1.000000	-1.000000	80.827586	0.000000	-1.000000	-1.000000	1199037.000000	1770063894.275272
12547.305000	20263.320000	26528.670000	21596.715000	-7926.660000	-4484.655000	2687.535000	13088.745000	13.105865	8.932944	9.703191	8.099659	-0.971382	-1.812338	-11.857913	15.221259	1.342880	2.563680	0.366240	0.943296	-0.122680	0.315612	-1.000000	-1.000000	-1.000000	-1.000000	-1.000000	-1.000000	-1.000000	80.827586	0.000000	-1.000000	-1.000000	1199038.000000	1770063894.275276
12563.145000	20290.500000	26553.645000	21613.680000	-7919.730000	-4483.620000	2683.395000	13091.355000	4.920216	9.306349	10.058279	9.496861	1.888877	1.686743	-8.272950	7.663397	1.342880	2.563680	0.366240	0.943296	-0.122680	0.315612	-1.000000	-1.000000	-1.000000	-1.000000	-1.000000	-1.000000	-1.000000	80.827586	0.000000	-1.000000	-1.000000	1199039.000000	1770063894.278370
12569.670000	20299.545000	26563.950000	21619.755000	-7917.615000	-4481.460000	2684.520000	13094.730000	-2.618640	9.464645	9.531004	8.619658	2.867720	3.360625	-3.692283	-2.570275	1.342880	2.563680	0.366240	0.943296	-0.122680	0.315612	-1.000000	-1.000000	-1.000000	-1.000000	-1.000000	-1.000000	-1.000000	80.827586	0.000000	-1.000000	-1.000000	1199040.000000	1770063894.278380
12561.210000	20283.345000	26551.530000	21619.395000	-7903.620000	-4462.920000	2691.990000	13090.095000	-5.975156	8.739543	7.672174	5.584214	3.111404	2.418575	-1.887980	-9.635429	1.159760	1.831200	-0.442540	0.941160	-0.119690	0.317504	-1.000000	-1.000000	-1.000000	-1.000000	-1.000000	-1.000000	-1.000000	80.827586	0.000000	-1.000000	-1.000000	1199041.000000	1770063894.282341
12559.905000	20285.460000	26556.030000	21627.045000	-7892.955000	-4452.390000	2699.820000	13085.820000	-6.306360	4.664094	3.050288	1.220232	4.955500	1.434151	-2.165319	-11.984122	1.159760	1.831200	-0.442540	0.941160	-0.119690	0.317504	-1.000000	-1.000000	-1.000000	-1.000000	-1.000000	-1.000000	-1.000000	80.827586	0.000000	-1.000000	-1.000000	1199042.000000	1770063894.282352
12555.135000	20282.895000	26548.110000	21614.490000	-7905.195000	-4454.190000	2703.330000	13088.790000	-7.232352	-3.615277	-4.717891	-4.281819	6.389516	1.380075	-1.496129	-11.709048	1.159760	1.831200	-0.442540	0.941160	-0.119690	0.317504	-1.000000	-1.000000	-1.000000	-1.000000	-1.000000	-1.000000	-1.000000	80.827586	0.000000	-1.000000	-1.000000	1199043.000000	1770063894.288204
12567.915000	20293.650000	26560.440000	21628.170000	-7894.620000	-4452.840000	2698.380000	13103.775000	-9.672469	-12.950344	-13.135028	-10.303000	3.241825	0.513150	1.546724	-10.283081	1.159760	1.831200	-0.442540	0.941160	-0.119690	0.317504	-1.000000	-1.000000	-1.000000	-1.000000	-1.000000	-1.000000	-1.000000	80.827586	0.000000	-1.000000	-1.000000	1199044.000000	1770063894.288213
12576.645000	20292.120000	26560.620000	21628.755000	-7894.215000	-4456.980000	2698.245000	13113.855000	-10.083576	-18.015189	-17.655814	-14.157659	-4.241859	-2.350218	5.210833	-6.352227	1.159760	1.831200	-0.442540	0.941160	-0.119690	0.317504	-1.000000	-1.000000	-1.000000	-1.000000	-1.000000	-1.000000	-1.000000	80.827586	0.000000	-1.000000	-1.000000	1199045.000000	1770063894.291657
12552.345000	20273.130000	26539.290000	21604.095000	-7917.255000	-4477.005000	2685.060000	13083.345000	-5.704994	-16.064979	-15.669314	-13.523405	-11.901538	-6.464826	6.689354	0.769168	1.159760	1.831200	-0.442540	0.941160	-0.119690	0.317504	-1.000000	-1.000000	-1.000000	-1.000000	-1.000000	-1.000000	-1.000000	80.827586	0.000000	-1.000000	-1.000000	1199046.000000	1770063894.291663
12535.155000	20274.300000	26540.235000	21604.590000	-7918.830000	-4478.535000	2684.340000	13060.980000	0.653694	-9.543061	-9.358915	-9.607109	-16.574729	-10.435886	4.454810	7.642677	1.159760	1.831200	-0.442540	0.941160	-0.119690	0.317504	-1.000000	-1.000000	-1.000000	-1.000000	-1.000000	-1.000000	-1.000000	80.827586	0.000000	-1.000000	-1.000000	1199047.000000	1770063894.294406
12520.305000	20271.105000	26538.795000	21608.910000	-7909.380000	-4465.845000	2686.905000	13039.605000	4.050742	-2.773041	-2.802296	-4.945180	-16.566875	-12.195360	-0.496999	9.680778	1.159760	1.831200	-0.442540	0.941160	-0.119690	0.317504	-1.000000	-1.000000	-1.000000	-1.000000	-1.000000	-1.000000	-1.000000	80.827586	0.000000	-1.000000	-1.000000	1199048.000000	1770063894.294416
12528.765000	20274.345000	26541.135000	21612.240000	-7906.185000	-4464.540000	2685.780000	13069.755000	3.503439	2.382704	2.244943	-0.092552	-10.397484	-9.241050	-5.147509	6.664317	1.159760	1.831200	-0.442540	0.941160	-0.119690	0.317504	-1.000000	-1.000000	-1.000000	-1.000000	-1.000000	-1.000000	-1.000000	80.827586	0.000000	-1.000000	-1.000000	1199049.000000	1770063894.298375
12532.410000	20269.485000	26535.420000	21605.310000	-7913.970000	-4470.525000	2683.305000	13080.420000	2.222113	6.403896	6.199112	5.147075	0.808238	-1.756845	-7.081572	3.032123	1.159760	1.831200	-0.442540	0.941160	-0.119690	0.317504	-1.000000	-1.000000	-1.000000	-1.000000	-1.000000	-1.000000	-1.000000	80.827586	0.000000	-1.000000	-1.000000	1199050.000000	1770063894.298385
12548.385000	20264.265000	26534.610000	21605.130000	-7910.955000	-4465.485000	2694.960000	13111.380000	3.040371	9.309639	9.071769	9.410363	11.838589	6.444624	-5.658857	2.609238	-4.150720	-0.045780	-0.595140	0.939756	-0.119873	0.318175	-1.000000	-1.000000	-1.000000	-1.000000	-1.000000	-1.000000	-1.000000	80.827586	0.000000	-1.000000	-1.000000	1199051.000000	1770063894.302293
12593.430000	20282.445000	26550.810000	21620.520000	-7897.680000	-4453.380000	2708.910000	13144.905000	6.183667	10.108215	10.094846	10.994939	17.470512	11.631458	-1.212458	5.266000	-4.150720	-0.045780	-0.595140	0.939756	-0.119873	0.318175	-1.000000	-1.000000	-1.000000	-1.000000	-1.000000	-1.000000	-1.000000	80.827586	0.000000	-1.000000	-1.000000	1199052.000000	1770063894.302301
12599.685000	20291.535000	26558.640000	21627.405000	-7891.695000	-4447.620000	2711.565000	13134.735000	10.189432	8.742144	9.165591	9.821886	16.398667	12.748771	4.800824	7.913319	-4.150720	-0.045780	-0.595140	0.939756	-0.119873	0.318175	-1.000000	-1.000000	-1.000000	-1.000000	-1.000000	-1.000000	-1.000000	80.827586	0.000000	-1.000000	-1.000000	1199053.000000	1770063894.306350
12575.970000	20304.450000	26570.610000	21633.210000	-7894.215000	-4453.830000	2705.580000	13111.155000	11.857708	6.476261	7.076631	6.992918	10.508624	10.478389	9.482496	6.649842	-4.150720	-0.045780	-0.595140	0.939756	-0.119873	0.318175	-1.000000	-1.000000	-1.000000	-1.000000	-1.000000	-1.000000	-1.000000	80.827586	0.000000	-1.000000	-1.000000	1199054.000000	1770063894.306363
12564.135000	20314.080000	26579.970000	21638.430000	-7892.730000	-4454.640000	2707.155000	13110.795000	7.938133	4.441509	4.773401	3.787610	2.863869	5.927638	10.078016	0.438520	-4.150720	-0.045780	-0.595140	0.939756	-0.119873	0.318175	-1.000000	-1.000000	-1.000000	-1.000000	-1.000000	-1.000000	-1.000000	80.827586	0.000000	-1.000000	-1.000000	1199055.000000	1770063894.313005
12550.455000	20309.400000	26576.955000	21640.950000	-7881.615000	-4448.295000	2710.035000	13085.820000	-1.027489	2.377660	2.303889	0.778189	-3.656582	0.381831	6.113121	-7.256457	-4.150720	-0.045780	-0.595140	0.939756	-0.119873	0.318175	-1.000000	-1.000000	-1.000000	-1.000000	-1.000000	-1.000000	-1.000000	80.827586	0.000000	-1.000000	-1.000000	1199056.000000	1770063894.313017
12546.855000	20301.390000	26567.190000	21630.960000	-7888.995000	-4456.260000	2700.630000	13060.845000	-10.637341	-0.952382	-1.278744	-2.466254	-7.423242	-4.783585	-0.493141	-12.597556	-4.150720	-0.045780	-0.595140	0.939756	-0.119873	0.318175	-1.000000	-1.000000	-1.000000	-1.000000	-1.000000	-1.000000	-1.000000	80.827586	0.000000	-1.000000	-1.000000	1199057.000000	1770063894.314464
12552.255000	20287.890000	26554.140000	21619.845000	-7895.250000	-4455.990000	2697.120000	13064.580000	-16.063611	-5.759220	-6.149846	-6.171544	-8.345294	-8.318278	-6.960198	-14.528792	-4.150720	-0.045780	-0.595140	0.939756	-0.119873	0.318175	-1.000000	-1.000000	-1.000000	-1.000000	-1.000000	-1.000000	-1.000000	80.827586	0.000000	-1.000000	-1.000000	1199058.000000	1770063894.314473
12565.080000	20288.205000	26558.955000	21631.725000	-7882.695000	-4440.105000	2705.220000	13079.205000	-14.868737	-10.247322	-10.522143	-9.119106	-7.061968	-8.998754	-10.666224	-12.944358	-4.150720	-0.045780	-0.595140	0.939756	-0.119873	0.318175	-1.000000	-1.000000	-1.000000	-1.000000	-1.000000	-1.000000	-1.000000	80.827586	0.000000	-1.000000	-1.000000	1199059.000000	1770063894.318372
12556.755000	20291.355000	26561.610000	21631.905000	-7890.795000	-4456.260000	2684.835000	13084.380000	-8.470716	-11.837030	-11.788186	-9.286651	-4.337987	-6.494246	-10.335518	-7.840286	-4.150720	-0.045780	-0.595140	0.939756	-0.119873	0.318175	-1.000000	-1.000000	-1.000000	-1.000000	-1.000000	-1.000000	-1.000000	80.827586	0.000000	-1.000000	-1.000000	1199060.000000	1770063894.318378
12547.485000	20280.960000	26546.445000	21609.450000	-7916.535000	-4480.650000	2665.575000	13064.355000	-1.531560	-9.583084	-9.192640	-6.551214	-1.898874	-2.974171	-7.346295	-1.068430	-2.716280	1.785420	-2.823100	0.942380	-0.124450	0.313598	-1.000000	-1.000000	-1.000000	-1.000000	-1.000000	-1.000000	-1.000000	80.827586	0.000000	-1.000000	-1.000000	1199061.000000	1770063894.322366
12590.595000	20317.230000	26574.885000	21624.435000	-7919.415000	-4481.415000	2683.665000	13102.785000	2.880883	-4.525493	-4.237366	-2.995665	-1.623175	-1.216976	-3.650294	5.251208	-2.716280	1.785420	-2.823100	0.942380	-0.124450	0.313598	-1.000000	-1.000000	-1.000000	-1.000000	-1.000000	-1.000000	-1.000000	80.827586	0.000000	-1.000000	-1.000000	1199062.000000	1770063894.322375
12608.505000	20328.885000	26583.345000	21631.770000	-7914.105000	-4473.630000	2701.215000	13142.970000	6.793568	2.196370	1.712818	0.381565	-2.615456	-0.826487	1.057383	11.901498	-2.716280	1.785420	-2.823100	0.942380	-0.124450	0.313598	-1.000000	-1.000000	-1.000000	-1.000000	-1.000000	-1.000000	-1.000000	80.827586	0.000000	-1.000000	-1.000000	1199063.000000	1770063894.326936
12569.895000	20292.930000	26558.955000	21627.900000	-7891.065000	-4442.265000	2706.345000	13097.610000	11.834613	8.336893	7.044229	3.820443	-1.753750	1.024397	7.192837	18.833421	-2.716280	1.785420	-2.823100	0.942380	-0.124450	0.313598	-1.000000	-1.000000	-1.000000	-1.000000	-1.000000	-1.000000	-1.000000	80.827586	0.000000	-1.000000	-1.000000	1199064.000000	1770063894.326943
12567.780000	20304.405000	26572.185000	21645.630000	-7867.395000	-4424.355000	2689.695000	13050.270000	14.372787	10.279693	9.231006	6.705757	2.634416	5.685269	12.166474	20.655241	-2.716280	1.785420	-2.823100	0.942380	-0.124450	0.313598	-1.000000	-1.000000	-1.000000	-1.000000	-1.000000	-1.000000	-1.000000	80.827586	0.000000	-1.000000	-1.000000	1199065.000000	1770063894.331960
12574.845000	20314.170000	26581.275000	21648.645000	-7871.355000	-4432.410000	2682.945000	13064.490000	10.799450	7.578760	8.002159	8.357582	8.956815	10.991052	12.298029	12.677004	-2.716280	1.785420	-2.823100	0.942380	-0.124450	0.313598	-1.000000	-1.000000	-1.000000	-1.000000	-1.000000	-1.000000	-1.000000	80.827586	0.000000	-1.000000	-1.000000	1199066.000000	1770063894.331970
12546.945000	20267.640000	26534.655000	21607.875000	-7907.760000	-4460.760000	2691.450000	13081.500000	2.057114	3.010496	5.010221	7.929410	12.698128	12.264512	6.978095	-1.669238	-2.716280	1.785420	-2.823100	0.942380	-0.124450	0.313598	-1.000000	-1.000000	-1.000000	-1.000000	-1.000000	-1.000000	-1.000000	80.827586	0.000000	-1.000000	-1.000000	1199067.000000	1770063894.334667
12532.905000	20247.390000	26509.995000	21580.470000	-7938.990000	-4496.535000	2693.295000	13086.675000	-8.561901	-2.163336	0.186188	3.431247	9.100433	5.923999	-0.564077	-14.213765	-2.716280	1.785420	-2.823100	0.942380	-0.124450	0.313598	-1.000000	-1.000000	-1.000000	-1.000000	-1.000000	-1.000000	-1.000000	80.827586	0.000000	-1.000000	-1.000000	1199068.000000	1770063894.334685
12536.100000	20253.195000	26515.845000	21582.585000	-7940.700000	-4503.915000	2691.270000	13087.485000	-16.829838	-7.331401	-6.205611	-4.821519	-1.499230	-6.103981	-6.068474	-19.371045	-2.716280	1.785420	-2.823100	0.942380	-0.124450	0.313598	-1.000000	-1.000000	-1.000000	-1.000000	-1.000000	-1.000000	-1.000000	80.827586	0.000000	-1.000000	-1.000000	1199069.000000	1770063894.341286
12535.695000	20252.700000	26515.620000	21582.630000	-7936.065000	-4499.370000	2685.285000	13079.250000	-18.515376	-9.926266	-10.606389	-11.754243	-12.031410	-16.169662	-7.338995	-16.462578	-2.716280	1.785420	-2.823100	0.942380	-0.124450	0.313598	-1.000000	-1.000000	-1.000000	-1.000000	-1.000000	-1.000000	-1.000000	80.827586	0.000000	-1.000000	-1.000000	1199070.000000	1770063894.341298
12538.575000	20260.035000	26523.945000	21593.070000	-7915.410000	-4483.440000	2685.870000	13063.455000	-12.752120	-8.129041	-9.741760	-12.210077	-14.726393	-17.026870	-5.491615	-9.075520	-3.509800	2.105880	-2.060100	0.942502	-0.126159	0.310241	-1.000000	-1.000000	-1.000000	-1.000000	-1.000000	-1.000000	-1.000000	80.827586	0.000000	-1.000000	-1.000000	1199071.000000	1770063894.342495
12546.945000	20283.795000	26548.560000	21616.380000	-7889.400000	-4465.530000	2685.510000	13041.720000	-2.405036	-2.529793	-3.680548	-5.578780	-7.709983	-7.978849	-3.270675	-2.457972	-3.509800	2.105880	-2.060100	0.942502	-0.126159	0.310241	-1.000000	-1.000000	-1.000000	-1.000000	-1.000000	-1.000000	-1.000000	80.827586	0.000000	-1.000000	-1.000000	1199072.000000	1770063894.342507
12549.150000	20293.965000	26558.325000	21627.270000	-7870.770000	-4451.445000	2674.755000	13046.625000	9.059514	5.586573	5.438670	4.730691	4.160079	4.996924	-2.215184	1.812960	-3.509800	2.105880	-2.060100	0.942502	-0.126159	0.310241	-1.000000	-1.000000	-1.000000	-1.000000	-1.000000	-1.000000	-1.000000	80.827586	0.000000	-1.000000	-1.000000	1199073.000000	1770063894.349664
12563.145000	20304.135000	26570.520000	21642.480000	-7870.455000	-4445.505000	2675.835000	13083.345000	18.212254	13.515601	13.810139	13.466284	13.252724	14.286942	-1.732900	6.913655	-3.509800	2.105880	-2.060100	0.942502	-0.126159	0.310241	-1.000000	-1.000000	-1.000000	-1.000000	-1.000000	-1.000000	-1.000000	80.827586	0.000000	-1.000000	-1.000000	1199074.000000	1770063894.349681
12564.225000	20294.775000	26560.440000	21628.440000	-7897.905000	-4461.480000	2683.980000	13114.305000	21.406616	16.928292	16.964578	16.274566	14.382963	15.828290	-0.364347	14.390205	-3.509800	2.105880	-2.060100	0.942502	-0.126159	0.310241	-1.000000	-1.000000	-1.000000	-1.000000	-1.000000	-1.000000	-1.000000	80.827586	0.000000	-1.000000	-1.000000	1199075.000000	1770063894.359840
12543.435000	20254.095000	26515.755000	21585.870000	-7922.745000	-4483.530000	2693.655000	13106.700000	16.829847	13.220854	12.782786	11.832337	7.562412	10.265142	2.266054	19.837999	-3.509800	2.105880	-2.060100	0.942502	-0.126159	0.310241	-1.000000	-1.000000	-1.000000	-1.000000	-1.000000	-1.000000	-1.000000	80.827586	0.000000	-1.000000	-1.000000	1199076.000000	1770063894.359852
12529.395000	20243.745000	26509.230000	21584.655000	-7929.630000	-4490.730000	2692.485000	13078.395000	5.858124	3.324521	2.622123	2.013278	-2.752907	1.358907	4.964753	16.822265	-3.509800	2.105880	-2.060100	0.942502	-0.126159	0.310241	-1.000000	-1.000000	-1.000000	-1.000000	-1.000000	-1.000000	-1.000000	80.827586	0.000000	-1.000000	-1.000000	1199077.000000	1770063894.359864
12542.085000	20260.260000	26525.025000	21596.400000	-7922.745000	-4486.545000	2685.780000	13083.345000	-7.187667	-8.504068	-8.947265	-8.401522	-10.645251	-6.163199	6.138945	4.189923	-3.509800	2.105880	-2.060100	0.942502	-0.126159	0.310241	-1.000000	-1.000000	-1.000000	-1.000000	-1.000000	-1.000000	-1.000000	80.827586	0.000000	-1.000000	-1.000000	1199078.000000	1770063894.359870
12556.800000	20279.970000	26543.295000	21609.675000	-7926.615000	-4484.340000	2681.145000	13085.910000	-16.398861	-16.145498	-15.858131	-13.913208	-12.494341	-9.287738	4.810437	-11.357910	-3.509800	2.105880	-2.060100	0.942502	-0.126159	0.310241	-1.000000	-1.000000	-1.000000	-1.000000	-1.000000	-1.000000	-1.000000	80.827586	0.000000	-1.000000	-1.000000	1199079.000000	1770063894.359876
12557.970000	20280.465000	26544.420000	21608.325000	-7933.455000	-4479.390000	2684.205000	13084.245000	-17.779681	-15.940390	-14.963014	-12.499893	-9.177132	-8.233037	1.202489	-20.753107	-3.509800	2.105880	-2.060100	0.942502	-0.126159	0.310241	-1.000000	-1.000000	-1.000000	-1.000000	-1.000000	-1.000000	-1.000000	80.827586	0.000000	-1.000000	-1.000000	1199080.000000	1770063894.359881
12550.410000	20279.205000	26544.645000	21609.360000	-7931.970000	-4477.770000	2681.955000	13078.755000	-11.974421	-9.539399	-8.405397	-6.860014	-4.503154	-5.402932	-3.003303	-19.445319	-3.082520	2.365300	-2.166920	0.939390	-0.127929	0.310485	-1.000000	-1.000000	-1.000000	-1.000000	-1.000000	-1.000000	-1.000000	80.827586	0.000000	-1.000000	-1.000000	1199081.000000	1770063894.362942
12550.050000	20279.610000	26543.160000	21604.275000	-7934.805000	-4481.505000	2685.375000	13077.405000	-3.193078	-1.614850	-0.981282	-1.343885	-1.362607	-3.134626	-5.449052	-9.530807	-3.082520	2.365300	-2.166920	0.939390	-0.127929	0.310485	-1.000000	-1.000000	-1.000000	-1.000000	-1.000000	-1.000000	-1.000000	80.827586	0.000000	-1.000000	-1.000000	1199082.000000	1770063894.362952
12575.790000	20310.795000	26569.350000	21620.160000	-7928.190000	-4486.680000	2681.595000	13096.080000	4.193941	4.417537	4.088063	1.772863	0.543772	-1.982218	-4.892236	2.171050	-3.082520	2.365300	-2.166920	0.939390	-0.127929	0.310485	-1.000000	-1.000000	-1.000000	-1.000000	-1.000000	-1.000000	-1.000000	80.827586	0.000000	-1.000000	-1.000000	1199083.000000	1770063894.368811
12572.685000	20310.660000	26575.605000	21633.480000	-7908.165000	-4473.360000	2682.765000	13105.260000	8.349657	8.487698	7.241957	3.889240	3.901785	-0.361574	-2.413194	9.122787	-3.082520	2.365300	-2.166920	0.939390	-0.127929	0.310485	-1.000000	-1.000000	-1.000000	-1.000000	-1.000000	-1.000000	-1.000000	80.827586	0.000000	-1.000000	-1.000000	1199084.000000	1770063894.368821
12572.370000	20297.745000	26570.610000	21641.040000	-7884.450000	-4447.755000	2694.915000	13133.565000	9.567065	11.470663	10.210644	7.619443	10.466257	3.943108	-0.009577	10.013751	-3.082520	2.365300	-2.166920	0.939390	-0.127929	0.310485	-1.000000	-1.000000	-1.000000	-1.000000	-1.000000	-1.000000	-1.000000	80.827586	0.000000	-1.000000	-1.000000	1199085.000000	1770063894.371688
12547.755000	20286.315000	26554.905000	21621.195000	-7903.935000	-4465.080000	2677.995000	13087.620000	7.968703	11.763111	11.711623	11.778425	17.364203	10.304494	1.411448	7.578516	-3.082520	2.365300	-2.166920	0.939390	-0.127929	0.310485	-1.000000	-1.000000	-1.000000	-1.000000	-1.000000	-1.000000	-1.000000	80.827586	0.000000	-1.000000	-1.000000	1199086.000000	1770063894.371698
12509.460000	20270.295000	26537.400000	21601.755000	-7925.355000	-4486.995000	2657.160000	13005.180000	2.520997	6.543207	7.941352	11.131087	17.882128	13.607947	1.514442	2.364315	-3.082520	2.365300	-2.166920	0.939390	-0.127929	0.310485	-1.000000	-1.000000	-1.000000	-1.000000	-1.000000	-1.000000	-1.000000	80.827586	0.000000	-1.000000	-1.000000	1199087.000000	1770063894.374848
12517.290000	20261.880000	26527.680000	21593.745000	-7928.775000	-4485.555000	2687.355000	13012.560000	-6.417986	-4.007333	-2.161162	2.747513	8.305417	9.124707	0.481323	-6.619377	-3.082520	2.365300	-2.166920	0.939390	-0.127929	0.310485	-1.000000	-1.000000	-1.000000	-1.000000	-1.000000	-1.000000	-1.000000	80.827586	0.000000	-1.000000	-1.000000	1199088.000000	1770063894.374858
12522.870000	20239.200000	26504.100000	21574.530000	-7941.780000	-4492.395000	2691.180000	13058.415000	-13.999560	-15.241922	-14.248696	-9.771717	-7.356976	-1.742963	0.001423	-14.271586	-3.082520	2.365300	-2.166920	0.939390	-0.127929	0.310485	-1.000000	-1.000000	-1.000000	-1.000000	-1.000000	-1.000000	-1.000000	80.827586	0.000000	-1.000000	-1.000000	1199089.000000	1770063894.381607
12545.910000	20273.715000	26542.890000	21612.465000	-7911.135000	-4475.385000	2679.300000	13087.260000	-13.830078	-20.529998	-21.051880	-18.718524	-20.398660	-12.515154	1.133693	-11.699756	-3.082520	2.365300	-2.166920	0.939390	-0.127929	0.310485	-1.000000	-1.000000	-1.000000	-1.000000	-1.000000	-1.000000	-1.000000	80.827586	0.000000	-1.000000	-1.000000	1199090.000000	1770063894.381618
12550.680000	20288.745000	26560.575000	21629.880000	-7895.115000	-4463.775000	2666.565000	13067.955000	-4.697308	-15.555298	-17.134279	-17.596474	-23.260260	-16.554595	2.308064	1.667575	-2.456860	3.784480	-3.036740	0.938718	-0.125976	0.312621	-1.000000	-1.000000	-1.000000	-1.000000	-1.000000	-1.000000	-1.000000	80.827586	0.000000	-1.000000	-1.000000	1199091.000000	1770063894.382448
12541.140000	20282.265000	26554.590000	21625.335000	-7894.935000	-4455.630000	2674.665000	13050.720000	7.414373	-2.436145	-3.849708	-6.494542	-14.495340	-11.394697	1.693986	15.096433	-2.456860	3.784480	-3.036740	0.938718	-0.125976	0.312621	-1.000000	-1.000000	-1.000000	-1.000000	-1.000000	-1.000000	-1.000000	80.827586	0.000000	-1.000000	-1.000000	1199092.000000	1770063894.382455
12538.980000	20268.630000	26535.420000	21600.720000	-7923.150000	-4468.815000	2695.320000	13073.220000	14.713035	11.254294	10.774236	7.136204	-0.529125	-0.771103	-0.123954	17.981403	-2.456860	3.784480	-3.036740	0.938718	-0.125976	0.312621	-1.000000	-1.000000	-1.000000	-1.000000	-1.000000	-1.000000	-1.000000	80.827586	0.000000	-1.000000	-1.000000	1199093.000000	1770063894.386395
12549.960000	20278.845000	26544.285000	21606.120000	-7927.830000	-4469.580000	2717.370000	13122.180000	14.312251	18.865061	18.878714	14.929177	9.365159	8.134117	-0.846189	10.789486	-2.456860	3.784480	-3.036740	0.938718	-0.125976	0.312621	-1.000000	-1.000000	-1.000000	-1.000000	-1.000000	-1.000000	-1.000000	80.827586	0.000000	-1.000000	-1.000000	1199094.000000	1770063894.386405
12542.760000	20280.015000	26546.940000	21607.830000	-7931.115000	-4476.960000	2711.070000	13122.945000	8.958318	18.574858	18.255596	14.364524	11.097191	10.797647	0.961511	2.825186	-2.456860	3.784480	-3.036740	0.938718	-0.125976	0.312621	-1.000000	-1.000000	-1.000000	-1.000000	-1.000000	-1.000000	-1.000000	80.827586	0.000000	-1.000000	-1.000000	1199095.000000	1770063894.390760
12531.555000	20264.310000	26528.220000	21589.605000	-7946.280000	-4500.225000	2684.655000	13081.995000	2.603223	11.999648	11.290240	8.401827	7.320226	7.660754	3.560628	0.563891	-2.456860	3.784480	-3.036740	0.938718	-0.125976	0.312621	-1.000000	-1.000000	-1.000000	-1.000000	-1.000000	-1.000000	-1.000000	80.827586	0.000000	-1.000000	-1.000000	1199096.000000	1770063894.390771
12530.430000	20257.650000	26517.105000	21576.060000	-7946.640000	-4506.030000	2664.630000	13055.040000	-2.959399	2.098198	1.542408	0.817288	2.402146	1.376175	2.683631	0.608997	-2.456860	3.784480	-3.036740	0.938718	-0.125976	0.312621	-1.000000	-1.000000	-1.000000	-1.000000	-1.000000	-1.000000	-1.000000	80.827586	0.000000	-1.000000	-1.000000	1199097.000000	1770063894.394382
12552.075000	20266.650000	26527.005000	21589.560000	-7924.320000	-4492.845000	2657.340000	13069.485000	-7.098133	-7.211616	-7.273102	-5.541076	-0.743779	-4.800426	-3.338689	-3.822837	-2.456860	3.784480	-3.036740	0.938718	-0.125976	0.312621	-1.000000	-1.000000	-1.000000	-1.000000	-1.000000	-1.000000	-1.000000	80.827586	0.000000	-1.000000	-1.000000	1199098.000000	1770063894.394392
12563.370000	20278.485000	26546.895000	21617.100000	-7897.095000	-4468.140000	2675.565000	13091.085000	-8.683790	-12.463573	-11.983009	-8.434087	-0.874602	-7.381143	-9.997806	-12.296833	-2.456860	3.784480	-3.036740	0.938718	-0.125976	0.312621	-1.000000	-1.000000	-1.000000	-1.000000	-1.000000	-1.000000	-1.000000	80.827586	0.000000	-1.000000	-1.000000	1199099.000000	1770063894.415661
12562.380000	20272.050000	26543.205000	21619.980000	-7917.030000	-4471.605000	2689.920000	13119.345000	-7.264188	-12.769085	-11.634209	-7.092271	0.984140	-4.908327	-10.675305	-17.136225	-2.456860	3.784480	-3.036740	0.938718	-0.125976	0.312621	-1.000000	-1.000000	-1.000000	-1.000000	-1.000000	-1.000000	-1.000000	80.827586	0.000000	-1.000000	-1.000000	1199100.000000	1770063894.415673
12544.155000	20261.430000	26525.790000	21607.785000	-8000.190000	-4509.945000	2689.920000	13103.685000	-4.141330	-9.328361	-7.575362	-2.828500	1.152849	-0.009507	-3.903822	-12.907810	-8.423520	3.647140	-3.799740	0.937925	-0.120666	0.313354	-1.000000	-1.000000	-1.000000	-1.000000	-1.000000	-1.000000	-1.000000	80.827586	0.000000	-1.000000	-1.000000	1199101.000000	1770063894.415926
12543.255000	20269.350000	26528.175000	21605.490000	-8069.580000	-4529.880000	2685.330000	13053.780000	-1.328295	-3.671787	-2.004966	1.844213	-4.195079	2.569313	4.940956	-3.681164	-8.423520	3.647140	-3.799740	0.937925	-0.120666	0.313354	-1.000000	-1.000000	-1.000000	-1.000000	-1.000000	-1.000000	-1.000000	80.827586	0.000000	-1.000000	-1.000000	1199102.000000	1770063894.415937
12564.450000	20294.010000	26555.130000	21631.275000	-8066.745000	-4525.920000	2691.630000	13067.145000	0.447380	2.829567	3.400755	5.004059	-13.467517	1.120164	9.461957	1.899835	-8.423520	3.647140	-3.799740	0.937925	-0.120666	0.313354	-1.000000	-1.000000	-1.000000	-1.000000	-1.000000	-1.000000	-1.000000	80.827586	0.000000	-1.000000	-1.000000	1199103.000000	1770063894.415948
12581.460000	20324.475000	26593.785000	21664.620000	-8014.905000	-4515.075000	2689.830000	13085.505000	2.568641	8.964490	8.236664	6.735684	-17.785199	-1.100733	8.333519	2.502683	-8.423520	3.647140	-3.799740	0.937925	-0.120666	0.313354	-1.000000	-1.000000	-1.000000	-1.000000	-1.000000	-1.000000	-1.000000	80.827586	0.000000	-1.000000	-1.000000	1199104.000000	1770063894.415953
12596.805000	20354.670000	26630.730000	21681.135000	-7925.310000	-4476.060000	2698.695000	13093.740000	6.168198	13.800072	12.843657	8.254164	-7.965427	0.439893	4.791013	4.407726	-8.423520	3.647140	-3.799740	0.937925	-0.120666	0.313354	-1.000000	-1.000000	-1.000000	-1.000000	-1.000000	-1.000000	-1.000000	80.827586	0.000000	-1.000000	-1.000000	1199105.000000	1770063894.415960
12603.645000	20354.940000	26621.460000	21625.830000	-7899.345000	-4457.340000	2712.510000	13105.170000	9.485031	15.801247	15.905114	8.390490	15.038108	6.690301	2.320211	10.519276	-8.423520	3.647140	-3.799740	0.937925	-0.120666	0.313354	-1.000000	-1.000000	-1.000000	-1.000000	-1.000000	-1.000000	-1.000000	80.827586	0.000000	-1.000000	-1.000000	1199106.000000	1770063894.415964
12580.110000	20306.430000	26566.245000	21551.220000	-7912.170000	-4444.920000	2715.660000	13105.485000	8.639018	11.625247	12.610952	2.121331	36.805204	13.188661	1.915794	16.043931	-8.423520	3.647140	-3.799740	0.937925	-0.120666	0.313354	-1.000000	-1.000000	-1.000000	-1.000000	-1.000000	-1.000000	-1.000000	80.827586	0.000000	-1.000000	-1.000000	1199107.000000	1770063894.415970
12556.080000	20281.455000	26538.570000	21555.135000	-7868.520000	-4451.940000	2687.220000	13086.945000	1.173787	-1.201413	-1.082941	-12.706508	40.816793	13.480382	1.407576	14.297792	-8.423520	3.647140	-3.799740	0.937925	-0.120666	0.313354	-1.000000	-1.000000	-1.000000	-1.000000	-1.000000	-1.000000	-1.000000	80.827586	0.000000	-1.000000	-1.000000	1199108.000000	1770063894.415975
12523.095000	20232.990000	26492.400000	21547.035000	-7857.900000	-4457.790000	2681.820000	13070.205000	-10.503543	-18.871020	-20.985525	-27.907387	24.701979	5.445333	-2.231089	3.537885	-8.423520	3.647140	-3.799740	0.937925	-0.120666	0.313354	-1.000000	-1.000000	-1.000000	-1.000000	-1.000000	-1.000000	-1.000000	80.827586	0.000000	-1.000000	-1.000000	1199109.000000	1770063894.418694
12517.560000	20229.930000	26490.285000	21564.315000	-7866.360000	-4457.880000	2686.905000	13066.695000	-19.656291	-31.774165	-35.367567	-30.621775	0.815475	-6.156155	-8.399797	-10.664809	-8.423520	3.647140	-3.799740	0.937925	-0.120666	0.313354	-1.000000	-1.000000	-1.000000	-1.000000	-1.000000	-1.000000	-1.000000	80.827586	0.000000	-1.000000	-1.000000	1199110.000000	1770063894.418705
12530.070000	20256.255000	26523.585000	21618.585000	-7859.880000	-4468.005000	2680.065000	13067.100000	-20.018239	-31.294484	-33.907516	-15.476072	-17.278476	-14.233026	-12.740199	-19.293551	-1.526000	2.975700	-3.311420	0.934934	-0.125000	0.316833	-1.000000	-1.000000	-1.000000	-1.000000	-1.000000	-1.000000	-1.000000	80.827586	0.000000	-1.000000	-1.000000	1199111.000000	1770063894.422480
12537.000000	20262.375000	26531.370000	21630.735000	-7865.370000	-4462.605000	2690.460000	13073.985000	-10.493006	-16.187009	-15.724127	10.704219	-24.867892	-15.481917	-11.632689	-17.334265	-1.526000	2.975700	-3.311420	0.934934	-0.125000	0.316833	-1.000000	-1.000000	-1.000000	-1.000000	-1.000000	-1.000000	-1.000000	80.827586	0.000000	-1.000000	-1.000000	1199112.000000	1770063894.422492
12546.045000	20269.845000	26541.855000	21647.205000	-7856.730000	-4444.695000	2701.485000	13083.210000	4.119791	5.906054	9.417883	33.270755	-25.795904	-11.105600	-4.739375	-6.933152	-1.526000	2.975700	-3.311420	0.934934	-0.125000	0.316833	-1.000000	-1.000000	-1.000000	-1.000000	-1.000000	-1.000000	-1.000000	80.827586	0.000000	-1.000000	-1.000000	1199113.000000	1770063894.428493
12548.520000	20273.670000	26546.310000	21641.895000	-7875.405000	-4454.865000	2699.145000	13081.410000	16.495060	23.796710	28.369364	40.165181	-25.707172	-4.571826	4.916534	5.549147	-1.526000	2.975700	-3.311420	0.934934	-0.125000	0.316833	-1.000000	-1.000000	-1.000000	-1.000000	-1.000000	-1.000000	-1.000000	80.827586	0.000000	-1.000000	-1.000000	1199114.000000	1770063894.428503
12559.410000	20285.820000	26554.275000	21621.600000	-7890.120000	-4462.965000	2698.020000	13086.450000	21.363534	30.630083	33.996040	30.012656	-25.895534	0.075448	12.183166	13.591200	-1.526000	2.975700	-3.311420	0.934934	-0.125000	0.316833	-1.000000	-1.000000	-1.000000	-1.000000	-1.000000	-1.000000	-1.000000	80.827586	0.000000	-1.000000	-1.000000	1199115.000000	1770063894.430410
12566.430000	20296.395000	26561.880000	21616.335000	-7888.050000	-4459.770000	2693.430000	13090.680000	18.346210	27.064801	27.961888	10.388618	-22.847007	0.946965	13.340737	13.981879	-1.526000	2.975700	-3.311420	0.934934	-0.125000	0.316833	-1.000000	-1.000000	-1.000000	-1.000000	-1.000000	-1.000000	-1.000000	80.827586	0.000000	-1.000000	-1.000000	1199116.000000	1770063894.430421
12566.970000	20297.250000	26562.375000	21618.180000	-7883.640000	-4455.810000	2698.560000	13099.410000	11.062390	18.085988	16.438871	-9.274916	-13.081599	0.065013	8.959716	8.514261	-1.526000	2.975700	-3.311420	0.934934	-0.125000	0.316833	-1.000000	-1.000000	-1.000000	-1.000000	-1.000000	-1.000000	-1.000000	80.827586	0.000000	-1.000000	-1.000000	1199117.000000	1770063894.434440
12558.915000	20282.670000	26545.455000	21606.345000	-7893.720000	-4457.025000	2708.100000	13099.770000	3.547706	8.040999	4.700564	-22.405937	2.821380	0.933236	2.667029	1.819915	-1.526000	2.975700	-3.311420	0.934934	-0.125000	0.316833	-1.000000	-1.000000	-1.000000	-1.000000	-1.000000	-1.000000	-1.000000	80.827586	0.000000	-1.000000	-1.000000	1199118.000000	1770063894.434447
12562.470000	20292.300000	26556.705000	21626.910000	-7883.235000	-4454.820000	2702.025000	13090.770000	-2.455692	-1.530359	-5.202045	-26.522408	20.570921	4.691455	-2.377262	-2.679421	-1.526000	2.975700	-3.311420	0.934934	-0.125000	0.316833	-1.000000	-1.000000	-1.000000	-1.000000	-1.000000	-1.000000	-1.000000	80.827586	0.000000	-1.000000	-1.000000	1199119.000000	1770063894.438471
12569.535000	20303.280000	26567.325000	21639.105000	-7881.705000	-4458.060000	2697.255000	13086.405000	-7.193469	-10.489204	-13.226206	-22.759448	33.948919	9.187759	-5.270493	-4.712500	-1.526000	2.975700	-3.311420	0.934934	-0.125000	0.316833	-1.000000	-1.000000	-1.000000	-1.000000	-1.000000	-1.000000	-1.000000	80.827586	0.000000	-1.000000	-1.000000	1199120.000000	1770063894.438493
12570.255000	20297.835000	26562.330000	21636.135000	-7884.720000	-4460.625000	2696.355000	13090.725000	-10.848768	-17.759840	-18.937368	-14.350853	36.885969	10.878714	-6.493984	-5.602412	0.610400	-0.167860	1.251320	0.933469	-0.129638	0.328918	-1.000000	-1.000000	-1.000000	-1.000000	-1.000000	-1.000000	-1.000000	80.827586	0.000000	-1.000000	-1.000000	1199121.000000	1770063894.449455
12550.230000	20278.035000	26545.860000	21618.540000	-7899.390000	-4468.365000	2696.130000	13090.545000	-13.008587	-21.595182	-21.282564	-5.050043	26.722699	7.431732	-6.518986	-5.911422	0.610400	-0.167860	1.251320	0.933469	-0.129638	0.328918	-1.000000	-1.000000	-1.000000	-1.000000	-1.000000	-1.000000	-1.000000	80.827586	0.000000	-1.000000	-1.000000	1199122.000000	1770063894.449466
12552.930000	20285.685000	26549.955000	21616.110000	-7904.340000	-4470.120000	2696.940000	13097.475000	-13.287873	-20.823971	-19.401056	2.693032	7.192823	-0.092593	-5.323813	-5.217358	0.610400	-0.167860	1.251320	0.933469	-0.129638	0.328918	-1.000000	-1.000000	-1.000000	-1.000000	-1.000000	-1.000000	-1.000000	80.827586	0.000000	-1.000000	-1.000000	1199123.000000	1770063894.449479
12551.085000	20282.580000	26547.345000	21613.905000	-7901.640000	-4462.830000	2695.815000	13087.395000	-11.047464	-14.882192	-12.756739	8.870073	-12.415048	-7.425281	-2.813951	-3.417391	0.610400	-0.167860	1.251320	0.933469	-0.129638	0.328918	-1.000000	-1.000000	-1.000000	-1.000000	-1.000000	-1.000000	-1.000000	80.827586	0.000000	-1.000000	-1.000000	1199124.000000	1770063894.449484
12559.050000	20289.555000	26551.890000	21614.715000	-7903.125000	-4463.865000	2694.780000	13087.620000	-5.658395	-4.595277	-2.225131	13.695901	-23.385760	-10.414237	0.563571	-1.297352	0.610400	-0.167860	1.251320	0.933469	-0.129638	0.328918	-1.000000	-1.000000	-1.000000	-1.000000	-1.000000	-1.000000	-1.000000	80.827586	0.000000	-1.000000	-1.000000	1199125.000000	1770063894.450586
12560.985000	20296.530000	26558.730000	21619.035000	-7902.765000	-4468.950000	2690.955000	13088.430000	2.347574	7.374649	9.399611	15.733100	-22.880405	-8.100650	3.583690	0.441552	0.610400	-0.167860	1.251320	0.933469	-0.129638	0.328918	-1.000000	-1.000000	-1.000000	-1.000000	-1.000000	-1.000000	-1.000000	80.827586	0.000000	-1.000000	-1.000000	1199126.000000	1770063894.450593
12586.770000	20338.110000	26594.415000	21637.260000	-7907.220000	-4483.350000	2684.340000	13099.590000	10.962177	17.910723	18.956728	13.827411	-13.508120	-2.771167	4.696141	2.110031	0.610400	-0.167860	1.251320	0.933469	-0.129638	0.328918	-1.000000	-1.000000	-1.000000	-1.000000	-1.000000	-1.000000	-1.000000	80.827586	0.000000	-1.000000	-1.000000	1199127.000000	1770063894.454643
12574.800000	20310.795000	26575.605000	21634.470000	-7888.500000	-4455.990000	2703.960000	13105.845000	16.858592	23.402605	23.124718	8.148944	-0.673503	2.577175	3.730231	4.379575	0.610400	-0.167860	1.251320	0.933469	-0.129638	0.328918	-1.000000	-1.000000	-1.000000	-1.000000	-1.000000	-1.000000	-1.000000	80.827586	0.000000	-1.000000	-1.000000	1199128.000000	1770063894.454652
12559.410000	20293.560000	26563.365000	21634.695000	-7872.480000	-4437.405000	2709.810000	13097.070000	16.201820	19.673296	18.470893	-0.348627	10.053308	6.737371	2.512312	6.580448	0.610400	-0.167860	1.251320	0.933469	-0.129638	0.328918	-1.000000	-1.000000	-1.000000	-1.000000	-1.000000	-1.000000	-1.000000	80.827586	0.000000	-1.000000	-1.000000	1199129.000000	1770063894.466271
12560.310000	20308.860000	26575.290000	21640.590000	-7871.715000	-4438.575000	2699.370000	13081.095000	8.036134	6.869955	5.658513	-8.849004	15.042888	9.316244	2.175242	6.401592	0.610400	-0.167860	1.251320	0.933469	-0.129638	0.328918	-1.000000	-1.000000	-1.000000	-1.000000	-1.000000	-1.000000	-1.000000	80.827586	0.000000	-1.000000	-1.000000	1199130.000000	1770063894.466282
12577.725000	20324.295000	26587.980000	21648.555000	-7867.755000	-4434.300000	2698.020000	13086.720000	-3.020387	-7.548371	-8.294693	-12.958350	13.317608	9.047302	1.634210	2.522945	8.957620	1.922760	-0.701960	0.933897	-0.128479	0.320190	-1.000000	-1.000000	-1.000000	-1.000000	-1.000000	-1.000000	-1.000000	80.827586	0.000000	-1.000000	-1.000000	1199131.000000	1770063894.478256
12577.950000	20314.620000	26579.655000	21632.805000	-7885.845000	-4449.330000	2699.010000	13098.195000	-10.295493	-15.374485	-15.816878	-10.415958	6.426991	5.035109	-0.111290	-2.980695	8.957620	1.922760	-0.701960	0.933897	-0.128479	0.320190	-1.000000	-1.000000	-1.000000	-1.000000	-1.000000	-1.000000	-1.000000	80.827586	0.000000	-1.000000	-1.000000	1199132.000000	1770063894.478268
12594.555000	20317.860000	26577.945000	21625.155000	-7898.040000	-4463.145000	2699.415000	13105.845000	-10.745251	-14.625238	-14.971025	-3.713307	-2.800604	-2.043477	-2.314979	-6.175479	8.957620	1.922760	-0.701960	0.933897	-0.128479	0.320190	-1.000000	-1.000000	-1.000000	-1.000000	-1.000000	-1.000000	-1.000000	80.827586	0.000000	-1.000000	-1.000000	1199133.000000	1770063894.478281
12586.635000	20314.530000	26572.950000	21621.375000	-7897.770000	-4462.650000	2695.770000	13074.210000	-6.023325	-8.508240	-8.845600	2.248544	-11.075882	-9.613511	-3.605418	-5.494361	8.957620	1.922760	-0.701960	0.933897	-0.128479	0.320190	-1.000000	-1.000000	-1.000000	-1.000000	-1.000000	-1.000000	-1.000000	80.827586	0.000000	-1.000000	-1.000000	1199134.000000	1770063894.478286
12567.060000	20286.270000	26551.710000	21612.960000	-7891.740000	-4441.905000	2714.940000	13075.830000	-0.529812	-1.916732	-2.151865	4.291008	-14.650149	-13.298985	-3.157490	-3.141227	8.957620	1.922760	-0.701960	0.933897	-0.128479	0.320190	-1.000000	-1.000000	-1.000000	-1.000000	-1.000000	-1.000000	-1.000000	80.827586	0.000000	-1.000000	-1.000000	1199135.000000	1770063894.478292
12560.760000	20286.720000	26550.990000	21610.710000	-7897.770000	-4447.935000	2711.745000	13087.710000	1.450050	0.959951	1.228513	2.173984	-11.567134	-10.093579	-0.977439	-1.355919	8.957620	1.922760	-0.701960	0.933897	-0.128479	0.320190	-1.000000	-1.000000	-1.000000	-1.000000	-1.000000	-1.000000	-1.000000	80.827586	0.000000	-1.000000	-1.000000	1199136.000000	1770063894.478297
12568.050000	20301.570000	26563.545000	21616.470000	-7905.195000	-4466.745000	2692.890000	13106.070000	-0.473752	0.271756	1.123707	-1.922209	-4.293403	-2.551722	1.224331	0.324988	8.957620	1.922760	-0.701960	0.933897	-0.128479	0.320190	-1.000000	-1.000000	-1.000000	-1.000000	-1.000000	-1.000000	-1.000000	80.827586	0.000000	-1.000000	-1.000000	1199137.000000	1770063894.478303
12573.360000	20302.560000	26564.670000	21619.080000	-7899.930000	-4464.900000	2686.275000	13104.270000	-2.519316	0.254479	0.963529	-4.493168	2.366750	3.269238	0.984569	3.060840	8.957620	1.922760	-0.701960	0.933897	-0.128479	0.320190	-1.000000	-1.000000	-1.000000	-1.000000	-1.000000	-1.000000	-1.000000	80.827586	0.000000	-1.000000	-1.000000	1199138.000000	1770063894.478308
12566.430000	20276.145000	26540.415000	21600.405000	-7910.235000	-4466.115000	2691.765000	13102.110000	-1.626543	2.640755	2.506796	-3.598577	5.643834	4.476463	-1.475035	6.095043	8.957620	1.922760	-0.701960	0.933897	-0.128479	0.320190	-1.000000	-1.000000	-1.000000	-1.000000	-1.000000	-1.000000	-1.000000	80.827586	0.000000	-1.000000	-1.000000	1199139.000000	1770063894.478512
12556.665000	20256.885000	26524.485000	21591.000000	-7911.990000	-4467.060000	2692.530000	13103.910000	1.135650	4.335298	3.617558	-0.428618	5.812067	2.956272	-3.225210	7.032478	8.957620	1.922760	-0.701960	0.933897	-0.128479	0.320190	-1.000000	-1.000000	-1.000000	-1.000000	-1.000000	-1.000000	-1.000000	80.827586	0.000000	-1.000000	-1.000000	1199140.000000	1770063894.478523
12547.260000	20271.330000	26536.185000	21596.310000	-7914.105000	-4470.570000	2692.170000	13102.065000	2.724521	3.096520	2.693651	3.065796	4.714500	1.747284	-2.319270	4.275789	2.411080	6.668620	-0.366240	0.945432	-0.116394	0.295654	-1.000000	-1.000000	-1.000000	-1.000000	-1.000000	-1.000000	-1.000000	80.827586	0.000000	-1.000000	-1.000000	1199141.000000	1770063894.482488
12538.935000	20291.400000	26555.490000	21611.790000	-7904.205000	-4462.155000	2692.395000	13080.150000	1.704765	1.172197	1.647787	6.241352	4.152600	2.390275	0.609354	-1.305808	2.411080	6.668620	-0.366240	0.945432	-0.116394	0.295654	-1.000000	-1.000000	-1.000000	-1.000000	-1.000000	-1.000000	-1.000000	80.827586	0.000000	-1.000000	-1.000000	1199142.000000	1770063894.482498
12550.365000	20303.865000	26567.415000	21619.530000	-7904.295000	-4464.270000	2689.920000	13067.100000	-0.419589	1.955379	3.076432	8.784137	4.501604	4.281310	3.530360	-6.924372	2.411080	6.668620	-0.366240	0.945432	-0.116394	0.295654	-1.000000	-1.000000	-1.000000	-1.000000	-1.000000	-1.000000	-1.000000	80.827586	0.000000	-1.000000	-1.000000	1199143.000000	1770063894.486510
12553.380000	20293.380000	26555.220000	21606.570000	-7914.555000	-4462.695000	2700.450000	13080.060000	-0.657692	5.428888	6.375451	9.292584	4.462998	5.283077	4.622422	-9.594529	2.411080	6.668620	-0.366240	0.945432	-0.116394	0.295654	-1.000000	-1.000000	-1.000000	-1.000000	-1.000000	-1.000000	-1.000000	80.827586	0.000000	-1.000000	-1.000000	1199144.000000	1770063894.486520
12562.020000	20304.945000	26566.020000	21613.500000	-7910.055000	-4450.590000	2704.905000	13086.945000	2.096338	8.028387	7.969337	6.086606	2.598546	4.072394	3.714803	-7.906982	2.411080	6.668620	-0.366240	0.945432	-0.116394	0.295654	-1.000000	-1.000000	-1.000000	-1.000000	-1.000000	-1.000000	-1.000000	80.827586	0.000000	-1.000000	-1.000000	1199145.000000	1770063894.494439
12573.720000	20307.645000	26575.515000	21637.575000	-7873.695000	-4428.495000	2697.930000	13099.365000	5.891367	6.617895	5.434232	-0.028690	-0.371342	1.847908	2.098240	-2.777435	2.411080	6.668620	-0.366240	0.945432	-0.116394	0.295654	-1.000000	-1.000000	-1.000000	-1.000000	-1.000000	-1.000000	-1.000000	80.827586	0.000000	-1.000000	-1.000000	1199146.000000	1770063894.494447
12573.675000	20319.435000	26587.890000	21645.945000	-7879.905000	-4446.405000	2677.590000	13086.135000	7.849940	1.584968	0.102405	-5.376315	-2.125210	0.211880	0.437669	3.292219	2.411080	6.668620	-0.366240	0.945432	-0.116394	0.295654	-1.000000	-1.000000	-1.000000	-1.000000	-1.000000	-1.000000	-1.000000	80.827586	0.000000	-1.000000	-1.000000	1199147.000000	1770063894.495651
12568.950000	20313.810000	26578.305000	21630.780000	-7920.675000	-4461.795000	2694.285000	13085.820000	6.253893	-3.894836	-4.700756	-7.073098	-2.540144	-1.510713	-1.537280	7.379368	2.411080	6.668620	-0.366240	0.945432	-0.116394	0.295654	-1.000000	-1.000000	-1.000000	-1.000000	-1.000000	-1.000000	-1.000000	80.827586	0.000000	-1.000000	-1.000000	1199148.000000	1770063894.495662
12566.520000	20310.705000	26589.735000	21660.705000	-7924.320000	-4457.295000	2697.210000	13091.985000	1.488181	-6.987539	-6.731927	-5.182557	-3.873235	-4.358112	-3.160034	7.698187	2.411080	6.668620	-0.366240	0.945432	-0.116394	0.295654	-1.000000	-1.000000	-1.000000	-1.000000	-1.000000	-1.000000	-1.000000	80.827586	0.000000	-1.000000	-1.000000	1199149.000000	1770063894.500297
12571.425000	20309.445000	26590.050000	21657.150000	-7946.460000	-4467.510000	2712.150000	13101.660000	-4.080033	-7.565278	-6.156444	-1.492551	-6.682789	-7.072162	-2.991411	5.102781	2.411080	6.668620	-0.366240	0.945432	-0.116394	0.295654	-1.000000	-1.000000	-1.000000	-1.000000	-1.000000	-1.000000	-1.000000	80.827586	0.000000	-1.000000	-1.000000	1199150.000000	1770063894.500308
12557.475000	20286.090000	26575.695000	21653.685000	-8001.900000	-4483.890000	2725.110000	13091.715000	-7.835454	-7.532122	-5.001556	1.217785	-9.704860	-7.936889	-0.603987	2.251395	-15.595720	6.928040	-0.106820	0.941648	-0.112365	0.288635	-1.000000	-1.000000	-1.000000	-1.000000	-1.000000	-1.000000	-1.000000	80.827586	0.000000	-1.000000	-1.000000	1199151.000000	1770063894.502908
12548.880000	20260.395000	26528.805000	21576.015000	-8122.905000	-4486.455000	2750.760000	13092.885000	-8.924022	-8.333363	-5.553071	-0.276487	-13.231432	-6.797005	2.973438	0.704536	-15.595720	6.928040	-0.106820	0.941648	-0.112365	0.288635	-1.000000	-1.000000	-1.000000	-1.000000	-1.000000	-1.000000	-1.000000	80.827586	0.000000	-1.000000	-1.000000	1199152.000000	1770063894.502917
12522.285000	20235.870000	26510.535000	21570.120000	-8169.885000	-4486.095000	2750.805000	13069.755000	-8.302374	-9.414846	-8.269331	-6.876825	-17.891717	-4.063866	5.701158	-0.680601	-15.595720	6.928040	-0.106820	0.941648	-0.112365	0.288635	-1.000000	-1.000000	-1.000000	-1.000000	-1.000000	-1.000000	-1.000000	80.827586	0.000000	-1.000000	-1.000000	1199153.000000	1770063894.507570
12568.140000	20339.010000	26664.570000	21765.915000	-8071.920000	-4548.330000	2681.910000	13072.995000	-6.526886	-7.500733	-8.681300	-11.807523	-18.748244	-1.090506	4.608165	-3.757735	-15.595720	6.928040	-0.106820	0.941648	-0.112365	0.288635	-1.000000	-1.000000	-1.000000	-1.000000	-1.000000	-1.000000	-1.000000	80.827586	0.000000	-1.000000	-1.000000	1199154.000000	1770063894.507578
12664.620000	20429.910000	26715.105000	21789.945000	-7879.815000	-4481.370000	2689.245000	13149.585000	-1.290126	2.397039	0.616307	-4.183841	-5.123533	0.557646	-1.888136	-6.672624	-15.595720	6.928040	-0.106820	0.941648	-0.112365	0.288635	-1.000000	-1.000000	-1.000000	-1.000000	-1.000000	-1.000000	-1.000000	80.827586	0.000000	-1.000000	-1.000000	1199155.000000	1770063894.515122
12656.115000	20372.490000	26593.560000	21635.055000	-7780.680000	-4385.025000	2733.255000	13170.825000	9.224563	18.967544	16.855853	12.822929	27.590862	4.140985	-9.456987	-4.209141	-15.595720	6.928040	-0.106820	0.941648	-0.112365	0.288635	-1.000000	-1.000000	-1.000000	-1.000000	-1.000000	-1.000000	-1.000000	80.827586	0.000000	-1.000000	-1.000000	1199156.000000	1770063894.515131
12610.170000	20330.145000	26562.195000	21571.560000	-7852.365000	-4434.345000	2703.285000	13135.320000	19.198412	29.655560	24.145721	19.782882	64.422033	13.345253	-11.287684	3.742900	-15.595720	6.928040	-0.106820	0.941648	-0.112365	0.288635	-1.000000	-1.000000	-1.000000	-1.000000	-1.000000	-1.000000	-1.000000	80.827586	0.000000	-1.000000	-1.000000	1199157.000000	1770063894.515788
12581.640000	20283.570000	26526.015000	21532.725000	-7855.065000	-4452.075000	2700.810000	13122.270000	18.506393	22.414532	12.452760	5.453813	76.991612	21.751445	-6.807395	9.278788	-15.595720	6.928040	-0.106820	0.941648	-0.112365	0.288635	-1.000000	-1.000000	-1.000000	-1.000000	-1.000000	-1.000000	-1.000000	80.827586	0.000000	-1.000000	-1.000000	1199158.000000	1770063894.515798
12564.720000	20268.900000	26517.330000	21529.575000	-7838.730000	-4438.620000	2702.250000	13100.265000	4.578127	-0.826883	-10.676882	-19.598374	50.774719	19.545521	-0.695134	6.023056	-15.595720	6.928040	-0.106820	0.941648	-0.112365	0.288635	-1.000000	-1.000000	-1.000000	-1.000000	-1.000000	-1.000000	-1.000000	80.827586	0.000000	-1.000000	-1.000000	1199159.000000	1770063894.521729
12556.305000	20262.870000	26524.170000	21559.320000	-7880.670000	-4435.065000	2706.165000	13084.245000	-14.146826	-25.471804	-28.481401	-34.394825	-0.222883	6.744828	3.436833	-3.928566	-15.595720	6.928040	-0.106820	0.941648	-0.112365	0.288635	-1.000000	-1.000000	-1.000000	-1.000000	-1.000000	-1.000000	-1.000000	80.827586	0.000000	-1.000000	-1.000000	1199160.000000	1770063894.521739
12565.395000	20283.030000	26559.495000	21638.430000	-7879.590000	-4442.265000	2703.060000	13086.945000	-25.554471	-35.512433	-27.710387	-24.092857	-47.467137	-8.784094	4.500411	-13.260037	-25.011140	-0.030520	-0.473060	0.937681	-0.117675	0.304076	-1.000000	-1.000000	-1.000000	-1.000000	-1.000000	-1.000000	-1.000000	80.827586	0.000000	-1.000000	-1.000000	1199161.000000	1770063894.531452
12581.370000	20329.695000	26613.630000	21703.590000	-7865.820000	-4469.040000	2685.240000	13100.445000	-22.712176	-24.858270	-7.866127	8.302437	-69.489331	-19.758644	3.386646	-15.309302	-25.011140	-0.030520	-0.473060	0.937681	-0.117675	0.304076	-1.000000	-1.000000	-1.000000	-1.000000	-1.000000	-1.000000	-1.000000	80.827586	0.000000	-1.000000	-1.000000	1199162.000000	1770063894.531464
12585.240000	20327.310000	26579.295000	21639.105000	-7853.805000	-4447.890000	2698.470000	13113.585000	-8.924190	-2.265129	16.153623	39.442489	-64.417241	-22.453174	2.856150	-8.599531	-25.011140	-0.030520	-0.473060	0.937681	-0.117675	0.304076	-1.000000	-1.000000	-1.000000	-1.000000	-1.000000	-1.000000	-1.000000	80.827586	0.000000	-1.000000	-1.000000	1199163.000000	1770063894.531476
12563.100000	20287.080000	26518.050000	21568.680000	-7890.030000	-4427.055000	2721.375000	13108.635000	4.758025	15.314193	25.572244	44.024358	-46.892370	-17.391759	4.949662	1.559862	-25.011140	-0.030520	-0.473060	0.937681	-0.117675	0.304076	-1.000000	-1.000000	-1.000000	-1.000000	-1.000000	-1.000000	-1.000000	80.827586	0.000000	-1.000000	-1.000000	1199164.000000	1770063894.531481
12566.295000	20283.030000	26532.405000	21597.930000	-7971.795000	-4472.010000	2708.820000	13101.210000	10.352580	18.457507	16.793689	21.540238	-31.350838	-9.525609	7.685994	8.129857	-25.011140	-0.030520	-0.473060	0.937681	-0.117675	0.304076	-1.000000	-1.000000	-1.000000	-1.000000	-1.000000	-1.000000	-1.000000	80.827586	0.000000	-1.000000	-1.000000	1199165.000000	1770063894.531487
12572.505000	20308.860000	26566.830000	21618.585000	-8053.965000	-4523.265000	2699.505000	13104.900000	10.010933	12.562531	3.248428	-5.216337	-19.924477	-4.003378	7.189915	9.268695	-25.011140	-0.030520	-0.473060	0.937681	-0.117675	0.304076	-1.000000	-1.000000	-1.000000	-1.000000	-1.000000	-1.000000	-1.000000	80.827586	0.000000	-1.000000	-1.000000	1199166.000000	1770063894.531492
12576.330000	20335.860000	26599.410000	21639.645000	-8102.430000	-4559.670000	2697.345000	13100.760000	9.949051	8.333491	-1.693030	-16.906666	-7.241802	-1.857406	2.448985	7.916105	-25.011140	-0.030520	-0.473060	0.937681	-0.117675	0.304076	-1.000000	-1.000000	-1.000000	-1.000000	-1.000000	-1.000000	-1.000000	80.827586	0.000000	-1.000000	-1.000000	1199167.000000	1770063894.534557
12565.890000	20291.760000	26556.120000	21610.845000	-8141.445000	-4514.805000	2745.495000	13100.940000	11.775638	9.223657	2.719802	-12.861211	9.671999	-0.337469	-3.577940	6.789369	-25.011140	-0.030520	-0.473060	0.937681	-0.117675	0.304076	-1.000000	-1.000000	-1.000000	-1.000000	-1.000000	-1.000000	-1.000000	80.827586	0.000000	-1.000000	-1.000000	1199168.000000	1770063894.534568
12574.530000	20291.580000	26567.955000	21644.955000	-8120.295000	-4484.700000	2755.305000	13105.035000	12.397271	9.820267	7.384521	-4.319752	29.952748	4.800670	-6.521061	6.275373	-25.011140	-0.030520	-0.473060	0.937681	-0.117675	0.304076	-1.000000	-1.000000	-1.000000	-1.000000	-1.000000	-1.000000	-1.000000	80.827586	0.000000	-1.000000	-1.000000	1199169.000000	1770063894.538519
12585.195000	20305.215000	26573.985000	21639.555000	-8021.430000	-4450.410000	2745.405000	13112.055000	9.052290	4.624574	4.540200	-1.506523	51.074646	15.191622	-4.913552	5.243455	-25.011140	-0.030520	-0.473060	0.937681	-0.117675	0.304076	-1.000000	-1.000000	-1.000000	-1.000000	-1.000000	-1.000000	-1.000000	80.827586	0.000000	-1.000000	-1.000000	1199170.000000	1770063894.538528
12627.585000	20366.505000	26634.735000	21682.125000	-7991.955000	-4460.985000	2724.030000	13128.480000	2.290905	-5.235550	-5.387907	-7.049513	66.720638	26.493206	-1.395781	2.566247	-15.061620	-2.426340	-1.632820	0.943235	-0.137939	0.320007	-1.000000	-1.000000	-1.000000	-1.000000	-1.000000	-1.000000	-1.000000	80.827586	0.000000	-1.000000	-1.000000	1199171.000000	1770063894.542447
12648.870000	20410.425000	26631.135000	21591.540000	-7904.565000	-4474.935000	2717.280000	13145.670000	-4.759393	-13.141559	-14.902548	-15.640293	66.945886	29.710314	0.215296	-1.688781	-15.061620	-2.426340	-1.632820	0.943235	-0.137939	0.320007	-1.000000	-1.000000	-1.000000	-1.000000	-1.000000	-1.000000	-1.000000	80.827586	0.000000	-1.000000	-1.000000	1199172.000000	1770063894.542455
12638.610000	20380.050000	26602.650000	21566.520000	-7822.395000	-4444.065000	2737.080000	13146.930000	-9.082761	-13.049600	-16.059484	-19.036554	48.387008	18.788444	-1.749269	-6.017203	-15.061620	-2.426340	-1.632820	0.943235	-0.137939	0.320007	-1.000000	-1.000000	-1.000000	-1.000000	-1.000000	-1.000000	-1.000000	80.827586	0.000000	-1.000000	-1.000000	1199173.000000	1770063894.546453
12555.675000	20263.635000	26519.130000	21575.970000	-7735.320000	-4361.355000	2727.135000	13098.195000	-10.999603	-7.510483	-9.680637	-13.248125	21.054063	0.279933	-4.951506	-8.954967	-15.061620	-2.426340	-1.632820	0.943235	-0.137939	0.320007	-1.000000	-1.000000	-1.000000	-1.000000	-1.000000	-1.000000	-1.000000	80.827586	0.000000	-1.000000	-1.000000	1199174.000000	1770063894.546460
12542.850000	20253.240000	26514.405000	21603.735000	-7710.120000	-4362.300000	2685.060000	13086.855000	-13.542077	-5.950771	-4.681780	-0.423046	-1.745604	-11.202989	-6.128273	-10.609668	-15.061620	-2.426340	-1.632820	0.943235	-0.137939	0.320007	-1.000000	-1.000000	-1.000000	-1.000000	-1.000000	-1.000000	-1.000000	80.827586	0.000000	-1.000000	-1.000000	1199175.000000	1770063894.551664
12554.010000	20248.020000	26501.715000	21595.635000	-7787.250000	-4424.580000	2671.875000	13092.390000	-16.212413	-10.981362	-5.502311	13.754323	-17.667672	-11.240723	-5.582422	-10.690277	-15.061620	-2.426340	-1.632820	0.943235	-0.137939	0.320007	-1.000000	-1.000000	-1.000000	-1.000000	-1.000000	-1.000000	-1.000000	80.827586	0.000000	-1.000000	-1.000000	1199176.000000	1770063894.551674
12562.920000	20269.485000	26532.045000	21634.380000	-7788.780000	-4414.545000	2697.210000	13088.385000	-13.821089	-13.965507	-6.624832	23.352034	-33.359594	-9.575976	-5.039125	-7.413842	-15.061620	-2.426340	-1.632820	0.943235	-0.137939	0.320007	-1.000000	-1.000000	-1.000000	-1.000000	-1.000000	-1.000000	-1.000000	80.827586	0.000000	-1.000000	-1.000000	1199177.000000	1770063894.554440
12526.335000	20288.340000	26551.755000	21632.760000	-7803.315000	-4410.000000	2710.845000	13077.675000	-4.499259	-6.669992	-1.180968	24.572772	-51.093954	-14.113023	-3.358908	-0.888480	-15.061620	-2.426340	-1.632820	0.943235	-0.137939	0.320007	-1.000000	-1.000000	-1.000000	-1.000000	-1.000000	-1.000000	-1.000000	80.827586	0.000000	-1.000000	-1.000000	1199178.000000	1770063894.554446
12532.365000	20316.420000	26565.795000	21621.555000	-7875.405000	-4468.230000	2677.995000	13068.945000	6.369825	8.624428	9.639174	15.895067	-66.217588	-22.233414	1.514354	5.501163	-15.061620	-2.426340	-1.632820	0.943235	-0.137939	0.320007	-1.000000	-1.000000	-1.000000	-1.000000	-1.000000	-1.000000	-1.000000	80.827586	0.000000	-1.000000	-1.000000	1199179.000000	1770063894.564857
12548.700000	20298.960000	26548.740000	21602.070000	-7925.220000	-4492.035000	2676.555000	13086.000000	12.297923	21.047308	17.477168	-0.312624	-73.238812	-27.230890	8.218669	8.341640	-15.061620	-2.426340	-1.632820	0.943235	-0.137939	0.320007	-1.000000	-1.000000	-1.000000	-1.000000	-1.000000	-1.000000	-1.000000	80.827586	0.000000	-1.000000	-1.000000	1199180.000000	1770063894.564866
12540.690000	20277.000000	26530.380000	21590.505000	-7930.260000	-4485.105000	2686.950000	13080.555000	11.863554	21.263957	16.358644	-15.041744	-67.046430	-24.186828	12.833656	7.134461	1.678600	-1.434440	2.060100	0.945249	-0.149292	0.325927	-1.000000	-1.000000	-1.000000	-1.000000	-1.000000	-1.000000	-1.000000	80.827586	0.000000	-1.000000	-1.000000	1199181.000000	1770063894.564875
12548.520000	20286.090000	26540.910000	21600.945000	-7896.330000	-4456.080000	2698.245000	13089.330000	8.708196	11.022390	9.140917	-18.520041	-43.253737	-11.794461	12.829864	4.330573	1.678600	-1.434440	2.060100	0.945249	-0.149292	0.325927	-1.000000	-1.000000	-1.000000	-1.000000	-1.000000	-1.000000	-1.000000	80.827586	0.000000	-1.000000	-1.000000	1199182.000000	1770063894.564880
12554.460000	20294.100000	26554.995000	21623.805000	-7852.680000	-4410.180000	2713.185000	13100.940000	7.976463	1.452919	3.401478	-10.172189	-2.505607	6.914295	9.252456	3.547976	1.678600	-1.434440	2.060100	0.945249	-0.149292	0.325927	-1.000000	-1.000000	-1.000000	-1.000000	-1.000000	-1.000000	-1.000000	80.827586	0.000000	-1.000000	-1.000000	1199183.000000	1770063894.568132
12556.485000	20300.895000	26561.295000	21622.950000	-7871.805000	-4420.350000	2709.945000	13095.945000	10.880575	0.120204	2.736549	1.996698	45.323995	26.085698	5.303385	5.988033	1.678600	-1.434440	2.060100	0.945249	-0.149292	0.325927	-1.000000	-1.000000	-1.000000	-1.000000	-1.000000	-1.000000	-1.000000	80.827586	0.000000	-1.000000	-1.000000	1199184.000000	1770063894.568141
12563.910000	20307.510000	26563.095000	21614.895000	-7878.915000	-4419.405000	2713.635000	13092.120000	12.819932	4.053978	4.070261	9.361834	83.376593	38.807702	2.163116	8.363335	1.678600	-1.434440	2.060100	0.945249	-0.149292	0.325927	-1.000000	-1.000000	-1.000000	-1.000000	-1.000000	-1.000000	-1.000000	80.827586	0.000000	-1.000000	-1.000000	1199185.000000	1770063894.580081
12552.570000	20292.885000	26554.185000	21622.140000	-7866.495000	-4420.710000	2706.120000	13084.110000	8.925721	5.611753	2.156012	7.916018	96.344704	38.797787	-2.124054	6.548720	1.678600	-1.434440	2.060100	0.945249	-0.149292	0.325927	-1.000000	-1.000000	-1.000000	-1.000000	-1.000000	-1.000000	-1.000000	80.827586	0.000000	-1.000000	-1.000000	1199186.000000	1770063894.580094
12557.880000	20304.045000	26565.030000	21627.945000	-7876.845000	-4429.125000	2709.045000	13095.810000	-0.523073	0.090317	-5.234807	-0.186740	78.681182	24.620295	-8.293207	0.337838	1.678600	-1.434440	2.060100	0.945249	-0.149292	0.325927	-1.000000	-1.000000	-1.000000	-1.000000	-1.000000	-1.000000	-1.000000	80.827586	0.000000	-1.000000	-1.000000	1199187.000000	1770063894.580107
12584.385000	20339.280000	26591.265000	21633.210000	-7892.595000	-4448.070000	2699.055000	13106.385000	-10.899065	-10.491931	-14.754615	-8.450642	38.094517	2.777057	-13.011204	-6.675961	1.678600	-1.434440	2.060100	0.945249	-0.149292	0.325927	-1.000000	-1.000000	-1.000000	-1.000000	-1.000000	-1.000000	-1.000000	80.827586	0.000000	-1.000000	-1.000000	1199188.000000	1770063894.580112
12599.910000	20352.330000	26599.320000	21633.210000	-7912.845000	-4457.295000	2692.260000	13103.055000	-17.171798	-18.481763	-19.263649	-10.411111	-8.708463	-16.547904	-12.855490	-11.022644	1.678600	-1.434440	2.060100	0.945249	-0.149292	0.325927	-1.000000	-1.000000	-1.000000	-1.000000	-1.000000	-1.000000	-1.000000	80.827586	0.000000	-1.000000	-1.000000	1199189.000000	1770063894.582000
12563.460000	20286.135000	26545.860000	21605.265000	-7913.385000	-4437.090000	2709.945000	13099.815000	-17.177198	-18.073604	-14.751835	-4.463210	-45.568724	-26.672592	-8.361612	-11.673812	1.678600	-1.434440	2.060100	0.945249	-0.149292	0.325927	-1.000000	-1.000000	-1.000000	-1.000000	-1.000000	-1.000000	-1.000000	80.827586	0.000000	-1.000000	-1.000000	1199190.000000	1770063894.582012
12538.845000	20272.005000	26532.405000	21593.610000	-7902.720000	-4437.765000	2699.730000	13098.465000	-12.705100	-11.032710	-5.050054	3.881619	-63.055478	-26.858731	-2.344320	-9.056695	-1.541260	7.507920	-4.593260	0.953123	-0.132812	0.288940	-1.000000	-1.000000	-1.000000	-1.000000	-1.000000	-1.000000	-1.000000	80.827586	0.000000	-1.000000	-1.000000	1199191.000000	1770063894.582465
12534.885000	20276.235000	26528.175000	21579.120000	-7911.405000	-4438.575000	2684.430000	13093.155000	-7.029180	-2.575921	3.001807	7.032795	-59.249986	-20.329774	2.525862	-4.283899	-1.541260	7.507920	-4.593260	0.953123	-0.132812	0.288940	-1.000000	-1.000000	-1.000000	-1.000000	-1.000000	-1.000000	-1.000000	80.827586	0.000000	-1.000000	-1.000000	1199192.000000	1770063894.582471
12560.085000	20294.865000	26553.600000	21613.410000	-7955.640000	-4433.895000	2676.105000	13101.480000	-1.517920	4.546338	6.766998	3.596661	-38.604286	-10.313694	4.580871	1.011266	-1.541260	7.507920	-4.593260	0.953123	-0.132812	0.288940	-1.000000	-1.000000	-1.000000	-1.000000	-1.000000	-1.000000	-1.000000	80.827586	0.000000	-1.000000	-1.000000	1199193.000000	1770063894.588575
12562.425000	20306.925000	26568.900000	21627.630000	-8042.130000	-4437.990000	2663.145000	13097.430000	4.200159	9.977804	8.178674	-0.973921	-11.464934	1.049833	3.696933	5.417046	-1.541260	7.507920	-4.593260	0.953123	-0.132812	0.288940	-1.000000	-1.000000	-1.000000	-1.000000	-1.000000	-1.000000	-1.000000	80.827586	0.000000	-1.000000	-1.000000	1199194.000000	1770063894.588585
12571.110000	20341.035000	26610.075000	21659.580000	-8047.395000	-4453.605000	2635.515000	13091.535000	9.829855	13.652125	9.671142	-1.518333	9.585122	10.426881	0.868342	7.761815	-1.541260	7.507920	-4.593260	0.953123	-0.132812	0.288940	-1.000000	-1.000000	-1.000000	-1.000000	-1.000000	-1.000000	-1.000000	80.827586	0.000000	-1.000000	-1.000000	1199195.000000	1770063894.590842
12583.035000	20364.210000	26631.180000	21668.175000	-8018.010000	-4448.115000	2626.920000	13098.600000	13.430948	14.716754	11.283293	2.124778	19.613822	14.791563	-2.118233	7.091322	-1.541260	7.507920	-4.593260	0.953123	-0.132812	0.288940	-1.000000	-1.000000	-1.000000	-1.000000	-1.000000	-1.000000	-1.000000	80.827586	0.000000	-1.000000	-1.000000	1199196.000000	1770063894.590849
12583.710000	20352.105000	26617.185000	21648.555000	-7969.590000	-4464.855000	2601.270000	13104.810000	12.393436	11.300192	10.444601	6.250688	24.163712	14.317074	-3.158357	3.704651	-1.541260	7.507920	-4.593260	0.953123	-0.132812	0.288940	-1.000000	-1.000000	-1.000000	-1.000000	-1.000000	-1.000000	-1.000000	80.827586	0.000000	-1.000000	-1.000000	1199197.000000	1770063894.594454
12590.235000	20323.440000	26584.470000	21604.050000	-7944.030000	-4474.575000	2591.595000	13125.285000	6.262230	2.764296	4.770104	6.488023	29.038754	10.359053	-1.738465	-0.193068	-1.541260	7.507920	-4.593260	0.953123	-0.132812	0.288940	-1.000000	-1.000000	-1.000000	-1.000000	-1.000000	-1.000000	-1.000000	80.827586	0.000000	-1.000000	-1.000000	1199198.000000	1770063894.594462
12608.685000	20357.550000	26613.630000	21608.145000	-7891.335000	-4462.965000	2581.920000	13127.670000	-0.885777	-6.589996	-3.600116	1.476933	32.733043	3.638552	0.634564	-1.871842	-1.541260	7.507920	-4.593260	0.953123	-0.132812	0.288940	-1.000000	-1.000000	-1.000000	-1.000000	-1.000000	-1.000000	-1.000000	80.827586	0.000000	-1.000000	-1.000000	1199199.000000	1770063894.601517
12578.535000	20326.995000	26560.260000	21554.100000	-7827.570000	-4409.370000	2582.550000	13096.035000	-4.156740	-10.410790	-9.570358	-6.160936	30.409309	-3.265870	2.803344	-1.173986	-1.541260	7.507920	-4.593260	0.953123	-0.132812	0.288940	-1.000000	-1.000000	-1.000000	-1.000000	-1.000000	-1.000000	-1.000000	80.827586	0.000000	-1.000000	-1.000000	1199200.000000	1770063894.601528
12557.925000	20314.485000	26563.095000	21612.510000	-7859.700000	-4418.730000	2575.710000	13073.130000	-4.125105	-8.432938	-11.635721	-12.032331	20.086859	-5.987828	5.017718	-1.061410	-23.866640	13.779780	-1.052940	0.942625	-0.096802	0.261596	-1.000000	-1.000000	-1.000000	-1.000000	-1.000000	-1.000000	-1.000000	80.827586	0.000000	-1.000000	-1.000000	1199201.000000	1770063894.602437
12565.395000	20306.430000	26570.970000	21667.635000	-7906.770000	-4415.490000	2600.505000	13101.345000	-4.930418	-5.833203	-11.440579	-11.340501	3.182292	-3.588031	7.536693	-3.123906	-23.866640	13.779780	-1.052940	0.942625	-0.096802	0.261596	-1.000000	-1.000000	-1.000000	-1.000000	-1.000000	-1.000000	-1.000000	80.827586	0.000000	-1.000000	-1.000000	1199202.000000	1770063894.602446
12573.225000	20304.360000	26593.560000	21725.010000	-7881.840000	-4418.865000	2606.760000	13120.020000	-7.288805	-5.716767	-9.276421	-1.971858	-15.706999	0.298685	9.932220	-4.487459	-23.866640	13.779780	-1.052940	0.942625	-0.096802	0.261596	-1.000000	-1.000000	-1.000000	-1.000000	-1.000000	-1.000000	-1.000000	80.827586	0.000000	-1.000000	-1.000000	1199203.000000	1770063894.606414
12562.875000	20286.720000	26541.540000	21617.910000	-7897.770000	-4436.325000	2599.920000	13106.520000	-8.346533	-7.450352	-5.698796	9.929101	-29.768653	1.973629	11.035290	-2.169111	-23.866640	13.779780	-1.052940	0.942625	-0.096802	0.261596	-1.000000	-1.000000	-1.000000	-1.000000	-1.000000	-1.000000	-1.000000	80.827586	0.000000	-1.000000	-1.000000	1199204.000000	1770063894.606420
12552.030000	20268.990000	26503.785000	21530.070000	-7933.680000	-4434.750000	2612.745000	13097.610000	-6.834238	-9.289829	-3.747818	11.852785	-35.665375	0.486864	9.347513	1.900427	-23.866640	13.779780	-1.052940	0.942625	-0.096802	0.261596	-1.000000	-1.000000	-1.000000	-1.000000	-1.000000	-1.000000	-1.000000	80.827586	0.000000	-1.000000	-1.000000	1199205.000000	1770063894.610890
12550.680000	20279.835000	26526.060000	21536.730000	-7994.430000	-4459.680000	2616.345000	13091.805000	-3.906008	-8.484745	-3.854399	-0.590499	-35.838031	-2.692632	4.735174	3.448065	-23.866640	13.779780	-1.052940	0.942625	-0.096802	0.261596	-1.000000	-1.000000	-1.000000	-1.000000	-1.000000	-1.000000	-1.000000	80.827586	0.000000	-1.000000	-1.000000	1199206.000000	1770063894.610902
12539.790000	20271.780000	26533.485000	21556.980000	-8119.620000	-4472.955000	2646.855000	13084.470000	-0.508852	-1.932666	-0.887681	-15.319859	-34.582642	-5.793973	-1.081535	0.993732	-23.866640	13.779780	-1.052940	0.942625	-0.096802	0.261596	-1.000000	-1.000000	-1.000000	-1.000000	-1.000000	-1.000000	-1.000000	80.827586	0.000000	-1.000000	-1.000000	1199207.000000	1770063894.614517
12507.210000	20245.905000	26510.670000	21534.525000	-8182.485000	-4502.655000	2654.460000	13051.170000	2.749480	9.002093	7.922664	-17.462782	-34.171523	-8.613437	-5.854796	-3.476690	-23.866640	13.779780	-1.052940	0.942625	-0.096802	0.261596	-1.000000	-1.000000	-1.000000	-1.000000	-1.000000	-1.000000	-1.000000	80.827586	0.000000	-1.000000	-1.000000	1199208.000000	1770063894.614527
12557.655000	20314.215000	26561.250000	21603.735000	-8047.350000	-4428.945000	2665.890000	13073.850000	5.897843	18.927388	18.587511	-4.337311	-28.999333	-10.342469	-8.289447	-6.123459	-23.866640	13.779780	-1.052940	0.942625	-0.096802	0.261596	-1.000000	-1.000000	-1.000000	-1.000000	-1.000000	-1.000000	-1.000000	80.827586	0.000000	-1.000000	-1.000000	1199209.000000	1770063894.618536
12583.395000	20329.335000	26577.945000	21708.585000	-7874.865000	-4352.940000	2668.950000	13110.750000	10.439515	24.657893	25.653815	16.282437	-4.377262	-6.200078	-8.724523	-3.142601	-23.866640	13.779780	-1.052940	0.942625	-0.096802	0.261596	-1.000000	-1.000000	-1.000000	-1.000000	-1.000000	-1.000000	-1.000000	80.827586	0.000000	-1.000000	-1.000000	1199210.000000	1770063894.618544
12612.330000	20369.205000	26628.660000	21745.035000	-7872.660000	-4455.900000	2613.420000	13130.280000	15.951983	25.115456	25.374233	32.904026	44.097011	5.510064	-9.309551	5.294704	-37.264920	5.524120	3.631880	0.922788	-0.090515	0.283386	-1.000000	-1.000000	-1.000000	-1.000000	-1.000000	-1.000000	-1.000000	80.827586	0.000000	-1.000000	-1.000000	1199211.000000	1770063894.622583
12608.595000	20341.530000	26579.610000	21626.280000	-7816.725000	-4405.230000	2642.265000	13137.930000	18.179304	18.563392	15.987345	33.848680	92.889095	16.487008	-11.623476	13.646635	-37.264920	5.524120	3.631880	0.922788	-0.090515	0.283386	-1.000000	-1.000000	-1.000000	-1.000000	-1.000000	-1.000000	-1.000000	80.827586	0.000000	-1.000000	-1.000000	1199212.000000	1770063894.622593
12581.595000	20306.160000	26566.740000	21621.375000	-7850.520000	-4388.985000	2631.735000	13112.730000	12.804265	4.038571	-0.774061	15.229245	108.056014	19.197588	-12.991549	15.609217	-37.264920	5.524120	3.631880	0.922788	-0.090515	0.283386	-1.000000	-1.000000	-1.000000	-1.000000	-1.000000	-1.000000	-1.000000	80.827586	0.000000	-1.000000	-1.000000	1199213.000000	1770063894.626661
12542.895000	20263.455000	26551.710000	21570.705000	-8009.550000	-4482.000000	2621.970000	13088.655000	-0.681445	-15.723121	-18.599751	-12.135465	73.689312	13.477277	-9.759596	8.679698	-37.264920	5.524120	3.631880	0.922788	-0.090515	0.283386	-1.000000	-1.000000	-1.000000	-1.000000	-1.000000	-1.000000	-1.000000	80.827586	0.000000	-1.000000	-1.000000	1199214.000000	1770063894.626667
12570.750000	20325.060000	26595.900000	21547.035000	-8060.715000	-4536.270000	2615.760000	13082.625000	-16.988828	-32.285159	-29.096261	-32.548485	1.874983	0.408537	-2.721593	-4.351471	-37.264920	5.524120	3.631880	0.922788	-0.090515	0.283386	-1.000000	-1.000000	-1.000000	-1.000000	-1.000000	-1.000000	-1.000000	80.827586	0.000000	-1.000000	-1.000000	1199215.000000	1770063894.630543
12606.885000	20361.015000	26576.955000	21510.945000	-7941.915000	-4447.350000	2653.290000	13103.460000	-26.085020	-34.565598	-27.266629	-38.619069	-69.815061	-14.877244	4.798697	-15.984845	-37.264920	5.524120	3.631880	0.922788	-0.090515	0.283386	-1.000000	-1.000000	-1.000000	-1.000000	-1.000000	-1.000000	-1.000000	80.827586	0.000000	-1.000000	-1.000000	1199216.000000	1770063894.630552
12587.085000	20318.040000	26540.280000	21577.770000	-8038.845000	-4455.090000	2670.165000	13114.530000	-21.181116	-19.721750	-15.761577	-30.189880	-102.334215	-21.576608	10.976690	-18.318806	-37.264920	5.524120	3.631880	0.922788	-0.090515	0.283386	-1.000000	-1.000000	-1.000000	-1.000000	-1.000000	-1.000000	-1.000000	80.827586	0.000000	-1.000000	-1.000000	1199217.000000	1770063894.634658
12605.760000	20317.950000	26536.095000	21545.235000	-8175.015000	-4444.515000	2691.945000	13151.970000	-6.597374	0.939834	-3.261684	-11.953965	-91.042213	-15.991815	15.170966	-9.652077	-37.264920	5.524120	3.631880	0.922788	-0.090515	0.283386	-1.000000	-1.000000	-1.000000	-1.000000	-1.000000	-1.000000	-1.000000	80.827586	0.000000	-1.000000	-1.000000	1199218.000000	1770063894.634668
12609.405000	20337.930000	26587.035000	21613.005000	-8191.440000	-4431.510000	2689.650000	13147.380000	6.758091	13.462109	3.780824	5.734607	-61.235709	-4.911837	16.318540	3.456902	-37.264920	5.524120	3.631880	0.922788	-0.090515	0.283386	-1.000000	-1.000000	-1.000000	-1.000000	-1.000000	-1.000000	-1.000000	80.827586	0.000000	-1.000000	-1.000000	1199219.000000	1770063894.638553
12570.030000	20306.565000	26575.830000	21670.695000	-7991.820000	-4420.980000	2670.795000	13117.410000	11.182320	13.714264	5.973363	16.359102	-28.314652	5.943199	13.326302	11.216674	-37.264920	5.524120	3.631880	0.922788	-0.090515	0.283386	-1.000000	-1.000000	-1.000000	-1.000000	-1.000000	-1.000000	-1.000000	80.827586	0.000000	-1.000000	-1.000000	1199220.000000	1770063894.638561
12581.235000	20329.965000	26558.415000	21587.040000	-7828.605000	-4486.275000	2632.545000	13107.105000	6.344142	6.746214	6.945564	22.752425	13.561799	13.316994	5.369828	8.540637	-11.628120	1.266580	0.961380	0.926939	-0.145080	0.300780	-1.000000	-1.000000	-1.000000	-1.000000	-1.000000	-1.000000	-1.000000	80.827586	0.000000	-1.000000	-1.000000	1199221.000000	1770063894.646206
12570.165000	20297.295000	26504.910000	21505.455000	-7779.240000	-4451.715000	2613.420000	13085.955000	-1.197996	0.821510	8.065976	25.472099	65.812623	13.343037	-6.743979	-0.892920	-11.628120	1.266580	0.961380	0.926939	-0.145080	0.300780	-1.000000	-1.000000	-1.000000	-1.000000	-1.000000	-1.000000	-1.000000	80.827586	0.000000	-1.000000	-1.000000	1199222.000000	1770063894.646212
12571.920000	20317.410000	26557.290000	21595.860000	-7827.705000	-4420.395000	2624.535000	13073.040000	-4.041130	0.578514	8.194780	21.066485	109.275423	8.972121	-17.936229	-9.017971	-11.628120	1.266580	0.961380	0.926939	-0.145080	0.300780	-1.000000	-1.000000	-1.000000	-1.000000	-1.000000	-1.000000	-1.000000	80.827586	0.000000	-1.000000	-1.000000	1199223.000000	1770063894.646592
12547.170000	20287.170000	26548.470000	21630.555000	-7933.410000	-4448.070000	2633.985000	13058.460000	-1.394096	3.254936	6.892672	13.006923	114.923266	7.236370	-21.462649	-10.826338	-11.628120	1.266580	0.961380	0.926939	-0.145080	0.300780	-1.000000	-1.000000	-1.000000	-1.000000	-1.000000	-1.000000	-1.000000	80.827586	0.000000	-1.000000	-1.000000	1199224.000000	1770063894.646597
12463.425000	20173.635000	26439.120000	21540.645000	-8186.580000	-4574.970000	2657.970000	13037.985000	0.924162	1.819953	3.800391	6.123514	64.752450	4.813182	-15.227151	-6.942116	-11.628120	1.266580	0.961380	0.926939	-0.145080	0.300780	-1.000000	-1.000000	-1.000000	-1.000000	-1.000000	-1.000000	-1.000000	80.827586	0.000000	-1.000000	-1.000000	1199225.000000	1770063894.650534
12445.470000	20144.655000	26352.720000	21346.785000	-8390.520000	-4554.855000	2737.485000	13057.470000	-2.222489	-7.250325	-3.524312	-5.815186	-29.525098	-6.914674	-2.171336	-0.924344	-11.628120	1.266580	0.961380	0.926939	-0.145080	0.300780	-1.000000	-1.000000	-1.000000	-1.000000	-1.000000	-1.000000	-1.000000	80.827586	0.000000	-1.000000	-1.000000	1199226.000000	1770063894.650544
12620.880000	20405.295000	26676.900000	21731.040000	-8110.260000	-4441.275000	2736.405000	13142.295000	-6.581061	-14.937883	-10.840927	-24.918819	-118.695783	-22.568939	12.819727	5.272010	-11.628120	1.266580	0.961380	0.926939	-0.145080	0.300780	-1.000000	-1.000000	-1.000000	-1.000000	-1.000000	-1.000000	-1.000000	80.827586	0.000000	-1.000000	-1.000000	1199227.000000	1770063894.654526
12739.770000	20564.145000	26829.900000	21854.610000	-7796.925000	-4393.890000	2640.150000	13200.435000	0.228226	-3.668610	-2.804748	-31.374828	-140.046814	-24.892371	22.039582	12.898001	-11.628120	1.266580	0.961380	0.926939	-0.145080	0.300780	-1.000000	-1.000000	-1.000000	-1.000000	-1.000000	-1.000000	-1.000000	80.827586	0.000000	-1.000000	-1.000000	1199228.000000	1770063894.654532
12625.065000	20385.495000	26593.380000	21521.430000	-7926.930000	-4499.280000	2625.345000	13123.395000	20.219494	26.354703	21.752843	-14.098853	-76.941668	-8.326934	18.001782	20.705674	-11.628120	1.266580	0.961380	0.926939	-0.145080	0.300780	-1.000000	-1.000000	-1.000000	-1.000000	-1.000000	-1.000000	-1.000000	80.827586	0.000000	-1.000000	-1.000000	1199229.000000	1770063894.661469
12524.130000	20228.985000	26426.565000	21343.005000	-7920.450000	-4486.185000	2636.955000	13064.445000	34.126968	45.235455	34.787343	3.456540	17.070079	12.989492	3.082130	20.722380	-11.628120	1.266580	0.961380	0.926939	-0.145080	0.300780	-1.000000	-1.000000	-1.000000	-1.000000	-1.000000	-1.000000	-1.000000	80.827586	0.000000	-1.000000	-1.000000	1199230.000000	1770063894.661482
12504.150000	20193.975000	26416.260000	21405.555000	-7988.670000	-4429.620000	2638.260000	13050.900000	22.893875	26.880696	13.567918	-0.265674	76.076743	24.219168	-10.995829	7.543440	34.243440	8.545600	-3.860780	0.942808	-0.185852	0.301391	-1.000000	-1.000000	-1.000000	-1.000000	-1.000000	-1.000000	-1.000000	80.827586	0.000000	-1.000000	-1.000000	1199231.000000	1770063894.670539
12527.955000	20248.020000	26509.455000	21551.130000	-8137.980000	-4476.105000	2642.805000	13061.565000	-8.019478	-17.974225	-27.748987	-13.558600	77.236358	22.659870	-15.464001	-12.043506	34.243440	8.545600	-3.860780	0.942808	-0.185852	0.301391	-1.000000	-1.000000	-1.000000	-1.000000	-1.000000	-1.000000	-1.000000	80.827586	0.000000	-1.000000	-1.000000	1199232.000000	1770063894.670549
12601.620000	20360.205000	26637.795000	21697.020000	-7936.290000	-4471.065000	2637.900000	13122.720000	-34.210984	-52.475666	-52.546051	-10.762120	41.071361	12.396181	-10.941520	-24.193170	34.243440	8.545600	-3.860780	0.942808	-0.185852	0.301391	-1.000000	-1.000000	-1.000000	-1.000000	-1.000000	-1.000000	-1.000000	80.827586	0.000000	-1.000000	-1.000000	1199233.000000	1770063894.670559
12631.950000	20366.820000	26602.380000	21624.165000	-7818.930000	-4427.730000	2669.490000	13176.180000	-34.779937	-47.701139	-36.717317	16.986542	11.217153	0.955246	-3.466810	-19.650834	34.243440	8.545600	-3.860780	0.942808	-0.185852	0.301391	-1.000000	-1.000000	-1.000000	-1.000000	-1.000000	-1.000000	-1.000000	80.827586	0.000000	-1.000000	-1.000000	1199234.000000	1770063894.670564
12584.385000	20320.380000	26552.700000	21591.180000	-7954.695000	-4445.370000	2671.425000	13153.230000	-11.631673	-9.733070	6.795737	49.589663	13.463636	-5.539749	1.478650	-2.569012	34.243440	8.545600	-3.860780	0.942808	-0.185852	0.301391	-1.000000	-1.000000	-1.000000	-1.000000	-1.000000	-1.000000	-1.000000	80.827586	0.000000	-1.000000	-1.000000	1199235.000000	1770063894.670570
12542.085000	20272.365000	26500.320000	21539.655000	-7967.070000	-4476.330000	2642.265000	13118.760000	10.183667	23.718551	36.101794	51.454574	22.998794	-10.438871	2.533313	10.752658	34.243440	8.545600	-3.860780	0.942808	-0.185852	0.301391	-1.000000	-1.000000	-1.000000	-1.000000	-1.000000	-1.000000	-1.000000	80.827586	0.000000	-1.000000	-1.000000	1199236.000000	1770063894.670574
12481.650000	20215.440000	26460.090000	21494.790000	-8019.270000	-4479.885000	2621.880000	13031.595000	8.832320	22.295253	23.441278	8.872058	0.038176	-18.510470	2.632073	7.091599	34.243440	8.545600	-3.860780	0.942808	-0.185852	0.301391	-1.000000	-1.000000	-1.000000	-1.000000	-1.000000	-1.000000	-1.000000	80.827586	0.000000	-1.000000	-1.000000	1199237.000000	1770063894.674630
12520.170000	20262.510000	26532.315000	21621.600000	-8073.675000	-4512.600000	2616.390000	13045.635000	-9.190342	-3.680570	-11.612601	-43.313082	-53.701751	-24.241371	4.567983	-9.235189	34.243440	8.545600	-3.860780	0.942808	-0.185852	0.301391	-1.000000	-1.000000	-1.000000	-1.000000	-1.000000	-1.000000	-1.000000	80.827586	0.000000	-1.000000	-1.000000	1199238.000000	1770063894.674640
12532.230000	20250.270000	26476.920000	21548.970000	-8179.695000	-4465.575000	2640.060000	13065.570000	-18.387742	-18.767581	-26.826334	-55.343472	-98.981445	-19.447602	7.507643	-20.223771	34.243440	8.545600	-3.860780	0.942808	-0.185852	0.301391	-1.000000	-1.000000	-1.000000	-1.000000	-1.000000	-1.000000	-1.000000	80.827586	0.000000	-1.000000	-1.000000	1199239.000000	1770063894.680857
12561.705000	20300.130000	26538.390000	21674.115000	-8118.450000	-4470.120000	2642.940000	13079.835000	-5.018189	-5.229055	-8.304073	-21.157169	-99.629937	-4.689044	9.071799	-13.178149	34.243440	8.545600	-3.860780	0.942808	-0.185852	0.301391	-1.000000	-1.000000	-1.000000	-1.000000	-1.000000	-1.000000	-1.000000	80.827586	0.000000	-1.000000	-1.000000	1199240.000000	1770063894.680868
12589.605000	20309.040000	26555.805000	21684.960000	-7890.120000	-4471.785000	2653.200000	13109.400000	20.524962	22.444319	21.758668	22.282343	-44.322733	12.527826	7.740552	7.317715	38.729880	18.281480	-8.820280	0.950315	-0.151855	0.278808	-1.000000	-1.000000	-1.000000	-1.000000	-1.000000	-1.000000	-1.000000	80.827586	0.000000	-1.000000	-1.000000	1199241.000000	1770063894.682496
12583.305000	20294.370000	26547.435000	21477.870000	-7962.255000	-4472.010000	2658.510000	13103.280000	37.858323	38.590666	36.338583	37.332699	43.967572	24.342219	3.241249	25.661241	38.729880	18.281480	-8.820280	0.950315	-0.151855	0.278808	-1.000000	-1.000000	-1.000000	-1.000000	-1.000000	-1.000000	-1.000000	80.827586	0.000000	-1.000000	-1.000000	1199242.000000	1770063894.682501
12616.650000	20310.165000	26585.415000	21442.320000	-8007.660000	-4438.305000	2696.175000	13133.655000	35.171125	31.014272	28.003417	13.819289	113.948433	26.111534	-3.237007	29.127711	38.729880	18.281480	-8.820280	0.950315	-0.151855	0.278808	-1.000000	-1.000000	-1.000000	-1.000000	-1.000000	-1.000000	-1.000000	80.827586	0.000000	-1.000000	-1.000000	1199243.000000	1770063894.686542
12618.630000	20298.780000	26596.305000	21587.670000	-7794.090000	-4381.605000	2760.795000	13132.980000	15.886969	6.616133	7.485912	-25.439861	127.806820	18.744954	-7.835071	17.104097	38.729880	18.281480	-8.820280	0.950315	-0.151855	0.278808	-1.000000	-1.000000	-1.000000	-1.000000	-1.000000	-1.000000	-1.000000	80.827586	0.000000	-1.000000	-1.000000	1199244.000000	1770063894.686550
12577.050000	20305.170000	26509.230000	21481.830000	-7692.165000	-4296.690000	2816.730000	13088.610000	-8.383924	-19.435508	-13.428119	-47.084795	90.688539	9.074945	-4.653620	-1.153013	38.729880	18.281480	-8.820280	0.950315	-0.151855	0.278808	-1.000000	-1.000000	-1.000000	-1.000000	-1.000000	-1.000000	-1.000000	80.827586	0.000000	-1.000000	-1.000000	1199245.000000	1770063894.690576
12454.785000	20295.180000	26496.630000	21541.365000	-7821.000000	-4386.285000	2726.595000	12902.895000	-28.174970	-33.493584	-28.637242	-36.584792	29.775706	3.078491	5.834224	-17.378798	38.729880	18.281480	-8.820280	0.950315	-0.151855	0.278808	-1.000000	-1.000000	-1.000000	-1.000000	-1.000000	-1.000000	-1.000000	80.827586	0.000000	-1.000000	-1.000000	1199246.000000	1770063894.690588
12434.805000	20305.350000	26508.105000	21521.520000	-7995.825000	-4540.275000	2603.835000	12841.065000	-39.394119	-29.257028	-32.604835	-2.243775	-33.850542	-3.601233	10.797618	-30.109387	38.729880	18.281480	-8.820280	0.950315	-0.151855	0.278808	-1.000000	-1.000000	-1.000000	-1.000000	-1.000000	-1.000000	-1.000000	80.827586	0.000000	-1.000000	-1.000000	1199247.000000	1770063894.694545
12456.315000	20266.560000	26499.150000	21526.020000	-8138.745000	-4489.245000	2602.395000	12943.845000	-39.355003	-12.047715	-22.338750	34.838226	-86.736021	-18.831933	-1.437796	-36.280060	38.729880	18.281480	-8.820280	0.950315	-0.151855	0.278808	-1.000000	-1.000000	-1.000000	-1.000000	-1.000000	-1.000000	-1.000000	80.827586	0.000000	-1.000000	-1.000000	1199248.000000	1770063894.694552
12520.215000	20256.120000	26553.330000	21703.410000	-8143.245000	-4477.185000	2625.480000	13129.200000	-25.305832	4.490880	-3.567957	53.776082	-115.986889	-36.091375	-23.746769	-24.720160	38.729880	18.281480	-8.820280	0.950315	-0.151855	0.278808	-1.000000	-1.000000	-1.000000	-1.000000	-1.000000	-1.000000	-1.000000	80.827586	0.000000	-1.000000	-1.000000	1199249.000000	1770063894.698500
12586.635000	20293.335000	26522.280000	21543.570000	-8069.670000	-4649.265000	2604.690000	13182.795000	0.805410	10.269212	12.475127	47.119458	-111.260304	-41.157624	-36.963524	9.514452	38.729880	18.281480	-8.820280	0.950315	-0.151855	0.278808	-1.000000	-1.000000	-1.000000	-1.000000	-1.000000	-1.000000	-1.000000	80.827586	0.000000	-1.000000	-1.000000	1199250.000000	1770063894.698507
12607.245000	20259.810000	26401.185000	21298.185000	-7859.700000	-4502.070000	2657.655000	13167.135000	29.652740	6.709632	16.639928	19.212943	-66.699739	-30.267944	-29.994452	49.325461	24.187100	8.774500	5.112100	0.927366	-0.093323	0.319579	-1.000000	-1.000000	-1.000000	-1.000000	-1.000000	-1.000000	-1.000000	80.827586	0.000000	-1.000000	-1.000000	1199251.000000	1770063894.708866
12607.245000	20268.945000	26475.345000	21442.455000	-8084.655000	-4539.735000	2666.970000	13192.425000	47.601671	0.758255	7.336574	-19.002311	8.032360	-7.491667	-6.805912	66.881421	24.187100	8.774500	5.112100	0.927366	-0.093323	0.319579	-1.000000	-1.000000	-1.000000	-1.000000	-1.000000	-1.000000	-1.000000	80.827586	0.000000	-1.000000	-1.000000	1199252.000000	1770063894.708878
12531.060000	20203.425000	26452.035000	21474.495000	-8241.480000	-4543.290000	2695.050000	13154.310000	44.001415	-3.637122	-5.984707	-48.042919	70.689995	18.000537	19.358907	49.330769	24.187100	8.774500	5.112100	0.927366	-0.093323	0.319579	-1.000000	-1.000000	-1.000000	-1.000000	-1.000000	-1.000000	-1.000000	80.827586	0.000000	-1.000000	-1.000000	1199253.000000	1770063894.708894
12494.655000	20250.990000	26529.795000	21621.645000	-8086.995000	-4503.015000	2667.510000	13105.665000	19.980256	-5.088762	-8.847503	-47.608745	81.051269	34.131838	35.533131	8.252773	24.187100	8.774500	5.112100	0.927366	-0.093323	0.319579	-1.000000	-1.000000	-1.000000	-1.000000	-1.000000	-1.000000	-1.000000	80.827586	0.000000	-1.000000	-1.000000	1199254.000000	1770063894.708899
12557.385000	20349.405000	26608.005000	21647.835000	-8141.940000	-4592.970000	2673.945000	13125.195000	-8.675246	-0.212267	5.632584	-14.197585	51.771668	37.638341	37.584519	-30.488847	24.187100	8.774500	5.112100	0.927366	-0.093323	0.319579	-1.000000	-1.000000	-1.000000	-1.000000	-1.000000	-1.000000	-1.000000	80.827586	0.000000	-1.000000	-1.000000	1199255.000000	1770063894.710717
12573.045000	20396.745000	26636.940000	21656.520000	-8080.335000	-4570.335000	2669.130000	13084.020000	-23.400413	13.613891	29.733644	31.269460	25.957091	32.981926	30.346914	-46.994218	24.187100	8.774500	5.112100	0.927366	-0.093323	0.319579	-1.000000	-1.000000	-1.000000	-1.000000	-1.000000	-1.000000	-1.000000	80.827586	0.000000	-1.000000	-1.000000	1199256.000000	1770063894.710723
12552.120000	20370.870000	26595.630000	21613.905000	-7839.855000	-4401.360000	2698.650000	13047.165000	-20.724875	29.727726	44.482186	56.323431	28.671792	25.033033	19.102511	-43.788441	24.187100	8.774500	5.112100	0.927366	-0.093323	0.319579	-1.000000	-1.000000	-1.000000	-1.000000	-1.000000	-1.000000	-1.000000	80.827586	0.000000	-1.000000	-1.000000	1199257.000000	1770063894.718381
12529.530000	20322.630000	26562.555000	21599.460000	-7950.915000	-4504.680000	2672.145000	12994.920000	-13.114424	33.283592	33.148209	40.951009	50.257228	17.735568	4.922553	-38.064899	24.187100	8.774500	5.112100	0.927366	-0.093323	0.319579	-1.000000	-1.000000	-1.000000	-1.000000	-1.000000	-1.000000	-1.000000	80.827586	0.000000	-1.000000	-1.000000	1199258.000000	1770063894.718392
12545.955000	20300.985000	26515.665000	21541.410000	-7806.555000	-4457.835000	2672.595000	13048.560000	-12.161339	15.182109	-2.405941	-2.227959	56.081523	10.325688	-11.635399	-37.070743	24.187100	8.774500	5.112100	0.927366	-0.093323	0.319579	-1.000000	-1.000000	-1.000000	-1.000000	-1.000000	-1.000000	-1.000000	80.827586	0.000000	-1.000000	-1.000000	1199259.000000	1770063894.718559
12519.405000	20165.580000	26334.990000	21350.205000	-7937.955000	-4477.680000	2692.080000	13142.880000	-17.123490	-18.328179	-43.042605	-40.057613	23.013432	-2.230665	-27.006062	-29.253733	24.187100	8.774500	5.112100	0.927366	-0.093323	0.319579	-1.000000	-1.000000	-1.000000	-1.000000	-1.000000	-1.000000	-1.000000	80.827586	0.000000	-1.000000	-1.000000	1199260.000000	1770063894.718570
12490.695000	20205.900000	26409.870000	21461.580000	-8036.730000	-4531.095000	2673.900000	13078.035000	-19.731516	-49.920432	-69.558617	-55.027362	-36.976497	-21.756853	-35.845233	-3.859751	21.684460	-2.227960	-2.075360	0.929746	-0.088257	0.346435	-1.000000	-1.000000	-1.000000	-1.000000	-1.000000	-1.000000	-1.000000	80.827586	0.000000	-1.000000	-1.000000	1199261.000000	1770063894.724029
12541.905000	20305.305000	26522.280000	21550.230000	-8082.540000	-4524.750000	2684.025000	13030.155000	-12.130901	-58.957347	-67.440530	-47.646428	-92.247613	-42.351099	-34.432940	30.445350	21.684460	-2.227960	-2.075360	0.929746	-0.088257	0.346435	-1.000000	-1.000000	-1.000000	-1.000000	-1.000000	-1.000000	-1.000000	80.827586	0.000000	-1.000000	-1.000000	1199262.000000	1770063894.724037
12574.125000	20248.605000	26459.190000	21429.810000	-8329.320000	-4614.300000	2727.810000	13102.425000	8.346702	-36.353921	-32.890153	-23.722015	-118.725560	-53.241884	-21.312539	56.379425	21.684460	-2.227960	-2.075360	0.929746	-0.088257	0.346435	-1.000000	-1.000000	-1.000000	-1.000000	-1.000000	-1.000000	-1.000000	80.827586	0.000000	-1.000000	-1.000000	1199263.000000	1770063894.728937
12622.275000	20301.300000	26525.205000	21500.595000	-8241.345000	-4549.455000	2725.650000	13165.065000	33.567001	2.522532	15.445206	3.478791	-108.646928	-45.013378	1.683770	65.901144	21.684460	-2.227960	-2.075360	0.929746	-0.088257	0.346435	-1.000000	-1.000000	-1.000000	-1.000000	-1.000000	-1.000000	-1.000000	80.827586	0.000000	-1.000000	-1.000000	1199264.000000	1770063894.728948
12641.805000	20399.670000	26635.860000	21626.910000	-8152.605000	-4385.520000	2749.365000	13205.295000	48.161983	34.690998	52.846570	25.002856	-61.927742	-15.517935	25.707030	59.089848	21.684460	-2.227960	-2.075360	0.929746	-0.088257	0.346435	-1.000000	-1.000000	-1.000000	-1.000000	-1.000000	-1.000000	-1.000000	80.827586	0.000000	-1.000000	-1.000000	1199265.000000	1770063894.730582
12519.630000	20318.490000	26551.530000	21530.925000	-8225.325000	-4528.260000	2702.655000	13062.555000	40.735310	49.545444	67.681242	40.154658	7.760775	22.678316	37.689373	35.438311	21.684460	-2.227960	-2.075360	0.929746	-0.088257	0.346435	-1.000000	-1.000000	-1.000000	-1.000000	-1.000000	-1.000000	-1.000000	80.689655	0.000000	-1.000000	-1.000000	1199266.000000	1770063894.730588
12488.805000	20260.260000	26490.285000	21470.175000	-7911.540000	-4519.305000	2689.965000	12936.555000	10.255592	44.114471	56.490983	43.469544	72.938339	47.154191	30.370137	-6.083011	21.684460	-2.227960	-2.075360	0.929746	-0.088257	0.346435	-1.000000	-1.000000	-1.000000	-1.000000	-1.000000	-1.000000	-1.000000	80.689655	0.000000	-1.000000	-1.000000	1199267.000000	1770063894.734617
12479.895000	20237.670000	26448.345000	21416.805000	-7814.565000	-4443.930000	2694.105000	12936.690000	-30.166349	20.960085	24.449827	32.156213	114.774816	46.592045	8.399114	-56.638697	21.684460	-2.227960	-2.075360	0.929746	-0.088257	0.346435	-1.000000	-1.000000	-1.000000	-1.000000	-1.000000	-1.000000	-1.000000	80.689655	0.000000	-1.000000	-1.000000	1199268.000000	1770063894.734629
12504.150000	20232.090000	26463.510000	21512.340000	-7874.775000	-4457.340000	2704.995000	13048.470000	-57.340028	-6.799676	-10.891544	15.353038	126.067981	28.435488	-15.333651	-91.596372	21.684460	-2.227960	-2.075360	0.929746	-0.088257	0.346435	-1.000000	-1.000000	-1.000000	-1.000000	-1.000000	-1.000000	-1.000000	80.689655	0.000000	-1.000000	-1.000000	1199269.000000	1770063894.738563
