Channel1	Channel2	Channel3	Channel4	Channel5	Channel6	Channel7	Channel8	FilteredChannel1	FilteredChannel2	FilteredChannel3	FilteredChannel4	FilteredChannel5	FilteredChannel6	FilteredChannel7	FilteredChannel8	GyroX	GyroY	GyroZ	AccX	AccY	AccZ	PPG1	PPG2	rawPPG1	rawPPG2	rawPPG3	Hr	Hrv	Battery	Trigger	PhysicalTrigger	AutoTrigger	NumMeasurements	Timestamp
12445.020000	20154.060000	26410.635000	21485.295000	-7945.875000	-4474.710000	2646.855000	13004.280000	0.478988	-3.295355	-3.780294	-2.449884	9.182267	5.274199	3.430488	11.451139	8.545600	5.508860	-0.015260	0.939756	-0.116638	0.320922	-1.000000	-1.000000	-1.000000	-1.000000	-1.000000	-1.000000	-1.000000	80.689655	0.000000	-1.000000	-1.000000	1193841.000000	1770063883.878464
12446.145000	20158.785000	26417.655000	21492.585000	-7928.460000	-4464.090000	2602.980000	12993.390000	1.354523	-5.542412	-5.801844	-3.927135	5.072434	2.428897	2.872755	8.842736	8.545600	5.508860	-0.015260	0.939756	-0.116638	0.320922	-1.000000	-1.000000	-1.000000	-1.000000	-1.000000	-1.000000	-1.000000	80.689655	0.000000	-1.000000	-1.000000	1193842.000000	1770063883.878474
12443.130000	20153.745000	26414.730000	21495.060000	-7909.425000	-4456.215000	2559.735000	12986.415000	2.403047	-5.054410	-4.888198	-2.876708	3.414285	0.903693	-0.555017	4.883470	8.545600	5.508860	-0.015260	0.939756	-0.116638	0.320922	-1.000000	-1.000000	-1.000000	-1.000000	-1.000000	-1.000000	-1.000000	80.689655	0.000000	-1.000000	-1.000000	1193843.000000	1770063883.881652
12463.155000	20174.265000	26434.620000	21510.945000	-7898.670000	-4436.190000	2647.215000	13014.225000	3.692160	-2.279252	-1.775892	-0.256439	4.021805	0.835861	-4.541413	1.147717	8.545600	5.508860	-0.015260	0.939756	-0.116638	0.320922	-1.000000	-1.000000	-1.000000	-1.000000	-1.000000	-1.000000	-1.000000	80.689655	0.000000	-1.000000	-1.000000	1193844.000000	1770063883.881660
12458.475000	20186.370000	26446.995000	21514.770000	-7922.205000	-4470.480000	2669.580000	13007.970000	4.315165	1.157480	1.621110	1.838793	2.422721	-0.171256	-3.458186	-0.907037	8.545600	5.508860	-0.015260	0.939756	-0.116638	0.320922	-1.000000	-1.000000	-1.000000	-1.000000	-1.000000	-1.000000	-1.000000	80.689655	0.000000	-1.000000	-1.000000	1193845.000000	1770063883.900655
12428.460000	20161.530000	26423.190000	21489.795000	-7961.715000	-4507.065000	2662.965000	12987.765000	2.946395	3.555317	3.631149	1.913347	-4.736049	-4.524544	4.382518	-1.578282	8.545600	5.508860	-0.015260	0.939756	-0.116638	0.320922	-1.000000	-1.000000	-1.000000	-1.000000	-1.000000	-1.000000	-1.000000	80.689655	0.000000	-1.000000	-1.000000	1193846.000000	1770063883.900668
12427.920000	20130.480000	26387.325000	21456.540000	-8002.305000	-4527.360000	2674.620000	13027.320000	-1.079680	2.617747	2.219262	-1.087237	-16.192943	-11.920820	12.688182	-2.599724	8.545600	5.508860	-0.015260	0.939756	-0.116638	0.320922	-1.000000	-1.000000	-1.000000	-1.000000	-1.000000	-1.000000	-1.000000	80.689655	0.000000	-1.000000	-1.000000	1193847.000000	1770063883.900681
12442.995000	20124.630000	26379.045000	21449.835000	-8016.705000	-4516.155000	2665.620000	13026.060000	-5.254765	-2.110943	-2.981444	-6.434779	-26.315104	-17.916822	14.294776	-3.266031	8.545600	5.508860	-0.015260	0.939756	-0.116638	0.320922	-1.000000	-1.000000	-1.000000	-1.000000	-1.000000	-1.000000	-1.000000	80.689655	0.000000	-1.000000	-1.000000	1193848.000000	1770063883.900687
12428.955000	20120.715000	26372.970000	21439.530000	-8036.010000	-4537.035000	2639.205000	12986.370000	-5.860099	-7.369564	-8.705011	-10.825499	-28.719361	-17.372939	7.028195	-2.539330	8.545600	5.508860	-0.015260	0.939756	-0.116638	0.320922	-1.000000	-1.000000	-1.000000	-1.000000	-1.000000	-1.000000	-1.000000	80.689655	0.000000	-1.000000	-1.000000	1193849.000000	1770063883.900693
12408.750000	20092.095000	26349.795000	21423.915000	-8030.880000	-4547.925000	2617.650000	12982.905000	-3.254685	-9.639347	-11.169481	-11.307600	-20.595627	-9.697214	-5.994145	-2.289189	8.545600	5.508860	-0.015260	0.939756	-0.116638	0.320922	-1.000000	-1.000000	-1.000000	-1.000000	-1.000000	-1.000000	-1.000000	80.689655	0.000000	-1.000000	-1.000000	1193850.000000	1770063883.900698
12434.670000	20110.005000	26370.630000	21449.655000	-7994.790000	-4515.075000	2637.765000	13033.080000	-0.452090	-7.905600	-8.964649	-7.170118	-3.631246	1.718260	-17.023032	-2.889143	6.561800	4.913720	0.595140	0.941221	-0.113647	0.323119	-1.000000	-1.000000	-1.000000	-1.000000	-1.000000	-1.000000	-1.000000	80.689655	0.000000	-1.000000	-1.000000	1193851.000000	1770063883.900704
12460.950000	20135.430000	26395.200000	21469.410000	-7976.385000	-4499.505000	2652.570000	13077.180000	1.999049	-2.098771	-2.021186	1.072927	16.920191	13.269813	-18.241783	-0.903561	6.561800	4.913720	0.595140	0.941221	-0.113647	0.323119	-1.000000	-1.000000	-1.000000	-1.000000	-1.000000	-1.000000	-1.000000	80.689655	0.000000	-1.000000	-1.000000	1193852.000000	1770063883.900709
12458.835000	20151.360000	26415.405000	21490.470000	-7955.055000	-4483.665000	2662.830000	13055.400000	4.726712	6.655429	7.997249	11.156375	33.301977	21.604717	-9.908836	4.554853	6.561800	4.913720	0.595140	0.941221	-0.113647	0.323119	-1.000000	-1.000000	-1.000000	-1.000000	-1.000000	-1.000000	-1.000000	80.689655	0.000000	-1.000000	-1.000000	1193853.000000	1770063883.905806
12446.190000	20182.500000	26440.425000	21508.110000	-7941.690000	-4476.555000	2656.890000	13001.445000	6.356784	14.937558	17.010676	19.019493	39.227151	24.216380	0.230986	7.981416	6.561800	4.913720	0.595140	0.941221	-0.113647	0.323119	-1.000000	-1.000000	-1.000000	-1.000000	-1.000000	-1.000000	-1.000000	80.689655	0.000000	-1.000000	-1.000000	1193854.000000	1770063883.905814
12459.510000	20179.395000	26430.345000	21496.995000	-7950.600000	-4485.870000	2648.520000	13008.375000	5.527768	19.333202	21.081739	21.303988	33.424418	20.788266	5.941281	3.881513	6.561800	4.913720	0.595140	0.941221	-0.113647	0.323119	-1.000000	-1.000000	-1.000000	-1.000000	-1.000000	-1.000000	-1.000000	80.689655	0.000000	-1.000000	-1.000000	1193855.000000	1770063883.908186
12413.700000	20125.440000	26383.905000	21463.650000	-7963.695000	-4495.545000	2640.510000	12982.860000	2.386989	17.364185	17.857540	16.460447	18.579079	11.975514	6.199539	-6.305424	6.561800	4.913720	0.595140	0.941221	-0.113647	0.323119	-1.000000	-1.000000	-1.000000	-1.000000	-1.000000	-1.000000	-1.000000	80.689655	0.000000	-1.000000	-1.000000	1193856.000000	1770063883.908206
12441.195000	20125.035000	26379.090000	21455.730000	-7975.890000	-4502.565000	2635.110000	13011.300000	-2.448291	7.628611	6.946342	4.977590	-0.787068	-0.898348	3.292271	-15.213255	6.561800	4.913720	0.595140	0.941221	-0.113647	0.323119	-1.000000	-1.000000	-1.000000	-1.000000	-1.000000	-1.000000	-1.000000	80.689655	0.000000	-1.000000	-1.000000	1193857.000000	1770063883.911242
12432.735000	20125.665000	26386.335000	21465.315000	-7969.410000	-4486.995000	2649.870000	13014.855000	-6.692386	-6.726053	-7.692100	-9.036516	-18.876260	-13.842558	1.047324	-14.990801	6.561800	4.913720	0.595140	0.941221	-0.113647	0.323119	-1.000000	-1.000000	-1.000000	-1.000000	-1.000000	-1.000000	-1.000000	80.689655	0.000000	-1.000000	-1.000000	1193858.000000	1770063883.911253
12423.465000	20125.755000	26387.595000	21465.180000	-7971.615000	-4494.780000	2646.090000	13006.080000	-7.518948	-18.103779	-18.586835	-18.968427	-30.016683	-21.366071	2.282633	-4.528792	6.561800	4.913720	0.595140	0.941221	-0.113647	0.323119	-1.000000	-1.000000	-1.000000	-1.000000	-1.000000	-1.000000	-1.000000	80.689655	0.000000	-1.000000	-1.000000	1193859.000000	1770063883.917422
12435.210000	20132.415000	26388.090000	21460.770000	-7980.120000	-4509.315000	2641.230000	13011.210000	-5.242624	-20.934552	-20.884986	-20.964906	-31.841121	-21.589691	5.748249	8.035100	6.561800	4.913720	0.595140	0.941221	-0.113647	0.323119	-1.000000	-1.000000	-1.000000	-1.000000	-1.000000	-1.000000	-1.000000	80.689655	0.000000	-1.000000	-1.000000	1193860.000000	1770063883.917430
12448.125000	20135.070000	26391.960000	21464.505000	-7974.180000	-4502.430000	2642.760000	13021.110000	-2.177049	-15.730937	-15.755264	-16.375433	-25.918235	-17.051868	6.839563	13.570263	-3.921820	5.585160	-2.136400	0.946104	-0.100219	0.320800	-1.000000	-1.000000	-1.000000	-1.000000	-1.000000	-1.000000	-1.000000	80.689655	0.000000	-1.000000	-1.000000	1193861.000000	1770063883.917797
12459.330000	20136.555000	26398.980000	21478.905000	-7948.530000	-4477.545000	2653.920000	13031.370000	0.744267	-6.992644	-7.539831	-8.614953	-14.696886	-9.848935	2.855318	11.152186	-3.921820	5.585160	-2.136400	0.946104	-0.100219	0.320800	-1.000000	-1.000000	-1.000000	-1.000000	-1.000000	-1.000000	-1.000000	80.689655	0.000000	-1.000000	-1.000000	1193862.000000	1770063883.917807
12460.095000	20153.025000	26414.370000	21492.630000	-7938.405000	-4468.500000	2662.605000	13036.365000	3.884204	1.060634	0.421703	0.048872	-0.133171	-0.059847	-3.458672	6.694202	-3.921820	5.585160	-2.136400	0.946104	-0.100219	0.320800	-1.000000	-1.000000	-1.000000	-1.000000	-1.000000	-1.000000	-1.000000	80.689655	0.000000	-1.000000	-1.000000	1193863.000000	1770063883.923285
12452.625000	20155.320000	26417.160000	21493.485000	-7942.995000	-4471.605000	2665.890000	13035.825000	6.679834	7.273044	7.416707	8.601309	14.562937	10.841746	-7.049120	4.381961	-3.921820	5.585160	-2.136400	0.946104	-0.100219	0.320800	-1.000000	-1.000000	-1.000000	-1.000000	-1.000000	-1.000000	-1.000000	80.689655	0.000000	-1.000000	-1.000000	1193864.000000	1770063883.923294
12446.685000	20149.110000	26409.105000	21482.640000	-7954.965000	-4486.455000	2653.335000	13028.760000	7.493506	12.346927	13.512070	15.513400	24.357729	18.415851	-5.928751	3.089790	-3.921820	5.585160	-2.136400	0.946104	-0.100219	0.320800	-1.000000	-1.000000	-1.000000	-1.000000	-1.000000	-1.000000	-1.000000	80.689655	0.000000	-1.000000	-1.000000	1193865.000000	1770063883.925864
12454.830000	20159.010000	26414.685000	21480.255000	-7965.945000	-4502.745000	2638.665000	13020.345000	5.304604	15.390648	16.798519	17.850350	24.959083	18.219928	-2.286880	0.138605	-3.921820	5.585160	-2.136400	0.946104	-0.100219	0.320800	-1.000000	-1.000000	-1.000000	-1.000000	-1.000000	-1.000000	-1.000000	80.689655	0.000000	-1.000000	-1.000000	1193866.000000	1770063883.925872
12462.930000	20159.955000	26417.295000	21485.610000	-7960.590000	-4498.020000	2635.875000	13015.530000	1.092155	14.121846	14.570661	13.531917	16.095461	9.904180	0.482774	-4.904116	-3.921820	5.585160	-2.136400	0.946104	-0.100219	0.320800	-1.000000	-1.000000	-1.000000	-1.000000	-1.000000	-1.000000	-1.000000	80.689655	0.000000	-1.000000	-1.000000	1193867.000000	1770063883.935511
12454.020000	20149.830000	26407.980000	21481.830000	-7956.585000	-4484.340000	2648.520000	13007.970000	-2.847661	7.725571	6.602451	4.018554	2.315220	-1.580413	1.231858	-9.932826	-3.921820	5.585160	-2.136400	0.946104	-0.100219	0.320800	-1.000000	-1.000000	-1.000000	-1.000000	-1.000000	-1.000000	-1.000000	80.689655	0.000000	-1.000000	-1.000000	1193868.000000	1770063883.935521
12464.820000	20168.010000	26423.235000	21490.020000	-7957.800000	-4485.555000	2658.735000	13026.645000	-5.447089	-1.987412	-4.110227	-6.370797	-9.833970	-9.581792	1.313023	-12.319964	-3.921820	5.585160	-2.136400	0.946104	-0.100219	0.320800	-1.000000	-1.000000	-1.000000	-1.000000	-1.000000	-1.000000	-1.000000	80.689655	0.000000	-1.000000	-1.000000	1193869.000000	1770063883.935533
12452.310000	20148.345000	26406.180000	21481.560000	-7957.080000	-4484.700000	2654.685000	13021.920000	-7.024420	-11.232855	-13.123904	-13.405784	-15.966045	-11.160818	1.617464	-10.495196	-3.921820	5.585160	-2.136400	0.946104	-0.100219	0.320800	-1.000000	-1.000000	-1.000000	-1.000000	-1.000000	-1.000000	-1.000000	80.689655	0.000000	-1.000000	-1.000000	1193870.000000	1770063883.935539
12443.220000	20133.810000	26395.425000	21479.355000	-7950.105000	-4475.970000	2657.160000	13019.625000	-7.671926	-16.808288	-17.492959	-15.336166	-15.515285	-8.066379	1.388049	-4.716525	-16.663920	3.372460	-1.312360	0.948728	-0.097229	0.319823	-1.000000	-1.000000	-1.000000	-1.000000	-1.000000	-1.000000	-1.000000	80.689655	0.000000	-1.000000	-1.000000	1193871.000000	1770063883.939196
12465.585000	20164.095000	26424.495000	21506.355000	-7926.480000	-4455.540000	2662.335000	13027.410000	-6.515268	-17.104553	-16.219385	-12.272510	-9.872688	-3.005278	0.180211	2.735078	-16.663920	3.372460	-1.312360	0.948728	-0.097229	0.319823	-1.000000	-1.000000	-1.000000	-1.000000	-1.000000	-1.000000	-1.000000	80.689655	0.000000	-1.000000	-1.000000	1193872.000000	1770063883.939206
12472.740000	20178.180000	26435.835000	21510.810000	-7926.705000	-4454.955000	2658.195000	13023.720000	-2.064522	-10.706420	-8.639000	-4.572754	-0.796607	2.587364	-1.102471	8.844595	-16.663920	3.372460	-1.312360	0.948728	-0.097229	0.319823	-1.000000	-1.000000	-1.000000	-1.000000	-1.000000	-1.000000	-1.000000	80.689655	0.000000	-1.000000	-1.000000	1193873.000000	1770063883.948896
12460.815000	20162.880000	26422.965000	21499.155000	-7938.180000	-4468.050000	2657.565000	13032.405000	4.893428	1.145197	3.405777	5.500486	8.479658	7.181876	-1.225292	11.558241	-16.663920	3.372460	-1.312360	0.948728	-0.097229	0.319823	-1.000000	-1.000000	-1.000000	-1.000000	-1.000000	-1.000000	-1.000000	80.689655	0.000000	-1.000000	-1.000000	1193874.000000	1770063883.948906
12453.165000	20146.995000	26407.350000	21485.340000	-7949.790000	-4477.590000	2668.860000	13046.085000	9.943411	11.989241	13.542683	12.678249	13.324898	8.462225	0.356846	10.711687	-16.663920	3.372460	-1.312360	0.948728	-0.097229	0.319823	-1.000000	-1.000000	-1.000000	-1.000000	-1.000000	-1.000000	-1.000000	80.689655	0.000000	-1.000000	-1.000000	1193875.000000	1770063883.948952
12448.530000	20136.915000	26396.145000	21476.655000	-7948.620000	-4474.170000	2673.135000	13029.885000	9.359566	15.165279	15.573851	12.498140	10.960958	5.218220	2.944676	7.348993	-16.663920	3.372460	-1.312360	0.948728	-0.097229	0.319823	-1.000000	-1.000000	-1.000000	-1.000000	-1.000000	-1.000000	-1.000000	80.689655	0.000000	-1.000000	-1.000000	1193876.000000	1770063883.948958
12450.600000	20135.520000	26393.310000	21471.705000	-7953.660000	-4486.590000	2660.130000	13032.720000	3.861392	9.854194	9.072563	5.393299	2.988431	-1.157549	4.341998	2.135640	-16.663920	3.372460	-1.312360	0.948728	-0.097229	0.319823	-1.000000	-1.000000	-1.000000	-1.000000	-1.000000	-1.000000	-1.000000	80.689655	0.000000	-1.000000	-1.000000	1193877.000000	1770063883.949720
12445.695000	20135.025000	26394.435000	21471.750000	-7952.490000	-4493.655000	2649.105000	13035.330000	-2.881069	0.567904	-1.015584	-3.863017	-5.793041	-7.542652	2.199802	-4.163913	-16.663920	3.372460	-1.312360	0.948728	-0.097229	0.319823	-1.000000	-1.000000	-1.000000	-1.000000	-1.000000	-1.000000	-1.000000	80.689655	0.000000	-1.000000	-1.000000	1193878.000000	1770063883.949728
12460.545000	20154.195000	26413.470000	21489.435000	-7936.020000	-4475.430000	2668.725000	13050.405000	-6.962386	-6.439441	-8.157072	-9.598807	-10.648935	-10.705480	-2.878188	-9.065197	-16.663920	3.372460	-1.312360	0.948728	-0.097229	0.319823	-1.000000	-1.000000	-1.000000	-1.000000	-1.000000	-1.000000	-1.000000	80.689655	0.000000	-1.000000	-1.000000	1193879.000000	1770063883.953952
12462.885000	20164.050000	26422.650000	21498.660000	-7927.515000	-4466.340000	2674.485000	13033.305000	-6.124329	-6.925106	-8.239899	-8.677736	-9.504986	-8.725314	-6.899935	-9.918434	-16.663920	3.372460	-1.312360	0.948728	-0.097229	0.319823	-1.000000	-1.000000	-1.000000	-1.000000	-1.000000	-1.000000	-1.000000	80.689655	0.000000	-1.000000	-1.000000	1193880.000000	1770063883.953960
12433.770000	20134.485000	26394.570000	21473.505000	-7951.815000	-4490.280000	2648.295000	12999.555000	-1.983053	-2.382345	-3.001171	-2.960461	-4.222451	-2.874397	-7.016975	-7.461772	-9.857960	3.296160	-0.793520	0.949338	-0.112365	0.319396	-1.000000	-1.000000	-1.000000	-1.000000	-1.000000	-1.000000	-1.000000	80.689655	0.000000	-1.000000	-1.000000	1193881.000000	1770063883.967252
12420.135000	20127.555000	26389.530000	21468.735000	-7952.040000	-4496.175000	2626.470000	12987.090000	1.029298	1.525376	1.786549	2.443730	1.100914	2.944796	-4.466737	-4.922323	-9.857960	3.296160	-0.793520	0.949338	-0.112365	0.319396	-1.000000	-1.000000	-1.000000	-1.000000	-1.000000	-1.000000	-1.000000	80.689655	0.000000	-1.000000	-1.000000	1193882.000000	1770063883.967264
12436.155000	20160.765000	26421.795000	21498.345000	-7927.920000	-4472.550000	2620.800000	12957.930000	0.996364	2.219211	3.335620	4.978686	4.547728	6.509299	-1.850807	-4.055112	-9.857960	3.296160	-0.793520	0.949338	-0.112365	0.319396	-1.000000	-1.000000	-1.000000	-1.000000	-1.000000	-1.000000	-1.000000	80.689655	0.000000	-1.000000	-1.000000	1193883.000000	1770063883.967276
12455.235000	20189.250000	26447.760000	21518.730000	-7930.665000	-4467.150000	2644.515000	12970.665000	0.521673	2.712403	4.187584	6.428025	6.963324	8.601579	0.211481	-3.860619	-9.857960	3.296160	-0.793520	0.949338	-0.112365	0.319396	-1.000000	-1.000000	-1.000000	-1.000000	-1.000000	-1.000000	-1.000000	80.689655	0.000000	-1.000000	-1.000000	1193884.000000	1770063883.967281
12469.590000	20193.660000	26455.275000	21530.385000	-7926.930000	-4460.670000	2670.660000	13021.020000	2.514836	5.676028	6.757791	8.448956	8.265556	9.583534	3.122370	-0.989316	-9.857960	3.296160	-0.793520	0.949338	-0.112365	0.319396	-1.000000	-1.000000	-1.000000	-1.000000	-1.000000	-1.000000	-1.000000	80.689655	0.000000	-1.000000	-1.000000	1193885.000000	1770063883.967287
12469.590000	20157.570000	26417.115000	21493.350000	-7949.385000	-4468.320000	2682.360000	13065.570000	6.193896	8.303785	8.601096	9.027557	6.766144	8.320466	7.761896	7.354358	-9.857960	3.296160	-0.793520	0.949338	-0.112365	0.319396	-1.000000	-1.000000	-1.000000	-1.000000	-1.000000	-1.000000	-1.000000	80.689655	0.000000	-1.000000	-1.000000	1193886.000000	1770063883.967293
12477.780000	20162.745000	26423.460000	21503.925000	-7908.705000	-4452.660000	2695.050000	13076.415000	8.187004	5.596563	5.205245	4.770249	2.182693	4.321060	12.265468	18.474527	-9.857960	3.296160	-0.793520	0.949338	-0.112365	0.319396	-1.000000	-1.000000	-1.000000	-1.000000	-1.000000	-1.000000	-1.000000	80.689655	0.000000	-1.000000	-1.000000	1193887.000000	1770063883.969804
12482.100000	20183.580000	26440.515000	21519.585000	-7869.285000	-4431.195000	2695.005000	13065.255000	6.229553	-2.466545	-3.305277	-3.756398	-2.483658	-1.129718	12.889748	24.532989	-9.857960	3.296160	-0.793520	0.949338	-0.112365	0.319396	-1.000000	-1.000000	-1.000000	-1.000000	-1.000000	-1.000000	-1.000000	80.689655	0.000000	-1.000000	-1.000000	1193888.000000	1770063883.969814
12462.255000	20156.805000	26413.065000	21488.580000	-7908.120000	-4449.960000	2688.930000	13063.005000	0.714087	-10.690615	-11.757313	-11.881714	-4.235020	-5.954419	7.452724	19.633428	-9.857960	3.296160	-0.793520	0.949338	-0.112365	0.319396	-1.000000	-1.000000	-1.000000	-1.000000	-1.000000	-1.000000	-1.000000	80.689655	0.000000	-1.000000	-1.000000	1193889.000000	1770063883.988445
12466.755000	20149.110000	26405.730000	21469.950000	-8020.170000	-4506.255000	2674.980000	13073.490000	-5.719498	-14.369142	-15.409375	-15.682497	-5.357287	-9.392414	-1.983553	5.805299	-9.857960	3.296160	-0.793520	0.949338	-0.112365	0.319396	-1.000000	-1.000000	-1.000000	-1.000000	-1.000000	-1.000000	-1.000000	80.689655	0.000000	-1.000000	-1.000000	1193890.000000	1770063883.988457
12469.770000	20164.725000	26420.220000	21477.600000	-8030.610000	-4527.000000	2654.235000	13075.155000	-9.459261	-11.915107	-12.624473	-13.910639	-10.444876	-12.189617	-10.651999	-9.055365	-2.105880	2.868880	2.014320	0.951047	-0.121216	0.320007	-1.000000	-1.000000	-1.000000	-1.000000	-1.000000	-1.000000	-1.000000	80.689655	0.000000	-1.000000	-1.000000	1193891.000000	1770063883.988470
12462.030000	20157.120000	26417.070000	21483.270000	-7991.955000	-4505.850000	2658.105000	13069.980000	-8.983648	-4.987087	-5.064108	-7.479145	-17.069049	-13.681871	-15.059905	-18.180506	-2.105880	2.868880	2.014320	0.951047	-0.121216	0.320007	-1.000000	-1.000000	-1.000000	-1.000000	-1.000000	-1.000000	-1.000000	80.689655	0.000000	-1.000000	-1.000000	1193892.000000	1770063883.988476
12446.730000	20166.030000	26430.570000	21505.320000	-7953.840000	-4479.255000	2663.460000	13039.110000	-6.345054	2.290910	3.136026	1.038985	-16.008231	-10.668190	-14.518419	-20.468354	-2.105880	2.868880	2.014320	0.951047	-0.121216	0.320007	-1.000000	-1.000000	-1.000000	-1.000000	-1.000000	-1.000000	-1.000000	80.689655	0.000000	-1.000000	-1.000000	1193893.000000	1770063883.988482
12417.255000	20158.245000	26424.180000	21500.190000	-7949.430000	-4464.765000	2674.260000	13012.785000	-4.623579	6.807172	8.652129	8.879594	-2.645668	-1.229525	-10.078746	-19.792630	-2.105880	2.868880	2.014320	0.951047	-0.121216	0.320007	-1.000000	-1.000000	-1.000000	-1.000000	-1.000000	-1.000000	-1.000000	80.689655	0.000000	-1.000000	-1.000000	1193894.000000	1770063883.988488
12440.205000	20158.245000	26415.900000	21485.880000	-7968.870000	-4487.490000	2664.855000	13010.400000	-4.350593	8.478806	10.725888	13.759147	16.185123	11.110548	-3.558901	-19.389625	-2.105880	2.868880	2.014320	0.951047	-0.121216	0.320007	-1.000000	-1.000000	-1.000000	-1.000000	-1.000000	-1.000000	-1.000000	80.689655	0.000000	-1.000000	-1.000000	1193895.000000	1770063883.988494
12465.720000	20170.440000	26427.735000	21498.120000	-7956.045000	-4493.835000	2644.110000	12977.775000	-2.652766	8.253368	9.634392	13.728420	27.564524	18.575748	2.385956	-17.622162	-2.105880	2.868880	2.014320	0.951047	-0.121216	0.320007	-1.000000	-1.000000	-1.000000	-1.000000	-1.000000	-1.000000	-1.000000	80.689655	0.000000	-1.000000	-1.000000	1193896.000000	1770063883.988500
12478.455000	20164.995000	26424.540000	21500.820000	-7941.555000	-4472.415000	2658.285000	12997.035000	3.056788	6.331499	5.920731	8.702901	24.150837	16.236313	5.582121	-10.548067	-2.105880	2.868880	2.014320	0.951047	-0.121216	0.320007	-1.000000	-1.000000	-1.000000	-1.000000	-1.000000	-1.000000	-1.000000	80.689655	0.000000	-1.000000	-1.000000	1193897.000000	1770063883.999119
12461.580000	20163.015000	26421.930000	21495.330000	-7952.805000	-4482.090000	2664.810000	13025.610000	11.049676	3.204556	1.314690	1.787283	10.789842	7.391676	6.832905	3.569416	-2.105880	2.868880	2.014320	0.951047	-0.121216	0.320007	-1.000000	-1.000000	-1.000000	-1.000000	-1.000000	-1.000000	-1.000000	80.689655	0.000000	-1.000000	-1.000000	1193898.000000	1770063883.999129
12468.825000	20155.050000	26414.055000	21487.770000	-7956.225000	-4482.675000	2669.580000	13046.175000	16.214351	0.155138	-2.064780	-3.200088	-1.188831	-0.326394	8.576632	21.540773	-2.105880	2.868880	2.014320	0.951047	-0.121216	0.320007	-1.000000	-1.000000	-1.000000	-1.000000	-1.000000	-1.000000	-1.000000	80.689655	0.000000	-1.000000	-1.000000	1193899.000000	1770063883.999139
12477.555000	20157.750000	26410.995000	21480.660000	-7963.605000	-4492.080000	2657.880000	13033.575000	14.789306	-2.353220	-3.940773	-5.409283	-5.888315	-3.051372	10.902941	35.295639	-2.105880	2.868880	2.014320	0.951047	-0.121216	0.320007	-1.000000	-1.000000	-1.000000	-1.000000	-1.000000	-1.000000	-1.000000	80.689655	0.000000	-1.000000	-1.000000	1193900.000000	1770063883.999144
12458.835000	20154.465000	26409.285000	21480.075000	-7964.145000	-4495.995000	2649.330000	13019.895000	7.245080	-4.565984	-5.318445	-6.548032	-6.866233	-3.238720	10.733199	36.722307	-0.701960	4.333840	-0.763000	0.948179	-0.117859	0.318908	-1.000000	-1.000000	-1.000000	-1.000000	-1.000000	-1.000000	-1.000000	80.689655	0.000000	-1.000000	-1.000000	1193901.000000	1770063883.999151
12464.955000	20156.490000	26414.955000	21490.920000	-7946.055000	-4476.690000	2658.960000	13038.615000	-2.714054	-5.983876	-6.185651	-7.490822	-9.290001	-4.705166	5.500442	24.319437	-0.701960	4.333840	-0.763000	0.948179	-0.117859	0.318908	-1.000000	-1.000000	-1.000000	-1.000000	-1.000000	-1.000000	-1.000000	80.689655	0.000000	-1.000000	-1.000000	1193902.000000	1770063883.999156
12482.325000	20186.145000	26446.230000	21521.835000	-7914.915000	-4451.400000	2667.645000	13029.525000	-10.082348	-5.060551	-4.793880	-6.397838	-12.096809	-6.928633	-3.021950	4.489318	-0.701960	4.333840	-0.763000	0.948179	-0.117859	0.318908	-1.000000	-1.000000	-1.000000	-1.000000	-1.000000	-1.000000	-1.000000	80.689655	0.000000	-1.000000	-1.000000	1193903.000000	1770063884.001949
12460.545000	20162.565000	26423.415000	21501.180000	-7929.990000	-4459.545000	2668.905000	13022.595000	-12.118045	-1.148177	-0.110732	-1.525120	-10.948444	-6.455022	-9.819701	-13.922169	-0.701960	4.333840	-0.763000	0.948179	-0.117859	0.318908	-1.000000	-1.000000	-1.000000	-1.000000	-1.000000	-1.000000	-1.000000	80.689655	0.000000	-1.000000	-1.000000	1193904.000000	1770063884.001956
12454.785000	20136.105000	26397.360000	21474.765000	-7960.365000	-4485.690000	2667.555000	13051.305000	-10.873236	2.617077	4.578412	4.062359	-6.376574	-3.141035	-11.214047	-24.133748	-0.701960	4.333840	-0.763000	0.948179	-0.117859	0.318908	-1.000000	-1.000000	-1.000000	-1.000000	-1.000000	-1.000000	-1.000000	80.689655	0.000000	-1.000000	-1.000000	1193905.000000	1770063884.009810
12475.530000	20154.375000	26415.135000	21489.210000	-7955.280000	-4482.540000	2673.270000	13084.470000	-8.761707	2.666182	5.021891	5.531956	-2.735816	-0.607655	-7.565004	-23.013946	-0.701960	4.333840	-0.763000	0.948179	-0.117859	0.318908	-1.000000	-1.000000	-1.000000	-1.000000	-1.000000	-1.000000	-1.000000	80.689655	0.000000	-1.000000	-1.000000	1193906.000000	1770063884.009819
12507.930000	20201.490000	26461.485000	21529.260000	-7918.650000	-4446.315000	2705.940000	13118.220000	-4.364945	1.068489	2.776884	3.721364	0.049643	0.301200	-1.506542	-12.813665	-0.701960	4.333840	-0.763000	0.948179	-0.117859	0.318908	-1.000000	-1.000000	-1.000000	-1.000000	-1.000000	-1.000000	-1.000000	80.689655	0.000000	-1.000000	-1.000000	1193907.000000	1770063884.014446
12512.970000	20227.635000	26489.745000	21563.145000	-7875.180000	-4407.345000	2724.435000	13064.850000	3.477739	2.623562	2.903997	3.653025	6.070994	3.059087	4.982672	-0.853289	-0.701960	4.333840	-0.763000	0.948179	-0.117859	0.318908	-1.000000	-1.000000	-1.000000	-1.000000	-1.000000	-1.000000	-1.000000	80.689655	0.000000	-1.000000	-1.000000	1193908.000000	1770063884.014456
12481.740000	20216.295000	26476.560000	21551.130000	-7893.495000	-4440.465000	2676.195000	12969.360000	10.924994	7.248423	6.153044	6.691817	14.735053	8.419146	9.496167	3.921799	-0.701960	4.333840	-0.763000	0.948179	-0.117859	0.318908	-1.000000	-1.000000	-1.000000	-1.000000	-1.000000	-1.000000	-1.000000	80.689655	0.000000	-1.000000	-1.000000	1193909.000000	1770063884.014466
12403.530000	20145.105000	26405.325000	21476.655000	-7969.590000	-4516.695000	2622.915000	13019.580000	11.463828	8.735145	6.876183	7.448194	17.780857	10.052777	7.587119	-1.549442	-0.701960	4.333840	-0.763000	0.948179	-0.117859	0.318908	-1.000000	-1.000000	-1.000000	-1.000000	-1.000000	-1.000000	-1.000000	80.689655	0.000000	-1.000000	-1.000000	1193910.000000	1770063884.014471
12416.535000	20116.755000	26377.245000	21451.995000	-7984.035000	-4521.195000	2625.660000	13053.555000	2.682038	1.210430	-0.833258	-0.410499	7.642895	1.481777	-2.491889	-9.195407	-8.637160	4.227020	-1.403920	0.946592	-0.110717	0.314819	-1.000000	-1.000000	-1.000000	-1.000000	-1.000000	-1.000000	-1.000000	80.689655	0.000000	-1.000000	-1.000000	1193911.000000	1770063884.022838
12471.030000	20143.935000	26402.130000	21480.030000	-7952.130000	-4490.010000	2648.745000	13013.460000	-8.823823	-12.651345	-14.454963	-14.465018	-11.444820	-13.273702	-14.415070	-8.929184	-8.637160	4.227020	-1.403920	0.946592	-0.110717	0.314819	-1.000000	-1.000000	-1.000000	-1.000000	-1.000000	-1.000000	-1.000000	80.689655	0.000000	-1.000000	-1.000000	1193912.000000	1770063884.022848
12491.235000	20144.070000	26400.060000	21482.595000	-7933.005000	-4476.420000	2662.605000	13028.625000	-12.174126	-21.863310	-23.086850	-23.304318	-24.862632	-21.481500	-18.144360	-0.358878	-8.637160	4.227020	-1.403920	0.946592	-0.110717	0.314819	-1.000000	-1.000000	-1.000000	-1.000000	-1.000000	-1.000000	-1.000000	80.689655	0.000000	-1.000000	-1.000000	1193913.000000	1770063884.022858
12462.705000	20134.260000	26391.465000	21479.760000	-7909.875000	-4464.000000	2661.255000	13019.985000	-4.281644	-18.132844	-18.576171	-18.417890	-21.517881	-14.954769	-9.879770	9.443807	-8.637160	4.227020	-1.403920	0.946592	-0.110717	0.314819	-1.000000	-1.000000	-1.000000	-1.000000	-1.000000	-1.000000	-1.000000	80.689655	0.000000	-1.000000	-1.000000	1193914.000000	1770063884.022863
12450.330000	20136.195000	26394.930000	21480.885000	-7904.115000	-4460.940000	2658.420000	13013.550000	6.601087	-4.173988	-3.744384	-2.779491	-3.557664	2.281404	4.518256	13.366049	-8.637160	4.227020	-1.403920	0.946592	-0.110717	0.314819	-1.000000	-1.000000	-1.000000	-1.000000	-1.000000	-1.000000	-1.000000	80.689655	0.000000	-1.000000	-1.000000	1193915.000000	1770063884.034446
12461.490000	20152.260000	26409.465000	21481.020000	-7953.390000	-4488.930000	2657.475000	13025.745000	10.780875	10.172159	11.435087	12.855122	15.582834	17.883825	15.221647	9.286488	-8.637160	4.227020	-1.403920	0.946592	-0.110717	0.314819	-1.000000	-1.000000	-1.000000	-1.000000	-1.000000	-1.000000	-1.000000	80.689655	0.000000	-1.000000	-1.000000	1193916.000000	1770063884.034460
12463.650000	20155.860000	26415.135000	21485.925000	-7984.305000	-4495.500000	2663.505000	13031.010000	6.714327	17.193433	18.974879	19.476587	21.402652	21.112524	16.739778	2.816177	-8.637160	4.227020	-1.403920	0.946592	-0.110717	0.314819	-1.000000	-1.000000	-1.000000	-1.000000	-1.000000	-1.000000	-1.000000	80.689655	0.000000	-1.000000	-1.000000	1193917.000000	1770063884.034476
12460.860000	20154.105000	26413.695000	21490.650000	-7956.945000	-4485.915000	2659.545000	13028.445000	0.476667	16.181027	17.978645	16.397816	11.577000	12.200718	11.534856	1.668265	-8.637160	4.227020	-1.403920	0.946592	-0.110717	0.314819	-1.000000	-1.000000	-1.000000	-1.000000	-1.000000	-1.000000	-1.000000	80.689655	0.000000	-1.000000	-1.000000	1193918.000000	1770063884.034482
12456.720000	20144.070000	26404.110000	21485.745000	-7938.225000	-4474.935000	2658.195000	13032.180000	-1.407171	11.527827	12.850693	9.764918	-1.703912	1.245417	5.579432	5.453619	-8.637160	4.227020	-1.403920	0.946592	-0.110717	0.314819	-1.000000	-1.000000	-1.000000	-1.000000	-1.000000	-1.000000	-1.000000	80.689655	0.000000	-1.000000	-1.000000	1193919.000000	1770063884.034488
12460.005000	20151.585000	26413.830000	21494.835000	-7929.945000	-4471.830000	2660.220000	13041.180000	1.223297	7.035095	7.561927	4.863363	-6.343192	-3.721404	1.491637	7.071904	-8.637160	4.227020	-1.403920	0.946592	-0.110717	0.314819	-1.000000	-1.000000	-1.000000	-1.000000	-1.000000	-1.000000	-1.000000	80.689655	0.000000	-1.000000	-1.000000	1193920.000000	1770063884.034494
12470.760000	20172.510000	26432.145000	21507.840000	-7944.390000	-4471.020000	2668.860000	13029.615000	2.821446	3.041540	2.787535	1.835913	-2.572243	-3.594698	-2.050031	3.221119	-8.713460	3.326680	-2.655240	0.944639	-0.112121	0.314696	-1.000000	-1.000000	-1.000000	-1.000000	-1.000000	-1.000000	-1.000000	80.689655	0.000000	-1.000000	-1.000000	1193921.000000	1770063884.046518
12472.380000	20192.580000	26447.805000	21516.030000	-7941.195000	-4470.480000	2665.395000	13009.275000	-0.038974	-0.718684	-1.548175	-1.048438	1.701056	-3.080214	-6.081370	-3.902013	-8.713460	3.326680	-2.655240	0.944639	-0.112121	0.314696	-1.000000	-1.000000	-1.000000	-1.000000	-1.000000	-1.000000	-1.000000	80.689655	0.000000	-1.000000	-1.000000	1193922.000000	1770063884.046529
12492.810000	20211.660000	26466.300000	21532.905000	-7898.985000	-4450.905000	2671.470000	13026.330000	-4.495725	-3.139924	-4.438749	-3.850879	1.943037	-4.050118	-9.394694	-10.996075	-8.713460	3.326680	-2.655240	0.944639	-0.112121	0.314696	-1.000000	-1.000000	-1.000000	-1.000000	-1.000000	-1.000000	-1.000000	80.689655	0.000000	-1.000000	-1.000000	1193923.000000	1770063884.046540
12500.730000	20195.370000	26458.470000	21538.980000	-7872.075000	-4420.890000	2694.960000	13072.770000	-5.803399	-4.356221	-5.875803	-5.770052	0.502943	-4.616571	-9.790877	-13.984752	-8.713460	3.326680	-2.655240	0.944639	-0.112121	0.314696	-1.000000	-1.000000	-1.000000	-1.000000	-1.000000	-1.000000	-1.000000	80.689655	0.000000	-1.000000	-1.000000	1193924.000000	1770063884.046545
12479.265000	20173.005000	26437.410000	21520.440000	-7914.150000	-4440.870000	2694.105000	13058.775000	-3.499046	-6.980086	-7.985811	-7.104388	0.827179	-2.698439	-6.311668	-9.810246	-8.713460	3.326680	-2.655240	0.944639	-0.112121	0.314696	-1.000000	-1.000000	-1.000000	-1.000000	-1.000000	-1.000000	-1.000000	80.689655	0.000000	-1.000000	-1.000000	1193925.000000	1770063884.046551
12472.380000	20174.580000	26437.860000	21513.240000	-7969.905000	-4481.595000	2670.840000	13043.070000	-1.004505	-11.962858	-11.769578	-8.777395	1.160851	0.047173	-0.846581	-0.599126	-8.713460	3.326680	-2.655240	0.944639	-0.112121	0.314696	-1.000000	-1.000000	-1.000000	-1.000000	-1.000000	-1.000000	-1.000000	80.689655	0.000000	-1.000000	-1.000000	1193926.000000	1770063884.046555
12477.420000	20178.180000	26438.715000	21510.720000	-7977.195000	-4499.235000	2649.555000	13046.940000	-0.042601	-15.253972	-14.060316	-9.924869	-2.697819	-0.141774	3.083458	7.461091	-8.713460	3.326680	-2.655240	0.944639	-0.112121	0.314696	-1.000000	-1.000000	-1.000000	-1.000000	-1.000000	-1.000000	-1.000000	80.689655	0.000000	-1.000000	-1.000000	1193927.000000	1770063884.061596
12467.835000	20164.005000	26422.785000	21495.960000	-7968.105000	-4490.820000	2659.185000	13048.515000	0.447886	-12.111992	-10.932565	-8.368083	-9.883362	-3.716836	3.560893	9.491843	-8.713460	3.326680	-2.655240	0.944639	-0.112121	0.314696	-1.000000	-1.000000	-1.000000	-1.000000	-1.000000	-1.000000	-1.000000	80.689655	0.000000	-1.000000	-1.000000	1193928.000000	1770063884.061609
12458.025000	20152.215000	26412.030000	21487.410000	-7963.650000	-4487.445000	2668.815000	13040.505000	0.463030	-3.598151	-3.379533	-4.173211	-14.337604	-7.018633	1.714650	5.414537	-8.713460	3.326680	-2.655240	0.944639	-0.112121	0.314696	-1.000000	-1.000000	-1.000000	-1.000000	-1.000000	-1.000000	-1.000000	80.689655	0.000000	-1.000000	-1.000000	1193929.000000	1770063884.061622
12453.750000	20144.070000	26403.255000	21481.245000	-7964.775000	-4489.830000	2666.880000	13033.575000	-1.168777	4.473713	3.660930	0.203628	-11.386633	-6.493875	-0.098190	-0.918862	-8.713460	3.326680	-2.655240	0.944639	-0.112121	0.314696	-1.000000	-1.000000	-1.000000	-1.000000	-1.000000	-1.000000	-1.000000	80.689655	0.000000	-1.000000	-1.000000	1193930.000000	1770063884.061627
12454.650000	20151.450000	26412.480000	21492.135000	-7953.345000	-4480.470000	2668.005000	13033.530000	-3.656379	7.934192	6.902897	3.216497	-2.045760	-1.830539	-0.584851	-5.304909	-6.058220	2.121140	-1.297100	0.938657	-0.111694	0.318175	-1.000000	-1.000000	-1.000000	-1.000000	-1.000000	-1.000000	-1.000000	80.689655	0.000000	-1.000000	-1.000000	1193931.000000	1770063884.061633
12472.110000	20184.255000	26442.180000	21515.175000	-7939.620000	-4473.765000	2659.455000	13016.655000	-4.418429	7.599932	7.205978	5.377971	8.109871	4.286770	-0.098570	-6.485440	-6.058220	2.121140	-1.297100	0.938657	-0.111694	0.318175	-1.000000	-1.000000	-1.000000	-1.000000	-1.000000	-1.000000	-1.000000	80.689655	0.000000	-1.000000	-1.000000	1193932.000000	1770063884.061638
12473.100000	20200.905000	26457.930000	21526.695000	-7926.345000	-4458.015000	2656.845000	12996.270000	-1.843285	7.328484	7.593518	7.728005	14.093541	8.645662	-0.014648	-6.468574	-6.058220	2.121140	-1.297100	0.938657	-0.111694	0.318175	-1.000000	-1.000000	-1.000000	-1.000000	-1.000000	-1.000000	-1.000000	80.689655	0.000000	-1.000000	-1.000000	1193933.000000	1770063884.064189
12477.825000	20189.655000	26449.920000	21523.680000	-7920.990000	-4446.090000	2651.895000	13014.945000	3.397519	9.087408	9.379419	10.112151	15.679399	10.456455	-0.800462	-6.069172	-6.058220	2.121140	-1.297100	0.938657	-0.111694	0.318175	-1.000000	-1.000000	-1.000000	-1.000000	-1.000000	-1.000000	-1.000000	80.689655	0.000000	-1.000000	-1.000000	1193934.000000	1770063884.064200
12460.005000	20169.495000	26430.435000	21503.520000	-7942.005000	-4471.515000	2636.595000	13040.280000	8.654609	10.210888	10.209423	10.616809	14.934567	10.787780	-0.985644	-2.402436	-6.058220	2.121140	-1.297100	0.938657	-0.111694	0.318175	-1.000000	-1.000000	-1.000000	-1.000000	-1.000000	-1.000000	-1.000000	80.689655	0.000000	-1.000000	-1.000000	1193935.000000	1770063884.066067
12473.865000	20164.410000	26423.730000	21495.735000	-7945.200000	-4475.520000	2664.225000	13060.260000	10.738277	7.020048	7.013820	7.251842	11.353262	9.127616	1.025498	5.868654	-6.058220	2.121140	-1.297100	0.938657	-0.111694	0.318175	-1.000000	-1.000000	-1.000000	-1.000000	-1.000000	-1.000000	-1.000000	80.689655	0.000000	-1.000000	-1.000000	1193936.000000	1770063884.066079
12474.045000	20161.350000	26422.560000	21500.280000	-7932.330000	-4468.995000	2694.870000	13072.680000	8.445854	-0.154321	0.200243	0.703616	3.422146	3.948813	5.148723	14.822841	-6.058220	2.121140	-1.297100	0.938657	-0.111694	0.318175	-1.000000	-1.000000	-1.000000	-1.000000	-1.000000	-1.000000	-1.000000	80.689655	0.000000	-1.000000	-1.000000	1193937.000000	1770063884.074226
12463.920000	20155.905000	26420.220000	21502.035000	-7927.110000	-4472.595000	2692.530000	13070.970000	3.049357	-7.469418	-6.665908	-5.679748	-6.802085	-3.821488	9.111066	18.889028	-6.058220	2.121140	-1.297100	0.938657	-0.111694	0.318175	-1.000000	-1.000000	-1.000000	-1.000000	-1.000000	-1.000000	-1.000000	80.689655	0.000000	-1.000000	-1.000000	1193938.000000	1770063884.074236
12491.010000	20174.985000	26436.060000	21513.195000	-7922.700000	-4459.590000	2704.320000	13090.770000	-2.945713	-11.172961	-10.112871	-8.768728	-14.569387	-10.638297	9.659758	15.467488	-6.058220	2.121140	-1.297100	0.938657	-0.111694	0.318175	-1.000000	-1.000000	-1.000000	-1.000000	-1.000000	-1.000000	-1.000000	80.689655	0.000000	-1.000000	-1.000000	1193939.000000	1770063884.074247
12528.855000	20212.380000	26467.020000	21531.105000	-7925.670000	-4454.145000	2684.880000	13076.145000	-6.270962	-9.518888	-8.755966	-7.799543	-17.012828	-13.183940	5.297661	6.020999	-6.058220	2.121140	-1.297100	0.938657	-0.111694	0.318175	-1.000000	-1.000000	-1.000000	-1.000000	-1.000000	-1.000000	-1.000000	80.689655	0.000000	-1.000000	-1.000000	1193940.000000	1770063884.074252
12516.345000	20194.830000	26447.535000	21514.770000	-7923.825000	-4461.255000	2632.905000	13050.855000	-5.378607	-3.967286	-4.261970	-4.691504	-14.739040	-11.011704	-3.303452	-6.030680	-3.769220	1.617560	-1.113980	0.936704	-0.110046	0.318236	-1.000000	-1.000000	-1.000000	-1.000000	-1.000000	-1.000000	-1.000000	80.689655	0.000000	-1.000000	-1.000000	1193941.000000	1770063884.080234
12482.910000	20198.835000	26455.815000	21525.480000	-7900.470000	-4450.770000	2656.125000	13057.830000	-3.037308	1.293425	-0.303825	-2.197052	-9.125768	-6.239713	-13.325185	-16.616735	-3.769220	1.617560	-1.113980	0.936704	-0.110046	0.318236	-1.000000	-1.000000	-1.000000	-1.000000	-1.000000	-1.000000	-1.000000	80.689655	0.000000	-1.000000	-1.000000	1193942.000000	1770063884.080245
12494.160000	20214.315000	26474.445000	21544.785000	-7885.035000	-4429.755000	2711.655000	13066.965000	-2.817347	3.763141	1.629019	-0.576588	-0.439014	-0.411690	-17.995792	-21.323951	-3.769220	1.617560	-1.113980	0.936704	-0.110046	0.318236	-1.000000	-1.000000	-1.000000	-1.000000	-1.000000	-1.000000	-1.000000	80.689655	0.000000	-1.000000	-1.000000	1193943.000000	1770063884.082368
12462.030000	20146.455000	26407.395000	21485.295000	-7958.880000	-4472.100000	2687.130000	13036.905000	-4.595567	3.752764	2.388629	1.330837	8.921023	5.720328	-11.620191	-18.714694	-3.769220	1.617560	-1.113980	0.936704	-0.110046	0.318236	-1.000000	-1.000000	-1.000000	-1.000000	-1.000000	-1.000000	-1.000000	80.689655	0.000000	-1.000000	-1.000000	1193944.000000	1770063884.082379
12449.385000	20129.535000	26389.935000	21465.630000	-7991.415000	-4510.440000	2673.900000	13024.080000	-6.470211	0.927694	1.200741	2.084848	12.380452	8.941400	1.294744	-12.089880	-3.769220	1.617560	-1.113980	0.936704	-0.110046	0.318236	-1.000000	-1.000000	-1.000000	-1.000000	-1.000000	-1.000000	-1.000000	80.689655	0.000000	-1.000000	-1.000000	1193945.000000	1770063884.092819
12436.830000	20125.485000	26385.345000	21464.505000	-7975.935000	-4505.175000	2669.175000	13030.515000	-7.178610	-4.164806	-2.462099	-0.109543	6.360547	5.864653	9.816531	-5.018109	-3.769220	1.617560	-1.113980	0.936704	-0.110046	0.318236	-1.000000	-1.000000	-1.000000	-1.000000	-1.000000	-1.000000	-1.000000	80.689655	0.000000	-1.000000	-1.000000	1193946.000000	1770063884.092832
12431.610000	20146.905000	26407.170000	21488.085000	-7938.810000	-4476.510000	2669.400000	13008.285000	-5.597526	-7.520554	-5.465334	-3.070877	-3.214078	-0.929996	8.857532	1.629054	-3.769220	1.617560	-1.113980	0.936704	-0.110046	0.318236	-1.000000	-1.000000	-1.000000	-1.000000	-1.000000	-1.000000	-1.000000	80.689655	0.000000	-1.000000	-1.000000	1193947.000000	1770063884.092846
12430.620000	20166.210000	26426.520000	21502.530000	-7926.480000	-4464.270000	2668.860000	12988.215000	-1.810834	-5.576744	-4.214344	-2.973821	-7.011208	-4.895831	2.148870	7.055305	-3.769220	1.617560	-1.113980	0.936704	-0.110046	0.318236	-1.000000	-1.000000	-1.000000	-1.000000	-1.000000	-1.000000	-1.000000	80.689655	0.000000	-1.000000	-1.000000	1193948.000000	1770063884.092851
12437.730000	20168.325000	26428.185000	21499.560000	-7948.755000	-4477.365000	2669.670000	13022.595000	2.381646	0.569966	0.947825	0.761412	-2.631476	-3.239993	-3.328326	10.560930	-3.769220	1.617560	-1.113980	0.936704	-0.110046	0.318236	-1.000000	-1.000000	-1.000000	-1.000000	-1.000000	-1.000000	-1.000000	80.689655	0.000000	-1.000000	-1.000000	1193949.000000	1770063884.095734
12449.070000	20166.885000	26425.215000	21497.130000	-7959.555000	-4489.965000	2664.360000	13033.710000	6.159997	6.771152	6.460428	5.197677	4.173005	1.025693	-3.002143	13.685061	-3.769220	1.617560	-1.113980	0.936704	-0.110046	0.318236	-1.000000	-1.000000	-1.000000	-1.000000	-1.000000	-1.000000	-1.000000	80.689655	0.000000	-1.000000	-1.000000	1193950.000000	1770063884.095745
12461.130000	20162.655000	26425.035000	21500.955000	-7941.555000	-4473.270000	2673.495000	13036.545000	10.418965	9.661773	8.953764	7.160024	7.078566	3.680403	1.781470	16.755383	-1.464960	4.425400	-2.350040	0.939512	-0.108703	0.312560	-1.000000	-1.000000	-1.000000	-1.000000	-1.000000	-1.000000	-1.000000	80.689655	0.000000	-1.000000	-1.000000	1193951.000000	1770063884.103042
12498.525000	20170.755000	26427.375000	21497.895000	-7943.805000	-4474.845000	2671.245000	13075.020000	15.084566	8.622029	7.581433	5.814274	5.539554	3.731332	5.616167	16.976558	-1.464960	4.425400	-2.350040	0.939512	-0.108703	0.312560	-1.000000	-1.000000	-1.000000	-1.000000	-1.000000	-1.000000	-1.000000	80.689655	0.000000	-1.000000	-1.000000	1193952.000000	1770063884.103054
12492.855000	20186.910000	26445.060000	21516.300000	-7936.515000	-4471.380000	2672.505000	13052.520000	18.032541	6.347648	4.990227	3.558602	3.756598	3.369701	5.301503	12.551931	-1.464960	4.425400	-2.350040	0.939512	-0.108703	0.312560	-1.000000	-1.000000	-1.000000	-1.000000	-1.000000	-1.000000	-1.000000	80.689655	0.000000	-1.000000	-1.000000	1193953.000000	1770063884.103067
12472.740000	20164.410000	26426.205000	21506.760000	-7940.520000	-4466.880000	2670.885000	13038.165000	15.915233	5.448148	4.090031	3.181585	4.552868	4.503794	2.058055	3.799472	-1.464960	4.425400	-2.350040	0.939512	-0.108703	0.312560	-1.000000	-1.000000	-1.000000	-1.000000	-1.000000	-1.000000	-1.000000	80.689655	0.000000	-1.000000	-1.000000	1193954.000000	1770063884.103073
12467.880000	20166.300000	26429.130000	21508.965000	-7930.800000	-4461.300000	2671.785000	13030.695000	6.656014	4.231288	3.548777	3.557173	5.524359	5.891941	-1.502092	-7.628544	-1.464960	4.425400	-2.350040	0.939512	-0.108703	0.312560	-1.000000	-1.000000	-1.000000	-1.000000	-1.000000	-1.000000	-1.000000	80.689655	0.000000	-1.000000	-1.000000	1193955.000000	1770063884.110440
12473.415000	20177.055000	26436.915000	21512.070000	-7929.990000	-4462.920000	2672.685000	13026.735000	-7.177028	-0.327693	0.129468	1.226418	2.476229	4.225360	-3.701014	-17.547431	-1.464960	4.425400	-2.350040	0.939512	-0.108703	0.312560	-1.000000	-1.000000	-1.000000	-1.000000	-1.000000	-1.000000	-1.000000	80.689655	0.000000	-1.000000	-1.000000	1193956.000000	1770063884.110451
12485.250000	20190.150000	26447.715000	21517.155000	-7929.945000	-4464.405000	2670.615000	13052.925000	-19.295277	-7.620300	-6.290260	-4.573816	-4.799679	-1.735754	-3.976071	-20.793568	-1.464960	4.425400	-2.350040	0.939512	-0.108703	0.312560	-1.000000	-1.000000	-1.000000	-1.000000	-1.000000	-1.000000	-1.000000	80.689655	0.000000	-1.000000	-1.000000	1193957.000000	1770063884.113336
12516.435000	20215.665000	26468.685000	21526.470000	-7931.970000	-4469.130000	2666.385000	13071.015000	-23.775505	-13.285627	-11.913531	-10.480016	-11.731635	-8.888646	-2.467073	-15.382666	-1.464960	4.425400	-2.350040	0.939512	-0.108703	0.312560	-1.000000	-1.000000	-1.000000	-1.000000	-1.000000	-1.000000	-1.000000	80.689655	0.000000	-1.000000	-1.000000	1193958.000000	1770063884.113347
12514.905000	20210.310000	26469.945000	21538.890000	-7904.925000	-4435.290000	2694.465000	13058.685000	-18.432971	-13.002593	-12.349202	-12.028318	-13.244209	-12.152202	0.276616	-4.663859	-1.464960	4.425400	-2.350040	0.939512	-0.108703	0.312560	-1.000000	-1.000000	-1.000000	-1.000000	-1.000000	-1.000000	-1.000000	80.689655	0.000000	-1.000000	-1.000000	1193959.000000	1770063884.113878
12479.355000	20189.745000	26448.840000	21517.515000	-7927.650000	-4459.365000	2671.110000	13026.375000	-7.406206	-7.156274	-7.343111	-8.110956	-8.478090	-9.278582	2.796127	4.274895	-1.464960	4.425400	-2.350040	0.939512	-0.108703	0.312560	-1.000000	-1.000000	-1.000000	-1.000000	-1.000000	-1.000000	-1.000000	80.689655	0.000000	-1.000000	-1.000000	1193960.000000	1770063884.113889
12437.730000	20142.360000	26401.275000	21475.755000	-7954.110000	-4483.890000	2648.115000	13018.905000	0.883179	-0.892877	-1.420496	-2.251392	-1.371959	-3.162786	2.674348	5.860662	-7.385840	3.052000	-1.846460	0.937314	-0.104370	0.310058	-1.000000	-1.000000	-1.000000	-1.000000	-1.000000	-1.000000	-1.000000	80.689655	0.000000	-1.000000	-1.000000	1193961.000000	1770063884.117767
12445.830000	20133.675000	26396.145000	21479.265000	-7927.020000	-4473.225000	2653.155000	13037.085000	2.103770	1.252681	0.983666	1.241269	3.885037	1.810044	-0.832945	1.705080	-7.385840	3.052000	-1.846460	0.937314	-0.104370	0.310058	-1.000000	-1.000000	-1.000000	-1.000000	-1.000000	-1.000000	-1.000000	80.689655	0.000000	-1.000000	-1.000000	1193962.000000	1770063884.117789
12453.660000	20148.435000	26414.055000	21500.910000	-7891.380000	-4459.095000	2664.405000	13040.730000	0.439566	0.148509	0.414180	2.096725	6.886505	4.328088	-4.803901	-1.191642	-7.385840	3.052000	-1.846460	0.937314	-0.104370	0.310058	-1.000000	-1.000000	-1.000000	-1.000000	-1.000000	-1.000000	-1.000000	80.689655	0.000000	-1.000000	-1.000000	1193963.000000	1770063884.123830
12450.510000	20163.240000	26425.530000	21500.460000	-7908.390000	-4471.605000	2663.505000	13023.045000	1.974598	0.271280	0.914967	3.116942	8.538375	5.070249	-5.492813	1.063269	-7.385840	3.052000	-1.846460	0.937314	-0.104370	0.310058	-1.000000	-1.000000	-1.000000	-1.000000	-1.000000	-1.000000	-1.000000	80.689655	0.000000	-1.000000	-1.000000	1193964.000000	1770063884.123841
12454.155000	20159.955000	26420.760000	21493.575000	-7964.370000	-4482.270000	2673.315000	13030.110000	7.065858	3.356185	3.914613	5.016632	6.836463	3.958449	-2.132274	5.895763	-7.385840	3.052000	-1.846460	0.937314	-0.104370	0.310058	-1.000000	-1.000000	-1.000000	-1.000000	-1.000000	-1.000000	-1.000000	80.689655	0.000000	-1.000000	-1.000000	1193965.000000	1770063884.125875
12459.420000	20158.650000	26420.985000	21494.520000	-7991.820000	-4494.465000	2663.460000	13033.035000	11.388754	6.568278	6.673390	5.817089	-0.517522	1.051732	3.061112	8.478537	-7.385840	3.052000	-1.846460	0.937314	-0.104370	0.310058	-1.000000	-1.000000	-1.000000	-1.000000	-1.000000	-1.000000	-1.000000	80.689655	0.000000	-1.000000	-1.000000	1193966.000000	1770063884.125885
12470.580000	20167.335000	26430.255000	21501.360000	-7968.465000	-4481.505000	2668.770000	13038.345000	11.341599	6.842549	6.539936	4.388788	-10.304518	-2.019177	6.855061	6.402230	-7.385840	3.052000	-1.846460	0.937314	-0.104370	0.310058	-1.000000	-1.000000	-1.000000	-1.000000	-1.000000	-1.000000	-1.000000	80.689655	0.000000	-1.000000	-1.000000	1193967.000000	1770063884.139001
12463.470000	20163.780000	26427.510000	21502.620000	-7951.815000	-4470.480000	2669.355000	13039.830000	7.082085	4.429672	3.925742	1.705302	-14.966843	-3.178162	6.844499	1.433582	-7.385840	3.052000	-1.846460	0.937314	-0.104370	0.310058	-1.000000	-1.000000	-1.000000	-1.000000	-1.000000	-1.000000	-1.000000	80.689655	0.000000	-1.000000	-1.000000	1193968.000000	1770063884.139012
12462.030000	20164.815000	26427.285000	21499.605000	-7951.140000	-4472.100000	2664.405000	13042.845000	1.761499	2.077769	1.437998	-0.136999	-9.617897	-1.254882	3.381765	-2.477887	-7.385840	3.052000	-1.846460	0.937314	-0.104370	0.310058	-1.000000	-1.000000	-1.000000	-1.000000	-1.000000	-1.000000	-1.000000	80.689655	0.000000	-1.000000	-1.000000	1193969.000000	1770063884.139023
12471.210000	20176.425000	26436.735000	21504.420000	-7949.160000	-4469.670000	2666.565000	13035.510000	-1.255314	2.283731	1.517763	0.567676	3.500342	3.287742	-0.611812	-3.256602	-7.385840	3.052000	-1.846460	0.937314	-0.104370	0.310058	-1.000000	-1.000000	-1.000000	-1.000000	-1.000000	-1.000000	-1.000000	80.689655	0.000000	-1.000000	-1.000000	1193970.000000	1770063884.139028
12488.670000	20189.970000	26449.605000	21517.155000	-7938.405000	-4471.155000	2665.530000	13042.035000	-0.936182	4.946100	4.042163	3.124109	16.106840	7.537956	-2.842414	-2.102712	-10.041080	2.121140	-2.899400	0.933103	-0.103576	0.312499	-1.000000	-1.000000	-1.000000	-1.000000	-1.000000	-1.000000	-1.000000	80.689655	0.000000	-1.000000	-1.000000	1193971.000000	1770063884.146672
12505.500000	20197.980000	26455.455000	21523.320000	-7925.940000	-4459.230000	2676.195000	13062.690000	1.052313	6.887756	5.843445	4.574762	20.044188	7.951663	-3.275499	-0.696112	-10.041080	2.121140	-2.899400	0.933103	-0.103576	0.312499	-1.000000	-1.000000	-1.000000	-1.000000	-1.000000	-1.000000	-1.000000	80.689655	0.000000	-1.000000	-1.000000	1193972.000000	1770063884.146685
12470.580000	20156.085000	26420.670000	21499.470000	-7934.490000	-4460.265000	2674.665000	13053.285000	1.677201	3.989407	3.161255	2.401591	13.979075	4.076897	-2.695531	0.806305	-10.041080	2.121140	-2.899400	0.933103	-0.103576	0.312499	-1.000000	-1.000000	-1.000000	-1.000000	-1.000000	-1.000000	-1.000000	80.689655	0.000000	-1.000000	-1.000000	1193973.000000	1770063884.146899
12436.335000	20143.485000	26408.295000	21484.170000	-7955.955000	-4487.220000	2654.145000	13030.560000	-2.124584	-5.128553	-4.928654	-3.474211	3.326447	-1.619269	-1.994724	1.467355	-10.041080	2.121140	-2.899400	0.933103	-0.103576	0.312499	-1.000000	-1.000000	-1.000000	-1.000000	-1.000000	-1.000000	-1.000000	80.689655	0.000000	-1.000000	-1.000000	1193974.000000	1770063884.146904
12442.095000	20152.125000	26415.900000	21490.245000	-7953.255000	-4484.880000	2656.035000	13017.735000	-10.365050	-16.203750	-14.486168	-10.230948	-5.766451	-6.685267	-1.953581	-0.956601	-10.041080	2.121140	-2.899400	0.933103	-0.103576	0.312499	-1.000000	-1.000000	-1.000000	-1.000000	-1.000000	-1.000000	-1.000000	80.689655	0.000000	-1.000000	-1.000000	1193975.000000	1770063884.146912
12456.270000	20156.310000	26415.630000	21486.780000	-7954.065000	-4478.580000	2662.605000	13030.110000	-17.564330	-21.600554	-19.037640	-13.655949	-10.882060	-9.539213	-2.263951	-5.875009	-10.041080	2.121140	-2.899400	0.933103	-0.103576	0.312499	-1.000000	-1.000000	-1.000000	-1.000000	-1.000000	-1.000000	-1.000000	80.689655	0.000000	-1.000000	-1.000000	1193976.000000	1770063884.146917
12459.735000	20163.285000	26423.010000	21492.135000	-7952.805000	-4484.115000	2655.225000	13030.425000	-16.746097	-16.650995	-14.746053	-11.128044	-12.467953	-9.260927	-1.878913	-8.920225	-10.041080	2.121140	-2.899400	0.933103	-0.103576	0.312499	-1.000000	-1.000000	-1.000000	-1.000000	-1.000000	-1.000000	-1.000000	80.689655	0.000000	-1.000000	-1.000000	1193977.000000	1770063884.151140
12464.775000	20162.745000	26425.305000	21497.625000	-7945.920000	-4478.715000	2656.935000	13036.545000	-6.281696	-3.208600	-2.986108	-3.086817	-10.754692	-5.721528	-0.225491	-6.645422	-10.041080	2.121140	-2.899400	0.933103	-0.103576	0.312499	-1.000000	-1.000000	-1.000000	-1.000000	-1.000000	-1.000000	-1.000000	80.689655	0.000000	-1.000000	-1.000000	1193978.000000	1770063884.151148
12460.635000	20161.170000	26423.910000	21497.040000	-7946.100000	-4481.640000	2651.355000	13030.245000	8.183818	11.602152	10.397255	6.913891	-5.946463	-0.018191	2.153238	0.005204	-10.041080	2.121140	-2.899400	0.933103	-0.103576	0.312499	-1.000000	-1.000000	-1.000000	-1.000000	-1.000000	-1.000000	-1.000000	80.689655	0.000000	-1.000000	-1.000000	1193979.000000	1770063884.156370
12462.255000	20167.830000	26430.255000	21502.305000	-7944.660000	-4482.495000	2652.255000	13031.640000	18.027450	19.930133	18.333275	13.523079	-0.308307	5.218151	3.760568	6.718949	-10.041080	2.121140	-2.899400	0.933103	-0.103576	0.312499	-1.000000	-1.000000	-1.000000	-1.000000	-1.000000	-1.000000	-1.000000	80.689655	0.000000	-1.000000	-1.000000	1193980.000000	1770063884.156380
12460.455000	20164.095000	26427.060000	21500.460000	-7944.705000	-4480.065000	2658.240000	13034.475000	18.287655	18.447253	17.353361	13.422784	3.306084	7.390598	3.529278	9.523169	-7.599480	3.158820	-2.029580	0.932798	-0.107483	0.311950	-1.000000	-1.000000	-1.000000	-1.000000	-1.000000	-1.000000	-1.000000	80.689655	0.000000	-1.000000	-1.000000	1193981.000000	1770063884.157786
12465.945000	20169.810000	26429.715000	21497.940000	-7946.775000	-4478.355000	2662.020000	13034.115000	11.140018	10.180341	9.821748	7.959092	4.635414	6.298389	2.064881	7.878871	-7.599480	3.158820	-2.029580	0.932798	-0.107483	0.311950	-1.000000	-1.000000	-1.000000	-1.000000	-1.000000	-1.000000	-1.000000	80.689655	0.000000	-1.000000	-1.000000	1193982.000000	1770063884.157793
12465.135000	20178.450000	26436.645000	21500.685000	-7948.710000	-4481.910000	2657.070000	13028.220000	2.719375	1.145498	1.118295	1.192862	5.460870	4.014081	0.939230	4.066522	-7.599480	3.158820	-2.029580	0.932798	-0.107483	0.311950	-1.000000	-1.000000	-1.000000	-1.000000	-1.000000	-1.000000	-1.000000	80.689655	0.000000	-1.000000	-1.000000	1193983.000000	1770063884.174664
12446.370000	20146.455000	26408.475000	21483.450000	-7951.320000	-4475.835000	2661.030000	13024.260000	-3.338295	-5.219356	-5.329020	-4.016212	6.184802	2.151846	0.699099	0.305298	-7.599480	3.158820	-2.029580	0.932798	-0.107483	0.311950	-1.000000	-1.000000	-1.000000	-1.000000	-1.000000	-1.000000	-1.000000	80.689655	0.000000	-1.000000	-1.000000	1193984.000000	1770063884.174678
12459.780000	20155.590000	26418.510000	21498.705000	-7941.510000	-4464.315000	2667.825000	13037.670000	-7.242382	-9.177795	-9.219737	-6.960637	5.373959	0.674337	0.562375	-2.445949	-7.599480	3.158820	-2.029580	0.932798	-0.107483	0.311950	-1.000000	-1.000000	-1.000000	-1.000000	-1.000000	-1.000000	-1.000000	80.689655	0.000000	-1.000000	-1.000000	1193985.000000	1770063884.174692
12475.395000	20180.835000	26439.030000	21520.800000	-7979.355000	-4477.590000	2660.220000	13040.100000	-8.895155	-10.505710	-10.112199	-6.949604	2.111046	-0.740909	0.011616	-3.702229	-7.599480	3.158820	-2.029580	0.932798	-0.107483	0.311950	-1.000000	-1.000000	-1.000000	-1.000000	-1.000000	-1.000000	-1.000000	80.689655	0.000000	-1.000000	-1.000000	1193986.000000	1770063884.174697
12473.640000	20180.115000	26436.105000	21525.120000	-8024.940000	-4499.100000	2655.180000	13038.120000	-7.168908	-7.641990	-6.978124	-3.482915	-3.772609	-2.512030	-0.922501	-3.346967	-7.599480	3.158820	-2.029580	0.932798	-0.107483	0.311950	-1.000000	-1.000000	-1.000000	-1.000000	-1.000000	-1.000000	-1.000000	80.689655	0.000000	-1.000000	-1.000000	1193987.000000	1770063884.174703
12448.980000	20136.375000	26401.410000	21521.115000	-8038.035000	-4495.635000	2668.005000	13033.305000	-3.272286	-2.173216	-1.735246	1.375982	-11.277468	-4.958297	-1.956587	-2.156043	-7.599480	3.158820	-2.029580	0.932798	-0.107483	0.311950	-1.000000	-1.000000	-1.000000	-1.000000	-1.000000	-1.000000	-1.000000	80.689655	0.000000	-1.000000	-1.000000	1193988.000000	1770063884.174708
12435.030000	20125.800000	26400.150000	21536.010000	-8033.715000	-4506.165000	2662.470000	13019.940000	-0.658552	0.972320	1.299995	4.208800	-16.384679	-6.981580	-2.447307	-1.449201	-7.599480	3.158820	-2.029580	0.932798	-0.107483	0.311950	-1.000000	-1.000000	-1.000000	-1.000000	-1.000000	-1.000000	-1.000000	80.689655	0.000000	-1.000000	-1.000000	1193989.000000	1770063884.174713
12451.410000	20160.720000	26436.510000	21542.445000	-8004.150000	-4507.470000	2651.220000	13020.840000	-0.656225	0.297319	1.233552	3.938390	-13.751713	-6.927248	-2.426828	-1.920360	-7.599480	3.158820	-2.029580	0.932798	-0.107483	0.311950	-1.000000	-1.000000	-1.000000	-1.000000	-1.000000	-1.000000	-1.000000	80.689655	0.000000	-1.000000	-1.000000	1193990.000000	1770063884.174718
12463.560000	20179.395000	26452.035000	21504.870000	-7969.905000	-4486.545000	2655.945000	13032.225000	-0.719778	-0.044774	1.705584	1.532274	-1.369809	-3.833076	-2.410874	-2.460397	-6.104000	3.372460	-2.227960	0.933591	-0.111206	0.310485	-1.000000	-1.000000	-1.000000	-1.000000	-1.000000	-1.000000	-1.000000	80.689655	0.000000	-1.000000	-1.000000	1193991.000000	1770063884.178228
12468.600000	20181.780000	26450.370000	21474.180000	-7953.165000	-4468.545000	2666.295000	13043.205000	1.712650	3.135352	4.775167	-2.754794	16.245710	2.319894	-1.820215	-1.001386	-6.104000	3.372460	-2.227960	0.933591	-0.111206	0.310485	-1.000000	-1.000000	-1.000000	-1.000000	-1.000000	-1.000000	-1.000000	80.689655	0.000000	-1.000000	-1.000000	1193992.000000	1770063884.178241
12478.680000	20184.120000	26445.150000	21450.825000	-7941.195000	-4461.570000	2662.785000	13051.305000	5.897328	8.063331	8.079204	-8.367522	29.495120	9.259703	-0.015757	2.736973	-6.104000	3.372460	-2.227960	0.933591	-0.111206	0.310485	-1.000000	-1.000000	-1.000000	-1.000000	-1.000000	-1.000000	-1.000000	80.689655	0.000000	-1.000000	-1.000000	1193993.000000	1770063884.181848
12475.080000	20180.160000	26434.305000	21430.755000	-7934.715000	-4471.065000	2649.375000	13053.060000	8.680509	10.510387	7.898023	-12.879392	30.356626	12.760053	1.927579	6.278058	-6.104000	3.372460	-2.227960	0.933591	-0.111206	0.310485	-1.000000	-1.000000	-1.000000	-1.000000	-1.000000	-1.000000	-1.000000	80.689655	0.000000	-1.000000	-1.000000	1193994.000000	1770063884.181859
12454.425000	20170.980000	26422.110000	21443.355000	-7936.650000	-4472.685000	2649.510000	13017.510000	6.930123	7.230474	2.433360	-13.389691	18.603843	10.332606	2.519540	6.298420	-6.104000	3.372460	-2.227960	0.933591	-0.111206	0.310485	-1.000000	-1.000000	-1.000000	-1.000000	-1.000000	-1.000000	-1.000000	80.689655	0.000000	-1.000000	-1.000000	1193995.000000	1770063884.187281
12450.375000	20184.120000	26441.505000	21507.975000	-7945.740000	-4471.200000	2645.235000	12977.910000	0.399829	-0.719490	-5.725447	-7.188282	0.985369	3.598115	1.676980	1.044132	-6.104000	3.372460	-2.227960	0.933591	-0.111206	0.310485	-1.000000	-1.000000	-1.000000	-1.000000	-1.000000	-1.000000	-1.000000	80.689655	0.000000	-1.000000	-1.000000	1193996.000000	1770063884.187287
12465.180000	20192.175000	26443.530000	21510.225000	-8092.170000	-4488.165000	2661.300000	12966.570000	-6.680447	-7.552606	-10.480050	6.129344	-16.677147	-3.815931	0.412238	-7.616884	-6.104000	3.372460	-2.227960	0.933591	-0.111206	0.310485	-1.000000	-1.000000	-1.000000	-1.000000	-1.000000	-1.000000	-1.000000	80.689655	0.000000	-1.000000	-1.000000	1193997.000000	1770063884.190830
12439.215000	20146.635000	26399.655000	21503.925000	-8280.315000	-4513.995000	2672.100000	12979.710000	-9.350110	-9.161083	-9.048106	20.432518	-35.287763	-9.532039	0.096886	-13.907215	-6.104000	3.372460	-2.227960	0.933591	-0.111206	0.310485	-1.000000	-1.000000	-1.000000	-1.000000	-1.000000	-1.000000	-1.000000	80.689655	0.000000	-1.000000	-1.000000	1193998.000000	1770063884.190843
12419.460000	20082.735000	26350.110000	21526.470000	-8359.020000	-4532.670000	2681.055000	13024.845000	-7.551952	-8.773108	-6.022842	26.784036	-55.297503	-12.874038	1.572733	-11.820371	-6.104000	3.372460	-2.227960	0.933591	-0.111206	0.310485	-1.000000	-1.000000	-1.000000	-1.000000	-1.000000	-1.000000	-1.000000	80.689655	0.000000	-1.000000	-1.000000	1193999.000000	1770063884.193900
12463.740000	20134.125000	26412.075000	21596.355000	-8409.780000	-4544.415000	2698.605000	13078.395000	-4.206490	-10.635108	-5.738032	23.360082	-66.658720	-13.665242	4.036065	-0.022401	-6.104000	3.372460	-2.227960	0.933591	-0.111206	0.310485	-1.000000	-1.000000	-1.000000	-1.000000	-1.000000	-1.000000	-1.000000	80.689655	0.000000	-1.000000	-1.000000	1194000.000000	1770063884.193922
12508.785000	20204.505000	26480.745000	21628.530000	-8342.100000	-4532.265000	2699.055000	13099.905000	0.567303	-10.437471	-3.883368	16.069319	-54.059473	-11.430351	5.389304	16.153353	-2.395820	5.157880	-3.052000	0.933713	-0.112121	0.310912	-1.000000	-1.000000	-1.000000	-1.000000	-1.000000	-1.000000	-1.000000	80.689655	0.000000	-1.000000	-1.000000	1194001.000000	1770063884.199396
12539.070000	20257.605000	26525.835000	21608.595000	-8167.320000	-4532.805000	2681.100000	13102.335000	7.815185	-0.606330	6.034537	8.981490	-10.194419	-5.536195	3.739643	26.984625	-2.395820	5.157880	-3.052000	0.933713	-0.112121	0.310912	-1.000000	-1.000000	-1.000000	-1.000000	-1.000000	-1.000000	-1.000000	80.689655	0.000000	-1.000000	-1.000000	1194002.000000	1770063884.199409
12552.795000	20270.205000	26507.790000	21414.870000	-8027.100000	-4499.910000	2681.865000	13112.505000	15.067272	16.997681	20.789232	-2.425984	55.817087	3.816048	-0.916771	25.119712	-2.395820	5.157880	-3.052000	0.933713	-0.112121	0.310912	-1.000000	-1.000000	-1.000000	-1.000000	-1.000000	-1.000000	-1.000000	80.689655	0.000000	-1.000000	-1.000000	1194003.000000	1770063884.201912
12530.295000	20241.630000	26479.080000	21260.205000	-7946.550000	-4489.650000	2649.870000	13088.880000	17.300619	30.312838	28.330777	-26.382077	117.301689	14.564900	-6.530838	11.476404	-2.395820	5.157880	-3.052000	0.933713	-0.112121	0.310912	-1.000000	-1.000000	-1.000000	-1.000000	-1.000000	-1.000000	-1.000000	80.689655	0.000000	-1.000000	-1.000000	1194004.000000	1770063884.201922
12466.305000	20161.890000	26403.210000	21203.010000	-7855.695000	-4473.585000	2630.205000	13036.320000	10.355030	27.074529	19.004122	-59.742759	143.082279	22.527481	-11.104095	-7.021546	-2.395820	5.157880	-3.052000	0.933713	-0.112121	0.310912	-1.000000	-1.000000	-1.000000	-1.000000	-1.000000	-1.000000	-1.000000	80.689655	0.000000	-1.000000	-1.000000	1194005.000000	1770063884.207596
12420.450000	20108.610000	26352.225000	21267.495000	-7780.770000	-4450.905000	2634.525000	13009.860000	-5.906303	4.941972	-5.688904	-80.402295	120.238328	23.888726	-13.286653	-23.499797	-2.395820	5.157880	-3.052000	0.933713	-0.112121	0.310912	-1.000000	-1.000000	-1.000000	-1.000000	-1.000000	-1.000000	-1.000000	80.689655	0.000000	-1.000000	-1.000000	1194006.000000	1770063884.207605
12397.320000	20069.820000	26310.555000	21416.355000	-7752.375000	-4445.820000	2632.275000	12997.890000	-24.557560	-24.510000	-32.561615	-62.422661	61.313589	18.242763	-11.463917	-33.106507	-2.395820	5.157880	-3.052000	0.933713	-0.112121	0.310912	-1.000000	-1.000000	-1.000000	-1.000000	-1.000000	-1.000000	-1.000000	80.689655	0.000000	-1.000000	-1.000000	1194007.000000	1770063884.209787
12390.840000	20072.655000	26334.495000	21581.055000	-7810.965000	-4458.465000	2627.190000	12983.355000	-34.562193	-43.068821	-45.124968	-1.012353	-11.310363	7.555500	-5.244988	-33.377841	-2.395820	5.157880	-3.052000	0.933713	-0.112121	0.310912	-1.000000	-1.000000	-1.000000	-1.000000	-1.000000	-1.000000	-1.000000	80.689655	0.000000	-1.000000	-1.000000	1194008.000000	1770063884.209797
12412.035000	20112.120000	26382.780000	21604.050000	-7972.155000	-4510.620000	2626.920000	12989.025000	-29.575153	-39.862505	-35.395487	76.546344	-81.133413	-6.453686	2.953687	-24.924416	-2.395820	5.157880	-3.052000	0.933713	-0.112121	0.310912	-1.000000	-1.000000	-1.000000	-1.000000	-1.000000	-1.000000	-1.000000	80.689655	0.000000	-1.000000	-1.000000	1194009.000000	1770063884.213913
12417.030000	20115.720000	26380.035000	21561.435000	-8016.120000	-4506.030000	2644.425000	12998.925000	-12.339242	-18.436246	-9.386949	125.360836	-137.415869	-21.418066	10.053340	-10.073397	-2.395820	5.157880	-3.052000	0.933713	-0.112121	0.310912	-1.000000	-1.000000	-1.000000	-1.000000	-1.000000	-1.000000	-1.000000	80.689655	0.000000	-1.000000	-1.000000	1194010.000000	1770063884.213920
12442.815000	20148.210000	26422.425000	21569.310000	-7960.680000	-4489.560000	2657.385000	13024.440000	8.747374	8.293559	18.543286	116.416119	-166.242492	-31.551889	14.878477	8.228139	15.076880	-2.945180	5.737760	0.932859	-0.120910	0.331847	-1.000000	-1.000000	-1.000000	-1.000000	-1.000000	-1.000000	-1.000000	80.689655	0.000000	-1.000000	-1.000000	1194011.000000	1770063884.217950
12485.520000	20186.730000	26453.880000	21530.835000	-7872.615000	-4462.155000	2666.295000	13056.210000	26.044534	28.855993	37.236813	59.429955	-150.631580	-30.258238	17.181082	26.040770	15.076880	-2.945180	5.737760	0.932859	-0.120910	0.331847	-1.000000	-1.000000	-1.000000	-1.000000	-1.000000	-1.000000	-1.000000	80.689655	0.000000	-1.000000	-1.000000	1194012.000000	1770063884.217959
12494.970000	20196.090000	26458.380000	21492.495000	-7890.705000	-4445.370000	2677.635000	13064.805000	36.037228	39.010880	43.373454	-10.729932	-86.777791	-16.549439	16.366732	38.880603	15.076880	-2.945180	5.737760	0.932859	-0.120910	0.331847	-1.000000	-1.000000	-1.000000	-1.000000	-1.000000	-1.000000	-1.000000	80.689655	0.000000	-1.000000	-1.000000	1194013.000000	1770063884.222657
12496.050000	20202.885000	26459.415000	21451.005000	-7929.270000	-4450.995000	2680.920000	13060.620000	37.605135	39.264885	37.976513	-64.336496	2.870272	3.055071	11.997553	42.575128	15.076880	-2.945180	5.737760	0.932859	-0.120910	0.331847	-1.000000	-1.000000	-1.000000	-1.000000	-1.000000	-1.000000	-1.000000	80.689655	0.000000	-1.000000	-1.000000	1194014.000000	1770063884.222669
12470.805000	20173.860000	26433.945000	21428.505000	-7892.775000	-4430.835000	2685.375000	13044.195000	29.912245	30.848973	23.721024	-90.528200	81.953070	18.927065	4.138859	34.098672	15.076880	-2.945180	5.737760	0.932859	-0.120910	0.331847	-1.000000	-1.000000	-1.000000	-1.000000	-1.000000	-1.000000	-1.000000	80.689655	0.000000	-1.000000	-1.000000	1194015.000000	1770063884.225949
12469.545000	20188.665000	26462.655000	21491.550000	-7863.975000	-4439.745000	2675.700000	13038.480000	13.440004	15.179461	4.653969	-91.730333	125.187803	24.848277	-5.942677	13.850956	15.076880	-2.945180	5.737760	0.932859	-0.120910	0.331847	-1.000000	-1.000000	-1.000000	-1.000000	-1.000000	-1.000000	-1.000000	80.689655	0.000000	-1.000000	-1.000000	1194016.000000	1770063884.225966
12479.670000	20187.225000	26448.435000	21507.885000	-7869.870000	-4459.005000	2669.985000	13050.720000	-7.862475	-4.798733	-14.845498	-73.365673	128.260963	20.587726	-15.378632	-11.908751	15.076880	-2.945180	5.737760	0.932859	-0.120910	0.331847	-1.000000	-1.000000	-1.000000	-1.000000	-1.000000	-1.000000	-1.000000	80.689655	0.000000	-1.000000	-1.000000	1194017.000000	1770063884.229832
12475.080000	20167.920000	26425.620000	21510.495000	-7903.170000	-4478.220000	2671.470000	13059.810000	-27.232022	-25.054559	-31.883457	-40.027753	100.446399	9.978177	-20.840106	-32.848140	15.076880	-2.945180	5.737760	0.932859	-0.120910	0.331847	-1.000000	-1.000000	-1.000000	-1.000000	-1.000000	-1.000000	-1.000000	80.689655	0.000000	-1.000000	-1.000000	1194018.000000	1770063884.229843
12460.455000	20154.150000	26408.610000	21489.480000	-7947.945000	-4469.040000	2681.865000	13036.680000	-38.566913	-40.920572	-43.609351	1.831050	52.793189	-1.887056	-20.052917	-41.145148	15.076880	-2.945180	5.737760	0.932859	-0.120910	0.331847	-1.000000	-1.000000	-1.000000	-1.000000	-1.000000	-1.000000	-1.000000	80.689655	0.000000	-1.000000	-1.000000	1194019.000000	1770063884.233896
12470.265000	20173.095000	26436.195000	21519.630000	-7960.230000	-4483.665000	2678.895000	13028.085000	-38.939329	-46.767209	-45.169321	42.255037	-5.579498	-11.073499	-13.139376	-36.333012	15.076880	-2.945180	5.737760	0.932859	-0.120910	0.331847	-1.000000	-1.000000	-1.000000	-1.000000	-1.000000	-1.000000	-1.000000	80.689655	0.000000	-1.000000	-1.000000	1194020.000000	1770063884.233907
12491.595000	20197.710000	26453.835000	21517.155000	-7955.640000	-4477.815000	2676.060000	13048.920000	-28.513088	-38.190278	-32.596594	70.869841	-60.764133	-15.832204	-3.006226	-22.772302	12.772620	-11.322920	4.639040	0.929990	-0.127868	0.349731	-1.000000	-1.000000	-1.000000	-1.000000	-1.000000	-1.000000	-1.000000	80.689655	0.000000	-1.000000	-1.000000	1194021.000000	1770063884.237909
12502.395000	20200.230000	26441.010000	21489.165000	-7934.175000	-4438.845000	2687.625000	13064.670000	-9.795028	-15.905754	-7.914628	79.514108	-92.200813	-15.024488	6.407431	-4.604773	12.772620	-11.322920	4.639040	0.929990	-0.127868	0.349731	-1.000000	-1.000000	-1.000000	-1.000000	-1.000000	-1.000000	-1.000000	80.689655	0.000000	-1.000000	-1.000000	1194022.000000	1770063884.237926
12499.425000	20187.180000	26423.955000	21463.560000	-7934.850000	-4440.465000	2679.210000	13065.345000	11.936002	12.312019	19.561389	63.815178	-85.277517	-7.892280	12.156468	14.204458	12.772620	-11.322920	4.639040	0.929990	-0.127868	0.349731	-1.000000	-1.000000	-1.000000	-1.000000	-1.000000	-1.000000	-1.000000	80.689655	0.000000	-1.000000	-1.000000	1194023.000000	1770063884.241887
12478.230000	20161.080000	26411.310000	21453.885000	-7995.870000	-4463.955000	2678.940000	13047.435000	28.892468	34.568794	38.228200	26.840331	-46.329456	2.433669	12.907152	27.729459	12.772620	-11.322920	4.639040	0.929990	-0.127868	0.349731	-1.000000	-1.000000	-1.000000	-1.000000	-1.000000	-1.000000	-1.000000	80.689655	0.000000	-1.000000	-1.000000	1194024.000000	1770063884.241895
12484.485000	20196.045000	26469.450000	21536.550000	-8063.460000	-4487.220000	2673.810000	13036.320000	34.047746	41.754099	41.510818	-18.598987	-0.009526	9.640180	9.391933	30.081319	12.772620	-11.322920	4.639040	0.929990	-0.127868	0.349731	-1.000000	-1.000000	-1.000000	-1.000000	-1.000000	-1.000000	-1.000000	80.689655	0.000000	-1.000000	-1.000000	1194025.000000	1770063884.249585
12487.590000	20205.405000	26499.960000	21582.630000	-8043.705000	-4495.815000	2682.900000	13042.935000	25.652426	33.063162	31.574784	-52.574403	31.917237	10.554098	4.159151	20.131701	12.772620	-11.322920	4.639040	0.929990	-0.127868	0.349731	-1.000000	-1.000000	-1.000000	-1.000000	-1.000000	-1.000000	-1.000000	80.689655	0.000000	-1.000000	-1.000000	1194026.000000	1770063884.249591
12505.365000	20218.995000	26502.435000	21548.115000	-8000.820000	-4493.700000	2687.985000	13062.915000	9.020989	15.329062	15.928622	-59.616787	45.234146	7.191067	-0.181795	3.767471	12.772620	-11.322920	4.639040	0.929990	-0.127868	0.349731	-1.000000	-1.000000	-1.000000	-1.000000	-1.000000	-1.000000	-1.000000	80.689655	0.000000	-1.000000	-1.000000	1194027.000000	1770063884.249969
12512.880000	20189.115000	26414.370000	21417.210000	-8112.915000	-4503.600000	2682.315000	13076.955000	-6.830045	-3.102911	-0.652824	-42.567609	44.335452	2.803992	-2.615844	-9.463277	12.772620	-11.322920	4.639040	0.929990	-0.127868	0.349731	-1.000000	-1.000000	-1.000000	-1.000000	-1.000000	-1.000000	-1.000000	80.689655	0.000000	-1.000000	-1.000000	1194028.000000	1770063884.249974
12519.630000	20194.740000	26405.640000	21450.870000	-8189.370000	-4488.390000	2685.960000	13093.650000	-15.576633	-17.392361	-18.057486	-18.129829	29.107890	-0.734495	-3.529809	-13.385366	12.772620	-11.322920	4.639040	0.929990	-0.127868	0.349731	-1.000000	-1.000000	-1.000000	-1.000000	-1.000000	-1.000000	-1.000000	80.689655	0.000000	-1.000000	-1.000000	1194029.000000	1770063884.254042
12543.390000	20238.030000	26483.940000	21615.075000	-8198.190000	-4440.600000	2707.785000	13098.060000	-16.283950	-24.607852	-32.070982	4.385316	1.327179	-2.038256	-3.099931	-9.143555	12.772620	-11.322920	4.639040	0.929990	-0.127868	0.349731	-1.000000	-1.000000	-1.000000	-1.000000	-1.000000	-1.000000	-1.000000	80.689655	0.000000	-1.000000	-1.000000	1194030.000000	1770063884.254053
12552.570000	20271.825000	26541.945000	21674.115000	-8089.380000	-4399.515000	2712.420000	13086.360000	-10.918208	-21.309348	-31.640140	28.092851	-24.253852	-0.049485	-1.193953	-2.626783	34.518120	-5.798800	8.469300	0.939085	-0.132507	0.332336	-1.000000	-1.000000	-1.000000	-1.000000	-1.000000	-1.000000	-1.000000	80.689655	0.000000	-1.000000	-1.000000	1194031.000000	1770063884.262067
12545.775000	20273.445000	26547.435000	21606.795000	-8002.620000	-4443.570000	2685.285000	13096.755000	-2.493842	-7.462399	-12.144294	49.419119	-27.962731	3.698138	0.947841	1.231152	34.518120	-5.798800	8.469300	0.939085	-0.132507	0.332336	-1.000000	-1.000000	-1.000000	-1.000000	-1.000000	-1.000000	-1.000000	80.689655	0.000000	-1.000000	-1.000000	1194032.000000	1770063884.262073
12503.520000	20211.705000	26471.205000	21432.420000	-7937.865000	-4475.790000	2680.110000	13082.670000	4.585693	8.878560	13.844485	49.443631	-3.936135	4.731693	1.074393	1.639767	34.518120	-5.798800	8.469300	0.939085	-0.132507	0.332336	-1.000000	-1.000000	-1.000000	-1.000000	-1.000000	-1.000000	-1.000000	80.689655	0.000000	-1.000000	-1.000000	1194033.000000	1770063884.262081
12458.430000	20157.300000	26406.180000	21348.495000	-7885.440000	-4458.105000	2670.255000	13041.855000	5.301715	14.856330	24.805500	13.478552	33.181221	0.901583	-1.328542	-0.441171	34.518120	-5.798800	8.469300	0.939085	-0.132507	0.332336	-1.000000	-1.000000	-1.000000	-1.000000	-1.000000	-1.000000	-1.000000	80.689655	0.000000	-1.000000	-1.000000	1194034.000000	1770063884.262086
12444.885000	20139.795000	26384.580000	21395.025000	-7863.435000	-4447.665000	2657.385000	13026.195000	-1.856675	4.628374	10.961934	-43.560954	58.145048	-4.177353	-4.596307	-4.884090	34.518120	-5.798800	8.469300	0.939085	-0.132507	0.332336	-1.000000	-1.000000	-1.000000	-1.000000	-1.000000	-1.000000	-1.000000	80.689655	0.000000	-1.000000	-1.000000	1194035.000000	1770063884.266182
12429.810000	20116.980000	26367.660000	21441.870000	-7915.995000	-4439.160000	2660.850000	13027.950000	-11.820082	-13.462235	-15.129383	-80.392615	51.566995	-5.988277	-6.646651	-10.120068	34.518120	-5.798800	8.469300	0.939085	-0.132507	0.332336	-1.000000	-1.000000	-1.000000	-1.000000	-1.000000	-1.000000	-1.000000	80.689655	0.000000	-1.000000	-1.000000	1194036.000000	1770063884.266192
12430.170000	20125.935000	26396.595000	21455.595000	-7896.780000	-4449.870000	2666.385000	13060.980000	-16.738485	-24.553762	-30.415388	-65.596555	14.494938	-4.163343	-5.662467	-11.692605	34.518120	-5.798800	8.469300	0.939085	-0.132507	0.332336	-1.000000	-1.000000	-1.000000	-1.000000	-1.000000	-1.000000	-1.000000	80.689655	0.000000	-1.000000	-1.000000	1194037.000000	1770063884.272165
12457.260000	20160.270000	26434.530000	21474.135000	-7867.620000	-4453.740000	2672.595000	13086.000000	-12.061563	-19.693746	-21.898245	-8.358286	-30.913098	-1.950117	-1.182774	-5.935030	34.518120	-5.798800	8.469300	0.939085	-0.132507	0.332336	-1.000000	-1.000000	-1.000000	-1.000000	-1.000000	-1.000000	-1.000000	80.689655	0.000000	-1.000000	-1.000000	1194038.000000	1770063884.272176
12492.990000	20207.115000	26466.660000	21498.300000	-7810.245000	-4436.730000	2680.290000	13070.340000	1.263958	-1.018327	3.729690	50.478146	-59.720569	-2.737242	4.625424	5.474581	34.518120	-5.798800	8.469300	0.939085	-0.132507	0.332336	-1.000000	-1.000000	-1.000000	-1.000000	-1.000000	-1.000000	-1.000000	80.689655	0.000000	-1.000000	-1.000000	1194039.000000	1770063884.274118
12496.185000	20224.395000	26463.960000	21481.695000	-7797.645000	-4423.320000	2675.565000	13005.945000	17.531850	21.305015	28.151367	75.174601	-62.790999	-5.943292	8.626324	15.037543	34.518120	-5.798800	8.469300	0.939085	-0.132507	0.332336	-1.000000	-1.000000	-1.000000	-1.000000	-1.000000	-1.000000	-1.000000	80.689655	0.000000	-1.000000	-1.000000	1194040.000000	1770063884.274124
12463.920000	20187.810000	26425.215000	21480.795000	-7809.345000	-4418.955000	2667.330000	12964.680000	28.579993	35.634075	36.823341	60.466174	-47.672326	-6.457887	9.338371	14.847941	27.513780	7.767340	3.982860	0.959226	-0.110595	0.292968	-1.000000	-1.000000	-1.000000	-1.000000	-1.000000	-1.000000	-1.000000	80.689655	0.000000	-1.000000	-1.000000	1194041.000000	1770063884.277918
12455.325000	20161.755000	26402.580000	21502.845000	-7873.830000	-4453.065000	2661.795000	12992.355000	28.403658	34.805407	27.382264	26.732810	-27.476234	-0.916468	7.049479	5.173580	27.513780	7.767340	3.982860	0.959226	-0.110595	0.292968	-1.000000	-1.000000	-1.000000	-1.000000	-1.000000	-1.000000	-1.000000	80.689655	0.000000	-1.000000	-1.000000	1194042.000000	1770063884.277925
12454.785000	20138.535000	26384.130000	21489.795000	-7927.695000	-4481.865000	2664.180000	13057.245000	17.530605	19.666537	7.846328	-3.088256	-11.997861	6.529599	2.937444	-3.632630	27.513780	7.767340	3.982860	0.959226	-0.110595	0.292968	-1.000000	-1.000000	-1.000000	-1.000000	-1.000000	-1.000000	-1.000000	80.689655	0.000000	-1.000000	-1.000000	1194043.000000	1770063884.283367
12457.170000	20138.670000	26398.350000	21546.360000	-7975.170000	-4486.095000	2659.545000	13047.840000	2.001389	-1.880603	-10.451524	-19.934572	-3.783078	8.779731	-1.321722	-2.267337	27.513780	7.767340	3.982860	0.959226	-0.110595	0.292968	-1.000000	-1.000000	-1.000000	-1.000000	-1.000000	-1.000000	-1.000000	80.689655	0.000000	-1.000000	-1.000000	1194044.000000	1770063884.283374
12469.500000	20159.505000	26432.595000	21613.815000	-8042.895000	-4468.275000	2666.205000	13044.240000	-11.331248	-19.356075	-18.822685	-24.450921	1.778554	4.676499	-4.336143	6.257174	27.513780	7.767340	3.982860	0.959226	-0.110595	0.292968	-1.000000	-1.000000	-1.000000	-1.000000	-1.000000	-1.000000	-1.000000	80.689655	0.000000	-1.000000	-1.000000	1194045.000000	1770063884.285819
12487.590000	20183.805000	26460.000000	21620.970000	-8043.885000	-4452.750000	2681.775000	13066.020000	-18.097747	-25.381019	-15.153302	-19.444336	10.241921	-0.404389	-5.348039	11.287950	27.513780	7.767340	3.982860	0.959226	-0.110595	0.292968	-1.000000	-1.000000	-1.000000	-1.000000	-1.000000	-1.000000	-1.000000	80.689655	0.000000	-1.000000	-1.000000	1194046.000000	1770063884.285830
12492.540000	20206.710000	26487.360000	21568.095000	-8007.930000	-4461.345000	2682.945000	13063.995000	-18.013702	-20.144932	-5.293782	-12.606992	22.341592	-1.961686	-4.351543	7.099552	27.513780	7.767340	3.982860	0.959226	-0.110595	0.292968	-1.000000	-1.000000	-1.000000	-1.000000	-1.000000	-1.000000	-1.000000	80.689655	0.000000	-1.000000	-1.000000	1194047.000000	1770063884.299843
12495.420000	20206.350000	26466.435000	21419.730000	-7912.890000	-4458.240000	2686.770000	13063.995000	-14.148168	-10.224973	1.666573	-15.105263	34.850214	-1.009332	-2.403102	-2.801607	27.513780	7.767340	3.982860	0.959226	-0.110595	0.292968	-1.000000	-1.000000	-1.000000	-1.000000	-1.000000	-1.000000	-1.000000	80.689655	0.000000	-1.000000	-1.000000	1194048.000000	1770063884.299857
12497.130000	20196.495000	26434.485000	21334.725000	-7947.765000	-4435.245000	2691.855000	13074.210000	-9.108712	-2.218594	0.771886	-29.933732	42.695072	-0.067058	-0.468761	-10.160923	27.513780	7.767340	3.982860	0.959226	-0.110595	0.292968	-1.000000	-1.000000	-1.000000	-1.000000	-1.000000	-1.000000	-1.000000	80.689655	0.000000	-1.000000	-1.000000	1194049.000000	1770063884.299870
12496.005000	20201.715000	26430.750000	21380.670000	-7992.540000	-4449.780000	2681.820000	13068.360000	-2.889855	2.453375	-5.191163	-44.016792	39.734897	1.124288	1.268237	-9.648292	27.513780	7.767340	3.982860	0.959226	-0.110595	0.292968	-1.000000	-1.000000	-1.000000	-1.000000	-1.000000	-1.000000	-1.000000	80.689655	0.000000	-1.000000	-1.000000	1194050.000000	1770063884.299876
12492.720000	20206.260000	26451.225000	21531.780000	-7920.495000	-4460.985000	2672.010000	13059.720000	4.459496	6.351342	-8.513023	-36.150525	24.965491	3.273151	2.186389	-4.142831	-6.577060	23.088380	-3.006220	0.964963	-0.079468	0.245788	-1.000000	-1.000000	-1.000000	-1.000000	-1.000000	-1.000000	-1.000000	80.689655	0.000000	-1.000000	-1.000000	1194051.000000	1770063884.299882
12469.500000	20174.895000	26447.400000	21591.360000	-7881.480000	-4466.970000	2666.205000	13070.070000	10.098490	10.209658	-4.310976	2.050017	7.362861	5.102490	1.371024	-0.919928	-6.577060	23.088380	-3.006220	0.964963	-0.079468	0.245788	-1.000000	-1.000000	-1.000000	-1.000000	-1.000000	-1.000000	-1.000000	80.689655	0.000000	-1.000000	-1.000000	1194052.000000	1770063884.299887
12468.330000	20154.105000	26409.555000	21475.665000	-7921.890000	-4465.305000	2666.745000	13078.800000	10.387253	10.645686	3.926564	50.362885	-3.556241	4.653959	-0.846075	-2.554598	-6.577060	23.088380	-3.006220	0.964963	-0.079468	0.245788	-1.000000	-1.000000	-1.000000	-1.000000	-1.000000	-1.000000	-1.000000	80.689655	0.000000	-1.000000	-1.000000	1194053.000000	1770063884.303126
12466.800000	20160.630000	26411.625000	21464.415000	-7954.830000	-4440.735000	2683.530000	13030.605000	4.922532	4.830502	7.906466	73.211212	-8.196641	1.444657	-2.809862	-6.175597	-6.577060	23.088380	-3.006220	0.964963	-0.079468	0.245788	-1.000000	-1.000000	-1.000000	-1.000000	-1.000000	-1.000000	-1.000000	80.689655	0.000000	-1.000000	-1.000000	1194054.000000	1770063884.303136
12479.220000	20188.890000	26448.795000	21462.030000	-7983.495000	-4450.365000	2681.775000	13019.310000	-2.846078	-4.771882	4.021467	54.664390	-13.607150	-2.923444	-3.088538	-9.602817	-6.577060	23.088380	-3.006220	0.964963	-0.079468	0.245788	-1.000000	-1.000000	-1.000000	-1.000000	-1.000000	-1.000000	-1.000000	80.689655	0.000000	-1.000000	-1.000000	1194055.000000	1770063884.306086
12481.650000	20180.700000	26437.950000	21420.855000	-8001.360000	-4490.910000	2661.750000	13068.405000	-8.369356	-12.362120	-3.453943	11.679753	-24.731657	-7.010060	-2.046309	-10.536376	-6.577060	23.088380	-3.006220	0.964963	-0.079468	0.245788	-1.000000	-1.000000	-1.000000	-1.000000	-1.000000	-1.000000	-1.000000	80.689655	0.000000	-1.000000	-1.000000	1194056.000000	1770063884.306098
12514.995000	20208.105000	26465.940000	21474.585000	-8008.065000	-4465.350000	2695.950000	13118.130000	-8.393710	-13.524243	-7.535477	-24.433831	-39.060916	-10.298417	-0.736408	-4.110167	-6.577060	23.088380	-3.006220	0.964963	-0.079468	0.245788	-1.000000	-1.000000	-1.000000	-1.000000	-1.000000	-1.000000	-1.000000	80.689655	0.000000	-1.000000	-1.000000	1194057.000000	1770063884.314514
12509.505000	20200.545000	26473.050000	21538.935000	-8004.195000	-4457.205000	2703.960000	13086.675000	-2.348786	-7.094409	-3.639329	-31.599529	-45.885874	-10.732192	1.387552	10.058622	-6.577060	23.088380	-3.006220	0.964963	-0.079468	0.245788	-1.000000	-1.000000	-1.000000	-1.000000	-1.000000	-1.000000	-1.000000	80.689655	0.000000	-1.000000	-1.000000	1194058.000000	1770063884.314525
12504.240000	20244.375000	26510.085000	21578.220000	-8081.370000	-4515.255000	2687.355000	13024.305000	6.383401	4.472443	7.163043	-12.186536	-35.450660	-6.523601	4.646915	22.227575	-6.577060	23.088380	-3.006220	0.964963	-0.079468	0.245788	-1.000000	-1.000000	-1.000000	-1.000000	-1.000000	-1.000000	-1.000000	80.689655	0.000000	-1.000000	-1.000000	1194059.000000	1770063884.314538
12482.865000	20209.095000	26431.515000	21435.210000	-8182.710000	-4471.740000	2695.770000	13026.645000	11.966985	15.592143	16.910512	8.201026	-12.698567	0.727040	7.016721	21.144466	-6.577060	23.088380	-3.006220	0.964963	-0.079468	0.245788	-1.000000	-1.000000	-1.000000	-1.000000	-1.000000	-1.000000	-1.000000	80.689655	0.000000	-1.000000	-1.000000	1194060.000000	1770063884.314543
12440.745000	20184.345000	26450.595000	21495.330000	-8176.005000	-4483.575000	2679.660000	13050.000000	10.251024	19.777561	16.489016	6.017284	8.022809	8.304230	6.348699	6.953940	-17.899980	25.209520	3.586100	0.946348	-0.089905	0.244750	-1.000000	-1.000000	-1.000000	-1.000000	-1.000000	-1.000000	-1.000000	80.689655	0.000000	-1.000000	-1.000000	1194061.000000	1770063884.329534
12477.780000	20245.095000	26519.625000	21546.090000	-8071.200000	-4510.890000	2643.795000	13047.660000	2.056305	14.635158	6.445700	-13.125429	23.010183	12.870038	1.775644	-9.149151	-17.899980	25.209520	3.586100	0.946348	-0.089905	0.244750	-1.000000	-1.000000	-1.000000	-1.000000	-1.000000	-1.000000	-1.000000	80.689655	0.000000	-1.000000	-1.000000	1194062.000000	1770063884.329545
12467.835000	20176.155000	26423.865000	21457.260000	-7996.140000	-4504.815000	2653.650000	13061.025000	-6.955791	3.375102	-5.250343	-26.343474	39.562987	10.733276	-5.917578	-16.179981	-17.899980	25.209520	3.586100	0.946348	-0.089905	0.244750	-1.000000	-1.000000	-1.000000	-1.000000	-1.000000	-1.000000	-1.000000	80.689655	0.000000	-1.000000	-1.000000	1194063.000000	1770063884.329557
12457.575000	20118.510000	26339.535000	21360.645000	-8028.900000	-4508.145000	2662.245000	13058.370000	-11.624893	-11.108393	-16.603448	-25.242180	56.514980	3.052909	-12.456308	-11.653417	-17.899980	25.209520	3.586100	0.946348	-0.089905	0.244750	-1.000000	-1.000000	-1.000000	-1.000000	-1.000000	-1.000000	-1.000000	80.689655	0.000000	-1.000000	-1.000000	1194064.000000	1770063884.329567
12446.910000	20125.530000	26387.235000	21473.505000	-7909.515000	-4502.430000	2623.050000	12999.870000	-11.375191	-25.759028	-27.818710	-14.692731	60.735507	-4.031010	-13.064605	-2.761782	-17.899980	25.209520	3.586100	0.946348	-0.089905	0.244750	-1.000000	-1.000000	-1.000000	-1.000000	-1.000000	-1.000000	-1.000000	80.689655	0.000000	-1.000000	-1.000000	1194065.000000	1770063884.329576
12490.110000	20204.370000	26470.395000	21490.740000	-7748.325000	-4434.480000	2642.355000	13023.270000	-7.536413	-31.645999	-29.884299	2.873516	46.560969	-5.487018	-8.021083	1.062274	-17.899980	25.209520	3.586100	0.946348	-0.089905	0.244750	-1.000000	-1.000000	-1.000000	-1.000000	-1.000000	-1.000000	-1.000000	80.689655	0.000000	-1.000000	-1.000000	1194066.000000	1770063884.329582
12495.960000	20195.190000	26416.710000	21349.620000	-7820.775000	-4428.045000	2672.055000	13068.630000	-0.400378	-20.598369	-14.853662	20.110113	21.730778	-0.222376	-0.207311	0.062749	-17.899980	25.209520	3.586100	0.946348	-0.089905	0.244750	-1.000000	-1.000000	-1.000000	-1.000000	-1.000000	-1.000000	-1.000000	80.689655	0.000000	-1.000000	-1.000000	1194067.000000	1770063884.330157
12472.965000	20162.295000	26388.180000	21389.760000	-7961.670000	-4491.270000	2645.505000	13057.920000	8.388406	2.445609	9.316538	23.176212	-8.328011	7.682278	8.399160	2.239382	-17.899980	25.209520	3.586100	0.946348	-0.089905	0.244750	-1.000000	-1.000000	-1.000000	-1.000000	-1.000000	-1.000000	-1.000000	80.689655	0.000000	-1.000000	-1.000000	1194068.000000	1770063884.330167
12460.500000	20133.855000	26387.820000	21490.380000	-7978.995000	-4471.335000	2651.805000	13033.980000	14.406316	22.704537	27.380829	13.091186	-42.063659	10.122209	14.562647	8.736119	-17.899980	25.209520	3.586100	0.946348	-0.089905	0.244750	-1.000000	-1.000000	-1.000000	-1.000000	-1.000000	-1.000000	-1.000000	80.689655	0.000000	-1.000000	-1.000000	1194069.000000	1770063884.335688
12469.905000	20173.680000	26454.330000	21575.025000	-7958.835000	-4488.525000	2650.005000	13015.035000	14.449570	30.075061	32.332002	6.360155	-69.815910	3.486254	15.239098	11.636024	-17.899980	25.209520	3.586100	0.946348	-0.089905	0.244750	-1.000000	-1.000000	-1.000000	-1.000000	-1.000000	-1.000000	-1.000000	80.689655	0.000000	-1.000000	-1.000000	1194070.000000	1770063884.335706
12509.460000	20214.405000	26472.195000	21509.640000	-7963.605000	-4467.465000	2691.720000	13046.625000	9.240398	25.068016	26.369023	9.992411	-78.379316	-7.024494	11.436253	6.410571	5.279960	21.074060	3.265640	0.934080	-0.117065	0.288390	-1.000000	-1.000000	-1.000000	-1.000000	-1.000000	-1.000000	-1.000000	80.689655	0.000000	-1.000000	-1.000000	1194071.000000	1770063884.338363
12437.685000	20166.165000	26430.165000	21470.985000	-7890.210000	-4400.190000	2710.035000	12990.510000	1.181462	14.095084	15.148927	15.189029	-62.553816	-12.860449	6.489856	-3.155144	5.279960	21.074060	3.265640	0.934080	-0.117065	0.288390	-1.000000	-1.000000	-1.000000	-1.000000	-1.000000	-1.000000	-1.000000	80.689655	0.000000	-1.000000	-1.000000	1194072.000000	1770063884.338372
12448.755000	20205.810000	26449.155000	21464.055000	-7904.835000	-4452.750000	2660.220000	12995.685000	-7.879772	3.257487	3.671674	12.680178	-26.981941	-9.653857	1.560902	-11.420124	5.279960	21.074060	3.265640	0.934080	-0.117065	0.288390	-1.000000	-1.000000	-1.000000	-1.000000	-1.000000	-1.000000	-1.000000	80.689655	0.000000	-1.000000	-1.000000	1194073.000000	1770063884.344970
12450.420000	20170.665000	26377.785000	21366.810000	-7994.835000	-4510.710000	2623.995000	12998.250000	-15.140841	-5.159713	-7.410557	-0.777109	11.540832	-2.963481	-5.143678	-14.188769	5.279960	21.074060	3.265640	0.934080	-0.117065	0.288390	-1.000000	-1.000000	-1.000000	-1.000000	-1.000000	-1.000000	-1.000000	80.689655	0.000000	-1.000000	-1.000000	1194074.000000	1770063884.344981
12465.675000	20141.910000	26374.905000	21410.055000	-8016.030000	-4501.395000	2631.915000	13041.045000	-17.014124	-13.239683	-20.447705	-22.012566	31.358288	-2.538780	-14.130537	-9.302828	5.279960	21.074060	3.265640	0.934080	-0.117065	0.288390	-1.000000	-1.000000	-1.000000	-1.000000	-1.000000	-1.000000	-1.000000	80.689655	0.000000	-1.000000	-1.000000	1194075.000000	1770063884.360992
12467.475000	20092.725000	26335.980000	21378.375000	-8118.090000	-4533.255000	2638.305000	13103.370000	-12.078678	-22.443008	-32.258413	-37.666681	28.201354	-8.599555	-21.156995	1.877966	5.279960	21.074060	3.265640	0.934080	-0.117065	0.288390	-1.000000	-1.000000	-1.000000	-1.000000	-1.000000	-1.000000	-1.000000	80.689655	0.000000	-1.000000	-1.000000	1194076.000000	1770063884.361006
12488.310000	20136.375000	26393.490000	21425.940000	-8184.150000	-4552.830000	2637.495000	13094.865000	-1.498164	-27.437526	-32.906851	-34.927590	17.477697	-12.347319	-20.229185	14.886948	5.279960	21.074060	3.265640	0.934080	-0.117065	0.288390	-1.000000	-1.000000	-1.000000	-1.000000	-1.000000	-1.000000	-1.000000	80.689655	0.000000	-1.000000	-1.000000	1194077.000000	1770063884.361020
12527.640000	20231.460000	26501.715000	21540.375000	-8086.230000	-4516.155000	2653.605000	13097.970000	11.696365	-19.087920	-15.835632	-15.060514	14.506812	-7.590856	-9.750483	22.924829	5.279960	21.074060	3.265640	0.934080	-0.117065	0.288390	-1.000000	-1.000000	-1.000000	-1.000000	-1.000000	-1.000000	-1.000000	80.689655	0.000000	-1.000000	-1.000000	1194078.000000	1770063884.361024
12512.205000	20255.580000	26539.560000	21622.140000	-7941.240000	-4467.420000	2648.655000	13073.040000	21.686416	3.449855	13.203286	11.924940	24.489945	5.469072	5.410467	20.025463	5.279960	21.074060	3.265640	0.934080	-0.117065	0.288390	-1.000000	-1.000000	-1.000000	-1.000000	-1.000000	-1.000000	-1.000000	80.689655	0.000000	-1.000000	-1.000000	1194079.000000	1770063884.361031
12446.055000	20157.705000	26415.675000	21479.130000	-7948.980000	-4460.085000	2634.030000	13027.230000	20.833137	26.100621	36.549141	34.399463	41.139078	21.025402	16.599226	5.433283	5.279960	21.074060	3.265640	0.934080	-0.117065	0.288390	-1.000000	-1.000000	-1.000000	-1.000000	-1.000000	-1.000000	-1.000000	80.689655	0.000000	-1.000000	-1.000000	1194080.000000	1770063884.361036
12441.600000	20123.505000	26359.020000	21396.330000	-8023.230000	-4487.265000	2614.680000	13039.920000	7.177516	31.495301	37.176476	39.657972	46.922430	28.890431	17.411398	-14.276418	25.301080	19.578580	-3.860780	0.931821	-0.135803	0.316772	-1.000000	-1.000000	-1.000000	-1.000000	-1.000000	-1.000000	-1.000000	80.689655	0.000000	-1.000000	-1.000000	1194081.000000	1770063884.361041
12473.595000	20163.375000	26402.490000	21441.420000	-8045.595000	-4463.820000	2625.390000	13058.685000	-10.606725	16.576646	14.780942	23.073875	27.410214	23.351825	9.948332	-27.414324	25.301080	19.578580	-3.860780	0.931821	-0.135803	0.316772	-1.000000	-1.000000	-1.000000	-1.000000	-1.000000	-1.000000	-1.000000	80.689655	0.000000	-1.000000	-1.000000	1194082.000000	1770063884.361046
12512.520000	20215.215000	26484.930000	21564.360000	-8064.495000	-4447.620000	2653.155000	13046.850000	-20.422156	-4.814292	-11.911614	-1.509231	-11.316658	9.494123	2.612058	-26.484843	25.301080	19.578580	-3.860780	0.931821	-0.135803	0.316772	-1.000000	-1.000000	-1.000000	-1.000000	-1.000000	-1.000000	-1.000000	80.689655	0.000000	-1.000000	-1.000000	1194083.000000	1770063884.375980
12493.980000	20218.500000	26515.260000	21629.790000	-7972.155000	-4480.605000	2617.650000	13023.540000	-17.351208	-15.715439	-21.919463	-12.982185	-45.086825	-4.318829	0.109191	-15.444383	25.301080	19.578580	-3.860780	0.931821	-0.135803	0.316772	-1.000000	-1.000000	-1.000000	-1.000000	-1.000000	-1.000000	-1.000000	80.689655	0.000000	-1.000000	-1.000000	1194084.000000	1770063884.375991
12477.420000	20217.735000	26462.925000	21439.080000	-7917.165000	-4516.560000	2576.250000	13062.645000	-6.437135	-10.855645	-11.657161	-8.022807	-49.276588	-14.146455	-0.813972	-3.578531	25.301080	19.578580	-3.860780	0.931821	-0.135803	0.316772	-1.000000	-1.000000	-1.000000	-1.000000	-1.000000	-1.000000	-1.000000	80.689655	0.000000	-1.000000	-1.000000	1194085.000000	1770063884.376003
12420.405000	20133.360000	26322.120000	21259.935000	-7946.505000	-4505.940000	2571.165000	13026.060000	2.617405	-0.127745	1.521313	-7.593800	-20.721325	-19.183322	-4.625841	4.708272	25.301080	19.578580	-3.860780	0.931821	-0.135803	0.316772	-1.000000	-1.000000	-1.000000	-1.000000	-1.000000	-1.000000	-1.000000	80.689655	0.000000	-1.000000	-1.000000	1194086.000000	1770063884.376008
12442.050000	20144.610000	26365.860000	21403.530000	-8022.150000	-4533.795000	2561.535000	13021.830000	3.518906	1.389996	-2.247126	-27.834750	13.423483	-19.828560	-10.324580	9.641662	25.301080	19.578580	-3.860780	0.931821	-0.135803	0.316772	-1.000000	-1.000000	-1.000000	-1.000000	-1.000000	-1.000000	-1.000000	80.689655	0.000000	-1.000000	-1.000000	1194087.000000	1770063884.376014
12461.445000	20150.910000	26445.960000	21601.800000	-8196.570000	-4495.815000	2593.125000	13047.255000	-0.689192	-9.153676	-19.511749	-49.039438	18.221777	-17.291839	-12.831898	12.506175	25.301080	19.578580	-3.860780	0.931821	-0.135803	0.316772	-1.000000	-1.000000	-1.000000	-1.000000	-1.000000	-1.000000	-1.000000	80.689655	0.000000	-1.000000	-1.000000	1194088.000000	1770063884.376018
12435.210000	20145.150000	26564.355000	21907.755000	-8346.690000	-4455.225000	2603.430000	13045.230000	-1.276587	-18.100598	-24.011935	-31.312311	-15.287163	-11.084489	-8.051662	15.197875	25.301080	19.578580	-3.860780	0.931821	-0.135803	0.316772	-1.000000	-1.000000	-1.000000	-1.000000	-1.000000	-1.000000	-1.000000	80.689655	0.000000	-1.000000	-1.000000	1194089.000000	1770063884.376024
12508.155000	20347.335000	26748.855000	22013.910000	-8261.280000	-4585.140000	2544.435000	13072.905000	5.585493	-10.382542	2.756439	36.177842	-58.939038	-1.352822	2.462633	17.444550	25.301080	19.578580	-3.860780	0.931821	-0.135803	0.316772	-1.000000	-1.000000	-1.000000	-1.000000	-1.000000	-1.000000	-1.000000	80.689655	0.000000	-1.000000	-1.000000	1194090.000000	1770063884.376029
12527.820000	20274.525000	26408.205000	21162.780000	-7996.770000	-4437.945000	2630.700000	13086.090000	15.467441	13.742633	43.317292	99.793668	-67.209442	8.046583	12.350372	16.229991	24.843280	9.796920	0.244160	0.922971	-0.115661	0.334594	-1.000000	-1.000000	-1.000000	-1.000000	-1.000000	-1.000000	-1.000000	80.689655	0.000000	-1.000000	-1.000000	1194091.000000	1770063884.391007
12470.310000	20164.725000	26328.150000	21068.235000	-8004.645000	-4485.375000	2586.240000	12994.605000	19.588112	33.815492	53.480460	78.535460	-18.416813	15.057753	16.740628	8.560667	24.843280	9.796920	0.244160	0.922971	-0.115661	0.334594	-1.000000	-1.000000	-1.000000	-1.000000	-1.000000	-1.000000	-1.000000	80.689655	0.000000	-1.000000	-1.000000	1194092.000000	1770063884.391021
12460.545000	20116.890000	26293.635000	21041.595000	-8039.475000	-4545.270000	2542.770000	13029.570000	11.714986	28.009493	13.715152	-32.816265	57.893004	18.787673	13.763971	-5.917257	24.843280	9.796920	0.244160	0.922971	-0.115661	0.334594	-1.000000	-1.000000	-1.000000	-1.000000	-1.000000	-1.000000	-1.000000	80.689655	0.000000	-1.000000	-1.000000	1194093.000000	1770063884.391037
12434.715000	20095.965000	26295.795000	21250.665000	-7954.380000	-4536.405000	2500.605000	13033.665000	-4.650668	-1.503640	-44.161871	-139.109084	108.280208	16.173479	3.766360	-21.067613	24.843280	9.796920	0.244160	0.922971	-0.115661	0.334594	-1.000000	-1.000000	-1.000000	-1.000000	-1.000000	-1.000000	-1.000000	80.689655	0.000000	-1.000000	-1.000000	1194094.000000	1770063884.391042
12430.395000	20120.535000	26352.270000	21463.605000	-7886.250000	-4510.665000	2456.055000	13013.280000	-18.979763	-31.414021	-72.638608	-143.889116	105.817863	7.782218	-9.603112	-27.205012	24.843280	9.796920	0.244160	0.922971	-0.115661	0.334594	-1.000000	-1.000000	-1.000000	-1.000000	-1.000000	-1.000000	-1.000000	80.689655	0.000000	-1.000000	-1.000000	1194095.000000	1770063884.391049
12458.295000	20123.055000	26343.090000	21388.860000	-7993.215000	-4545.180000	2472.075000	13068.630000	-23.242856	-40.777576	-53.301701	-42.754398	60.007818	-1.796313	-20.335127	-19.972917	24.843280	9.796920	0.244160	0.922971	-0.115661	0.334594	-1.000000	-1.000000	-1.000000	-1.000000	-1.000000	-1.000000	-1.000000	80.689655	0.000000	-1.000000	-1.000000	1194096.000000	1770063884.391054
12472.830000	20153.655000	26393.760000	21464.325000	-7990.020000	-4541.580000	2477.610000	13089.645000	-15.736261	-25.307790	-4.819528	82.305956	-2.747845	-10.170169	-22.581308	-2.668525	24.843280	9.796920	0.244160	0.922971	-0.115661	0.334594	-1.000000	-1.000000	-1.000000	-1.000000	-1.000000	-1.000000	-1.000000	80.689655	0.000000	-1.000000	-1.000000	1194097.000000	1770063884.406337
12466.620000	20163.330000	26418.105000	21509.910000	-7972.020000	-4520.520000	2477.520000	13034.790000	-0.709806	3.733811	39.692134	145.221511	-53.248932	-15.469114	-13.925999	15.276604	24.843280	9.796920	0.244160	0.922971	-0.115661	0.334594	-1.000000	-1.000000	-1.000000	-1.000000	-1.000000	-1.000000	-1.000000	80.689655	0.000000	-1.000000	-1.000000	1194098.000000	1770063884.406352
12457.980000	20188.440000	26451.000000	21564.585000	-7973.280000	-4470.165000	2471.535000	12966.210000	12.108509	27.145474	58.171560	125.463674	-75.296130	-12.780960	2.165903	21.252951	24.843280	9.796920	0.244160	0.922971	-0.115661	0.334594	-1.000000	-1.000000	-1.000000	-1.000000	-1.000000	-1.000000	-1.000000	80.689655	0.000000	-1.000000	-1.000000	1194099.000000	1770063884.406366
12477.060000	20194.920000	26457.255000	21602.115000	-8115.120000	-4468.680000	2472.030000	13008.510000	14.552536	32.897390	52.697589	69.112600	-76.399079	-1.857359	16.868016	10.893541	24.843280	9.796920	0.244160	0.922971	-0.115661	0.334594	-1.000000	-1.000000	-1.000000	-1.000000	-1.000000	-1.000000	-1.000000	80.689655	0.000000	-1.000000	-1.000000	1194100.000000	1770063884.406372
12460.005000	20193.210000	26496.720000	21706.965000	-8163.405000	-4541.985000	2452.545000	13050.630000	8.459629	25.647466	39.096346	28.342562	-70.880684	8.770344	22.449967	-3.998201	18.174660	0.457800	-1.800680	0.921323	-0.099487	0.354369	-1.000000	-1.000000	-1.000000	-1.000000	-1.000000	-1.000000	-1.000000	80.689655	0.000000	-1.000000	-1.000000	1194101.000000	1770063884.406380
12494.070000	20227.950000	26484.930000	21601.395000	-8087.130000	-4527.990000	2466.045000	13077.315000	1.999843	16.132373	25.035261	8.230121	-57.471018	11.913144	19.245226	-8.767933	18.174660	0.457800	-1.800680	0.921323	-0.099487	0.354369	-1.000000	-1.000000	-1.000000	-1.000000	-1.000000	-1.000000	-1.000000	80.689655	0.000000	-1.000000	-1.000000	1194102.000000	1770063884.406386
12548.205000	20238.525000	26469.855000	21535.020000	-8115.615000	-4522.320000	2476.485000	13063.005000	1.467947	9.078247	7.292415	-20.158763	-27.495021	7.912667	13.084164	-1.951372	18.174660	0.457800	-1.800680	0.921323	-0.099487	0.354369	-1.000000	-1.000000	-1.000000	-1.000000	-1.000000	-1.000000	-1.000000	80.689655	0.000000	-1.000000	-1.000000	1194103.000000	1770063884.406393
12502.485000	20192.805000	26441.280000	21418.830000	-8039.070000	-4540.230000	2476.485000	12982.770000	6.313194	1.802027	-17.297835	-74.117526	15.672435	0.567407	7.937672	6.416718	18.174660	0.457800	-1.800680	0.921323	-0.099487	0.354369	-1.000000	-1.000000	-1.000000	-1.000000	-1.000000	-1.000000	-1.000000	80.689655	0.000000	-1.000000	-1.000000	1194104.000000	1770063884.406399
12427.605000	20160.810000	26422.200000	21365.280000	-8017.605000	-4492.620000	2485.485000	12929.040000	7.517703	-10.489767	-44.637133	-134.705689	59.677905	-5.858569	2.936354	4.744622	18.174660	0.457800	-1.800680	0.921323	-0.099487	0.354369	-1.000000	-1.000000	-1.000000	-1.000000	-1.000000	-1.000000	-1.000000	80.689655	0.000000	-1.000000	-1.000000	1194105.000000	1770063884.406406
12433.995000	20204.370000	26450.955000	21379.905000	-7979.265000	-4510.305000	2473.920000	12968.190000	-2.336959	-25.866360	-63.648105	-162.455930	91.404002	-7.782444	-4.334822	-8.242292	18.174660	0.457800	-1.800680	0.921323	-0.099487	0.354369	-1.000000	-1.000000	-1.000000	-1.000000	-1.000000	-1.000000	-1.000000	80.689655	0.000000	-1.000000	-1.000000	1194106.000000	1770063884.406411
12430.530000	20116.305000	26358.435000	21412.485000	-8049.645000	-4505.085000	2511.090000	13087.035000	-17.893895	-36.688877	-65.256446	-131.608960	95.863787	-5.317073	-12.499637	-17.809499	18.174660	0.457800	-1.800680	0.921323	-0.099487	0.354369	-1.000000	-1.000000	-1.000000	-1.000000	-1.000000	-1.000000	-1.000000	80.689655	0.000000	-1.000000	-1.000000	1194107.000000	1770063884.415963
12411.135000	20072.520000	26373.600000	21553.110000	-8172.585000	-4581.675000	2492.280000	13074.840000	-27.321837	-39.038714	-48.210887	-43.554045	62.494739	-3.472868	-17.233026	-8.732325	18.174660	0.457800	-1.800680	0.921323	-0.099487	0.354369	-1.000000	-1.000000	-1.000000	-1.000000	-1.000000	-1.000000	-1.000000	80.689655	0.000000	-1.000000	-1.000000	1194108.000000	1770063884.415975
12474.315000	20166.795000	26443.350000	21609.360000	-8214.255000	-4543.650000	2525.175000	13077.810000	-23.286279	-30.477513	-15.053616	73.737257	0.722570	-5.948503	-16.210521	13.959444	18.174660	0.457800	-1.800680	0.921323	-0.099487	0.354369	-1.000000	-1.000000	-1.000000	-1.000000	-1.000000	-1.000000	-1.000000	80.689655	0.000000	-1.000000	-1.000000	1194109.000000	1770063884.415988
12508.245000	20193.345000	26403.480000	21395.070000	-8282.610000	-4483.395000	2557.935000	13093.020000	-5.322383	-7.111139	26.138945	166.149566	-59.562429	-6.572204	-9.139642	30.080161	18.174660	0.457800	-1.800680	0.921323	-0.099487	0.354369	-1.000000	-1.000000	-1.000000	-1.000000	-1.000000	-1.000000	-1.000000	80.689655	0.000000	-1.000000	-1.000000	1194110.000000	1770063884.415993
12506.355000	20216.790000	26401.635000	21228.930000	-8276.400000	-4551.525000	2521.710000	13072.995000	18.471914	25.703417	58.584202	180.401023	-90.733510	1.665336	1.651478	26.213600	10.849860	-7.935200	-8.438780	0.928892	-0.104065	0.361388	-1.000000	-1.000000	-1.000000	-1.000000	-1.000000	-1.000000	-1.000000	80.689655	0.000000	-1.000000	-1.000000	1194111.000000	1770063884.421270
12505.860000	20236.635000	26453.295000	21326.130000	-8060.850000	-4487.715000	2536.920000	13070.295000	33.824150	51.681270	68.320799	110.526017	-80.760333	13.320162	9.708521	6.063297	10.849860	-7.935200	-8.438780	0.928892	-0.104065	0.361388	-1.000000	-1.000000	-1.000000	-1.000000	-1.000000	-1.000000	-1.000000	80.689655	0.000000	-1.000000	-1.000000	1194112.000000	1770063884.421283
12526.875000	20243.160000	26503.920000	21542.220000	-8030.295000	-4495.410000	2552.175000	13101.120000	32.648510	57.699844	55.637176	9.799034	-32.447852	19.190769	10.382477	-14.940346	10.849860	-7.935200	-8.438780	0.928892	-0.104065	0.361388	-1.000000	-1.000000	-1.000000	-1.000000	-1.000000	-1.000000	-1.000000	80.689655	0.000000	-1.000000	-1.000000	1194113.000000	1770063884.421976
12498.795000	20202.975000	26493.030000	21650.715000	-7995.240000	-4563.540000	2540.610000	13133.745000	19.139653	41.571822	30.149550	-54.589313	31.591476	14.935032	4.886448	-22.679487	10.849860	-7.935200	-8.438780	0.928892	-0.104065	0.361388	-1.000000	-1.000000	-1.000000	-1.000000	-1.000000	-1.000000	-1.000000	80.689655	0.000000	-1.000000	-1.000000	1194114.000000	1770063884.421988
12414.285000	20133.810000	26403.255000	21455.460000	-7861.500000	-4480.965000	2555.910000	13115.655000	0.452744	8.866085	-0.418630	-62.034365	78.472539	1.644913	-2.673519	-16.215757	10.849860	-7.935200	-8.438780	0.928892	-0.104065	0.361388	-1.000000	-1.000000	-1.000000	-1.000000	-1.000000	-1.000000	-1.000000	80.689655	0.000000	-1.000000	-1.000000	1194115.000000	1770063884.436668
12365.820000	20105.010000	26310.420000	21171.735000	-7745.355000	-4412.070000	2567.295000	12986.280000	-19.823037	-28.273884	-31.132654	-47.180534	90.959216	-10.473645	-8.078303	-8.410426	10.849860	-7.935200	-8.438780	0.928892	-0.104065	0.361388	-1.000000	-1.000000	-1.000000	-1.000000	-1.000000	-1.000000	-1.000000	80.689655	0.000000	-1.000000	-1.000000	1194116.000000	1770063884.436680
12328.965000	20063.295000	26288.820000	21253.635000	-7866.990000	-4469.715000	2553.660000	12888.315000	-36.821277	-53.460496	-54.409618	-48.184270	71.782447	-11.166958	-9.056370	-12.302070	10.849860	-7.935200	-8.438780	0.928892	-0.104065	0.361388	-1.000000	-1.000000	-1.000000	-1.000000	-1.000000	-1.000000	-1.000000	80.689655	0.000000	-1.000000	-1.000000	1194117.000000	1770063884.436694
12434.355000	20167.380000	26402.805000	21471.705000	-7955.145000	-4580.820000	2544.075000	12985.065000	-41.814683	-55.628976	-59.897219	-58.668910	28.229068	-5.240405	-6.718514	-24.665117	10.849860	-7.935200	-8.438780	0.928892	-0.104065	0.361388	-1.000000	-1.000000	-1.000000	-1.000000	-1.000000	-1.000000	-1.000000	80.689655	0.000000	-1.000000	-1.000000	1194118.000000	1770063884.436700
12468.870000	20167.335000	26360.010000	21364.290000	-8120.970000	-4560.255000	2579.355000	13026.330000	-27.741911	-34.626581	-40.714624	-43.144010	-31.009244	-5.221030	-3.192172	-27.351595	10.849860	-7.935200	-8.438780	0.928892	-0.104065	0.361388	-1.000000	-1.000000	-1.000000	-1.000000	-1.000000	-1.000000	-1.000000	80.689655	0.000000	-1.000000	-1.000000	1194119.000000	1770063884.436706
12504.330000	20129.310000	26335.980000	21358.485000	-8283.285000	-4647.780000	2524.545000	13103.145000	2.239142	-1.754766	-4.302322	7.438267	-91.587488	-13.169817	0.844573	-7.421027	10.849860	-7.935200	-8.438780	0.928892	-0.104065	0.361388	-1.000000	-1.000000	-1.000000	-1.000000	-1.000000	-1.000000	-1.000000	80.689655	0.000000	-1.000000	-1.000000	1194120.000000	1770063884.436712
12471.930000	20109.330000	26373.150000	21466.035000	-8367.705000	-4622.490000	2570.895000	13098.510000	32.998577	25.018568	28.817145	61.070989	-135.524353	-21.014182	4.488360	28.327673	31.130400	-11.139800	-6.821220	0.927671	-0.120910	0.372802	-1.000000	-1.000000	-1.000000	-1.000000	-1.000000	-1.000000	-1.000000	80.689655	0.000000	-1.000000	-1.000000	1194121.000000	1770063884.450936
12447.270000	20204.685000	26565.570000	21784.590000	-8533.440000	-4585.230000	2590.920000	13035.105000	47.273224	35.604838	45.348287	84.916699	-144.460807	-19.617333	6.913963	56.947341	31.130400	-11.139800	-6.821220	0.927671	-0.120910	0.372802	-1.000000	-1.000000	-1.000000	-1.000000	-1.000000	-1.000000	-1.000000	80.689655	0.000000	-1.000000	-1.000000	1194122.000000	1770063884.450946
12462.660000	20310.345000	26624.745000	21768.390000	-8083.710000	-4528.215000	2550.060000	12987.270000	38.991505	35.638727	49.060217	74.401901	-102.125083	-3.638882	7.990654	56.333463	31.130400	-11.139800	-6.821220	0.927671	-0.120910	0.372802	-1.000000	-1.000000	-1.000000	-1.000000	-1.000000	-1.000000	-1.000000	80.689655	0.000000	-1.000000	-1.000000	1194123.000000	1770063884.450956
12480.120000	20264.130000	26428.590000	21384.045000	-7739.280000	-4424.040000	2611.530000	12964.770000	17.617930	34.360551	44.574185	39.032360	-2.440899	22.268086	6.815577	24.681274	31.130400	-11.139800	-6.821220	0.927671	-0.120910	0.372802	-1.000000	-1.000000	-1.000000	-1.000000	-1.000000	-1.000000	-1.000000	80.689655	0.000000	-1.000000	-1.000000	1194124.000000	1770063884.450961
12548.880000	20248.200000	26449.830000	21535.470000	-7882.830000	-4479.570000	2641.995000	13011.840000	-1.069343	30.385689	27.238773	-10.673616	125.301751	43.432573	4.359732	-15.286622	31.130400	-11.139800	-6.821220	0.927671	-0.120910	0.372802	-1.000000	-1.000000	-1.000000	-1.000000	-1.000000	-1.000000	-1.000000	80.689655	0.000000	-1.000000	-1.000000	1194125.000000	1770063884.450967
12495.150000	20195.640000	26410.005000	21407.535000	-7880.265000	-4457.565000	2628.000000	13028.670000	-9.603415	15.277492	-3.957432	-58.235126	214.113225	46.750442	3.183739	-35.978702	31.130400	-11.139800	-6.821220	0.927671	-0.120910	0.372802	-1.000000	-1.000000	-1.000000	-1.000000	-1.000000	-1.000000	-1.000000	80.689655	0.000000	-1.000000	-1.000000	1194126.000000	1770063884.450971
12460.185000	20160.765000	26371.035000	21248.460000	-7926.345000	-4409.190000	2615.085000	13059.225000	-14.894315	-14.185945	-39.389362	-89.978150	212.361406	32.253415	2.224465	-30.339635	31.130400	-11.139800	-6.821220	0.927671	-0.120910	0.372802	-1.000000	-1.000000	-1.000000	-1.000000	-1.000000	-1.000000	-1.000000	80.689655	0.000000	-1.000000	-1.000000	1194127.000000	1770063884.450977
12465.495000	20145.105000	26358.570000	21280.545000	-8178.930000	-4527.315000	2573.145000	13098.735000	-25.508977	-48.229901	-63.990234	-97.159160	122.308380	8.750108	-1.926698	-12.256075	31.130400	-11.139800	-6.821220	0.927671	-0.120910	0.372802	-1.000000	-1.000000	-1.000000	-1.000000	-1.000000	-1.000000	-1.000000	80.689655	0.000000	-1.000000	-1.000000	1194128.000000	1770063884.450981
12454.515000	20087.055000	26298.810000	21280.995000	-8689.815000	-4618.530000	2556.810000	13143.330000	-37.061337	-67.911585	-65.332056	-70.850910	-19.146560	-18.173618	-9.330043	3.117262	31.130400	-11.139800	-6.821220	0.927671	-0.120910	0.372802	-1.000000	-1.000000	-1.000000	-1.000000	-1.000000	-1.000000	-1.000000	80.689655	0.000000	-1.000000	-1.000000	1194129.000000	1770063884.455509
12425.355000	20138.400000	26503.110000	21776.400000	-8914.275000	-4548.915000	2596.590000	13093.380000	-37.909384	-60.330564	-42.078744	-13.372447	-163.245109	-43.281145	-15.765450	9.490424	31.130400	-11.139800	-6.821220	0.927671	-0.120910	0.372802	-1.000000	-1.000000	-1.000000	-1.000000	-1.000000	-1.000000	-1.000000	80.689655	0.000000	-1.000000	-1.000000	1194130.000000	1770063884.455520
12513.510000	20278.395000	26697.915000	22056.930000	-8567.145000	-4654.170000	2567.160000	13116.060000	-21.710395	-27.176760	-1.673602	59.441925	-247.747723	-56.631409	-16.310050	7.618582	41.903960	-15.366820	-6.546540	0.940366	-0.134765	0.351562	-1.000000	-1.000000	-1.000000	-1.000000	-1.000000	-1.000000	-1.000000	80.689655	0.000000	-1.000000	-1.000000	1194131.000000	1770063884.457989
12529.980000	20214.270000	26376.480000	21280.860000	-7994.790000	-4619.655000	2596.635000	13096.935000	8.191051	17.259684	40.048948	114.684412	-218.043726	-52.934555	-9.302447	2.318909	41.903960	-15.366820	-6.546540	0.940366	-0.134765	0.351562	-1.000000	-1.000000	-1.000000	-1.000000	-1.000000	-1.000000	-1.000000	80.689655	0.000000	-1.000000	-1.000000	1194132.000000	1770063884.457994
12485.745000	20136.195000	26243.415000	20935.575000	-7865.055000	-4430.115000	2645.955000	13051.260000	37.682861	51.281603	58.408263	105.741216	-76.517210	-32.768513	2.406754	-2.339889	41.903960	-15.366820	-6.546540	0.940366	-0.134765	0.351562	-1.000000	-1.000000	-1.000000	-1.000000	-1.000000	-1.000000	-1.000000	80.689655	0.000000	-1.000000	-1.000000	1194133.000000	1770063884.465271
12464.280000	20211.345000	26471.835000	21412.755000	-8044.065000	-4414.320000	2632.500000	12988.170000	48.521465	59.782952	44.120484	27.979237	102.996097	3.709929	13.466163	-6.989584	41.903960	-15.366820	-6.546540	0.940366	-0.134765	0.351562	-1.000000	-1.000000	-1.000000	-1.000000	-1.000000	-1.000000	-1.000000	80.689655	0.000000	-1.000000	-1.000000	1194134.000000	1770063884.465282
12465.135000	20288.970000	26547.390000	21550.095000	-8084.520000	-4547.655000	2574.180000	12882.690000	34.396437	46.712087	18.744034	-50.747382	220.921120	44.706908	18.130308	-15.107479	41.903960	-15.366820	-6.546540	0.940366	-0.134765	0.351562	-1.000000	-1.000000	-1.000000	-1.000000	-1.000000	-1.000000	-1.000000	80.689655	0.000000	-1.000000	-1.000000	1194135.000000	1770063884.468711
12488.535000	20222.010000	26414.370000	21395.475000	-7725.285000	-4359.555000	2630.925000	13000.995000	6.811112	25.620248	4.835119	-64.369707	227.130139	67.135130	14.135237	-25.122350	41.903960	-15.366820	-6.546540	0.940366	-0.134765	0.351562	-1.000000	-1.000000	-1.000000	-1.000000	-1.000000	-1.000000	-1.000000	80.689655	0.000000	-1.000000	-1.000000	1194136.000000	1770063884.468723
12518.505000	20135.565000	26307.315000	21255.120000	-7673.355000	-4372.380000	2646.360000	13164.570000	-16.417959	3.031591	-0.959271	-22.565670	154.329274	64.123213	6.925903	-24.563214	41.903960	-15.366820	-6.546540	0.940366	-0.134765	0.351562	-1.000000	-1.000000	-1.000000	-1.000000	-1.000000	-1.000000	-1.000000	80.689655	0.000000	-1.000000	-1.000000	1194137.000000	1770063884.481416
12416.220000	20035.530000	26246.655000	21347.190000	-7882.155000	-4565.295000	2550.510000	13079.655000	-25.481468	-20.954302	-13.260600	17.055783	64.732626	42.819534	1.772479	-4.004581	41.903960	-15.366820	-6.546540	0.940366	-0.134765	0.351562	-1.000000	-1.000000	-1.000000	-1.000000	-1.000000	-1.000000	-1.000000	80.689655	0.000000	-1.000000	-1.000000	1194138.000000	1770063884.481427
12320.955000	20051.460000	26314.785000	21540.240000	-7952.445000	-4575.600000	2515.320000	12949.560000	-24.272511	-43.991525	-36.326856	14.736226	-15.248670	5.103320	-4.844120	23.979783	41.903960	-15.366820	-6.546540	0.940366	-0.134765	0.351562	-1.000000	-1.000000	-1.000000	-1.000000	-1.000000	-1.000000	-1.000000	80.689655	0.000000	-1.000000	-1.000000	1194139.000000	1770063884.481438
12456.360000	20215.125000	26462.430000	21492.540000	-7934.535000	-4532.265000	2578.005000	13034.430000	-20.570002	-56.369995	-55.683008	-20.022526	-96.127129	-39.061016	-14.328337	37.493487	41.903960	-15.366820	-6.546540	0.940366	-0.134765	0.351562	-1.000000	-1.000000	-1.000000	-1.000000	-1.000000	-1.000000	-1.000000	80.689655	0.000000	-1.000000	-1.000000	1194140.000000	1770063884.481442
12545.505000	20228.760000	26447.760000	21374.820000	-7906.230000	-4438.305000	2653.695000	13124.655000	-11.783856	-43.369110	-43.276885	-37.387294	-184.098006	-66.468600	-18.124627	33.027161	51.807700	-5.600420	0.534100	0.967344	-0.130981	0.310546	-1.000000	-1.000000	-1.000000	-1.000000	-1.000000	-1.000000	-1.000000	80.689655	0.000000	-1.000000	-1.000000	1194141.000000	1770063884.481448
12518.730000	20160.270000	26368.470000	21343.950000	-7944.840000	-4493.070000	2634.255000	13095.900000	7.470327	-4.190956	7.335307	-5.285197	-246.314525	-64.949752	-10.432149	23.292828	51.807700	-5.600420	0.534100	0.967344	-0.130981	0.310546	-1.000000	-1.000000	-1.000000	-1.000000	-1.000000	-1.000000	-1.000000	80.689655	0.000000	-1.000000	-1.000000	1194142.000000	1770063884.481453
12448.080000	20114.145000	26279.190000	21181.500000	-8075.205000	-4591.440000	2579.310000	13000.680000	28.314233	36.031885	57.292814	40.627313	-229.769779	-42.429761	2.908196	14.506375	51.807700	-5.600420	0.534100	0.967344	-0.130981	0.310546	-1.000000	-1.000000	-1.000000	-1.000000	-1.000000	-1.000000	-1.000000	80.689655	0.000000	-1.000000	-1.000000	1194143.000000	1770063884.481920
12450.330000	20130.030000	26329.995000	21325.680000	-8113.050000	-4584.915000	2554.605000	12976.380000	34.063464	49.398018	64.371560	46.280035	-123.047082	-13.399709	11.700051	1.930529	51.807700	-5.600420	0.534100	0.967344	-0.130981	0.310546	-1.000000	-1.000000	-1.000000	-1.000000	-1.000000	-1.000000	-1.000000	80.689655	0.000000	-1.000000	-1.000000	1194144.000000	1770063884.481938
12471.255000	20132.550000	26379.405000	21455.865000	-8206.830000	-4654.890000	2550.015000	13094.235000	19.622864	34.132212	33.110017	16.465903	22.651886	10.398654	10.694866	-17.031388	51.807700	-5.600420	0.534100	0.967344	-0.130981	0.310546	-1.000000	-1.000000	-1.000000	-1.000000	-1.000000	-1.000000	-1.000000	80.689655	0.000000	-1.000000	-1.000000	1194145.000000	1770063884.493594
12433.545000	20109.240000	26364.060000	21444.030000	-8013.555000	-4577.580000	2548.125000	13074.345000	-4.519845	10.521640	-0.467970	-6.035116	144.277682	24.904336	2.847883	-35.767253	51.807700	-5.600420	0.534100	0.967344	-0.130981	0.310546	-1.000000	-1.000000	-1.000000	-1.000000	-1.000000	-1.000000	-1.000000	80.689655	0.000000	-1.000000	-1.000000	1194146.000000	1770063884.493604
12354.210000	20050.335000	26320.770000	21444.300000	-8180.055000	-4490.820000	2602.620000	13011.345000	-23.110327	-4.547236	-15.925711	-9.507905	213.150147	37.652601	-2.597273	-42.963696	51.807700	-5.600420	0.534100	0.967344	-0.130981	0.310546	-1.000000	-1.000000	-1.000000	-1.000000	-1.000000	-1.000000	-1.000000	80.689655	0.000000	-1.000000	-1.000000	1194147.000000	1770063884.493615
12372.750000	20115.405000	26447.670000	21667.230000	-8412.525000	-4586.940000	2612.790000	13015.980000	-27.636251	-10.865749	-19.880563	-13.373994	215.851789	52.517743	1.439562	-31.845609	51.807700	-5.600420	0.534100	0.967344	-0.130981	0.310546	-1.000000	-1.000000	-1.000000	-1.000000	-1.000000	-1.000000	-1.000000	80.689655	0.000000	-1.000000	-1.000000	1194148.000000	1770063884.493620
12436.875000	20194.965000	26425.710000	21458.520000	-8022.870000	-4535.730000	2622.060000	13025.475000	-20.246130	-14.554087	-21.338018	-20.099520	145.027298	55.524628	10.387165	-7.850160	51.807700	-5.600420	0.534100	0.967344	-0.130981	0.310546	-1.000000	-1.000000	-1.000000	-1.000000	-1.000000	-1.000000	-1.000000	80.689655	0.000000	-1.000000	-1.000000	1194149.000000	1770063884.494150
12515.040000	20227.590000	26413.830000	21409.470000	-7928.415000	-4555.935000	2594.880000	13061.025000	-7.025308	-14.218101	-18.319387	-15.184025	35.120525	32.733694	11.854061	15.168340	51.807700	-5.600420	0.534100	0.967344	-0.130981	0.310546	-1.000000	-1.000000	-1.000000	-1.000000	-1.000000	-1.000000	-1.000000	80.689655	0.000000	-1.000000	-1.000000	1194150.000000	1770063884.494160
12589.785000	20301.120000	26497.080000	21451.365000	-8043.705000	-4513.275000	2607.840000	13091.895000	9.963321	-4.376438	-7.310725	0.581161	-53.171597	-7.241057	1.413898	29.070712	35.555800	5.203660	-1.938020	0.978757	-0.107605	0.275207	-1.000000	-1.000000	-1.000000	-1.000000	-1.000000	-1.000000	-1.000000	80.689655	0.000000	-1.000000	-1.000000	1194151.000000	1770063884.498273
12487.635000	20274.705000	26513.325000	21401.145000	-8062.245000	-4450.365000	2604.870000	12996.855000	27.542653	12.223250	9.140887	12.946228	-88.749142	-37.934570	-11.377141	34.228594	35.555800	5.203660	-1.938020	0.978757	-0.107605	0.275207	-1.000000	-1.000000	-1.000000	-1.000000	-1.000000	-1.000000	-1.000000	80.689655	0.000000	-1.000000	-1.000000	1194152.000000	1770063884.498287
