Channel1	Channel2	Channel3	Channel4	Channel5	Channel6	Channel7	Channel8	FilteredChannel1	FilteredChannel2	FilteredChannel3	FilteredChannel4	FilteredChannel5	FilteredChannel6	FilteredChannel7	FilteredChannel8	GyroX	GyroY	GyroZ	AccX	AccY	AccZ	PPG1	PPG2	rawPPG1	rawPPG2	rawPPG3	Hr	Hrv	Battery	Trigger	PhysicalTrigger	AutoTrigger	NumMeasurements	Timestamp
-4282.470000	-1957.410000	16727.445000	21105.990000	-22084.830000	-31866.120000	11205.405000	15317.325000	-1.281440	2.780148	4.680582	4.170186	4.171951	6.493269	2.753170	0.606732	-2.517900	4.516960	-3.601360	0.739195	0.423400	0.474120	-1.000000	-1.000000	-1.000000	-1.000000	-1.000000	-1.000000	-1.000000	77.241379	0.000000	-1.000000	-1.000000	1384713.000000	1773867012.849108
-4293.090000	-1966.365000	16721.280000	21101.535000	-22094.550000	-31869.180000	11203.650000	15308.685000	-0.899308	6.653264	8.782974	8.256505	8.316700	11.226615	5.529421	-1.781540	-2.517900	4.516960	-3.601360	0.739195	0.423400	0.474120	-1.000000	-1.000000	-1.000000	-1.000000	-1.000000	-1.000000	-1.000000	77.241379	0.000000	-1.000000	-1.000000	1384714.000000	1773867012.849113
-4291.470000	-1951.605000	16735.455000	21120.300000	-22077.810000	-31858.560000	11200.860000	15303.645000	-0.933107	5.469651	7.136695	7.148768	7.371826	9.964796	5.612258	-1.774957	-2.517900	4.516960	-3.601360	0.739195	0.423400	0.474120	-1.000000	-1.000000	-1.000000	-1.000000	-1.000000	-1.000000	-1.000000	77.241379	0.000000	-1.000000	-1.000000	1384715.000000	1773867012.852468
-4276.530000	-1930.455000	16750.935000	21148.470000	-22056.705000	-31837.590000	11194.830000	15299.460000	-1.643595	1.112587	1.914500	2.554927	3.038756	4.806077	3.664636	1.146560	-2.517900	4.516960	-3.601360	0.739195	0.423400	0.474120	-1.000000	-1.000000	-1.000000	-1.000000	-1.000000	-1.000000	-1.000000	77.241379	0.000000	-1.000000	-1.000000	1384716.000000	1773867012.852478
-4245.705000	-1903.095000	16773.570000	21174.840000	-22034.115000	-31813.830000	11190.645000	15309.900000	-1.617219	-1.994772	-2.269926	-1.428564	-0.839106	-0.190066	1.095206	4.789187	-2.517900	4.516960	-3.601360	0.739195	0.423400	0.474120	-1.000000	-1.000000	-1.000000	-1.000000	-1.000000	-1.000000	-1.000000	77.241379	0.000000	-1.000000	-1.000000	1384717.000000	1773867012.860955
-4245.075000	-1902.645000	16773.795000	21174.210000	-22026.915000	-31801.770000	11202.660000	15317.595000	0.299170	-2.143387	-3.743400	-3.370253	-3.086686	-3.516566	-1.367463	7.946937	-2.517900	4.516960	-3.601360	0.739195	0.423400	0.474120	-1.000000	-1.000000	-1.000000	-1.000000	-1.000000	-1.000000	-1.000000	77.241379	0.000000	-1.000000	-1.000000	1384718.000000	1773867012.860965
-4256.955000	-1908.765000	16775.370000	21177.360000	-22018.140000	-31789.395000	11228.085000	15330.645000	2.764166	-1.338509	-4.220448	-4.533666	-4.526875	-5.584979	-3.055439	10.065028	-2.517900	4.516960	-3.601360	0.739195	0.423400	0.474120	-1.000000	-1.000000	-1.000000	-1.000000	-1.000000	-1.000000	-1.000000	77.241379	0.000000	-1.000000	-1.000000	1384719.000000	1773867012.860976
-4260.645000	-1918.890000	16765.335000	21153.285000	-22037.895000	-31813.470000	11220.030000	15327.495000	2.987344	-2.173916	-5.280059	-5.579811	-5.183971	-6.399459	-3.154872	9.521323	-2.517900	4.516960	-3.601360	0.739195	0.423400	0.474120	-1.000000	-1.000000	-1.000000	-1.000000	-1.000000	-1.000000	-1.000000	77.241379	0.000000	-1.000000	-1.000000	1384720.000000	1773867012.860981
-4285.305000	-1950.345000	16732.755000	21107.745000	-22085.595000	-31861.665000	11205.765000	15306.255000	0.094147	-4.968359	-6.818340	-6.343489	-5.303857	-6.487394	-2.500762	4.689030	-5.295220	5.188400	-2.517900	0.739195	0.422118	0.471862	-1.000000	-1.000000	-1.000000	-1.000000	-1.000000	-1.000000	-1.000000	77.241379	0.000000	-1.000000	-1.000000	1384721.000000	1773867012.864050
-4290.480000	-1952.280000	16732.710000	21110.490000	-22082.400000	-31857.885000	11209.500000	15308.280000	-4.228730	-7.901593	-8.096910	-7.101847	-6.201372	-7.302316	-2.926674	-3.153981	-5.295220	5.188400	-2.517900	0.739195	0.422118	0.471862	-1.000000	-1.000000	-1.000000	-1.000000	-1.000000	-1.000000	-1.000000	77.241379	0.000000	-1.000000	-1.000000	1384722.000000	1773867012.864059
-4268.295000	-1925.010000	16760.610000	21141.405000	-22055.670000	-31833.765000	11211.975000	15307.605000	-6.857435	-8.041975	-7.353191	-6.785185	-6.967930	-7.923984	-4.118835	-9.684430	-5.295220	5.188400	-2.517900	0.739195	0.422118	0.471862	-1.000000	-1.000000	-1.000000	-1.000000	-1.000000	-1.000000	-1.000000	77.241379	0.000000	-1.000000	-1.000000	1384723.000000	1773867012.869160
-4255.740000	-1903.455000	16776.495000	21167.010000	-22033.800000	-31809.240000	11202.345000	15283.710000	-5.071519	-3.404922	-2.611898	-3.067986	-4.405560	-5.037714	-3.942726	-11.507361	-5.295220	5.188400	-2.517900	0.739195	0.422118	0.471862	-1.000000	-1.000000	-1.000000	-1.000000	-1.000000	-1.000000	-1.000000	77.241379	0.000000	-1.000000	-1.000000	1384724.000000	1773867012.869170
-4251.555000	-1894.815000	16783.335000	21189.420000	-22010.805000	-31791.330000	11198.295000	15295.320000	0.275588	4.147656	4.896366	3.662160	2.002386	1.960883	-1.504208	-8.817579	-5.295220	5.188400	-2.517900	0.739195	0.422118	0.471862	-1.000000	-1.000000	-1.000000	-1.000000	-1.000000	-1.000000	-1.000000	77.241379	0.000000	-1.000000	-1.000000	1384725.000000	1773867012.872096
-4264.290000	-1909.305000	16763.625000	21168.720000	-22031.415000	-31809.510000	11201.040000	15317.055000	4.725404	9.423423	10.308439	9.141595	8.178140	8.690858	1.970587	-3.310366	-5.295220	5.188400	-2.517900	0.739195	0.422118	0.471862	-1.000000	-1.000000	-1.000000	-1.000000	-1.000000	-1.000000	-1.000000	77.241379	0.000000	-1.000000	-1.000000	1384726.000000	1773867012.872106
-4281.615000	-1926.765000	16750.935000	21153.195000	-22043.745000	-31818.420000	11202.345000	15324.435000	4.623551	8.356337	9.319842	8.917273	9.019627	9.677812	4.310344	3.393671	-5.295220	5.188400	-2.517900	0.739195	0.422118	0.471862	-1.000000	-1.000000	-1.000000	-1.000000	-1.000000	-1.000000	-1.000000	77.241379	0.000000	-1.000000	-1.000000	1384727.000000	1773867012.876027
-4279.905000	-1927.575000	16758.315000	21144.735000	-22053.645000	-31825.890000	11216.700000	15335.910000	0.634021	1.851832	2.694361	2.981241	3.661700	4.140033	4.158432	8.735512	-5.295220	5.188400	-2.517900	0.739195	0.422118	0.471862	-1.000000	-1.000000	-1.000000	-1.000000	-1.000000	-1.000000	-1.000000	77.241379	0.000000	-1.000000	-1.000000	1384728.000000	1773867012.876035
-4270.950000	-1904.085000	16784.865000	21151.980000	-22045.140000	-31824.855000	11235.060000	15326.235000	-3.018214	-4.437430	-3.572094	-3.327505	-2.903106	-2.621934	2.655414	10.116706	-5.295220	5.188400	-2.517900	0.739195	0.422118	0.471862	-1.000000	-1.000000	-1.000000	-1.000000	-1.000000	-1.000000	-1.000000	77.241379	0.000000	-1.000000	-1.000000	1384729.000000	1773867012.888256
-4281.795000	-1931.220000	16757.145000	21131.010000	-22063.725000	-31836.330000	11234.880000	15306.930000	-2.623122	-5.115243	-4.034187	-4.405476	-4.687753	-4.472240	2.139013	6.975649	-5.295220	5.188400	-2.517900	0.739195	0.422118	0.471862	-1.000000	-1.000000	-1.000000	-1.000000	-1.000000	-1.000000	-1.000000	77.241379	0.000000	-1.000000	-1.000000	1384730.000000	1773867012.888267
-4301.055000	-1966.230000	16726.005000	21112.920000	-22079.340000	-31857.030000	11225.700000	15300.720000	1.074382	-1.194706	-0.233789	-0.791931	-1.398996	-1.126603	2.662710	0.806487	-2.304260	5.569900	-0.808780	0.738829	0.419799	0.475219	-1.000000	-1.000000	-1.000000	-1.000000	-1.000000	-1.000000	-1.000000	77.241379	0.000000	-1.000000	-1.000000	1384731.000000	1773867012.888411
-4292.595000	-1947.465000	16743.015000	21138.030000	-22055.355000	-31831.965000	11219.940000	15303.150000	3.832928	1.444560	1.711939	2.140356	2.136318	2.463383	2.144084	-5.422612	-2.304260	5.569900	-0.808780	0.738829	0.419799	0.475219	-1.000000	-1.000000	-1.000000	-1.000000	-1.000000	-1.000000	-1.000000	77.241379	0.000000	-1.000000	-1.000000	1384732.000000	1773867012.888422
-4279.140000	-1942.470000	16737.615000	21142.440000	-22060.080000	-31850.640000	11200.860000	15316.515000	3.134758	0.028630	-0.670216	1.257259	2.381935	2.469457	-0.431493	-8.094721	-2.304260	5.569900	-0.808780	0.738829	0.419799	0.475219	-1.000000	-1.000000	-1.000000	-1.000000	-1.000000	-1.000000	-1.000000	77.241379	0.000000	-1.000000	-1.000000	1384733.000000	1773867012.888434
-4268.745000	-1935.000000	16738.470000	21143.970000	-22058.955000	-31837.995000	11198.700000	15315.615000	0.494778	-2.885796	-4.553000	-2.131673	-0.454609	-0.986155	-4.019103	-5.846536	-2.304260	5.569900	-0.808780	0.738829	0.419799	0.475219	-1.000000	-1.000000	-1.000000	-1.000000	-1.000000	-1.000000	-1.000000	77.241379	0.000000	-1.000000	-1.000000	1384734.000000	1773867012.888439
-4267.350000	-1926.405000	16749.585000	21152.745000	-22043.250000	-31808.565000	11197.665000	15306.435000	-1.082948	-3.396663	-5.777270	-4.566424	-3.477356	-4.257265	-6.717184	-1.477745	-2.304260	5.569900	-0.808780	0.738829	0.419799	0.475219	-1.000000	-1.000000	-1.000000	-1.000000	-1.000000	-1.000000	-1.000000	77.241379	0.000000	-1.000000	-1.000000	1384735.000000	1773867012.898030
-4260.240000	-1921.815000	16757.415000	21154.095000	-22040.370000	-31812.570000	11206.980000	15306.660000	-0.059268	0.274916	-2.137980	-3.029194	-3.092458	-3.092791	-7.018417	0.961564	-2.304260	5.569900	-0.808780	0.738829	0.419799	0.475219	-1.000000	-1.000000	-1.000000	-1.000000	-1.000000	-1.000000	-1.000000	77.241379	0.000000	-1.000000	-1.000000	1384736.000000	1773867012.898039
-4265.865000	-1938.555000	16747.200000	21131.055000	-22058.010000	-31827.780000	11221.335000	15308.865000	2.455712	5.884330	4.345705	1.991033	1.122642	2.237111	-4.517316	0.346551	-2.304260	5.569900	-0.808780	0.738829	0.419799	0.475219	-1.000000	-1.000000	-1.000000	-1.000000	-1.000000	-1.000000	-1.000000	77.241379	0.000000	-1.000000	-1.000000	1384737.000000	1773867012.898051
-4279.140000	-1950.255000	16739.415000	21117.060000	-22071.060000	-31841.505000	11225.070000	15322.680000	3.654594	8.671965	8.736553	6.502936	5.589628	7.142379	-0.054312	-0.798721	-2.304260	5.569900	-0.808780	0.738829	0.419799	0.475219	-1.000000	-1.000000	-1.000000	-1.000000	-1.000000	-1.000000	-1.000000	77.241379	0.000000	-1.000000	-1.000000	1384738.000000	1773867012.898056
-4279.005000	-1955.970000	16730.505000	21110.805000	-22081.995000	-31860.225000	11212.830000	15341.085000	1.988993	6.543138	8.317085	7.292068	6.775652	7.729210	4.391748	0.893254	-2.304260	5.569900	-0.808780	0.738829	0.419799	0.475219	-1.000000	-1.000000	-1.000000	-1.000000	-1.000000	-1.000000	-1.000000	77.241379	0.000000	-1.000000	-1.000000	1384739.000000	1773867012.912181
-4264.920000	-1944.900000	16735.455000	21119.805000	-22074.570000	-31845.825000	11215.755000	15336.630000	-1.098996	1.950190	4.519284	4.452161	4.110437	3.669775	6.747391	5.613336	-2.304260	5.569900	-0.808780	0.738829	0.419799	0.475219	-1.000000	-1.000000	-1.000000	-1.000000	-1.000000	-1.000000	-1.000000	77.241379	0.000000	-1.000000	-1.000000	1384740.000000	1773867012.912193
-4267.575000	-1927.980000	16753.365000	21151.170000	-22049.955000	-31824.090000	11208.780000	15316.830000	-3.382011	-1.906320	0.057413	0.085098	-0.505100	-2.115341	6.477798	9.258934	0.656180	4.913720	-2.533160	0.741636	0.423583	0.477172	-1.000000	-1.000000	-1.000000	-1.000000	-1.000000	-1.000000	-1.000000	77.241379	0.000000	-1.000000	-1.000000	1384741.000000	1773867012.912205
-4261.050000	-1913.670000	16767.405000	21171.960000	-22031.505000	-31812.750000	11212.470000	15318.855000	-4.435491	-3.779931	-2.971302	-3.172780	-4.021053	-5.710591	4.643547	7.379679	0.656180	4.913720	-2.533160	0.741636	0.423583	0.477172	-1.000000	-1.000000	-1.000000	-1.000000	-1.000000	-1.000000	-1.000000	77.241379	0.000000	-1.000000	-1.000000	1384742.000000	1773867012.912210
-4265.055000	-1918.305000	16763.130000	21168.495000	-22025.205000	-31810.185000	11213.145000	15320.295000	-4.759268	-3.890588	-3.615876	-3.632720	-4.248230	-5.468917	2.444855	0.118263	0.656180	4.913720	-2.533160	0.741636	0.423583	0.477172	-1.000000	-1.000000	-1.000000	-1.000000	-1.000000	-1.000000	-1.000000	77.241379	0.000000	-1.000000	-1.000000	1384743.000000	1773867012.912216
-4273.020000	-1927.035000	16753.005000	21151.575000	-22043.430000	-31820.490000	11203.470000	15311.970000	-4.322114	-3.342722	-2.964626	-2.281695	-2.098192	-3.295855	0.079647	-7.919288	0.656180	4.913720	-2.533160	0.741636	0.423583	0.477172	-1.000000	-1.000000	-1.000000	-1.000000	-1.000000	-1.000000	-1.000000	77.241379	0.000000	-1.000000	-1.000000	1384744.000000	1773867012.912222
-4281.165000	-1938.510000	16745.310000	21132.000000	-22057.200000	-31824.090000	11212.155000	15310.980000	-3.068842	-3.276621	-3.035194	-1.652728	-0.596504	-1.774624	-2.835029	-12.190807	0.656180	4.913720	-2.533160	0.741636	0.423583	0.477172	-1.000000	-1.000000	-1.000000	-1.000000	-1.000000	-1.000000	-1.000000	77.241379	0.000000	-1.000000	-1.000000	1384745.000000	1773867012.912228
-4286.565000	-1944.945000	16742.430000	21120.030000	-22063.140000	-31833.405000	11223.450000	15311.025000	-1.244616	-3.614413	-4.181116	-2.580901	-1.074263	-1.089197	-5.672887	-11.082869	0.656180	4.913720	-2.533160	0.741636	0.423583	0.477172	-1.000000	-1.000000	-1.000000	-1.000000	-1.000000	-1.000000	-1.000000	77.241379	0.000000	-1.000000	-1.000000	1384746.000000	1773867012.912233
-4278.600000	-1936.710000	16749.045000	21125.565000	-22061.160000	-31836.915000	11224.980000	15312.195000	1.238492	-2.905093	-4.495396	-3.287255	-1.849148	0.073926	-6.598021	-5.747271	0.656180	4.913720	-2.533160	0.741636	0.423583	0.477172	-1.000000	-1.000000	-1.000000	-1.000000	-1.000000	-1.000000	-1.000000	77.241379	0.000000	-1.000000	-1.000000	1384747.000000	1773867012.927443
-4267.935000	-1934.370000	16746.480000	21122.955000	-22070.025000	-31843.620000	11221.560000	15328.620000	4.457485	0.050464	-2.098175	-1.891370	-1.062998	2.054323	-4.483139	1.161717	0.656180	4.913720	-2.533160	0.741636	0.423583	0.477172	-1.000000	-1.000000	-1.000000	-1.000000	-1.000000	-1.000000	-1.000000	77.241379	0.000000	-1.000000	-1.000000	1384748.000000	1773867012.927454
-4258.890000	-1923.165000	16758.405000	21147.390000	-22047.345000	-31820.400000	11217.240000	15321.780000	7.301416	4.041012	2.174004	1.061107	0.813649	3.590889	-0.358986	7.177317	0.656180	4.913720	-2.533160	0.741636	0.423583	0.477172	-1.000000	-1.000000	-1.000000	-1.000000	-1.000000	-1.000000	-1.000000	77.241379	0.000000	-1.000000	-1.000000	1384749.000000	1773867012.927494
-4248.855000	-1901.115000	16784.640000	21186.045000	-22008.555000	-31783.590000	11218.905000	15308.145000	7.971179	6.288984	5.614328	3.645963	2.452248	3.778128	3.510669	10.403490	0.656180	4.913720	-2.533160	0.741636	0.423583	0.477172	-1.000000	-1.000000	-1.000000	-1.000000	-1.000000	-1.000000	-1.000000	77.241379	0.000000	-1.000000	-1.000000	1384750.000000	1773867012.927504
-4227.480000	-1865.970000	16813.440000	21210.840000	-21986.370000	-31765.410000	11232.720000	15317.820000	5.958326	5.920675	6.950318	5.172537	3.779690	3.471879	5.579555	9.492612	-4.822160	5.325740	0.625660	0.742491	0.427001	0.476683	-1.000000	-1.000000	-1.000000	-1.000000	-1.000000	-1.000000	-1.000000	77.241379	0.000000	-1.000000	-1.000000	1384751.000000	1773867012.927512
-4237.380000	-1884.825000	16794.585000	21191.040000	-22003.515000	-31780.755000	11218.905000	15322.005000	2.446326	4.244209	6.495363	5.712580	4.657917	3.103966	5.434277	5.154484	-4.822160	5.325740	0.625660	0.742491	0.427001	0.476683	-1.000000	-1.000000	-1.000000	-1.000000	-1.000000	-1.000000	-1.000000	77.241379	0.000000	-1.000000	-1.000000	1384752.000000	1773867012.927517
-4293.765000	-1937.025000	16750.170000	21144.240000	-22042.845000	-31813.830000	11211.345000	15296.310000	-1.979416	1.235460	3.500988	4.006801	3.373934	1.098586	2.981560	-0.234163	-4.822160	5.325740	0.625660	0.742491	0.427001	0.476683	-1.000000	-1.000000	-1.000000	-1.000000	-1.000000	-1.000000	-1.000000	77.241379	0.000000	-1.000000	-1.000000	1384753.000000	1773867012.929750
-4318.065000	-1953.180000	16741.035000	21121.695000	-22061.385000	-31834.440000	11221.020000	15284.520000	-7.941855	-4.345165	-2.957612	-1.185191	-1.289158	-3.651709	-1.263919	-5.087360	-4.822160	5.325740	0.625660	0.742491	0.427001	0.476683	-1.000000	-1.000000	-1.000000	-1.000000	-1.000000	-1.000000	-1.000000	77.241379	0.000000	-1.000000	-1.000000	1384754.000000	1773867012.929771
-4286.880000	-1920.600000	16775.280000	21152.115000	-22032.945000	-31805.280000	11235.465000	15263.100000	-13.412931	-10.248189	-9.879701	-7.394683	-6.915828	-8.643433	-5.211836	-8.714675	-4.822160	5.325740	0.625660	0.742491	0.427001	0.476683	-1.000000	-1.000000	-1.000000	-1.000000	-1.000000	-1.000000	-1.000000	77.241379	0.000000	-1.000000	-1.000000	1384755.000000	1773867012.931969
-4260.195000	-1893.465000	16798.815000	21171.870000	-22017.780000	-31784.085000	11248.605000	15277.905000	-13.071799	-10.822109	-11.213339	-9.231577	-8.452603	-8.794674	-6.015994	-10.078972	-4.822160	5.325740	0.625660	0.742491	0.427001	0.476683	-1.000000	-1.000000	-1.000000	-1.000000	-1.000000	-1.000000	-1.000000	77.241379	0.000000	-1.000000	-1.000000	1384756.000000	1773867012.931978
-4254.210000	-1900.710000	16786.710000	21170.610000	-22017.645000	-31796.145000	11235.735000	15358.860000	-4.793261	-4.000113	-4.893422	-4.587478	-3.851545	-2.537538	-2.834423	-6.870279	-4.822160	5.325740	0.625660	0.742491	0.427001	0.476683	-1.000000	-1.000000	-1.000000	-1.000000	-1.000000	-1.000000	-1.000000	77.241379	0.000000	-1.000000	-1.000000	1384757.000000	1773867012.936265
-4239.090000	-1904.805000	16776.180000	21174.885000	-22019.670000	-31802.940000	11214.180000	15371.280000	6.801763	5.028974	3.657945	2.119381	2.688935	4.689981	1.605775	2.929048	-4.822160	5.325740	0.625660	0.742491	0.427001	0.476683	-1.000000	-1.000000	-1.000000	-1.000000	-1.000000	-1.000000	-1.000000	77.241379	0.000000	-1.000000	-1.000000	1384758.000000	1773867012.936284
-4247.775000	-1917.900000	16758.405000	21157.515000	-22037.400000	-31808.340000	11211.930000	15343.110000	14.510530	8.789884	6.797685	4.343370	4.672523	5.991808	3.424861	15.294536	-4.822160	5.325740	0.625660	0.742491	0.427001	0.476683	-1.000000	-1.000000	-1.000000	-1.000000	-1.000000	-1.000000	-1.000000	77.241379	0.000000	-1.000000	-1.000000	1384759.000000	1773867012.940215
-4257.675000	-1938.375000	16732.980000	21131.055000	-22056.930000	-31830.930000	11205.135000	15360.525000	13.805133	4.341931	1.886496	-0.223032	-0.202250	0.249141	1.445007	20.759485	-4.822160	5.325740	0.625660	0.742491	0.427001	0.476683	-1.000000	-1.000000	-1.000000	-1.000000	-1.000000	-1.000000	-1.000000	77.241379	0.000000	-1.000000	-1.000000	1384760.000000	1773867012.940226
-4264.920000	-1939.995000	16737.390000	21130.785000	-22053.240000	-31825.170000	11218.725000	15361.785000	5.906841	-4.115410	-6.272920	-7.183742	-7.316653	-7.133782	-1.791329	14.622161	-3.769220	5.951400	-0.808780	0.741941	0.426207	0.477111	-1.000000	-1.000000	-1.000000	-1.000000	-1.000000	-1.000000	-1.000000	77.241379	0.000000	-1.000000	-1.000000	1384761.000000	1773867012.944032
-4277.520000	-1939.590000	16746.435000	21124.260000	-22056.480000	-31826.115000	11225.745000	15341.535000	-2.844422	-8.350017	-9.164194	-8.814229	-8.901055	-8.830237	-2.667816	1.133666	-3.769220	5.951400	-0.808780	0.741941	0.426207	0.477111	-1.000000	-1.000000	-1.000000	-1.000000	-1.000000	-1.000000	-1.000000	77.241379	0.000000	-1.000000	-1.000000	1384762.000000	1773867012.944041
-4287.735000	-1943.865000	16745.940000	21118.635000	-22060.260000	-31830.570000	11227.410000	15324.075000	-6.968156	-4.093011	-2.901754	-1.902357	-2.013468	-2.272295	-0.410998	-12.269491	-3.769220	5.951400	-0.808780	0.741941	0.426207	0.477111	-1.000000	-1.000000	-1.000000	-1.000000	-1.000000	-1.000000	-1.000000	77.241379	0.000000	-1.000000	-1.000000	1384763.000000	1773867012.958513
-4272.930000	-1935.270000	16753.995000	21129.075000	-22052.430000	-31826.835000	11229.930000	15321.105000	-6.491709	4.504879	7.481386	8.507892	8.227334	7.547923	2.432430	-20.016568	-3.769220	5.951400	-0.808780	0.741941	0.426207	0.477111	-1.000000	-1.000000	-1.000000	-1.000000	-1.000000	-1.000000	-1.000000	77.241379	0.000000	-1.000000	-1.000000	1384764.000000	1773867012.958525
-4247.820000	-1925.100000	16756.920000	21131.415000	-22059.045000	-31849.830000	11224.755000	15333.795000	-4.210098	10.193043	13.876008	14.693891	14.226848	12.982065	3.323925	-20.205981	-3.769220	5.951400	-0.808780	0.741941	0.426207	0.477111	-1.000000	-1.000000	-1.000000	-1.000000	-1.000000	-1.000000	-1.000000	77.241379	0.000000	-1.000000	-1.000000	1384765.000000	1773867012.958538
-4261.725000	-1943.055000	16729.335000	21118.230000	-22076.055000	-31851.450000	11199.510000	15340.545000	-1.856015	9.587040	12.449928	12.921936	12.200177	10.418180	1.891341	-14.828101	-3.769220	5.951400	-0.808780	0.741941	0.426207	0.477111	-1.000000	-1.000000	-1.000000	-1.000000	-1.000000	-1.000000	-1.000000	77.241379	0.000000	-1.000000	-1.000000	1384766.000000	1773867012.958543
-4271.220000	-1935.405000	16747.335000	21150.630000	-22039.380000	-31804.155000	11199.195000	15331.635000	-0.586960	3.987599	4.922514	4.970737	4.070653	2.920656	-0.578273	-6.975570	-3.769220	5.951400	-0.808780	0.741941	0.426207	0.477111	-1.000000	-1.000000	-1.000000	-1.000000	-1.000000	-1.000000	-1.000000	77.241379	0.000000	-1.000000	-1.000000	1384767.000000	1773867012.958549
-4263.030000	-1923.660000	16762.275000	21161.745000	-22026.915000	-31798.575000	11206.080000	15330.735000	-0.837000	-2.552695	-3.198370	-3.250966	-3.781479	-2.761923	-2.236149	1.602379	-3.769220	5.951400	-0.808780	0.741941	0.426207	0.477111	-1.000000	-1.000000	-1.000000	-1.000000	-1.000000	-1.000000	-1.000000	77.241379	0.000000	-1.000000	-1.000000	1384768.000000	1773867012.958554
-4255.020000	-1915.965000	16767.135000	21159.585000	-22027.095000	-31794.795000	11217.150000	15336.630000	-0.861048	-5.539529	-6.377546	-6.183394	-5.868729	-2.815270	-1.715167	9.320095	-3.769220	5.951400	-0.808780	0.741941	0.426207	0.477111	-1.000000	-1.000000	-1.000000	-1.000000	-1.000000	-1.000000	-1.000000	77.241379	0.000000	-1.000000	-1.000000	1384769.000000	1773867012.960129
-4259.970000	-1920.960000	16764.570000	21143.295000	-22041.630000	-31811.580000	11228.535000	15335.415000	1.450841	-3.354880	-3.713233	-3.529555	-2.605987	0.623742	0.816455	14.213151	-3.769220	5.951400	-0.808780	0.741941	0.426207	0.477111	-1.000000	-1.000000	-1.000000	-1.000000	-1.000000	-1.000000	-1.000000	77.241379	0.000000	-1.000000	-1.000000	1384770.000000	1773867012.960144
-4251.240000	-1913.040000	16777.755000	21150.405000	-22026.915000	-31801.140000	11234.340000	15331.545000	5.800333	1.545911	1.037086	0.723908	1.635412	3.001769	3.539604	15.420511	-3.143560	6.073480	-2.273740	0.744993	0.426696	0.475768	-1.000000	-1.000000	-1.000000	-1.000000	-1.000000	-1.000000	-1.000000	77.241379	0.000000	-1.000000	-1.000000	1384771.000000	1773867012.967760
-4230.495000	-1890.810000	16797.555000	21171.105000	-22004.505000	-31781.520000	11247.795000	15349.095000	9.635713	5.292903	3.812051	3.045548	3.679279	2.231926	4.503762	13.592503	-3.143560	6.073480	-2.273740	0.744993	0.426696	0.475768	-1.000000	-1.000000	-1.000000	-1.000000	-1.000000	-1.000000	-1.000000	77.241379	0.000000	-1.000000	-1.000000	1384772.000000	1773867012.967770
-4244.895000	-1891.530000	16800.435000	21176.730000	-22003.425000	-31777.920000	11245.095000	15346.215000	9.607314	5.385699	3.036362	2.378918	2.959144	-0.486829	3.150040	9.600934	-3.143560	6.073480	-2.273740	0.744993	0.426696	0.475768	-1.000000	-1.000000	-1.000000	-1.000000	-1.000000	-1.000000	-1.000000	77.241379	0.000000	-1.000000	-1.000000	1384773.000000	1773867012.968052
-4269.555000	-1914.300000	16768.755000	21153.420000	-22035.780000	-31811.535000	11211.030000	15323.670000	3.323522	1.204744	-0.892855	-0.942129	-0.273336	-3.497028	-0.021460	2.871263	-3.143560	6.073480	-2.273740	0.744993	0.426696	0.475768	-1.000000	-1.000000	-1.000000	-1.000000	-1.000000	-1.000000	-1.000000	77.241379	0.000000	-1.000000	-1.000000	1384774.000000	1773867012.968063
-4274.955000	-1913.265000	16754.985000	21142.305000	-22055.850000	-31824.675000	11206.080000	15321.285000	-7.483330	-5.604273	-6.476031	-6.098216	-5.797762	-6.865896	-3.941955	-6.790691	-3.143560	6.073480	-2.273740	0.744993	0.426696	0.475768	-1.000000	-1.000000	-1.000000	-1.000000	-1.000000	-1.000000	-1.000000	77.241379	0.000000	-1.000000	-1.000000	1384775.000000	1773867012.972124
-4271.040000	-1913.535000	16762.050000	21157.965000	-22030.515000	-31801.140000	11209.320000	15321.915000	-16.396884	-11.293135	-11.192968	-11.168820	-11.911568	-10.680233	-6.725470	-15.509992	-3.143560	6.073480	-2.273740	0.744993	0.426696	0.475768	-1.000000	-1.000000	-1.000000	-1.000000	-1.000000	-1.000000	-1.000000	77.241379	0.000000	-1.000000	-1.000000	1384776.000000	1773867012.972133
-4272.840000	-1939.320000	16742.385000	21143.925000	-22037.805000	-31809.870000	11207.565000	15319.440000	-17.513197	-12.863669	-12.449266	-12.955274	-14.584886	-12.385731	-6.802486	-17.885273	-3.143560	6.073480	-2.273740	0.744993	0.426696	0.475768	-1.000000	-1.000000	-1.000000	-1.000000	-1.000000	-1.000000	-1.000000	77.241379	0.000000	-1.000000	-1.000000	1384777.000000	1773867012.979913
-4271.265000	-1943.100000	16738.200000	21129.345000	-22048.155000	-31819.545000	11214.855000	15322.050000	-10.209953	-10.114034	-9.298358	-9.390825	-10.759485	-9.093629	-4.348284	-12.601860	-3.143560	6.073480	-2.273740	0.744993	0.426696	0.475768	-1.000000	-1.000000	-1.000000	-1.000000	-1.000000	-1.000000	-1.000000	77.241379	0.000000	-1.000000	-1.000000	1384778.000000	1773867012.979925
-4268.745000	-1945.980000	16740.675000	21117.510000	-22055.535000	-31825.080000	11231.955000	15344.460000	1.529065	-4.280714	-2.770385	-1.672571	-1.748618	-1.347628	-0.627112	-2.392176	-3.143560	6.073480	-2.273740	0.744993	0.426696	0.475768	-1.000000	-1.000000	-1.000000	-1.000000	-1.000000	-1.000000	-1.000000	77.241379	0.000000	-1.000000	-1.000000	1384779.000000	1773867012.980880
-4272.390000	-1942.425000	16745.580000	21116.385000	-22063.815000	-31838.670000	11239.785000	15339.780000	11.898690	2.839627	4.748321	6.493426	7.582504	6.972959	3.154030	8.582137	-3.143560	6.073480	-2.273740	0.744993	0.426696	0.475768	-1.000000	-1.000000	-1.000000	-1.000000	-1.000000	-1.000000	-1.000000	77.241379	0.000000	-1.000000	-1.000000	1384780.000000	1773867012.980891
-4284.045000	-1948.095000	16739.235000	21112.785000	-22066.515000	-31837.995000	11240.415000	15332.535000	15.669150	8.441021	10.058447	11.070043	12.164456	11.319522	5.721724	15.348945	-5.630940	6.760180	-0.503580	0.748716	0.424682	0.475402	-1.000000	-1.000000	-1.000000	-1.000000	-1.000000	-1.000000	-1.000000	77.241379	0.000000	-1.000000	-1.000000	1384781.000000	1773867012.985700
-4276.080000	-1933.380000	16751.520000	21136.095000	-22039.740000	-31810.320000	11223.360000	15323.445000	11.581138	10.515951	11.291434	10.759717	11.037878	10.715965	5.968444	14.243471	-5.630940	6.760180	-0.503580	0.748716	0.424682	0.475402	-1.000000	-1.000000	-1.000000	-1.000000	-1.000000	-1.000000	-1.000000	77.241379	0.000000	-1.000000	-1.000000	1384782.000000	1773867012.985713
-4259.205000	-1918.440000	16760.745000	21154.455000	-22029.390000	-31794.930000	11217.555000	15335.235000	4.041772	10.120288	10.037830	8.437232	8.314025	8.903348	4.202764	6.498477	-5.630940	6.760180	-0.503580	0.748716	0.424682	0.475402	-1.000000	-1.000000	-1.000000	-1.000000	-1.000000	-1.000000	-1.000000	77.241379	0.000000	-1.000000	-1.000000	1384783.000000	1773867012.988834
-4263.165000	-1926.090000	16759.800000	21158.595000	-22024.440000	-31794.660000	11211.570000	15335.325000	-1.194193	9.084388	8.709418	7.144350	7.388751	8.493498	1.780949	-2.379988	-5.630940	6.760180	-0.503580	0.748716	0.424682	0.475402	-1.000000	-1.000000	-1.000000	-1.000000	-1.000000	-1.000000	-1.000000	77.241379	0.000000	-1.000000	-1.000000	1384784.000000	1773867012.988856
-4255.380000	-1921.230000	16767.135000	21163.770000	-22021.335000	-31792.140000	11219.310000	15331.275000	-2.476001	7.068732	6.984247	6.129901	6.629013	7.220835	-0.464229	-7.580794	-5.630940	6.760180	-0.503580	0.748716	0.424682	0.475402	-1.000000	-1.000000	-1.000000	-1.000000	-1.000000	-1.000000	-1.000000	77.241379	0.000000	-1.000000	-1.000000	1384785.000000	1773867013.002577
-4247.415000	-1912.095000	16771.905000	21161.385000	-22022.190000	-31795.245000	11218.320000	15330.600000	-1.647603	3.615749	3.703743	3.419324	3.228301	2.579592	-2.211221	-8.115457	-5.630940	6.760180	-0.503580	0.748716	0.424682	0.475402	-1.000000	-1.000000	-1.000000	-1.000000	-1.000000	-1.000000	-1.000000	77.241379	0.000000	-1.000000	-1.000000	1384786.000000	1773867013.002589
-4253.265000	-1922.355000	16764.705000	21139.920000	-22036.185000	-31809.735000	11229.120000	15336.720000	-0.754406	-0.287758	-0.780070	-0.961529	-2.445662	-4.201409	-3.237739	-5.613817	-5.630940	6.760180	-0.503580	0.748716	0.424682	0.475402	-1.000000	-1.000000	-1.000000	-1.000000	-1.000000	-1.000000	-1.000000	77.241379	0.000000	-1.000000	-1.000000	1384787.000000	1773867013.002601
-4268.610000	-1936.620000	16755.570000	21129.120000	-22041.090000	-31807.305000	11242.215000	15340.410000	-1.234352	-4.195657	-5.755443	-5.894908	-7.998184	-9.943195	-3.450164	-2.179132	-5.630940	6.760180	-0.503580	0.748716	0.424682	0.475402	-1.000000	-1.000000	-1.000000	-1.000000	-1.000000	-1.000000	-1.000000	77.241379	0.000000	-1.000000	-1.000000	1384788.000000	1773867013.002606
-4272.615000	-1939.455000	16752.690000	21128.445000	-22043.205000	-31807.890000	11243.205000	15343.335000	-3.611000	-8.317178	-10.507775	-10.143997	-11.325787	-12.100737	-2.778522	0.724453	-5.630940	6.760180	-0.503580	0.748716	0.424682	0.475402	-1.000000	-1.000000	-1.000000	-1.000000	-1.000000	-1.000000	-1.000000	77.241379	0.000000	-1.000000	-1.000000	1384789.000000	1773867013.002612
-4263.840000	-1929.240000	16759.530000	21135.195000	-22040.055000	-31807.035000	11238.930000	15338.205000	-6.349687	-11.445484	-13.254958	-12.102211	-11.368854	-10.156067	-1.376765	2.526651	-5.630940	6.760180	-0.503580	0.748716	0.424682	0.475402	-1.000000	-1.000000	-1.000000	-1.000000	-1.000000	-1.000000	-1.000000	77.241379	0.000000	-1.000000	-1.000000	1384790.000000	1773867013.002617
-4261.095000	-1907.370000	16776.945000	21163.545000	-22017.330000	-31790.790000	11227.185000	15322.905000	-6.807021	-11.039751	-11.665504	-10.234124	-8.053420	-5.571337	0.453196	2.876990	-0.213640	7.019600	-2.029580	0.748411	0.423034	0.477172	-1.000000	-1.000000	-1.000000	-1.000000	-1.000000	-1.000000	-1.000000	77.241379	0.000000	-1.000000	-1.000000	1384791.000000	1773867013.005711
-4257.135000	-1893.555000	16788.780000	21182.445000	-22002.840000	-31774.230000	11229.030000	15320.385000	-4.051305	-5.829580	-5.068424	-4.223358	-2.000343	-0.117186	2.327463	1.404657	-0.213640	7.019600	-2.029580	0.748411	0.423034	0.477172	-1.000000	-1.000000	-1.000000	-1.000000	-1.000000	-1.000000	-1.000000	77.241379	0.000000	-1.000000	-1.000000	1384792.000000	1773867013.005722
-4254.030000	-1902.915000	16784.505000	21182.175000	-22000.005000	-31772.970000	11235.555000	15333.885000	0.491288	2.150204	3.848831	3.768843	4.829061	4.728462	3.583389	-0.988155	-0.213640	7.019600	-2.029580	0.748411	0.423034	0.477172	-1.000000	-1.000000	-1.000000	-1.000000	-1.000000	-1.000000	-1.000000	77.241379	0.000000	-1.000000	-1.000000	1384793.000000	1773867013.008525
-4249.980000	-1919.025000	16766.730000	21162.510000	-22015.440000	-31786.875000	11234.160000	15349.995000	4.556144	8.303118	10.076727	9.457931	9.057214	7.219939	3.538194	-1.839596	-0.213640	7.019600	-2.029580	0.748411	0.423034	0.477172	-1.000000	-1.000000	-1.000000	-1.000000	-1.000000	-1.000000	-1.000000	77.241379	0.000000	-1.000000	-1.000000	1384794.000000	1773867013.008532
-4253.760000	-1926.720000	16762.320000	21142.935000	-22029.120000	-31794.930000	11246.445000	15350.715000	6.333151	8.908549	10.063041	9.528142	8.300456	6.241614	2.016280	0.207036	-0.213640	7.019600	-2.029580	0.748411	0.423034	0.477172	-1.000000	-1.000000	-1.000000	-1.000000	-1.000000	-1.000000	-1.000000	77.241379	0.000000	-1.000000	-1.000000	1384795.000000	1773867013.012080
-4260.600000	-1934.280000	16756.470000	21123.540000	-22046.085000	-31806.135000	11249.055000	15339.330000	5.334849	4.361753	4.695240	4.470501	3.314758	2.658189	-0.446250	3.172000	-0.213640	7.019600	-2.029580	0.748411	0.423034	0.477172	-1.000000	-1.000000	-1.000000	-1.000000	-1.000000	-1.000000	-1.000000	77.241379	0.000000	-1.000000	-1.000000	1384796.000000	1773867013.012086
-4257.720000	-1926.360000	16767.855000	21140.505000	-22027.275000	-31802.085000	11242.980000	15330.780000	2.662717	-1.335269	-1.685138	-1.859506	-2.462822	-1.289163	-3.121806	3.639838	-0.213640	7.019600	-2.029580	0.748411	0.423034	0.477172	-1.000000	-1.000000	-1.000000	-1.000000	-1.000000	-1.000000	-1.000000	77.241379	0.000000	-1.000000	-1.000000	1384797.000000	1773867013.016226
-4252.500000	-1906.830000	16787.070000	21161.250000	-22011.480000	-31784.670000	11257.380000	15336.315000	0.123355	-4.022632	-4.701009	-5.005206	-5.053706	-3.345378	-5.032629	0.721471	-0.213640	7.019600	-2.029580	0.748411	0.423034	0.477172	-1.000000	-1.000000	-1.000000	-1.000000	-1.000000	-1.000000	-1.000000	77.241379	0.000000	-1.000000	-1.000000	1384798.000000	1773867013.016237
-4240.350000	-1897.560000	16787.385000	21168.855000	-22011.525000	-31780.125000	11246.760000	15362.415000	-1.121031	-2.451290	-3.043050	-3.308753	-3.121023	-2.450509	-4.658030	-2.600852	-0.213640	7.019600	-2.029580	0.748411	0.423034	0.477172	-1.000000	-1.000000	-1.000000	-1.000000	-1.000000	-1.000000	-1.000000	77.241379	0.000000	-1.000000	-1.000000	1384799.000000	1773867013.021520
-4241.790000	-1893.465000	16789.995000	21187.125000	-21992.580000	-31763.835000	11233.305000	15351.930000	-1.149728	1.013260	0.691077	0.733132	0.801208	0.240181	-1.711845	-2.744147	-0.213640	7.019600	-2.029580	0.748411	0.423034	0.477172	-1.000000	-1.000000	-1.000000	-1.000000	-1.000000	-1.000000	-1.000000	77.241379	0.000000	-1.000000	-1.000000	1384800.000000	1773867013.021530
-4244.985000	-1891.620000	16799.130000	21197.070000	-21980.430000	-31746.555000	11250.315000	15320.655000	-0.939124	2.979752	2.937781	3.454902	3.457393	2.555782	1.952836	-0.353755	-0.412020	7.691040	0.747740	0.745543	0.421874	0.479125	-1.000000	-1.000000	-1.000000	-1.000000	-1.000000	-1.000000	-1.000000	77.241379	0.000000	-1.000000	-1.000000	1384801.000000	1773867013.025004
-4227.525000	-1861.650000	16827.705000	21218.175000	-21965.220000	-31747.950000	11267.685000	15340.545000	-1.165502	2.809723	3.048818	3.781079	3.942473	3.413236	4.622970	0.700931	-0.412020	7.691040	0.747740	0.745543	0.421874	0.479125	-1.000000	-1.000000	-1.000000	-1.000000	-1.000000	-1.000000	-1.000000	77.241379	0.000000	-1.000000	-1.000000	1384802.000000	1773867013.025014
-4254.390000	-1901.835000	16776.630000	21154.320000	-22028.265000	-31808.700000	11247.885000	15348.645000	-1.739409	2.052155	2.294810	2.458442	2.513031	2.153738	5.501404	-0.772419	-0.412020	7.691040	0.747740	0.745543	0.421874	0.479125	-1.000000	-1.000000	-1.000000	-1.000000	-1.000000	-1.000000	-1.000000	77.241379	0.000000	-1.000000	-1.000000	1384803.000000	1773867013.028022
-4293.360000	-1976.490000	16712.055000	21087.135000	-22081.455000	-31841.145000	11223.945000	15331.950000	-3.093040	-0.171511	-0.485664	-1.284089	-1.733728	-2.296086	3.237795	-2.613206	-0.412020	7.691040	0.747740	0.745543	0.421874	0.479125	-1.000000	-1.000000	-1.000000	-1.000000	-1.000000	-1.000000	-1.000000	77.241379	0.000000	-1.000000	-1.000000	1384804.000000	1773867013.028028
-4276.395000	-1959.030000	16736.265000	21108.870000	-22060.620000	-31823.820000	11236.500000	15345.945000	-5.252479	-5.719904	-6.621447	-7.624977	-8.264718	-8.403207	-2.323814	-2.887276	-0.412020	7.691040	0.747740	0.745543	0.421874	0.479125	-1.000000	-1.000000	-1.000000	-1.000000	-1.000000	-1.000000	-1.000000	77.241379	0.000000	-1.000000	-1.000000	1384805.000000	1773867013.032645
-4249.935000	-1938.285000	16756.650000	21132.360000	-22037.760000	-31803.030000	11251.935000	15372.855000	-5.533156	-11.273260	-11.960493	-12.107814	-12.194029	-10.941590	-7.478401	-0.596202	-0.412020	7.691040	0.747740	0.745543	0.421874	0.479125	-1.000000	-1.000000	-1.000000	-1.000000	-1.000000	-1.000000	-1.000000	77.241379	0.000000	-1.000000	-1.000000	1384806.000000	1773867013.032652
-4255.470000	-1927.125000	16765.470000	21146.310000	-22025.070000	-31790.115000	11241.135000	15342.795000	-1.510920	-10.954243	-10.651704	-9.733077	-8.880500	-6.377653	-7.910387	3.404209	-0.412020	7.691040	0.747740	0.745543	0.421874	0.479125	-1.000000	-1.000000	-1.000000	-1.000000	-1.000000	-1.000000	-1.000000	77.241379	0.000000	-1.000000	-1.000000	1384807.000000	1773867013.037008
-4250.565000	-1908.405000	16780.770000	21173.760000	-22003.695000	-31777.155000	11230.830000	15341.580000	4.744541	-3.628929	-2.244573	-0.892713	0.714574	3.022892	-3.387641	5.409397	-0.412020	7.691040	0.747740	0.745543	0.421874	0.479125	-1.000000	-1.000000	-1.000000	-1.000000	-1.000000	-1.000000	-1.000000	77.241379	0.000000	-1.000000	-1.000000	1384808.000000	1773867013.037019
-4247.190000	-1906.380000	16781.985000	21177.495000	-22001.715000	-31772.565000	11229.255000	15355.935000	8.997983	6.575412	8.437826	9.311272	10.941920	11.343762	2.826536	3.511205	-0.412020	7.691040	0.747740	0.745543	0.421874	0.479125	-1.000000	-1.000000	-1.000000	-1.000000	-1.000000	-1.000000	-1.000000	77.241379	0.000000	-1.000000	-1.000000	1384809.000000	1773867013.040181
-4231.800000	-1901.205000	16783.245000	21173.580000	-22004.055000	-31774.140000	11233.080000	15366.105000	9.243687	13.987180	15.176599	14.881804	15.588473	13.580991	6.912002	0.611627	-0.412020	7.691040	0.747740	0.745543	0.421874	0.479125	-1.000000	-1.000000	-1.000000	-1.000000	-1.000000	-1.000000	-1.000000	77.241379	0.000000	-1.000000	-1.000000	1384810.000000	1773867013.040198
-4223.880000	-1890.945000	16794.495000	21176.955000	-21998.250000	-31772.880000	11238.930000	15358.725000	6.265721	15.029433	14.578087	13.088442	12.500397	9.362076	6.913262	-0.684192	-0.473060	6.592320	0.732480	0.746275	0.422606	0.482360	-1.000000	-1.000000	-1.000000	-1.000000	-1.000000	-1.000000	-1.000000	77.241379	0.000000	-1.000000	-1.000000	1384811.000000	1773867013.044134
-4234.905000	-1896.570000	16794.495000	21164.490000	-22007.115000	-31782.060000	11260.305000	15343.695000	2.290336	10.891979	9.080742	7.123040	5.686189	3.168130	4.393983	-1.431565	-0.473060	6.592320	0.732480	0.746275	0.422606	0.482360	-1.000000	-1.000000	-1.000000	-1.000000	-1.000000	-1.000000	-1.000000	77.241379	0.000000	-1.000000	-1.000000	1384812.000000	1773867013.044143
-4242.690000	-1902.465000	16795.080000	21162.555000	-22003.830000	-31772.250000	11276.415000	15308.505000	-0.734430	5.762985	3.938693	2.498135	0.862399	-0.405397	2.791954	-3.404600	-0.473060	6.592320	0.732480	0.746275	0.422606	0.482360	-1.000000	-1.000000	-1.000000	-1.000000	-1.000000	-1.000000	-1.000000	77.241379	0.000000	-1.000000	-1.000000	1384813.000000	1773867013.049612
-4252.995000	-1909.125000	16788.780000	21158.235000	-22012.650000	-31778.730000	11268.495000	15283.530000	-3.029947	1.294873	0.544641	0.257500	-1.134921	-1.305170	2.943855	-6.978537	-0.473060	6.592320	0.732480	0.746275	0.422606	0.482360	-1.000000	-1.000000	-1.000000	-1.000000	-1.000000	-1.000000	-1.000000	77.241379	0.000000	-1.000000	-1.000000	1384814.000000	1773867013.049624
-4255.380000	-1919.430000	16770.825000	21144.555000	-22026.150000	-31789.980000	11245.725000	15321.825000	-6.111937	-4.418489	-4.066459	-3.140940	-3.996626	-2.979312	1.895625	-10.159029	-0.473060	6.592320	0.732480	0.746275	0.422606	0.482360	-1.000000	-1.000000	-1.000000	-1.000000	-1.000000	-1.000000	-1.000000	77.241379	0.000000	-1.000000	-1.000000	1384815.000000	1773867013.052070
-4249.485000	-1931.670000	16749.900000	21135.735000	-22035.330000	-31805.370000	11227.545000	15409.935000	-9.420583	-12.097198	-11.465088	-9.740920	-9.792820	-7.586254	-2.621714	-7.309802	-0.473060	6.592320	0.732480	0.746275	0.422606	0.482360	-1.000000	-1.000000	-1.000000	-1.000000	-1.000000	-1.000000	-1.000000	77.241379	0.000000	-1.000000	-1.000000	1384816.000000	1773867013.052080
-4241.385000	-1912.500000	16771.095000	21164.715000	-22010.940000	-31779.540000	11230.650000	15384.960000	-10.048736	-18.488809	-18.413523	-16.547005	-15.624709	-12.942487	-8.440544	4.802064	-0.473060	6.592320	0.732480	0.746275	0.422606	0.482360	-1.000000	-1.000000	-1.000000	-1.000000	-1.000000	-1.000000	-1.000000	77.241379	0.000000	-1.000000	-1.000000	1384817.000000	1773867013.056158
-4255.875000	-1916.820000	16772.850000	21169.710000	-21999.420000	-31763.565000	11239.425000	15370.920000	-6.534279	-18.751632	-19.235072	-17.809247	-16.115423	-14.000468	-11.098824	18.741641	-0.473060	6.592320	0.732480	0.746275	0.422606	0.482360	-1.000000	-1.000000	-1.000000	-1.000000	-1.000000	-1.000000	-1.000000	77.241379	0.000000	-1.000000	-1.000000	1384818.000000	1773867013.056169
-4262.445000	-1912.725000	16776.360000	21165.795000	-22005.945000	-31770.855000	11252.160000	15362.820000	-1.106155	-11.320839	-11.531482	-10.775806	-8.908110	-7.953354	-8.307231	22.509620	-0.473060	6.592320	0.732480	0.746275	0.422606	0.482360	-1.000000	-1.000000	-1.000000	-1.000000	-1.000000	-1.000000	-1.000000	77.241379	0.000000	-1.000000	-1.000000	1384819.000000	1773867013.060077
-4254.660000	-1907.280000	16785.225000	21157.920000	-22016.970000	-31788.180000	11258.280000	15354.855000	3.220400	0.619641	1.459374	1.506451	2.700977	2.494838	-1.509596	12.534785	-0.473060	6.592320	0.732480	0.746275	0.422606	0.482360	-1.000000	-1.000000	-1.000000	-1.000000	-1.000000	-1.000000	-1.000000	77.241379	0.000000	-1.000000	-1.000000	1384820.000000	1773867013.060084
-4236.660000	-1914.570000	16775.505000	21136.320000	-22034.115000	-31800.420000	11251.710000	15360.795000	6.383012	12.283404	13.979035	13.113956	12.781729	11.505376	5.325417	-3.855046	-3.326680	5.127360	-0.900340	0.746214	0.422789	0.482482	-1.000000	-1.000000	-1.000000	-1.000000	-1.000000	-1.000000	-1.000000	77.241379	0.000000	-1.000000	-1.000000	1384821.000000	1773867013.063981
-4238.730000	-1932.165000	16759.170000	21130.020000	-22032.450000	-31795.110000	11239.110000	15371.460000	9.542253	19.180455	20.500416	18.671771	16.750382	14.556063	8.086658	-15.523834	-3.326680	5.127360	-0.900340	0.746214	0.422789	0.482482	-1.000000	-1.000000	-1.000000	-1.000000	-1.000000	-1.000000	-1.000000	77.241379	0.000000	-1.000000	-1.000000	1384822.000000	1773867013.063987
-4255.965000	-1932.975000	16763.265000	21140.415000	-22020.390000	-31779.990000	11258.955000	15369.975000	11.196011	18.092184	17.962641	15.938951	13.697446	11.276870	5.936855	-16.429345	-3.326680	5.127360	-0.900340	0.746214	0.422789	0.482482	-1.000000	-1.000000	-1.000000	-1.000000	-1.000000	-1.000000	-1.000000	77.241379	0.000000	-1.000000	-1.000000	1384823.000000	1773867013.068032
-4230.540000	-1900.440000	16793.820000	21176.640000	-21993.570000	-31764.105000	11268.585000	15386.535000	8.829810	10.256702	9.030230	8.017662	7.021976	5.299196	2.567131	-9.702116	-3.326680	5.127360	-0.900340	0.746214	0.422789	0.482482	-1.000000	-1.000000	-1.000000	-1.000000	-1.000000	-1.000000	-1.000000	77.241379	0.000000	-1.000000	-1.000000	1384824.000000	1773867013.068043
-4241.520000	-1902.015000	16786.350000	21180.420000	-21993.480000	-31760.460000	11250.630000	15374.475000	2.858557	1.091772	0.100783	0.563635	1.142688	0.549009	1.701709	-3.130050	-3.326680	5.127360	-0.900340	0.746214	0.422789	0.482482	-1.000000	-1.000000	-1.000000	-1.000000	-1.000000	-1.000000	-1.000000	77.241379	0.000000	-1.000000	-1.000000	1384825.000000	1773867013.072089
-4262.670000	-1927.665000	16758.810000	21153.060000	-22021.290000	-31782.645000	11232.900000	15349.185000	-4.326780	-5.686205	-5.750366	-4.427686	-3.187577	-2.650827	2.261043	-1.205224	-3.326680	5.127360	-0.900340	0.746214	0.422789	0.482482	-1.000000	-1.000000	-1.000000	-1.000000	-1.000000	-1.000000	-1.000000	77.241379	0.000000	-1.000000	-1.000000	1384826.000000	1773867013.072098
-4257.315000	-1919.520000	16771.320000	21163.455000	-22005.990000	-31771.170000	11245.905000	15351.795000	-10.289272	-9.968631	-9.608458	-8.440252	-7.563571	-6.117149	0.836264	-2.330520	-3.326680	5.127360	-0.900340	0.746214	0.422789	0.482482	-1.000000	-1.000000	-1.000000	-1.000000	-1.000000	-1.000000	-1.000000	77.241379	0.000000	-1.000000	-1.000000	1384827.000000	1773867013.076108
-4248.045000	-1911.420000	16779.510000	21162.645000	-22002.615000	-31770.630000	11256.705000	15349.860000	-12.295814	-11.499310	-11.441537	-11.001852	-10.742647	-8.957365	-2.837534	-2.387928	-3.326680	5.127360	-0.900340	0.746214	0.422789	0.482482	-1.000000	-1.000000	-1.000000	-1.000000	-1.000000	-1.000000	-1.000000	77.241379	0.000000	-1.000000	-1.000000	1384828.000000	1773867013.076117
-4257.900000	-1925.100000	16763.940000	21129.570000	-22034.835000	-31799.430000	11247.030000	15340.320000	-9.081952	-9.285799	-9.752859	-9.912727	-9.788975	-8.355136	-6.043000	0.701366	-3.326680	5.127360	-0.900340	0.746214	0.422789	0.482482	-1.000000	-1.000000	-1.000000	-1.000000	-1.000000	-1.000000	-1.000000	77.241379	0.000000	-1.000000	-1.000000	1384829.000000	1773867013.080047
-4254.480000	-1903.590000	16784.865000	21146.445000	-22017.330000	-31784.310000	11254.500000	15327.090000	-2.775116	-3.651573	-4.542520	-5.031884	-4.721456	-4.128468	-6.605192	5.384783	-3.326680	5.127360	-0.900340	0.746214	0.422789	0.482482	-1.000000	-1.000000	-1.000000	-1.000000	-1.000000	-1.000000	-1.000000	77.241379	0.000000	-1.000000	-1.000000	1384830.000000	1773867013.080055
-4251.015000	-1909.215000	16782.345000	21153.870000	-22010.445000	-31778.730000	11262.105000	15336.225000	3.301610	3.593486	2.542951	1.735442	1.861542	1.316950	-4.019401	8.583994	-3.845520	5.600420	-0.747740	0.744566	0.423949	0.481017	-1.000000	-1.000000	-1.000000	-1.000000	-1.000000	-1.000000	-1.000000	77.241379	0.000000	-1.000000	-1.000000	1384831.000000	1773867013.084141
-4256.505000	-1925.235000	16766.685000	21149.865000	-22018.815000	-31785.930000	11253.825000	15350.670000	7.143169	8.952435	8.226093	7.330755	6.746752	5.180369	0.378445	8.757244	-3.845520	5.600420	-0.747740	0.744566	0.423949	0.481017	-1.000000	-1.000000	-1.000000	-1.000000	-1.000000	-1.000000	-1.000000	77.241379	0.000000	-1.000000	-1.000000	1384832.000000	1773867013.084154
-4271.490000	-1911.330000	16779.960000	21175.290000	-21999.240000	-31766.805000	11240.010000	15341.535000	7.446289	8.722839	8.907581	8.651221	7.393844	5.699950	3.793602	5.971129	-3.845520	5.600420	-0.747740	0.744566	0.423949	0.481017	-1.000000	-1.000000	-1.000000	-1.000000	-1.000000	-1.000000	-1.000000	77.241379	0.000000	-1.000000	-1.000000	1384833.000000	1773867013.091908
-4268.205000	-1894.455000	16798.545000	21194.865000	-21980.565000	-31746.420000	11245.095000	15325.110000	4.103389	3.520738	4.975846	5.835070	4.541500	3.891583	4.647164	1.107528	-3.845520	5.600420	-0.747740	0.744566	0.423949	0.481017	-1.000000	-1.000000	-1.000000	-1.000000	-1.000000	-1.000000	-1.000000	77.241379	0.000000	-1.000000	-1.000000	1384834.000000	1773867013.091919
-4260.735000	-1911.510000	16779.915000	21171.420000	-22002.525000	-31762.125000	11248.515000	15345.720000	-0.081229	-1.901462	0.508292	1.983961	1.352270	2.190557	3.845136	-3.208837	-3.845520	5.600420	-0.747740	0.744566	0.423949	0.481017	-1.000000	-1.000000	-1.000000	-1.000000	-1.000000	-1.000000	-1.000000	77.241379	0.000000	-1.000000	-1.000000	1384835.000000	1773867013.092388
-4250.700000	-1919.385000	16772.805000	21161.205000	-22008.015000	-31783.950000	11254.725000	15364.980000	-1.754260	-4.610505	-2.355263	-1.310390	-0.993444	0.749842	2.522411	-3.758893	-3.845520	5.600420	-0.747740	0.744566	0.423949	0.481017	-1.000000	-1.000000	-1.000000	-1.000000	-1.000000	-1.000000	-1.000000	77.241379	0.000000	-1.000000	-1.000000	1384836.000000	1773867013.092398
-4247.820000	-1917.765000	16779.060000	21154.545000	-22009.815000	-31778.280000	11267.595000	15363.585000	-0.495475	-5.122783	-4.186168	-4.105674	-2.946610	-1.473026	0.931425	-0.196338	-3.845520	5.600420	-0.747740	0.744566	0.423949	0.481017	-1.000000	-1.000000	-1.000000	-1.000000	-1.000000	-1.000000	-1.000000	77.241379	0.000000	-1.000000	-1.000000	1384837.000000	1773867013.098966
-4229.865000	-1914.120000	16781.940000	21151.935000	-22008.600000	-31770.630000	11261.160000	15374.475000	1.918296	-4.049792	-4.722227	-5.241761	-3.536622	-3.117868	-0.484489	4.469095	-3.845520	5.600420	-0.747740	0.744566	0.423949	0.481017	-1.000000	-1.000000	-1.000000	-1.000000	-1.000000	-1.000000	-1.000000	77.241379	0.000000	-1.000000	-1.000000	1384838.000000	1773867013.098977
-4238.190000	-1937.115000	16748.775000	21120.660000	-22040.820000	-31801.905000	11255.850000	15378.615000	3.568185	-1.863808	-3.713225	-4.215223	-2.458557	-2.820277	-1.483538	6.811854	-3.845520	5.600420	-0.747740	0.744566	0.423949	0.481017	-1.000000	-1.000000	-1.000000	-1.000000	-1.000000	-1.000000	-1.000000	77.241379	0.000000	-1.000000	-1.000000	1384839.000000	1773867013.103574
-4249.620000	-1928.115000	16763.445000	21139.470000	-22025.070000	-31786.290000	11263.140000	15340.095000	2.847283	0.147146	-2.400314	-2.808293	-1.685208	-2.069948	-2.392962	4.452304	-3.845520	5.600420	-0.747740	0.744566	0.423949	0.481017	-1.000000	-1.000000	-1.000000	-1.000000	-1.000000	-1.000000	-1.000000	77.241379	0.000000	-1.000000	-1.000000	1384840.000000	1773867013.103584
-4230.990000	-1894.320000	16797.555000	21185.280000	-21986.010000	-31748.400000	11259.540000	15321.285000	-0.355090	1.902268	-0.656961	-1.376892	-1.425674	-1.450723	-2.846078	-3.607075	-4.913720	5.508860	-1.052940	0.741758	0.426574	0.480651	-1.000000	-1.000000	-1.000000	-1.000000	-1.000000	-1.000000	-1.000000	77.241379	0.000000	-1.000000	-1.000000	1384841.000000	1773867013.106114
-4215.330000	-1874.250000	16816.455000	21215.790000	-21952.530000	-31724.820000	11251.980000	15293.610000	-3.461202	4.424348	2.921986	1.804786	0.658024	0.712461	-2.032282	-14.418664	-4.913720	5.508860	-1.052940	0.741758	0.426574	0.480651	-1.000000	-1.000000	-1.000000	-1.000000	-1.000000	-1.000000	-1.000000	77.241379	0.000000	-1.000000	-1.000000	1384842.000000	1773867013.106123
-4228.560000	-1889.640000	16795.755000	21190.455000	-21976.515000	-31741.920000	11249.685000	15319.035000	-3.929069	6.884595	7.082928	6.169328	4.675277	4.084635	-0.295928	-20.714565	-4.913720	5.508860	-1.052940	0.741758	0.426574	0.480651	-1.000000	-1.000000	-1.000000	-1.000000	-1.000000	-1.000000	-1.000000	77.241379	0.000000	-1.000000	-1.000000	1384843.000000	1773867013.108185
-4256.055000	-1930.995000	16748.640000	21138.300000	-22026.780000	-31788.045000	11239.380000	15391.845000	-2.941968	6.345915	7.752746	7.694767	6.673267	5.240740	0.831515	-15.842759	-4.913720	5.508860	-1.052940	0.741758	0.426574	0.480651	-1.000000	-1.000000	-1.000000	-1.000000	-1.000000	-1.000000	-1.000000	77.241379	0.000000	-1.000000	-1.000000	1384844.000000	1773867013.108195
-4255.425000	-1939.815000	16744.905000	21121.065000	-22039.470000	-31803.930000	11243.880000	15404.895000	-3.495956	0.961346	2.412591	3.198741	2.904888	1.635250	0.183274	0.245008	-4.913720	5.508860	-1.052940	0.741758	0.426574	0.480651	-1.000000	-1.000000	-1.000000	-1.000000	-1.000000	-1.000000	-1.000000	77.241379	0.000000	-1.000000	-1.000000	1384845.000000	1773867013.113548
-4254.345000	-1932.390000	16755.570000	21122.910000	-22032.090000	-31796.010000	11252.205000	15352.155000	-5.630636	-6.806008	-6.016883	-4.941350	-4.747553	-4.769864	-1.496792	18.313344	-4.913720	5.508860	-1.052940	0.741758	0.426574	0.480651	-1.000000	-1.000000	-1.000000	-1.000000	-1.000000	-1.000000	-1.000000	77.241379	0.000000	-1.000000	-1.000000	1384846.000000	1773867013.113558
-4258.980000	-1931.355000	16760.160000	21129.660000	-22027.275000	-31792.095000	11255.760000	15338.250000	-6.626332	-11.445378	-11.003031	-10.131760	-9.812393	-8.793083	-1.978004	25.458165	-4.913720	5.508860	-1.052940	0.741758	0.426574	0.480651	-1.000000	-1.000000	-1.000000	-1.000000	-1.000000	-1.000000	-1.000000	77.241379	0.000000	-1.000000	-1.000000	1384847.000000	1773867013.116348
-4250.745000	-1924.515000	16771.095000	21140.685000	-22023.405000	-31790.160000	11250.360000	15363.225000	-4.344609	-9.326420	-8.340938	-7.890398	-7.846586	-6.902537	-0.197205	17.332810	-4.913720	5.508860	-1.052940	0.741758	0.426574	0.480651	-1.000000	-1.000000	-1.000000	-1.000000	-1.000000	-1.000000	-1.000000	77.241379	0.000000	-1.000000	-1.000000	1384848.000000	1773867013.116358
-4245.840000	-1916.775000	16775.010000	21155.625000	-22005.990000	-31773.600000	11248.380000	15396.930000	1.277346	-1.731738	0.169898	0.101539	-0.368982	-0.324788	2.404440	2.566866	-4.913720	5.508860	-1.052940	0.741758	0.426574	0.480651	-1.000000	-1.000000	-1.000000	-1.000000	-1.000000	-1.000000	-1.000000	77.241379	0.000000	-1.000000	-1.000000	1384849.000000	1773867013.120155
-4241.205000	-1898.595000	16792.830000	21183.750000	-21981.195000	-31756.815000	11248.155000	15388.650000	7.722129	6.183585	8.195133	7.658311	7.017596	6.181943	3.915671	-7.126406	-4.913720	5.508860	-1.052940	0.741758	0.426574	0.480651	-1.000000	-1.000000	-1.000000	-1.000000	-1.000000	-1.000000	-1.000000	77.241379	0.000000	-1.000000	-1.000000	1384850.000000	1773867013.120164
-4217.130000	-1873.170000	16819.470000	21210.840000	-21958.830000	-31729.095000	11272.320000	15396.930000	11.562520	9.995818	10.865805	10.135491	9.885917	8.836612	4.202035	-7.786662	-2.411080	4.425400	-1.602300	0.737669	0.426574	0.480101	-1.000000	-1.000000	-1.000000	-1.000000	-1.000000	-1.000000	-1.000000	77.241379	0.000000	-1.000000	-1.000000	1384851.000000	1773867013.124285
-4210.920000	-1856.655000	16831.980000	21221.730000	-21939.120000	-31698.045000	11280.555000	15376.185000	11.774516	9.940345	9.152697	8.650941	8.894726	8.541215	4.337230	-4.315727	-2.411080	4.425400	-1.602300	0.737669	0.426574	0.480101	-1.000000	-1.000000	-1.000000	-1.000000	-1.000000	-1.000000	-1.000000	77.241379	0.000000	-1.000000	-1.000000	1384852.000000	1773867013.124292
-4236.255000	-1880.955000	16801.515000	21179.520000	-21974.760000	-31734.045000	11263.995000	15350.355000	9.071251	8.526922	6.422560	6.517372	7.157715	8.248692	4.168522	-4.736949	-2.411080	4.425400	-1.602300	0.737669	0.426574	0.480101	-1.000000	-1.000000	-1.000000	-1.000000	-1.000000	-1.000000	-1.000000	77.241379	0.000000	-1.000000	-1.000000	1384853.000000	1773867013.128277
-4278.015000	-1945.305000	16751.520000	21123.720000	-22030.830000	-31795.155000	11246.445000	15340.770000	2.958195	4.992519	2.306328	3.080675	4.059111	6.518213	1.677054	-11.353105	-2.411080	4.425400	-1.602300	0.737669	0.426574	0.480101	-1.000000	-1.000000	-1.000000	-1.000000	-1.000000	-1.000000	-1.000000	77.241379	0.000000	-1.000000	-1.000000	1384854.000000	1773867013.128288
-4282.515000	-1964.025000	16731.405000	21099.780000	-22055.670000	-31819.230000	11241.585000	15358.050000	-6.643001	-3.560938	-5.813908	-4.571202	-3.673928	-1.116348	-4.028435	-16.825702	-2.411080	4.425400	-1.602300	0.737669	0.426574	0.480101	-1.000000	-1.000000	-1.000000	-1.000000	-1.000000	-1.000000	-1.000000	77.241379	0.000000	-1.000000	-1.000000	1384855.000000	1773867013.132294
-4257.315000	-1943.595000	16749.945000	21119.670000	-22036.950000	-31800.195000	11262.150000	15380.865000	-15.427002	-14.722880	-15.688318	-14.479282	-14.279158	-13.198716	-9.913510	-12.474669	-2.411080	4.425400	-1.602300	0.737669	0.426574	0.480101	-1.000000	-1.000000	-1.000000	-1.000000	-1.000000	-1.000000	-1.000000	77.241379	0.000000	-1.000000	-1.000000	1384856.000000	1773867013.132304
-4242.870000	-1920.015000	16769.610000	21146.580000	-22012.830000	-31777.425000	11264.130000	15380.955000	-16.818320	-20.161951	-19.892287	-19.373729	-19.984639	-20.984732	-11.151091	1.231157	-2.411080	4.425400	-1.602300	0.737669	0.426574	0.480101	-1.000000	-1.000000	-1.000000	-1.000000	-1.000000	-1.000000	-1.000000	77.241379	0.000000	-1.000000	-1.000000	1384857.000000	1773867013.140007
-4244.760000	-1908.405000	16775.460000	21167.370000	-21995.145000	-31764.915000	11248.200000	15358.635000	-9.088694	-14.625521	-13.962811	-14.444605	-15.420649	-17.892240	-6.364236	14.982314	-2.411080	4.425400	-1.602300	0.737669	0.426574	0.480101	-1.000000	-1.000000	-1.000000	-1.000000	-1.000000	-1.000000	-1.000000	77.241379	0.000000	-1.000000	-1.000000	1384858.000000	1773867013.140017
-4234.095000	-1902.465000	16781.760000	21176.325000	-21984.615000	-31752.405000	11246.850000	15355.485000	2.536345	-1.677244	-1.417789	-2.617982	-3.385912	-6.053587	0.844889	19.933797	-2.411080	4.425400	-1.602300	0.737669	0.426574	0.480101	-1.000000	-1.000000	-1.000000	-1.000000	-1.000000	-1.000000	-1.000000	77.241379	0.000000	-1.000000	-1.000000	1384859.000000	1773867013.140167
-4230.810000	-1906.605000	16781.085000	21172.995000	-21985.740000	-31750.605000	11251.485000	15359.085000	11.017599	10.253567	10.065547	8.721951	8.605190	6.896208	5.747166	14.820260	-2.411080	4.425400	-1.602300	0.737669	0.426574	0.480101	-1.000000	-1.000000	-1.000000	-1.000000	-1.000000	-1.000000	-1.000000	77.241379	0.000000	-1.000000	-1.000000	1384860.000000	1773867013.140177
-4235.985000	-1906.155000	16786.440000	21174.345000	-21984.480000	-31757.940000	11263.725000	15369.975000	12.826573	15.259814	15.479419	14.521600	15.038292	14.485452	6.671875	4.781112	-2.899400	4.272800	-0.427280	0.736204	0.424926	0.480040	-1.000000	-1.000000	-1.000000	-1.000000	-1.000000	-1.000000	-1.000000	77.241379	0.000000	-1.000000	-1.000000	1384861.000000	1773867013.150016
-4232.700000	-1905.255000	16790.445000	21160.395000	-21999.645000	-31765.770000	11272.680000	15380.145000	9.334554	13.700531	15.299199	14.989814	15.454605	15.457515	5.548892	-3.520341	-2.899400	4.272800	-0.427280	0.736204	0.424926	0.480040	-1.000000	-1.000000	-1.000000	-1.000000	-1.000000	-1.000000	-1.000000	77.241379	0.000000	-1.000000	-1.000000	1384862.000000	1773867013.150029
-4226.040000	-1897.695000	16798.320000	21166.155000	-21981.645000	-31740.525000	11272.365000	15365.835000	4.643847	10.042913	12.819104	12.977417	12.774115	13.180124	4.812246	-6.212166	-2.899400	4.272800	-0.427280	0.736204	0.424926	0.480040	-1.000000	-1.000000	-1.000000	-1.000000	-1.000000	-1.000000	-1.000000	77.241379	0.000000	-1.000000	-1.000000	1384863.000000	1773867013.150042
-4237.920000	-1897.290000	16802.010000	21171.285000	-21976.965000	-31736.745000	11276.280000	15333.660000	1.239186	7.255387	9.758833	10.018344	9.531356	10.896185	4.486538	-5.042497	-2.899400	4.272800	-0.427280	0.736204	0.424926	0.480040	-1.000000	-1.000000	-1.000000	-1.000000	-1.000000	-1.000000	-1.000000	77.241379	0.000000	-1.000000	-1.000000	1384864.000000	1773867013.150048
-4247.595000	-1898.325000	16805.295000	21180.645000	-21970.530000	-31733.190000	11285.280000	15337.260000	-2.088257	3.967776	4.944168	5.203007	5.360054	7.767068	2.967160	-4.789500	-2.899400	4.272800	-0.427280	0.736204	0.424926	0.480040	-1.000000	-1.000000	-1.000000	-1.000000	-1.000000	-1.000000	-1.000000	77.241379	0.000000	-1.000000	-1.000000	1384865.000000	1773867013.152858
-4247.910000	-1917.675000	16775.415000	21164.760000	-21993.615000	-31760.865000	11263.455000	15378.120000	-6.827369	-2.563609	-3.288220	-2.888897	-1.860317	0.606085	-0.465373	-6.160667	-2.899400	4.272800	-0.427280	0.736204	0.424926	0.480040	-1.000000	-1.000000	-1.000000	-1.000000	-1.000000	-1.000000	-1.000000	77.241379	0.000000	-1.000000	-1.000000	1384866.000000	1773867013.152869
-4240.305000	-1914.345000	16770.735000	21163.410000	-22002.345000	-31786.065000	11258.325000	15392.610000	-11.152179	-11.906071	-13.969106	-13.415235	-12.354064	-11.283234	-4.799481	-4.657635	-2.899400	4.272800	-0.427280	0.736204	0.424926	0.480040	-1.000000	-1.000000	-1.000000	-1.000000	-1.000000	-1.000000	-1.000000	77.241379	0.000000	-1.000000	-1.000000	1384867.000000	1773867013.156163
-4231.305000	-1893.870000	16795.125000	21185.145000	-21979.935000	-31740.435000	11268.360000	15370.875000	-11.699693	-19.161918	-22.145870	-21.747606	-21.796712	-22.932555	-7.966784	1.590772	-2.899400	4.272800	-0.427280	0.736204	0.424926	0.480040	-1.000000	-1.000000	-1.000000	-1.000000	-1.000000	-1.000000	-1.000000	77.241379	0.000000	-1.000000	-1.000000	1384868.000000	1773867013.156171
-4205.565000	-1864.440000	16828.245000	21217.815000	-21937.635000	-31688.595000	11290.320000	15376.500000	-6.941868	-18.266593	-21.365347	-21.428243	-22.872318	-25.220157	-7.936823	7.815086	-2.899400	4.272800	-0.427280	0.736204	0.424926	0.480040	-1.000000	-1.000000	-1.000000	-1.000000	-1.000000	-1.000000	-1.000000	77.241379	0.000000	-1.000000	-1.000000	1384869.000000	1773867013.160183
-4208.535000	-1870.605000	16825.365000	21202.830000	-21949.560000	-31716.675000	11291.580000	15393.285000	1.814968	-7.712610	-9.701718	-10.088953	-11.898914	-13.367111	-4.222887	8.939350	-2.899400	4.272800	-0.427280	0.736204	0.424926	0.480040	-1.000000	-1.000000	-1.000000	-1.000000	-1.000000	-1.000000	-1.000000	77.241379	0.000000	-1.000000	-1.000000	1384870.000000	1773867013.160194
-4245.840000	-1930.140000	16759.440000	21125.520000	-22026.105000	-31795.695000	11250.405000	15397.515000	10.061033	6.279351	6.124711	5.825835	5.043678	5.113583	0.665009	5.229463	-1.205540	4.257540	-1.770160	0.737303	0.422362	0.480468	-1.000000	-1.000000	-1.000000	-1.000000	-1.000000	-1.000000	-1.000000	77.241379	0.000000	-1.000000	-1.000000	1384871.000000	1773867013.164221
-4266.900000	-1955.025000	16731.540000	21096.720000	-22056.030000	-31815.450000	11246.985000	15373.710000	12.013104	13.830566	14.994630	14.935790	15.550867	15.953675	2.747261	0.061835	-1.205540	4.257540	-1.770160	0.737303	0.422362	0.480468	-1.000000	-1.000000	-1.000000	-1.000000	-1.000000	-1.000000	-1.000000	77.241379	0.000000	-1.000000	-1.000000	1384872.000000	1773867013.164229
-4256.640000	-1929.780000	16761.600000	21131.055000	-22022.775000	-31780.440000	11263.545000	15365.385000	6.293070	10.859094	12.181309	12.166768	13.387738	13.199159	1.143991	-4.161048	-1.205540	4.257540	-1.770160	0.737303	0.422362	0.480468	-1.000000	-1.000000	-1.000000	-1.000000	-1.000000	-1.000000	-1.000000	77.241379	0.000000	-1.000000	-1.000000	1384873.000000	1773867013.168081
-4247.820000	-1916.370000	16774.380000	21156.435000	-22000.950000	-31768.605000	11258.280000	15361.065000	-1.989689	2.824519	3.714539	3.607002	4.537589	4.026338	-1.033251	-6.944333	-1.205540	4.257540	-1.770160	0.737303	0.422362	0.480468	-1.000000	-1.000000	-1.000000	-1.000000	-1.000000	-1.000000	-1.000000	77.241379	0.000000	-1.000000	-1.000000	1384874.000000	1773867013.168092
-4245.120000	-1913.490000	16776.225000	21174.570000	-21980.340000	-31743.315000	11245.680000	15348.240000	-6.610037	-2.301045	-1.434413	-1.437266	-0.968285	-1.135729	-0.798215	-8.776947	-1.205540	4.257540	-1.770160	0.737303	0.422362	0.480468	-1.000000	-1.000000	-1.000000	-1.000000	-1.000000	-1.000000	-1.000000	77.241379	0.000000	-1.000000	-1.000000	1384875.000000	1773867013.176650
-4250.430000	-1910.070000	16778.520000	21175.785000	-21979.080000	-31737.420000	11247.120000	15347.385000	-5.847565	-1.880637	-0.312809	0.187551	0.693115	1.466789	1.804879	-9.456787	-1.205540	4.257540	-1.770160	0.737303	0.422362	0.480468	-1.000000	-1.000000	-1.000000	-1.000000	-1.000000	-1.000000	-1.000000	77.241379	0.000000	-1.000000	-1.000000	1384876.000000	1773867013.176660
-4257.990000	-1905.255000	16784.235000	21179.745000	-21975.120000	-31739.940000	11254.905000	15361.740000	-2.518132	1.088541	3.320445	4.434393	5.312596	6.816799	4.452444	-7.101597	-1.205540	4.257540	-1.770160	0.737303	0.422362	0.480468	-1.000000	-1.000000	-1.000000	-1.000000	-1.000000	-1.000000	-1.000000	77.241379	0.000000	-1.000000	-1.000000	1384877.000000	1773867013.176897
-4258.575000	-1914.480000	16772.805000	21160.305000	-21988.845000	-31745.745000	11266.560000	15372.405000	-0.140842	2.487316	4.305112	5.536815	6.314221	7.207025	5.042888	-0.594761	-1.205540	4.257540	-1.770160	0.737303	0.422362	0.480468	-1.000000	-1.000000	-1.000000	-1.000000	-1.000000	-1.000000	-1.000000	77.241379	0.000000	-1.000000	-1.000000	1384878.000000	1773867013.176905
-4252.815000	-1922.670000	16766.910000	21138.570000	-22011.615000	-31767.300000	11269.620000	15380.100000	0.678912	1.200031	1.375950	1.951014	1.836021	1.402241	3.694794	7.590639	-1.205540	4.257540	-1.770160	0.737303	0.422362	0.480468	-1.000000	-1.000000	-1.000000	-1.000000	-1.000000	-1.000000	-1.000000	77.241379	0.000000	-1.000000	-1.000000	1384879.000000	1773867013.180175
-4254.390000	-1924.290000	16766.505000	21142.485000	-22000.815000	-31759.605000	11263.860000	15358.770000	2.110857	-0.137888	-1.797540	-2.280385	-3.505420	-4.504992	2.295108	12.977041	-1.205540	4.257540	-1.770160	0.737303	0.422362	0.480468	-1.000000	-1.000000	-1.000000	-1.000000	-1.000000	-1.000000	-1.000000	77.241379	0.000000	-1.000000	-1.000000	1384880.000000	1773867013.180187
-4251.915000	-1912.545000	16779.870000	21157.605000	-21988.530000	-31754.835000	11267.370000	15351.750000	5.250641	1.040981	-1.395600	-2.596344	-4.338385	-5.284982	1.710288	12.856592	-1.739640	5.524120	-0.763000	0.738707	0.425475	0.481566	-1.000000	-1.000000	-1.000000	-1.000000	-1.000000	-1.000000	-1.000000	77.241379	0.000000	-1.000000	-1.000000	1384881.000000	1773867013.188532
-4249.530000	-1893.105000	16799.445000	21180.690000	-21973.230000	-31744.935000	11266.560000	15354.810000	7.906906	3.601204	1.694203	0.429095	-1.005391	-2.239214	0.689013	7.952458	-1.739640	5.524120	-0.763000	0.738707	0.425475	0.481566	-1.000000	-1.000000	-1.000000	-1.000000	-1.000000	-1.000000	-1.000000	77.241379	0.000000	-1.000000	-1.000000	1384882.000000	1773867013.188542
-4244.355000	-1875.195000	16815.645000	21210.120000	-21947.265000	-31719.015000	11261.925000	15351.255000	7.114851	4.674887	3.944472	2.851495	2.061596	0.358701	-1.593442	1.098071	-1.739640	5.524120	-0.763000	0.738707	0.425475	0.481566	-1.000000	-1.000000	-1.000000	-1.000000	-1.000000	-1.000000	-1.000000	77.241379	0.000000	-1.000000	-1.000000	1384883.000000	1773867013.189995
-4230.405000	-1869.795000	16814.835000	21210.030000	-21949.695000	-31717.665000	11264.130000	15357.420000	2.680004	3.148937	3.496140	2.410855	2.102647	0.728705	-3.873292	-4.703661	-1.739640	5.524120	-0.763000	0.738707	0.425475	0.481566	-1.000000	-1.000000	-1.000000	-1.000000	-1.000000	-1.000000	-1.000000	77.241379	0.000000	-1.000000	-1.000000	1384884.000000	1773867013.190006
-4208.670000	-1871.460000	16805.745000	21195.180000	-21965.355000	-31730.355000	11266.470000	15382.980000	-2.423545	-0.454359	0.233380	-0.912546	-0.977802	-0.950582	-4.646367	-7.022746	-1.739640	5.524120	-0.763000	0.738707	0.425475	0.481566	-1.000000	-1.000000	-1.000000	-1.000000	-1.000000	-1.000000	-1.000000	77.241379	0.000000	-1.000000	-1.000000	1384885.000000	1773867013.194621
-4214.790000	-1896.570000	16789.545000	21183.480000	-21968.370000	-31728.420000	11274.255000	15395.580000	-5.110151	-5.382162	-5.237666	-6.092607	-5.942517	-4.182356	-3.967964	-5.095643	-1.739640	5.524120	-0.763000	0.738707	0.425475	0.481566	-1.000000	-1.000000	-1.000000	-1.000000	-1.000000	-1.000000	-1.000000	77.241379	0.000000	-1.000000	-1.000000	1384886.000000	1773867013.194632
-4227.930000	-1913.445000	16779.645000	21161.880000	-21982.500000	-31744.170000	11278.575000	15390.765000	-5.290610	-10.358925	-10.756470	-10.533785	-9.867768	-6.955781	-2.709961	-1.174063	-1.739640	5.524120	-0.763000	0.738707	0.425475	0.481566	-1.000000	-1.000000	-1.000000	-1.000000	-1.000000	-1.000000	-1.000000	77.241379	0.000000	-1.000000	-1.000000	1384887.000000	1773867013.205367
-4233.330000	-1908.135000	16784.235000	21155.895000	-21992.580000	-31761.360000	11280.060000	15384.510000	-4.874530	-12.542801	-12.543704	-10.735625	-9.279298	-6.463253	-1.119708	1.135761	-1.739640	5.524120	-0.763000	0.738707	0.425475	0.481566	-1.000000	-1.000000	-1.000000	-1.000000	-1.000000	-1.000000	-1.000000	77.241379	0.000000	-1.000000	-1.000000	1384888.000000	1773867013.205379
-4237.515000	-1905.750000	16784.775000	21155.940000	-21997.845000	-31762.575000	11276.730000	15377.085000	-4.675887	-9.159140	-8.147461	-5.461481	-3.718605	-2.334548	0.917904	0.602774	-1.739640	5.524120	-0.763000	0.738707	0.425475	0.481566	-1.000000	-1.000000	-1.000000	-1.000000	-1.000000	-1.000000	-1.000000	77.241379	0.000000	-1.000000	-1.000000	1384889.000000	1773867013.205392
-4227.075000	-1892.070000	16797.690000	21176.820000	-21972.015000	-31734.135000	11278.395000	15374.970000	-3.999791	-1.164590	0.364598	2.429225	3.437135	3.054248	2.644255	-1.169048	-1.739640	5.524120	-0.763000	0.738707	0.425475	0.481566	-1.000000	-1.000000	-1.000000	-1.000000	-1.000000	-1.000000	-1.000000	77.241379	0.000000	-1.000000	-1.000000	1384890.000000	1773867013.205398
-4215.780000	-1872.810000	16811.730000	21206.655000	-21946.545000	-31712.715000	11271.285000	15366.870000	-2.064610	7.009856	7.933531	8.534963	8.515684	7.323200	2.938403	-2.554177	-4.272800	5.249440	1.831200	0.736082	0.427367	0.482238	-1.000000	-1.000000	-1.000000	-1.000000	-1.000000	-1.000000	-1.000000	77.241379	0.000000	-1.000000	-1.000000	1384891.000000	1773867013.205404
-4211.685000	-1870.155000	16811.370000	21210.795000	-21943.980000	-31703.940000	11272.635000	15376.410000	0.936253	11.377063	10.932984	10.354762	9.899050	9.070305	1.833607	-2.972399	-4.272800	5.249440	1.831200	0.736082	0.427367	0.482238	-1.000000	-1.000000	-1.000000	-1.000000	-1.000000	-1.000000	-1.000000	77.241379	0.000000	-1.000000	-1.000000	1384892.000000	1773867013.205409
-4222.845000	-1870.920000	16816.725000	21214.260000	-21939.300000	-31701.375000	11275.560000	15371.325000	3.305775	10.532844	9.064505	8.022884	7.716020	7.608502	0.367200	-2.298116	-4.272800	5.249440	1.831200	0.736082	0.427367	0.482238	-1.000000	-1.000000	-1.000000	-1.000000	-1.000000	-1.000000	-1.000000	77.241379	0.000000	-1.000000	-1.000000	1384893.000000	1773867013.213025
-4221.315000	-1876.590000	16808.085000	21199.680000	-21956.130000	-31717.080000	11276.595000	15378.885000	3.106222	5.662411	4.428689	3.428989	3.341622	3.366432	-0.702274	-1.196085	-4.272800	5.249440	1.831200	0.736082	0.427367	0.482238	-1.000000	-1.000000	-1.000000	-1.000000	-1.000000	-1.000000	-1.000000	77.241379	0.000000	-1.000000	-1.000000	1384894.000000	1773867013.213036
-4232.385000	-1907.415000	16778.115000	21157.740000	-21993.255000	-31750.245000	11275.605000	15391.395000	0.627850	-0.436221	-0.590163	-1.540326	-1.872893	-2.526729	-1.425170	-0.408049	-4.272800	5.249440	1.831200	0.736082	0.427367	0.482238	-1.000000	-1.000000	-1.000000	-1.000000	-1.000000	-1.000000	-1.000000	77.241379	0.000000	-1.000000	-1.000000	1384895.000000	1773867013.213050
-4237.470000	-1903.545000	16781.580000	21152.340000	-21989.160000	-31751.955000	11278.710000	15387.525000	-1.707242	-5.010888	-4.500867	-5.613035	-6.567888	-8.033587	-1.933124	0.491350	-4.272800	5.249440	1.831200	0.736082	0.427367	0.482238	-1.000000	-1.000000	-1.000000	-1.000000	-1.000000	-1.000000	-1.000000	77.241379	0.000000	-1.000000	-1.000000	1384896.000000	1773867013.213055
-4230.495000	-1894.905000	16788.465000	21158.235000	-21988.530000	-31751.145000	11278.260000	15388.470000	-1.754487	-6.221131	-5.975331	-7.047849	-8.194946	-9.867566	-1.751412	2.154876	-4.272800	5.249440	1.831200	0.736082	0.427367	0.482238	-1.000000	-1.000000	-1.000000	-1.000000	-1.000000	-1.000000	-1.000000	77.241379	0.000000	-1.000000	-1.000000	1384897.000000	1773867013.218399
-4235.535000	-1912.140000	16781.580000	21161.700000	-21983.805000	-31742.865000	11279.835000	15385.770000	0.636730	-4.214138	-4.497110	-4.871741	-5.400261	-6.487848	-0.528352	4.252250	-4.272800	5.249440	1.831200	0.736082	0.427367	0.482238	-1.000000	-1.000000	-1.000000	-1.000000	-1.000000	-1.000000	-1.000000	77.241379	0.000000	-1.000000	-1.000000	1384898.000000	1773867013.218410
-4229.820000	-1895.490000	16796.295000	21186.585000	-21963.780000	-31724.145000	11276.505000	15381.090000	3.436480	-1.517980	-1.657480	-0.792825	-0.410801	-0.358644	1.154328	5.496629	-4.272800	5.249440	1.831200	0.736082	0.427367	0.482238	-1.000000	-1.000000	-1.000000	-1.000000	-1.000000	-1.000000	-1.000000	77.241379	0.000000	-1.000000	-1.000000	1384899.000000	1773867013.220444
-4223.295000	-1875.825000	16809.030000	21209.805000	-21945.150000	-31708.260000	11269.215000	15382.305000	4.341209	-0.045777	0.665228	2.580427	3.451849	4.652705	2.293391	4.637288	-4.272800	5.249440	1.831200	0.736082	0.427367	0.482238	-1.000000	-1.000000	-1.000000	-1.000000	-1.000000	-1.000000	-1.000000	77.241379	0.000000	-1.000000	-1.000000	1384900.000000	1773867013.220455
-4221.360000	-1870.110000	16811.820000	21213.720000	-21939.840000	-31706.370000	11269.395000	15378.840000	2.943264	0.820083	2.131865	4.205402	4.887286	6.485411	2.231516	1.637986	-3.937080	4.562740	1.068200	0.736876	0.425231	0.482787	-1.000000	-1.000000	-1.000000	-1.000000	-1.000000	-1.000000	-1.000000	77.241379	0.000000	-1.000000	-1.000000	1384901.000000	1773867013.224145
-4210.290000	-1858.770000	16823.475000	21222.315000	-21929.625000	-31691.295000	11283.345000	15376.050000	0.642073	2.208723	3.111530	4.461616	4.618764	5.556904	1.172695	-2.388495	-3.937080	4.562740	1.068200	0.736876	0.425231	0.482787	-1.000000	-1.000000	-1.000000	-1.000000	-1.000000	-1.000000	-1.000000	77.241379	0.000000	-1.000000	-1.000000	1384902.000000	1773867013.224155
-4190.310000	-1840.725000	16847.325000	21238.920000	-21907.620000	-31667.715000	11308.545000	15339.420000	-0.585310	4.513711	4.310819	4.539819	4.370818	4.224783	0.430626	-6.457999	-3.937080	4.562740	1.068200	0.736876	0.425231	0.482787	-1.000000	-1.000000	-1.000000	-1.000000	-1.000000	-1.000000	-1.000000	77.241379	0.000000	-1.000000	-1.000000	1384903.000000	1773867013.228151
-4205.205000	-1852.965000	16840.530000	21218.760000	-21920.805000	-31681.170000	11300.805000	15266.565000	0.217136	7.314619	6.308949	5.479670	5.379452	4.593122	1.023102	-10.885127	-3.937080	4.562740	1.068200	0.736876	0.425231	0.482787	-1.000000	-1.000000	-1.000000	-1.000000	-1.000000	-1.000000	-1.000000	77.241379	0.000000	-1.000000	-1.000000	1384904.000000	1773867013.228166
-4225.995000	-1877.760000	16813.305000	21188.205000	-21952.620000	-31711.455000	11289.195000	15315.930000	1.407271	8.042953	7.149454	5.644692	5.791780	5.204788	1.804252	-14.591162	-3.937080	4.562740	1.068200	0.736876	0.425231	0.482787	-1.000000	-1.000000	-1.000000	-1.000000	-1.000000	-1.000000	-1.000000	77.241379	0.000000	-1.000000	-1.000000	1384905.000000	1773867013.232149
-4230.945000	-1910.115000	16776.585000	21155.760000	-21987.090000	-31749.120000	11283.300000	15474.330000	0.258514	3.263057	2.979735	1.335755	1.600817	1.823781	0.728592	-10.413018	-3.937080	4.562740	1.068200	0.736876	0.425231	0.482787	-1.000000	-1.000000	-1.000000	-1.000000	-1.000000	-1.000000	-1.000000	77.172414	0.000000	-1.000000	-1.000000	1384906.000000	1773867013.232159
-4224.690000	-1895.940000	16788.870000	21173.445000	-21972.600000	-31739.265000	11284.425000	15460.785000	-3.305862	-6.339207	-6.481218	-7.835041	-7.727672	-6.922686	-2.263993	7.602352	-3.937080	4.562740	1.068200	0.736876	0.425231	0.482787	-1.000000	-1.000000	-1.000000	-1.000000	-1.000000	-1.000000	-1.000000	77.172414	0.000000	-1.000000	-1.000000	1384907.000000	1773867013.236303
-4218.705000	-1882.080000	16794.855000	21190.590000	-21962.295000	-31731.345000	11267.595000	15408.135000	-6.463696	-14.874067	-15.672756	-16.611514	-16.903520	-16.396338	-5.163824	29.754062	-3.937080	4.562740	1.068200	0.736876	0.425231	0.482787	-1.000000	-1.000000	-1.000000	-1.000000	-1.000000	-1.000000	-1.000000	77.172414	0.000000	-1.000000	-1.000000	1384908.000000	1773867013.236313
-4226.355000	-1881.225000	16797.465000	21199.500000	-21950.100000	-31715.775000	11261.565000	15378.840000	-6.837590	-16.675270	-18.160760	-18.669768	-19.348680	-19.666053	-6.142965	36.547482	-3.937080	4.562740	1.068200	0.736876	0.425231	0.482787	-1.000000	-1.000000	-1.000000	-1.000000	-1.000000	-1.000000	-1.000000	77.172414	0.000000	-1.000000	-1.000000	1384909.000000	1773867013.240407
-4212.675000	-1871.505000	16807.410000	21205.485000	-21946.140000	-31721.355000	11271.690000	15381.270000	-4.271502	-10.804366	-12.018834	-11.926371	-12.647560	-13.563240	-4.694566	20.230884	-3.937080	4.562740	1.068200	0.736876	0.425231	0.482787	-1.000000	-1.000000	-1.000000	-1.000000	-1.000000	-1.000000	-1.000000	77.172414	0.000000	-1.000000	-1.000000	1384910.000000	1773867013.240426
-4209.345000	-1877.535000	16799.085000	21187.575000	-21966.255000	-31736.970000	11279.160000	15398.730000	-0.066921	-0.678129	-0.620414	0.144958	-0.322720	-1.426120	-1.431171	-7.945342	-1.846460	5.142620	-0.427280	0.739744	0.421752	0.480284	-1.000000	-1.000000	-1.000000	-1.000000	-1.000000	-1.000000	-1.000000	77.172414	0.000000	-1.000000	-1.000000	1384911.000000	1773867013.248752
-4225.365000	-1892.295000	16794.180000	21176.325000	-21957.930000	-31704.885000	11288.520000	15393.690000	3.689722	8.459631	9.903678	11.066337	10.937947	10.276299	2.220514	-29.085813	-1.846460	5.142620	-0.427280	0.739744	0.421752	0.480284	-1.000000	-1.000000	-1.000000	-1.000000	-1.000000	-1.000000	-1.000000	77.172414	0.000000	-1.000000	-1.000000	1384912.000000	1773867013.248773
-4227.795000	-1895.130000	16790.760000	21163.680000	-21973.725000	-31722.345000	11294.730000	15389.505000	5.323657	12.804624	14.997852	16.244220	16.651906	17.639242	5.099701	-31.619351	-1.846460	5.142620	-0.427280	0.739744	0.421752	0.480284	-1.000000	-1.000000	-1.000000	-1.000000	-1.000000	-1.000000	-1.000000	77.172414	0.000000	-1.000000	-1.000000	1384913.000000	1773867013.248788
-4229.550000	-1898.190000	16789.770000	21169.080000	-21969.225000	-31723.920000	11274.345000	15396.795000	5.086297	12.252568	14.441351	15.618584	16.663363	19.786494	6.647067	-19.176622	-1.846460	5.142620	-0.427280	0.739744	0.421752	0.480284	-1.000000	-1.000000	-1.000000	-1.000000	-1.000000	-1.000000	-1.000000	77.172414	0.000000	-1.000000	-1.000000	1384914.000000	1773867013.248793
-4224.105000	-1882.440000	16800.930000	21182.760000	-21958.470000	-31711.455000	11265.525000	15393.780000	4.177997	9.313194	10.889344	11.831456	13.117666	16.913159	5.896193	-5.483956	-1.846460	5.142620	-0.427280	0.739744	0.421752	0.480284	-1.000000	-1.000000	-1.000000	-1.000000	-1.000000	-1.000000	-1.000000	77.172414	0.000000	-1.000000	-1.000000	1384915.000000	1773867013.254617
-4213.440000	-1845.090000	16845.435000	21243.780000	-21901.095000	-31662.810000	11274.120000	15375.960000	3.059051	6.276857	6.903515	7.396460	8.301122	10.459304	2.651375	0.522137	-1.846460	5.142620	-0.427280	0.739744	0.421752	0.480284	-1.000000	-1.000000	-1.000000	-1.000000	-1.000000	-1.000000	-1.000000	77.172414	0.000000	-1.000000	-1.000000	1384916.000000	1773867013.254629
-4202.730000	-1850.445000	16831.575000	21235.410000	-21912.255000	-31667.625000	11280.375000	15397.740000	1.741140	3.475243	3.297251	3.256407	3.397063	2.562532	-0.816328	2.099197	-1.846460	5.142620	-0.427280	0.739744	0.421752	0.480284	-1.000000	-1.000000	-1.000000	-1.000000	-1.000000	-1.000000	-1.000000	77.172414	0.000000	-1.000000	-1.000000	1384917.000000	1773867013.261566
-4205.475000	-1879.965000	16797.330000	21200.355000	-21945.870000	-31706.505000	11278.845000	15410.115000	0.363485	-0.643604	-1.397668	-1.919739	-2.548583	-6.001039	-2.087313	6.424566	-1.846460	5.142620	-0.427280	0.739744	0.421752	0.480284	-1.000000	-1.000000	-1.000000	-1.000000	-1.000000	-1.000000	-1.000000	77.172414	0.000000	-1.000000	-1.000000	1384918.000000	1773867013.261580
-4208.535000	-1883.160000	16798.005000	21199.680000	-21941.730000	-31698.720000	11283.345000	15391.755000	-1.330117	-7.145128	-8.549140	-9.382010	-10.396107	-14.736024	-1.553837	13.849704	-1.846460	5.142620	-0.427280	0.739744	0.421752	0.480284	-1.000000	-1.000000	-1.000000	-1.000000	-1.000000	-1.000000	-1.000000	77.172414	0.000000	-1.000000	-1.000000	1384919.000000	1773867013.261594
-4217.670000	-1893.015000	16793.955000	21182.580000	-21957.705000	-31715.775000	11285.730000	15398.910000	-3.699980	-13.690738	-15.573681	-16.395368	-17.221963	-20.653158	-1.273336	18.206172	-1.846460	5.142620	-0.427280	0.739744	0.421752	0.480284	-1.000000	-1.000000	-1.000000	-1.000000	-1.000000	-1.000000	-1.000000	77.172414	0.000000	-1.000000	-1.000000	1384920.000000	1773867013.261599
-4223.655000	-1881.945000	16802.730000	21173.895000	-21969.090000	-31725.675000	11296.575000	15403.995000	-5.829003	-15.560825	-17.338257	-18.057440	-18.664904	-20.571846	-2.083386	15.622184	-3.799740	6.149780	-1.007160	0.742369	0.420470	0.478331	-1.000000	-1.000000	-1.000000	-1.000000	-1.000000	-1.000000	-1.000000	77.172414	0.000000	-1.000000	-1.000000	1384921.000000	1773867013.264108
-4209.480000	-1862.415000	16820.055000	21195.720000	-21944.520000	-31704.165000	11301.705000	15399.855000	-5.724303	-9.852536	-11.119891	-12.021994	-12.922526	-13.669213	-2.755792	7.775174	-3.799740	6.149780	-1.007160	0.742369	0.420470	0.478331	-1.000000	-1.000000	-1.000000	-1.000000	-1.000000	-1.000000	-1.000000	77.172414	0.000000	-1.000000	-1.000000	1384922.000000	1773867013.264127
-4200.120000	-1875.960000	16813.980000	21204.315000	-21933.315000	-31690.890000	11304.810000	15412.455000	-2.334717	1.379076	0.819297	-0.162846	-1.276627	-1.054947	-1.581459	-2.443308	-3.799740	6.149780	-1.007160	0.742369	0.420470	0.478331	-1.000000	-1.000000	-1.000000	-1.000000	-1.000000	-1.000000	-1.000000	77.172414	0.000000	-1.000000	-1.000000	1384923.000000	1773867013.268102
-4204.845000	-1869.750000	16817.085000	21215.205000	-21929.580000	-31694.490000	11292.030000	15396.210000	2.694856	11.351930	11.784136	11.540068	11.084144	12.473563	1.203161	-12.050192	-3.799740	6.149780	-1.007160	0.742369	0.420470	0.478331	-1.000000	-1.000000	-1.000000	-1.000000	-1.000000	-1.000000	-1.000000	77.172414	0.000000	-1.000000	-1.000000	1384924.000000	1773867013.268112
-4201.290000	-1860.840000	16823.565000	21230.595000	-21918.195000	-31683.465000	11284.155000	15394.185000	5.800373	13.655727	15.092413	16.109491	16.886214	19.348841	3.046635	-16.969319	-3.799740	6.149780	-1.007160	0.742369	0.420470	0.478331	-1.000000	-1.000000	-1.000000	-1.000000	-1.000000	-1.000000	-1.000000	77.172414	0.000000	-1.000000	-1.000000	1384925.000000	1773867013.272766
-4188.960000	-1850.895000	16831.305000	21238.515000	-21908.070000	-31670.415000	11292.840000	15413.535000	5.027185	8.283754	10.191165	11.919644	13.632263	16.517046	2.076438	-14.653779	-3.799740	6.149780	-1.007160	0.742369	0.420470	0.478331	-1.000000	-1.000000	-1.000000	-1.000000	-1.000000	-1.000000	-1.000000	77.172414	0.000000	-1.000000	-1.000000	1384926.000000	1773867013.272778
-4200.435000	-1851.390000	16831.395000	21235.410000	-21911.805000	-31670.190000	11282.175000	15394.545000	1.642172	0.950321	2.643863	4.001892	5.847292	8.449946	-0.826102	-6.658986	-3.799740	6.149780	-1.007160	0.742369	0.420470	0.478331	-1.000000	-1.000000	-1.000000	-1.000000	-1.000000	-1.000000	-1.000000	77.172414	0.000000	-1.000000	-1.000000	1384927.000000	1773867013.276217
-4227.255000	-1878.210000	16802.415000	21195.360000	-21950.595000	-31702.680000	11281.635000	15376.320000	-2.369716	-3.624625	-2.732580	-2.510166	-1.351515	0.654405	-3.726751	2.128431	-3.799740	6.149780	-1.007160	0.742369	0.420470	0.478331	-1.000000	-1.000000	-1.000000	-1.000000	-1.000000	-1.000000	-1.000000	77.172414	0.000000	-1.000000	-1.000000	1384928.000000	1773867013.276226
-4231.485000	-1897.605000	16785.180000	21169.440000	-21965.580000	-31716.675000	11285.100000	15380.280000	-5.712794	-5.370826	-5.758422	-6.674606	-6.584399	-5.352038	-5.245314	7.144742	-3.799740	6.149780	-1.007160	0.742369	0.420470	0.478331	-1.000000	-1.000000	-1.000000	-1.000000	-1.000000	-1.000000	-1.000000	77.172414	0.000000	-1.000000	-1.000000	1384929.000000	1773867013.280204
-4219.380000	-1900.215000	16781.085000	21165.885000	-21966.075000	-31716.630000	11286.360000	15397.695000	-6.650316	-6.168969	-7.823383	-9.026271	-9.561495	-9.424543	-4.605152	7.736514	-3.799740	6.149780	-1.007160	0.742369	0.420470	0.478331	-1.000000	-1.000000	-1.000000	-1.000000	-1.000000	-1.000000	-1.000000	77.172414	0.000000	-1.000000	-1.000000	1384930.000000	1773867013.280211
-4219.155000	-1896.255000	16786.935000	21174.795000	-21960.135000	-31715.280000	11286.405000	15398.865000	-4.013284	-6.367187	-8.509166	-8.998932	-9.340266	-10.510077	-1.876889	6.040383	-3.326680	7.401100	-1.022420	0.743162	0.418944	0.478209	-1.000000	-1.000000	-1.000000	-1.000000	-1.000000	-1.000000	-1.000000	77.172414	0.000000	-1.000000	-1.000000	1384931.000000	1773867013.284358
-4224.375000	-1887.480000	16797.870000	21192.480000	-21949.875000	-31705.785000	11283.165000	15387.435000	0.718558	-4.614736	-6.162213	-5.859163	-5.842685	-8.126775	1.941712	3.396333	-3.326680	7.401100	-1.022420	0.743162	0.418944	0.478209	-1.000000	-1.000000	-1.000000	-1.000000	-1.000000	-1.000000	-1.000000	77.172414	0.000000	-1.000000	-1.000000	1384932.000000	1773867013.284368
-4200.435000	-1856.250000	16823.115000	21228.255000	-21921.345000	-31677.345000	11281.995000	15389.055000	4.878503	-0.165024	-0.449777	-0.113499	-0.345375	-3.027784	5.386181	0.510822	-3.326680	7.401100	-1.022420	0.743162	0.418944	0.478209	-1.000000	-1.000000	-1.000000	-1.000000	-1.000000	-1.000000	-1.000000	77.172414	0.000000	-1.000000	-1.000000	1384933.000000	1773867013.288355
-4195.665000	-1847.115000	16832.160000	21241.665000	-21905.235000	-31666.320000	11282.805000	15386.535000	7.116441	5.636990	6.568720	6.357746	5.402603	3.264412	7.100758	-1.417018	-3.326680	7.401100	-1.022420	0.743162	0.418944	0.478209	-1.000000	-1.000000	-1.000000	-1.000000	-1.000000	-1.000000	-1.000000	77.172414	0.000000	-1.000000	-1.000000	1384934.000000	1773867013.288365
-4190.940000	-1828.485000	16852.185000	21259.755000	-21888.000000	-31649.310000	11289.510000	15370.605000	7.081049	10.238704	11.890421	11.252337	9.821555	8.657072	6.400739	-2.265617	-3.326680	7.401100	-1.022420	0.743162	0.418944	0.478209	-1.000000	-1.000000	-1.000000	-1.000000	-1.000000	-1.000000	-1.000000	77.172414	0.000000	-1.000000	-1.000000	1384935.000000	1773867013.292186
-4186.665000	-1813.365000	16866.360000	21271.905000	-21871.935000	-31633.290000	11294.505000	15358.680000	5.068273	11.842015	13.623068	13.155841	11.978852	11.540206	3.809470	-2.771483	-3.326680	7.401100	-1.022420	0.743162	0.418944	0.478209	-1.000000	-1.000000	-1.000000	-1.000000	-1.000000	-1.000000	-1.000000	77.172414	0.000000	-1.000000	-1.000000	1384936.000000	1773867013.292195
-4190.220000	-1853.280000	16816.860000	21205.215000	-21934.665000	-31689.270000	11293.020000	15406.830000	2.446319	9.871726	11.034232	11.268653	10.979766	10.896628	0.594581	-2.039443	-3.326680	7.401100	-1.022420	0.743162	0.418944	0.478209	-1.000000	-1.000000	-1.000000	-1.000000	-1.000000	-1.000000	-1.000000	77.172414	0.000000	-1.000000	-1.000000	1384937.000000	1773867013.297336
-4194.585000	-1874.790000	16797.960000	21180.195000	-21957.120000	-31721.940000	11302.470000	15428.655000	0.180018	3.834698	3.576675	4.436100	5.097146	5.214375	-2.278508	1.700995	-3.326680	7.401100	-1.022420	0.743162	0.418944	0.478209	-1.000000	-1.000000	-1.000000	-1.000000	-1.000000	-1.000000	-1.000000	77.172414	0.000000	-1.000000	-1.000000	1384938.000000	1773867013.297344
-4199.490000	-1871.730000	16808.355000	21194.370000	-21943.395000	-31697.460000	11314.710000	15400.800000	-2.313953	-5.444961	-7.094776	-6.249587	-5.147493	-4.751716	-3.975362	6.662692	-3.326680	7.401100	-1.022420	0.743162	0.418944	0.478209	-1.000000	-1.000000	-1.000000	-1.000000	-1.000000	-1.000000	-1.000000	77.172414	0.000000	-1.000000	-1.000000	1384939.000000	1773867013.300252
-4198.860000	-1854.360000	16828.650000	21218.040000	-21921.480000	-31672.530000	11299.815000	15389.910000	-5.428754	-13.717700	-15.512307	-15.304470	-14.321133	-13.172322	-3.959291	7.448393	-3.326680	7.401100	-1.022420	0.743162	0.418944	0.478209	-1.000000	-1.000000	-1.000000	-1.000000	-1.000000	-1.000000	-1.000000	77.172414	0.000000	-1.000000	-1.000000	1384940.000000	1773867013.300260
-4187.205000	-1844.235000	16840.170000	21247.650000	-21895.380000	-31654.035000	11297.205000	15387.435000	-7.771179	-16.094809	-16.606758	-17.122032	-16.408158	-14.067085	-2.928253	1.938416	-1.861720	7.340060	-2.136400	0.743162	0.419555	0.479552	-1.000000	-1.000000	-1.000000	-1.000000	-1.000000	-1.000000	-1.000000	77.172414	0.000000	-1.000000	-1.000000	1384941.000000	1773867013.304817
-4194.090000	-1845.315000	16842.150000	21261.060000	-21881.160000	-31638.870000	11289.465000	15336.045000	-7.784766	-11.923477	-10.586642	-11.169691	-10.499167	-7.514520	-2.054240	-6.465826	-1.861720	7.340060	-2.136400	0.743162	0.419555	0.479552	-1.000000	-1.000000	-1.000000	-1.000000	-1.000000	-1.000000	-1.000000	77.172414	0.000000	-1.000000	-1.000000	1384942.000000	1773867013.304828
-4191.480000	-1828.530000	16854.705000	21266.910000	-21878.010000	-31634.775000	11295.180000	15329.745000	-5.670139	-4.479345	-1.831231	-1.678929	-0.949308	1.376976	-1.717046	-13.520685	-1.861720	7.340060	-2.136400	0.743162	0.419555	0.479552	-1.000000	-1.000000	-1.000000	-1.000000	-1.000000	-1.000000	-1.000000	77.172414	0.000000	-1.000000	-1.000000	1384943.000000	1773867013.311050
-4207.455000	-1850.040000	16828.470000	21237.885000	-21906.135000	-31662.540000	11286.360000	15398.415000	-2.642149	2.438276	4.881902	5.747564	6.169126	6.867493	-1.632735	-14.628256	-1.861720	7.340060	-2.136400	0.743162	0.419555	0.479552	-1.000000	-1.000000	-1.000000	-1.000000	-1.000000	-1.000000	-1.000000	77.172414	0.000000	-1.000000	-1.000000	1384944.000000	1773867013.311061
-4217.130000	-1858.005000	16827.885000	21230.595000	-21904.245000	-31662.000000	11299.770000	15424.920000	0.232659	6.245180	6.936394	7.789580	7.486072	6.304876	-1.282585	-5.630374	-1.861720	7.340060	-2.136400	0.743162	0.419555	0.479552	-1.000000	-1.000000	-1.000000	-1.000000	-1.000000	-1.000000	-1.000000	77.172414	0.000000	-1.000000	-1.000000	1384945.000000	1773867013.312251
-4212.990000	-1855.710000	16833.330000	21225.825000	-21907.215000	-31671.045000	11301.930000	15412.590000	2.574636	7.237340	6.020010	6.380018	5.430651	2.624662	-0.099254	9.553590	-1.861720	7.340060	-2.136400	0.743162	0.419555	0.479552	-1.000000	-1.000000	-1.000000	-1.000000	-1.000000	-1.000000	-1.000000	77.172414	0.000000	-1.000000	-1.000000	1384946.000000	1773867013.312257
-4199.940000	-1848.195000	16835.580000	21222.405000	-21922.155000	-31692.195000	11308.860000	15432.210000	4.810217	7.842246	5.810650	5.611406	4.286221	0.512088	1.777521	19.779146	-1.861720	7.340060	-2.136400	0.743162	0.419555	0.479552	-1.000000	-1.000000	-1.000000	-1.000000	-1.000000	-1.000000	-1.000000	77.172414	0.000000	-1.000000	-1.000000	1384947.000000	1773867013.316240
-4184.955000	-1861.605000	16814.520000	21203.055000	-21944.655000	-31699.620000	11293.920000	15450.345000	7.259870	8.382474	6.249739	5.356182	3.615168	0.018308	3.137763	19.027933	-1.861720	7.340060	-2.136400	0.743162	0.419555	0.479552	-1.000000	-1.000000	-1.000000	-1.000000	-1.000000	-1.000000	-1.000000	77.172414	0.000000	-1.000000	-1.000000	1384948.000000	1773867013.316247
-4193.505000	-1858.815000	16820.460000	21224.745000	-21916.620000	-31668.075000	11285.820000	15436.395000	8.939418	6.432143	4.039005	2.433947	0.480113	-1.303819	2.896460	10.297327	-1.861720	7.340060	-2.136400	0.743162	0.419555	0.479552	-1.000000	-1.000000	-1.000000	-1.000000	-1.000000	-1.000000	-1.000000	77.172414	0.000000	-1.000000	-1.000000	1384949.000000	1773867013.320202
-4194.765000	-1842.300000	16833.420000	21252.780000	-21887.505000	-31643.145000	11283.525000	15407.370000	7.696303	1.080015	-1.512113	-3.202034	-4.250314	-2.901330	1.323989	-1.101373	-1.861720	7.340060	-2.136400	0.743162	0.419555	0.479552	-1.000000	-1.000000	-1.000000	-1.000000	-1.000000	-1.000000	-1.000000	77.172414	0.000000	-1.000000	-1.000000	1384950.000000	1773867013.320212
-4180.140000	-1831.860000	16840.665000	21260.880000	-21880.530000	-31639.545000	11288.115000	15412.680000	2.901902	-4.876340	-6.881944	-7.674550	-6.647405	-2.544638	-0.260134	-10.762001	-3.509800	5.920880	-3.860780	0.742796	0.423339	0.479003	-1.000000	-1.000000	-1.000000	-1.000000	-1.000000	-1.000000	-1.000000	77.172414	0.000000	-1.000000	-1.000000	1384951.000000	1773867013.324212
-4160.430000	-1838.745000	16829.685000	21246.435000	-21894.930000	-31647.645000	11296.800000	15435.630000	-2.592062	-7.994090	-8.534748	-7.869025	-4.892158	-0.142828	-0.687018	-14.998014	-3.509800	5.920880	-3.860780	0.742796	0.423339	0.479003	-1.000000	-1.000000	-1.000000	-1.000000	-1.000000	-1.000000	-1.000000	77.172414	0.000000	-1.000000	-1.000000	1384952.000000	1773867013.324220
-4158.360000	-1846.800000	16824.240000	21233.835000	-21902.490000	-31648.770000	11304.135000	15442.830000	-5.008913	-7.293734	-5.987264	-4.152321	-0.650739	2.607403	0.292507	-13.249917	-3.509800	5.920880	-3.860780	0.742796	0.423339	0.479003	-1.000000	-1.000000	-1.000000	-1.000000	-1.000000	-1.000000	-1.000000	77.172414	0.000000	-1.000000	-1.000000	1384953.000000	1773867013.328162
-4172.400000	-1854.585000	16823.250000	21219.840000	-21911.580000	-31665.555000	11310.210000	15437.430000	-3.717151	-3.795337	-0.873796	1.144506	3.464439	4.304905	1.817584	-8.731530	-3.509800	5.920880	-3.860780	0.742796	0.423339	0.479003	-1.000000	-1.000000	-1.000000	-1.000000	-1.000000	-1.000000	-1.000000	77.172414	0.000000	-1.000000	-1.000000	1384954.000000	1773867013.328168
-4166.910000	-1836.225000	16842.285000	21235.410000	-21901.140000	-31656.330000	11318.760000	15426.135000	-1.560515	0.858675	4.685861	5.864546	5.996069	4.597422	2.512362	-4.761965	-3.509800	5.920880	-3.860780	0.742796	0.423339	0.479003	-1.000000	-1.000000	-1.000000	-1.000000	-1.000000	-1.000000	-1.000000	77.172414	0.000000	-1.000000	-1.000000	1384955.000000	1773867013.332188
-4152.690000	-1802.205000	16881.120000	21281.535000	-21854.700000	-31613.805000	11338.560000	15422.940000	-1.162072	5.395927	9.219810	9.244970	7.407600	4.535473	1.969343	-2.357482	-3.509800	5.920880	-3.860780	0.742796	0.423339	0.479003	-1.000000	-1.000000	-1.000000	-1.000000	-1.000000	-1.000000	-1.000000	77.172414	0.000000	-1.000000	-1.000000	1384956.000000	1773867013.332194
-4152.690000	-1795.905000	16889.940000	21300.795000	-21839.445000	-31600.485000	11328.210000	15429.555000	-2.414149	8.981604	12.020306	11.439829	8.814932	5.195026	1.096996	-0.621064	-3.509800	5.920880	-3.860780	0.742796	0.423339	0.479003	-1.000000	-1.000000	-1.000000	-1.000000	-1.000000	-1.000000	-1.000000	77.172414	0.000000	-1.000000	-1.000000	1384957.000000	1773867013.341526
-4157.505000	-1821.735000	16851.150000	21271.230000	-21877.740000	-31636.935000	11284.830000	15442.380000	-3.748891	9.458340	10.955759	10.400529	8.043948	4.284498	-0.110020	2.500097	-3.509800	5.920880	-3.860780	0.742796	0.423339	0.479003	-1.000000	-1.000000	-1.000000	-1.000000	-1.000000	-1.000000	-1.000000	77.172414	0.000000	-1.000000	-1.000000	1384958.000000	1773867013.341539
-4180.905000	-1848.915000	16815.195000	21240.450000	-21903.345000	-31659.165000	11276.595000	15417.720000	-4.396546	3.773637	2.760009	2.183563	0.410969	-2.347037	-3.141068	7.980626	-3.509800	5.920880	-3.860780	0.742796	0.423339	0.479003	-1.000000	-1.000000	-1.000000	-1.000000	-1.000000	-1.000000	-1.000000	77.172414	0.000000	-1.000000	-1.000000	1384959.000000	1773867013.341698
-4174.245000	-1837.350000	16828.110000	21249.405000	-21894.345000	-31647.555000	11288.925000	15414.660000	-4.731416	-7.170723	-11.062229	-12.010784	-13.023712	-13.338922	-7.430260	12.894850	-3.509800	5.920880	-3.860780	0.742796	0.423339	0.479003	-1.000000	-1.000000	-1.000000	-1.000000	-1.000000	-1.000000	-1.000000	77.172414	0.000000	-1.000000	-1.000000	1384960.000000	1773867013.341705
-4162.455000	-1827.765000	16838.370000	21254.670000	-21885.255000	-31633.605000	11295.000000	15423.255000	-4.413066	-16.342249	-21.774453	-23.028480	-22.873923	-20.290469	-9.431725	12.506729	-5.783540	4.867940	-2.487380	0.742430	0.423034	0.481444	-1.000000	-1.000000	-1.000000	-1.000000	-1.000000	-1.000000	-1.000000	77.172414	0.000000	-1.000000	-1.000000	1384961.000000	1773867013.344278
-4162.320000	-1828.035000	16844.355000	21251.160000	-21880.485000	-31630.050000	11300.535000	15423.840000	-1.889338	-16.396465	-20.868568	-21.913832	-20.445230	-16.103338	-6.693558	5.775460	-5.783540	4.867940	-2.487380	0.742430	0.423034	0.481444	-1.000000	-1.000000	-1.000000	-1.000000	-1.000000	-1.000000	-1.000000	77.172414	0.000000	-1.000000	-1.000000	1384962.000000	1773867013.344289
-4167.315000	-1828.035000	16845.030000	21246.570000	-21886.290000	-31642.020000	11300.670000	15413.670000	3.066449	-6.860278	-8.443108	-8.672187	-6.337251	-2.226857	-0.488962	-3.382714	-5.783540	4.867940	-2.487380	0.742430	0.423034	0.481444	-1.000000	-1.000000	-1.000000	-1.000000	-1.000000	-1.000000	-1.000000	77.172414	0.000000	-1.000000	-1.000000	1384963.000000	1773867013.348248
-4184.415000	-1836.630000	16837.110000	21242.790000	-21895.065000	-31647.195000	11303.415000	15410.205000	7.618353	5.433085	6.996555	7.907477	10.253638	12.543419	5.544224	-9.823406	-5.783540	4.867940	-2.487380	0.742430	0.423034	0.481444	-1.000000	-1.000000	-1.000000	-1.000000	-1.000000	-1.000000	-1.000000	77.172414	0.000000	-1.000000	-1.000000	1384964.000000	1773867013.348258
-4175.640000	-1830.105000	16843.410000	21252.960000	-21887.370000	-31639.815000	11305.170000	15421.455000	8.224929	12.354927	15.793716	17.538925	19.003781	19.018604	8.358681	-10.684514	-5.783540	4.867940	-2.487380	0.742430	0.423034	0.481444	-1.000000	-1.000000	-1.000000	-1.000000	-1.000000	-1.000000	-1.000000	77.172414	0.000000	-1.000000	-1.000000	1384965.000000	1773867013.352342
-4162.950000	-1809.405000	16860.510000	21285.270000	-21855.690000	-31619.790000	11292.210000	15417.855000	4.883600	11.429015	14.873126	16.572899	16.683325	14.815087	7.666103	-6.382547	-5.783540	4.867940	-2.487380	0.742430	0.423034	0.481444	-1.000000	-1.000000	-1.000000	-1.000000	-1.000000	-1.000000	-1.000000	77.172414	0.000000	-1.000000	-1.000000	1384966.000000	1773867013.352353
-4165.335000	-1802.160000	16862.175000	21291.480000	-21855.690000	-31619.070000	11282.130000	15401.610000	1.113923	6.814250	8.914329	9.704027	8.649240	5.490040	5.375314	0.086656	-5.783540	4.867940	-2.487380	0.742430	0.423034	0.481444	-1.000000	-1.000000	-1.000000	-1.000000	-1.000000	-1.000000	-1.000000	77.172414	0.000000	-1.000000	-1.000000	1384967.000000	1773867013.356410
-4170.915000	-1799.415000	16866.270000	21295.080000	-21847.995000	-31600.350000	11290.095000	15387.435000	-0.444215	3.407706	3.953941	3.511869	1.846494	-1.644339	3.092443	5.154819	-5.783540	4.867940	-2.487380	0.742430	0.423034	0.481444	-1.000000	-1.000000	-1.000000	-1.000000	-1.000000	-1.000000	-1.000000	77.172414	0.000000	-1.000000	-1.000000	1384968.000000	1773867013.356420
-4138.155000	-1775.745000	16885.485000	21311.685000	-21826.665000	-31573.980000	11314.755000	15420.510000	0.000684	2.250536	1.814279	0.500793	-1.103669	-3.359701	1.221819	6.977583	-5.783540	4.867940	-2.487380	0.742430	0.423034	0.481444	-1.000000	-1.000000	-1.000000	-1.000000	-1.000000	-1.000000	-1.000000	77.172414	0.000000	-1.000000	-1.000000	1384969.000000	1773867013.360449
-4145.130000	-1789.245000	16875.945000	21294.810000	-21839.490000	-31589.010000	11327.355000	15436.935000	1.075471	1.631721	0.758336	-0.597916	-1.480590	-1.337001	-0.051007	6.211677	-5.783540	4.867940	-2.487380	0.742430	0.423034	0.481444	-1.000000	-1.000000	-1.000000	-1.000000	-1.000000	-1.000000	-1.000000	77.172414	0.000000	-1.000000	-1.000000	1384970.000000	1773867013.360459
-4172.085000	-1829.970000	16838.460000	21250.800000	-21879.855000	-31627.845000	11313.720000	15431.040000	1.071264	-0.778565	-1.852492	-2.459671	-2.396340	-0.084995	-0.974285	4.405754	-4.104940	5.386780	-3.158820	0.742491	0.419860	0.483031	-1.000000	-1.000000	-1.000000	-1.000000	-1.000000	-1.000000	-1.000000	77.172414	0.000000	-1.000000	-1.000000	1384971.000000	1773867013.364178
-4185.315000	-1848.195000	16818.120000	21231.630000	-21903.255000	-31656.780000	11290.770000	15418.080000	-1.424424	-6.311693	-7.439314	-6.989261	-6.283203	-3.070031	-2.898936	2.048164	-4.104940	5.386780	-3.158820	0.742491	0.419860	0.483031	-1.000000	-1.000000	-1.000000	-1.000000	-1.000000	-1.000000	-1.000000	77.172414	0.000000	-1.000000	-1.000000	1384972.000000	1773867013.364188
-4170.240000	-1822.455000	16842.825000	21259.980000	-21875.355000	-31625.595000	11298.690000	15419.430000	-5.316815	-12.607112	-13.642512	-12.472588	-11.555378	-8.950696	-6.420465	-1.078051	-4.104940	5.386780	-3.158820	0.742491	0.419860	0.483031	-1.000000	-1.000000	-1.000000	-1.000000	-1.000000	-1.000000	-1.000000	77.172414	0.000000	-1.000000	-1.000000	1384973.000000	1773867013.368409
-4152.780000	-1794.465000	16868.160000	21295.935000	-21847.455000	-31608.225000	11295.675000	15420.600000	-7.198960	-14.134109	-14.980302	-13.873831	-13.139969	-12.293495	-9.252931	-4.472817	-4.104940	5.386780	-3.158820	0.742491	0.419860	0.483031	-1.000000	-1.000000	-1.000000	-1.000000	-1.000000	-1.000000	-1.000000	77.172414	0.000000	-1.000000	-1.000000	1384974.000000	1773867013.368419
-4140.675000	-1774.620000	16887.015000	21326.940000	-21822.795000	-31599.765000	11292.885000	15419.430000	-4.822369	-7.698646	-8.164215	-7.818615	-7.706409	-9.074562	-8.012282	-6.601085	-4.104940	5.386780	-3.158820	0.742491	0.419860	0.483031	-1.000000	-1.000000	-1.000000	-1.000000	-1.000000	-1.000000	-1.000000	77.172414	0.000000	-1.000000	-1.000000	1384975.000000	1773867013.372404
-4139.685000	-1766.565000	16889.895000	21326.670000	-21825.675000	-31597.605000	11297.385000	15417.315000	0.858361	3.968840	4.216926	3.615780	2.805708	-0.539470	-2.031246	-5.785014	-4.104940	5.386780	-3.158820	0.742491	0.419860	0.483031	-1.000000	-1.000000	-1.000000	-1.000000	-1.000000	-1.000000	-1.000000	77.172414	0.000000	-1.000000	-1.000000	1384976.000000	1773867013.372413
-4144.275000	-1762.380000	16884.630000	21316.140000	-21829.050000	-31574.655000	11291.175000	15411.240000	6.291850	14.196790	15.116796	13.823923	12.324401	8.372627	5.260712	-2.163552	-4.104940	5.386780	-3.158820	0.742491	0.419860	0.483031	-1.000000	-1.000000	-1.000000	-1.000000	-1.000000	-1.000000	-1.000000	77.172414	0.000000	-1.000000	-1.000000	1384977.000000	1773867013.376484
-4161.735000	-1802.340000	16850.835000	21285.495000	-21850.200000	-31595.985000	11295.675000	15415.830000	7.253185	16.500359	17.457069	16.029973	14.745144	12.705065	8.874267	1.295700	-4.104940	5.386780	-3.158820	0.742491	0.419860	0.483031	-1.000000	-1.000000	-1.000000	-1.000000	-1.000000	-1.000000	-1.000000	77.172414	0.000000	-1.000000	-1.000000	1384978.000000	1773867013.376494
-4169.745000	-1826.775000	16836.930000	21268.215000	-21858.570000	-31605.120000	11303.460000	15423.255000	2.541591	8.901185	9.471862	8.834537	8.882386	10.542399	6.901584	1.867995	-4.104940	5.386780	-3.158820	0.742491	0.419860	0.483031	-1.000000	-1.000000	-1.000000	-1.000000	-1.000000	-1.000000	-1.000000	77.172414	0.000000	-1.000000	-1.000000	1384979.000000	1773867013.380300
-4164.345000	-1815.615000	16845.660000	21270.510000	-21858.795000	-31608.495000	11302.560000	15425.055000	-3.791901	-3.254781	-2.811666	-1.921786	-0.082298	4.603636	2.204447	0.497384	-4.104940	5.386780	-3.158820	0.742491	0.419860	0.483031	-1.000000	-1.000000	-1.000000	-1.000000	-1.000000	-1.000000	-1.000000	77.172414	0.000000	-1.000000	-1.000000	1384980.000000	1773867013.380310
-4162.455000	-1807.650000	16852.185000	21279.825000	-21853.395000	-31606.290000	11300.130000	15418.980000	-6.298751	-11.142409	-10.527538	-8.496255	-5.582162	-0.475300	-1.130666	-0.085196	-3.357200	6.241340	-1.632820	0.744078	0.420043	0.484557	-1.000000	-1.000000	-1.000000	-1.000000	-1.000000	-1.000000	-1.000000	77.172414	0.000000	-1.000000	-1.000000	1384981.000000	1773867013.385378
-4149.855000	-1787.175000	16869.960000	21307.185000	-21826.350000	-31581.405000	11302.110000	15409.845000	-3.707438	-10.610879	-10.024801	-8.161851	-5.640233	-2.846856	-1.726705	0.741569	-3.357200	6.241340	-1.632820	0.744078	0.420043	0.484557	-1.000000	-1.000000	-1.000000	-1.000000	-1.000000	-1.000000	-1.000000	77.172414	0.000000	-1.000000	-1.000000	1384982.000000	1773867013.385389
-4121.010000	-1739.340000	16903.620000	21344.625000	-21798.585000	-31549.545000	11304.135000	15407.820000	1.215169	-3.976737	-4.020826	-3.541875	-2.643166	-3.165744	-0.606177	1.477422	-3.357200	6.241340	-1.632820	0.744078	0.420043	0.484557	-1.000000	-1.000000	-1.000000	-1.000000	-1.000000	-1.000000	-1.000000	77.172414	0.000000	-1.000000	-1.000000	1384983.000000	1773867013.388346
-4119.840000	-1730.205000	16917.390000	21368.250000	-21776.040000	-31530.015000	11311.605000	15430.770000	5.404340	4.313998	3.156259	1.815360	0.741689	-1.751026	1.033781	1.608073	-3.357200	6.241340	-1.632820	0.744078	0.420043	0.484557	-1.000000	-1.000000	-1.000000	-1.000000	-1.000000	-1.000000	-1.000000	77.172414	0.000000	-1.000000	-1.000000	1384984.000000	1773867013.388353
-4145.850000	-1747.440000	16905.825000	21361.050000	-21780.450000	-31532.490000	11303.010000	15432.345000	6.617047	9.692363	7.957674	5.631490	3.154599	0.573509	2.094734	2.360849	-3.357200	6.241340	-1.632820	0.744078	0.420043	0.484557	-1.000000	-1.000000	-1.000000	-1.000000	-1.000000	-1.000000	-1.000000	77.172414	0.000000	-1.000000	-1.000000	1384985.000000	1773867013.393247
-4168.395000	-1762.605000	16899.930000	21353.760000	-21781.440000	-31536.630000	11295.585000	15371.145000	3.284778	8.596129	7.969673	6.430629	3.634745	1.270366	1.230008	2.945845	-3.357200	6.241340	-1.632820	0.744078	0.420043	0.484557	-1.000000	-1.000000	-1.000000	-1.000000	-1.000000	-1.000000	-1.000000	77.172414	0.000000	-1.000000	-1.000000	1384986.000000	1773867013.393257
-4145.895000	-1765.350000	16896.420000	21334.545000	-21799.575000	-31556.295000	11310.300000	15376.455000	-3.051967	2.025321	3.720314	3.975776	1.771168	-1.152801	-1.743535	0.014084	-3.357200	6.241340	-1.632820	0.744078	0.420043	0.484557	-1.000000	-1.000000	-1.000000	-1.000000	-1.000000	-1.000000	-1.000000	77.172414	0.000000	-1.000000	-1.000000	1384987.000000	1773867013.400606
-4117.995000	-1777.905000	16874.460000	21303.405000	-21832.830000	-31586.715000	11305.890000	15409.395000	-6.885267	-4.698178	-1.700955	-0.503340	-1.849720	-5.204675	-4.840875	-5.719583	-3.357200	6.241340	-1.632820	0.744078	0.420043	0.484557	-1.000000	-1.000000	-1.000000	-1.000000	-1.000000	-1.000000	-1.000000	77.172414	0.000000	-1.000000	-1.000000	1384988.000000	1773867013.400618
-4115.340000	-1756.800000	16897.770000	21331.440000	-21802.590000	-31564.305000	11311.605000	15371.055000	-4.197437	-7.335106	-5.624436	-5.056638	-5.601178	-7.916232	-5.598105	-8.773584	-3.357200	6.241340	-1.632820	0.744078	0.420043	0.484557	-1.000000	-1.000000	-1.000000	-1.000000	-1.000000	-1.000000	-1.000000	77.172414	0.000000	-1.000000	-1.000000	1384989.000000	1773867013.400631
-4117.095000	-1752.930000	16899.210000	21337.560000	-21799.890000	-31562.145000	11302.695000	15391.845000	2.474874	-5.639910	-6.828014	-7.459923	-7.040695	-6.939611	-3.401816	-6.323428	-3.357200	6.241340	-1.632820	0.744078	0.420043	0.484557	-1.000000	-1.000000	-1.000000	-1.000000	-1.000000	-1.000000	-1.000000	77.172414	0.000000	-1.000000	-1.000000	1384990.000000	1773867013.400636
-4135.455000	-1791.495000	16848.315000	21297.690000	-21845.880000	-31602.105000	11287.890000	15485.220000	6.470815	-3.031426	-6.548789	-7.735157	-6.223147	-3.472127	-0.058386	1.302299	-2.517900	7.477400	-0.625660	0.744566	0.421569	0.484252	-1.000000	-1.000000	-1.000000	-1.000000	-1.000000	-1.000000	-1.000000	77.172414	0.000000	-1.000000	-1.000000	1384991.000000	1773867013.410028
-4130.100000	-1769.895000	16875.270000	21339.270000	-21800.790000	-31554.990000	11291.355000	15471.855000	3.508883	-3.639825	-7.526712	-8.151955	-5.805737	-1.081491	2.052232	12.474676	-2.517900	7.477400	-0.625660	0.744566	0.421569	0.484252	-1.000000	-1.000000	-1.000000	-1.000000	-1.000000	-1.000000	-1.000000	77.172414	0.000000	-1.000000	-1.000000	1384992.000000	1773867013.410039
-4115.745000	-1761.615000	16879.095000	21340.395000	-21800.790000	-31559.895000	11299.005000	15476.355000	-3.836048	-6.514064	-8.729451	-7.992816	-5.304844	0.011531	2.409899	20.769391	-2.517900	7.477400	-0.625660	0.744566	0.421569	0.484252	-1.000000	-1.000000	-1.000000	-1.000000	-1.000000	-1.000000	-1.000000	77.172414	0.000000	-1.000000	-1.000000	1384993.000000	1773867013.410050
-4115.205000	-1769.085000	16865.595000	21317.355000	-21829.455000	-31581.405000	11289.960000	15473.430000	-8.395153	-6.288878	-6.079394	-4.319629	-2.164505	1.746474	2.140384	18.934294	-2.517900	7.477400	-0.625660	0.744566	0.421569	0.484252	-1.000000	-1.000000	-1.000000	-1.000000	-1.000000	-1.000000	-1.000000	77.172414	0.000000	-1.000000	-1.000000	1384994.000000	1773867013.410055
-4121.955000	-1766.340000	16877.970000	21327.345000	-21804.030000	-31559.220000	11294.370000	15455.700000	-6.050382	-0.322424	1.424322	2.867974	3.390826	4.303351	1.947858	7.273827	-2.517900	7.477400	-0.625660	0.744566	0.421569	0.484252	-1.000000	-1.000000	-1.000000	-1.000000	-1.000000	-1.000000	-1.000000	77.172414	0.000000	-1.000000	-1.000000	1384995.000000	1773867013.412437
-4129.515000	-1760.040000	16888.095000	21330.180000	-21798.000000	-31544.505000	11315.070000	15446.070000	0.276152	8.932138	11.035566	11.276003	10.001629	7.915460	1.795836	-8.222082	-2.517900	7.477400	-0.625660	0.744566	0.421569	0.484252	-1.000000	-1.000000	-1.000000	-1.000000	-1.000000	-1.000000	-1.000000	77.172414	0.000000	-1.000000	-1.000000	1384996.000000	1773867013.412447
-4119.525000	-1736.820000	16909.110000	21351.285000	-21781.395000	-31535.280000	11322.045000	15451.920000	4.734532	16.730210	18.820404	18.219682	16.207927	12.615738	1.992470	-21.183871	-2.517900	7.477400	-0.625660	0.744566	0.421569	0.484252	-1.000000	-1.000000	-1.000000	-1.000000	-1.000000	-1.000000	-1.000000	77.172414	0.000000	-1.000000	-1.000000	1384997.000000	1773867013.416480
-4106.565000	-1731.510000	16908.525000	21352.185000	-21787.875000	-31548.915000	11304.855000	15460.470000	4.959172	18.745987	20.732575	20.098412	18.380929	14.998076	2.408788	-25.804366	-2.517900	7.477400	-0.625660	0.744566	0.421569	0.484252	-1.000000	-1.000000	-1.000000	-1.000000	-1.000000	-1.000000	-1.000000	77.172414	0.000000	-1.000000	-1.000000	1384998.000000	1773867013.416488
-4121.415000	-1760.220000	16876.305000	21335.805000	-21804.390000	-31560.030000	11284.470000	15441.840000	2.746801	12.826270	14.215520	13.968882	12.814383	10.566488	1.581451	-20.311856	-2.517900	7.477400	-0.625660	0.744566	0.421569	0.484252	-1.000000	-1.000000	-1.000000	-1.000000	-1.000000	-1.000000	-1.000000	77.172414	0.000000	-1.000000	-1.000000	1384999.000000	1773867013.421889
-4132.440000	-1755.855000	16882.650000	21357.090000	-21784.185000	-31536.360000	11281.635000	15416.415000	0.055918	0.578211	0.996102	1.276595	0.713495	-0.173778	-1.245510	-10.423720	-2.517900	7.477400	-0.625660	0.744566	0.421569	0.484252	-1.000000	-1.000000	-1.000000	-1.000000	-1.000000	-1.000000	-1.000000	77.172414	0.000000	-1.000000	-1.000000	1385000.000000	1773867013.421899
-4111.470000	-1736.730000	16896.735000	21368.880000	-21772.980000	-31528.755000	11289.510000	15432.930000	-2.224819	-12.382618	-12.749693	-12.033313	-11.882946	-11.527269	-4.512489	-2.626575	-1.526000	7.385840	-1.678600	0.742674	0.422728	0.483031	-1.000000	-1.000000	-1.000000	-1.000000	-1.000000	-1.000000	-1.000000	77.172414	0.000000	-1.000000	-1.000000	1385001.000000	1773867013.424408
-4104.945000	-1728.720000	16900.920000	21370.545000	-21770.325000	-31525.650000	11286.630000	15427.530000	-2.838274	-19.314467	-20.219529	-19.600519	-18.802743	-17.708726	-5.869456	2.950307	-1.526000	7.385840	-1.678600	0.742674	0.422728	0.483031	-1.000000	-1.000000	-1.000000	-1.000000	-1.000000	-1.000000	-1.000000	77.172414	0.000000	-1.000000	-1.000000	1385002.000000	1773867013.424417
-4112.820000	-1734.840000	16898.445000	21364.020000	-21768.615000	-31519.620000	11297.520000	15426.360000	-1.016200	-16.883710	-18.238009	-18.270766	-17.122457	-16.038777	-4.152899	8.885787	-1.526000	7.385840	-1.678600	0.742674	0.422728	0.483031	-1.000000	-1.000000	-1.000000	-1.000000	-1.000000	-1.000000	-1.000000	77.172414	0.000000	-1.000000	-1.000000	1385003.000000	1773867013.428470
-4133.925000	-1754.145000	16885.935000	21338.910000	-21791.925000	-31540.995000	11308.995000	15429.555000	1.691537	-7.686751	-9.261464	-10.052694	-9.002072	-8.364591	-0.100504	15.217473	-1.526000	7.385840	-1.678600	0.742674	0.422728	0.483031	-1.000000	-1.000000	-1.000000	-1.000000	-1.000000	-1.000000	-1.000000	77.172414	0.000000	-1.000000	-1.000000	1385004.000000	1773867013.428480
-4136.220000	-1759.455000	16879.680000	21333.060000	-21796.020000	-31542.255000	11306.790000	15431.805000	2.523666	1.841603	0.525468	-0.765965	-0.325332	-0.038472	3.834243	19.260916	-1.526000	7.385840	-1.678600	0.742674	0.422728	0.483031	-1.000000	-1.000000	-1.000000	-1.000000	-1.000000	-1.000000	-1.000000	77.172414	0.000000	-1.000000	-1.000000	1385005.000000	1773867013.432309
-4121.955000	-1753.695000	16881.750000	21340.080000	-21789.180000	-31534.200000	11308.815000	15439.185000	0.647873	6.517380	5.953311	4.726462	4.470739	4.865796	5.246983	18.179724	-1.526000	7.385840	-1.678600	0.742674	0.422728	0.483031	-1.000000	-1.000000	-1.000000	-1.000000	-1.000000	-1.000000	-1.000000	77.172414	0.000000	-1.000000	-1.000000	1385006.000000	1773867013.432323
-4086.090000	-1723.410000	16910.460000	21375.405000	-21760.245000	-31511.205000	11319.570000	15461.460000	-1.446467	6.285768	6.645869	6.139449	5.666287	6.604671	4.253422	11.907016	-1.526000	7.385840	-1.678600	0.742674	0.422728	0.483031	-1.000000	-1.000000	-1.000000	-1.000000	-1.000000	-1.000000	-1.000000	77.172414	0.000000	-1.000000	-1.000000	1385007.000000	1773867013.436443
-4087.665000	-1710.720000	16919.235000	21399.570000	-21739.140000	-31490.190000	11298.555000	15442.560000	-0.451222	5.404401	6.477439	6.884205	6.586277	7.728812	2.774828	2.947875	-1.526000	7.385840	-1.678600	0.742674	0.422728	0.483031	-1.000000	-1.000000	-1.000000	-1.000000	-1.000000	-1.000000	-1.000000	77.172414	0.000000	-1.000000	-1.000000	1385008.000000	1773867013.436454
-4105.080000	-1723.815000	16904.745000	21389.265000	-21753.855000	-31509.270000	11286.810000	15424.020000	3.153168	6.254824	7.529817	8.430463	8.179997	8.416223	1.160348	-6.208524	-1.526000	7.385840	-1.678600	0.742674	0.422728	0.483031	-1.000000	-1.000000	-1.000000	-1.000000	-1.000000	-1.000000	-1.000000	77.172414	0.000000	-1.000000	-1.000000	1385009.000000	1773867013.444276
-4098.330000	-1715.940000	16913.115000	21390.210000	-21755.655000	-31507.110000	11293.515000	15431.850000	4.947923	6.210072	7.126738	7.871311	7.274137	5.926048	-1.568135	-13.604878	-1.526000	7.385840	-1.678600	0.742674	0.422728	0.483031	-1.000000	-1.000000	-1.000000	-1.000000	-1.000000	-1.000000	-1.000000	77.172414	0.000000	-1.000000	-1.000000	1385010.000000	1773867013.444288
-4092.615000	-1705.455000	16922.700000	21398.085000	-21739.275000	-31496.490000	11299.860000	15435.180000	2.433461	3.005944	3.362351	3.499836	2.454965	-0.016332	-4.547646	-16.727323	-4.349100	5.417300	-0.900340	0.740965	0.423461	0.483702	-1.000000	-1.000000	-1.000000	-1.000000	-1.000000	-1.000000	-1.000000	77.172414	0.000000	-1.000000	-1.000000	1385011.000000	1773867013.444986
-4091.355000	-1708.875000	16921.980000	21384.090000	-21751.695000	-31523.805000	11309.175000	15440.085000	-1.948673	-1.433777	-1.596916	-2.090939	-3.161696	-5.950657	-5.610878	-13.631558	-4.349100	5.417300	-0.900340	0.740965	0.423461	0.483702	-1.000000	-1.000000	-1.000000	-1.000000	-1.000000	-1.000000	-1.000000	77.172414	0.000000	-1.000000	-1.000000	1385012.000000	1773867013.444997
-4104.765000	-1727.640000	16901.910000	21358.485000	-21775.320000	-31522.680000	11305.035000	15435.180000	-4.525718	-4.317895	-5.076548	-5.888766	-6.450290	-8.905796	-4.229316	-5.630928	-4.349100	5.417300	-0.900340	0.740965	0.423461	0.483702	-1.000000	-1.000000	-1.000000	-1.000000	-1.000000	-1.000000	-1.000000	77.172414	0.000000	-1.000000	-1.000000	1385013.000000	1773867013.448469
-4105.305000	-1730.430000	16899.075000	21361.635000	-21769.920000	-31508.865000	11291.085000	15430.455000	-4.457027	-5.306092	-6.617885	-7.279972	-7.016547	-7.806460	-1.887003	2.808650	-4.349100	5.417300	-0.900340	0.740965	0.423461	0.483702	-1.000000	-1.000000	-1.000000	-1.000000	-1.000000	-1.000000	-1.000000	77.172414	0.000000	-1.000000	-1.000000	1385014.000000	1773867013.448480
-4098.465000	-1719.765000	16907.310000	21375.270000	-21756.420000	-31506.255000	11298.600000	15434.820000	-3.439405	-5.484929	-6.825045	-6.858784	-5.629292	-3.261391	-0.105480	7.427917	-4.349100	5.417300	-0.900340	0.740965	0.423461	0.483702	-1.000000	-1.000000	-1.000000	-1.000000	-1.000000	-1.000000	-1.000000	77.172414	0.000000	-1.000000	-1.000000	1385015.000000	1773867013.454453
-4098.960000	-1713.330000	16908.840000	21391.515000	-21742.155000	-31492.845000	11290.680000	15428.700000	-2.985087	-5.140043	-5.794461	-4.988885	-2.897026	2.166337	1.055956	6.903220	-4.349100	5.417300	-0.900340	0.740965	0.423461	0.483702	-1.000000	-1.000000	-1.000000	-1.000000	-1.000000	-1.000000	-1.000000	77.172414	0.000000	-1.000000	-1.000000	1385016.000000	1773867013.454462
-4093.065000	-1693.305000	16930.800000	21424.455000	-21713.535000	-31465.035000	11293.245000	15414.795000	-2.634531	-3.449854	-3.070972	-1.673144	0.714607	5.914449	2.454980	3.137182	-4.349100	5.417300	-0.900340	0.740965	0.423461	0.483702	-1.000000	-1.000000	-1.000000	-1.000000	-1.000000	-1.000000	-1.000000	77.172414	0.000000	-1.000000	-1.000000	1385017.000000	1773867013.456822
-4089.960000	-1686.735000	16938.765000	21432.195000	-21704.175000	-31453.425000	11290.500000	15395.895000	-0.827310	0.216565	1.505864	2.993300	4.764234	7.539209	4.236633	-0.777711	-4.349100	5.417300	-0.900340	0.740965	0.423461	0.483702	-1.000000	-1.000000	-1.000000	-1.000000	-1.000000	-1.000000	-1.000000	77.172414	0.000000	-1.000000	-1.000000	1385018.000000	1773867013.456832
-4070.520000	-1675.395000	16943.850000	21432.870000	-21705.345000	-31453.515000	11284.470000	15415.155000	2.684449	4.778080	6.483893	7.625485	8.026911	7.456552	5.093316	-2.869084	-4.349100	5.417300	-0.900340	0.740965	0.423461	0.483702	-1.000000	-1.000000	-1.000000	-1.000000	-1.000000	-1.000000	-1.000000	77.172414	0.000000	-1.000000	-1.000000	1385019.000000	1773867013.460191
-4085.865000	-1704.555000	16913.970000	21393.810000	-21739.230000	-31483.215000	11294.145000	15448.680000	6.121469	7.387457	8.646054	9.104647	7.847780	4.916118	3.635054	-1.856660	-4.349100	5.417300	-0.900340	0.740965	0.423461	0.483702	-1.000000	-1.000000	-1.000000	-1.000000	-1.000000	-1.000000	-1.000000	77.172414	0.000000	-1.000000	-1.000000	1385020.000000	1773867013.460203
-4104.810000	-1713.105000	16908.210000	21379.185000	-21751.560000	-31499.505000	11304.810000	15455.430000	6.950477	5.766477	5.749433	5.302483	2.698689	-0.602394	0.390500	2.647053	-5.157880	4.608520	-0.152600	0.738829	0.423217	0.484923	-1.000000	-1.000000	-1.000000	-1.000000	-1.000000	-1.000000	-1.000000	77.172414	0.000000	-1.000000	-1.000000	1385021.000000	1773867013.464226
-4086.090000	-1699.785000	16915.140000	21382.200000	-21756.555000	-31502.745000	11307.420000	15456.285000	4.360825	1.153905	-0.258061	-1.586652	-4.679866	-7.165534	-2.384070	8.037293	-5.157880	4.608520	-0.152600	0.738829	0.423217	0.484923	-1.000000	-1.000000	-1.000000	-1.000000	-1.000000	-1.000000	-1.000000	77.172414	0.000000	-1.000000	-1.000000	1385022.000000	1773867013.464238
-4104.090000	-1716.030000	16902.360000	21383.325000	-21752.955000	-31501.305000	11303.055000	15442.650000	0.144906	-2.935784	-5.017829	-6.882883	-9.543578	-11.488078	-2.973240	9.838984	-5.157880	4.608520	-0.152600	0.738829	0.423217	0.484923	-1.000000	-1.000000	-1.000000	-1.000000	-1.000000	-1.000000	-1.000000	77.172414	0.000000	-1.000000	-1.000000	1385023.000000	1773867013.468253
-4108.590000	-1700.505000	16915.635000	21409.830000	-21723.030000	-31466.160000	11294.865000	15424.920000	-3.942751	-4.775342	-6.330426	-7.926128	-9.328468	-10.956758	-1.886263	5.307593	-5.157880	4.608520	-0.152600	0.738829	0.423217	0.484923	-1.000000	-1.000000	-1.000000	-1.000000	-1.000000	-1.000000	-1.000000	77.172414	0.000000	-1.000000	-1.000000	1385024.000000	1773867013.468265
-4084.650000	-1674.180000	16936.245000	21441.735000	-21696.390000	-31442.670000	11290.500000	15424.560000	-6.620117	-4.290347	-4.375080	-4.827695	-4.282962	-4.878092	-0.782642	-3.863375	-5.157880	4.608520	-0.152600	0.738829	0.423217	0.484923	-1.000000	-1.000000	-1.000000	-1.000000	-1.000000	-1.000000	-1.000000	77.172414	0.000000	-1.000000	-1.000000	1385025.000000	1773867013.472251
