Channel1	Channel2	Channel3	Channel4	Channel5	Channel6	Channel7	Channel8	FilteredChannel1	FilteredChannel2	FilteredChannel3	FilteredChannel4	FilteredChannel5	FilteredChannel6	FilteredChannel7	FilteredChannel8	GyroX	GyroY	GyroZ	AccX	AccY	AccZ	PPG1	PPG2	rawPPG1	rawPPG2	rawPPG3	Hr	Hrv	Battery	Trigger	PhysicalTrigger	AutoTrigger	NumMeasurements	Timestamp
31371.705000	11566.170000	32694.570000	40297.455000	13481.460000	-53623.485000	-45756.720000	-11809.620000	13.155690	16.564032	18.863680	16.739361	15.962417	14.802079	2.815638	9.210658	-4.654300	4.715340	-0.473060	0.911253	-0.133972	0.382750	-1.000000	-1.000000	-1.000000	-1.000000	-1.000000	-1.000000	-1.000000	85.862069	0.000000	-1.000000	-1.000000	158297.000000	1774904251.204809
31369.230000	11546.595000	32667.840000	40270.005000	13455.630000	-53646.570000	-45752.580000	-11800.845000	13.943260	11.652459	18.412085	12.530268	10.810108	9.058922	1.546843	4.771840	-4.654300	4.715340	-0.473060	0.911253	-0.133972	0.382750	-1.000000	-1.000000	-1.000000	-1.000000	-1.000000	-1.000000	-1.000000	85.862069	0.000000	-1.000000	-1.000000	158298.000000	1774904251.204819
31403.070000	11597.760000	32710.725000	40309.110000	13496.085000	-53604.315000	-45727.695000	-11774.520000	8.807735	-0.399136	10.292056	2.651550	0.777856	-0.826466	1.264964	-2.460695	-4.654300	4.715340	-0.473060	0.911253	-0.133972	0.382750	-1.000000	-1.000000	-1.000000	-1.000000	-1.000000	-1.000000	-1.000000	85.862069	0.000000	-1.000000	-1.000000	158299.000000	1774904251.220260
31418.910000	11625.255000	32730.975000	40326.120000	13513.770000	-53586.360000	-45729.495000	-11774.205000	-4.497339	-16.233813	-6.768698	-13.006773	-13.950377	-14.429656	-1.937073	-13.796650	-4.654300	4.715340	-0.473060	0.911253	-0.133972	0.382750	-1.000000	-1.000000	-1.000000	-1.000000	-1.000000	-1.000000	-1.000000	85.862069	0.000000	-1.000000	-1.000000	158300.000000	1774904251.220275
31379.445000	11584.080000	32672.880000	40280.310000	13477.230000	-53621.505000	-45761.940000	-11816.235000	-18.933625	-25.918851	-23.900858	-26.317455	-25.674245	-24.616899	-7.684479	-24.353107	-5.112100	4.639040	-0.320460	0.911253	-0.135131	0.380858	-1.000000	-1.000000	-1.000000	-1.000000	-1.000000	-1.000000	-1.000000	85.862069	0.000000	-1.000000	-1.000000	158301.000000	1774904251.220289
31330.845000	11521.035000	32599.620000	40226.220000	13428.270000	-53670.735000	-45799.605000	-11866.995000	-28.318503	-26.548623	-34.326541	-31.858665	-29.614128	-27.491778	-14.287827	-30.095227	-5.112100	4.639040	-0.320460	0.911253	-0.135131	0.380858	-1.000000	-1.000000	-1.000000	-1.000000	-1.000000	-1.000000	-1.000000	85.862069	0.000000	-1.000000	-1.000000	158302.000000	1774904251.220295
31324.545000	11504.655000	32602.095000	40239.855000	13428.045000	-53673.300000	-45801.315000	-11862.360000	-31.125959	-22.725604	-36.352317	-29.308795	-26.334564	-24.166163	-19.239894	-29.983631	-5.112100	4.639040	-0.320460	0.911253	-0.135131	0.380858	-1.000000	-1.000000	-1.000000	-1.000000	-1.000000	-1.000000	-1.000000	85.862069	0.000000	-1.000000	-1.000000	158303.000000	1774904251.220301
31335.795000	11538.630000	32656.905000	40259.070000	13438.980000	-53662.275000	-45796.005000	-11844.495000	-25.603955	-16.462148	-27.954359	-18.636243	-16.785620	-15.467954	-18.377323	-21.897683	-5.112100	4.639040	-0.320460	0.911253	-0.135131	0.380858	-1.000000	-1.000000	-1.000000	-1.000000	-1.000000	-1.000000	-1.000000	85.862069	0.000000	-1.000000	-1.000000	158304.000000	1774904251.220306
31357.080000	11558.430000	32677.605000	40272.435000	13454.145000	-53647.380000	-45784.530000	-11834.505000	-9.686496	-4.307611	-7.677745	-0.396221	-1.266994	-1.051799	-9.072621	-3.890721	-5.112100	4.639040	-0.320460	0.911253	-0.135131	0.380858	-1.000000	-1.000000	-1.000000	-1.000000	-1.000000	-1.000000	-1.000000	85.862069	0.000000	-1.000000	-1.000000	158305.000000	1774904251.220695
31359.105000	11555.010000	32653.125000	40266.945000	13453.695000	-53645.355000	-45775.620000	-11836.305000	12.748036	14.258999	18.463771	20.216212	16.909363	16.420397	5.757433	18.984849	-5.112100	4.639040	-0.320460	0.911253	-0.135131	0.380858	-1.000000	-1.000000	-1.000000	-1.000000	-1.000000	-1.000000	-1.000000	85.862069	0.000000	-1.000000	-1.000000	158306.000000	1774904251.220709
31347.270000	11539.125000	32636.430000	40255.065000	13438.890000	-53659.440000	-45782.280000	-11839.680000	30.632628	30.667202	36.957601	33.679537	29.947802	29.340828	18.521061	34.975637	-5.112100	4.639040	-0.320460	0.911253	-0.135131	0.380858	-1.000000	-1.000000	-1.000000	-1.000000	-1.000000	-1.000000	-1.000000	85.862069	0.000000	-1.000000	-1.000000	158307.000000	1774904251.226306
31339.845000	11536.920000	32646.645000	40252.005000	13435.380000	-53662.725000	-45788.175000	-11842.155000	33.458303	33.458681	37.150844	32.172665	30.036688	29.598183	22.171534	35.010854	-5.112100	4.639040	-0.320460	0.911253	-0.135131	0.380858	-1.000000	-1.000000	-1.000000	-1.000000	-1.000000	-1.000000	-1.000000	85.862069	0.000000	-1.000000	-1.000000	158308.000000	1774904251.226317
31352.760000	11555.910000	32651.820000	40262.940000	13450.860000	-53647.065000	-45782.865000	-11835.855000	20.633548	20.211374	20.714609	16.640455	16.868454	16.510821	15.746354	20.573257	-5.112100	4.639040	-0.320460	0.911253	-0.135131	0.380858	-1.000000	-1.000000	-1.000000	-1.000000	-1.000000	-1.000000	-1.000000	85.862069	0.000000	-1.000000	-1.000000	158309.000000	1774904251.235871
31365.315000	11574.225000	32652.225000	40279.500000	13468.095000	-53628.615000	-45772.380000	-11821.680000	2.642035	1.217660	0.394380	-2.084114	-0.052160	-0.521792	5.308811	2.446853	-5.112100	4.639040	-0.320460	0.911253	-0.135131	0.380858	-1.000000	-1.000000	-1.000000	-1.000000	-1.000000	-1.000000	-1.000000	85.862069	0.000000	-1.000000	-1.000000	158310.000000	1774904251.235883
31417.155000	11628.135000	32713.830000	40348.260000	13534.560000	-53564.805000	-45725.985000	-11778.165000	-7.838875	-9.569340	-9.984224	-11.189885	-8.661292	-9.303739	-1.130757	-8.018693	-4.150720	3.982860	-1.159760	0.910398	-0.137756	0.379210	-1.000000	-1.000000	-1.000000	-1.000000	-1.000000	-1.000000	-1.000000	85.862069	0.000000	-1.000000	-1.000000	158311.000000	1774904251.235896
31432.230000	11641.275000	32744.880000	40360.995000	13548.960000	-53552.295000	-45716.805000	-11772.720000	-5.963169	-6.921208	-6.106428	-6.683206	-4.673401	-5.378697	-0.232472	-7.415952	-4.150720	3.982860	-1.159760	0.910398	-0.137756	0.379210	-1.000000	-1.000000	-1.000000	-1.000000	-1.000000	-1.000000	-1.000000	85.862069	0.000000	-1.000000	-1.000000	158312.000000	1774904251.235901
31404.195000	11607.570000	32734.260000	40326.975000	13509.900000	-53589.960000	-45735.165000	-11791.440000	2.175747	1.505268	3.542991	3.015004	4.397740	3.854042	3.800317	-1.741910	-4.150720	3.982860	-1.159760	0.910398	-0.137756	0.379210	-1.000000	-1.000000	-1.000000	-1.000000	-1.000000	-1.000000	-1.000000	85.862069	0.000000	-1.000000	-1.000000	158313.000000	1774904251.236680
31332.195000	11525.400000	32662.035000	40255.020000	13437.270000	-53658.315000	-45774.540000	-11844.855000	4.771169	2.791858	5.693629	4.916033	5.780242	5.715257	3.062391	-0.330345	-4.150720	3.982860	-1.159760	0.910398	-0.137756	0.379210	-1.000000	-1.000000	-1.000000	-1.000000	-1.000000	-1.000000	-1.000000	85.862069	0.000000	-1.000000	-1.000000	158314.000000	1774904251.236685
31331.025000	11531.070000	32651.055000	40255.785000	13438.890000	-53655.930000	-45784.215000	-11870.055000	-4.631851	-8.191852	-4.907672	-5.871409	-5.843666	-5.184941	-6.053489	-7.713284	-4.150720	3.982860	-1.159760	0.910398	-0.137756	0.379210	-1.000000	-1.000000	-1.000000	-1.000000	-1.000000	-1.000000	-1.000000	85.862069	0.000000	-1.000000	-1.000000	158315.000000	1774904251.240671
31356.450000	11551.995000	32664.645000	40274.820000	13456.215000	-53641.170000	-45786.465000	-11844.720000	-19.543383	-22.947778	-20.667021	-21.023758	-22.090506	-20.905929	-18.552798	-19.195467	-4.150720	3.982860	-1.159760	0.910398	-0.137756	0.379210	-1.000000	-1.000000	-1.000000	-1.000000	-1.000000	-1.000000	-1.000000	85.862069	0.000000	-1.000000	-1.000000	158316.000000	1774904251.240687
31410.180000	11601.180000	32709.960000	40321.665000	13504.860000	-53594.505000	-45769.320000	-11776.140000	-26.162684	-27.646684	-28.550569	-26.954604	-28.793997	-27.788708	-24.907387	-23.622554	-4.150720	3.982860	-1.159760	0.910398	-0.137756	0.379210	-1.000000	-1.000000	-1.000000	-1.000000	-1.000000	-1.000000	-1.000000	85.862069	0.000000	-1.000000	-1.000000	158317.000000	1774904251.244698
31429.305000	11620.035000	32726.025000	40335.705000	13521.735000	-53577.810000	-45760.230000	-11762.730000	-16.636449	-16.096664	-20.872816	-17.008728	-18.922359	-18.812028	-19.138809	-13.286452	-4.150720	3.982860	-1.159760	0.910398	-0.137756	0.379210	-1.000000	-1.000000	-1.000000	-1.000000	-1.000000	-1.000000	-1.000000	85.862069	0.000000	-1.000000	-1.000000	158318.000000	1774904251.244712
31330.035000	11538.090000	32650.110000	40260.150000	13444.650000	-53652.780000	-45790.740000	-11871.720000	2.464454	4.314709	-1.922972	2.209345	0.857011	-0.047224	-4.082265	5.751814	-4.150720	3.982860	-1.159760	0.910398	-0.137756	0.379210	-1.000000	-1.000000	-1.000000	-1.000000	-1.000000	-1.000000	-1.000000	85.862069	0.000000	-1.000000	-1.000000	158319.000000	1774904251.250599
31264.830000	11484.405000	32599.980000	40212.675000	13398.030000	-53698.005000	-45809.190000	-11935.305000	14.371225	17.570224	13.474753	15.020818	14.619768	13.378105	10.244726	16.515067	-4.150720	3.982860	-1.159760	0.910398	-0.137756	0.379210	-1.000000	-1.000000	-1.000000	-1.000000	-1.000000	-1.000000	-1.000000	85.862069	0.000000	-1.000000	-1.000000	158320.000000	1774904251.250609
31300.605000	11506.455000	32618.745000	40229.415000	13415.715000	-53681.355000	-45789.840000	-11895.255000	10.020754	14.657750	13.926008	12.381625	13.117412	12.522152	15.930557	10.358175	-3.525060	3.952340	-1.678600	0.911985	-0.137268	0.377013	-1.000000	-1.000000	-1.000000	-1.000000	-1.000000	-1.000000	-1.000000	85.862069	0.000000	-1.000000	-1.000000	158321.000000	1774904251.252736
31335.165000	11529.765000	32638.680000	40249.260000	13437.945000	-53656.965000	-45785.745000	-11850.030000	-0.722314	3.824345	4.318007	2.306597	4.114804	4.618014	14.183659	-1.798154	-3.525060	3.952340	-1.678600	0.911985	-0.137268	0.377013	-1.000000	-1.000000	-1.000000	-1.000000	-1.000000	-1.000000	-1.000000	85.862069	0.000000	-1.000000	-1.000000	158322.000000	1774904251.252747
31385.385000	11568.195000	32678.955000	40291.335000	13481.955000	-53614.755000	-45772.695000	-11791.935000	-1.597558	0.328000	-0.548752	-0.350762	2.046389	3.213466	11.038084	-3.003631	-3.525060	3.952340	-1.678600	0.911985	-0.137268	0.377013	-1.000000	-1.000000	-1.000000	-1.000000	-1.000000	-1.000000	-1.000000	85.862069	0.000000	-1.000000	-1.000000	158323.000000	1774904251.256719
31414.500000	11599.965000	32716.350000	40330.620000	13519.395000	-53580.015000	-45740.160000	-11765.610000	11.278359	9.169724	7.228771	9.439375	11.530160	12.413099	10.002173	10.778766	-3.525060	3.952340	-1.678600	0.911985	-0.137268	0.377013	-1.000000	-1.000000	-1.000000	-1.000000	-1.000000	-1.000000	-1.000000	85.862069	0.000000	-1.000000	-1.000000	158324.000000	1774904251.256729
31400.415000	11585.385000	32698.755000	40312.980000	13501.440000	-53596.170000	-45736.830000	-11770.335000	25.990237	20.778773	20.594036	22.432348	23.279383	23.198777	10.169886	27.006262	-3.525060	3.952340	-1.678600	0.911985	-0.137268	0.377013	-1.000000	-1.000000	-1.000000	-1.000000	-1.000000	-1.000000	-1.000000	85.862069	0.000000	-1.000000	-1.000000	158325.000000	1774904251.260710
31337.730000	11522.700000	32626.575000	40238.595000	13428.225000	-53664.165000	-45773.370000	-11822.220000	26.148253	20.597075	24.105745	23.532485	22.650284	21.829388	7.507209	28.118927	-3.525060	3.952340	-1.678600	0.911985	-0.137268	0.377013	-1.000000	-1.000000	-1.000000	-1.000000	-1.000000	-1.000000	-1.000000	85.862069	0.000000	-1.000000	-1.000000	158326.000000	1774904251.260720
31308.075000	11506.545000	32609.700000	40219.200000	13409.235000	-53684.280000	-45801.630000	-11862.630000	6.376031	3.330437	9.619310	6.240623	3.867180	3.188787	-1.337727	8.079966	-3.525060	3.952340	-1.678600	0.911985	-0.137268	0.377013	-1.000000	-1.000000	-1.000000	-1.000000	-1.000000	-1.000000	-1.000000	85.862069	0.000000	-1.000000	-1.000000	158327.000000	1774904251.264664
31295.970000	11513.700000	32620.320000	40229.730000	13419.855000	-53675.820000	-45805.635000	-11888.865000	-20.767914	-19.809279	-13.571699	-18.694202	-21.628134	-21.592893	-13.854904	-20.668220	-3.525060	3.952340	-1.678600	0.911985	-0.137268	0.377013	-1.000000	-1.000000	-1.000000	-1.000000	-1.000000	-1.000000	-1.000000	85.862069	0.000000	-1.000000	-1.000000	158328.000000	1774904251.264674
31306.230000	11524.185000	32634.720000	40247.100000	13437.810000	-53659.620000	-45794.250000	-11885.940000	-35.841481	-31.228501	-27.853829	-32.650553	-34.910163	-34.410515	-22.339046	-38.507159	-3.525060	3.952340	-1.678600	0.911985	-0.137268	0.377013	-1.000000	-1.000000	-1.000000	-1.000000	-1.000000	-1.000000	-1.000000	85.862069	0.000000	-1.000000	-1.000000	158329.000000	1774904251.269823
31319.595000	11530.485000	32642.145000	40254.480000	13445.550000	-53655.120000	-45787.095000	-11857.365000	-30.340613	-24.068364	-24.859774	-26.843890	-27.544922	-27.264957	-20.890021	-35.761859	-3.525060	3.952340	-1.678600	0.911985	-0.137268	0.377013	-1.000000	-1.000000	-1.000000	-1.000000	-1.000000	-1.000000	-1.000000	85.862069	0.000000	-1.000000	-1.000000	158330.000000	1774904251.269838
31355.595000	11541.285000	32650.065000	40261.860000	13452.750000	-53646.390000	-45778.770000	-11824.920000	-10.624725	-5.581253	-9.842942	-7.583676	-6.680838	-7.118102	-10.086471	-16.955375	-4.730600	3.921820	-1.922760	0.913267	-0.136108	0.373229	-1.000000	-1.000000	-1.000000	-1.000000	-1.000000	-1.000000	-1.000000	85.862069	0.000000	-1.000000	-1.000000	158331.000000	1774904251.272645
31361.310000	11555.235000	32656.950000	40263.480000	13453.560000	-53645.760000	-45782.955000	-11836.845000	10.623431	11.883049	6.190734	11.584477	13.340339	12.300724	3.998817	5.804783	-4.730600	3.921820	-1.922760	0.913267	-0.136108	0.373229	-1.000000	-1.000000	-1.000000	-1.000000	-1.000000	-1.000000	-1.000000	85.862069	0.000000	-1.000000	-1.000000	158332.000000	1774904251.272657
31388.085000	11581.470000	32679.180000	40283.280000	13471.920000	-53627.040000	-45784.620000	-11825.190000	22.820360	19.682954	14.694161	20.056541	21.676073	20.736796	13.688104	20.617611	-4.730600	3.921820	-1.922760	0.913267	-0.136108	0.373229	-1.000000	-1.000000	-1.000000	-1.000000	-1.000000	-1.000000	-1.000000	85.862069	0.000000	-1.000000	-1.000000	158333.000000	1774904251.276629
31431.960000	11614.230000	32720.580000	40332.825000	13522.905000	-53576.505000	-45751.995000	-11768.895000	23.320222	17.453465	14.766598	17.307680	18.155666	17.999029	15.354907	23.328220	-4.730600	3.921820	-1.922760	0.913267	-0.136108	0.373229	-1.000000	-1.000000	-1.000000	-1.000000	-1.000000	-1.000000	-1.000000	85.862069	0.000000	-1.000000	-1.000000	158334.000000	1774904251.276640
31438.845000	11623.320000	32735.385000	40350.510000	13541.715000	-53558.595000	-45734.310000	-11760.975000	17.415235	11.243159	12.096786	11.413645	11.406913	12.074561	12.263413	19.187680	-4.730600	3.921820	-1.922760	0.913267	-0.136108	0.373229	-1.000000	-1.000000	-1.000000	-1.000000	-1.000000	-1.000000	-1.000000	85.862069	0.000000	-1.000000	-1.000000	158335.000000	1774904251.280593
31399.920000	11593.980000	32701.770000	40316.580000	13510.710000	-53589.150000	-45744.210000	-11799.810000	10.482873	5.841574	10.446496	8.167039	7.685696	8.666301	9.329980	14.468649	-4.730600	3.921820	-1.922760	0.913267	-0.136108	0.373229	-1.000000	-1.000000	-1.000000	-1.000000	-1.000000	-1.000000	-1.000000	85.862069	0.000000	-1.000000	-1.000000	158336.000000	1774904251.280599
31368.960000	11550.510000	32652.585000	40269.825000	13465.935000	-53634.015000	-45759.285000	-11800.845000	2.522819	0.117552	6.368929	4.358805	4.022458	4.852193	6.686503	9.641100	-4.730600	3.921820	-1.922760	0.913267	-0.136108	0.373229	-1.000000	-1.000000	-1.000000	-1.000000	-1.000000	-1.000000	-1.000000	85.862069	0.000000	-1.000000	-1.000000	158337.000000	1774904251.284896
31380.705000	11551.680000	32655.195000	40269.870000	13462.380000	-53641.170000	-45772.110000	-11803.005000	-8.023193	-8.626780	-4.404400	-5.185766	-4.979880	-4.441019	1.171112	2.131399	-4.730600	3.921820	-1.922760	0.913267	-0.136108	0.373229	-1.000000	-1.000000	-1.000000	-1.000000	-1.000000	-1.000000	-1.000000	85.862069	0.000000	-1.000000	-1.000000	158338.000000	1774904251.284909
31329.495000	11507.490000	32614.335000	40225.455000	13416.300000	-53687.385000	-45801.720000	-11867.355000	-19.594300	-18.700518	-18.947480	-18.615364	-18.104929	-17.873257	-8.115229	-9.673121	-4.730600	3.921820	-1.922760	0.913267	-0.136108	0.373229	-1.000000	-1.000000	-1.000000	-1.000000	-1.000000	-1.000000	-1.000000	85.862069	0.000000	-1.000000	-1.000000	158339.000000	1774904251.288575
31262.985000	11474.910000	32587.965000	40200.705000	13393.530000	-53705.700000	-45811.215000	-11932.200000	-29.367749	-25.586473	-29.568588	-28.944090	-28.740978	-28.785884	-17.834222	-25.104489	-4.730600	3.921820	-1.922760	0.913267	-0.136108	0.373229	-1.000000	-1.000000	-1.000000	-1.000000	-1.000000	-1.000000	-1.000000	85.862069	0.000000	-1.000000	-1.000000	158340.000000	1774904251.288586
31304.295000	11519.550000	32631.075000	40240.395000	13430.025000	-53670.150000	-45793.890000	-11883.780000	-33.908330	-25.373892	-29.934333	-29.790963	-30.213490	-30.335697	-22.300781	-37.758972	-5.524120	3.097780	-2.975700	0.914060	-0.134765	0.369262	-1.000000	-1.000000	-1.000000	-1.000000	-1.000000	-1.000000	-1.000000	85.862069	0.000000	-1.000000	-1.000000	158341.000000	1774904251.292851
31387.410000	11572.380000	32682.690000	40284.720000	13472.460000	-53629.740000	-45774.405000	-11799.090000	-26.810521	-15.026982	-17.226366	-17.920701	-18.815356	-18.832131	-17.293992	-35.857893	-5.524120	3.097780	-2.975700	0.914060	-0.134765	0.369262	-1.000000	-1.000000	-1.000000	-1.000000	-1.000000	-1.000000	-1.000000	85.862069	0.000000	-1.000000	-1.000000	158342.000000	1774904251.292858
31405.770000	11588.040000	32697.810000	40301.010000	13494.735000	-53609.535000	-45765.045000	-11786.535000	-4.657194	4.546971	5.360782	3.707019	2.744949	2.689466	-4.053402	-13.981532	-5.524120	3.097780	-2.975700	0.914060	-0.134765	0.369262	-1.000000	-1.000000	-1.000000	-1.000000	-1.000000	-1.000000	-1.000000	85.862069	0.000000	-1.000000	-1.000000	158343.000000	1774904251.298884
31368.105000	11563.695000	32676.570000	40275.585000	13470.975000	-53633.340000	-45780.615000	-11827.170000	24.261229	25.222954	27.603190	25.229980	24.732637	24.328970	10.725931	17.744864	-5.524120	3.097780	-2.975700	0.914060	-0.134765	0.369262	-1.000000	-1.000000	-1.000000	-1.000000	-1.000000	-1.000000	-1.000000	85.862069	0.000000	-1.000000	-1.000000	158344.000000	1774904251.298908
31321.395000	11523.105000	32633.640000	40229.730000	13428.855000	-53671.320000	-45801.405000	-11862.180000	44.023654	35.976652	38.023318	35.712508	36.091048	35.352719	19.548054	41.107512	-5.524120	3.097780	-2.975700	0.914060	-0.134765	0.369262	-1.000000	-1.000000	-1.000000	-1.000000	-1.000000	-1.000000	-1.000000	85.862069	0.000000	-1.000000	-1.000000	158345.000000	1774904251.300624
31329.585000	11524.185000	32618.070000	40228.110000	13430.655000	-53668.485000	-45792.405000	-11853.000000	43.927311	31.246532	31.634688	30.560135	31.823961	31.271150	19.117364	44.138809	-5.524120	3.097780	-2.975700	0.914060	-0.134765	0.369262	-1.000000	-1.000000	-1.000000	-1.000000	-1.000000	-1.000000	-1.000000	85.862069	0.000000	-1.000000	-1.000000	158346.000000	1774904251.300637
31339.710000	11523.780000	32612.265000	40251.330000	13449.825000	-53651.025000	-45782.190000	-11857.455000	25.983954	14.788588	12.763803	14.558727	16.300733	16.525609	12.095514	28.117030	-5.524120	3.097780	-2.975700	0.914060	-0.134765	0.369262	-1.000000	-1.000000	-1.000000	-1.000000	-1.000000	-1.000000	-1.000000	85.862069	0.000000	-1.000000	-1.000000	158347.000000	1774904251.304732
31339.125000	11530.620000	32648.805000	40264.245000	13455.090000	-53646.570000	-45780.480000	-11856.645000	2.135943	-3.529684	-7.400878	-1.714000	-0.345601	0.647972	4.137392	4.748633	-5.524120	3.097780	-2.975700	0.914060	-0.134765	0.369262	-1.000000	-1.000000	-1.000000	-1.000000	-1.000000	-1.000000	-1.000000	85.862069	0.000000	-1.000000	-1.000000	158348.000000	1774904251.304748
31362.030000	11552.580000	32672.250000	40282.875000	13476.420000	-53625.555000	-45767.115000	-11821.500000	-14.899922	-14.797811	-17.813877	-10.215058	-10.223053	-9.197205	-1.037497	-12.553483	-5.524120	3.097780	-2.975700	0.914060	-0.134765	0.369262	-1.000000	-1.000000	-1.000000	-1.000000	-1.000000	-1.000000	-1.000000	85.862069	0.000000	-1.000000	-1.000000	158349.000000	1774904251.308547
31414.770000	11599.335000	32709.105000	40324.860000	13521.960000	-53579.790000	-45744.795000	-11760.570000	-20.018799	-16.581973	-15.968039	-10.759772	-12.303595	-12.045554	-3.306279	-17.563283	-5.524120	3.097780	-2.975700	0.914060	-0.134765	0.369262	-1.000000	-1.000000	-1.000000	-1.000000	-1.000000	-1.000000	-1.000000	85.862069	0.000000	-1.000000	-1.000000	158350.000000	1774904251.308588
31424.580000	11614.860000	32723.280000	40333.770000	13529.790000	-53572.455000	-45742.230000	-11765.475000	-16.972764	-12.400590	-8.249472	-8.299154	-10.355089	-11.021599	-4.396073	-14.101033	-5.524120	3.311420	-2.746800	0.912962	-0.134338	0.367858	-1.000000	-1.000000	-1.000000	-1.000000	-1.000000	-1.000000	-1.000000	85.862069	0.000000	-1.000000	-1.000000	158351.000000	1774904251.312573
31384.710000	11578.905000	32690.835000	40292.955000	13485.060000	-53617.905000	-45765.360000	-11818.530000	-12.529490	-7.430068	-2.424619	-7.542856	-9.026406	-10.121079	-6.049819	-10.387443	-5.524120	3.311420	-2.746800	0.912962	-0.134338	0.367858	-1.000000	-1.000000	-1.000000	-1.000000	-1.000000	-1.000000	-1.000000	85.862069	0.000000	-1.000000	-1.000000	158352.000000	1774904251.312582
31308.885000	11494.350000	32591.880000	40202.145000	13399.020000	-53702.190000	-45805.950000	-11867.265000	-10.497666	-5.580184	-2.684553	-10.458364	-11.117335	-11.991915	-8.842574	-10.588502	-5.524120	3.311420	-2.746800	0.912962	-0.134338	0.367858	-1.000000	-1.000000	-1.000000	-1.000000	-1.000000	-1.000000	-1.000000	85.862069	0.000000	-1.000000	-1.000000	158353.000000	1774904251.316675
31314.105000	11512.845000	32574.645000	40206.510000	13412.475000	-53687.745000	-45797.580000	-11856.465000	-10.109509	-7.079622	-8.311798	-15.000242	-14.946409	-15.238153	-11.284353	-12.143460	-5.524120	3.311420	-2.746800	0.912962	-0.134338	0.367858	-1.000000	-1.000000	-1.000000	-1.000000	-1.000000	-1.000000	-1.000000	85.862069	0.000000	-1.000000	-1.000000	158354.000000	1774904251.316686
31341.510000	11551.500000	32602.275000	40243.455000	13451.580000	-53650.620000	-45783.090000	-11846.295000	-7.743245	-7.153187	-13.051617	-15.264870	-14.356905	-14.095125	-10.403497	-10.112794	-5.524120	3.311420	-2.746800	0.912962	-0.134338	0.367858	-1.000000	-1.000000	-1.000000	-1.000000	-1.000000	-1.000000	-1.000000	85.862069	0.000000	-1.000000	-1.000000	158355.000000	1774904251.321295
31339.080000	11552.220000	32642.280000	40269.420000	13466.475000	-53638.470000	-45779.670000	-11854.620000	-0.876421	-1.061236	-9.354374	-6.626016	-4.841094	-4.329686	-4.592919	-2.597892	-5.524120	3.311420	-2.746800	0.912962	-0.134338	0.367858	-1.000000	-1.000000	-1.000000	-1.000000	-1.000000	-1.000000	-1.000000	85.862069	0.000000	-1.000000	-1.000000	158356.000000	1774904251.321308
31328.910000	11540.070000	32676.210000	40277.295000	13468.005000	-53637.300000	-45776.655000	-11860.470000	8.561906	9.038597	3.837650	8.466830	10.343532	10.703953	4.089827	7.474293	-5.524120	3.311420	-2.746800	0.912962	-0.134338	0.367858	-1.000000	-1.000000	-1.000000	-1.000000	-1.000000	-1.000000	-1.000000	85.862069	0.000000	-1.000000	-1.000000	158357.000000	1774904251.324540
31322.925000	11522.880000	32664.600000	40257.630000	13450.680000	-53651.565000	-45782.865000	-11862.315000	14.738020	15.011182	18.491600	20.873815	21.578238	21.584403	10.864185	13.962310	-5.524120	3.311420	-2.746800	0.912962	-0.134338	0.367858	-1.000000	-1.000000	-1.000000	-1.000000	-1.000000	-1.000000	-1.000000	85.862069	0.000000	-1.000000	-1.000000	158358.000000	1774904251.324547
31336.785000	11516.130000	32673.285000	40262.445000	13452.075000	-53650.710000	-45787.185000	-11862.945000	12.479955	10.459770	23.596299	21.545484	20.452605	20.305373	11.524827	11.696081	-5.524120	3.311420	-2.746800	0.912962	-0.134338	0.367858	-1.000000	-1.000000	-1.000000	-1.000000	-1.000000	-1.000000	-1.000000	85.862069	0.000000	-1.000000	-1.000000	158359.000000	1774904251.328712
31364.280000	11520.405000	32642.505000	40249.980000	13451.130000	-53649.945000	-45795.915000	-11838.420000	3.494301	-2.232229	14.883459	9.922831	7.704269	7.793544	5.931217	2.611585	-5.524120	3.311420	-2.746800	0.912962	-0.134338	0.367858	-1.000000	-1.000000	-1.000000	-1.000000	-1.000000	-1.000000	-1.000000	85.862069	0.000000	-1.000000	-1.000000	158360.000000	1774904251.328720
31405.770000	11564.280000	32655.960000	40272.525000	13480.470000	-53619.345000	-45767.970000	-11778.030000	-2.690596	-11.758260	-0.752168	-4.140613	-5.746059	-5.206864	-0.842619	-2.951880	-5.264700	2.548420	-2.884140	0.912839	-0.133056	0.365478	-1.000000	-1.000000	-1.000000	-1.000000	-1.000000	-1.000000	-1.000000	85.862069	0.000000	-1.000000	-1.000000	158361.000000	1774904251.335401
31431.960000	11615.940000	32730.435000	40338.945000	13536.675000	-53564.670000	-45712.800000	-11745.630000	2.337396	-6.842155	-9.555247	-7.725054	-7.376987	-6.572883	-1.716152	3.746681	-5.264700	2.548420	-2.884140	0.912839	-0.133056	0.365478	-1.000000	-1.000000	-1.000000	-1.000000	-1.000000	-1.000000	-1.000000	85.862069	0.000000	-1.000000	-1.000000	158362.000000	1774904251.335416
31390.605000	11595.060000	32736.690000	40330.080000	13522.185000	-53580.015000	-45726.885000	-11806.605000	14.505585	10.709585	-3.426965	2.484572	4.052204	4.580496	4.869123	17.294305	-5.264700	2.548420	-2.884140	0.912839	-0.133056	0.365478	-1.000000	-1.000000	-1.000000	-1.000000	-1.000000	-1.000000	-1.000000	85.862069	0.000000	-1.000000	-1.000000	158363.000000	1774904251.338145
31334.850000	11547.315000	32675.355000	40272.210000	13462.200000	-53640.225000	-45778.140000	-11867.040000	18.731525	24.298553	9.077934	14.022059	14.751106	14.576452	10.855911	21.206763	-5.264700	2.548420	-2.884140	0.912839	-0.133056	0.365478	-1.000000	-1.000000	-1.000000	-1.000000	-1.000000	-1.000000	-1.000000	85.862069	0.000000	-1.000000	-1.000000	158364.000000	1774904251.338159
31319.775000	11525.535000	32634.585000	40233.105000	13426.200000	-53675.190000	-45807.795000	-11869.605000	5.698349	19.329937	10.476125	10.975805	10.044683	9.293857	6.643998	6.718338	-5.264700	2.548420	-2.884140	0.912839	-0.133056	0.365478	-1.000000	-1.000000	-1.000000	-1.000000	-1.000000	-1.000000	-1.000000	85.862069	0.000000	-1.000000	-1.000000	158365.000000	1774904251.340542
31369.410000	11555.325000	32662.260000	40262.355000	13457.880000	-53644.050000	-45789.120000	-11820.870000	-16.486247	-1.378199	-5.235213	-7.636334	-8.946842	-9.767997	-7.260942	-16.593318	-5.264700	2.548420	-2.884140	0.912839	-0.133056	0.365478	-1.000000	-1.000000	-1.000000	-1.000000	-1.000000	-1.000000	-1.000000	85.862069	0.000000	-1.000000	-1.000000	158366.000000	1774904251.340555
31429.080000	11607.885000	32718.735000	40321.035000	13518.045000	-53584.470000	-45755.010000	-11756.925000	-30.360710	-21.478021	-25.123659	-26.295841	-26.226691	-26.755729	-19.973241	-30.774433	-5.264700	2.548420	-2.884140	0.912839	-0.133056	0.365478	-1.000000	-1.000000	-1.000000	-1.000000	-1.000000	-1.000000	-1.000000	85.862069	0.000000	-1.000000	-1.000000	158367.000000	1774904251.344660
31461.975000	11642.445000	32758.830000	40363.560000	13559.670000	-53543.520000	-45747.495000	-11745.135000	-25.723689	-26.496568	-30.899138	-28.593134	-26.699691	-26.930569	-20.942379	-26.037768	-5.264700	2.548420	-2.884140	0.912839	-0.133056	0.365478	-1.000000	-1.000000	-1.000000	-1.000000	-1.000000	-1.000000	-1.000000	85.862069	0.000000	-1.000000	-1.000000	158368.000000	1774904251.344680
31417.380000	11601.270000	32719.140000	40324.635000	13520.610000	-53582.265000	-45774.405000	-11804.040000	-7.726955	-15.460977	-16.765059	-12.389783	-9.904639	-10.000540	-9.705106	-8.427631	-5.264700	2.548420	-2.884140	0.912839	-0.133056	0.365478	-1.000000	-1.000000	-1.000000	-1.000000	-1.000000	-1.000000	-1.000000	85.862069	0.000000	-1.000000	-1.000000	158369.000000	1774904251.350307
31304.385000	11497.410000	32614.605000	40222.620000	13421.205000	-53679.240000	-45805.725000	-11885.535000	7.860250	-1.143046	5.178022	8.166330	9.416470	9.371428	4.209579	5.769424	-5.264700	2.548420	-2.884140	0.912839	-0.133056	0.365478	-1.000000	-1.000000	-1.000000	-1.000000	-1.000000	-1.000000	-1.000000	85.862069	0.000000	-1.000000	-1.000000	158370.000000	1774904251.350318
31242.420000	11445.120000	32559.120000	40168.260000	13368.780000	-53730.765000	-45808.020000	-11923.785000	8.011634	1.902624	15.832282	15.019822	14.287314	14.406134	10.450140	5.221391	-4.837420	3.021480	-2.945180	0.913450	-0.132202	0.363524	-1.000000	-1.000000	-1.000000	-1.000000	-1.000000	-1.000000	-1.000000	85.862069	0.000000	-1.000000	-1.000000	158371.000000	1774904251.352543
31300.470000	11503.350000	32613.795000	40220.505000	13419.630000	-53681.445000	-45782.820000	-11873.790000	-4.021202	-6.576442	9.086338	4.780732	2.948059	3.404125	7.807542	-4.407724	-4.837420	3.021480	-2.945180	0.913450	-0.132202	0.363524	-1.000000	-1.000000	-1.000000	-1.000000	-1.000000	-1.000000	-1.000000	85.862069	0.000000	-1.000000	-1.000000	158372.000000	1774904251.352551
31355.280000	11542.050000	32652.585000	40257.585000	13456.485000	-53643.780000	-45759.510000	-11812.545000	-10.467204	-11.311034	-1.390271	-6.996044	-8.461820	-7.707373	4.320257	-6.229452	-4.837420	3.021480	-2.945180	0.913450	-0.132202	0.363524	-1.000000	-1.000000	-1.000000	-1.000000	-1.000000	-1.000000	-1.000000	85.862069	0.000000	-1.000000	-1.000000	158373.000000	1774904251.356639
31359.330000	11538.585000	32651.100000	40257.090000	13456.845000	-53643.240000	-45764.595000	-11824.965000	0.405659	-0.816951	-0.482937	-4.908923	-5.182140	-4.420202	6.383334	7.384679	-4.837420	3.021480	-2.945180	0.913450	-0.132202	0.363524	-1.000000	-1.000000	-1.000000	-1.000000	-1.000000	-1.000000	-1.000000	85.862069	0.000000	-1.000000	-1.000000	158374.000000	1774904251.356646
31336.695000	11516.130000	32631.480000	40239.855000	13442.220000	-53656.515000	-45781.515000	-11852.280000	19.632188	17.809309	9.973210	8.438781	9.174037	9.621157	10.668349	24.284065	-4.837420	3.021480	-2.945180	0.913450	-0.132202	0.363524	-1.000000	-1.000000	-1.000000	-1.000000	-1.000000	-1.000000	-1.000000	85.862069	0.000000	-1.000000	-1.000000	158375.000000	1774904251.360639
31353.480000	11521.935000	32632.920000	40239.630000	13438.935000	-53661.060000	-45791.595000	-11835.000000	28.491232	27.868130	16.531804	18.120135	19.057008	19.040381	9.243425	26.877692	-4.837420	3.021480	-2.945180	0.913450	-0.132202	0.363524	-1.000000	-1.000000	-1.000000	-1.000000	-1.000000	-1.000000	-1.000000	85.862069	0.000000	-1.000000	-1.000000	158376.000000	1774904251.360650
31357.395000	11534.400000	32641.830000	40245.705000	13444.695000	-53655.480000	-45792.090000	-11824.470000	19.313271	21.593553	11.627994	14.897992	15.178573	14.739764	0.142479	12.381480	-4.837420	3.021480	-2.945180	0.913450	-0.132202	0.363524	-1.000000	-1.000000	-1.000000	-1.000000	-1.000000	-1.000000	-1.000000	85.862069	0.000000	-1.000000	-1.000000	158377.000000	1774904251.364591
31336.020000	11524.770000	32624.235000	40225.995000	13427.280000	-53671.410000	-45808.020000	-11851.875000	0.981698	6.218302	0.794137	3.442368	2.635299	1.926925	-10.387341	-6.543601	-4.837420	3.021480	-2.945180	0.913450	-0.132202	0.363524	-1.000000	-1.000000	-1.000000	-1.000000	-1.000000	-1.000000	-1.000000	85.862069	0.000000	-1.000000	-1.000000	158378.000000	1774904251.364603
31338.450000	11527.920000	32621.085000	40227.120000	13431.555000	-53666.190000	-45801.090000	-11847.330000	-11.781322	-5.271161	-5.460538	-5.030014	-6.589832	-7.347617	-15.015780	-16.413441	-4.837420	3.021480	-2.945180	0.913450	-0.132202	0.363524	-1.000000	-1.000000	-1.000000	-1.000000	-1.000000	-1.000000	-1.000000	85.862069	0.000000	-1.000000	-1.000000	158379.000000	1774904251.369992
31334.400000	11523.105000	32627.880000	40241.385000	13445.145000	-53655.390000	-45786.420000	-11845.845000	-11.525961	-6.694566	-3.123315	-4.584831	-5.955090	-6.549999	-11.459673	-13.226804	-4.837420	3.021480	-2.945180	0.913450	-0.132202	0.363524	-1.000000	-1.000000	-1.000000	-1.000000	-1.000000	-1.000000	-1.000000	85.862069	0.000000	-1.000000	-1.000000	158380.000000	1774904251.370003
31333.410000	11529.045000	32651.010000	40265.910000	13466.520000	-53635.770000	-45768.330000	-11851.605000	-3.444611	-2.722688	2.752809	1.293021	0.941782	0.592227	-2.494075	-3.258844	-3.631880	4.532220	-2.945180	0.914060	-0.131652	0.361815	-1.000000	-1.000000	-1.000000	-1.000000	-1.000000	-1.000000	-1.000000	85.862069	0.000000	-1.000000	-1.000000	158381.000000	1774904251.372574
31344.435000	11541.960000	32667.165000	40268.655000	13467.960000	-53633.295000	-45769.860000	-11857.905000	1.805138	-1.228963	5.080714	5.206636	5.969557	5.824397	6.762642	3.253098	-3.631880	4.532220	-2.945180	0.914060	-0.131652	0.361815	-1.000000	-1.000000	-1.000000	-1.000000	-1.000000	-1.000000	-1.000000	85.862069	0.000000	-1.000000	-1.000000	158382.000000	1774904251.372597
31363.155000	11551.230000	32663.385000	40266.450000	13467.330000	-53634.375000	-45774.405000	-11838.555000	-0.161810	-4.172908	1.645916	3.142409	4.414001	4.438324	11.620591	1.874394	-3.631880	4.532220	-2.945180	0.914060	-0.131652	0.361815	-1.000000	-1.000000	-1.000000	-1.000000	-1.000000	-1.000000	-1.000000	85.862069	0.000000	-1.000000	-1.000000	158383.000000	1774904251.379134
31360.185000	11538.675000	32645.250000	40254.210000	13455.810000	-53644.455000	-45785.340000	-11814.075000	-5.674951	-8.235253	-5.329001	-3.803033	-2.764697	-2.543292	10.070152	-3.104870	-3.631880	4.532220	-2.945180	0.914060	-0.131652	0.361815	-1.000000	-1.000000	-1.000000	-1.000000	-1.000000	-1.000000	-1.000000	85.862069	0.000000	-1.000000	-1.000000	158384.000000	1774904251.379147
31356.045000	11544.930000	32653.710000	40265.595000	13467.690000	-53631.765000	-45782.955000	-11803.095000	-9.998824	-10.550489	-12.427873	-11.682244	-11.213993	-10.723764	3.643181	-5.583439	-3.631880	4.532220	-2.945180	0.914060	-0.131652	0.361815	-1.000000	-1.000000	-1.000000	-1.000000	-1.000000	-1.000000	-1.000000	85.862069	0.000000	-1.000000	-1.000000	158385.000000	1774904251.380603
31403.430000	11596.545000	32710.905000	40314.060000	13518.630000	-53581.275000	-45741.330000	-11779.290000	-10.082343	-9.276054	-14.968247	-14.977223	-14.943210	-14.176350	-2.940502	-3.183170	-3.631880	4.532220	-2.945180	0.914060	-0.131652	0.361815	-1.000000	-1.000000	-1.000000	-1.000000	-1.000000	-1.000000	-1.000000	85.862069	0.000000	-1.000000	-1.000000	158386.000000	1774904251.380612
31415.670000	11603.520000	32716.575000	40316.715000	13526.685000	-53573.445000	-45722.970000	-11786.670000	-3.213393	-2.333504	-8.284506	-9.011091	-9.076701	-8.271442	-4.416371	3.242798	-3.631880	4.532220	-2.945180	0.914060	-0.131652	0.361815	-1.000000	-1.000000	-1.000000	-1.000000	-1.000000	-1.000000	-1.000000	85.862069	0.000000	-1.000000	-1.000000	158387.000000	1774904251.384686
31376.970000	11546.370000	32644.215000	40262.085000	13470.930000	-53629.515000	-45760.185000	-11820.465000	8.748059	7.910797	4.824319	3.436212	3.527487	3.970166	-0.816230	9.641562	-3.631880	4.532220	-2.945180	0.914060	-0.131652	0.361815	-1.000000	-1.000000	-1.000000	-1.000000	-1.000000	-1.000000	-1.000000	85.862069	0.000000	-1.000000	-1.000000	158388.000000	1774904251.384695
31309.695000	11486.430000	32600.025000	40207.320000	13407.570000	-53691.795000	-45806.625000	-11864.250000	16.179218	12.449894	12.488113	11.042139	11.188806	11.105406	1.006421	9.642670	-3.631880	4.532220	-2.945180	0.914060	-0.131652	0.361815	-1.000000	-1.000000	-1.000000	-1.000000	-1.000000	-1.000000	-1.000000	85.862069	0.000000	-1.000000	-1.000000	158389.000000	1774904251.388665
31322.070000	11510.460000	32632.830000	40227.480000	13425.120000	-53675.145000	-45799.650000	-11862.270000	10.679550	5.295711	6.775748	5.791259	5.517482	5.144568	-4.187606	0.690294	-3.631880	4.532220	-2.945180	0.914060	-0.131652	0.361815	-1.000000	-1.000000	-1.000000	-1.000000	-1.000000	-1.000000	-1.000000	85.862069	0.000000	-1.000000	-1.000000	158390.000000	1774904251.388672
31343.490000	11532.105000	32652.315000	40247.010000	13445.460000	-53655.615000	-45787.680000	-11849.535000	-4.205174	-7.670247	-6.132354	-6.748766	-7.761871	-8.123291	-12.375767	-11.493518	-3.723440	4.349100	-2.884140	0.913938	-0.131897	0.362426	-1.000000	-1.000000	-1.000000	-1.000000	-1.000000	-1.000000	-1.000000	85.862069	0.000000	-1.000000	-1.000000	158391.000000	1774904251.392636
31351.545000	11545.020000	32669.595000	40262.040000	13462.020000	-53640.495000	-45781.245000	-11826.405000	-16.510583	-14.758107	-13.428321	-13.805069	-15.255161	-15.561540	-14.753535	-17.680556	-3.723440	4.349100	-2.884140	0.913938	-0.131897	0.362426	-1.000000	-1.000000	-1.000000	-1.000000	-1.000000	-1.000000	-1.000000	85.862069	0.000000	-1.000000	-1.000000	158392.000000	1774904251.392648
31350.060000	11537.730000	32663.700000	40261.185000	13468.995000	-53631.945000	-45776.520000	-11828.295000	-17.877525	-10.507816	-8.955028	-8.993791	-10.029059	-10.397805	-7.453101	-13.805882	-3.723440	4.349100	-2.884140	0.913938	-0.131897	0.362426	-1.000000	-1.000000	-1.000000	-1.000000	-1.000000	-1.000000	-1.000000	85.862069	0.000000	-1.000000	-1.000000	158393.000000	1774904251.396651
31403.520000	11584.935000	32694.705000	40297.320000	13504.095000	-53598.690000	-45761.355000	-11793.645000	-8.404975	1.233627	2.987199	3.572343	3.835949	3.380906	5.435199	-2.973075	-3.723440	4.349100	-2.884140	0.913938	-0.131897	0.362426	-1.000000	-1.000000	-1.000000	-1.000000	-1.000000	-1.000000	-1.000000	85.862069	0.000000	-1.000000	-1.000000	158394.000000	1774904251.396660
31466.565000	11648.070000	32734.080000	40357.035000	13566.915000	-53537.715000	-45728.325000	-11738.925000	6.969996	13.518464	13.998122	15.956338	17.633905	17.179231	16.305888	9.830093	-3.723440	4.349100	-2.884140	0.913938	-0.131897	0.362426	-1.000000	-1.000000	-1.000000	-1.000000	-1.000000	-1.000000	-1.000000	85.862069	0.000000	-1.000000	-1.000000	158395.000000	1774904251.400644
31454.550000	11638.800000	32712.120000	40333.950000	13545.270000	-53557.245000	-45728.865000	-11765.340000	21.621292	21.604779	18.841826	22.834558	25.024456	24.683320	19.947508	20.548418	-3.723440	4.349100	-2.884140	0.913938	-0.131897	0.362426	-1.000000	-1.000000	-1.000000	-1.000000	-1.000000	-1.000000	-1.000000	85.862069	0.000000	-1.000000	-1.000000	158396.000000	1774904251.400651
31379.580000	11563.425000	32645.565000	40265.415000	13470.390000	-53632.755000	-45767.205000	-11826.900000	27.660981	22.010347	16.057635	21.009385	22.497308	22.449031	15.605506	23.895621	-3.723440	4.349100	-2.884140	0.913938	-0.131897	0.362426	-1.000000	-1.000000	-1.000000	-1.000000	-1.000000	-1.000000	-1.000000	85.862069	0.000000	-1.000000	-1.000000	158397.000000	1774904251.410506
31296.555000	11477.655000	32583.105000	40198.680000	13402.755000	-53697.465000	-45796.815000	-11875.905000	18.800583	11.289432	5.207749	8.399086	8.519729	8.960217	5.312151	15.220196	-3.723440	4.349100	-2.884140	0.913938	-0.131897	0.362426	-1.000000	-1.000000	-1.000000	-1.000000	-1.000000	-1.000000	-1.000000	85.862069	0.000000	-1.000000	-1.000000	158398.000000	1774904251.410529
31313.520000	11509.020000	32621.580000	40225.995000	13431.105000	-53669.115000	-45790.470000	-11860.830000	-3.421550	-9.276144	-11.333523	-11.909714	-12.924703	-11.955000	-7.239560	-3.118938	-3.723440	4.349100	-2.884140	0.913938	-0.131897	0.362426	-1.000000	-1.000000	-1.000000	-1.000000	-1.000000	-1.000000	-1.000000	85.862069	0.000000	-1.000000	-1.000000	158399.000000	1774904251.410607
31309.065000	11510.010000	32653.035000	40239.855000	13442.130000	-53658.585000	-45796.005000	-11860.695000	-27.267046	-29.353388	-24.761589	-29.295735	-30.714340	-29.451078	-16.935072	-21.132885	-3.723440	4.349100	-2.884140	0.913938	-0.131897	0.362426	-1.000000	-1.000000	-1.000000	-1.000000	-1.000000	-1.000000	-1.000000	85.862069	0.000000	-1.000000	-1.000000	158400.000000	1774904251.410619
31302.135000	11512.485000	32659.695000	40248.585000	13449.780000	-53651.430000	-45788.355000	-11862.000000	-38.551679	-36.168534	-25.279696	-32.670525	-34.001016	-32.934855	-19.341898	-28.981873	-3.097780	5.142620	-2.197440	0.913938	-0.132507	0.362365	-1.000000	-1.000000	-1.000000	-1.000000	-1.000000	-1.000000	-1.000000	85.862069	0.000000	-1.000000	-1.000000	158401.000000	1774904251.412741
31358.295000	11558.160000	32674.995000	40279.095000	13484.160000	-53615.565000	-45749.520000	-11804.580000	-30.751899	-25.032196	-11.964660	-19.779732	-20.940322	-20.560953	-13.090070	-23.078218	-3.097780	5.142620	-2.197440	0.913938	-0.132507	0.362365	-1.000000	-1.000000	-1.000000	-1.000000	-1.000000	-1.000000	-1.000000	85.862069	0.000000	-1.000000	-1.000000	158402.000000	1774904251.412752
31426.335000	11604.420000	32687.955000	40306.995000	13515.840000	-53583.525000	-45717.795000	-11748.735000	-7.684518	-1.894642	6.347283	1.643344	0.805187	0.374729	-0.687300	-5.984084	-3.097780	5.142620	-2.197440	0.913938	-0.132507	0.362365	-1.000000	-1.000000	-1.000000	-1.000000	-1.000000	-1.000000	-1.000000	85.862069	0.000000	-1.000000	-1.000000	158403.000000	1774904251.422164
31408.830000	11580.885000	32673.285000	40291.020000	13500.135000	-53600.850000	-45738.180000	-11790.405000	18.771693	20.503530	18.594810	19.526022	19.376697	18.434558	11.391619	13.856083	-3.097780	5.142620	-2.197440	0.913938	-0.132507	0.362365	-1.000000	-1.000000	-1.000000	-1.000000	-1.000000	-1.000000	-1.000000	85.862069	0.000000	-1.000000	-1.000000	158404.000000	1774904251.422185
31340.295000	11520.135000	32643.585000	40243.185000	13448.880000	-53654.265000	-45782.820000	-11860.560000	34.499573	30.348816	19.748152	25.421992	26.089324	24.995162	15.787315	24.892006	-3.097780	5.142620	-2.197440	0.913938	-0.132507	0.362365	-1.000000	-1.000000	-1.000000	-1.000000	-1.000000	-1.000000	-1.000000	85.862069	0.000000	-1.000000	-1.000000	158405.000000	1774904251.422209
31312.530000	11482.380000	32620.815000	40207.725000	13409.865000	-53692.695000	-45807.210000	-11873.790000	32.791665	25.031857	13.154324	19.537275	20.734251	19.673729	10.429847	21.618820	-3.097780	5.142620	-2.197440	0.913938	-0.132507	0.362365	-1.000000	-1.000000	-1.000000	-1.000000	-1.000000	-1.000000	-1.000000	85.862069	0.000000	-1.000000	-1.000000	158406.000000	1774904251.422220
31339.845000	11504.025000	32632.425000	40227.165000	13431.915000	-53669.835000	-45792.765000	-11838.195000	18.907376	11.732602	5.159581	8.479291	9.796007	8.911141	0.485415	9.672658	-3.097780	5.142620	-2.197440	0.913938	-0.132507	0.362365	-1.000000	-1.000000	-1.000000	-1.000000	-1.000000	-1.000000	-1.000000	85.862069	0.000000	-1.000000	-1.000000	158407.000000	1774904251.424606
31350.375000	11522.070000	32642.370000	40241.835000	13447.980000	-53653.590000	-45784.890000	-11835.180000	3.069575	-0.535591	-1.166283	-1.152239	-0.000974	-0.485743	-6.697729	-1.238865	-3.097780	5.142620	-2.197440	0.913938	-0.132507	0.362365	-1.000000	-1.000000	-1.000000	-1.000000	-1.000000	-1.000000	-1.000000	85.862069	0.000000	-1.000000	-1.000000	158408.000000	1774904251.424618
31354.110000	11525.355000	32645.205000	40245.525000	13451.220000	-53651.520000	-45785.160000	-11834.055000	-8.295165	-7.445063	-6.200524	-6.682968	-5.836471	-5.719252	-7.505041	-6.645604	-3.097780	5.142620	-2.197440	0.913938	-0.132507	0.362365	-1.000000	-1.000000	-1.000000	-1.000000	-1.000000	-1.000000	-1.000000	85.862069	0.000000	-1.000000	-1.000000	158409.000000	1774904251.432974
31360.995000	11535.615000	32660.955000	40263.300000	13468.320000	-53634.420000	-45777.285000	-11831.850000	-13.796021	-9.224391	-9.810490	-8.419635	-8.036531	-7.350394	-3.562633	-7.950245	-3.097780	5.142620	-2.197440	0.913938	-0.132507	0.362365	-1.000000	-1.000000	-1.000000	-1.000000	-1.000000	-1.000000	-1.000000	85.862069	0.000000	-1.000000	-1.000000	158410.000000	1774904251.433001
31361.355000	11544.030000	32669.235000	40272.210000	13477.185000	-53625.960000	-45776.295000	-11844.180000	-15.607296	-8.720187	-10.497874	-7.808382	-8.172688	-7.234482	0.543976	-8.820841	-1.464960	5.020540	-1.663340	0.913938	-0.135742	0.363830	-1.000000	-1.000000	-1.000000	-1.000000	-1.000000	-1.000000	-1.000000	85.862069	0.000000	-1.000000	-1.000000	158411.000000	1774904251.433029
31357.125000	11551.230000	32668.695000	40270.995000	13477.680000	-53626.140000	-45771.660000	-11852.055000	-17.127270	-8.975109	-7.979203	-6.763239	-8.043798	-7.248686	1.192725	-11.767174	-1.464960	5.020540	-1.663340	0.913938	-0.135742	0.363830	-1.000000	-1.000000	-1.000000	-1.000000	-1.000000	-1.000000	-1.000000	85.862069	0.000000	-1.000000	-1.000000	158412.000000	1774904251.433041
31350.150000	11561.220000	32673.960000	40275.270000	13484.295000	-53619.030000	-45759.690000	-11832.975000	-17.636823	-9.049262	-3.149569	-5.480186	-7.319690	-6.878958	-0.569382	-13.536348	-1.464960	5.020540	-1.663340	0.913938	-0.135742	0.363830	-1.000000	-1.000000	-1.000000	-1.000000	-1.000000	-1.000000	-1.000000	85.862069	0.000000	-1.000000	-1.000000	158413.000000	1774904251.436584
31362.795000	11573.235000	32688.180000	40290.030000	13499.145000	-53603.100000	-45739.080000	-11810.430000	-11.398781	-3.993894	3.858944	-1.128467	-2.564742	-2.399223	0.267749	-6.637018	-1.464960	5.020540	-1.663340	0.913938	-0.135742	0.363830	-1.000000	-1.000000	-1.000000	-1.000000	-1.000000	-1.000000	-1.000000	85.862069	0.000000	-1.000000	-1.000000	158414.000000	1774904251.436598
31436.460000	11622.870000	32737.860000	40339.305000	13546.755000	-53557.605000	-45717.165000	-11748.330000	4.967089	8.381972	12.650288	8.248098	8.170236	8.236188	6.435816	10.563223	-1.464960	5.020540	-1.663340	0.913938	-0.135742	0.363830	-1.000000	-1.000000	-1.000000	-1.000000	-1.000000	-1.000000	-1.000000	85.862069	0.000000	-1.000000	-1.000000	158415.000000	1774904251.440652
31462.335000	11624.985000	32739.930000	40341.195000	13546.935000	-53558.460000	-45738.540000	-11748.555000	25.628500	21.876767	19.595823	18.490420	19.810736	19.748547	13.483313	28.590219	-1.464960	5.020540	-1.663340	0.913938	-0.135742	0.363830	-1.000000	-1.000000	-1.000000	-1.000000	-1.000000	-1.000000	-1.000000	85.862069	0.000000	-1.000000	-1.000000	158416.000000	1774904251.440663
31406.445000	11550.600000	32664.780000	40265.100000	13470.570000	-53631.540000	-45785.385000	-11812.950000	36.982192	24.535815	17.514008	19.864678	21.594579	21.287636	12.940622	33.174632	-1.464960	5.020540	-1.663340	0.913938	-0.135742	0.363830	-1.000000	-1.000000	-1.000000	-1.000000	-1.000000	-1.000000	-1.000000	85.862069	0.000000	-1.000000	-1.000000	158417.000000	1774904251.444563
31311.270000	11469.735000	32586.030000	40186.845000	13392.180000	-53707.725000	-45821.880000	-11877.345000	27.120872	8.597029	1.268691	5.130149	6.134384	5.759132	0.886819	16.576956	-1.464960	5.020540	-1.663340	0.913938	-0.135742	0.363830	-1.000000	-1.000000	-1.000000	-1.000000	-1.000000	-1.000000	-1.000000	85.862069	0.000000	-1.000000	-1.000000	158418.000000	1774904251.444569
31303.125000	11482.965000	32596.110000	40203.720000	13413.195000	-53686.620000	-45796.095000	-11864.655000	-3.026596	-20.191967	-23.944998	-20.952750	-21.096953	-21.155913	-16.859634	-14.380245	-1.464960	5.020540	-1.663340	0.913938	-0.135742	0.363830	-1.000000	-1.000000	-1.000000	-1.000000	-1.000000	-1.000000	-1.000000	85.862069	0.000000	-1.000000	-1.000000	158419.000000	1774904251.450648
31325.625000	11506.095000	32597.820000	40216.995000	13439.655000	-53659.170000	-45779.805000	-11840.265000	-36.630194	-43.834136	-42.556593	-41.723115	-42.445921	-42.039760	-28.287617	-40.843470	-1.464960	5.020540	-1.663340	0.913938	-0.135742	0.363830	-1.000000	-1.000000	-1.000000	-1.000000	-1.000000	-1.000000	-1.000000	85.862069	0.000000	-1.000000	-1.000000	158420.000000	1774904251.450658
31358.610000	11536.335000	32627.880000	40245.615000	13464.630000	-53635.410000	-45784.215000	-11824.290000	-51.616518	-45.285341	-40.366316	-41.344047	-41.583748	-40.953661	-25.104137	-45.497756	-1.785420	4.822160	-1.938020	0.914854	-0.136413	0.364989	-1.000000	-1.000000	-1.000000	-1.000000	-1.000000	-1.000000	-1.000000	85.862069	0.000000	-1.000000	-1.000000	158421.000000	1774904251.453635
31420.125000	11607.885000	32728.410000	40328.055000	13529.925000	-53572.005000	-45753.570000	-11776.545000	-36.513582	-20.698436	-14.782067	-16.569033	-16.125765	-15.743088	-8.847549	-24.996559	-1.785420	4.822160	-1.938020	0.914854	-0.136413	0.364989	-1.000000	-1.000000	-1.000000	-1.000000	-1.000000	-1.000000	-1.000000	85.862069	0.000000	-1.000000	-1.000000	158422.000000	1774904251.453651
31456.035000	11655.180000	32791.365000	40380.435000	13580.235000	-53522.145000	-45706.905000	-11744.955000	1.323578	18.796319	24.117548	21.845644	21.781271	21.493639	12.331916	8.934390	-1.785420	4.822160	-1.938020	0.914854	-0.136413	0.364989	-1.000000	-1.000000	-1.000000	-1.000000	-1.000000	-1.000000	-1.000000	85.862069	0.000000	-1.000000	-1.000000	158423.000000	1774904251.456635
31432.095000	11617.560000	32749.110000	40346.190000	13545.945000	-53556.525000	-45710.730000	-11760.345000	38.717025	51.752050	56.054731	53.224145	51.573151	50.581584	28.850812	36.698904	-1.785420	4.822160	-1.938020	0.914854	-0.136413	0.364989	-1.000000	-1.000000	-1.000000	-1.000000	-1.000000	-1.000000	-1.000000	85.862069	0.000000	-1.000000	-1.000000	158424.000000	1774904251.456646
31364.280000	11519.280000	32641.560000	40241.340000	13444.965000	-53655.615000	-45763.740000	-11791.530000	51.485498	57.214350	59.679746	57.085350	54.379148	53.148927	32.589618	42.769004	-1.785420	4.822160	-1.938020	0.914854	-0.136413	0.364989	-1.000000	-1.000000	-1.000000	-1.000000	-1.000000	-1.000000	-1.000000	85.862069	0.000000	-1.000000	-1.000000	158425.000000	1774904251.460481
31306.860000	11464.830000	32578.650000	40179.420000	13389.705000	-53704.710000	-45799.155000	-11860.065000	33.096108	30.762431	29.786211	28.977861	27.056338	26.289939	20.997324	26.104758	-1.785420	4.822160	-1.938020	0.914854	-0.136413	0.364989	-1.000000	-1.000000	-1.000000	-1.000000	-1.000000	-1.000000	-1.000000	85.862069	0.000000	-1.000000	-1.000000	158426.000000	1774904251.460492
31299.480000	11480.535000	32587.650000	40191.255000	13402.035000	-53692.155000	-45801.135000	-11889.585000	-1.136095	-10.000474	-15.390152	-13.594122	-13.071328	-12.853121	-0.011145	-1.512823	-1.785420	4.822160	-1.938020	0.914854	-0.136413	0.364989	-1.000000	-1.000000	-1.000000	-1.000000	-1.000000	-1.000000	-1.000000	85.862069	0.000000	-1.000000	-1.000000	158427.000000	1774904251.464886
31323.015000	11518.065000	32626.530000	40225.905000	13432.680000	-53664.930000	-45791.595000	-11880.180000	-28.492206	-39.691937	-48.102210	-44.631282	-41.705653	-40.593419	-19.638979	-25.301056	-1.785420	4.822160	-1.938020	0.914854	-0.136413	0.364989	-1.000000	-1.000000	-1.000000	-1.000000	-1.000000	-1.000000	-1.000000	85.862069	0.000000	-1.000000	-1.000000	158428.000000	1774904251.464895
31370.220000	11557.845000	32683.680000	40284.135000	13493.430000	-53607.105000	-45747.585000	-11821.230000	-35.167485	-43.778411	-51.055525	-48.128901	-44.747998	-43.536195	-28.414757	-34.115300	-1.785420	4.822160	-1.938020	0.914854	-0.136413	0.364989	-1.000000	-1.000000	-1.000000	-1.000000	-1.000000	-1.000000	-1.000000	85.862069	0.000000	-1.000000	-1.000000	158429.000000	1774904251.468587
31408.335000	11579.895000	32686.290000	40303.710000	13513.140000	-53588.970000	-45729.045000	-11768.400000	-21.408105	-25.039532	-27.027075	-26.059704	-24.277911	-23.889611	-22.303596	-23.771385	-1.785420	4.822160	-1.938020	0.914854	-0.136413	0.364989	-1.000000	-1.000000	-1.000000	-1.000000	-1.000000	-1.000000	-1.000000	85.862069	0.000000	-1.000000	-1.000000	158430.000000	1774904251.468640
31384.350000	11556.945000	32674.320000	40288.320000	13491.990000	-53611.110000	-45755.685000	-11801.565000	1.139118	1.107516	4.349815	4.448885	4.303187	3.558962	-6.300013	-1.141111	-2.578940	4.791640	-1.022420	0.915098	-0.135620	0.367064	-1.000000	-1.000000	-1.000000	-1.000000	-1.000000	-1.000000	-1.000000	85.862069	0.000000	-1.000000	-1.000000	158431.000000	1774904251.484212
31336.695000	11526.480000	32656.230000	40253.535000	13456.080000	-53647.335000	-45790.740000	-11868.840000	16.295497	17.381419	22.006734	23.097374	22.067138	20.669300	7.267021	17.172845	-2.578940	4.791640	-1.022420	0.915098	-0.135620	0.367064	-1.000000	-1.000000	-1.000000	-1.000000	-1.000000	-1.000000	-1.000000	85.862069	0.000000	-1.000000	-1.000000	158432.000000	1774904251.484226
31325.535000	11517.795000	32646.240000	40241.745000	13446.360000	-53653.725000	-45796.320000	-11887.200000	15.353367	17.453049	20.416256	22.114051	21.179496	20.016462	10.037071	18.433353	-2.578940	4.791640	-1.022420	0.915098	-0.135620	0.367064	-1.000000	-1.000000	-1.000000	-1.000000	-1.000000	-1.000000	-1.000000	85.862069	0.000000	-1.000000	-1.000000	158433.000000	1774904251.484241
31343.670000	11525.895000	32650.425000	40250.610000	13457.565000	-53640.630000	-45779.715000	-11853.495000	4.935337	9.840139	10.923088	11.099329	10.580963	10.382510	5.898573	6.908799	-2.578940	4.791640	-1.022420	0.915098	-0.135620	0.367064	-1.000000	-1.000000	-1.000000	-1.000000	-1.000000	-1.000000	-1.000000	85.862069	0.000000	-1.000000	-1.000000	158434.000000	1774904251.484288
31350.330000	11528.010000	32650.110000	40251.195000	13459.680000	-53638.605000	-45767.340000	-11836.035000	-1.046287	6.478331	6.837132	4.429795	4.153272	4.984042	4.297550	-1.573322	-2.578940	4.791640	-1.022420	0.915098	-0.135620	0.367064	-1.000000	-1.000000	-1.000000	-1.000000	-1.000000	-1.000000	-1.000000	85.862069	0.000000	-1.000000	-1.000000	158435.000000	1774904251.484295
31340.385000	11520.855000	32645.430000	40240.620000	13449.510000	-53649.945000	-45775.845000	-11831.580000	2.655192	8.872176	9.500014	5.387811	5.064652	6.323558	7.932692	1.968013	-2.578940	4.791640	-1.022420	0.915098	-0.135620	0.367064	-1.000000	-1.000000	-1.000000	-1.000000	-1.000000	-1.000000	-1.000000	85.862069	0.000000	-1.000000	-1.000000	158436.000000	1774904251.484300
31348.620000	11527.605000	32653.530000	40246.335000	13456.125000	-53644.005000	-45774.855000	-11817.315000	8.664403	9.020976	10.210350	6.038731	5.567555	6.569203	10.906225	11.336204	-2.578940	4.791640	-1.022420	0.915098	-0.135620	0.367064	-1.000000	-1.000000	-1.000000	-1.000000	-1.000000	-1.000000	-1.000000	85.862069	0.000000	-1.000000	-1.000000	158437.000000	1774904251.484560
31366.575000	11549.430000	32666.445000	40259.205000	13468.545000	-53631.495000	-45762.075000	-11803.005000	7.797609	1.555698	2.697366	-0.211152	-0.743985	-0.268098	7.331143	14.411551	-2.578940	4.791640	-1.022420	0.915098	-0.135620	0.367064	-1.000000	-1.000000	-1.000000	-1.000000	-1.000000	-1.000000	-1.000000	85.862069	0.000000	-1.000000	-1.000000	158438.000000	1774904251.484572
31412.205000	11592.045000	32698.530000	40304.115000	13512.915000	-53588.520000	-45729.270000	-11767.635000	-0.630326	-9.585832	-9.869290	-10.694911	-11.039446	-10.960023	-1.524355	6.191484	-2.578940	4.791640	-1.022420	0.915098	-0.135620	0.367064	-1.000000	-1.000000	-1.000000	-1.000000	-1.000000	-1.000000	-1.000000	85.862069	0.000000	-1.000000	-1.000000	158439.000000	1774904251.489387
31414.230000	11590.785000	32703.255000	40316.175000	13524.255000	-53577.765000	-45730.845000	-11769.120000	-9.234607	-15.868161	-18.837187	-16.793954	-16.550507	-16.659537	-8.872584	-7.163004	-2.578940	4.791640	-1.022420	0.915098	-0.135620	0.367064	-1.000000	-1.000000	-1.000000	-1.000000	-1.000000	-1.000000	-1.000000	85.862069	0.000000	-1.000000	-1.000000	158440.000000	1774904251.489399
31372.470000	11562.345000	32676.840000	40284.405000	13492.620000	-53611.695000	-45777.870000	-11822.355000	-11.472193	-13.139540	-18.571416	-13.222976	-12.212724	-12.467208	-10.257912	-16.048640	-2.655240	3.937080	-1.938020	0.913633	-0.134826	0.370421	-1.000000	-1.000000	-1.000000	-1.000000	-1.000000	-1.000000	-1.000000	85.862069	0.000000	-1.000000	-1.000000	158441.000000	1774904251.492405
31328.910000	11527.290000	32634.360000	40245.570000	13458.465000	-53644.545000	-45798.390000	-11851.875000	-8.337989	-4.894441	-10.576787	-3.222275	-1.820349	-2.353822	-7.619470	-17.395485	-2.655240	3.937080	-1.938020	0.913633	-0.134826	0.370421	-1.000000	-1.000000	-1.000000	-1.000000	-1.000000	-1.000000	-1.000000	85.862069	0.000000	-1.000000	-1.000000	158442.000000	1774904251.492412
31329.900000	11543.265000	32641.875000	40255.695000	13472.235000	-53626.995000	-45771.345000	-11839.545000	-4.773145	2.812934	-0.314408	5.965211	7.092114	6.233448	-4.512884	-14.048853	-2.655240	3.937080	-1.938020	0.913633	-0.134826	0.370421	-1.000000	-1.000000	-1.000000	-1.000000	-1.000000	-1.000000	-1.000000	85.862069	0.000000	-1.000000	-1.000000	158443.000000	1774904251.496579
31330.080000	11525.850000	32627.070000	40241.745000	13451.535000	-53648.055000	-45776.610000	-11860.650000	-2.676237	6.668653	7.616130	9.921987	10.195256	9.325819	-1.560016	-8.585510	-2.655240	3.937080	-1.938020	0.913633	-0.134826	0.370421	-1.000000	-1.000000	-1.000000	-1.000000	-1.000000	-1.000000	-1.000000	85.862069	0.000000	-1.000000	-1.000000	158444.000000	1774904251.496588
31335.300000	11509.920000	32627.160000	40246.425000	13454.820000	-53646.480000	-45773.865000	-11857.230000	-0.714826	5.756548	10.624315	8.166475	7.199843	6.813701	1.536797	-2.502307	-2.655240	3.937080	-1.938020	0.913633	-0.134826	0.370421	-1.000000	-1.000000	-1.000000	-1.000000	-1.000000	-1.000000	-1.000000	85.862069	0.000000	-1.000000	-1.000000	158445.000000	1774904251.501760
31379.310000	11528.460000	32641.785000	40252.230000	13467.420000	-53634.240000	-45772.920000	-11806.200000	2.192337	0.786371	8.255955	2.540823	0.473771	0.802218	3.747906	3.100561	-2.655240	3.937080	-1.938020	0.913633	-0.134826	0.370421	-1.000000	-1.000000	-1.000000	-1.000000	-1.000000	-1.000000	-1.000000	85.862069	0.000000	-1.000000	-1.000000	158446.000000	1774904251.501775
31397.580000	11544.705000	32673.600000	40262.040000	13469.715000	-53634.690000	-45789.750000	-11809.980000	5.580266	-5.064366	3.007905	-3.978848	-6.231129	-5.397534	3.407311	7.736915	-2.655240	3.937080	-1.938020	0.913633	-0.134826	0.370421	-1.000000	-1.000000	-1.000000	-1.000000	-1.000000	-1.000000	-1.000000	85.862069	0.000000	-1.000000	-1.000000	158447.000000	1774904251.508384
31397.220000	11556.360000	32701.860000	40286.520000	13491.270000	-53611.965000	-45770.355000	-11810.340000	7.410871	-7.925891	-1.075343	-8.416203	-9.812942	-8.933427	0.176232	10.004587	-2.655240	3.937080	-1.938020	0.913633	-0.134826	0.370421	-1.000000	-1.000000	-1.000000	-1.000000	-1.000000	-1.000000	-1.000000	85.862069	0.000000	-1.000000	-1.000000	158448.000000	1774904251.508396
31393.935000	11559.420000	32692.230000	40287.285000	13497.255000	-53604.720000	-45745.155000	-11793.735000	6.207773	-5.578722	-1.473203	-8.206577	-8.256356	-7.656878	-2.553090	9.425455	-2.655240	3.937080	-1.938020	0.913633	-0.134826	0.370421	-1.000000	-1.000000	-1.000000	-1.000000	-1.000000	-1.000000	-1.000000	85.862069	0.000000	-1.000000	-1.000000	158449.000000	1774904251.508530
31371.795000	11551.455000	32680.530000	40279.455000	13490.055000	-53611.425000	-45740.340000	-11788.245000	3.517585	1.849729	1.437400	-2.212878	-0.942945	-0.636412	0.169570	8.919032	-2.655240	3.937080	-1.938020	0.913633	-0.134826	0.370421	-1.000000	-1.000000	-1.000000	-1.000000	-1.000000	-1.000000	-1.000000	85.862069	0.000000	-1.000000	-1.000000	158450.000000	1774904251.508537
31412.205000	11585.025000	32715.585000	40315.590000	13525.650000	-53577.180000	-45725.040000	-11753.730000	2.338037	11.590659	5.885660	7.791066	9.814246	9.864987	8.163571	10.684331	-1.373400	2.945180	-2.212700	0.912229	-0.136047	0.373961	-1.000000	-1.000000	-1.000000	-1.000000	-1.000000	-1.000000	-1.000000	85.862069	0.000000	-1.000000	-1.000000	158451.000000	1774904251.513525
31473.990000	11632.140000	32761.665000	40363.695000	13574.070000	-53529.345000	-45697.275000	-11721.015000	4.562419	19.446072	10.358131	17.693891	19.455628	19.086736	15.107921	12.826490	-1.373400	2.945180	-2.212700	0.912229	-0.136047	0.373961	-1.000000	-1.000000	-1.000000	-1.000000	-1.000000	-1.000000	-1.000000	85.862069	0.000000	-1.000000	-1.000000	158452.000000	1774904251.513534
31487.670000	11656.710000	32787.405000	40390.245000	13598.460000	-53506.485000	-45677.880000	-11713.590000	9.141104	22.015197	13.114762	22.925685	23.684856	22.770465	15.301018	11.841345	-1.373400	2.945180	-2.212700	0.912229	-0.136047	0.373961	-1.000000	-1.000000	-1.000000	-1.000000	-1.000000	-1.000000	-1.000000	85.862069	0.000000	-1.000000	-1.000000	158453.000000	1774904251.516410
31415.805000	11596.860000	32722.740000	40323.735000	13529.655000	-53575.560000	-45718.290000	-11757.555000	9.958339	16.508645	10.479456	18.855566	18.547366	17.356167	7.576698	4.486016	-1.373400	2.945180	-2.212700	0.912229	-0.136047	0.373961	-1.000000	-1.000000	-1.000000	-1.000000	-1.000000	-1.000000	-1.000000	85.862069	0.000000	-1.000000	-1.000000	158454.000000	1774904251.516421
31349.565000	11533.050000	32656.860000	40264.380000	13472.595000	-53632.890000	-45758.430000	-11829.465000	-1.036464	0.216162	-2.261340	2.091304	1.049474	0.170367	-6.382518	-11.507114	-1.373400	2.945180	-2.212700	0.912229	-0.136047	0.373961	-1.000000	-1.000000	-1.000000	-1.000000	-1.000000	-1.000000	-1.000000	85.862069	0.000000	-1.000000	-1.000000	158455.000000	1774904251.520732
31285.350000	11464.020000	32582.340000	40191.345000	13408.110000	-53693.820000	-45805.770000	-11925.675000	-23.896083	-24.995126	-24.792114	-24.422456	-25.423431	-25.428687	-22.460627	-33.546373	-1.373400	2.945180	-2.212700	0.912229	-0.136047	0.373961	-1.000000	-1.000000	-1.000000	-1.000000	-1.000000	-1.000000	-1.000000	85.862069	0.000000	-1.000000	-1.000000	158456.000000	1774904251.520754
31294.665000	11474.505000	32591.430000	40191.165000	13408.515000	-53692.335000	-45811.620000	-11928.195000	-45.534543	-47.937951	-46.646966	-48.670795	-48.503397	-47.419734	-33.891784	-51.100466	-1.373400	2.945180	-2.212700	0.912229	-0.136047	0.373961	-1.000000	-1.000000	-1.000000	-1.000000	-1.000000	-1.000000	-1.000000	85.862069	0.000000	-1.000000	-1.000000	158457.000000	1774904251.524665
31308.030000	11492.145000	32612.445000	40208.355000	13420.980000	-53681.355000	-45807.660000	-11897.415000	-47.932472	-52.544080	-51.103348	-54.602177	-52.958255	-51.168099	-33.694985	-49.909526	-1.373400	2.945180	-2.212700	0.912229	-0.136047	0.373961	-1.000000	-1.000000	-1.000000	-1.000000	-1.000000	-1.000000	-1.000000	85.862069	0.000000	-1.000000	-1.000000	158458.000000	1774904251.524688
31343.625000	11509.830000	32627.430000	40225.140000	13436.010000	-53666.505000	-45794.160000	-11837.295000	-23.333627	-30.924987	-28.749152	-33.715083	-31.840480	-30.245420	-19.032774	-23.076050	-1.373400	2.945180	-2.212700	0.912229	-0.136047	0.373961	-1.000000	-1.000000	-1.000000	-1.000000	-1.000000	-1.000000	-1.000000	85.862069	0.000000	-1.000000	-1.000000	158459.000000	1774904251.530411
31353.795000	11504.070000	32629.320000	40233.195000	13445.235000	-53656.200000	-45786.645000	-11811.195000	17.149948	7.176336	11.143716	5.326107	5.728792	6.284531	4.920212	20.009770	-1.373400	2.945180	-2.212700	0.912229	-0.136047	0.373961	-1.000000	-1.000000	-1.000000	-1.000000	-1.000000	-1.000000	-1.000000	85.862069	0.000000	-1.000000	-1.000000	158460.000000	1774904251.530421
31344.075000	11495.610000	32634.495000	40243.995000	13457.835000	-53645.805000	-45780.930000	-11817.540000	50.262546	40.237962	46.205221	41.377546	39.768248	39.063476	26.725661	57.380412	0.244160	3.067260	-1.602300	0.912717	-0.136108	0.374755	-1.000000	-1.000000	-1.000000	-1.000000	-1.000000	-1.000000	-1.000000	85.862069	0.000000	-1.000000	-1.000000	158461.000000	1774904251.532590
31364.910000	11526.030000	32662.260000	40269.960000	13485.060000	-53618.445000	-45760.365000	-11802.690000	58.668343	52.238140	59.148209	57.266898	54.676342	53.157307	36.772461	69.803642	0.244160	3.067260	-1.602300	0.912717	-0.136108	0.374755	-1.000000	-1.000000	-1.000000	-1.000000	-1.000000	-1.000000	-1.000000	85.862069	0.000000	-1.000000	-1.000000	158462.000000	1774904251.532603
31424.040000	11601.180000	32725.035000	40330.575000	13544.730000	-53561.070000	-45712.665000	-11746.755000	44.039802	44.485152	49.968710	51.584317	49.616547	48.028419	34.265767	54.691780	0.244160	3.067260	-1.602300	0.912717	-0.136108	0.374755	-1.000000	-1.000000	-1.000000	-1.000000	-1.000000	-1.000000	-1.000000	85.862069	0.000000	-1.000000	-1.000000	158463.000000	1774904251.542122
31433.355000	11617.020000	32726.520000	40328.910000	13542.795000	-53563.770000	-45708.570000	-11755.485000	21.361940	29.666358	30.803824	34.658280	34.192808	33.119111	25.327159	25.438639	0.244160	3.067260	-1.602300	0.912717	-0.136108	0.374755	-1.000000	-1.000000	-1.000000	-1.000000	-1.000000	-1.000000	-1.000000	85.862069	0.000000	-1.000000	-1.000000	158464.000000	1774904251.542135
31376.250000	11557.710000	32670.765000	40273.785000	13488.570000	-53616.330000	-45754.065000	-11819.430000	1.879817	15.592975	10.810447	14.822425	15.583158	15.202957	14.184500	-3.026199	0.244160	3.067260	-1.602300	0.912717	-0.136108	0.374755	-1.000000	-1.000000	-1.000000	-1.000000	-1.000000	-1.000000	-1.000000	85.862069	0.000000	-1.000000	-1.000000	158465.000000	1774904251.542149
31323.735000	11495.610000	32613.435000	40216.275000	13432.185000	-53671.275000	-45794.835000	-11854.890000	-14.417694	-0.845601	-9.963952	-7.288878	-6.153792	-5.931017	-0.381387	-25.245907	0.244160	3.067260	-1.602300	0.912717	-0.136108	0.374755	-1.000000	-1.000000	-1.000000	-1.000000	-1.000000	-1.000000	-1.000000	85.862069	0.000000	-1.000000	-1.000000	158466.000000	1774904251.542154
31349.430000	11521.530000	32627.160000	40241.880000	13458.645000	-53643.150000	-45777.420000	-11831.175000	-29.797470	-22.421812	-31.697356	-30.539130	-29.612853	-28.894521	-18.172712	-41.056133	0.244160	3.067260	-1.602300	0.912717	-0.136108	0.374755	-1.000000	-1.000000	-1.000000	-1.000000	-1.000000	-1.000000	-1.000000	85.862069	0.000000	-1.000000	-1.000000	158467.000000	1774904251.544656
31370.220000	11542.680000	32634.855000	40258.485000	13478.220000	-53623.755000	-45765.405000	-11815.830000	-39.803104	-41.242812	-47.000367	-46.521219	-45.830237	-44.739706	-32.353696	-47.872447	0.244160	3.067260	-1.602300	0.912717	-0.136108	0.374755	-1.000000	-1.000000	-1.000000	-1.000000	-1.000000	-1.000000	-1.000000	85.862069	0.000000	-1.000000	-1.000000	158468.000000	1774904251.544676
31375.305000	11548.530000	32650.920000	40260.420000	13479.705000	-53623.305000	-45764.595000	-11815.965000	-37.918593	-45.606773	-46.812494	-46.436212	-45.809805	-44.654055	-35.167142	-42.256416	0.244160	3.067260	-1.602300	0.912717	-0.136108	0.374755	-1.000000	-1.000000	-1.000000	-1.000000	-1.000000	-1.000000	-1.000000	85.862069	0.000000	-1.000000	-1.000000	158469.000000	1774904251.550988
31370.535000	11554.785000	32676.570000	40273.560000	13489.830000	-53615.070000	-45757.620000	-11830.365000	-23.788313	-32.400921	-29.752030	-30.366775	-29.888579	-29.111664	-25.408378	-25.064429	0.244160	3.067260	-1.602300	0.912717	-0.136108	0.374755	-1.000000	-1.000000	-1.000000	-1.000000	-1.000000	-1.000000	-1.000000	85.862069	0.000000	-1.000000	-1.000000	158470.000000	1774904251.551010
31353.705000	11558.925000	32696.055000	40293.855000	13507.920000	-53600.265000	-45749.745000	-11858.985000	-4.171527	-9.356867	-3.433220	-6.444767	-6.500982	-6.447100	-8.511963	-3.060977	-0.198380	2.334780	-1.785420	0.913206	-0.135437	0.375121	-1.000000	-1.000000	-1.000000	-1.000000	-1.000000	-1.000000	-1.000000	85.862069	0.000000	-1.000000	-1.000000	158471.000000	1774904251.552453
31372.290000	11574.360000	32707.935000	40309.155000	13524.930000	-53585.865000	-45746.955000	-11846.970000	11.972223	11.563451	20.367610	15.339586	14.497692	13.750348	7.755378	14.815483	-0.198380	2.334780	-1.785420	0.913206	-0.135437	0.375121	-1.000000	-1.000000	-1.000000	-1.000000	-1.000000	-1.000000	-1.000000	85.862069	0.000000	-1.000000	-1.000000	158472.000000	1774904251.552464
31424.760000	11596.905000	32728.995000	40320.225000	13539.375000	-53571.240000	-45761.490000	-11800.575000	21.009000	23.217046	33.166511	28.525010	27.224229	25.921086	17.810753	25.450715	-0.198380	2.334780	-1.785420	0.913206	-0.135437	0.375121	-1.000000	-1.000000	-1.000000	-1.000000	-1.000000	-1.000000	-1.000000	85.862069	0.000000	-1.000000	-1.000000	158473.000000	1774904251.556452
31431.555000	11602.710000	32712.480000	40317.885000	13537.440000	-53571.060000	-45757.890000	-11775.600000	26.117362	26.791754	34.034360	32.287046	31.272662	29.928327	20.783924	32.598022	-0.198380	2.334780	-1.785420	0.913206	-0.135437	0.375121	-1.000000	-1.000000	-1.000000	-1.000000	-1.000000	-1.000000	-1.000000	85.862069	0.000000	-1.000000	-1.000000	158474.000000	1774904251.556459
31403.520000	11591.505000	32718.645000	40317.300000	13528.260000	-53579.295000	-45749.745000	-11775.870000	28.672221	25.648001	26.178121	28.373367	28.092189	27.299255	18.985614	37.166291	-0.198380	2.334780	-1.785420	0.913206	-0.135437	0.375121	-1.000000	-1.000000	-1.000000	-1.000000	-1.000000	-1.000000	-1.000000	85.862069	0.000000	-1.000000	-1.000000	158475.000000	1774904251.560594
31365.360000	11547.360000	32687.055000	40278.780000	13488.615000	-53618.895000	-45763.155000	-11796.345000	23.219641	18.582865	12.164607	17.019353	17.151162	17.274927	13.794771	32.591597	-0.198380	2.334780	-1.785420	0.913206	-0.135437	0.375121	-1.000000	-1.000000	-1.000000	-1.000000	-1.000000	-1.000000	-1.000000	85.862069	0.000000	-1.000000	-1.000000	158476.000000	1774904251.560603
31337.325000	11503.710000	32643.900000	40249.980000	13466.385000	-53638.695000	-45769.140000	-11840.715000	5.262188	2.689103	-6.278864	-1.674605	-1.685801	-0.697597	4.826027	13.191077	-0.198380	2.334780	-1.785420	0.913206	-0.135437	0.375121	-1.000000	-1.000000	-1.000000	-1.000000	-1.000000	-1.000000	-1.000000	85.862069	0.000000	-1.000000	-1.000000	158477.000000	1774904251.564581
31361.310000	11517.750000	32643.495000	40242.150000	13459.905000	-53644.905000	-45766.620000	-11830.185000	-18.991055	-18.130319	-25.091892	-22.603693	-22.670013	-21.158157	-6.358961	-15.814691	-0.198380	2.334780	-1.785420	0.913206	-0.135437	0.375121	-1.000000	-1.000000	-1.000000	-1.000000	-1.000000	-1.000000	-1.000000	85.862069	0.000000	-1.000000	-1.000000	158478.000000	1774904251.564588
31356.855000	11518.110000	32639.310000	40231.710000	13451.535000	-53649.765000	-45747.495000	-11809.170000	-35.149847	-32.499358	-36.805443	-36.205090	-35.661299	-34.007169	-14.955813	-38.882082	-0.198380	2.334780	-1.785420	0.913206	-0.135437	0.375121	-1.000000	-1.000000	-1.000000	-1.000000	-1.000000	-1.000000	-1.000000	85.862069	0.000000	-1.000000	-1.000000	158479.000000	1774904251.570034
31358.160000	11531.520000	32659.695000	40249.395000	13468.680000	-53634.105000	-45743.085000	-11797.425000	-33.604210	-31.547778	-35.041979	-35.518802	-33.969570	-32.480343	-16.692526	-42.345992	-0.198380	2.334780	-1.785420	0.913206	-0.135437	0.375121	-1.000000	-1.000000	-1.000000	-1.000000	-1.000000	-1.000000	-1.000000	85.862069	0.000000	-1.000000	-1.000000	158480.000000	1774904251.570044
31390.200000	11554.920000	32681.610000	40286.205000	13502.385000	-53604.090000	-45729.450000	-11775.555000	-16.868842	-16.062114	-19.250673	-20.193926	-18.141563	-17.178469	-11.086880	-25.656618	-0.839300	2.670500	-1.480220	0.911375	-0.133606	0.376952	-1.000000	-1.000000	-1.000000	-1.000000	-1.000000	-1.000000	-1.000000	85.862069	0.000000	-1.000000	-1.000000	158481.000000	1774904251.572614
31432.455000	11584.080000	32711.130000	40323.825000	13540.095000	-53566.155000	-45704.070000	-11731.140000	5.421225	6.216486	5.063507	4.600197	5.929003	5.851074	-0.613390	0.284007	-0.839300	2.670500	-1.480220	0.911375	-0.133606	0.376952	-1.000000	-1.000000	-1.000000	-1.000000	-1.000000	-1.000000	-1.000000	85.862069	0.000000	-1.000000	-1.000000	158482.000000	1774904251.572636
31469.040000	11623.860000	32748.435000	40352.760000	13570.920000	-53535.375000	-45690.795000	-11707.740000	24.434383	26.377458	29.101274	29.817629	29.511482	28.066610	10.740007	22.542588	-0.839300	2.670500	-1.480220	0.911375	-0.133606	0.376952	-1.000000	-1.000000	-1.000000	-1.000000	-1.000000	-1.000000	-1.000000	85.862069	0.000000	-1.000000	-1.000000	158483.000000	1774904251.576960
31496.265000	11653.875000	32778.315000	40382.325000	13602.105000	-53505.405000	-45676.305000	-11698.605000	34.956743	37.736676	44.019846	45.174920	43.591344	41.068597	17.841921	32.395646	-0.839300	2.670500	-1.480220	0.911375	-0.133606	0.376952	-1.000000	-1.000000	-1.000000	-1.000000	-1.000000	-1.000000	-1.000000	85.862069	0.000000	-1.000000	-1.000000	158484.000000	1774904251.576970
31486.185000	11653.740000	32780.340000	40383.180000	13601.565000	-53507.880000	-45683.505000	-11718.720000	34.211736	36.930078	44.054314	44.052371	42.403877	39.625965	16.767585	27.283096	-0.839300	2.670500	-1.480220	0.911375	-0.133606	0.376952	-1.000000	-1.000000	-1.000000	-1.000000	-1.000000	-1.000000	-1.000000	85.862069	0.000000	-1.000000	-1.000000	158485.000000	1774904251.580431
31430.745000	11609.505000	32734.035000	40334.130000	13549.680000	-53560.755000	-45726.075000	-11767.590000	20.791678	23.539628	28.430777	26.287479	25.309947	23.175785	7.107062	10.551650	-0.839300	2.670500	-1.480220	0.911375	-0.133606	0.376952	-1.000000	-1.000000	-1.000000	-1.000000	-1.000000	-1.000000	-1.000000	85.862069	0.000000	-1.000000	-1.000000	158486.000000	1774904251.580436
31318.875000	11499.750000	32615.145000	40220.370000	13440.285000	-53669.430000	-45801.765000	-11875.815000	-4.554467	-1.119572	0.040218	-3.682679	-4.138877	-5.018627	-8.844035	-11.966766	-0.839300	2.670500	-1.480220	0.911375	-0.133606	0.376952	-1.000000	-1.000000	-1.000000	-1.000000	-1.000000	-1.000000	-1.000000	85.862069	0.000000	-1.000000	-1.000000	158487.000000	1774904251.584562
31267.935000	11440.485000	32539.545000	40160.835000	13398.075000	-53710.470000	-45827.865000	-11922.840000	-35.446891	-32.265481	-34.778389	-37.782143	-37.776804	-37.198564	-26.317693	-34.101649	-0.839300	2.670500	-1.480220	0.911375	-0.133606	0.376952	-1.000000	-1.000000	-1.000000	-1.000000	-1.000000	-1.000000	-1.000000	85.862069	0.000000	-1.000000	-1.000000	158488.000000	1774904251.584573
31290.435000	11467.395000	32576.130000	40196.385000	13429.620000	-53678.790000	-45800.145000	-11919.780000	-57.594023	-57.459973	-62.617333	-62.399823	-61.371593	-59.502598	-36.534007	-46.975875	-0.839300	2.670500	-1.480220	0.911375	-0.133606	0.376952	-1.000000	-1.000000	-1.000000	-1.000000	-1.000000	-1.000000	-1.000000	85.862069	0.000000	-1.000000	-1.000000	158489.000000	1774904251.588486
31334.805000	11523.060000	32657.445000	40256.775000	13473.585000	-53636.175000	-45767.970000	-11887.245000	-56.131696	-60.438607	-65.678691	-62.368180	-60.377332	-57.716903	-30.324836	-41.244466	-0.839300	2.670500	-1.480220	0.911375	-0.133606	0.376952	-1.000000	-1.000000	-1.000000	-1.000000	-1.000000	-1.000000	-1.000000	85.862069	0.000000	-1.000000	-1.000000	158490.000000	1774904251.588494
31342.230000	11540.340000	32668.785000	40256.415000	13475.025000	-53632.935000	-45764.370000	-11857.320000	-28.556350	-34.886755	-36.508195	-33.612124	-32.230485	-29.586122	-7.422872	-15.840109	-0.946120	3.280900	-1.541260	0.910642	-0.131408	0.376464	-1.000000	-1.000000	-1.000000	-1.000000	-1.000000	-1.000000	-1.000000	85.862069	0.000000	-1.000000	-1.000000	158491.000000	1774904251.592476
31324.995000	11522.340000	32643.045000	40244.355000	13463.505000	-53642.880000	-45766.800000	-11798.955000	11.271848	6.818166	10.466618	9.546309	8.766182	10.562825	20.482385	19.237047	-0.946120	3.280900	-1.541260	0.910642	-0.131408	0.376464	-1.000000	-1.000000	-1.000000	-1.000000	-1.000000	-1.000000	-1.000000	85.862069	0.000000	-1.000000	-1.000000	158492.000000	1774904251.592502
31335.300000	11523.915000	32651.235000	40253.940000	13468.500000	-53639.235000	-45767.520000	-11800.035000	43.147456	42.036566	48.584476	44.344076	41.534343	42.048718	38.378747	49.013562	-0.946120	3.280900	-1.541260	0.910642	-0.131408	0.376464	-1.000000	-1.000000	-1.000000	-1.000000	-1.000000	-1.000000	-1.000000	85.862069	0.000000	-1.000000	-1.000000	158493.000000	1774904251.596515
31352.400000	11511.270000	32659.020000	40254.525000	13469.535000	-53638.695000	-45769.815000	-11827.350000	55.053432	55.193944	60.745030	56.640186	53.279464	52.579597	38.886417	60.726891	-0.946120	3.280900	-1.541260	0.910642	-0.131408	0.376464	-1.000000	-1.000000	-1.000000	-1.000000	-1.000000	-1.000000	-1.000000	85.862069	0.000000	-1.000000	-1.000000	158494.000000	1774904251.596527
31383.540000	11522.160000	32643.045000	40248.270000	13468.860000	-53639.505000	-45768.015000	-11819.790000	48.855670	46.448040	48.660568	47.624705	45.469427	43.967297	25.734074	50.329829	-0.946120	3.280900	-1.541260	0.910642	-0.131408	0.376464	-1.000000	-1.000000	-1.000000	-1.000000	-1.000000	-1.000000	-1.000000	85.862069	0.000000	-1.000000	-1.000000	158495.000000	1774904251.601953
31394.880000	11542.500000	32636.385000	40258.305000	13486.095000	-53622.180000	-45760.860000	-11806.560000	34.308057	27.480499	25.438955	28.425769	28.663534	26.904747	8.878291	25.711080	-0.946120	3.280900	-1.541260	0.910642	-0.131408	0.376464	-1.000000	-1.000000	-1.000000	-1.000000	-1.000000	-1.000000	-1.000000	85.862069	0.000000	-1.000000	-1.000000	158496.000000	1774904251.601960
31404.465000	11574.810000	32671.980000	40280.085000	13507.380000	-53602.605000	-45768.510000	-11806.065000	18.697103	10.447346	4.131137	9.993739	12.486605	10.938794	-4.022739	-0.249876	-0.946120	3.280900	-1.541260	0.910642	-0.131408	0.376464	-1.000000	-1.000000	-1.000000	-1.000000	-1.000000	-1.000000	-1.000000	85.862069	0.000000	-1.000000	-1.000000	158497.000000	1774904251.604664
31419.180000	11593.485000	32720.220000	40301.370000	13519.620000	-53591.760000	-45763.065000	-11795.760000	2.129718	-1.240030	-9.687342	-4.308049	-0.966239	-2.018790	-12.112348	-19.974720	-0.946120	3.280900	-1.541260	0.910642	-0.131408	0.376464	-1.000000	-1.000000	-1.000000	-1.000000	-1.000000	-1.000000	-1.000000	85.862069	0.000000	-1.000000	-1.000000	158498.000000	1774904251.604688
31390.830000	11563.920000	32707.485000	40292.955000	13510.890000	-53600.400000	-45760.140000	-11803.905000	-17.614040	-11.993983	-18.174779	-16.912785	-14.281180	-14.725221	-17.674048	-32.611993	-0.946120	3.280900	-1.541260	0.910642	-0.131408	0.376464	-1.000000	-1.000000	-1.000000	-1.000000	-1.000000	-1.000000	-1.000000	85.862069	0.000000	-1.000000	-1.000000	158499.000000	1774904251.609426
31351.815000	11531.835000	32666.220000	40263.480000	13484.475000	-53624.295000	-45756.945000	-11831.670000	-38.291714	-25.387783	-25.437407	-28.764743	-27.588613	-27.439567	-20.798564	-39.634836	-0.946120	3.280900	-1.541260	0.910642	-0.131408	0.376464	-1.000000	-1.000000	-1.000000	-1.000000	-1.000000	-1.000000	-1.000000	85.862069	0.000000	-1.000000	-1.000000	158500.000000	1774904251.609440
31354.740000	11530.485000	32669.505000	40264.515000	13483.215000	-53626.005000	-45750.465000	-11830.455000	-51.985502	-37.735208	-31.398561	-36.314358	-36.475706	-35.834195	-19.412379	-41.317748	-3.296160	3.708180	-1.754900	0.913511	-0.129821	0.374999	-1.000000	-1.000000	-1.000000	-1.000000	-1.000000	-1.000000	-1.000000	85.862069	0.000000	-1.000000	-1.000000	158501.000000	1774904251.617314
31381.245000	11537.145000	32675.310000	40266.270000	13482.585000	-53628.390000	-45751.230000	-11821.005000	-49.855003	-40.389600	-31.392007	-34.628105	-35.613641	-34.671520	-12.598067	-34.791500	-3.296160	3.708180	-1.754900	0.913511	-0.129821	0.374999	-1.000000	-1.000000	-1.000000	-1.000000	-1.000000	-1.000000	-1.000000	85.862069	0.000000	-1.000000	-1.000000	158502.000000	1774904251.617328
31382.280000	11543.535000	32677.020000	40270.635000	13487.985000	-53623.755000	-45752.490000	-11816.730000	-29.682224	-28.041097	-21.609502	-21.883016	-23.200773	-22.261343	-2.293635	-16.942093	-3.296160	3.708180	-1.754900	0.913511	-0.129821	0.374999	-1.000000	-1.000000	-1.000000	-1.000000	-1.000000	-1.000000	-1.000000	85.862069	0.000000	-1.000000	-1.000000	158503.000000	1774904251.617342
31382.190000	11541.960000	32672.790000	40267.350000	13483.485000	-53630.955000	-45762.435000	-11803.320000	0.604873	-4.270334	-3.405740	-1.415942	-2.831043	-2.245235	7.688227	9.079688	-3.296160	3.708180	-1.754900	0.913511	-0.129821	0.374999	-1.000000	-1.000000	-1.000000	-1.000000	-1.000000	-1.000000	-1.000000	85.862069	0.000000	-1.000000	-1.000000	158504.000000	1774904251.617347
31397.760000	11545.785000	32671.260000	40271.625000	13495.455000	-53619.030000	-45758.025000	-11779.965000	27.963622	20.106917	16.639625	19.058396	17.553765	17.542926	13.685838	33.344414	-3.296160	3.708180	-1.754900	0.913511	-0.129821	0.374999	-1.000000	-1.000000	-1.000000	-1.000000	-1.000000	-1.000000	-1.000000	85.862069	0.000000	-1.000000	-1.000000	158505.000000	1774904251.620443
31397.850000	11552.220000	32676.975000	40278.105000	13505.085000	-53609.085000	-45756.990000	-11788.065000	41.854957	33.561283	28.983149	30.533289	29.276323	28.760997	13.947813	45.230343	-3.296160	3.708180	-1.754900	0.913511	-0.129821	0.374999	-1.000000	-1.000000	-1.000000	-1.000000	-1.000000	-1.000000	-1.000000	85.862069	0.000000	-1.000000	-1.000000	158506.000000	1774904251.620453
31383.585000	11547.675000	32675.535000	40270.815000	13493.745000	-53619.615000	-45767.160000	-11820.285000	38.041751	30.798550	26.657436	27.770212	27.688812	27.137348	8.944811	38.760067	-3.296160	3.708180	-1.754900	0.913511	-0.129821	0.374999	-1.000000	-1.000000	-1.000000	-1.000000	-1.000000	-1.000000	-1.000000	85.862069	0.000000	-1.000000	-1.000000	158507.000000	1774904251.625953
31377.960000	11548.080000	32678.100000	40272.120000	13491.945000	-53621.190000	-45765.765000	-11839.860000	20.415618	16.047137	12.009522	13.535307	15.131637	15.012081	0.907404	16.088223	-3.296160	3.708180	-1.754900	0.913511	-0.129821	0.374999	-1.000000	-1.000000	-1.000000	-1.000000	-1.000000	-1.000000	-1.000000	85.862069	0.000000	-1.000000	-1.000000	158508.000000	1774904251.625962
31364.235000	11529.270000	32664.960000	40265.460000	13488.435000	-53621.100000	-45760.590000	-11852.820000	-0.566041	-0.653736	-4.290186	-2.838877	-0.370314	0.035103	-6.418175	-11.977164	-3.296160	3.708180	-1.754900	0.913511	-0.129821	0.374999	-1.000000	-1.000000	-1.000000	-1.000000	-1.000000	-1.000000	-1.000000	85.862069	0.000000	-1.000000	-1.000000	158509.000000	1774904251.633345
31386.645000	11553.930000	32689.215000	40291.020000	13514.985000	-53593.200000	-45733.545000	-11814.165000	-14.957268	-11.059392	-12.659907	-12.479482	-10.484286	-9.739450	-9.156728	-31.332172	-3.296160	3.708180	-1.754900	0.913511	-0.129821	0.374999	-1.000000	-1.000000	-1.000000	-1.000000	-1.000000	-1.000000	-1.000000	85.862069	0.000000	-1.000000	-1.000000	158510.000000	1774904251.633356
31412.295000	11585.655000	32715.000000	40313.295000	13536.405000	-53574.885000	-45720.135000	-11779.290000	-18.574775	-12.080809	-10.596978	-12.076179	-11.311057	-10.490825	-5.612595	-32.285967	-4.288060	7.797860	-1.007160	0.913267	-0.131042	0.375609	-1.000000	-1.000000	-1.000000	-1.000000	-1.000000	-1.000000	-1.000000	85.862069	0.000000	-1.000000	-1.000000	158511.000000	1774904251.633367
31418.505000	11600.235000	32725.485000	40321.845000	13546.890000	-53565.120000	-45711.675000	-11764.395000	-12.753992	-5.203474	-1.338827	-3.988330	-4.487447	-3.956461	2.258076	-15.442799	-4.288060	7.797860	-1.007160	0.913267	-0.131042	0.375609	-1.000000	-1.000000	-1.000000	-1.000000	-1.000000	-1.000000	-1.000000	85.862069	0.000000	-1.000000	-1.000000	158512.000000	1774904251.633373
31447.755000	11629.845000	32753.520000	40349.565000	13575.285000	-53538.345000	-45685.440000	-11713.590000	-2.270548	4.520497	9.272941	6.058340	4.609298	4.504497	9.965595	8.445946	-4.288060	7.797860	-1.007160	0.913267	-0.131042	0.375609	-1.000000	-1.000000	-1.000000	-1.000000	-1.000000	-1.000000	-1.000000	85.862069	0.000000	-1.000000	-1.000000	158513.000000	1774904251.636552
31463.820000	11635.740000	32755.275000	40349.700000	13574.655000	-53538.615000	-45689.355000	-11702.205000	7.147481	10.903298	15.252524	12.026987	9.982642	9.186365	13.251138	26.093913	-4.288060	7.797860	-1.007160	0.913267	-0.131042	0.375609	-1.000000	-1.000000	-1.000000	-1.000000	-1.000000	-1.000000	-1.000000	85.862069	0.000000	-1.000000	-1.000000	158514.000000	1774904251.636566
31446.585000	11610.045000	32735.160000	40333.320000	13557.870000	-53556.390000	-45712.890000	-11745.720000	10.817543	9.313069	12.083412	9.826356	7.625380	6.433438	9.535236	28.742380	-4.288060	7.797860	-1.007160	0.913267	-0.131042	0.375609	-1.000000	-1.000000	-1.000000	-1.000000	-1.000000	-1.000000	-1.000000	85.862069	0.000000	-1.000000	-1.000000	158515.000000	1774904251.644067
31382.730000	11535.750000	32663.070000	40266.855000	13495.320000	-53618.805000	-45760.590000	-11798.280000	6.236344	-1.469346	-1.225104	-1.081372	-2.618736	-3.754793	-1.190266	14.911979	-4.288060	7.797860	-1.007160	0.913267	-0.131042	0.375609	-1.000000	-1.000000	-1.000000	-1.000000	-1.000000	-1.000000	-1.000000	85.862069	0.000000	-1.000000	-1.000000	158516.000000	1774904251.644078
31334.490000	11492.055000	32612.310000	40211.235000	13442.805000	-53667.720000	-45796.230000	-11844.360000	-5.421599	-17.582039	-19.936641	-16.782227	-16.702287	-17.395188	-15.395459	-8.785097	-4.288060	7.797860	-1.007160	0.913267	-0.131042	0.375609	-1.000000	-1.000000	-1.000000	-1.000000	-1.000000	-1.000000	-1.000000	85.862069	0.000000	-1.000000	-1.000000	158517.000000	1774904251.647452
31308.795000	11476.035000	32592.015000	40199.625000	13430.610000	-53677.080000	-45810.315000	-11886.840000	-18.484453	-30.338136	-34.456985	-29.627980	-27.701112	-27.714293	-26.686606	-30.854598	-4.288060	7.797860	-1.007160	0.913267	-0.131042	0.375609	-1.000000	-1.000000	-1.000000	-1.000000	-1.000000	-1.000000	-1.000000	85.862069	0.000000	-1.000000	-1.000000	158518.000000	1774904251.647461
31313.160000	11474.910000	32603.445000	40212.180000	13435.020000	-53672.490000	-45810.855000	-11881.395000	-25.405663	-31.286593	-35.673140	-31.461703	-28.697849	-27.988737	-28.720689	-41.193400	-4.288060	7.797860	-1.007160	0.913267	-0.131042	0.375609	-1.000000	-1.000000	-1.000000	-1.000000	-1.000000	-1.000000	-1.000000	85.862069	0.000000	-1.000000	-1.000000	158519.000000	1774904251.648438
31338.360000	11496.195000	32642.730000	40231.710000	13448.520000	-53662.905000	-45800.055000	-11856.555000	-21.065874	-18.296293	-20.589760	-18.769066	-16.984822	-15.800624	-18.822415	-34.734706	-4.288060	7.797860	-1.007160	0.913267	-0.131042	0.375609	-1.000000	-1.000000	-1.000000	-1.000000	-1.000000	-1.000000	-1.000000	85.862069	0.000000	-1.000000	-1.000000	158520.000000	1774904251.648446
31335.120000	11488.635000	32628.825000	40222.305000	13444.290000	-53666.055000	-45788.760000	-11844.720000	-5.842542	3.308251	5.398757	3.908389	3.368106	4.509240	0.010977	-13.250114	-0.946120	0.000000	-0.671440	0.911863	-0.135254	0.375060	-1.000000	-1.000000	-1.000000	-1.000000	-1.000000	-1.000000	-1.000000	85.862069	0.000000	-1.000000	-1.000000	158521.000000	1774904251.653906
31327.470000	11483.010000	32620.455000	40219.920000	13444.515000	-53664.705000	-45775.665000	-11842.515000	13.055742	23.491225	29.797923	25.522208	22.953641	23.590904	19.964929	13.564046	-0.946120	0.000000	-0.671440	0.911863	-0.135254	0.375060	-1.000000	-1.000000	-1.000000	-1.000000	-1.000000	-1.000000	-1.000000	85.862069	0.000000	-1.000000	-1.000000	158522.000000	1774904251.653912
31344.255000	11508.300000	32645.025000	40244.895000	13469.670000	-53641.890000	-45764.910000	-11834.955000	25.917072	33.545112	40.747764	36.002551	33.149334	33.147330	32.706416	33.370388	-0.946120	0.000000	-0.671440	0.911863	-0.135254	0.375060	-1.000000	-1.000000	-1.000000	-1.000000	-1.000000	-1.000000	-1.000000	85.862069	0.000000	-1.000000	-1.000000	158523.000000	1774904251.656576
31354.335000	11520.180000	32655.330000	40250.385000	13474.665000	-53638.470000	-45767.520000	-11832.930000	28.670414	32.379943	36.158109	33.493092	32.179348	31.611056	34.247738	40.086183	-0.946120	0.000000	-0.671440	0.911863	-0.135254	0.375060	-1.000000	-1.000000	-1.000000	-1.000000	-1.000000	-1.000000	-1.000000	85.862069	0.000000	-1.000000	-1.000000	158524.000000	1774904251.656586
31365.855000	11524.905000	32662.485000	40253.625000	13478.985000	-53630.505000	-45765.270000	-11824.515000	24.581429	25.253095	23.180207	23.413955	24.314093	23.359847	26.026878	35.615578	-0.946120	0.000000	-0.671440	0.911863	-0.135254	0.375060	-1.000000	-1.000000	-1.000000	-1.000000	-1.000000	-1.000000	-1.000000	85.862069	0.000000	-1.000000	-1.000000	158525.000000	1774904251.661974
31368.780000	11526.435000	32669.370000	40263.930000	13488.210000	-53620.650000	-45762.660000	-11822.220000	18.337454	16.818748	10.047711	12.122356	14.504470	13.479844	12.516726	24.791106	-0.946120	0.000000	-0.671440	0.911863	-0.135254	0.375060	-1.000000	-1.000000	-1.000000	-1.000000	-1.000000	-1.000000	-1.000000	85.862069	0.000000	-1.000000	-1.000000	158526.000000	1774904251.661987
31368.195000	11528.460000	32666.310000	40263.930000	13487.985000	-53622.360000	-45765.495000	-11828.430000	10.889425	7.489352	-0.219674	2.097323	4.571657	3.768311	-1.884712	11.007275	-0.946120	0.000000	-0.671440	0.911863	-0.135254	0.375060	-1.000000	-1.000000	-1.000000	-1.000000	-1.000000	-1.000000	-1.000000	85.862069	0.000000	-1.000000	-1.000000	158527.000000	1774904251.664623
31380.030000	11535.210000	32660.235000	40273.155000	13498.695000	-53613.090000	-45757.305000	-11819.295000	0.489499	-4.116758	-9.618423	-7.743576	-6.113395	-6.564184	-14.141209	-4.356591	-0.946120	0.000000	-0.671440	0.911863	-0.135254	0.375060	-1.000000	-1.000000	-1.000000	-1.000000	-1.000000	-1.000000	-1.000000	85.862069	0.000000	-1.000000	-1.000000	158528.000000	1774904251.664633
31389.120000	11552.130000	32674.545000	40284.630000	13509.855000	-53604.270000	-45753.615000	-11802.690000	-12.494212	-16.873833	-19.645889	-17.517988	-16.805352	-16.847927	-21.945949	-19.280396	-0.946120	0.000000	-0.671440	0.911863	-0.135254	0.375060	-1.000000	-1.000000	-1.000000	-1.000000	-1.000000	-1.000000	-1.000000	85.862069	0.000000	-1.000000	-1.000000	158529.000000	1774904251.668552
31384.980000	11575.620000	32690.070000	40303.935000	13530.330000	-53585.505000	-45758.970000	-11805.165000	-23.814047	-25.996467	-26.907585	-23.911525	-23.917436	-23.588959	-23.977225	-29.757415	-0.946120	0.000000	-0.671440	0.911863	-0.135254	0.375060	-1.000000	-1.000000	-1.000000	-1.000000	-1.000000	-1.000000	-1.000000	85.862069	0.000000	-1.000000	-1.000000	158530.000000	1774904251.668564
31396.320000	11591.145000	32697.675000	40313.655000	13541.355000	-53574.705000	-45757.530000	-11813.580000	-28.495854	-26.720256	-26.254322	-23.338402	-24.060645	-23.557766	-20.662204	-32.324734	-0.274680	3.967600	-1.495480	0.912717	-0.136596	0.373351	-1.000000	-1.000000	-1.000000	-1.000000	-1.000000	-1.000000	-1.000000	85.862069	0.000000	-1.000000	-1.000000	158531.000000	1774904251.674012
31416.030000	11589.075000	32704.740000	40306.095000	13530.915000	-53583.390000	-45741.195000	-11789.505000	-24.207013	-19.061818	-17.160744	-16.245334	-17.630495	-17.095083	-13.144345	-25.860864	-0.274680	3.967600	-1.495480	0.912717	-0.136596	0.373351	-1.000000	-1.000000	-1.000000	-1.000000	-1.000000	-1.000000	-1.000000	85.862069	0.000000	-1.000000	-1.000000	158532.000000	1774904251.674028
31418.685000	11567.070000	32705.775000	40288.545000	13508.505000	-53604.135000	-45733.095000	-11783.430000	-12.272227	-7.833422	-4.012566	-6.710900	-8.505435	-7.851426	-2.467917	-11.543973	-0.274680	3.967600	-1.495480	0.912717	-0.136596	0.373351	-1.000000	-1.000000	-1.000000	-1.000000	-1.000000	-1.000000	-1.000000	85.862069	0.000000	-1.000000	-1.000000	158533.000000	1774904251.676573
31392.270000	11536.245000	32691.735000	40273.380000	13495.860000	-53616.195000	-45743.490000	-11814.705000	2.268286	1.311696	7.814225	1.257895	-0.621358	0.195170	8.834592	5.645100	-0.274680	3.967600	-1.495480	0.912717	-0.136596	0.373351	-1.000000	-1.000000	-1.000000	-1.000000	-1.000000	-1.000000	-1.000000	85.862069	0.000000	-1.000000	-1.000000	158534.000000	1774904251.676583
31392.180000	11539.935000	32688.765000	40280.085000	13505.175000	-53608.275000	-45749.385000	-11814.615000	12.712421	5.416576	14.214464	5.845896	4.407414	5.104072	16.196462	17.914354	-0.274680	3.967600	-1.495480	0.912717	-0.136596	0.373351	-1.000000	-1.000000	-1.000000	-1.000000	-1.000000	-1.000000	-1.000000	85.862069	0.000000	-1.000000	-1.000000	158535.000000	1774904251.680506
31400.370000	11532.645000	32679.945000	40277.070000	13503.105000	-53611.830000	-45754.200000	-11782.575000	15.307373	5.342093	13.667563	7.268919	7.001199	7.170865	16.171498	20.880875	-0.274680	3.967600	-1.495480	0.912717	-0.136596	0.373351	-1.000000	-1.000000	-1.000000	-1.000000	-1.000000	-1.000000	-1.000000	85.862069	0.000000	-1.000000	-1.000000	158536.000000	1774904251.680513
31379.895000	11513.430000	32653.845000	40250.340000	13477.680000	-53635.635000	-45760.275000	-11797.290000	10.831950	3.412921	7.423642	6.172761	7.475503	7.036276	9.265118	15.934983	-0.274680	3.967600	-1.495480	0.912717	-0.136596	0.373351	-1.000000	-1.000000	-1.000000	-1.000000	-1.000000	-1.000000	-1.000000	85.862069	0.000000	-1.000000	-1.000000	158537.000000	1774904251.684624
31372.695000	11515.950000	32645.385000	40245.255000	13472.955000	-53639.820000	-45758.250000	-11832.075000	2.446629	1.025932	-1.617438	2.838274	5.289845	4.647020	-0.555281	5.927231	-0.274680	3.967600	-1.495480	0.912717	-0.136596	0.373351	-1.000000	-1.000000	-1.000000	-1.000000	-1.000000	-1.000000	-1.000000	85.862069	0.000000	-1.000000	-1.000000	158538.000000	1774904251.684647
31389.975000	11548.440000	32677.335000	40277.700000	13506.750000	-53605.980000	-45734.985000	-11797.110000	-5.242954	-0.277989	-8.898659	-0.914769	1.569252	1.262348	-7.896265	-5.608397	-0.274680	3.967600	-1.495480	0.912717	-0.136596	0.373351	-1.000000	-1.000000	-1.000000	-1.000000	-1.000000	-1.000000	-1.000000	85.862069	0.000000	-1.000000	-1.000000	158539.000000	1774904251.688686
31452.660000	11616.165000	32738.760000	40339.485000	13572.630000	-53537.220000	-45683.505000	-11708.595000	-7.108029	2.211733	-8.970926	-0.922151	0.525501	0.777771	-8.341347	-11.531321	-0.274680	3.967600	-1.495480	0.912717	-0.136596	0.373351	-1.000000	-1.000000	-1.000000	-1.000000	-1.000000	-1.000000	-1.000000	85.862069	0.000000	-1.000000	-1.000000	158540.000000	1774904251.688699
31499.460000	11661.255000	32774.850000	40378.995000	13612.905000	-53495.145000	-45652.905000	-11659.950000	-0.677683	10.200073	0.351816	5.866025	6.015180	6.658829	-1.236967	-5.618808	-2.670500	3.998120	-1.709120	0.913023	-0.132202	0.374206	-1.000000	-1.000000	-1.000000	-1.000000	-1.000000	-1.000000	-1.000000	85.862069	0.000000	-1.000000	-1.000000	158541.000000	1774904251.693605
31442.175000	11622.015000	32745.060000	40342.095000	13566.915000	-53541.990000	-45699.840000	-11726.370000	10.069343	20.250627	13.844115	16.254190	15.486871	16.085306	8.173636	8.006979	-2.670500	3.998120	-1.709120	0.913023	-0.132202	0.374206	-1.000000	-1.000000	-1.000000	-1.000000	-1.000000	-1.000000	-1.000000	85.862069	0.000000	-1.000000	-1.000000	158542.000000	1774904251.693611
31351.905000	11524.095000	32678.955000	40268.655000	13491.585000	-53620.200000	-45768.960000	-11841.390000	14.869586	22.616006	20.522360	20.205629	18.729683	18.725135	10.773799	15.190282	-2.670500	3.998120	-1.709120	0.913023	-0.132202	0.374206	-1.000000	-1.000000	-1.000000	-1.000000	-1.000000	-1.000000	-1.000000	85.862069	0.000000	-1.000000	-1.000000	158543.000000	1774904251.696439
31337.865000	11498.490000	32642.280000	40233.105000	13458.060000	-53653.950000	-45792.720000	-11872.845000	6.091473	9.240829	12.457943	9.363342	7.187136	6.258842	1.644007	5.149881	-2.670500	3.998120	-1.709120	0.913023	-0.132202	0.374206	-1.000000	-1.000000	-1.000000	-1.000000	-1.000000	-1.000000	-1.000000	85.862069	0.000000	-1.000000	-1.000000	158544.000000	1774904251.696445
31366.305000	11505.870000	32629.230000	40231.350000	13461.165000	-53650.620000	-45783.045000	-11851.470000	-11.243254	-14.901377	-6.809110	-12.442273	-14.779301	-16.344033	-13.465082	-16.866048	-2.670500	3.998120	-1.709120	0.913023	-0.132202	0.374206	-1.000000	-1.000000	-1.000000	-1.000000	-1.000000	-1.000000	-1.000000	85.862069	0.000000	-1.000000	-1.000000	158545.000000	1774904251.700541
31360.635000	11495.970000	32573.295000	40206.870000	13456.620000	-53652.015000	-45774.450000	-11857.500000	-23.079641	-33.944725	-24.951691	-30.911193	-32.060629	-33.458482	-22.552679	-33.140013	-2.670500	3.998120	-1.709120	0.913023	-0.132202	0.374206	-1.000000	-1.000000	-1.000000	-1.000000	-1.000000	-1.000000	-1.000000	85.862069	0.000000	-1.000000	-1.000000	158546.000000	1774904251.700548
31388.895000	11536.245000	32610.555000	40243.590000	13493.835000	-53617.050000	-45753.705000	-11825.280000	-20.046129	-35.510005	-31.195560	-33.867916	-32.415968	-32.880899	-18.160309	-29.710641	-2.670500	3.998120	-1.709120	0.913023	-0.132202	0.374206	-1.000000	-1.000000	-1.000000	-1.000000	-1.000000	-1.000000	-1.000000	85.862069	0.000000	-1.000000	-1.000000	158547.000000	1774904251.704689
31386.330000	11551.095000	32689.395000	40280.670000	13508.820000	-53604.675000	-45743.265000	-11792.520000	-4.916898	-19.669859	-21.545274	-19.720250	-16.007690	-15.414104	-3.035677	-7.701891	-2.670500	3.998120	-1.709120	0.913023	-0.132202	0.374206	-1.000000	-1.000000	-1.000000	-1.000000	-1.000000	-1.000000	-1.000000	85.862069	0.000000	-1.000000	-1.000000	158548.000000	1774904251.704704
31364.910000	11533.860000	32722.920000	40286.970000	13503.600000	-53610.660000	-45748.665000	-11803.140000	10.478543	2.486089	0.251400	2.904838	5.900540	6.917172	12.640855	18.195602	-2.670500	3.998120	-1.709120	0.913023	-0.132202	0.374206	-1.000000	-1.000000	-1.000000	-1.000000	-1.000000	-1.000000	-1.000000	85.862069	0.000000	-1.000000	-1.000000	158549.000000	1774904251.708382
31363.065000	11524.320000	32705.055000	40281.930000	13498.245000	-53614.170000	-45759.285000	-11824.965000	15.608176	17.773912	22.889057	21.498010	20.585191	21.212918	19.481471	31.613532	-2.670500	3.998120	-1.709120	0.913023	-0.132202	0.374206	-1.000000	-1.000000	-1.000000	-1.000000	-1.000000	-1.000000	-1.000000	85.862069	0.000000	-1.000000	-1.000000	158550.000000	1774904251.708393
31348.395000	11507.805000	32665.140000	40252.545000	13475.700000	-53635.230000	-45770.850000	-11842.515000	11.221580	21.734057	34.057139	28.480556	23.682622	23.674383	16.426800	28.323454	-3.372460	3.967600	-2.548420	0.909727	-0.129333	0.374389	-1.000000	-1.000000	-1.000000	-1.000000	-1.000000	-1.000000	-1.000000	85.862069	0.000000	-1.000000	-1.000000	158551.000000	1774904251.712600
31357.845000	11514.195000	32656.815000	40245.795000	13471.335000	-53640.945000	-45773.595000	-11829.870000	6.450828	19.534641	29.423605	24.537882	19.270070	19.059654	9.742114	17.458016	-3.372460	3.967600	-2.548420	0.909727	-0.129333	0.374389	-1.000000	-1.000000	-1.000000	-1.000000	-1.000000	-1.000000	-1.000000	85.862069	0.000000	-1.000000	-1.000000	158552.000000	1774904251.712607
31376.835000	11534.085000	32675.130000	40265.460000	13491.810000	-53621.595000	-45764.505000	-11814.345000	6.764153	16.929484	14.479585	14.948356	12.930347	13.056733	5.062638	8.795016	-3.372460	3.967600	-2.548420	0.909727	-0.129333	0.374389	-1.000000	-1.000000	-1.000000	-1.000000	-1.000000	-1.000000	-1.000000	85.862069	0.000000	-1.000000	-1.000000	158553.000000	1774904251.716540
31375.440000	11536.560000	32676.345000	40267.080000	13494.465000	-53619.120000	-45766.620000	-11824.515000	9.170311	14.272566	-1.092837	4.953758	7.276302	7.822958	2.668695	3.454451	-3.372460	3.967600	-2.548420	0.909727	-0.129333	0.374389	-1.000000	-1.000000	-1.000000	-1.000000	-1.000000	-1.000000	-1.000000	85.862069	0.000000	-1.000000	-1.000000	158554.000000	1774904251.716550
31374.945000	11533.770000	32671.170000	40264.290000	13493.970000	-53618.220000	-45764.010000	-11826.045000	7.890183	8.571382	-10.557697	-2.935235	1.759163	2.378478	-0.239326	-2.400665	-3.372460	3.967600	-2.548420	0.909727	-0.129333	0.374389	-1.000000	-1.000000	-1.000000	-1.000000	-1.000000	-1.000000	-1.000000	85.862069	0.000000	-1.000000	-1.000000	158555.000000	1774904251.720416
31387.995000	11541.645000	32679.450000	40274.685000	13504.050000	-53606.340000	-45755.640000	-11812.815000	0.884274	-1.980657	-14.116165	-9.320578	-5.223668	-4.833394	-5.170588	-10.475790	-3.372460	3.967600	-2.548420	0.909727	-0.129333	0.374389	-1.000000	-1.000000	-1.000000	-1.000000	-1.000000	-1.000000	-1.000000	85.862069	0.000000	-1.000000	-1.000000	158556.000000	1774904251.720441
31395.330000	11552.850000	32694.750000	40289.040000	13517.145000	-53593.110000	-45752.805000	-11811.915000	-8.764536	-14.965217	-16.438064	-15.268924	-13.190658	-12.990362	-10.717007	-18.842093	-3.372460	3.967600	-2.548420	0.909727	-0.129333	0.374389	-1.000000	-1.000000	-1.000000	-1.000000	-1.000000	-1.000000	-1.000000	85.862069	0.000000	-1.000000	-1.000000	158557.000000	1774904251.725521
31398.345000	11570.445000	32721.480000	40313.925000	13542.795000	-53570.970000	-45742.275000	-11814.165000	-15.669117	-23.875845	-19.055933	-18.914386	-18.239425	-18.139798	-13.756708	-23.538455	-3.372460	3.967600	-2.548420	0.909727	-0.129333	0.374389	-1.000000	-1.000000	-1.000000	-1.000000	-1.000000	-1.000000	-1.000000	85.862069	0.000000	-1.000000	-1.000000	158558.000000	1774904251.725533
31396.410000	11572.020000	32704.695000	40303.260000	13539.960000	-53574.165000	-45738.990000	-11800.800000	-15.899207	-22.626045	-17.630193	-16.413959	-15.951465	-16.164961	-11.414626	-20.177037	-3.372460	3.967600	-2.548420	0.909727	-0.129333	0.374389	-1.000000	-1.000000	-1.000000	-1.000000	-1.000000	-1.000000	-1.000000	85.862069	0.000000	-1.000000	-1.000000	158559.000000	1774904251.728330
31381.695000	11544.255000	32659.785000	40267.395000	13502.655000	-53608.455000	-45745.920000	-11811.780000	-9.210758	-11.178658	-8.863843	-7.137898	-6.476898	-7.221339	-3.414198	-7.330325	-3.372460	3.967600	-2.548420	0.909727	-0.129333	0.374389	-1.000000	-1.000000	-1.000000	-1.000000	-1.000000	-1.000000	-1.000000	85.862069	0.000000	-1.000000	-1.000000	158560.000000	1774904251.728341
31384.620000	11536.695000	32679.945000	40273.785000	13499.595000	-53611.515000	-45736.695000	-11810.115000	0.420358	3.314924	3.962107	4.152974	4.240442	3.252867	6.575319	9.556261	-2.731540	3.738700	-2.594200	0.906553	-0.131347	0.374328	-1.000000	-1.000000	-1.000000	-1.000000	-1.000000	-1.000000	-1.000000	85.862069	0.000000	-1.000000	-1.000000	158561.000000	1774904251.732428
31394.565000	11531.970000	32677.785000	40266.720000	13495.410000	-53616.915000	-45744.840000	-11809.440000	7.278268	12.038850	14.536929	11.357830	9.609846	8.991031	12.937061	20.802945	-2.731540	3.738700	-2.594200	0.906553	-0.131347	0.374328	-1.000000	-1.000000	-1.000000	-1.000000	-1.000000	-1.000000	-1.000000	85.862069	0.000000	-1.000000	-1.000000	158562.000000	1774904251.732438
31388.625000	11524.230000	32657.715000	40255.695000	13488.885000	-53622.765000	-45750.735000	-11815.515000	8.449454	11.470624	18.542174	11.683141	7.782927	7.846479	11.976621	20.742026	-2.731540	3.738700	-2.594200	0.906553	-0.131347	0.374328	-1.000000	-1.000000	-1.000000	-1.000000	-1.000000	-1.000000	-1.000000	85.862069	0.000000	-1.000000	-1.000000	158563.000000	1774904251.736379
31396.590000	11532.285000	32662.485000	40261.230000	13494.105000	-53618.040000	-45750.195000	-11787.030000	5.030850	4.592160	14.903542	6.466347	1.688635	2.231233	4.373292	11.477515	-2.731540	3.738700	-2.594200	0.906553	-0.131347	0.374328	-1.000000	-1.000000	-1.000000	-1.000000	-1.000000	-1.000000	-1.000000	85.862069	0.000000	-1.000000	-1.000000	158564.000000	1774904251.736387
31400.550000	11542.455000	32675.850000	40272.120000	13501.260000	-53612.280000	-45750.555000	-11775.195000	-0.086722	-2.932588	5.644523	-0.658390	-4.233788	-3.686571	-5.475640	-0.484997	-2.731540	3.738700	-2.594200	0.906553	-0.131347	0.374328	-1.000000	-1.000000	-1.000000	-1.000000	-1.000000	-1.000000	-1.000000	85.862069	0.000000	-1.000000	-1.000000	158565.000000	1774904251.740291
31419.855000	11573.910000	32717.385000	40304.520000	13533.480000	-53581.455000	-45732.555000	-11773.890000	-3.850252	-6.345999	-4.572935	-5.723829	-6.499008	-6.347025	-12.169733	-9.267113	-2.731540	3.738700	-2.594200	0.906553	-0.131347	0.374328	-1.000000	-1.000000	-1.000000	-1.000000	-1.000000	-1.000000	-1.000000	85.862069	0.000000	-1.000000	-1.000000	158566.000000	1774904251.740305
31497.255000	11659.230000	32808.105000	40399.695000	13629.465000	-53487.090000	-45664.965000	-11680.605000	-3.065937	-2.747448	-9.111879	-4.801343	-2.565091	-2.886965	-11.285477	-10.900206	-2.731540	3.738700	-2.594200	0.906553	-0.131347	0.374328	-1.000000	-1.000000	-1.000000	-1.000000	-1.000000	-1.000000	-1.000000	85.862069	0.000000	-1.000000	-1.000000	158567.000000	1774904251.744522
31516.875000	11671.605000	32831.595000	40433.940000	13664.025000	-53451.315000	-45639.090000	-11666.790000	4.192934	7.879050	-2.712545	4.664428	8.619043	8.064133	-1.376547	-3.504183	-2.731540	3.738700	-2.594200	0.906553	-0.131347	0.374328	-1.000000	-1.000000	-1.000000	-1.000000	-1.000000	-1.000000	-1.000000	85.862069	0.000000	-1.000000	-1.000000	158568.000000	1774904251.744534
31423.140000	11579.940000	32730.165000	40326.570000	13556.475000	-53557.965000	-45712.575000	-11806.740000	13.110642	18.682682	10.278274	17.381380	21.129312	20.702813	11.768712	6.869199	-2.731540	3.738700	-2.594200	0.906553	-0.131347	0.374328	-1.000000	-1.000000	-1.000000	-1.000000	-1.000000	-1.000000	-1.000000	85.862069	0.000000	-1.000000	-1.000000	158569.000000	1774904251.749233
31298.805000	11470.410000	32606.055000	40191.165000	13422.645000	-53688.690000	-45791.100000	-11929.950000	11.395639	16.920700	14.128058	18.309434	20.586046	20.624250	15.818238	5.896605	-2.731540	3.738700	-2.594200	0.906553	-0.131347	0.374328	-1.000000	-1.000000	-1.000000	-1.000000	-1.000000	-1.000000	-1.000000	85.862069	0.000000	-1.000000	-1.000000	158570.000000	1774904251.749243
31312.125000	11466.810000	32596.155000	40177.080000	13410.135000	-53699.940000	-45801.990000	-11897.640000	-6.872289	-2.652799	-1.554633	-1.561493	-0.953266	-0.235307	4.126556	-11.691615	-0.946120	4.364360	-2.884140	0.907285	-0.132324	0.373473	-1.000000	-1.000000	-1.000000	-1.000000	-1.000000	-1.000000	-1.000000	85.862069	0.000000	-1.000000	-1.000000	158571.000000	1774904251.752379
31366.260000	11506.410000	32635.620000	40219.560000	13451.985000	-53660.115000	-45784.440000	-11821.770000	-28.814822	-27.368869	-25.722031	-29.611100	-30.377389	-29.123346	-14.782092	-30.114742	-0.946120	4.364360	-2.884140	0.907285	-0.132324	0.373473	-1.000000	-1.000000	-1.000000	-1.000000	-1.000000	-1.000000	-1.000000	85.862069	0.000000	-1.000000	-1.000000	158572.000000	1774904251.752389
31397.895000	11531.070000	32661.495000	40258.980000	13489.785000	-53626.005000	-45763.515000	-11776.545000	-34.112716	-37.374155	-36.640200	-42.281019	-43.976462	-42.835219	-25.179521	-28.890146	-0.946120	4.364360	-2.884140	0.907285	-0.132324	0.373473	-1.000000	-1.000000	-1.000000	-1.000000	-1.000000	-1.000000	-1.000000	85.862069	0.000000	-1.000000	-1.000000	158573.000000	1774904251.756423
31403.520000	11537.055000	32672.925000	40278.960000	13508.460000	-53609.040000	-45751.590000	-11783.430000	-16.516254	-24.974724	-24.924041	-28.676138	-30.585771	-30.349360	-18.903657	-5.530133	-0.946120	4.364360	-2.884140	0.907285	-0.132324	0.373473	-1.000000	-1.000000	-1.000000	-1.000000	-1.000000	-1.000000	-1.000000	85.862069	0.000000	-1.000000	-1.000000	158574.000000	1774904251.756433
31386.195000	11531.295000	32671.575000	40267.665000	13496.985000	-53617.770000	-45759.870000	-11820.240000	11.192683	-0.041007	-0.141269	0.898879	-0.433850	-1.336408	-1.166121	23.030980	-0.946120	4.364360	-2.884140	0.907285	-0.132324	0.373473	-1.000000	-1.000000	-1.000000	-1.000000	-1.000000	-1.000000	-1.000000	85.862069	0.000000	-1.000000	-1.000000	158575.000000	1774904251.760678
31369.455000	11515.725000	32657.355000	40251.420000	13479.885000	-53632.620000	-45768.510000	-11836.485000	29.537914	20.098701	20.285149	25.445090	25.034202	23.630777	14.867116	36.077930	-0.946120	4.364360	-2.884140	0.907285	-0.132324	0.373473	-1.000000	-1.000000	-1.000000	-1.000000	-1.000000	-1.000000	-1.000000	85.862069	0.000000	-1.000000	-1.000000	158576.000000	1774904251.760696
31364.910000	11519.955000	32661.810000	40255.785000	13484.970000	-53625.330000	-45762.885000	-11837.655000	28.844075	25.643795	26.554964	31.819170	32.084858	31.175270	19.955251	27.100207	-0.946120	4.364360	-2.884140	0.907285	-0.132324	0.373473	-1.000000	-1.000000	-1.000000	-1.000000	-1.000000	-1.000000	-1.000000	85.862069	0.000000	-1.000000	-1.000000	158577.000000	1774904251.764292
31395.645000	11555.010000	32691.960000	40290.795000	13522.860000	-53587.170000	-45740.160000	-11803.860000	16.670788	21.583486	23.457431	25.167898	25.732159	25.847117	16.580610	9.532674	-0.946120	4.364360	-2.884140	0.907285	-0.132324	0.373473	-1.000000	-1.000000	-1.000000	-1.000000	-1.000000	-1.000000	-1.000000	85.862069	0.000000	-1.000000	-1.000000	158578.000000	1774904251.764299
31417.785000	11569.140000	32705.955000	40308.300000	13542.975000	-53570.880000	-45726.570000	-11788.065000	7.949149	18.884752	21.525488	19.443930	20.169960	20.989877	13.322509	1.391386	-0.946120	4.364360	-2.884140	0.907285	-0.132324	0.373473	-1.000000	-1.000000	-1.000000	-1.000000	-1.000000	-1.000000	-1.000000	85.862069	0.000000	-1.000000	-1.000000	158579.000000	1774904251.768319
31402.530000	11551.005000	32693.400000	40294.260000	13530.735000	-53584.290000	-45735.885000	-11800.845000	7.412998	19.386711	22.380082	18.932085	19.755017	20.385848	12.945673	4.765888	-0.946120	4.364360	-2.884140	0.907285	-0.132324	0.373473	-1.000000	-1.000000	-1.000000	-1.000000	-1.000000	-1.000000	-1.000000	85.862069	0.000000	-1.000000	-1.000000	158580.000000	1774904251.768331
31385.115000	11521.485000	32667.480000	40261.500000	13494.690000	-53620.155000	-45750.735000	-11788.155000	6.062622	14.174030	17.065361	14.342099	15.036511	14.819512	9.953895	6.370488	-2.289000	4.425400	-3.250380	0.908445	-0.129455	0.373473	-1.000000	-1.000000	-1.000000	-1.000000	-1.000000	-1.000000	-1.000000	85.862069	0.000000	-1.000000	-1.000000	158581.000000	1774904251.773580
31394.025000	11538.990000	32685.255000	40278.825000	13512.150000	-53602.245000	-45733.590000	-11772.225000	-4.274444	-2.544390	-0.591423	-2.433835	-2.139724	-3.002553	-0.300720	-3.130792	-2.289000	4.425400	-3.250380	0.908445	-0.129455	0.373473	-1.000000	-1.000000	-1.000000	-1.000000	-1.000000	-1.000000	-1.000000	85.862069	0.000000	-1.000000	-1.000000	158582.000000	1774904251.773592
31363.830000	11544.795000	32695.695000	40287.825000	13520.655000	-53592.120000	-45733.860000	-11798.415000	-20.067921	-23.825294	-24.043457	-25.770835	-25.945244	-26.636816	-14.455192	-18.663036	-2.289000	4.425400	-3.250380	0.908445	-0.129455	0.373473	-1.000000	-1.000000	-1.000000	-1.000000	-1.000000	-1.000000	-1.000000	85.862069	0.000000	-1.000000	-1.000000	158583.000000	1774904251.780131
31343.445000	11518.965000	32664.465000	40255.335000	13487.850000	-53621.415000	-45757.170000	-11828.655000	-31.543588	-37.215775	-40.374805	-42.010784	-42.502057	-42.342118	-24.948317	-29.386778	-2.289000	4.425400	-3.250380	0.908445	-0.129455	0.373473	-1.000000	-1.000000	-1.000000	-1.000000	-1.000000	-1.000000	-1.000000	85.862069	0.000000	-1.000000	-1.000000	158584.000000	1774904251.780139
31355.550000	11502.090000	32635.755000	40225.995000	13458.150000	-53651.160000	-45776.430000	-11831.310000	-31.496023	-36.257492	-41.980238	-42.714229	-43.338511	-42.297716	-27.206276	-29.204915	-2.289000	4.425400	-3.250380	0.908445	-0.129455	0.373473	-1.000000	-1.000000	-1.000000	-1.000000	-1.000000	-1.000000	-1.000000	85.862069	0.000000	-1.000000	-1.000000	158585.000000	1774904251.780438
31386.375000	11518.695000	32653.080000	40243.095000	13475.790000	-53635.230000	-45776.340000	-11812.455000	-17.858859	-22.213472	-28.976054	-28.208228	-28.835342	-27.566207	-20.888975	-17.588392	-2.289000	4.425400	-3.250380	0.908445	-0.129455	0.373473	-1.000000	-1.000000	-1.000000	-1.000000	-1.000000	-1.000000	-1.000000	85.862069	0.000000	-1.000000	-1.000000	158586.000000	1774904251.780450
31416.300000	11541.780000	32679.360000	40273.155000	13506.570000	-53607.240000	-45772.515000	-11802.555000	5.333693	-0.577196	-5.889905	-3.722699	-4.266336	-3.674683	-8.091998	1.820175	-2.289000	4.425400	-3.250380	0.908445	-0.129455	0.373473	-1.000000	-1.000000	-1.000000	-1.000000	-1.000000	-1.000000	-1.000000	85.862069	0.000000	-1.000000	-1.000000	158587.000000	1774904251.784440
31416.300000	11548.935000	32693.085000	40293.135000	13527.180000	-53588.790000	-45749.250000	-11795.490000	27.805418	20.693846	19.442554	22.481400	22.040278	21.446638	7.252494	20.872323	-2.289000	4.425400	-3.250380	0.908445	-0.129455	0.373473	-1.000000	-1.000000	-1.000000	-1.000000	-1.000000	-1.000000	-1.000000	85.862069	0.000000	-1.000000	-1.000000	158588.000000	1774904251.784451
31405.005000	11553.030000	32688.495000	40285.845000	13523.895000	-53590.320000	-45743.760000	-11792.700000	37.862021	33.360966	37.055384	40.295180	40.019489	38.519514	20.217862	30.255536	-2.289000	4.425400	-3.250380	0.908445	-0.129455	0.373473	-1.000000	-1.000000	-1.000000	-1.000000	-1.000000	-1.000000	-1.000000	85.862069	0.000000	-1.000000	-1.000000	158589.000000	1774904251.788816
31379.535000	11541.600000	32671.755000	40272.885000	13513.995000	-53598.465000	-45747.855000	-11809.395000	29.921365	32.609956	39.190549	41.865235	42.083266	40.595597	26.115342	25.177449	-2.289000	4.425400	-3.250380	0.908445	-0.129455	0.373473	-1.000000	-1.000000	-1.000000	-1.000000	-1.000000	-1.000000	-1.000000	85.862069	0.000000	-1.000000	-1.000000	158590.000000	1774904251.788826
31395.870000	11556.495000	32685.570000	40289.310000	13524.930000	-53589.915000	-45737.640000	-11805.030000	8.611560	19.362743	25.022897	26.461926	27.480123	26.915130	22.240303	8.706643	-4.089680	4.013380	-2.899400	0.908567	-0.129882	0.374999	-1.000000	-1.000000	-1.000000	-1.000000	-1.000000	-1.000000	-1.000000	85.862069	0.000000	-1.000000	-1.000000	158591.000000	1774904251.792369
31425.885000	11563.065000	32698.710000	40303.170000	13531.635000	-53583.345000	-45715.095000	-11770.200000	-13.134379	0.310249	2.290624	2.273296	3.652545	4.191877	10.768876	-8.528339	-4.089680	4.013380	-2.899400	0.908567	-0.129882	0.374999	-1.000000	-1.000000	-1.000000	-1.000000	-1.000000	-1.000000	-1.000000	85.862069	0.000000	-1.000000	-1.000000	158592.000000	1774904251.792375
31449.600000	11579.850000	32713.200000	40320.405000	13553.955000	-53559.810000	-45691.245000	-11744.325000	-22.641949	-14.858697	-16.433813	-17.614125	-16.905741	-15.865024	-1.287644	-15.101005	-4.089680	4.013380	-2.899400	0.908567	-0.129882	0.374999	-1.000000	-1.000000	-1.000000	-1.000000	-1.000000	-1.000000	-1.000000	85.862069	0.000000	-1.000000	-1.000000	158593.000000	1774904251.796300
31424.985000	11569.455000	32707.215000	40304.295000	13538.115000	-53575.245000	-45721.080000	-11775.915000	-17.654395	-19.518212	-22.178449	-24.131510	-24.593526	-23.787431	-8.029537	-8.974178	-4.089680	4.013380	-2.899400	0.908567	-0.129882	0.374999	-1.000000	-1.000000	-1.000000	-1.000000	-1.000000	-1.000000	-1.000000	85.862069	0.000000	-1.000000	-1.000000	158594.000000	1774904251.796309
31384.260000	11527.605000	32685.480000	40269.645000	13500.315000	-53612.415000	-45756.990000	-11804.805000	-7.440010	-15.378853	-16.212509	-19.009468	-20.224055	-19.924760	-10.120236	0.691289	-4.089680	4.013380	-2.899400	0.908567	-0.129882	0.374999	-1.000000	-1.000000	-1.000000	-1.000000	-1.000000	-1.000000	-1.000000	85.862069	0.000000	-1.000000	-1.000000	158595.000000	1774904251.803105
31397.940000	11530.665000	32691.105000	40277.520000	13508.370000	-53607.825000	-45746.640000	-11779.920000	-2.374739	-9.722057	-7.158104	-11.122977	-12.431817	-12.428428	-11.618249	4.031370	-4.089680	4.013380	-2.899400	0.908567	-0.129882	0.374999	-1.000000	-1.000000	-1.000000	-1.000000	-1.000000	-1.000000	-1.000000	85.862069	0.000000	-1.000000	-1.000000	158596.000000	1774904251.803117
31407.255000	11550.825000	32694.030000	40289.310000	13523.985000	-53592.480000	-45734.580000	-11788.920000	-3.564007	-6.374752	-1.585829	-6.094112	-7.023584	-7.028289	-13.164524	-0.066981	-4.089680	4.013380	-2.899400	0.908567	-0.129882	0.374999	-1.000000	-1.000000	-1.000000	-1.000000	-1.000000	-1.000000	-1.000000	85.862069	0.000000	-1.000000	-1.000000	158597.000000	1774904251.804540
31385.835000	11546.685000	32673.780000	40279.635000	13519.350000	-53592.615000	-45732.105000	-11815.830000	-4.963209	-3.273647	-0.018147	-2.895078	-3.063220	-2.961386	-11.917236	-6.793050	-4.089680	4.013380	-2.899400	0.908567	-0.129882	0.374999	-1.000000	-1.000000	-1.000000	-1.000000	-1.000000	-1.000000	-1.000000	85.862069	0.000000	-1.000000	-1.000000	158598.000000	1774904251.804552
31338.675000	11529.405000	32648.850000	40264.200000	13505.895000	-53605.170000	-45739.035000	-11839.230000	-3.102199	1.268672	-0.629668	0.513804	1.385827	1.642527	-6.533005	-11.893994	-4.089680	4.013380	-2.899400	0.908567	-0.129882	0.374999	-1.000000	-1.000000	-1.000000	-1.000000	-1.000000	-1.000000	-1.000000	85.862069	0.000000	-1.000000	-1.000000	158599.000000	1774904251.808353
31359.420000	11531.835000	32669.955000	40267.440000	13503.330000	-53607.420000	-45747.765000	-11835.495000	0.270658	5.313045	-2.001711	3.396510	5.219075	5.652406	0.537182	-12.807886	-4.089680	4.013380	-2.899400	0.908567	-0.129882	0.374999	-1.000000	-1.000000	-1.000000	-1.000000	-1.000000	-1.000000	-1.000000	85.862069	0.000000	-1.000000	-1.000000	158600.000000	1774904251.808368
31378.230000	11520.360000	32688.675000	40262.220000	13489.560000	-53621.730000	-45762.300000	-11855.925000	3.414234	6.589351	-1.982792	4.507828	6.508598	6.949495	5.278048	-8.803090	-3.052000	4.181240	-2.456860	0.909727	-0.132568	0.375304	-1.000000	-1.000000	-1.000000	-1.000000	-1.000000	-1.000000	-1.000000	85.862069	0.000000	-1.000000	-1.000000	158601.000000	1774904251.822631
31379.130000	11514.645000	32693.130000	40267.980000	13497.210000	-53614.845000	-45761.265000	-11875.095000	6.599336	5.186637	1.561728	4.516978	5.412856	5.477555	5.965640	-1.829727	-3.052000	4.181240	-2.456860	0.909727	-0.132568	0.375304	-1.000000	-1.000000	-1.000000	-1.000000	-1.000000	-1.000000	-1.000000	85.862069	0.000000	-1.000000	-1.000000	158602.000000	1774904251.822646
31397.130000	11537.730000	32696.550000	40277.160000	13514.445000	-53597.520000	-45746.370000	-11818.395000	10.094779	3.434342	7.777513	5.372802	4.490170	3.872816	5.179822	6.403364	-3.052000	4.181240	-2.456860	0.909727	-0.132568	0.375304	-1.000000	-1.000000	-1.000000	-1.000000	-1.000000	-1.000000	-1.000000	85.862069	0.000000	-1.000000	-1.000000	158603.000000	1774904251.822661
31413.645000	11542.185000	32679.630000	40275.405000	13515.930000	-53596.620000	-45738.180000	-11765.250000	13.422762	4.197993	12.735357	7.899958	6.085735	4.906979	6.790478	16.519771	-3.052000	4.181240	-2.456860	0.909727	-0.132568	0.375304	-1.000000	-1.000000	-1.000000	-1.000000	-1.000000	-1.000000	-1.000000	85.862069	0.000000	-1.000000	-1.000000	158604.000000	1774904251.822666
31438.215000	11564.370000	32710.050000	40310.370000	13544.820000	-53568.990000	-45714.960000	-11741.535000	14.814219	7.383096	12.702398	10.278268	9.010848	7.828345	10.608697	26.636193	-3.052000	4.181240	-2.456860	0.909727	-0.132568	0.375304	-1.000000	-1.000000	-1.000000	-1.000000	-1.000000	-1.000000	-1.000000	85.862069	0.000000	-1.000000	-1.000000	158605.000000	1774904251.822672
31450.995000	11578.320000	32749.920000	40337.505000	13569.705000	-53542.755000	-45699.480000	-11747.385000	12.121389	9.515455	8.173249	10.310852	10.033163	9.430613	12.659657	30.090875	-3.052000	4.181240	-2.456860	0.909727	-0.132568	0.375304	-1.000000	-1.000000	-1.000000	-1.000000	-1.000000	-1.000000	-1.000000	85.862069	0.000000	-1.000000	-1.000000	158606.000000	1774904251.822677
