Channel1	Channel2	Channel3	Channel4	Channel5	Channel6	Channel7	Channel8	FilteredChannel1	FilteredChannel2	FilteredChannel3	FilteredChannel4	FilteredChannel5	FilteredChannel6	FilteredChannel7	FilteredChannel8	GyroX	GyroY	GyroZ	AccX	AccY	AccZ	PPG1	PPG2	rawPPG1	rawPPG2	rawPPG3	Hr	Hrv	Battery	Trigger	PhysicalTrigger	AutoTrigger	NumMeasurements	Timestamp
32722.830000	9179.460000	31561.020000	38557.125000	14198.310000	-53342.145000	-46722.780000	-11590.920000	21.797447	11.316178	25.075384	15.610859	8.334353	5.735394	2.594071	20.847852	-0.640920	3.738700	-0.976640	0.871824	-0.191223	0.440978	-1.000000	-1.000000	-1.000000	-1.000000	-1.000000	-1.000000	-1.000000	85.724138	0.000000	-1.000000	-1.000000	188375.000000	1774904311.336374
32672.070000	9117.675000	31496.310000	38495.430000	14140.260000	-53396.820000	-46774.485000	-11657.115000	24.551938	9.840465	21.818534	15.894859	9.983992	8.308848	5.705720	21.043328	-0.640920	3.738700	-0.976640	0.871824	-0.191223	0.440978	-1.000000	-1.000000	-1.000000	-1.000000	-1.000000	-1.000000	-1.000000	85.724138	0.000000	-1.000000	-1.000000	188376.000000	1774904311.336389
32629.860000	9068.670000	31438.800000	38435.760000	14077.620000	-53462.430000	-46830.195000	-11717.010000	11.687809	1.465251	6.837260	7.058956	4.942254	4.506168	4.560230	7.899003	-0.640920	3.738700	-0.976640	0.871824	-0.191223	0.440978	-1.000000	-1.000000	-1.000000	-1.000000	-1.000000	-1.000000	-1.000000	85.724138	0.000000	-1.000000	-1.000000	188377.000000	1774904311.336403
32616.405000	9058.545000	31419.270000	38409.210000	14048.910000	-53492.805000	-46856.610000	-11739.780000	-15.452304	-15.035453	-16.968207	-11.806684	-10.184839	-9.804622	-4.997118	-18.144442	-0.640920	3.738700	-0.976640	0.871824	-0.191223	0.440978	-1.000000	-1.000000	-1.000000	-1.000000	-1.000000	-1.000000	-1.000000	85.724138	0.000000	-1.000000	-1.000000	188378.000000	1774904311.336408
32658.075000	9103.275000	31457.205000	38443.095000	14082.750000	-53457.660000	-46844.415000	-11706.480000	-41.322700	-31.059604	-38.287376	-31.571825	-27.978520	-27.270394	-18.146329	-43.692829	-0.640920	3.738700	-0.976640	0.871824	-0.191223	0.440978	-1.000000	-1.000000	-1.000000	-1.000000	-1.000000	-1.000000	-1.000000	85.724138	0.000000	-1.000000	-1.000000	188379.000000	1774904311.340305
32644.395000	9094.950000	31454.775000	38448.630000	14093.100000	-53443.890000	-46829.340000	-11699.820000	-47.825798	-33.633881	-43.854620	-38.440687	-34.644849	-33.705740	-24.177807	-51.235306	-0.640920	3.738700	-0.976640	0.871824	-0.191223	0.440978	-1.000000	-1.000000	-1.000000	-1.000000	-1.000000	-1.000000	-1.000000	85.724138	0.000000	-1.000000	-1.000000	188380.000000	1774904311.340318
32654.790000	9100.935000	31461.795000	38464.110000	14109.840000	-53427.870000	-46803.195000	-11679.255000	-30.620752	-18.937130	-30.077808	-26.576949	-23.182962	-21.915858	-16.611179	-34.321013	-1.510740	3.280900	-0.549360	0.871580	-0.190246	0.442748	-1.000000	-1.000000	-1.000000	-1.000000	-1.000000	-1.000000	-1.000000	85.724138	0.000000	-1.000000	-1.000000	188381.000000	1774904311.344172
32660.685000	9110.970000	31468.905000	38467.980000	14111.055000	-53429.265000	-46782.765000	-11664.270000	-1.182451	3.531199	-6.041602	-3.455894	-0.242218	1.196995	1.170030	-2.282207	-1.510740	3.280900	-0.549360	0.871580	-0.190246	0.442748	-1.000000	-1.000000	-1.000000	-1.000000	-1.000000	-1.000000	-1.000000	85.724138	0.000000	-1.000000	-1.000000	188382.000000	1774904311.344182
32634.630000	9097.785000	31462.155000	38458.440000	14107.005000	-53431.380000	-46776.195000	-11690.280000	24.200126	20.553818	15.361806	17.395959	20.287211	21.390253	19.143784	27.896107	-1.510740	3.280900	-0.549360	0.871580	-0.190246	0.442748	-1.000000	-1.000000	-1.000000	-1.000000	-1.000000	-1.000000	-1.000000	85.724138	0.000000	-1.000000	-1.000000	188383.000000	1774904311.348685
32639.085000	9104.535000	31468.680000	38462.850000	14114.970000	-53423.055000	-46787.265000	-11697.390000	35.153098	25.927301	27.196235	27.369836	29.068891	29.269084	28.151313	42.768297	-1.510740	3.280900	-0.549360	0.871580	-0.190246	0.442748	-1.000000	-1.000000	-1.000000	-1.000000	-1.000000	-1.000000	-1.000000	85.724138	0.000000	-1.000000	-1.000000	188384.000000	1774904311.348696
32618.565000	9077.175000	31442.445000	38429.910000	14078.565000	-53461.125000	-46823.040000	-11716.290000	31.309647	22.224369	30.111445	26.783870	26.317793	25.310415	25.204449	39.591537	-1.510740	3.280900	-0.549360	0.871580	-0.190246	0.442748	-1.000000	-1.000000	-1.000000	-1.000000	-1.000000	-1.000000	-1.000000	85.724138	0.000000	-1.000000	-1.000000	188385.000000	1774904311.353576
32619.780000	9071.325000	31435.155000	38418.120000	14066.955000	-53472.420000	-46840.680000	-11754.270000	18.687697	14.535652	26.920768	20.103215	17.165821	15.192347	13.431083	24.328882	-1.510740	3.280900	-0.549360	0.871580	-0.190246	0.442748	-1.000000	-1.000000	-1.000000	-1.000000	-1.000000	-1.000000	-1.000000	85.724138	0.000000	-1.000000	-1.000000	188386.000000	1774904311.353587
32653.170000	9097.830000	31460.760000	38455.875000	14103.945000	-53436.240000	-46818.360000	-11748.150000	4.363347	5.761689	18.871783	11.099332	6.518002	4.450518	-0.863354	4.590841	-1.510740	3.280900	-0.549360	0.871580	-0.190246	0.442748	-1.000000	-1.000000	-1.000000	-1.000000	-1.000000	-1.000000	-1.000000	85.724138	0.000000	-1.000000	-1.000000	188387.000000	1774904311.357185
32661.855000	9135.810000	31498.470000	38503.980000	14151.555000	-53387.325000	-46788.255000	-11751.255000	-6.214100	-2.079675	7.407362	2.782723	-1.798626	-2.966513	-11.198753	-13.183622	-1.510740	3.280900	-0.549360	0.871580	-0.190246	0.442748	-1.000000	-1.000000	-1.000000	-1.000000	-1.000000	-1.000000	-1.000000	85.724138	0.000000	-1.000000	-1.000000	188388.000000	1774904311.357195
32699.745000	9210.105000	31573.575000	38567.970000	14213.970000	-53324.370000	-46721.250000	-11701.305000	-10.447468	-5.759077	-3.364548	-2.101807	-5.156053	-4.991606	-13.543224	-23.273416	-1.510740	3.280900	-0.549360	0.871580	-0.190246	0.442748	-1.000000	-1.000000	-1.000000	-1.000000	-1.000000	-1.000000	-1.000000	85.724138	0.000000	-1.000000	-1.000000	188389.000000	1774904311.361634
32710.635000	9194.310000	31567.635000	38560.860000	14208.120000	-53331.345000	-46695.465000	-11604.015000	-8.749122	-3.846505	-9.284357	-3.267931	-4.000690	-2.764137	-8.200322	-21.110137	-1.510740	3.280900	-0.549360	0.871580	-0.190246	0.442748	-1.000000	-1.000000	-1.000000	-1.000000	-1.000000	-1.000000	-1.000000	85.724138	0.000000	-1.000000	-1.000000	188390.000000	1774904311.361645
32660.730000	9087.255000	31456.935000	38449.620000	14101.920000	-53436.870000	-46760.895000	-11601.720000	-4.989646	-2.173458	-12.613577	-5.772465	-4.153248	-2.467198	-1.234233	-6.906456	-2.655240	2.990960	-1.312360	0.870664	-0.188537	0.443358	-1.000000	-1.000000	-1.000000	-1.000000	-1.000000	-1.000000	-1.000000	85.724138	0.000000	-1.000000	-1.000000	188391.000000	1774904311.364163
32604.255000	9016.560000	31373.055000	38365.110000	14021.505000	-53513.280000	-46826.100000	-11699.190000	-4.770811	-9.261361	-20.201355	-16.078560	-12.787694	-11.283442	-1.407047	9.678722	-2.655240	2.990960	-1.312360	0.870664	-0.188537	0.443358	-1.000000	-1.000000	-1.000000	-1.000000	-1.000000	-1.000000	-1.000000	85.724138	0.000000	-1.000000	-1.000000	188392.000000	1774904311.364172
32582.655000	9023.985000	31389.930000	38383.020000	14035.680000	-53504.280000	-46834.965000	-11742.975000	-9.874043	-23.325257	-31.213752	-31.089155	-27.482096	-26.650516	-10.402693	14.752197	-2.655240	2.990960	-1.312360	0.870664	-0.188537	0.443358	-1.000000	-1.000000	-1.000000	-1.000000	-1.000000	-1.000000	-1.000000	85.724138	0.000000	-1.000000	-1.000000	188393.000000	1774904311.368212
32590.305000	9046.755000	31410.360000	38397.915000	14049.000000	-53490.870000	-46821.960000	-11714.670000	-15.312471	-30.639748	-33.515603	-36.384053	-34.007694	-34.156460	-18.563207	5.085781	-2.655240	2.990960	-1.312360	0.870664	-0.188537	0.443358	-1.000000	-1.000000	-1.000000	-1.000000	-1.000000	-1.000000	-1.000000	85.724138	0.000000	-1.000000	-1.000000	188394.000000	1774904311.368219
32609.745000	9072.360000	31426.965000	38409.840000	14060.385000	-53480.475000	-46815.165000	-11692.890000	-14.030203	-20.163736	-17.775599	-21.559183	-21.284628	-22.340280	-15.220754	-7.994858	-2.655240	2.990960	-1.312360	0.870664	-0.188537	0.443358	-1.000000	-1.000000	-1.000000	-1.000000	-1.000000	-1.000000	-1.000000	85.724138	0.000000	-1.000000	-1.000000	188395.000000	1774904311.372153
32664.330000	9106.830000	31453.785000	38437.335000	14087.565000	-53455.230000	-46805.985000	-11687.760000	-3.884929	4.375591	10.069285	6.951558	5.390151	3.936153	-0.691080	-12.650339	-2.655240	2.990960	-1.312360	0.870664	-0.188537	0.443358	-1.000000	-1.000000	-1.000000	-1.000000	-1.000000	-1.000000	-1.000000	85.724138	0.000000	-1.000000	-1.000000	188396.000000	1774904311.372164
32684.040000	9108.135000	31455.225000	38442.960000	14095.800000	-53446.815000	-46796.715000	-11680.065000	10.978474	28.033027	33.675604	31.824976	29.554401	28.286581	14.772505	-7.837536	-2.655240	2.990960	-1.312360	0.870664	-0.188537	0.443358	-1.000000	-1.000000	-1.000000	-1.000000	-1.000000	-1.000000	-1.000000	85.724138	0.000000	-1.000000	-1.000000	188397.000000	1774904311.376169
32677.335000	9099.495000	31450.680000	38444.940000	14100.525000	-53443.260000	-46797.840000	-11678.265000	22.574328	36.481439	39.412082	39.214491	37.597457	36.885247	20.672487	-0.842460	-2.655240	2.990960	-1.312360	0.870664	-0.188537	0.443358	-1.000000	-1.000000	-1.000000	-1.000000	-1.000000	-1.000000	-1.000000	85.724138	0.000000	-1.000000	-1.000000	188398.000000	1774904311.376180
32681.655000	9125.055000	31480.830000	38472.705000	14124.330000	-53424.180000	-46787.040000	-11662.785000	23.894192	26.957379	26.716080	28.608709	28.459522	28.399089	14.580465	0.948548	-2.655240	2.990960	-1.312360	0.870664	-0.188537	0.443358	-1.000000	-1.000000	-1.000000	-1.000000	-1.000000	-1.000000	-1.000000	85.724138	0.000000	-1.000000	-1.000000	188399.000000	1774904311.380158
32706.135000	9151.245000	31525.965000	38516.670000	14169.735000	-53377.290000	-46757.205000	-11622.015000	15.777798	10.898296	9.367229	12.947747	13.901732	14.282347	4.374498	-1.679470	-2.655240	2.990960	-1.312360	0.870664	-0.188537	0.443358	-1.000000	-1.000000	-1.000000	-1.000000	-1.000000	-1.000000	-1.000000	85.724138	0.000000	-1.000000	-1.000000	188400.000000	1774904311.380170
32709.060000	9141.120000	31522.545000	38516.220000	14172.885000	-53368.245000	-46757.745000	-11643.255000	5.980312	1.494576	1.725694	5.451549	6.378703	6.938263	0.528494	-0.388495	-3.998120	2.609460	-1.388660	0.869810	-0.186828	0.442565	-1.000000	-1.000000	-1.000000	-1.000000	-1.000000	-1.000000	-1.000000	85.724138	0.000000	-1.000000	-1.000000	188401.000000	1774904311.384074
32675.175000	9121.005000	31492.170000	38486.070000	14142.735000	-53398.665000	-46776.285000	-11695.005000	-0.651938	-0.347891	3.172283	5.433610	5.648740	6.479241	4.560679	7.580283	-3.998120	2.609460	-1.388660	0.869810	-0.186828	0.442565	-1.000000	-1.000000	-1.000000	-1.000000	-1.000000	-1.000000	-1.000000	85.724138	0.000000	-1.000000	-1.000000	188402.000000	1774904311.384081
32646.645000	9106.245000	31423.545000	38435.265000	14107.815000	-53430.210000	-46793.340000	-11694.105000	-6.474922	-3.043817	1.266925	1.721433	1.660423	3.031181	8.394223	13.942849	-3.998120	2.609460	-1.388660	0.869810	-0.186828	0.442565	-1.000000	-1.000000	-1.000000	-1.000000	-1.000000	-1.000000	-1.000000	85.724138	0.000000	-1.000000	-1.000000	188403.000000	1774904311.388067
32648.310000	9090.990000	31338.810000	38389.545000	14077.845000	-53458.425000	-46799.415000	-11663.685000	-14.910538	-12.110697	-13.039699	-12.792273	-11.825063	-9.966811	4.512357	11.286454	-3.998120	2.609460	-1.388660	0.869810	-0.186828	0.442565	-1.000000	-1.000000	-1.000000	-1.000000	-1.000000	-1.000000	-1.000000	85.724138	0.000000	-1.000000	-1.000000	188404.000000	1774904311.388079
32626.440000	9075.645000	31373.460000	38403.000000	14070.960000	-53470.755000	-46804.500000	-11696.085000	-24.520219	-24.942249	-35.272446	-33.240245	-30.538586	-28.774795	-6.823900	1.413065	-3.998120	2.609460	-1.388660	0.869810	-0.186828	0.442565	-1.000000	-1.000000	-1.000000	-1.000000	-1.000000	-1.000000	-1.000000	85.724138	0.000000	-1.000000	-1.000000	188405.000000	1774904311.392254
32612.850000	9060.660000	31466.655000	38430.450000	14079.600000	-53465.760000	-46810.935000	-11736.900000	-29.964250	-33.796188	-48.071573	-45.886672	-43.228118	-42.556202	-19.239247	-10.285433	-3.998120	2.609460	-1.388660	0.869810	-0.186828	0.442565	-1.000000	-1.000000	-1.000000	-1.000000	-1.000000	-1.000000	-1.000000	85.724138	0.000000	-1.000000	-1.000000	188406.000000	1774904311.392265
32620.320000	9077.805000	31510.620000	38457.270000	14094.720000	-53451.945000	-46799.460000	-11705.940000	-25.954983	-31.327926	-35.543785	-39.053549	-39.911238	-41.086639	-25.460745	-19.521387	-3.998120	2.609460	-1.388660	0.869810	-0.186828	0.442565	-1.000000	-1.000000	-1.000000	-1.000000	-1.000000	-1.000000	-1.000000	85.724138	0.000000	-1.000000	-1.000000	188407.000000	1774904311.396168
32668.065000	9133.560000	31517.190000	38486.070000	14131.125000	-53415.990000	-46774.890000	-11660.895000	-10.369011	-14.704491	-0.434811	-12.929972	-18.866602	-21.605376	-20.913615	-21.234152	-3.998120	2.609460	-1.388660	0.869810	-0.186828	0.442565	-1.000000	-1.000000	-1.000000	-1.000000	-1.000000	-1.000000	-1.000000	85.724138	0.000000	-1.000000	-1.000000	188408.000000	1774904311.396177
32718.825000	9147.330000	31510.845000	38488.500000	14140.935000	-53405.820000	-46775.520000	-11653.965000	13.675780	11.921303	36.648416	20.272174	11.799640	8.675372	-6.294358	-11.554292	-3.998120	2.609460	-1.388660	0.869810	-0.186828	0.442565	-1.000000	-1.000000	-1.000000	-1.000000	-1.000000	-1.000000	-1.000000	85.724138	0.000000	-1.000000	-1.000000	188409.000000	1774904311.402887
32706.405000	9124.920000	31480.200000	38466.720000	14121.630000	-53425.665000	-46803.555000	-11669.850000	37.076841	36.853684	54.274490	44.053358	37.970748	35.652570	11.414238	6.679735	-3.998120	2.609460	-1.388660	0.869810	-0.186828	0.442565	-1.000000	-1.000000	-1.000000	-1.000000	-1.000000	-1.000000	-1.000000	85.724138	0.000000	-1.000000	-1.000000	188410.000000	1774904311.402900
32663.025000	9093.825000	31446.855000	38434.635000	14090.625000	-53454.870000	-46818.405000	-11698.740000	47.658115	46.426106	44.775032	47.486672	47.378135	46.533633	22.920974	23.839081	-3.189340	2.395820	-0.350980	0.867735	-0.186950	0.443297	-1.000000	-1.000000	-1.000000	-1.000000	-1.000000	-1.000000	-1.000000	85.724138	0.000000	-1.000000	-1.000000	188411.000000	1774904311.404277
32636.475000	9089.280000	31451.445000	38426.580000	14078.205000	-53467.785000	-46815.615000	-11712.240000	37.636619	34.894934	17.275706	31.425389	36.978356	37.678949	23.317626	29.258696	-3.189340	2.395820	-0.350980	0.867735	-0.186950	0.443297	-1.000000	-1.000000	-1.000000	-1.000000	-1.000000	-1.000000	-1.000000	85.724138	0.000000	-1.000000	-1.000000	188412.000000	1774904311.404289
32590.440000	9086.130000	31467.420000	38437.920000	14092.020000	-53448.705000	-46803.420000	-11735.415000	9.803184	8.990478	-10.395073	6.519228	14.097622	15.965417	14.696827	18.663906	-3.189340	2.395820	-0.350980	0.867735	-0.186950	0.443297	-1.000000	-1.000000	-1.000000	-1.000000	-1.000000	-1.000000	-1.000000	85.724138	0.000000	-1.000000	-1.000000	188413.000000	1774904311.409707
32637.600000	9110.025000	31484.340000	38465.730000	14125.500000	-53415.090000	-46794.510000	-11711.475000	-22.261757	-16.849301	-25.848982	-14.844683	-8.771013	-6.210774	3.129361	-1.152802	-3.189340	2.395820	-0.350980	0.867735	-0.186950	0.443297	-1.000000	-1.000000	-1.000000	-1.000000	-1.000000	-1.000000	-1.000000	85.724138	0.000000	-1.000000	-1.000000	188414.000000	1774904311.409718
32680.035000	9126.855000	31500.855000	38496.195000	14158.935000	-53388.405000	-46794.825000	-11698.740000	-40.473380	-29.771823	-28.867884	-25.182139	-21.376482	-18.682922	-5.997859	-16.788791	-3.189340	2.395820	-0.350980	0.867735	-0.186950	0.443297	-1.000000	-1.000000	-1.000000	-1.000000	-1.000000	-1.000000	-1.000000	85.724138	0.000000	-1.000000	-1.000000	188415.000000	1774904311.412211
32714.730000	9155.340000	31511.385000	38512.440000	14179.230000	-53370.540000	-46783.710000	-11665.755000	-34.932962	-26.108541	-24.653614	-23.570555	-20.933841	-19.017594	-10.470385	-19.976703	-3.189340	2.395820	-0.350980	0.867735	-0.186950	0.443297	-1.000000	-1.000000	-1.000000	-1.000000	-1.000000	-1.000000	-1.000000	85.724138	0.000000	-1.000000	-1.000000	188416.000000	1774904311.412223
32710.500000	9154.755000	31485.960000	38475.990000	14138.730000	-53412.660000	-46780.785000	-11663.145000	-12.598486	-12.349402	-16.594227	-14.824612	-12.964107	-12.752477	-10.693601	-12.864633	-3.189340	2.395820	-0.350980	0.867735	-0.186950	0.443297	-1.000000	-1.000000	-1.000000	-1.000000	-1.000000	-1.000000	-1.000000	85.724138	0.000000	-1.000000	-1.000000	188417.000000	1774904311.416170
32664.330000	9101.970000	31467.420000	38446.830000	14102.235000	-53444.520000	-46774.170000	-11689.515000	8.858025	0.718729	-6.699742	-6.292240	-6.553241	-8.216550	-7.732633	-2.711435	-3.189340	2.395820	-0.350980	0.867735	-0.186950	0.443297	-1.000000	-1.000000	-1.000000	-1.000000	-1.000000	-1.000000	-1.000000	85.724138	0.000000	-1.000000	-1.000000	188418.000000	1774904311.416179
32596.335000	9031.770000	31429.260000	38403.765000	14059.530000	-53484.705000	-46792.125000	-11718.045000	15.746144	5.225436	2.893889	-2.197569	-6.179224	-8.795384	-2.527528	4.543322	-3.189340	2.395820	-0.350980	0.867735	-0.186950	0.443297	-1.000000	-1.000000	-1.000000	-1.000000	-1.000000	-1.000000	-1.000000	85.724138	0.000000	-1.000000	-1.000000	188419.000000	1774904311.423599
32574.870000	9012.870000	31391.955000	38366.910000	14023.170000	-53523.090000	-46821.870000	-11735.370000	7.764443	0.632340	10.091300	-1.542730	-8.932652	-11.097025	2.633241	6.621810	-3.189340	2.395820	-0.350980	0.867735	-0.186950	0.443297	-1.000000	-1.000000	-1.000000	-1.000000	-1.000000	-1.000000	-1.000000	85.724138	0.000000	-1.000000	-1.000000	188420.000000	1774904311.423611
32597.280000	9040.230000	31418.370000	38399.085000	14056.740000	-53490.240000	-46814.670000	-11711.205000	-4.154995	-6.208105	13.620021	-0.744421	-8.959007	-9.858898	4.417381	4.795934	-0.564620	3.021480	-0.198380	0.866453	-0.187438	0.442748	-1.000000	-1.000000	-1.000000	-1.000000	-1.000000	-1.000000	-1.000000	85.724138	0.000000	-1.000000	-1.000000	188421.000000	1774904311.424226
32602.455000	9059.490000	31439.160000	38427.930000	14092.065000	-53450.370000	-46801.485000	-11706.615000	-8.223149	-6.752491	13.940711	3.251474	-2.378082	-2.115164	2.152278	2.562687	-0.564620	3.021480	-0.198380	0.866453	-0.187438	0.442748	-1.000000	-1.000000	-1.000000	-1.000000	-1.000000	-1.000000	-1.000000	85.724138	0.000000	-1.000000	-1.000000	188422.000000	1774904311.424237
32638.320000	9091.755000	31453.020000	38438.505000	14103.495000	-53438.940000	-46797.570000	-11711.430000	-1.707456	1.632760	11.736629	9.764254	9.146812	10.145350	-1.302297	2.017554	-0.564620	3.021480	-0.198380	0.866453	-0.187438	0.442748	-1.000000	-1.000000	-1.000000	-1.000000	-1.000000	-1.000000	-1.000000	85.724138	0.000000	-1.000000	-1.000000	188423.000000	1774904311.429951
32684.670000	9114.705000	31452.660000	38433.555000	14097.330000	-53447.715000	-46804.905000	-11695.005000	9.183791	13.912645	6.788884	13.964518	18.445046	19.874989	-3.122488	1.713631	-0.564620	3.021480	-0.198380	0.866453	-0.187438	0.442748	-1.000000	-1.000000	-1.000000	-1.000000	-1.000000	-1.000000	-1.000000	85.724138	0.000000	-1.000000	-1.000000	188424.000000	1774904311.429962
32679.810000	9120.780000	31465.890000	38449.620000	14114.970000	-53430.480000	-46786.995000	-11674.845000	16.527660	21.804878	0.226564	12.140648	19.336101	20.873965	-2.721414	-0.216907	-0.564620	3.021480	-0.198380	0.866453	-0.187438	0.442748	-1.000000	-1.000000	-1.000000	-1.000000	-1.000000	-1.000000	-1.000000	85.724138	0.000000	-1.000000	-1.000000	188425.000000	1774904311.432763
32698.305000	9155.835000	31514.175000	38495.790000	14158.170000	-53387.325000	-46754.685000	-11644.245000	15.889303	20.498564	-3.813084	6.897058	13.409962	14.534534	-0.264996	-2.413191	-0.564620	3.021480	-0.198380	0.866453	-0.187438	0.442748	-1.000000	-1.000000	-1.000000	-1.000000	-1.000000	-1.000000	-1.000000	85.724138	0.000000	-1.000000	-1.000000	188426.000000	1774904311.432776
32729.805000	9174.420000	31535.010000	38506.545000	14163.930000	-53382.420000	-46748.745000	-11634.075000	9.523759	13.126743	-1.103514	4.468640	7.753067	7.887139	4.223850	-1.241814	-0.564620	3.021480	-0.198380	0.866453	-0.187438	0.442748	-1.000000	-1.000000	-1.000000	-1.000000	-1.000000	-1.000000	-1.000000	85.724138	0.000000	-1.000000	-1.000000	188427.000000	1774904311.436049
32683.005000	9137.340000	31496.670000	38473.020000	14127.705000	-53419.320000	-46781.955000	-11676.645000	3.588568	5.884460	6.910519	6.530804	5.797936	4.660282	8.882831	3.782378	-0.564620	3.021480	-0.198380	0.866453	-0.187438	0.442748	-1.000000	-1.000000	-1.000000	-1.000000	-1.000000	-1.000000	-1.000000	85.724138	0.000000	-1.000000	-1.000000	188428.000000	1774904311.436063
32622.435000	9072.855000	31437.585000	38419.245000	14079.420000	-53467.785000	-46821.330000	-11693.250000	-1.059800	-1.170864	11.736726	7.237990	3.448036	1.392180	9.451594	7.315201	-0.564620	3.021480	-0.198380	0.866453	-0.187438	0.442748	-1.000000	-1.000000	-1.000000	-1.000000	-1.000000	-1.000000	-1.000000	85.724138	0.000000	-1.000000	-1.000000	188429.000000	1774904311.448582
32622.030000	9064.125000	31440.960000	38424.735000	14087.295000	-53458.245000	-46803.375000	-11655.405000	-8.610213	-12.387346	5.209281	-0.283530	-4.926803	-6.991171	3.306794	4.550050	-0.564620	3.021480	-0.198380	0.866453	-0.187438	0.442748	-1.000000	-1.000000	-1.000000	-1.000000	-1.000000	-1.000000	-1.000000	85.724138	0.000000	-1.000000	-1.000000	188430.000000	1774904311.448596
32673.240000	9124.515000	31484.655000	38460.375000	14123.520000	-53422.830000	-46778.445000	-11635.965000	-18.068704	-25.670684	-10.723361	-14.720905	-17.940439	-19.128394	-6.204057	-2.173241	-1.587040	2.685760	-0.412020	0.865965	-0.185668	0.440490	-1.000000	-1.000000	-1.000000	-1.000000	-1.000000	-1.000000	-1.000000	85.724138	0.000000	-1.000000	-1.000000	188431.000000	1774904311.448629
32673.780000	9116.685000	31466.160000	38438.235000	14100.525000	-53448.615000	-46797.975000	-11670.525000	-22.766329	-31.720312	-24.899510	-26.630210	-27.304003	-27.259024	-12.427427	-7.631324	-1.587040	2.685760	-0.412020	0.865965	-0.185668	0.440490	-1.000000	-1.000000	-1.000000	-1.000000	-1.000000	-1.000000	-1.000000	85.724138	0.000000	-1.000000	-1.000000	188432.000000	1774904311.448635
32643.315000	9071.550000	31425.165000	38401.245000	14068.170000	-53478.090000	-46813.725000	-11729.295000	-19.890467	-26.000638	-28.654104	-28.624233	-27.026613	-25.894677	-12.425817	-11.435770	-1.587040	2.685760	-0.412020	0.865965	-0.185668	0.440490	-1.000000	-1.000000	-1.000000	-1.000000	-1.000000	-1.000000	-1.000000	85.724138	0.000000	-1.000000	-1.000000	188433.000000	1774904311.448641
32624.910000	9043.605000	31401.900000	38393.460000	14058.135000	-53489.295000	-46817.595000	-11736.315000	-12.606823	-13.622717	-22.269260	-21.049259	-18.298033	-16.481974	-8.497668	-15.945358	-1.587040	2.685760	-0.412020	0.865965	-0.185668	0.440490	-1.000000	-1.000000	-1.000000	-1.000000	-1.000000	-1.000000	-1.000000	85.724138	0.000000	-1.000000	-1.000000	188434.000000	1774904311.448646
32624.820000	9060.615000	31430.610000	38423.205000	14088.825000	-53458.380000	-46797.030000	-11720.655000	-4.240612	-1.170407	-10.347731	-7.861533	-5.228317	-3.336486	-3.711835	-18.843168	-1.587040	2.685760	-0.412020	0.865965	-0.185668	0.440490	-1.000000	-1.000000	-1.000000	-1.000000	-1.000000	-1.000000	-1.000000	85.724138	0.000000	-1.000000	-1.000000	188435.000000	1774904311.452341
32606.730000	9081.720000	31444.920000	38435.580000	14109.570000	-53435.655000	-46783.845000	-11725.875000	4.369316	10.138262	4.188146	7.956317	9.752779	11.050095	1.610892	-13.961580	-1.587040	2.685760	-0.412020	0.865965	-0.185668	0.440490	-1.000000	-1.000000	-1.000000	-1.000000	-1.000000	-1.000000	-1.000000	85.724138	0.000000	-1.000000	-1.000000	188436.000000	1774904311.452353
32627.250000	9111.285000	31454.640000	38449.575000	14134.050000	-53412.390000	-46774.845000	-11704.005000	13.781014	22.257745	20.079643	24.000296	25.139418	25.483861	8.733734	1.108420	-1.587040	2.685760	-0.412020	0.865965	-0.185668	0.440490	-1.000000	-1.000000	-1.000000	-1.000000	-1.000000	-1.000000	-1.000000	85.724138	0.000000	-1.000000	-1.000000	188437.000000	1774904311.465188
32682.825000	9146.115000	31490.190000	38479.050000	14147.685000	-53400.555000	-46769.265000	-11649.240000	24.391456	34.471917	34.145289	36.161977	36.896571	36.330680	16.502485	21.401525	-1.587040	2.685760	-0.412020	0.865965	-0.185668	0.440490	-1.000000	-1.000000	-1.000000	-1.000000	-1.000000	-1.000000	-1.000000	85.724138	0.000000	-1.000000	-1.000000	188438.000000	1774904311.465201
32707.755000	9166.680000	31529.520000	38493.720000	14147.055000	-53406.135000	-46770.030000	-11619.135000	33.182799	40.638399	40.237479	38.438502	37.818441	36.506130	19.792147	37.050830	-1.587040	2.685760	-0.412020	0.865965	-0.185668	0.440490	-1.000000	-1.000000	-1.000000	-1.000000	-1.000000	-1.000000	-1.000000	85.724138	0.000000	-1.000000	-1.000000	188439.000000	1774904311.466255
32711.805000	9150.165000	31520.970000	38482.110000	14134.860000	-53420.175000	-46774.980000	-11638.440000	32.563488	32.544385	32.603954	26.442562	22.981505	21.123811	13.910904	38.795774	-1.587040	2.685760	-0.412020	0.865965	-0.185668	0.440490	-1.000000	-1.000000	-1.000000	-1.000000	-1.000000	-1.000000	-1.000000	85.724138	0.000000	-1.000000	-1.000000	188440.000000	1774904311.466286
32719.005000	9122.220000	31495.320000	38465.235000	14124.735000	-53430.345000	-46795.005000	-11669.175000	17.636114	8.463180	11.382053	2.918002	-3.055256	-4.963283	0.381981	24.040099	-3.265640	2.289000	-0.915600	0.864744	-0.184753	0.440001	-1.000000	-1.000000	-1.000000	-1.000000	-1.000000	-1.000000	-1.000000	85.724138	0.000000	-1.000000	-1.000000	188441.000000	1774904311.466312
32722.830000	9131.265000	31492.620000	38470.680000	14135.985000	-53416.845000	-46810.620000	-11665.305000	-6.020543	-21.386965	-14.840232	-21.445997	-27.101479	-28.269954	-13.905617	-0.473010	-3.265640	2.289000	-0.915600	0.864744	-0.184753	0.440001	-1.000000	-1.000000	-1.000000	-1.000000	-1.000000	-1.000000	-1.000000	85.724138	0.000000	-1.000000	-1.000000	188442.000000	1774904311.466326
32700.375000	9150.705000	31508.730000	38485.665000	14150.115000	-53402.265000	-46787.040000	-11673.405000	-26.553609	-41.008974	-33.828248	-35.162128	-37.176820	-36.977987	-22.083561	-22.998846	-3.265640	2.289000	-0.915600	0.864744	-0.184753	0.440001	-1.000000	-1.000000	-1.000000	-1.000000	-1.000000	-1.000000	-1.000000	85.724138	0.000000	-1.000000	-1.000000	188443.000000	1774904311.470368
32674.995000	9116.145000	31481.730000	38456.910000	14121.135000	-53430.165000	-46774.845000	-11688.705000	-35.969213	-41.771938	-38.585494	-34.278895	-31.343444	-29.761354	-20.659888	-34.787885	-3.265640	2.289000	-0.915600	0.864744	-0.184753	0.440001	-1.000000	-1.000000	-1.000000	-1.000000	-1.000000	-1.000000	-1.000000	85.724138	0.000000	-1.000000	-1.000000	188444.000000	1774904311.470381
32606.145000	9033.120000	31397.940000	38375.820000	14041.305000	-53506.305000	-46802.430000	-11741.265000	-33.765159	-28.881955	-31.659638	-24.108589	-17.859954	-15.512327	-11.110347	-34.058440	-3.265640	2.289000	-0.915600	0.864744	-0.184753	0.440001	-1.000000	-1.000000	-1.000000	-1.000000	-1.000000	-1.000000	-1.000000	85.724138	0.000000	-1.000000	-1.000000	188445.000000	1774904311.472208
32567.535000	9023.085000	31392.045000	38372.445000	14040.180000	-53508.555000	-46812.735000	-11772.180000	-24.725516	-14.060651	-20.382555	-12.963671	-6.719353	-4.454718	0.689995	-25.094447	-3.265640	2.289000	-0.915600	0.864744	-0.184753	0.440001	-1.000000	-1.000000	-1.000000	-1.000000	-1.000000	-1.000000	-1.000000	85.862069	0.000000	-1.000000	-1.000000	188446.000000	1774904311.472220
32626.395000	9080.685000	31446.810000	38421.855000	14087.475000	-53464.365000	-46794.240000	-11750.355000	-13.668616	-2.916220	-8.634246	-3.887148	-0.163673	1.281978	9.005810	-14.023303	-3.265640	2.289000	-0.915600	0.864744	-0.184753	0.440001	-1.000000	-1.000000	-1.000000	-1.000000	-1.000000	-1.000000	-1.000000	85.862069	0.000000	-1.000000	-1.000000	188447.000000	1774904311.476228
32676.660000	9132.615000	31495.050000	38467.935000	14139.315000	-53413.650000	-46765.530000	-11708.100000	-0.788328	7.527961	4.549259	6.013977	6.977757	7.160851	12.365606	-2.910928	-3.265640	2.289000	-0.915600	0.864744	-0.184753	0.440001	-1.000000	-1.000000	-1.000000	-1.000000	-1.000000	-1.000000	-1.000000	85.862069	0.000000	-1.000000	-1.000000	188448.000000	1774904311.476234
32665.815000	9108.135000	31463.055000	38453.535000	14130.405000	-53419.905000	-46770.570000	-11676.645000	14.423803	19.840230	18.958349	18.310140	17.840746	16.865835	12.587165	10.667395	-3.265640	2.289000	-0.915600	0.864744	-0.184753	0.440001	-1.000000	-1.000000	-1.000000	-1.000000	-1.000000	-1.000000	-1.000000	85.862069	0.000000	-1.000000	-1.000000	188449.000000	1774904311.481808
32597.640000	9061.245000	31436.055000	38427.345000	14102.370000	-53446.905000	-46792.620000	-11664.180000	26.399865	29.446520	29.470322	28.307944	27.484117	25.993864	10.929441	26.856347	-3.265640	2.289000	-0.915600	0.864744	-0.184753	0.440001	-1.000000	-1.000000	-1.000000	-1.000000	-1.000000	-1.000000	-1.000000	85.862069	0.000000	-1.000000	-1.000000	188450.000000	1774904311.481819
32573.925000	9034.695000	31425.210000	38395.980000	14063.130000	-53486.145000	-46812.960000	-11675.880000	27.142309	28.495651	29.882529	28.400588	27.014935	25.695399	6.554717	38.791829	-3.326680	3.555580	-0.808780	0.864134	-0.185974	0.440368	-1.000000	-1.000000	-1.000000	-1.000000	-1.000000	-1.000000	-1.000000	85.862069	0.000000	-1.000000	-1.000000	188451.000000	1774904311.484762
32606.235000	9057.915000	31442.535000	38416.770000	14085.180000	-53464.455000	-46803.780000	-11691.495000	16.771564	15.345766	19.303892	16.147956	13.409560	12.553841	-1.144104	37.298344	-3.326680	3.555580	-0.808780	0.864134	-0.185974	0.440368	-1.000000	-1.000000	-1.000000	-1.000000	-1.000000	-1.000000	-1.000000	85.862069	0.000000	-1.000000	-1.000000	188452.000000	1774904311.484774
32668.110000	9085.635000	31445.235000	38422.755000	14090.895000	-53458.695000	-46794.915000	-11685.870000	5.846750	-1.056239	4.343810	-0.999111	-5.047859	-5.550428	-9.368168	20.711240	-3.326680	3.555580	-0.808780	0.864134	-0.185974	0.440368	-1.000000	-1.000000	-1.000000	-1.000000	-1.000000	-1.000000	-1.000000	85.862069	0.000000	-1.000000	-1.000000	188453.000000	1774904311.488058
32684.130000	9112.635000	31452.570000	38432.385000	14100.435000	-53454.375000	-46796.085000	-11697.840000	4.846080	-8.460263	-5.569321	-11.337874	-15.530974	-16.009958	-12.799438	-2.228264	-3.326680	3.555580	-0.808780	0.864134	-0.185974	0.440368	-1.000000	-1.000000	-1.000000	-1.000000	-1.000000	-1.000000	-1.000000	85.862069	0.000000	-1.000000	-1.000000	188454.000000	1774904311.488069
32664.150000	9119.790000	31455.180000	38437.515000	14111.595000	-53443.305000	-46793.745000	-11704.455000	11.790509	-4.032067	-7.065008	-10.584362	-13.316046	-14.028599	-8.988709	-20.649647	-3.326680	3.555580	-0.808780	0.864134	-0.185974	0.440368	-1.000000	-1.000000	-1.000000	-1.000000	-1.000000	-1.000000	-1.000000	85.862069	0.000000	-1.000000	-1.000000	188455.000000	1774904311.492035
32648.625000	9093.060000	31416.660000	38415.465000	14094.450000	-53456.715000	-46798.155000	-11703.060000	13.130462	2.226845	-6.427134	-5.643709	-5.489157	-6.182476	-1.464258	-29.829152	-3.326680	3.555580	-0.808780	0.864134	-0.185974	0.440368	-1.000000	-1.000000	-1.000000	-1.000000	-1.000000	-1.000000	-1.000000	85.862069	0.000000	-1.000000	-1.000000	188456.000000	1774904311.492042
32669.235000	9094.320000	31416.390000	38403.945000	14082.840000	-53468.550000	-46798.425000	-11684.835000	-0.286712	-0.791692	-11.020397	-5.542233	-2.144301	-2.077027	3.879856	-30.207119	-3.326680	3.555580	-0.808780	0.864134	-0.185974	0.440368	-1.000000	-1.000000	-1.000000	-1.000000	-1.000000	-1.000000	-1.000000	85.862069	0.000000	-1.000000	-1.000000	188457.000000	1774904311.496044
32695.920000	9118.170000	31472.820000	38436.885000	14111.415000	-53441.235000	-46768.950000	-11638.215000	-20.907173	-11.435063	-17.535072	-10.205360	-5.104985	-3.871327	5.128175	-22.542334	-3.326680	3.555580	-0.808780	0.864134	-0.185974	0.440368	-1.000000	-1.000000	-1.000000	-1.000000	-1.000000	-1.000000	-1.000000	85.862069	0.000000	-1.000000	-1.000000	188458.000000	1774904311.496056
32742.045000	9177.480000	31570.065000	38520.720000	14187.960000	-53369.370000	-46722.645000	-11578.860000	-31.409547	-17.051366	-14.201532	-10.342046	-6.312231	-4.489432	5.895227	-7.163316	-3.326680	3.555580	-0.808780	0.864134	-0.185974	0.440368	-1.000000	-1.000000	-1.000000	-1.000000	-1.000000	-1.000000	-1.000000	85.862069	0.000000	-1.000000	-1.000000	188459.000000	1774904311.500179
32731.920000	9190.305000	31571.280000	38529.450000	14197.500000	-53360.820000	-46736.010000	-11602.395000	-22.751411	-9.347292	3.258530	0.499894	1.420982	2.669612	9.013740	12.064232	-3.326680	3.555580	-0.808780	0.864134	-0.185974	0.440368	-1.000000	-1.000000	-1.000000	-1.000000	-1.000000	-1.000000	-1.000000	85.862069	0.000000	-1.000000	-1.000000	188460.000000	1774904311.500190
32697.450000	9148.860000	31512.150000	38474.460000	14143.815000	-53411.310000	-46787.085000	-11669.670000	-3.621166	5.458228	22.573140	15.394351	13.267941	13.217429	10.369267	25.229916	-3.402980	3.540320	-1.754900	0.866148	-0.188415	0.438536	-1.000000	-1.000000	-1.000000	-1.000000	-1.000000	-1.000000	-1.000000	85.862069	0.000000	-1.000000	-1.000000	188461.000000	1774904311.506828
32647.275000	9077.580000	31435.560000	38400.570000	14070.420000	-53484.930000	-46852.830000	-11716.245000	8.820536	12.805284	25.946953	19.640230	16.218541	15.180913	3.169094	22.740017	-3.402980	3.540320	-1.754900	0.866148	-0.188415	0.438536	-1.000000	-1.000000	-1.000000	-1.000000	-1.000000	-1.000000	-1.000000	85.862069	0.000000	-1.000000	-1.000000	188462.000000	1774904311.506842
32636.070000	9065.700000	31427.550000	38399.085000	14072.310000	-53481.060000	-46832.445000	-11707.020000	6.186435	4.697867	8.156226	6.818244	4.139463	3.139284	-11.759754	5.874633	-3.402980	3.540320	-1.754900	0.866148	-0.188415	0.438536	-1.000000	-1.000000	-1.000000	-1.000000	-1.000000	-1.000000	-1.000000	85.862069	0.000000	-1.000000	-1.000000	188463.000000	1774904311.509311
32638.455000	9074.970000	31424.805000	38406.690000	14087.250000	-53463.915000	-46786.905000	-11709.180000	-5.117044	-12.422537	-18.703124	-14.272372	-14.923079	-14.952094	-23.559087	-13.111216	-3.402980	3.540320	-1.754900	0.866148	-0.188415	0.438536	-1.000000	-1.000000	-1.000000	-1.000000	-1.000000	-1.000000	-1.000000	85.862069	0.000000	-1.000000	-1.000000	188464.000000	1774904311.509323
32628.195000	9070.695000	31410.810000	38394.675000	14079.645000	-53474.310000	-46782.720000	-11714.490000	-13.193346	-24.188029	-36.324033	-28.303000	-26.728226	-25.649790	-21.572563	-22.454587	-3.402980	3.540320	-1.754900	0.866148	-0.188415	0.438536	-1.000000	-1.000000	-1.000000	-1.000000	-1.000000	-1.000000	-1.000000	85.862069	0.000000	-1.000000	-1.000000	188465.000000	1774904311.514150
32638.905000	9095.580000	31430.520000	38402.370000	14081.355000	-53475.255000	-46784.430000	-11700.900000	-11.727714	-20.941245	-34.157635	-26.281622	-23.392185	-22.020729	-6.439567	-19.177908	-3.402980	3.540320	-1.754900	0.866148	-0.188415	0.438536	-1.000000	-1.000000	-1.000000	-1.000000	-1.000000	-1.000000	-1.000000	85.862069	0.000000	-1.000000	-1.000000	188466.000000	1774904311.514160
32663.835000	9127.755000	31482.765000	38447.505000	14121.630000	-53433.045000	-46770.660000	-11685.915000	-1.771913	-3.817876	-14.646103	-10.290509	-7.747180	-7.142861	11.242454	-7.852782	-3.402980	3.540320	-1.754900	0.866148	-0.188415	0.438536	-1.000000	-1.000000	-1.000000	-1.000000	-1.000000	-1.000000	-1.000000	85.862069	0.000000	-1.000000	-1.000000	188467.000000	1774904311.516032
32666.715000	9119.745000	31477.320000	38454.840000	14131.485000	-53423.370000	-46778.265000	-11684.655000	11.519262	17.062266	10.303271	9.977440	10.830988	10.323502	20.788510	4.487917	-3.402980	3.540320	-1.754900	0.866148	-0.188415	0.438536	-1.000000	-1.000000	-1.000000	-1.000000	-1.000000	-1.000000	-1.000000	85.862069	0.000000	-1.000000	-1.000000	188468.000000	1774904311.516044
32646.735000	9087.030000	31438.710000	38428.785000	14110.380000	-53443.620000	-46798.335000	-11695.455000	21.467419	29.089048	27.231838	23.751109	22.860063	21.738626	18.537736	13.301873	-3.402980	3.540320	-1.754900	0.866148	-0.188415	0.438536	-1.000000	-1.000000	-1.000000	-1.000000	-1.000000	-1.000000	-1.000000	85.862069	0.000000	-1.000000	-1.000000	188469.000000	1774904311.520098
32629.815000	9068.850000	31435.785000	38407.455000	14087.295000	-53466.390000	-46810.170000	-11700.495000	23.177190	26.410572	30.264564	25.979024	24.309980	23.252078	8.811359	18.263615	-3.402980	3.540320	-1.754900	0.866148	-0.188415	0.438536	-1.000000	-1.000000	-1.000000	-1.000000	-1.000000	-1.000000	-1.000000	85.862069	0.000000	-1.000000	-1.000000	188470.000000	1774904311.520110
32615.280000	9058.275000	31458.240000	38414.430000	14090.130000	-53464.860000	-46802.070000	-11706.840000	16.551311	13.684534	23.853435	19.458691	17.891816	17.255371	-0.401821	20.043268	-3.723440	3.418240	-2.029580	0.867002	-0.188354	0.437926	-1.000000	-1.000000	-1.000000	-1.000000	-1.000000	-1.000000	-1.000000	85.862069	0.000000	-1.000000	-1.000000	188471.000000	1774904311.524182
32632.380000	9075.060000	31467.825000	38427.255000	14104.530000	-53452.170000	-46782.855000	-11688.255000	5.679982	-0.151132	15.169417	9.818181	8.511965	8.269604	-4.422972	17.510154	-3.723440	3.418240	-2.029580	0.867002	-0.188354	0.437926	-1.000000	-1.000000	-1.000000	-1.000000	-1.000000	-1.000000	-1.000000	85.862069	0.000000	-1.000000	-1.000000	188472.000000	1774904311.524193
32674.950000	9127.305000	31492.845000	38459.610000	14143.005000	-53415.045000	-46750.365000	-11652.840000	-3.845656	-8.479596	7.190812	0.921246	-0.317001	-0.446354	-4.287903	10.199016	-3.723440	3.418240	-2.029580	0.867002	-0.188354	0.437926	-1.000000	-1.000000	-1.000000	-1.000000	-1.000000	-1.000000	-1.000000	85.862069	0.000000	-1.000000	-1.000000	188473.000000	1774904311.528206
32698.620000	9147.600000	31491.135000	38467.080000	14164.470000	-53391.420000	-46735.605000	-11633.760000	-7.759267	-8.669521	-0.039124	-4.931294	-5.790379	-5.976129	-2.545294	0.773132	-3.723440	3.418240	-2.029580	0.867002	-0.188354	0.437926	-1.000000	-1.000000	-1.000000	-1.000000	-1.000000	-1.000000	-1.000000	85.862069	0.000000	-1.000000	-1.000000	188474.000000	1774904311.528217
32705.685000	9157.050000	31498.560000	38469.285000	14161.275000	-53395.965000	-46755.135000	-11664.405000	-6.271396	-3.472076	-7.446977	-7.666204	-7.166138	-7.200645	-1.015950	-8.235884	-3.723440	3.418240	-2.029580	0.867002	-0.188354	0.437926	-1.000000	-1.000000	-1.000000	-1.000000	-1.000000	-1.000000	-1.000000	85.862069	0.000000	-1.000000	-1.000000	188475.000000	1774904311.532208
32645.070000	9142.065000	31499.685000	38454.120000	14133.870000	-53424.945000	-46801.755000	-11728.485000	-4.726171	0.173233	-16.056799	-10.336944	-8.106725	-7.727510	-2.383639	-17.545789	-3.723440	3.418240	-2.029580	0.867002	-0.188354	0.437926	-1.000000	-1.000000	-1.000000	-1.000000	-1.000000	-1.000000	-1.000000	85.862069	0.000000	-1.000000	-1.000000	188476.000000	1774904311.532218
32576.310000	9094.905000	31470.570000	38425.455000	14097.330000	-53460.855000	-46830.735000	-11760.390000	-8.987922	-2.721850	-23.981545	-15.135511	-12.605697	-11.892505	-8.094466	-27.169183	-3.723440	3.418240	-2.029580	0.867002	-0.188354	0.437926	-1.000000	-1.000000	-1.000000	-1.000000	-1.000000	-1.000000	-1.000000	85.862069	0.000000	-1.000000	-1.000000	188477.000000	1774904311.539251
32621.355000	9102.780000	31454.055000	38421.270000	14089.545000	-53474.850000	-46826.820000	-11718.765000	-17.439921	-10.106346	-26.040322	-18.928665	-18.411991	-17.779372	-14.087079	-30.984530	-3.723440	3.418240	-2.029580	0.867002	-0.188354	0.437926	-1.000000	-1.000000	-1.000000	-1.000000	-1.000000	-1.000000	-1.000000	85.862069	0.000000	-1.000000	-1.000000	188478.000000	1774904311.539267
32668.830000	9090.000000	31445.055000	38422.170000	14096.925000	-53464.635000	-46807.245000	-11684.655000	-19.390084	-14.488968	-18.697602	-15.743915	-18.131933	-18.049460	-13.069742	-20.641953	-3.723440	3.418240	-2.029580	0.867002	-0.188354	0.437926	-1.000000	-1.000000	-1.000000	-1.000000	-1.000000	-1.000000	-1.000000	85.862069	0.000000	-1.000000	-1.000000	188479.000000	1774904311.541724
32684.670000	9109.935000	31476.780000	38443.455000	14123.160000	-53434.665000	-46781.190000	-11688.030000	-7.014713	-10.617534	-4.095394	-4.045634	-7.678946	-8.130547	-2.442735	3.079052	-3.723440	3.418240	-2.029580	0.867002	-0.188354	0.437926	-1.000000	-1.000000	-1.000000	-1.000000	-1.000000	-1.000000	-1.000000	85.862069	0.000000	-1.000000	-1.000000	188480.000000	1774904311.541742
32693.760000	9135.495000	31498.065000	38463.075000	14143.905000	-53413.470000	-46758.285000	-11709.270000	13.478486	-0.421771	11.711523	10.684298	8.565874	8.237684	12.046663	26.700151	-2.105880	4.715340	-2.044840	0.867490	-0.190307	0.437316	-1.000000	-1.000000	-1.000000	-1.000000	-1.000000	-1.000000	-1.000000	85.862069	0.000000	-1.000000	-1.000000	188481.000000	1774904311.544658
32692.590000	9109.845000	31466.160000	38430.585000	14111.595000	-53446.410000	-46765.305000	-11682.495000	27.278966	9.056850	22.066634	20.063426	20.796717	21.198345	20.998488	35.334621	-2.105880	4.715340	-2.044840	0.867490	-0.190307	0.437316	-1.000000	-1.000000	-1.000000	-1.000000	-1.000000	-1.000000	-1.000000	85.862069	0.000000	-1.000000	-1.000000	188482.000000	1774904311.544680
32654.745000	9074.205000	31440.420000	38406.555000	14089.320000	-53468.595000	-46774.485000	-11647.305000	24.327719	10.708756	21.760676	18.260467	20.921974	21.972458	18.783441	26.260713	-2.105880	4.715340	-2.044840	0.867490	-0.190307	0.437316	-1.000000	-1.000000	-1.000000	-1.000000	-1.000000	-1.000000	-1.000000	85.862069	0.000000	-1.000000	-1.000000	188483.000000	1774904311.550536
32632.785000	9061.920000	31440.285000	38406.870000	14091.435000	-53463.870000	-46779.390000	-11664.630000	6.306148	3.044559	10.506430	6.284330	9.185649	10.295207	7.545270	9.023655	-2.105880	4.715340	-2.044840	0.867490	-0.190307	0.437316	-1.000000	-1.000000	-1.000000	-1.000000	-1.000000	-1.000000	-1.000000	85.862069	0.000000	-1.000000	-1.000000	188484.000000	1774904311.550550
32660.865000	9095.760000	31467.420000	38429.685000	14112.585000	-53444.790000	-46795.050000	-11671.380000	-14.028278	-6.857835	-4.500649	-7.422457	-5.073949	-4.453750	-4.878333	-5.182385	-2.105880	4.715340	-2.044840	0.867490	-0.190307	0.437316	-1.000000	-1.000000	-1.000000	-1.000000	-1.000000	-1.000000	-1.000000	85.862069	0.000000	-1.000000	-1.000000	188485.000000	1774904311.552119
32647.905000	9095.535000	31442.535000	38407.905000	14094.810000	-53463.645000	-46819.170000	-11688.840000	-21.955493	-8.654313	-12.819481	-13.130148	-11.241431	-11.381497	-11.673570	-11.462036	-2.105880	4.715340	-2.044840	0.867490	-0.190307	0.437316	-1.000000	-1.000000	-1.000000	-1.000000	-1.000000	-1.000000	-1.000000	85.862069	0.000000	-1.000000	-1.000000	188486.000000	1774904311.552127
32652.180000	9067.005000	31419.180000	38388.735000	14076.990000	-53478.990000	-46814.940000	-11706.840000	-14.478971	0.206030	-10.091946	-8.385666	-6.868571	-7.695460	-11.597946	-12.270726	-2.105880	4.715340	-2.044840	0.867490	-0.190307	0.437316	-1.000000	-1.000000	-1.000000	-1.000000	-1.000000	-1.000000	-1.000000	85.862069	0.000000	-1.000000	-1.000000	188487.000000	1774904311.557307
32636.430000	9051.255000	31414.365000	38377.935000	14061.465000	-53495.910000	-46808.955000	-11724.120000	-1.504642	11.549780	-1.309668	0.801124	1.450369	0.319645	-7.489405	-12.700718	-2.105880	4.715340	-2.044840	0.867490	-0.190307	0.437316	-1.000000	-1.000000	-1.000000	-1.000000	-1.000000	-1.000000	-1.000000	85.862069	0.000000	-1.000000	-1.000000	188488.000000	1774904311.557318
32615.280000	9054.135000	31423.680000	38380.545000	14058.000000	-53501.670000	-46810.665000	-11735.415000	6.068765	15.568478	5.487326	6.677143	5.441495	4.316385	-3.132347	-14.095784	-2.105880	4.715340	-2.044840	0.867490	-0.190307	0.437316	-1.000000	-1.000000	-1.000000	-1.000000	-1.000000	-1.000000	-1.000000	85.862069	0.000000	-1.000000	-1.000000	188489.000000	1774904311.563841
32631.525000	9075.060000	31441.230000	38402.145000	14082.705000	-53478.540000	-46809.540000	-11723.445000	4.993076	9.644385	6.572497	6.373062	2.660526	1.580493	-1.149135	-13.419732	-2.105880	4.715340	-2.044840	0.867490	-0.190307	0.437316	-1.000000	-1.000000	-1.000000	-1.000000	-1.000000	-1.000000	-1.000000	85.862069	0.000000	-1.000000	-1.000000	188490.000000	1774904311.563852
32642.145000	9077.580000	31441.320000	38404.260000	14088.465000	-53472.060000	-46816.155000	-11716.515000	-0.018783	-0.596038	4.318841	3.215753	-2.061746	-3.027637	-1.272040	-8.260644	-0.198380	5.142620	-1.785420	0.868711	-0.192565	0.436705	-1.000000	-1.000000	-1.000000	-1.000000	-1.000000	-1.000000	-1.000000	85.862069	0.000000	-1.000000	-1.000000	188491.000000	1774904311.564032
32658.930000	9093.330000	31451.895000	38415.195000	14101.605000	-53456.715000	-46814.535000	-11703.150000	-1.638729	-7.071607	2.732733	1.816873	-2.762391	-3.296726	-0.996615	0.259457	-0.198380	5.142620	-1.785420	0.868711	-0.192565	0.436705	-1.000000	-1.000000	-1.000000	-1.000000	-1.000000	-1.000000	-1.000000	85.862069	0.000000	-1.000000	-1.000000	188492.000000	1774904311.564040
32682.285000	9106.740000	31461.930000	38422.755000	14108.085000	-53452.575000	-46806.345000	-11672.640000	3.487623	-6.266416	2.631576	2.858744	1.211293	1.446420	1.807206	10.044140	-0.198380	5.142620	-1.785420	0.868711	-0.192565	0.436705	-1.000000	-1.000000	-1.000000	-1.000000	-1.000000	-1.000000	-1.000000	85.862069	0.000000	-1.000000	-1.000000	188493.000000	1774904311.567980
32674.995000	9095.670000	31453.785000	38414.070000	14100.570000	-53458.380000	-46795.275000	-11650.590000	12.055900	-1.161665	2.200300	3.712464	5.796621	6.825111	7.344759	19.682285	-0.198380	5.142620	-1.785420	0.868711	-0.192565	0.436705	-1.000000	-1.000000	-1.000000	-1.000000	-1.000000	-1.000000	-1.000000	85.862069	0.000000	-1.000000	-1.000000	188494.000000	1774904311.567986
32670.225000	9090.225000	31450.950000	38412.540000	14098.545000	-53461.080000	-46792.080000	-11668.635000	16.754498	2.741289	0.557908	2.487522	7.202975	8.721418	13.381600	25.775025	-0.198380	5.142620	-1.785420	0.868711	-0.192565	0.436705	-1.000000	-1.000000	-1.000000	-1.000000	-1.000000	-1.000000	-1.000000	85.862069	0.000000	-1.000000	-1.000000	188495.000000	1774904311.572152
32641.110000	9070.875000	31449.240000	38415.195000	14103.405000	-53456.265000	-46804.995000	-11696.265000	12.052584	2.686627	-1.195138	-0.053672	5.012252	6.519767	15.480796	22.881762	-0.198380	5.142620	-1.785420	0.868711	-0.192565	0.436705	-1.000000	-1.000000	-1.000000	-1.000000	-1.000000	-1.000000	-1.000000	85.862069	0.000000	-1.000000	-1.000000	188496.000000	1774904311.572163
32605.110000	9046.080000	31432.230000	38401.830000	14091.345000	-53466.750000	-46809.900000	-11718.855000	-1.481390	-0.795133	-2.589384	-2.577918	0.814247	1.792900	9.868714	9.104971	-0.198380	5.142620	-1.785420	0.868711	-0.192565	0.436705	-1.000000	-1.000000	-1.000000	-1.000000	-1.000000	-1.000000	-1.000000	85.862069	0.000000	-1.000000	-1.000000	188497.000000	1774904311.579353
32630.715000	9084.960000	31457.700000	38422.530000	14109.885000	-53450.730000	-46786.815000	-11698.740000	-16.857881	-5.759890	-4.564635	-4.976963	-4.055981	-3.846757	-2.039628	-9.824391	-0.198380	5.142620	-1.785420	0.868711	-0.192565	0.436705	-1.000000	-1.000000	-1.000000	-1.000000	-1.000000	-1.000000	-1.000000	85.862069	0.000000	-1.000000	-1.000000	188498.000000	1774904311.579362
32657.760000	9095.490000	31454.910000	38416.770000	14105.430000	-53454.465000	-46781.865000	-11687.715000	-24.587696	-8.808845	-6.646222	-6.977676	-8.281138	-8.731737	-13.380791	-24.021788	-0.198380	5.142620	-1.785420	0.868711	-0.192565	0.436705	-1.000000	-1.000000	-1.000000	-1.000000	-1.000000	-1.000000	-1.000000	85.862069	0.000000	-1.000000	-1.000000	188499.000000	1774904311.580196
32666.625000	9119.295000	31479.075000	38442.060000	14132.475000	-53426.115000	-46766.385000	-11662.695000	-19.569211	-6.808793	-6.553628	-7.160865	-9.934354	-10.749874	-17.437368	-26.811032	-0.198380	5.142620	-1.785420	0.868711	-0.192565	0.436705	-1.000000	-1.000000	-1.000000	-1.000000	-1.000000	-1.000000	-1.000000	85.862069	0.000000	-1.000000	-1.000000	188500.000000	1774904311.580203
32682.690000	9136.935000	31484.880000	38443.230000	14136.480000	-53422.290000	-46768.860000	-11662.965000	-5.048285	-0.133064	-3.188647	-4.494054	-7.631356	-8.488237	-12.761188	-18.388130	-0.824040	4.669560	-1.892240	0.868589	-0.189453	0.437194	-1.000000	-1.000000	-1.000000	-1.000000	-1.000000	-1.000000	-1.000000	85.862069	0.000000	-1.000000	-1.000000	188501.000000	1774904311.584074
32677.560000	9118.035000	31434.435000	38408.355000	14113.305000	-53446.725000	-46794.825000	-11686.185000	10.284145	6.967141	1.014991	-0.556479	-2.653043	-3.316355	-3.740838	-4.976084	-0.824040	4.669560	-1.892240	0.868589	-0.189453	0.437194	-1.000000	-1.000000	-1.000000	-1.000000	-1.000000	-1.000000	-1.000000	85.862069	0.000000	-1.000000	-1.000000	188502.000000	1774904311.584114
32627.700000	9066.285000	31365.360000	38366.145000	14076.945000	-53481.510000	-46814.130000	-11729.880000	17.934257	8.956120	1.349197	1.090182	1.282809	0.920802	2.984060	4.962796	-0.824040	4.669560	-1.892240	0.868589	-0.189453	0.437194	-1.000000	-1.000000	-1.000000	-1.000000	-1.000000	-1.000000	-1.000000	85.862069	0.000000	-1.000000	-1.000000	188503.000000	1774904311.588117
32616.945000	9065.520000	31420.170000	38395.845000	14083.920000	-53475.795000	-46803.105000	-11728.305000	14.201644	3.750234	-2.888869	-0.516825	1.815236	1.760735	4.143728	7.261670	-0.824040	4.669560	-1.892240	0.868589	-0.189453	0.437194	-1.000000	-1.000000	-1.000000	-1.000000	-1.000000	-1.000000	-1.000000	85.862069	0.000000	-1.000000	-1.000000	188504.000000	1774904311.588127
32681.025000	9122.490000	31514.670000	38452.860000	14127.795000	-53436.240000	-46778.490000	-11661.660000	4.061468	-3.412818	-4.235289	-1.030474	1.047810	1.139296	2.305461	6.187746	-0.824040	4.669560	-1.892240	0.868589	-0.189453	0.437194	-1.000000	-1.000000	-1.000000	-1.000000	-1.000000	-1.000000	-1.000000	85.862069	0.000000	-1.000000	-1.000000	188505.000000	1774904311.592162
32694.840000	9136.395000	31522.005000	38456.145000	14136.255000	-53430.030000	-46778.130000	-11653.830000	-2.033493	-4.552962	4.315812	3.874282	2.909279	2.804247	1.728439	8.873586	-0.824040	4.669560	-1.892240	0.868589	-0.189453	0.437194	-1.000000	-1.000000	-1.000000	-1.000000	-1.000000	-1.000000	-1.000000	85.862069	0.000000	-1.000000	-1.000000	188506.000000	1774904311.592167
32693.535000	9146.475000	31520.745000	38469.195000	14153.445000	-53412.795000	-46771.470000	-11661.120000	-0.250741	0.980284	17.631312	11.504538	7.380356	6.896554	3.023856	14.795995	-0.824040	4.669560	-1.892240	0.868589	-0.189453	0.437194	-1.000000	-1.000000	-1.000000	-1.000000	-1.000000	-1.000000	-1.000000	85.862069	0.000000	-1.000000	-1.000000	188507.000000	1774904311.596138
32679.135000	9146.025000	31517.460000	38469.600000	14157.270000	-53406.360000	-46774.575000	-11685.645000	2.944675	6.298871	23.213029	14.877236	10.397218	9.827983	3.856906	15.731324	-0.824040	4.669560	-1.892240	0.868589	-0.189453	0.437194	-1.000000	-1.000000	-1.000000	-1.000000	-1.000000	-1.000000	-1.000000	85.862069	0.000000	-1.000000	-1.000000	188508.000000	1774904311.596149
32644.665000	9103.320000	31472.820000	38423.295000	14107.095000	-53457.840000	-46805.355000	-11715.255000	0.399203	5.120067	14.191269	9.546209	7.793302	7.662009	2.274511	6.082154	-0.824040	4.669560	-1.892240	0.868589	-0.189453	0.437194	-1.000000	-1.000000	-1.000000	-1.000000	-1.000000	-1.000000	-1.000000	85.862069	0.000000	-1.000000	-1.000000	188509.000000	1774904311.600089
32604.930000	9055.935000	31410.630000	38377.800000	14063.355000	-53499.330000	-46826.595000	-11745.270000	-8.715384	-3.961331	-6.548655	-3.981001	-2.014612	-1.419151	-1.949907	-10.780798	-0.824040	4.669560	-1.892240	0.868589	-0.189453	0.437194	-1.000000	-1.000000	-1.000000	-1.000000	-1.000000	-1.000000	-1.000000	85.862069	0.000000	-1.000000	-1.000000	188510.000000	1774904311.600101
32580.765000	9011.160000	31346.865000	38330.055000	14025.330000	-53532.990000	-46837.080000	-11745.045000	-18.973201	-16.326708	-28.521301	-19.483966	-15.102325	-13.815311	-6.430527	-24.699539	-2.762060	4.257540	-2.792580	0.867246	-0.185241	0.437194	-1.000000	-1.000000	-1.000000	-1.000000	-1.000000	-1.000000	-1.000000	85.862069	0.000000	-1.000000	-1.000000	188511.000000	1774904311.604184
32630.490000	9035.910000	31390.470000	38355.930000	14049.405000	-53512.425000	-46822.365000	-11698.830000	-21.284275	-22.541379	-38.381761	-27.261695	-22.543405	-20.877571	-7.294484	-25.230189	-2.762060	4.257540	-2.792580	0.867246	-0.185241	0.437194	-1.000000	-1.000000	-1.000000	-1.000000	-1.000000	-1.000000	-1.000000	85.862069	0.000000	-1.000000	-1.000000	188512.000000	1774904311.604198
32638.590000	9060.480000	31458.735000	38405.700000	14098.995000	-53463.780000	-46794.735000	-11685.195000	-9.983308	-15.331359	-28.494595	-20.918076	-17.144802	-15.738296	-2.759105	-9.874728	-2.762060	4.257540	-2.792580	0.867246	-0.185241	0.437194	-1.000000	-1.000000	-1.000000	-1.000000	-1.000000	-1.000000	-1.000000	85.862069	0.000000	-1.000000	-1.000000	188513.000000	1774904311.608164
32645.610000	9118.395000	31508.280000	38460.285000	14153.985000	-53408.880000	-46765.170000	-11661.705000	9.443427	3.263274	-3.358933	-2.406591	0.206620	0.717160	5.206334	11.927089	-2.762060	4.257540	-2.792580	0.867246	-0.185241	0.437194	-1.000000	-1.000000	-1.000000	-1.000000	-1.000000	-1.000000	-1.000000	85.862069	0.000000	-1.000000	-1.000000	188514.000000	1774904311.608177
32638.410000	9142.245000	31491.585000	38450.970000	14149.125000	-53412.705000	-46776.150000	-11681.685000	24.138283	23.315583	23.226458	18.849757	20.266530	19.768380	12.043095	26.079730	-2.762060	4.257540	-2.792580	0.867246	-0.185241	0.437194	-1.000000	-1.000000	-1.000000	-1.000000	-1.000000	-1.000000	-1.000000	85.862069	0.000000	-1.000000	-1.000000	188515.000000	1774904311.612111
32633.370000	9120.060000	31453.155000	38421.045000	14122.485000	-53439.345000	-46800.180000	-11724.930000	25.556835	33.732692	36.842792	30.785606	30.602373	29.495545	12.799356	24.471977	-2.762060	4.257540	-2.792580	0.867246	-0.185241	0.437194	-1.000000	-1.000000	-1.000000	-1.000000	-1.000000	-1.000000	-1.000000	85.862069	0.000000	-1.000000	-1.000000	188516.000000	1774904311.612124
32643.675000	9082.575000	31435.920000	38394.540000	14087.160000	-53476.830000	-46816.605000	-11722.770000	15.224701	27.984120	30.909719	26.109581	23.900756	22.624880	5.713727	9.263940	-2.762060	4.257540	-2.792580	0.867246	-0.185241	0.437194	-1.000000	-1.000000	-1.000000	-1.000000	-1.000000	-1.000000	-1.000000	85.862069	0.000000	-1.000000	-1.000000	188517.000000	1774904311.621941
32652.180000	9064.395000	31453.695000	38394.225000	14080.005000	-53484.525000	-46820.970000	-11703.150000	1.768400	8.661554	11.645514	8.691037	4.437601	3.199340	-5.052106	-8.570627	-2.762060	4.257540	-2.792580	0.867246	-0.185241	0.437194	-1.000000	-1.000000	-1.000000	-1.000000	-1.000000	-1.000000	-1.000000	85.862069	0.000000	-1.000000	-1.000000	188518.000000	1774904311.621952
32658.885000	9089.910000	31462.785000	38405.520000	14093.460000	-53471.430000	-46839.195000	-11707.740000	-6.330424	-12.335594	-5.945636	-8.639457	-14.303281	-15.420700	-12.371586	-17.164053	-2.762060	4.257540	-2.792580	0.867246	-0.185241	0.437194	-1.000000	-1.000000	-1.000000	-1.000000	-1.000000	-1.000000	-1.000000	85.862069	0.000000	-1.000000	-1.000000	188519.000000	1774904311.621962
32649.030000	9083.655000	31457.565000	38405.835000	14092.695000	-53474.715000	-46853.820000	-11727.630000	-6.772263	-22.102488	-10.837143	-14.828582	-20.535380	-21.461436	-12.562337	-13.660224	-2.762060	4.257540	-2.792580	0.867246	-0.185241	0.437194	-1.000000	-1.000000	-1.000000	-1.000000	-1.000000	-1.000000	-1.000000	85.862069	0.000000	-1.000000	-1.000000	188520.000000	1774904311.621968
32671.935000	9082.305000	31464.045000	38418.930000	14106.420000	-53462.880000	-46834.605000	-11738.655000	-3.785204	-17.845813	-5.776231	-9.837848	-13.700434	-14.325812	-7.423117	-5.121396	-4.227020	3.692920	-3.601360	0.866026	-0.182617	0.437072	-1.000000	-1.000000	-1.000000	-1.000000	-1.000000	-1.000000	-1.000000	85.862069	0.000000	-1.000000	-1.000000	188521.000000	1774904311.625580
32670.180000	9092.250000	31465.260000	38418.885000	14109.705000	-53458.335000	-46807.785000	-11723.220000	-2.691936	-7.788627	-2.612491	-2.880835	-3.117171	-3.202995	-0.756040	0.228878	-4.227020	3.692920	-3.601360	0.866026	-0.182617	0.437072	-1.000000	-1.000000	-1.000000	-1.000000	-1.000000	-1.000000	-1.000000	85.862069	0.000000	-1.000000	-1.000000	188522.000000	1774904311.625590
32621.670000	9050.985000	31434.525000	38381.265000	14078.520000	-53484.120000	-46806.030000	-11695.815000	-5.654459	-2.040158	-8.494811	-2.508602	1.495060	2.287554	4.642488	0.815232	-4.227020	3.692920	-3.601360	0.866026	-0.182617	0.437072	-1.000000	-1.000000	-1.000000	-1.000000	-1.000000	-1.000000	-1.000000	85.862069	0.000000	-1.000000	-1.000000	188523.000000	1774904311.630350
32613.120000	9044.145000	31409.055000	38350.170000	14051.160000	-53504.640000	-46807.875000	-11668.140000	-11.529129	-4.505567	-19.143293	-9.290254	-2.335472	-0.418902	7.452221	1.275516	-4.227020	3.692920	-3.601360	0.866026	-0.182617	0.437072	-1.000000	-1.000000	-1.000000	-1.000000	-1.000000	-1.000000	-1.000000	85.862069	0.000000	-1.000000	-1.000000	188524.000000	1774904311.630362
32610.060000	9064.665000	31414.770000	38360.385000	14060.880000	-53492.580000	-46805.355000	-11681.235000	-16.022438	-9.753531	-23.996026	-15.871944	-8.688194	-5.798246	7.871507	5.576613	-4.227020	3.692920	-3.601360	0.866026	-0.182617	0.437072	-1.000000	-1.000000	-1.000000	-1.000000	-1.000000	-1.000000	-1.000000	85.862069	0.000000	-1.000000	-1.000000	188525.000000	1774904311.636497
32604.660000	9067.680000	31432.320000	38400.120000	14097.195000	-53461.215000	-46798.740000	-11694.105000	-14.333083	-8.118766	-15.838550	-13.077985	-8.339665	-5.317713	7.074119	11.139798	-4.227020	3.692920	-3.601360	0.866026	-0.182617	0.437072	-1.000000	-1.000000	-1.000000	-1.000000	-1.000000	-1.000000	-1.000000	85.862069	0.000000	-1.000000	-1.000000	188526.000000	1774904311.636510
32655.195000	9072.270000	31457.880000	38425.860000	14120.730000	-53444.340000	-46805.985000	-11686.185000	-4.968716	3.459276	3.389499	1.867561	2.808640	4.497184	5.802805	11.878747	-4.227020	3.692920	-3.601360	0.866026	-0.182617	0.437072	-1.000000	-1.000000	-1.000000	-1.000000	-1.000000	-1.000000	-1.000000	85.862069	0.000000	-1.000000	-1.000000	188527.000000	1774904311.640845
32712.165000	9102.780000	31478.580000	38436.795000	14130.945000	-53433.990000	-46794.510000	-11659.230000	10.339768	18.448404	24.610447	21.755115	19.043030	18.108811	4.049126	6.433373	-4.227020	3.692920	-3.601360	0.866026	-0.182617	0.437072	-1.000000	-1.000000	-1.000000	-1.000000	-1.000000	-1.000000	-1.000000	85.862069	0.000000	-1.000000	-1.000000	188528.000000	1774904311.640859
32705.010000	9122.535000	31481.460000	38432.655000	14129.010000	-53431.155000	-46799.370000	-11664.855000	26.040011	27.907622	37.269234	34.092380	29.047855	25.605539	1.593757	-0.841036	-4.227020	3.692920	-3.601360	0.866026	-0.182617	0.437072	-1.000000	-1.000000	-1.000000	-1.000000	-1.000000	-1.000000	-1.000000	85.862069	0.000000	-1.000000	-1.000000	188529.000000	1774904311.640872
32671.530000	9119.250000	31482.630000	38439.090000	14138.775000	-53419.095000	-46807.065000	-11693.925000	32.036634	26.377963	33.925003	29.950231	24.737961	20.619674	-2.488138	-6.600597	-4.227020	3.692920	-3.601360	0.866026	-0.182617	0.437072	-1.000000	-1.000000	-1.000000	-1.000000	-1.000000	-1.000000	-1.000000	85.862069	0.000000	-1.000000	-1.000000	188530.000000	1774904311.640877
32663.610000	9121.860000	31487.985000	38450.610000	14148.585000	-53413.245000	-46803.510000	-11714.670000	21.558259	13.395736	15.008253	10.749018	7.403435	4.765268	-8.775655	-11.606332	-3.738700	4.013380	-2.884140	0.867551	-0.184082	0.439574	-1.000000	-1.000000	-1.000000	-1.000000	-1.000000	-1.000000	-1.000000	85.862069	0.000000	-1.000000	-1.000000	188531.000000	1774904311.647699
32667.345000	9111.465000	31476.150000	38432.160000	14128.470000	-53435.790000	-46798.155000	-11701.620000	0.146420	-5.589246	-9.507654	-12.336664	-13.186567	-13.623459	-14.586647	-16.347429	-3.738700	4.013380	-2.884140	0.867551	-0.184082	0.439574	-1.000000	-1.000000	-1.000000	-1.000000	-1.000000	-1.000000	-1.000000	85.862069	0.000000	-1.000000	-1.000000	188532.000000	1774904311.647710
32642.595000	9066.195000	31433.085000	38382.660000	14080.095000	-53482.275000	-46804.500000	-11711.925000	-19.209082	-22.275448	-27.224836	-27.628258	-26.860005	-26.009113	-15.280622	-17.679097	-3.738700	4.013380	-2.884140	0.867551	-0.184082	0.439574	-1.000000	-1.000000	-1.000000	-1.000000	-1.000000	-1.000000	-1.000000	85.862069	0.000000	-1.000000	-1.000000	188533.000000	1774904311.649657
32607.270000	9037.620000	31411.575000	38367.180000	14066.595000	-53492.850000	-46808.775000	-11736.855000	-28.153080	-31.312254	-32.490199	-31.243153	-29.985040	-29.032471	-9.277952	-12.445323	-3.738700	4.013380	-2.884140	0.867551	-0.184082	0.439574	-1.000000	-1.000000	-1.000000	-1.000000	-1.000000	-1.000000	-1.000000	85.862069	0.000000	-1.000000	-1.000000	188534.000000	1774904311.649664
32603.445000	9039.555000	31407.390000	38370.105000	14068.890000	-53493.480000	-46817.820000	-11732.805000	-26.469272	-30.728364	-27.108105	-25.708034	-24.303947	-23.545389	0.349936	-1.836160	-3.738700	4.013380	-2.884140	0.867551	-0.184082	0.439574	-1.000000	-1.000000	-1.000000	-1.000000	-1.000000	-1.000000	-1.000000	85.862069	0.000000	-1.000000	-1.000000	188535.000000	1774904311.653802
32624.910000	9055.170000	31405.860000	38385.135000	14086.440000	-53477.100000	-46818.405000	-11708.955000	-17.817613	-20.225528	-15.474162	-14.441917	-12.700163	-11.742880	8.869800	9.858567	-3.738700	4.013380	-2.884140	0.867551	-0.184082	0.439574	-1.000000	-1.000000	-1.000000	-1.000000	-1.000000	-1.000000	-1.000000	85.862069	0.000000	-1.000000	-1.000000	188536.000000	1774904311.653813
32666.985000	9100.575000	31458.780000	38431.395000	14131.530000	-53435.250000	-46793.205000	-11680.740000	-5.678845	-2.458574	-1.143723	0.360278	2.390504	3.708463	13.363327	18.678958	-3.738700	4.013380	-2.884140	0.867551	-0.184082	0.439574	-1.000000	-1.000000	-1.000000	-1.000000	-1.000000	-1.000000	-1.000000	85.862069	0.000000	-1.000000	-1.000000	188537.000000	1774904311.659196
32685.885000	9132.255000	31517.955000	38467.800000	14163.705000	-53404.740000	-46765.755000	-11680.965000	7.920399	16.765071	13.907533	16.309249	18.006837	19.171837	13.915653	22.356153	-3.738700	4.013380	-2.884140	0.867551	-0.184082	0.439574	-1.000000	-1.000000	-1.000000	-1.000000	-1.000000	-1.000000	-1.000000	85.862069	0.000000	-1.000000	-1.000000	188538.000000	1774904311.659204
32687.235000	9128.790000	31521.690000	38461.815000	14157.405000	-53408.160000	-46770.390000	-11692.215000	20.527739	30.241048	26.664873	28.311160	28.774412	29.096924	11.652198	19.915144	-3.738700	4.013380	-2.884140	0.867551	-0.184082	0.439574	-1.000000	-1.000000	-1.000000	-1.000000	-1.000000	-1.000000	-1.000000	85.862069	0.000000	-1.000000	-1.000000	188539.000000	1774904311.660236
32694.570000	9147.960000	31519.980000	38463.165000	14159.115000	-53406.405000	-46770.390000	-11647.800000	27.770045	32.323152	31.456409	30.099766	28.900731	28.337159	6.615231	12.065853	-3.738700	4.013380	-2.884140	0.867551	-0.184082	0.439574	-1.000000	-1.000000	-1.000000	-1.000000	-1.000000	-1.000000	-1.000000	85.862069	0.000000	-1.000000	-1.000000	188540.000000	1774904311.660247
32691.420000	9153.495000	31522.275000	38466.135000	14163.660000	-53400.915000	-46753.965000	-11608.830000	25.847187	23.094113	24.891383	20.657684	18.348838	17.527620	-0.566189	2.389267	-1.281840	3.616620	-1.968540	0.869016	-0.187500	0.441283	-1.000000	-1.000000	-1.000000	-1.000000	-1.000000	-1.000000	-1.000000	85.862069	0.000000	-1.000000	-1.000000	188541.000000	1774904311.665146
32668.155000	9124.515000	31498.020000	38444.085000	14144.940000	-53417.745000	-46763.730000	-11644.020000	14.870439	8.056872	10.086304	5.772792	3.583529	3.109903	-7.086556	-5.105775	-1.281840	3.616620	-1.968540	0.869016	-0.187500	0.441283	-1.000000	-1.000000	-1.000000	-1.000000	-1.000000	-1.000000	-1.000000	85.862069	0.000000	-1.000000	-1.000000	188542.000000	1774904311.665157
32618.115000	9038.205000	31421.970000	38370.690000	14070.060000	-53491.230000	-46818.315000	-11721.375000	-1.297196	-7.841233	-7.462276	-8.997676	-9.926088	-9.851019	-11.036624	-10.732630	-1.281840	3.616620	-1.968540	0.869016	-0.187500	0.441283	-1.000000	-1.000000	-1.000000	-1.000000	-1.000000	-1.000000	-1.000000	85.862069	0.000000	-1.000000	-1.000000	188543.000000	1774904311.668137
32568.705000	8985.285000	31381.155000	38339.505000	14040.765000	-53520.345000	-46853.145000	-11772.630000	-18.163466	-23.031179	-24.177214	-22.214900	-21.494212	-20.918154	-13.401751	-18.093265	-1.281840	3.616620	-1.968540	0.869016	-0.187500	0.441283	-1.000000	-1.000000	-1.000000	-1.000000	-1.000000	-1.000000	-1.000000	85.862069	0.000000	-1.000000	-1.000000	188544.000000	1774904311.668149
32606.550000	9042.210000	31426.560000	38382.300000	14084.190000	-53481.150000	-46829.565000	-11739.645000	-31.178316	-34.319145	-35.319933	-31.238887	-29.382858	-28.524249	-14.440966	-26.676776	-1.281840	3.616620	-1.968540	0.869016	-0.187500	0.441283	-1.000000	-1.000000	-1.000000	-1.000000	-1.000000	-1.000000	-1.000000	85.862069	0.000000	-1.000000	-1.000000	188545.000000	1774904311.687996
32643.405000	9092.835000	31469.535000	38422.980000	14124.420000	-53442.855000	-46805.895000	-11716.605000	-33.983678	-34.145981	-34.126065	-29.921266	-27.905634	-27.253272	-11.588554	-28.902443	-1.281840	3.616620	-1.968540	0.869016	-0.187500	0.441283	-1.000000	-1.000000	-1.000000	-1.000000	-1.000000	-1.000000	-1.000000	85.862069	0.000000	-1.000000	-1.000000	188546.000000	1774904311.688009
32618.160000	9080.280000	31465.980000	38422.035000	14124.420000	-53442.630000	-46808.415000	-11742.255000	-22.708778	-18.759998	-19.149613	-15.885974	-14.536341	-14.631025	-3.515351	-18.293400	-1.281840	3.616620	-1.968540	0.869016	-0.187500	0.441283	-1.000000	-1.000000	-1.000000	-1.000000	-1.000000	-1.000000	-1.000000	85.862069	0.000000	-1.000000	-1.000000	188547.000000	1774904311.688022
32599.710000	9052.335000	31439.025000	38393.055000	14095.305000	-53472.150000	-46824.255000	-11752.560000	-2.349503	4.421970	2.006878	4.340417	4.670941	3.674089	6.608626	1.633660	-1.281840	3.616620	-1.968540	0.869016	-0.187500	0.441283	-1.000000	-1.000000	-1.000000	-1.000000	-1.000000	-1.000000	-1.000000	85.862069	0.000000	-1.000000	-1.000000	188548.000000	1774904311.688027
32621.580000	9036.630000	31421.340000	38371.770000	14073.615000	-53493.570000	-46840.725000	-11723.130000	16.755936	22.308963	18.771592	20.059929	19.427144	17.902096	13.376313	20.031002	-1.281840	3.616620	-1.968540	0.869016	-0.187500	0.441283	-1.000000	-1.000000	-1.000000	-1.000000	-1.000000	-1.000000	-1.000000	85.862069	0.000000	-1.000000	-1.000000	188549.000000	1774904311.688033
32664.960000	9097.380000	31454.640000	38398.770000	14098.725000	-53469.180000	-46826.505000	-11696.535000	28.160460	28.128635	25.823429	25.271145	23.910279	22.494435	13.752674	28.884464	-1.281840	3.616620	-1.968540	0.869016	-0.187500	0.441283	-1.000000	-1.000000	-1.000000	-1.000000	-1.000000	-1.000000	-1.000000	85.862069	0.000000	-1.000000	-1.000000	188550.000000	1774904311.688038
32676.345000	9117.855000	31470.750000	38418.795000	14121.855000	-53446.545000	-46799.505000	-11682.225000	31.830193	26.119761	25.664707	22.616705	20.875097	20.048678	10.124687	28.658469	-0.503580	3.387720	-2.044840	0.870603	-0.188598	0.441771	-1.000000	-1.000000	-1.000000	-1.000000	-1.000000	-1.000000	-1.000000	85.862069	0.000000	-1.000000	-1.000000	188551.000000	1774904311.688043
32672.655000	9093.645000	31441.770000	38395.395000	14106.015000	-53462.070000	-46799.370000	-11671.830000	29.412685	23.163433	23.021152	17.981703	16.536310	16.454624	7.965089	24.593543	-0.503580	3.387720	-2.044840	0.870603	-0.188598	0.441771	-1.000000	-1.000000	-1.000000	-1.000000	-1.000000	-1.000000	-1.000000	85.862069	0.000000	-1.000000	-1.000000	188552.000000	1774904311.688048
32652.270000	9067.545000	31405.635000	38364.750000	14077.890000	-53488.395000	-46812.600000	-11679.030000	20.374942	18.708511	17.582296	12.279188	12.027516	12.691374	8.837068	18.998724	-0.503580	3.387720	-2.044840	0.870603	-0.188598	0.441771	-1.000000	-1.000000	-1.000000	-1.000000	-1.000000	-1.000000	-1.000000	85.862069	0.000000	-1.000000	-1.000000	188553.000000	1774904311.688054
32607.450000	9055.305000	31410.000000	38371.905000	14074.875000	-53492.850000	-46822.185000	-11695.545000	2.772434	6.467094	5.192937	1.790360	2.959671	4.335053	7.840985	8.716210	-0.503580	3.387720	-2.044840	0.870603	-0.188598	0.441771	-1.000000	-1.000000	-1.000000	-1.000000	-1.000000	-1.000000	-1.000000	85.862069	0.000000	-1.000000	-1.000000	188554.000000	1774904311.688058
32561.010000	9049.770000	31454.820000	38393.505000	14087.205000	-53481.870000	-46825.740000	-11713.545000	-21.806775	-14.881769	-13.179331	-13.364594	-11.881093	-10.054938	0.155207	-8.413059	-0.503580	3.387720	-2.044840	0.870603	-0.188598	0.441771	-1.000000	-1.000000	-1.000000	-1.000000	-1.000000	-1.000000	-1.000000	85.862069	0.000000	-1.000000	-1.000000	188555.000000	1774904311.692933
32613.255000	9080.505000	31471.425000	38412.675000	14109.660000	-53462.880000	-46830.330000	-11707.200000	-42.765875	-35.208880	-27.655080	-25.288583	-25.089358	-23.495862	-11.937296	-26.534030	-0.503580	3.387720	-2.044840	0.870603	-0.188598	0.441771	-1.000000	-1.000000	-1.000000	-1.000000	-1.000000	-1.000000	-1.000000	85.862069	0.000000	-1.000000	-1.000000	188556.000000	1774904311.692945
32686.515000	9117.315000	31485.015000	38429.010000	14126.085000	-53449.155000	-46806.795000	-11667.690000	-44.583113	-39.781226	-28.019633	-24.956279	-26.495316	-25.988364	-20.320900	-35.160609	-0.503580	3.387720	-2.044840	0.870603	-0.188598	0.441771	-1.000000	-1.000000	-1.000000	-1.000000	-1.000000	-1.000000	-1.000000	85.862069	0.000000	-1.000000	-1.000000	188557.000000	1774904311.696102
32715.495000	9131.850000	31491.360000	38440.305000	14140.710000	-53433.765000	-46780.965000	-11660.400000	-22.047674	-23.618620	-13.981220	-11.318820	-13.451046	-14.433763	-18.276743	-29.263863	-0.503580	3.387720	-2.044840	0.870603	-0.188598	0.441771	-1.000000	-1.000000	-1.000000	-1.000000	-1.000000	-1.000000	-1.000000	85.862069	0.000000	-1.000000	-1.000000	188558.000000	1774904311.696114
32727.420000	9136.395000	31454.640000	38421.810000	14130.270000	-53440.020000	-46768.995000	-11655.495000	11.786433	2.749883	4.155295	6.705840	5.755729	3.790698	-6.498143	-13.251570	-0.503580	3.387720	-2.044840	0.870603	-0.188598	0.441771	-1.000000	-1.000000	-1.000000	-1.000000	-1.000000	-1.000000	-1.000000	85.862069	0.000000	-1.000000	-1.000000	188559.000000	1774904311.714322
32686.425000	9111.330000	31418.955000	38396.160000	14116.725000	-53451.945000	-46774.395000	-11668.860000	36.140436	22.960734	14.087667	17.325040	18.808038	17.076691	7.402553	4.115063	-0.503580	3.387720	-2.044840	0.870603	-0.188598	0.441771	-1.000000	-1.000000	-1.000000	-1.000000	-1.000000	-1.000000	-1.000000	85.862069	0.000000	-1.000000	-1.000000	188560.000000	1774904311.714336
32665.185000	9099.855000	31433.535000	38394.585000	14121.630000	-53446.590000	-46791.675000	-11689.380000	38.165349	27.983611	12.232094	15.746410	19.628189	19.200207	15.218142	15.522404	-2.060100	3.570840	-0.534100	0.873350	-0.185913	0.442565	-1.000000	-1.000000	-1.000000	-1.000000	-1.000000	-1.000000	-1.000000	85.862069	0.000000	-1.000000	-1.000000	188561.000000	1774904311.714349
32661.225000	9107.685000	31480.110000	38422.395000	14131.080000	-53439.075000	-46798.065000	-11701.575000	19.982955	19.421106	5.443127	6.653312	11.243833	12.267011	13.567128	17.484922	-2.060100	3.570840	-0.534100	0.873350	-0.185913	0.442565	-1.000000	-1.000000	-1.000000	-1.000000	-1.000000	-1.000000	-1.000000	85.862069	0.000000	-1.000000	-1.000000	188562.000000	1774904311.714354
32635.530000	9115.380000	31503.420000	38438.145000	14126.580000	-53444.610000	-46791.540000	-11694.690000	-5.060150	4.683543	1.443991	-2.379669	0.010744	1.720398	4.847673	11.629051	-2.060100	3.570840	-0.534100	0.873350	-0.185913	0.442565	-1.000000	-1.000000	-1.000000	-1.000000	-1.000000	-1.000000	-1.000000	85.862069	0.000000	-1.000000	-1.000000	188563.000000	1774904311.714360
32594.265000	9061.830000	31456.305000	38392.020000	14089.455000	-53478.630000	-46804.185000	-11717.145000	-23.255979	-9.131785	0.230499	-8.055222	-10.040379	-8.617055	-5.171022	3.483911	-2.060100	3.570840	-0.534100	0.873350	-0.185913	0.442565	-1.000000	-1.000000	-1.000000	-1.000000	-1.000000	-1.000000	-1.000000	85.862069	0.000000	-1.000000	-1.000000	188564.000000	1774904311.714365
32603.085000	9016.920000	31426.155000	38366.955000	14087.385000	-53477.955000	-46798.515000	-11727.720000	-29.166629	-19.134767	-3.249026	-11.745044	-17.121973	-16.424484	-11.257473	-2.607690	-2.060100	3.570840	-0.534100	0.873350	-0.185913	0.442565	-1.000000	-1.000000	-1.000000	-1.000000	-1.000000	-1.000000	-1.000000	85.862069	0.000000	-1.000000	-1.000000	188565.000000	1774904311.714371
32660.730000	9061.560000	31448.160000	38386.755000	14098.050000	-53468.910000	-46801.890000	-11722.230000	-24.215264	-24.057565	-9.817200	-13.905735	-18.886550	-18.752572	-11.511847	-6.187008	-2.060100	3.570840	-0.534100	0.873350	-0.185913	0.442565	-1.000000	-1.000000	-1.000000	-1.000000	-1.000000	-1.000000	-1.000000	85.862069	0.000000	-1.000000	-1.000000	188566.000000	1774904311.714375
32668.020000	9113.130000	31492.485000	38419.560000	14122.080000	-53446.905000	-46795.410000	-11708.370000	-11.358344	-19.965147	-13.094474	-11.278895	-12.958461	-13.228188	-7.520548	-7.506750	-2.060100	3.570840	-0.534100	0.873350	-0.185913	0.442565	-1.000000	-1.000000	-1.000000	-1.000000	-1.000000	-1.000000	-1.000000	85.862069	0.000000	-1.000000	-1.000000	188567.000000	1774904311.719771
32702.220000	9142.245000	31528.620000	38458.620000	14150.385000	-53421.840000	-46765.215000	-11657.385000	5.607527	-4.304635	-6.193813	-0.919022	0.075708	-0.831094	-1.705607	-4.695233	-2.060100	3.570840	-0.534100	0.873350	-0.185913	0.442565	-1.000000	-1.000000	-1.000000	-1.000000	-1.000000	-1.000000	-1.000000	85.862069	0.000000	-1.000000	-1.000000	188568.000000	1774904311.719783
32702.040000	9128.655000	31521.330000	38458.395000	14156.460000	-53417.115000	-46757.160000	-11641.815000	21.709662	17.563131	9.858348	14.761398	15.599130	13.778618	4.985251	3.837180	-2.060100	3.570840	-0.534100	0.873350	-0.185913	0.442565	-1.000000	-1.000000	-1.000000	-1.000000	-1.000000	-1.000000	-1.000000	85.862069	0.000000	-1.000000	-1.000000	188569.000000	1774904311.720094
32647.815000	9078.435000	31470.255000	38399.130000	14103.045000	-53468.145000	-46793.205000	-11684.520000	30.652591	33.193776	23.699082	26.403153	25.430707	23.014206	11.002944	14.322584	-2.060100	3.570840	-0.534100	0.873350	-0.185913	0.442565	-1.000000	-1.000000	-1.000000	-1.000000	-1.000000	-1.000000	-1.000000	85.862069	0.000000	-1.000000	-1.000000	188570.000000	1774904311.720101
32595.255000	9039.510000	31426.245000	38348.280000	14052.735000	-53516.205000	-46829.565000	-11724.210000	26.009712	31.043148	21.484204	22.739443	21.403007	19.476886	12.123651	17.880453	-3.815000	2.945180	-1.556520	0.873472	-0.185668	0.440856	-1.000000	-1.000000	-1.000000	-1.000000	-1.000000	-1.000000	-1.000000	85.862069	0.000000	-1.000000	-1.000000	188571.000000	1774904311.734499
32590.305000	9054.405000	31436.190000	38363.040000	14069.340000	-53504.100000	-46839.375000	-11725.695000	8.404212	11.152321	1.152328	2.532578	3.895146	3.581797	5.603645	9.434568	-3.815000	2.945180	-1.556520	0.873472	-0.185668	0.440856	-1.000000	-1.000000	-1.000000	-1.000000	-1.000000	-1.000000	-1.000000	85.862069	0.000000	-1.000000	-1.000000	188572.000000	1774904311.734512
32668.920000	9123.525000	31496.895000	38444.175000	14154.210000	-53417.475000	-46787.400000	-11664.270000	-10.590501	-11.559798	-21.841149	-19.263185	-14.039942	-12.600681	-4.225664	-4.859642	-3.815000	2.945180	-1.556520	0.873472	-0.185668	0.440856	-1.000000	-1.000000	-1.000000	-1.000000	-1.000000	-1.000000	-1.000000	85.862069	0.000000	-1.000000	-1.000000	188573.000000	1774904311.734526
32712.075000	9156.825000	31533.615000	38481.255000	14187.510000	-53384.535000	-46750.005000	-11644.785000	-18.088061	-19.844243	-27.867435	-24.051840	-17.451969	-15.148202	-8.540654	-13.255442	-3.815000	2.945180	-1.556520	0.873472	-0.185668	0.440856	-1.000000	-1.000000	-1.000000	-1.000000	-1.000000	-1.000000	-1.000000	85.862069	0.000000	-1.000000	-1.000000	188574.000000	1774904311.734532
32718.825000	9156.330000	31538.070000	38479.635000	14181.165000	-53397.495000	-46749.600000	-11663.955000	-12.595564	-11.486361	-12.902575	-9.214949	-5.288836	-3.295356	-3.610181	-11.359689	-3.815000	2.945180	-1.556520	0.873472	-0.185668	0.440856	-1.000000	-1.000000	-1.000000	-1.000000	-1.000000	-1.000000	-1.000000	85.862069	0.000000	-1.000000	-1.000000	188575.000000	1774904311.734539
32680.620000	9107.145000	31482.855000	38427.885000	14135.220000	-53440.830000	-46769.355000	-11696.805000	-3.627320	-0.131807	8.257821	9.590741	8.763563	9.612816	4.738770	-5.569663	-3.815000	2.945180	-1.556520	0.873472	-0.185668	0.440856	-1.000000	-1.000000	-1.000000	-1.000000	-1.000000	-1.000000	-1.000000	85.862069	0.000000	-1.000000	-1.000000	188576.000000	1774904311.734544
32636.745000	9062.910000	31432.050000	38373.480000	14088.330000	-53481.645000	-46804.545000	-11732.130000	-1.039772	0.763545	17.393847	14.750567	10.436184	10.176896	7.183396	-4.468523	-3.815000	2.945180	-1.556520	0.873472	-0.185668	0.440856	-1.000000	-1.000000	-1.000000	-1.000000	-1.000000	-1.000000	-1.000000	85.862069	0.000000	-1.000000	-1.000000	188577.000000	1774904311.737298
32651.460000	9081.585000	31464.855000	38402.370000	14116.905000	-53453.115000	-46811.430000	-11734.065000	-5.929267	-8.365148	9.931145	3.382583	-1.477863	-1.957717	0.506218	-9.289960	-3.815000	2.945180	-1.556520	0.873472	-0.185668	0.440856	-1.000000	-1.000000	-1.000000	-1.000000	-1.000000	-1.000000	-1.000000	85.862069	0.000000	-1.000000	-1.000000	188578.000000	1774904311.737311
32632.470000	9062.010000	31455.765000	38395.170000	14108.535000	-53463.105000	-46803.510000	-11731.770000	-10.227664	-15.647267	-2.981828	-11.265739	-14.508248	-14.452893	-8.871731	-12.514075	-3.815000	2.945180	-1.556520	0.873472	-0.185668	0.440856	-1.000000	-1.000000	-1.000000	-1.000000	-1.000000	-1.000000	-1.000000	85.862069	0.000000	-1.000000	-1.000000	188579.000000	1774904311.740301
32585.085000	9019.935000	31418.685000	38364.120000	14076.135000	-53498.295000	-46813.500000	-11744.730000	-6.809596	-12.604258	-9.251896	-15.603982	-16.622054	-16.169396	-11.784713	-6.752953	-3.815000	2.945180	-1.556520	0.873472	-0.185668	0.440856	-1.000000	-1.000000	-1.000000	-1.000000	-1.000000	-1.000000	-1.000000	85.862069	0.000000	-1.000000	-1.000000	188580.000000	1774904311.740314
32605.830000	9030.690000	31405.320000	38345.670000	14059.980000	-53512.245000	-46822.365000	-11709.540000	2.307084	-2.217378	-7.638910	-9.245029	-8.539349	-8.330095	-6.179327	6.574008	-5.173140	2.502640	-1.663340	0.873167	-0.186523	0.439757	-1.000000	-1.000000	-1.000000	-1.000000	-1.000000	-1.000000	-1.000000	85.862069	0.000000	-1.000000	-1.000000	188581.000000	1774904311.744049
32641.920000	9078.165000	31440.600000	38375.595000	14087.835000	-53488.575000	-46809.135000	-11698.200000	9.921480	8.051581	-3.302194	-0.645538	0.591992	0.128636	1.913806	19.048708	-5.173140	2.502640	-1.663340	0.873167	-0.186523	0.439757	-1.000000	-1.000000	-1.000000	-1.000000	-1.000000	-1.000000	-1.000000	85.862069	0.000000	-1.000000	-1.000000	188582.000000	1774904311.744061
32656.455000	9094.905000	31461.705000	38397.510000	14107.905000	-53473.140000	-46794.420000	-11675.115000	11.314308	14.196227	0.792985	4.625074	5.217198	4.039010	6.163047	23.181302	-5.173140	2.502640	-1.663340	0.873167	-0.186523	0.439757	-1.000000	-1.000000	-1.000000	-1.000000	-1.000000	-1.000000	-1.000000	85.862069	0.000000	-1.000000	-1.000000	188583.000000	1774904311.750263
32663.070000	9103.905000	31476.645000	38412.945000	14124.735000	-53454.510000	-46781.055000	-11659.140000	7.313260	15.754735	4.991214	7.486657	7.170983	5.624010	5.949324	18.228675	-5.173140	2.502640	-1.663340	0.873167	-0.186523	0.439757	-1.000000	-1.000000	-1.000000	-1.000000	-1.000000	-1.000000	-1.000000	85.862069	0.000000	-1.000000	-1.000000	188584.000000	1774904311.750287
32637.555000	9097.740000	31477.095000	38414.745000	14126.895000	-53449.830000	-46784.745000	-11689.965000	2.357809	13.982374	10.111220	10.915674	10.287733	9.072934	4.588970	8.542800	-5.173140	2.502640	-1.663340	0.873167	-0.186523	0.439757	-1.000000	-1.000000	-1.000000	-1.000000	-1.000000	-1.000000	-1.000000	85.862069	0.000000	-1.000000	-1.000000	188585.000000	1774904311.753708
32653.620000	9086.580000	31471.605000	38411.145000	14121.855000	-53455.230000	-46792.530000	-11678.400000	0.126625	10.427524	14.899166	15.003460	14.582737	14.296585	4.377091	-1.719934	-5.173140	2.502640	-1.663340	0.873167	-0.186523	0.439757	-1.000000	-1.000000	-1.000000	-1.000000	-1.000000	-1.000000	-1.000000	85.862069	0.000000	-1.000000	-1.000000	188586.000000	1774904311.753734
32655.420000	9054.180000	31441.635000	38384.280000	14099.625000	-53474.940000	-46807.695000	-11677.320000	1.277033	4.964617	15.020743	15.676418	15.549527	16.267799	4.613052	-9.525692	-5.173140	2.502640	-1.663340	0.873167	-0.186523	0.439757	-1.000000	-1.000000	-1.000000	-1.000000	-1.000000	-1.000000	-1.000000	85.862069	0.000000	-1.000000	-1.000000	188587.000000	1774904311.758727
32659.425000	9078.120000	31449.060000	38386.080000	14100.435000	-53476.335000	-46810.575000	-11688.030000	4.436305	-2.250917	7.480961	9.325829	9.643121	11.035580	3.327760	-12.791864	-5.173140	2.502640	-1.663340	0.873167	-0.186523	0.439757	-1.000000	-1.000000	-1.000000	-1.000000	-1.000000	-1.000000	-1.000000	85.862069	0.000000	-1.000000	-1.000000	188588.000000	1774904311.758740
32648.715000	9074.250000	31441.410000	38375.325000	14089.005000	-53487.765000	-46813.320000	-11702.340000	7.340140	-7.905554	-4.118405	-1.778648	-0.764114	0.798963	0.124867	-12.098346	-5.173140	2.502640	-1.663340	0.873167	-0.186523	0.439757	-1.000000	-1.000000	-1.000000	-1.000000	-1.000000	-1.000000	-1.000000	85.862069	0.000000	-1.000000	-1.000000	188589.000000	1774904311.759888
32626.350000	9059.805000	31442.355000	38377.125000	14092.290000	-53484.435000	-46813.140000	-11722.230000	6.004597	-10.013535	-13.297209	-12.019499	-10.525594	-9.332292	-3.610877	-10.653261	-5.173140	2.502640	-1.663340	0.873167	-0.186523	0.439757	-1.000000	-1.000000	-1.000000	-1.000000	-1.000000	-1.000000	-1.000000	85.862069	0.000000	-1.000000	-1.000000	188590.000000	1774904311.759901
32626.440000	9060.570000	31451.310000	38382.480000	14095.530000	-53484.930000	-46823.670000	-11732.355000	-3.115405	-11.306017	-17.263247	-18.032589	-16.742627	-16.286252	-6.909421	-11.107172	-3.235120	2.563680	-1.373400	0.871763	-0.189392	0.439574	-1.000000	-1.000000	-1.000000	-1.000000	-1.000000	-1.000000	-1.000000	85.862069	0.000000	-1.000000	-1.000000	188591.000000	1774904311.763894
32644.755000	9089.550000	31464.630000	38394.270000	14106.960000	-53473.230000	-46823.130000	-11729.295000	-16.657468	-13.235741	-16.398686	-18.904304	-18.359101	-18.643072	-9.428031	-12.168977	-3.235120	2.563680	-1.373400	0.871763	-0.189392	0.439574	-1.000000	-1.000000	-1.000000	-1.000000	-1.000000	-1.000000	-1.000000	85.862069	0.000000	-1.000000	-1.000000	188592.000000	1774904311.763906
32691.150000	9143.100000	31496.355000	38428.245000	14141.655000	-53438.580000	-46787.220000	-11682.540000	-24.001068	-11.595410	-10.771705	-13.811364	-14.103752	-14.850274	-9.447606	-9.036092	-3.235120	2.563680	-1.373400	0.871763	-0.189392	0.439574	-1.000000	-1.000000	-1.000000	-1.000000	-1.000000	-1.000000	-1.000000	85.862069	0.000000	-1.000000	-1.000000	188593.000000	1774904311.770564
32680.035000	9142.740000	31509.900000	38452.860000	14168.925000	-53414.055000	-46764.090000	-11678.130000	-17.029738	-2.129346	-0.416284	-2.514137	-3.389672	-4.371139	-4.202105	1.854348	-3.235120	2.563680	-1.373400	0.871763	-0.189392	0.439574	-1.000000	-1.000000	-1.000000	-1.000000	-1.000000	-1.000000	-1.000000	85.862069	0.000000	-1.000000	-1.000000	188594.000000	1774904311.770577
32617.170000	9092.610000	31451.220000	38400.120000	14122.485000	-53457.795000	-46775.655000	-11696.805000	-0.182491	11.390346	10.831695	10.948125	9.998595	8.871643	5.857782	16.790041	-3.235120	2.563680	-1.373400	0.871763	-0.189392	0.439574	-1.000000	-1.000000	-1.000000	-1.000000	-1.000000	-1.000000	-1.000000	85.862069	0.000000	-1.000000	-1.000000	188595.000000	1774904311.771984
32554.620000	9044.730000	31379.670000	38338.065000	14070.960000	-53502.345000	-46800.495000	-11733.165000	12.531172	18.647499	14.993124	17.797507	17.499397	16.552094	14.764379	25.679038	-3.235120	2.563680	-1.373400	0.871763	-0.189392	0.439574	-1.000000	-1.000000	-1.000000	-1.000000	-1.000000	-1.000000	-1.000000	85.862069	0.000000	-1.000000	-1.000000	188596.000000	1774904311.771990
32586.390000	9038.430000	31370.670000	38333.430000	14065.065000	-53507.430000	-46809.585000	-11729.520000	12.852767	13.284419	7.694122	12.476871	13.427224	13.351892	15.784296	21.864332	-3.235120	2.563680	-1.373400	0.871763	-0.189392	0.439574	-1.000000	-1.000000	-1.000000	-1.000000	-1.000000	-1.000000	-1.000000	85.862069	0.000000	-1.000000	-1.000000	188597.000000	1774904311.775949
32669.370000	9086.085000	31458.330000	38375.685000	14085.945000	-53493.345000	-46808.775000	-11708.190000	6.903096	-0.010639	-4.342746	0.065990	1.733956	2.851878	7.890977	8.714163	-3.235120	2.563680	-1.373400	0.871763	-0.189392	0.439574	-1.000000	-1.000000	-1.000000	-1.000000	-1.000000	-1.000000	-1.000000	85.862069	0.000000	-1.000000	-1.000000	188598.000000	1774904311.775961
32713.920000	9087.435000	31495.410000	38396.070000	14099.760000	-53482.905000	-46797.345000	-11680.155000	5.916961	-10.252366	-8.606483	-8.539216	-8.194465	-6.619060	-3.674258	-4.322878	-3.235120	2.563680	-1.373400	0.871763	-0.189392	0.439574	-1.000000	-1.000000	-1.000000	-1.000000	-1.000000	-1.000000	-1.000000	85.862069	0.000000	-1.000000	-1.000000	188599.000000	1774904311.780019
32694.795000	9112.545000	31514.715000	38437.065000	14149.530000	-53431.110000	-46758.105000	-11642.850000	11.623740	-11.154804	-0.862831	-7.429484	-9.969481	-9.076994	-11.538922	-9.766745	-3.235120	2.563680	-1.373400	0.871763	-0.189392	0.439574	-1.000000	-1.000000	-1.000000	-1.000000	-1.000000	-1.000000	-1.000000	85.862069	0.000000	-1.000000	-1.000000	188600.000000	1774904311.780029
32708.835000	9145.935000	31538.115000	38464.695000	14177.250000	-53403.705000	-46747.215000	-11624.805000	15.127793	-4.802341	11.105384	1.000109	-3.357808	-3.577511	-11.246105	-6.924222	-0.610400	2.655240	-0.824040	0.869138	-0.191589	0.439818	-1.000000	-1.000000	-1.000000	-1.000000	-1.000000	-1.000000	-1.000000	85.862069	0.000000	-1.000000	-1.000000	188601.000000	1774904311.784080
32685.660000	9130.545000	31511.340000	38439.090000	14152.545000	-53428.455000	-46775.745000	-11653.695000	8.754274	2.706116	16.525508	9.253197	5.865017	4.912570	-5.304776	-1.701433	-0.610400	2.655240	-0.824040	0.869138	-0.191589	0.439818	-1.000000	-1.000000	-1.000000	-1.000000	-1.000000	-1.000000	-1.000000	85.862069	0.000000	-1.000000	-1.000000	188602.000000	1774904311.784089
32633.640000	9089.010000	31428.360000	38375.415000	14095.485000	-53485.650000	-46818.315000	-11703.105000	-6.118015	5.876815	9.463826	9.384896	9.043201	7.997562	-1.046204	-1.474355	-0.610400	2.655240	-0.824040	0.869138	-0.191589	0.439818	-1.000000	-1.000000	-1.000000	-1.000000	-1.000000	-1.000000	-1.000000	85.862069	0.000000	-1.000000	-1.000000	188603.000000	1774904311.788620
32619.285000	9064.260000	31395.420000	38352.915000	14079.645000	-53499.240000	-46816.740000	-11710.980000	-20.871160	3.552279	-7.245271	-0.010046	2.889820	2.209323	-2.182945	-7.819832	-0.610400	2.655240	-0.824040	0.869138	-0.191589	0.439818	-1.000000	-1.000000	-1.000000	-1.000000	-1.000000	-1.000000	-1.000000	85.862069	0.000000	-1.000000	-1.000000	188604.000000	1774904311.788630
32687.730000	9091.890000	31467.105000	38404.035000	14127.255000	-53452.440000	-46776.780000	-11667.645000	-24.925155	-0.181871	-21.195731	-10.321453	-5.707085	-5.965382	-4.343127	-13.886648	-0.610400	2.655240	-0.824040	0.869138	-0.191589	0.439818	-1.000000	-1.000000	-1.000000	-1.000000	-1.000000	-1.000000	-1.000000	85.862069	0.000000	-1.000000	-1.000000	188605.000000	1774904311.795239
32714.010000	9117.270000	31528.395000	38442.960000	14157.540000	-53428.635000	-46767.870000	-11649.555000	-14.002704	-0.586992	-19.630525	-11.025987	-7.016443	-7.120239	-1.111575	-11.395892	-0.610400	2.655240	-0.824040	0.869138	-0.191589	0.439818	-1.000000	-1.000000	-1.000000	-1.000000	-1.000000	-1.000000	-1.000000	85.862069	0.000000	-1.000000	-1.000000	188606.000000	1774904311.795252
32722.920000	9167.985000	31541.040000	38458.350000	14177.340000	-53406.495000	-46757.070000	-11625.570000	3.669704	2.827825	-3.487624	-1.432673	0.440658	0.293416	7.317827	-0.214885	-0.610400	2.655240	-0.824040	0.869138	-0.191589	0.439818	-1.000000	-1.000000	-1.000000	-1.000000	-1.000000	-1.000000	-1.000000	85.862069	0.000000	-1.000000	-1.000000	188607.000000	1774904311.796074
32726.295000	9164.520000	31529.880000	38461.320000	14185.260000	-53396.730000	-46749.645000	-11628.090000	14.708892	6.751031	12.855234	9.098716	9.084295	9.156156	14.315087	11.632578	-0.610400	2.655240	-0.824040	0.869138	-0.191589	0.439818	-1.000000	-1.000000	-1.000000	-1.000000	-1.000000	-1.000000	-1.000000	85.862069	0.000000	-1.000000	-1.000000	188608.000000	1774904311.796085
32707.845000	9122.310000	31524.750000	38451.285000	14167.125000	-53415.990000	-46763.775000	-11677.095000	13.324559	6.178592	16.537890	11.005978	10.146299	10.881172	13.514679	14.985063	-0.610400	2.655240	-0.824040	0.869138	-0.191589	0.439818	-1.000000	-1.000000	-1.000000	-1.000000	-1.000000	-1.000000	-1.000000	85.862069	0.000000	-1.000000	-1.000000	188609.000000	1774904311.800168
32610.960000	9013.455000	31426.560000	38348.370000	14065.605000	-53513.820000	-46821.015000	-11762.370000	2.036444	-3.620753	5.383460	1.097031	-0.256745	1.124976	3.333284	5.398689	-0.610400	2.655240	-0.824040	0.869138	-0.191589	0.439818	-1.000000	-1.000000	-1.000000	-1.000000	-1.000000	-1.000000	-1.000000	85.862069	0.000000	-1.000000	-1.000000	188610.000000	1774904311.800182
32595.660000	9010.665000	31405.635000	38331.000000	14047.020000	-53532.990000	-46830.420000	-11752.200000	-12.939583	-20.575218	-13.292278	-15.880462	-17.938300	-16.409962	-11.471165	-11.947875	-0.869820	2.746800	-1.068200	0.867735	-0.188537	0.438781	-1.000000	-1.000000	-1.000000	-1.000000	-1.000000	-1.000000	-1.000000	85.862069	0.000000	-1.000000	-1.000000	188611.000000	1774904311.804142
32643.270000	9060.795000	31454.055000	38377.125000	14090.850000	-53492.175000	-46799.145000	-11678.715000	-20.953104	-31.115090	-24.891345	-26.774949	-29.561545	-28.563092	-20.830673	-22.072635	-0.869820	2.746800	-1.068200	0.867735	-0.188537	0.438781	-1.000000	-1.000000	-1.000000	-1.000000	-1.000000	-1.000000	-1.000000	85.862069	0.000000	-1.000000	-1.000000	188612.000000	1774904311.804155
32620.995000	9063.315000	31456.305000	38375.595000	14095.035000	-53486.640000	-46793.250000	-11701.260000	-13.203012	-21.522033	-17.154926	-19.301814	-22.416718	-22.581322	-16.943906	-13.470565	-0.869820	2.746800	-1.068200	0.867735	-0.188537	0.438781	-1.000000	-1.000000	-1.000000	-1.000000	-1.000000	-1.000000	-1.000000	85.862069	0.000000	-1.000000	-1.000000	188613.000000	1774904311.807975
32613.750000	9062.460000	31444.470000	38362.050000	14083.920000	-53498.835000	-46812.330000	-11743.470000	4.931792	4.843534	4.860213	2.860047	0.515487	-0.927984	-2.902107	7.060866	-0.869820	2.746800	-1.068200	0.867735	-0.188537	0.438781	-1.000000	-1.000000	-1.000000	-1.000000	-1.000000	-1.000000	-1.000000	85.862069	0.000000	-1.000000	-1.000000	188614.000000	1774904311.807988
32623.335000	9076.680000	31458.780000	38381.400000	14099.985000	-53485.965000	-46808.415000	-11731.095000	18.492288	29.631704	22.504040	22.824281	22.785165	20.760055	10.449789	21.624346	-0.869820	2.746800	-1.068200	0.867735	-0.188537	0.438781	-1.000000	-1.000000	-1.000000	-1.000000	-1.000000	-1.000000	-1.000000	85.862069	0.000000	-1.000000	-1.000000	188615.000000	1774904311.821445
32639.985000	9092.025000	31472.325000	38395.575000	14114.745000	-53468.910000	-46788.165000	-11703.285000	19.391304	37.322558	23.782815	28.370897	31.228958	29.646946	15.594751	21.127824	-0.869820	2.746800	-1.068200	0.867735	-0.188537	0.438781	-1.000000	-1.000000	-1.000000	-1.000000	-1.000000	-1.000000	-1.000000	85.862069	0.000000	-1.000000	-1.000000	188616.000000	1774904311.821455
32662.845000	9097.155000	31471.200000	38391.210000	14113.440000	-53465.940000	-46784.700000	-11686.140000	11.474931	26.485688	12.080584	19.817702	24.379610	23.955400	12.678149	10.788978	-0.869820	2.746800	-1.068200	0.867735	-0.188537	0.438781	-1.000000	-1.000000	-1.000000	-1.000000	-1.000000	-1.000000	-1.000000	85.862069	0.000000	-1.000000	-1.000000	188617.000000	1774904311.821467
32655.825000	9096.165000	31446.945000	38367.855000	14103.900000	-53472.195000	-46796.220000	-11683.305000	3.493219	7.466074	-1.993828	4.907304	9.300784	10.228569	5.975520	1.141762	-0.869820	2.746800	-1.068200	0.867735	-0.188537	0.438781	-1.000000	-1.000000	-1.000000	-1.000000	-1.000000	-1.000000	-1.000000	85.862069	0.000000	-1.000000	-1.000000	188618.000000	1774904311.821472
32644.665000	9083.160000	31430.025000	38360.880000	14103.990000	-53468.550000	-46797.480000	-11688.345000	1.257204	-7.110485	-9.652691	-7.035320	-3.824256	-1.894063	0.255634	-1.252906	-0.869820	2.746800	-1.068200	0.867735	-0.188537	0.438781	-1.000000	-1.000000	-1.000000	-1.000000	-1.000000	-1.000000	-1.000000	85.862069	0.000000	-1.000000	-1.000000	188619.000000	1774904311.821671
32649.210000	9077.445000	31439.790000	38378.610000	14110.380000	-53462.520000	-46797.300000	-11689.020000	3.985502	-11.836660	-7.822580	-9.965089	-8.295709	-6.139142	-1.809663	1.714047	-0.869820	2.746800	-1.068200	0.867735	-0.188537	0.438781	-1.000000	-1.000000	-1.000000	-1.000000	-1.000000	-1.000000	-1.000000	85.862069	0.000000	-1.000000	-1.000000	188620.000000	1774904311.821682
32653.170000	9068.265000	31431.645000	38373.615000	14109.120000	-53467.650000	-46792.980000	-11699.055000	6.076768	-10.585347	-0.345061	-5.238491	-5.778050	-4.339483	-1.455578	2.469752	-3.280900	2.975700	-1.632820	0.868589	-0.184387	0.437316	-1.000000	-1.000000	-1.000000	-1.000000	-1.000000	-1.000000	-1.000000	85.862069	0.000000	-1.000000	-1.000000	188621.000000	1774904311.824216
32642.820000	9070.380000	31452.300000	38388.645000	14119.290000	-53459.730000	-46784.880000	-11725.965000	2.906657	-9.324247	5.648608	0.704415	-2.623565	-2.718232	-1.536058	-3.366691	-3.280900	2.975700	-1.632820	0.868589	-0.184387	0.437316	-1.000000	-1.000000	-1.000000	-1.000000	-1.000000	-1.000000	-1.000000	85.862069	0.000000	-1.000000	-1.000000	188622.000000	1774904311.824227
32666.040000	9092.025000	31497.435000	38415.690000	14132.205000	-53450.955000	-46783.125000	-11715.840000	-5.114581	-9.538661	6.472883	3.165109	-2.531325	-4.375867	-2.728450	-12.275663	-3.280900	2.975700	-1.632820	0.868589	-0.184387	0.437316	-1.000000	-1.000000	-1.000000	-1.000000	-1.000000	-1.000000	-1.000000	85.862069	0.000000	-1.000000	-1.000000	188623.000000	1774904311.828012
32710.230000	9138.375000	31536.045000	38444.715000	14152.635000	-53434.170000	-46774.665000	-11669.580000	-13.044637	-8.836153	3.764612	1.866146	-4.824445	-7.774362	-3.928329	-17.070679	-3.280900	2.975700	-1.632820	0.868589	-0.184387	0.437316	-1.000000	-1.000000	-1.000000	-1.000000	-1.000000	-1.000000	-1.000000	85.862069	0.000000	-1.000000	-1.000000	188624.000000	1774904311.828023
32703.255000	9145.755000	31534.785000	38452.140000	14163.030000	-53424.180000	-46795.545000	-11653.470000	-15.752771	-4.979100	0.411540	-1.302732	-7.116809	-10.072170	-4.924406	-13.620516	-3.280900	2.975700	-1.632820	0.868589	-0.184387	0.437316	-1.000000	-1.000000	-1.000000	-1.000000	-1.000000	-1.000000	-1.000000	85.862069	0.000000	-1.000000	-1.000000	188625.000000	1774904311.831872
32680.170000	9141.480000	31521.645000	38438.325000	14153.400000	-53433.090000	-46803.465000	-11652.300000	-12.872254	1.191948	-2.719517	-4.513255	-7.506048	-9.506966	-6.231229	-3.826514	-3.280900	2.975700	-1.632820	0.868589	-0.184387	0.437316	-1.000000	-1.000000	-1.000000	-1.000000	-1.000000	-1.000000	-1.000000	85.862069	0.000000	-1.000000	-1.000000	188626.000000	1774904311.831909
32716.080000	9169.920000	31564.260000	38485.080000	14196.960000	-53390.745000	-46759.545000	-11638.395000	-6.833166	7.192688	-4.673148	-5.460861	-4.551275	-5.106305	-6.060366	7.068558	-3.280900	2.975700	-1.632820	0.868589	-0.184387	0.437316	-1.000000	-1.000000	-1.000000	-1.000000	-1.000000	-1.000000	-1.000000	85.862069	0.000000	-1.000000	-1.000000	188627.000000	1774904311.836049
32735.430000	9178.515000	31576.230000	38497.005000	14213.385000	-53372.025000	-46733.985000	-11663.730000	1.729031	11.709757	-2.903391	-1.769076	2.506321	3.360326	-0.904009	14.179406	-3.280900	2.975700	-1.632820	0.868589	-0.184387	0.437316	-1.000000	-1.000000	-1.000000	-1.000000	-1.000000	-1.000000	-1.000000	85.862069	0.000000	-1.000000	-1.000000	188628.000000	1774904311.836062
32694.480000	9144.675000	31521.645000	38441.610000	14167.395000	-53411.895000	-46754.370000	-11701.395000	10.540544	12.866407	1.276124	3.891063	10.128252	12.143013	8.146262	13.460734	-3.280900	2.975700	-1.632820	0.868589	-0.184387	0.437316	-1.000000	-1.000000	-1.000000	-1.000000	-1.000000	-1.000000	-1.000000	85.862069	0.000000	-1.000000	-1.000000	188629.000000	1774904311.839950
32574.195000	9028.440000	31397.760000	38314.440000	14037.705000	-53540.820000	-46822.050000	-11734.695000	12.057711	6.337761	-0.043403	2.715611	9.531224	12.524031	13.094910	3.954849	-3.280900	2.975700	-1.632820	0.868589	-0.184387	0.437316	-1.000000	-1.000000	-1.000000	-1.000000	-1.000000	-1.000000	-1.000000	85.862069	0.000000	-1.000000	-1.000000	188630.000000	1774904311.839965
32540.220000	8964.135000	31336.560000	38255.535000	13980.825000	-53595.045000	-46840.320000	-11729.790000	0.709366	-10.278578	-13.048875	-10.955635	-5.017475	-1.411010	7.000249	-8.718108	-3.204600	4.333840	-1.052940	0.867918	-0.185119	0.437133	-1.000000	-1.000000	-1.000000	-1.000000	-1.000000	-1.000000	-1.000000	85.862069	0.000000	-1.000000	-1.000000	188631.000000	1774904311.846505
32581.620000	8999.505000	31378.635000	38301.390000	14030.010000	-53544.960000	-46810.935000	-11711.610000	-17.287116	-30.305819	-31.683962	-29.709390	-25.803441	-22.337667	-6.761367	-15.971261	-3.204600	4.333840	-1.052940	0.867918	-0.185119	0.437133	-1.000000	-1.000000	-1.000000	-1.000000	-1.000000	-1.000000	-1.000000	85.862069	0.000000	-1.000000	-1.000000	188632.000000	1774904311.846517
32627.205000	9044.820000	31434.435000	38355.480000	14081.445000	-53498.790000	-46789.740000	-11688.345000	-26.743921	-38.989183	-38.974852	-36.175783	-34.667284	-32.364557	-16.646495	-13.859170	-3.204600	4.333840	-1.052940	0.867918	-0.185119	0.437133	-1.000000	-1.000000	-1.000000	-1.000000	-1.000000	-1.000000	-1.000000	85.862069	0.000000	-1.000000	-1.000000	188633.000000	1774904311.847970
32665.230000	9081.045000	31474.035000	38394.495000	14118.570000	-53465.670000	-46779.030000	-11658.960000	-17.065900	-25.687931	-22.129558	-18.952974	-19.978339	-19.928872	-14.186423	-4.446949	-3.204600	4.333840	-1.052940	0.867918	-0.185119	0.437133	-1.000000	-1.000000	-1.000000	-1.000000	-1.000000	-1.000000	-1.000000	85.862069	0.000000	-1.000000	-1.000000	188634.000000	1774904311.847984
32699.160000	9125.370000	31507.695000	38427.750000	14152.545000	-53433.270000	-46773.630000	-11655.180000	8.700520	5.986661	14.348659	16.019398	12.247124	9.446684	-1.083979	7.606769	-3.204600	4.333840	-1.052940	0.867918	-0.185119	0.437133	-1.000000	-1.000000	-1.000000	-1.000000	-1.000000	-1.000000	-1.000000	85.862069	0.000000	-1.000000	-1.000000	188635.000000	1774904311.851979
32705.640000	9130.320000	31497.210000	38411.370000	14135.400000	-53451.405000	-46789.290000	-11693.880000	35.680892	39.805508	50.504363	48.973105	42.889333	37.845489	12.750231	16.409031	-3.204600	4.333840	-1.052940	0.867918	-0.185119	0.437133	-1.000000	-1.000000	-1.000000	-1.000000	-1.000000	-1.000000	-1.000000	85.862069	0.000000	-1.000000	-1.000000	188636.000000	1774904311.851985
32657.805000	9085.545000	31459.005000	38374.650000	14100.255000	-53483.760000	-46804.815000	-11722.230000	46.569876	56.690655	64.690870	59.732191	52.874904	47.368116	17.250507	16.709784	-3.204600	4.333840	-1.052940	0.867918	-0.185119	0.437133	-1.000000	-1.000000	-1.000000	-1.000000	-1.000000	-1.000000	-1.000000	85.862069	0.000000	-1.000000	-1.000000	188637.000000	1774904311.856004
32645.160000	9064.980000	31433.670000	38354.445000	14083.650000	-53498.385000	-46802.520000	-11706.480000	34.323728	47.362722	49.427369	42.759165	37.203054	33.329197	10.834873	8.957829	-3.204600	4.333840	-1.052940	0.867918	-0.185119	0.437133	-1.000000	-1.000000	-1.000000	-1.000000	-1.000000	-1.000000	-1.000000	85.862069	0.000000	-1.000000	-1.000000	188638.000000	1774904311.856014
32644.710000	9069.750000	31443.705000	38376.585000	14112.315000	-53468.640000	-46778.220000	-11690.640000	8.441164	19.872605	16.723458	11.572534	9.104243	8.255262	1.364368	0.089019	-3.204600	4.333840	-1.052940	0.867918	-0.185119	0.437133	-1.000000	-1.000000	-1.000000	-1.000000	-1.000000	-1.000000	-1.000000	85.862069	0.000000	-1.000000	-1.000000	188639.000000	1774904311.860025
32667.705000	9087.210000	31466.340000	38401.920000	14140.440000	-53441.145000	-46756.395000	-11666.070000	-14.721756	-8.252792	-13.745750	-14.358365	-12.818831	-10.575473	-2.673969	-3.700388	-3.204600	4.333840	-1.052940	0.867918	-0.185119	0.437133	-1.000000	-1.000000	-1.000000	-1.000000	-1.000000	-1.000000	-1.000000	85.862069	0.000000	-1.000000	-1.000000	188640.000000	1774904311.860035
32668.335000	9105.705000	31466.970000	38393.235000	14120.955000	-53465.445000	-46783.710000	-11694.285000	-26.796890	-25.680522	-31.106169	-26.662755	-21.771425	-17.674278	-1.180713	-3.348188	-1.861720	4.684820	-2.121140	0.867124	-0.186523	0.433776	-1.000000	-1.000000	-1.000000	-1.000000	-1.000000	-1.000000	-1.000000	85.862069	0.000000	-1.000000	-1.000000	188641.000000	1774904311.864089
32673.195000	9090.405000	31468.320000	38372.085000	14088.105000	-53497.350000	-46808.145000	-11700.090000	-29.367136	-32.096724	-36.432515	-29.994409	-24.319346	-20.193543	-0.876602	-4.469946	-1.861720	4.684820	-2.121140	0.867124	-0.186523	0.433776	-1.000000	-1.000000	-1.000000	-1.000000	-1.000000	-1.000000	-1.000000	85.862069	0.000000	-1.000000	-1.000000	188642.000000	1774904311.864100
32630.760000	9042.210000	31443.345000	38347.920000	14066.370000	-53517.510000	-46824.165000	-11726.370000	-26.815181	-32.288926	-34.540247	-30.888593	-27.584428	-24.790896	-5.881404	-9.799481	-1.861720	4.684820	-2.121140	0.867124	-0.186523	0.433776	-1.000000	-1.000000	-1.000000	-1.000000	-1.000000	-1.000000	-1.000000	85.862069	0.000000	-1.000000	-1.000000	188643.000000	1774904311.873699
32621.985000	9053.955000	31446.270000	38360.565000	14082.345000	-53504.820000	-46824.930000	-11747.340000	-22.072201	-29.674530	-28.111695	-29.764303	-30.233890	-29.197525	-13.096134	-15.993269	-1.861720	4.684820	-2.121140	0.867124	-0.186523	0.433776	-1.000000	-1.000000	-1.000000	-1.000000	-1.000000	-1.000000	-1.000000	85.862069	0.000000	-1.000000	-1.000000	188644.000000	1774904311.873713
32626.710000	9082.350000	31459.635000	38374.245000	14097.915000	-53488.170000	-46816.290000	-11735.550000	-15.021814	-22.437279	-16.945994	-22.099999	-25.103559	-25.635834	-15.935376	-16.509632	-1.861720	4.684820	-2.121140	0.867124	-0.186523	0.433776	-1.000000	-1.000000	-1.000000	-1.000000	-1.000000	-1.000000	-1.000000	85.862069	0.000000	-1.000000	-1.000000	188645.000000	1774904311.875365
32621.985000	9081.045000	31460.850000	38376.765000	14100.930000	-53486.910000	-46812.645000	-11703.690000	-3.164196	-6.545222	-0.177705	-4.805693	-7.850280	-9.540477	-10.232773	-6.810821	-1.861720	4.684820	-2.121140	0.867124	-0.186523	0.433776	-1.000000	-1.000000	-1.000000	-1.000000	-1.000000	-1.000000	-1.000000	85.862069	0.000000	-1.000000	-1.000000	188646.000000	1774904311.875376
32637.645000	9067.770000	31459.455000	38379.465000	14105.430000	-53482.590000	-46806.525000	-11667.150000	13.666006	15.867793	19.428858	18.183090	16.889794	14.556292	2.254851	10.802939	-1.861720	4.684820	-2.121140	0.867124	-0.186523	0.433776	-1.000000	-1.000000	-1.000000	-1.000000	-1.000000	-1.000000	-1.000000	85.862069	0.000000	-1.000000	-1.000000	188647.000000	1774904311.876141
32658.030000	9080.370000	31452.705000	38390.895000	14122.530000	-53464.455000	-46796.490000	-11673.315000	30.077861	34.843643	33.942996	36.497914	37.293568	34.970630	14.763736	26.849602	-1.861720	4.684820	-2.121140	0.867124	-0.186523	0.433776	-1.000000	-1.000000	-1.000000	-1.000000	-1.000000	-1.000000	-1.000000	85.862069	0.000000	-1.000000	-1.000000	188648.000000	1774904311.876152
32663.835000	9090.855000	31444.470000	38389.500000	14125.230000	-53462.340000	-46784.700000	-11688.030000	37.438694	40.058507	34.718689	39.957134	42.258395	40.718982	20.427223	30.554298	-1.861720	4.684820	-2.121140	0.867124	-0.186523	0.433776	-1.000000	-1.000000	-1.000000	-1.000000	-1.000000	-1.000000	-1.000000	85.862069	0.000000	-1.000000	-1.000000	188649.000000	1774904311.879975
32656.185000	9102.420000	31469.940000	38389.590000	14120.235000	-53470.980000	-46784.430000	-11688.930000	29.919440	28.494282	20.141646	26.148218	29.195307	29.017222	17.289879	18.505758	-1.861720	4.684820	-2.121140	0.867124	-0.186523	0.433776	-1.000000	-1.000000	-1.000000	-1.000000	-1.000000	-1.000000	-1.000000	85.862069	0.000000	-1.000000	-1.000000	188650.000000	1774904311.879986
32646.690000	9077.715000	31491.135000	38390.220000	14112.045000	-53480.565000	-46791.720000	-11685.870000	9.873773	6.457985	-1.113417	2.813306	5.691360	6.801698	8.598881	-2.053334	-3.097780	5.295220	-1.159760	0.866758	-0.184265	0.435057	-1.000000	-1.000000	-1.000000	-1.000000	-1.000000	-1.000000	-1.000000	85.862069	0.000000	-1.000000	-1.000000	188651.000000	1774904311.884186
32651.010000	9064.620000	31475.835000	38382.255000	14105.070000	-53485.470000	-46796.265000	-11694.420000	-12.594563	-15.119623	-17.042528	-17.912294	-16.503285	-14.806964	-1.113580	-19.243114	-3.097780	5.295220	-1.159760	0.866758	-0.184265	0.435057	-1.000000	-1.000000	-1.000000	-1.000000	-1.000000	-1.000000	-1.000000	85.862069	0.000000	-1.000000	-1.000000	188652.000000	1774904311.884196
32656.140000	9083.520000	31473.945000	38377.980000	14102.505000	-53486.730000	-46799.730000	-11698.605000	-26.411808	-27.555652	-21.951450	-27.931649	-29.010033	-27.446443	-8.805836	-24.953198	-3.097780	5.295220	-1.159760	0.866758	-0.184265	0.435057	-1.000000	-1.000000	-1.000000	-1.000000	-1.000000	-1.000000	-1.000000	85.862069	0.000000	-1.000000	-1.000000	188653.000000	1774904311.888048
32673.150000	9105.030000	31485.060000	38393.775000	14121.810000	-53466.435000	-46777.230000	-11682.450000	-26.380648	-27.238127	-17.418504	-25.747788	-29.023525	-27.933315	-12.633886	-18.713228	-3.097780	5.295220	-1.159760	0.866758	-0.184265	0.435057	-1.000000	-1.000000	-1.000000	-1.000000	-1.000000	-1.000000	-1.000000	85.862069	0.000000	-1.000000	-1.000000	188654.000000	1774904311.888058
32713.605000	9155.610000	31530.240000	38447.730000	14179.455000	-53412.525000	-46735.470000	-11628.180000	-14.242698	-14.831026	-6.928039	-13.400928	-17.277096	-16.798757	-10.984423	-5.792517	-3.097780	5.295220	-1.159760	0.866758	-0.184265	0.435057	-1.000000	-1.000000	-1.000000	-1.000000	-1.000000	-1.000000	-1.000000	85.862069	0.000000	-1.000000	-1.000000	188655.000000	1774904311.892116
32696.595000	9173.565000	31547.160000	38469.510000	14200.605000	-53396.370000	-46730.655000	-11649.555000	2.841216	4.786375	6.148422	4.671399	1.996547	1.664762	-4.070963	6.703558	-3.097780	5.295220	-1.159760	0.866758	-0.184265	0.435057	-1.000000	-1.000000	-1.000000	-1.000000	-1.000000	-1.000000	-1.000000	85.862069	0.000000	-1.000000	-1.000000	188656.000000	1774904311.892126
32647.725000	9128.070000	31516.740000	38431.935000	14160.285000	-53433.945000	-46761.165000	-11724.075000	13.854756	21.186317	16.115338	19.636226	18.919033	17.661476	3.322909	11.662016	-3.097780	5.295220	-1.159760	0.866758	-0.184265	0.435057	-1.000000	-1.000000	-1.000000	-1.000000	-1.000000	-1.000000	-1.000000	85.862069	0.000000	-1.000000	-1.000000	188657.000000	1774904311.896064
32607.810000	9048.780000	31457.250000	38360.610000	14085.495000	-53508.330000	-46824.660000	-11794.095000	10.551790	21.943294	15.474363	21.001046	21.709521	19.980482	4.133951	4.925594	-3.097780	5.295220	-1.159760	0.866758	-0.184265	0.435057	-1.000000	-1.000000	-1.000000	-1.000000	-1.000000	-1.000000	-1.000000	85.862069	0.000000	-1.000000	-1.000000	188658.000000	1774904311.896075
32610.960000	9052.020000	31450.545000	38358.720000	14088.195000	-53504.145000	-46834.560000	-11771.460000	-4.144061	4.150330	1.655839	6.198559	7.561724	6.392321	-3.627353	-9.303039	-3.097780	5.295220	-1.159760	0.866758	-0.184265	0.435057	-1.000000	-1.000000	-1.000000	-1.000000	-1.000000	-1.000000	-1.000000	85.862069	0.000000	-1.000000	-1.000000	188659.000000	1774904311.905546
32678.145000	9106.335000	31511.520000	38423.025000	14152.950000	-53441.055000	-46808.055000	-11682.855000	-16.759840	-18.342544	-16.653941	-13.560953	-11.660877	-11.471248	-12.945537	-17.983240	-3.097780	5.295220	-1.159760	0.866758	-0.184265	0.435057	-1.000000	-1.000000	-1.000000	-1.000000	-1.000000	-1.000000	-1.000000	85.862069	0.000000	-1.000000	-1.000000	188660.000000	1774904311.905560
32732.685000	9163.305000	31559.850000	38470.320000	14197.680000	-53399.565000	-46774.755000	-11622.735000	-14.378507	-25.910643	-23.976297	-21.450032	-19.035274	-17.690416	-13.587932	-9.140584	-2.289000	5.249440	-2.502640	0.866331	-0.182922	0.436705	-1.000000	-1.000000	-1.000000	-1.000000	-1.000000	-1.000000	-1.000000	85.862069	0.000000	-1.000000	-1.000000	188661.000000	1774904311.905574
32741.955000	9174.465000	31549.050000	38449.530000	14177.745000	-53415.945000	-46760.220000	-11621.070000	3.273015	-12.410238	-13.077417	-11.321624	-9.159878	-7.690037	-2.313005	14.805892	-2.289000	5.249440	-2.502640	0.866331	-0.182922	0.436705	-1.000000	-1.000000	-1.000000	-1.000000	-1.000000	-1.000000	-1.000000	85.862069	0.000000	-1.000000	-1.000000	188662.000000	1774904311.905579
32667.525000	9081.045000	31441.815000	38341.440000	14074.200000	-53513.595000	-46795.590000	-11695.950000	21.982803	8.957915	5.710035	5.257506	6.086376	6.863505	13.044811	35.162570	-2.289000	5.249440	-2.502640	0.866331	-0.182922	0.436705	-1.000000	-1.000000	-1.000000	-1.000000	-1.000000	-1.000000	-1.000000	85.862069	0.000000	-1.000000	-1.000000	188663.000000	1774904311.909447
32578.020000	9009.765000	31357.710000	38280.420000	14016.870000	-53570.070000	-46819.260000	-11776.095000	24.105192	17.946283	13.509775	10.119325	9.260055	9.466798	19.913094	31.754217	-2.289000	5.249440	-2.502640	0.866331	-0.182922	0.436705	-1.000000	-1.000000	-1.000000	-1.000000	-1.000000	-1.000000	-1.000000	85.862069	0.000000	-1.000000	-1.000000	188664.000000	1774904311.909459
32584.770000	9002.430000	31348.170000	38285.910000	14022.540000	-53567.235000	-46813.320000	-11733.525000	5.411134	6.808685	2.796081	-1.871011	-3.770661	-3.556055	13.072054	3.798159	-2.289000	5.249440	-2.502640	0.866331	-0.182922	0.436705	-1.000000	-1.000000	-1.000000	-1.000000	-1.000000	-1.000000	-1.000000	85.862069	0.000000	-1.000000	-1.000000	188665.000000	1774904311.913641
32630.805000	9025.380000	31399.605000	38322.180000	14055.435000	-53535.015000	-46806.570000	-11674.395000	-18.229275	-11.620394	-13.393586	-16.332203	-18.228863	-17.916421	-0.095852	-25.308931	-2.289000	5.249440	-2.502640	0.866331	-0.182922	0.436705	-1.000000	-1.000000	-1.000000	-1.000000	-1.000000	-1.000000	-1.000000	85.862069	0.000000	-1.000000	-1.000000	188666.000000	1774904311.913651
32675.940000	9089.505000	31495.860000	38392.515000	14118.525000	-53480.205000	-46784.250000	-11661.570000	-25.533137	-17.028596	-14.381852	-14.322681	-15.560637	-15.734079	-7.462242	-30.944446	-2.289000	5.249440	-2.502640	0.866331	-0.182922	0.436705	-1.000000	-1.000000	-1.000000	-1.000000	-1.000000	-1.000000	-1.000000	85.862069	0.000000	-1.000000	-1.000000	188667.000000	1774904311.916950
32689.890000	9122.040000	31526.595000	38426.085000	14150.025000	-53451.630000	-46771.470000	-11667.735000	-10.823020	-1.779412	6.370729	7.817336	7.172409	5.822507	-3.858910	-12.659608	-2.289000	5.249440	-2.502640	0.866331	-0.182922	0.436705	-1.000000	-1.000000	-1.000000	-1.000000	-1.000000	-1.000000	-1.000000	85.862069	0.000000	-1.000000	-1.000000	188668.000000	1774904311.916962
32667.795000	9107.460000	31500.855000	38412.720000	14136.255000	-53465.265000	-46785.240000	-11697.345000	11.620697	21.748840	32.979115	33.614376	33.152180	30.614145	4.874781	8.572613	-2.289000	5.249440	-2.502640	0.866331	-0.182922	0.436705	-1.000000	-1.000000	-1.000000	-1.000000	-1.000000	-1.000000	-1.000000	85.862069	0.000000	-1.000000	-1.000000	188669.000000	1774904311.919980
32626.530000	9058.680000	31444.920000	38361.015000	14090.175000	-53507.070000	-46812.060000	-11724.930000	21.998720	32.451412	41.543029	41.111446	40.784463	38.120982	8.251260	13.575830	-2.289000	5.249440	-2.502640	0.866331	-0.182922	0.436705	-1.000000	-1.000000	-1.000000	-1.000000	-1.000000	-1.000000	-1.000000	85.862069	0.000000	-1.000000	-1.000000	188670.000000	1774904311.919991
32623.920000	9051.120000	31434.120000	38339.955000	14073.165000	-53522.190000	-46818.630000	-11717.190000	13.201844	20.362254	23.350248	23.185065	23.472071	22.173728	1.533958	1.651711	-1.480220	5.310480	-2.777320	0.868650	-0.186462	0.437926	-1.000000	-1.000000	-1.000000	-1.000000	-1.000000	-1.000000	-1.000000	85.862069	0.000000	-1.000000	-1.000000	188671.000000	1774904311.925179
32639.310000	9094.905000	31475.295000	38372.130000	14110.560000	-53487.180000	-46785.240000	-11681.055000	-3.750731	-3.399367	-6.668082	-6.053325	-4.751669	-3.982571	-9.458200	-11.767565	-1.480220	5.310480	-2.777320	0.868650	-0.186462	0.437926	-1.000000	-1.000000	-1.000000	-1.000000	-1.000000	-1.000000	-1.000000	85.862069	0.000000	-1.000000	-1.000000	188672.000000	1774904311.925189
32627.520000	9103.950000	31491.855000	38395.395000	14133.465000	-53464.590000	-46766.925000	-11674.170000	-12.372284	-18.539572	-25.218190	-25.225117	-23.167649	-20.875008	-14.257603	-11.592162	-1.480220	5.310480	-2.777320	0.868650	-0.186462	0.437926	-1.000000	-1.000000	-1.000000	-1.000000	-1.000000	-1.000000	-1.000000	85.862069	0.000000	-1.000000	-1.000000	188673.000000	1774904311.927840
32626.710000	9070.380000	31464.045000	38375.595000	14112.720000	-53487.180000	-46785.960000	-11695.905000	-7.608926	-16.807564	-23.418133	-25.393702	-23.419751	-20.787559	-8.802926	1.704279	-1.480220	5.310480	-2.777320	0.868650	-0.186462	0.437926	-1.000000	-1.000000	-1.000000	-1.000000	-1.000000	-1.000000	-1.000000	85.862069	0.000000	-1.000000	-1.000000	188674.000000	1774904311.927847
32652.315000	9061.470000	31449.330000	38359.845000	14099.085000	-53500.860000	-46797.480000	-11692.755000	2.542046	-6.844047	-11.884479	-14.564170	-13.425050	-11.452215	1.318833	14.596090	-1.480220	5.310480	-2.777320	0.868650	-0.186462	0.437926	-1.000000	-1.000000	-1.000000	-1.000000	-1.000000	-1.000000	-1.000000	85.862069	0.000000	-1.000000	-1.000000	188675.000000	1774904311.931878
32665.995000	9053.910000	31419.900000	38328.120000	14068.485000	-53531.505000	-46818.360000	-11707.830000	8.515114	-1.116309	-6.109721	-6.237648	-5.989985	-5.005732	7.710109	16.209722	-1.480220	5.310480	-2.777320	0.868650	-0.186462	0.437926	-1.000000	-1.000000	-1.000000	-1.000000	-1.000000	-1.000000	-1.000000	85.862069	0.000000	-1.000000	-1.000000	188676.000000	1774904311.931884
32672.565000	9074.745000	31417.155000	38332.710000	14086.080000	-53514.630000	-46815.615000	-11708.595000	6.965985	-3.792132	-11.107621	-6.881861	-6.922733	-6.658837	6.434062	6.635428	-1.480220	5.310480	-2.777320	0.868650	-0.186462	0.437926	-1.000000	-1.000000	-1.000000	-1.000000	-1.000000	-1.000000	-1.000000	85.862069	0.000000	-1.000000	-1.000000	188677.000000	1774904311.935887
32686.965000	9088.110000	31450.095000	38368.935000	14115.060000	-53484.120000	-46800.855000	-11701.575000	0.800928	-9.121338	-18.067896	-11.218400	-10.968132	-11.084216	0.475607	-6.216423	-1.480220	5.310480	-2.777320	0.868650	-0.186462	0.437926	-1.000000	-1.000000	-1.000000	-1.000000	-1.000000	-1.000000	-1.000000	85.862069	0.000000	-1.000000	-1.000000	188678.000000	1774904311.935898
32697.270000	9107.235000	31516.380000	38429.550000	14159.655000	-53440.515000	-46779.255000	-11678.985000	-4.173344	-8.508346	-13.385216	-7.739389	-7.753621	-8.229580	-3.358779	-13.123640	-1.480220	5.310480	-2.777320	0.868650	-0.186462	0.437926	-1.000000	-1.000000	-1.000000	-1.000000	-1.000000	-1.000000	-1.000000	85.862069	0.000000	-1.000000	-1.000000	188679.000000	1774904311.948462
32725.170000	9150.840000	31545.360000	38448.405000	14175.585000	-53428.815000	-46764.540000	-11640.240000	-3.949988	1.188750	7.323807	8.661352	6.640467	5.537599	-1.116281	-9.619942	-1.480220	5.310480	-2.777320	0.868650	-0.186462	0.437926	-1.000000	-1.000000	-1.000000	-1.000000	-1.000000	-1.000000	-1.000000	85.862069	0.000000	-1.000000	-1.000000	188680.000000	1774904311.948476
32704.785000	9163.440000	31539.645000	38438.820000	14164.110000	-53445.330000	-46771.290000	-11674.980000	0.632081	15.014780	32.620739	28.798301	23.797676	21.877756	4.465727	0.807473	-0.747740	4.242280	-2.227960	0.869322	-0.190673	0.439147	-1.000000	-1.000000	-1.000000	-1.000000	-1.000000	-1.000000	-1.000000	85.862069	0.000000	-1.000000	-1.000000	188681.000000	1774904311.948489
32607.855000	9080.730000	31466.835000	38367.180000	14103.270000	-53497.755000	-46794.420000	-11740.950000	3.630497	22.781852	43.519239	35.840451	29.452574	27.135341	7.045419	8.487035	-0.747740	4.242280	-2.227960	0.869322	-0.190673	0.439147	-1.000000	-1.000000	-1.000000	-1.000000	-1.000000	-1.000000	-1.000000	85.862069	0.000000	-1.000000	-1.000000	188682.000000	1774904311.948494
32561.640000	9014.535000	31400.460000	38306.385000	14053.230000	-53542.755000	-46811.880000	-11755.080000	-1.984867	15.979895	29.084679	20.491496	16.406896	14.935433	3.393753	5.791533	-0.747740	4.242280	-2.227960	0.869322	-0.190673	0.439147	-1.000000	-1.000000	-1.000000	-1.000000	-1.000000	-1.000000	-1.000000	85.862069	0.000000	-1.000000	-1.000000	188683.000000	1774904311.948500
32632.245000	9039.960000	31398.840000	38324.790000	14072.445000	-53529.165000	-46801.665000	-11698.695000	-14.836602	-3.586448	-4.257445	-9.671247	-8.215580	-7.626813	-3.553714	-4.081739	-0.747740	4.242280	-2.227960	0.869322	-0.190673	0.439147	-1.000000	-1.000000	-1.000000	-1.000000	-1.000000	-1.000000	-1.000000	85.862069	0.000000	-1.000000	-1.000000	188684.000000	1774904311.948504
32661.315000	9080.190000	31468.455000	38384.190000	14118.390000	-53487.765000	-46792.800000	-11685.105000	-22.784292	-22.601356	-35.603077	-34.504510	-27.637794	-25.148355	-7.979863	-10.069488	-0.747740	4.242280	-2.227960	0.869322	-0.190673	0.439147	-1.000000	-1.000000	-1.000000	-1.000000	-1.000000	-1.000000	-1.000000	85.862069	0.000000	-1.000000	-1.000000	188685.000000	1774904311.957960
