Channel1	Channel2	Channel3	Channel4	Channel5	Channel6	Channel7	Channel8	FilteredChannel1	FilteredChannel2	FilteredChannel3	FilteredChannel4	FilteredChannel5	FilteredChannel6	FilteredChannel7	FilteredChannel8	GyroX	GyroY	GyroZ	AccX	AccY	AccZ	PPG1	PPG2	rawPPG1	rawPPG2	rawPPG3	Hr	Hrv	Battery	Trigger	PhysicalTrigger	AutoTrigger	NumMeasurements	Timestamp
-2426.625000	-8666.370000	-288.585000	13106.565000	-1819.080000	-1795.320000	8687.970000	-2974.500000	-19.219073	-21.433186	-20.781243	-18.507259	-15.435044	-13.955897	-17.372018	7.801509	-3.280900	5.783540	-1.541260	0.632262	0.752439	0.111572	-1.000000	-1.000000	-1.000000	-1.000000	-1.000000	-1.000000	-1.000000	76.551724	0.000000	-1.000000	-1.000000	1739642.000000	1770064975.989363
-2322.720000	-8545.815000	-162.360000	13234.545000	-1687.995000	-1682.370000	8765.640000	-2874.645000	-19.618740	-22.370385	-22.202076	-20.349802	-18.089585	-17.354911	-26.293500	-1.121162	-3.280900	5.783540	-1.541260	0.632262	0.752439	0.111572	-1.000000	-1.000000	-1.000000	-1.000000	-1.000000	-1.000000	-1.000000	76.551724	0.000000	-1.000000	-1.000000	1739643.000000	1770064976.001030
-2357.370000	-8597.115000	-214.470000	13184.100000	-1734.795000	-1722.105000	8878.905000	-2837.970000	-6.791824	-7.214590	-6.979216	-5.893939	-4.864794	-6.354225	-18.204406	-7.906678	-3.280900	5.783540	-1.541260	0.632262	0.752439	0.111572	-1.000000	-1.000000	-1.000000	-1.000000	-1.000000	-1.000000	-1.000000	76.551724	0.000000	-1.000000	-1.000000	1739644.000000	1770064976.001042
-2488.950000	-8745.075000	-364.995000	13034.430000	-1881.540000	-1864.395000	8776.665000	-2936.475000	9.650996	11.785840	12.607542	13.267259	13.413268	8.829276	5.399838	-6.386153	-3.280900	5.783540	-1.541260	0.632262	0.752439	0.111572	-1.000000	-1.000000	-1.000000	-1.000000	-1.000000	-1.000000	-1.000000	76.551724	0.000000	-1.000000	-1.000000	1739645.000000	1770064976.001055
-2436.210000	-8671.680000	-288.990000	13112.730000	-1804.455000	-1779.975000	8813.430000	-3019.815000	14.560162	16.768343	17.967825	18.610966	18.315844	12.168045	27.133667	-3.471649	-3.280900	5.783540	-1.541260	0.632262	0.752439	0.111572	-1.000000	-1.000000	-1.000000	-1.000000	-1.000000	-1.000000	-1.000000	76.551724	0.000000	-1.000000	-1.000000	1739646.000000	1770064976.001060
-2422.755000	-8665.785000	-282.105000	13121.865000	-1792.170000	-1763.595000	8832.735000	-3022.695000	7.432453	7.926438	8.870681	9.540282	8.766665	4.286327	32.169568	-7.334544	-3.280900	5.783540	-1.541260	0.632262	0.752439	0.111572	-1.000000	-1.000000	-1.000000	-1.000000	-1.000000	-1.000000	-1.000000	76.551724	0.000000	-1.000000	-1.000000	1739647.000000	1770064976.001763
-2442.645000	-8698.905000	-316.665000	13086.180000	-1828.890000	-1809.315000	8728.560000	-2991.330000	-0.880312	-2.012356	-1.808152	-1.415362	-2.905727	-3.055207	20.039689	-15.607657	-3.280900	5.783540	-1.541260	0.632262	0.752439	0.111572	-1.000000	-1.000000	-1.000000	-1.000000	-1.000000	-1.000000	-1.000000	76.551724	0.000000	-1.000000	-1.000000	1739648.000000	1770064976.001772
-2439.855000	-8691.930000	-307.395000	13099.095000	-1815.930000	-1794.420000	8786.430000	-2980.665000	-2.839085	-4.543746	-5.078503	-5.281601	-7.336112	-3.317595	0.376715	-18.115340	-3.280900	5.783540	-1.541260	0.632262	0.752439	0.111572	-1.000000	-1.000000	-1.000000	-1.000000	-1.000000	-1.000000	-1.000000	76.551724	0.000000	-1.000000	-1.000000	1739649.000000	1770064976.005160
-2485.305000	-8736.345000	-346.950000	13066.920000	-1846.350000	-1833.480000	8811.045000	-3017.970000	1.900967	1.179990	0.504479	-0.129596	-2.017066	3.174512	-12.275222	-7.480464	-3.280900	5.783540	-1.541260	0.632262	0.752439	0.111572	-1.000000	-1.000000	-1.000000	-1.000000	-1.000000	-1.000000	-1.000000	76.551724	0.000000	-1.000000	-1.000000	1739650.000000	1770064976.005171
-2498.895000	-8751.375000	-359.415000	13059.180000	-1851.840000	-1821.510000	8782.515000	-3029.175000	6.241095	7.212900	7.126104	6.816233	6.060077	9.548088	-10.782416	11.502238	-5.585160	10.193680	-4.288060	0.637938	0.752439	0.110046	-1.000000	-1.000000	-1.000000	-1.000000	-1.000000	-1.000000	-1.000000	76.551724	0.000000	-1.000000	-1.000000	1739651.000000	1770064976.011883
-2468.340000	-8718.300000	-328.365000	13085.235000	-1826.685000	-1790.325000	8807.445000	-2968.695000	2.605550	4.122596	4.661824	5.162150	5.939150	7.602549	-3.818496	25.386686	-5.585160	10.193680	-4.288060	0.637938	0.752439	0.110046	-1.000000	-1.000000	-1.000000	-1.000000	-1.000000	-1.000000	-1.000000	76.551724	0.000000	-1.000000	-1.000000	1739652.000000	1770064976.011893
-2447.640000	-8703.090000	-319.095000	13090.050000	-1824.840000	-1789.380000	8803.710000	-2976.030000	-5.196717	-4.518108	-4.178064	-3.549097	-1.934342	-0.633667	-3.134266	26.573681	-5.585160	10.193680	-4.288060	0.637938	0.752439	0.110046	-1.000000	-1.000000	-1.000000	-1.000000	-1.000000	-1.000000	-1.000000	76.551724	0.000000	-1.000000	-1.000000	1739653.000000	1770064976.013295
-2452.590000	-8693.280000	-310.815000	13097.295000	-1820.295000	-1801.755000	8792.370000	-2982.600000	-5.944552	-5.953226	-6.762258	-7.366257	-6.281224	-5.359837	-8.952738	19.270566	-5.585160	10.193680	-4.288060	0.637938	0.752439	0.110046	-1.000000	-1.000000	-1.000000	-1.000000	-1.000000	-1.000000	-1.000000	76.551724	0.000000	-1.000000	-1.000000	1739654.000000	1770064976.013305
-2441.970000	-8682.570000	-292.410000	13119.930000	-1794.870000	-1785.105000	8800.830000	-2969.505000	2.814207	3.180786	1.100586	-1.359047	-1.770699	-3.221262	-13.661059	11.712115	-5.585160	10.193680	-4.288060	0.637938	0.752439	0.110046	-1.000000	-1.000000	-1.000000	-1.000000	-1.000000	-1.000000	-1.000000	76.551724	0.000000	-1.000000	-1.000000	1739655.000000	1770064976.017137
-2425.050000	-8682.390000	-292.815000	13120.695000	-1794.195000	-1782.540000	8801.865000	-2960.055000	12.204533	13.206822	10.857420	7.390857	5.665351	0.520589	-12.066702	6.461202	-5.585160	10.193680	-4.288060	0.637938	0.752439	0.110046	-1.000000	-1.000000	-1.000000	-1.000000	-1.000000	-1.000000	-1.000000	76.551724	0.000000	-1.000000	-1.000000	1739656.000000	1770064976.017144
-2441.160000	-8684.100000	-307.755000	13113.945000	-1801.215000	-1784.790000	8802.495000	-2972.475000	14.321405	15.301022	13.870056	11.201839	9.275941	2.161343	-2.968105	-0.351728	-5.585160	10.193680	-4.288060	0.637938	0.752439	0.110046	-1.000000	-1.000000	-1.000000	-1.000000	-1.000000	-1.000000	-1.000000	76.551724	0.000000	-1.000000	-1.000000	1739657.000000	1770064976.023340
-2441.925000	-8661.780000	-286.155000	13133.250000	-1782.315000	-1768.680000	8826.435000	-2952.045000	8.801155	9.783921	9.461847	9.101165	8.181891	2.899957	10.611150	-10.289790	-5.585160	10.193680	-4.288060	0.637938	0.752439	0.110046	-1.000000	-1.000000	-1.000000	-1.000000	-1.000000	-1.000000	-1.000000	76.551724	0.000000	-1.000000	-1.000000	1739658.000000	1770064976.023352
-2425.635000	-8654.175000	-264.420000	13135.815000	-1778.715000	-1775.565000	8815.725000	-2935.440000	0.039255	1.788172	2.129371	3.862896	4.530729	3.805527	20.920668	-17.812106	-5.585160	10.193680	-4.288060	0.637938	0.752439	0.110046	-1.000000	-1.000000	-1.000000	-1.000000	-1.000000	-1.000000	-1.000000	76.551724	0.000000	-1.000000	-1.000000	1739659.000000	1770064976.025234
-2416.815000	-8675.370000	-289.890000	13104.450000	-1813.050000	-1803.780000	8780.175000	-2974.095000	-7.588457	-5.979583	-5.017537	-3.324295	-1.412455	2.169953	20.602859	-18.629926	-5.585160	10.193680	-4.288060	0.637938	0.752439	0.110046	-1.000000	-1.000000	-1.000000	-1.000000	-1.000000	-1.000000	-1.000000	76.551724	0.000000	-1.000000	-1.000000	1739660.000000	1770064976.025241
-2414.520000	-8671.815000	-288.945000	13113.945000	-1809.990000	-1791.000000	8787.825000	-2973.645000	-12.495458	-13.926858	-12.214437	-12.399621	-10.347264	-4.767181	7.982546	-16.333303	-4.562740	9.094960	-3.601360	0.635374	0.751585	0.113708	-1.000000	-1.000000	-1.000000	-1.000000	-1.000000	-1.000000	-1.000000	76.551724	0.000000	-1.000000	-1.000000	1739661.000000	1770064976.029077
-2466.180000	-8680.050000	-289.845000	13119.750000	-1801.215000	-1777.230000	8790.840000	-2985.120000	-14.772556	-20.081354	-17.829483	-19.180849	-18.122469	-12.669530	-10.018387	-14.330745	-4.562740	9.094960	-3.601360	0.635374	0.751585	0.113708	-1.000000	-1.000000	-1.000000	-1.000000	-1.000000	-1.000000	-1.000000	76.551724	0.000000	-1.000000	-1.000000	1739662.000000	1770064976.029085
-2460.735000	-8681.265000	-290.115000	13122.360000	-1793.835000	-1766.340000	8801.685000	-2967.840000	-14.628792	-20.358570	-17.948015	-18.052807	-18.219930	-13.683522	-21.452536	-9.641467	-4.562740	9.094960	-3.601360	0.635374	0.751585	0.113708	-1.000000	-1.000000	-1.000000	-1.000000	-1.000000	-1.000000	-1.000000	76.551724	0.000000	-1.000000	-1.000000	1739663.000000	1770064976.033183
-2438.235000	-8682.930000	-292.905000	13118.985000	-1798.470000	-1771.875000	8805.600000	-2977.425000	-11.710980	-14.094384	-12.182228	-9.649246	-10.331573	-6.746718	-19.840482	0.010128	-4.562740	9.094960	-3.601360	0.635374	0.751585	0.113708	-1.000000	-1.000000	-1.000000	-1.000000	-1.000000	-1.000000	-1.000000	76.551724	0.000000	-1.000000	-1.000000	1739664.000000	1770064976.033198
-2435.490000	-8677.260000	-283.365000	13128.030000	-1791.630000	-1769.580000	8804.295000	-2984.265000	-5.139475	-3.892104	-3.261834	0.948677	0.475323	2.635018	-7.854076	10.419015	-4.562740	9.094960	-3.601360	0.635374	0.751585	0.113708	-1.000000	-1.000000	-1.000000	-1.000000	-1.000000	-1.000000	-1.000000	76.551724	0.000000	-1.000000	-1.000000	1739665.000000	1770064976.038406
-2390.490000	-8653.995000	-269.145000	13136.085000	-1792.125000	-1771.290000	8802.675000	-2928.195000	5.075833	7.441045	6.660481	10.066909	9.854881	9.423335	6.948187	16.433722	-4.562740	9.094960	-3.601360	0.635374	0.751585	0.113708	-1.000000	-1.000000	-1.000000	-1.000000	-1.000000	-1.000000	-1.000000	76.551724	0.000000	-1.000000	-1.000000	1739666.000000	1770064976.038419
-2353.815000	-8618.805000	-237.510000	13168.935000	-1757.295000	-1735.920000	8824.545000	-2931.030000	16.948480	17.185717	15.329522	15.867374	15.472373	11.859484	16.550406	17.607602	-4.562740	9.094960	-3.601360	0.635374	0.751585	0.113708	-1.000000	-1.000000	-1.000000	-1.000000	-1.000000	-1.000000	-1.000000	76.551724	0.000000	-1.000000	-1.000000	1739667.000000	1770064976.041145
-2381.715000	-8620.290000	-237.195000	13171.230000	-1749.420000	-1729.170000	8838.495000	-2948.670000	25.062565	22.255982	19.426174	17.217364	16.491257	10.831344	17.629415	14.719817	-4.562740	9.094960	-3.601360	0.635374	0.751585	0.113708	-1.000000	-1.000000	-1.000000	-1.000000	-1.000000	-1.000000	-1.000000	76.551724	0.000000	-1.000000	-1.000000	1739668.000000	1770064976.041157
-2390.490000	-8637.975000	-257.490000	13146.930000	-1774.530000	-1757.970000	8805.645000	-2895.705000	22.171528	19.754339	16.295398	13.383789	12.937437	7.248199	12.040412	8.076326	-4.562740	9.094960	-3.601360	0.635374	0.751585	0.113708	-1.000000	-1.000000	-1.000000	-1.000000	-1.000000	-1.000000	-1.000000	76.551724	0.000000	-1.000000	-1.000000	1739669.000000	1770064976.045119
-2396.925000	-8642.160000	-259.020000	13145.355000	-1775.790000	-1772.055000	8763.345000	-2889.405000	7.355345	9.393702	6.483581	4.609718	5.223102	0.657438	1.734100	0.764606	-4.562740	9.094960	-3.601360	0.635374	0.751585	0.113708	-1.000000	-1.000000	-1.000000	-1.000000	-1.000000	-1.000000	-1.000000	76.551724	0.000000	-1.000000	-1.000000	1739670.000000	1770064976.045127
-2422.890000	-8663.265000	-277.605000	13126.590000	-1793.115000	-1784.700000	8791.020000	-2951.505000	-10.785071	-4.697998	-5.700403	-6.417016	-4.715687	-8.048095	-10.531145	-4.513169	-3.525060	6.500760	-1.785420	0.628844	0.751158	0.116089	-1.000000	-1.000000	-1.000000	-1.000000	-1.000000	-1.000000	-1.000000	76.551724	0.000000	-1.000000	-1.000000	1739671.000000	1770064976.049506
-2446.740000	-8696.610000	-315.900000	13085.640000	-1831.365000	-1814.040000	8784.135000	-3027.510000	-22.914234	-16.873227	-15.550653	-15.948971	-14.036647	-15.676320	-18.673391	-10.275913	-3.525060	6.500760	-1.785420	0.628844	0.751158	0.116089	-1.000000	-1.000000	-1.000000	-1.000000	-1.000000	-1.000000	-1.000000	76.551724	0.000000	-1.000000	-1.000000	1739672.000000	1770064976.049513
-2423.970000	-8673.120000	-293.445000	13104.900000	-1822.635000	-1809.540000	8778.285000	-2988.810000	-25.580987	-22.781453	-20.019739	-20.793818	-19.859555	-18.613424	-17.981430	-18.295826	-3.525060	6.500760	-1.785420	0.628844	0.751158	0.116089	-1.000000	-1.000000	-1.000000	-1.000000	-1.000000	-1.000000	-1.000000	76.551724	0.000000	-1.000000	-1.000000	1739673.000000	1770064976.053212
-2439.405000	-8688.915000	-303.255000	13103.010000	-1821.780000	-1795.545000	8805.240000	-2976.120000	-19.264179	-19.806047	-16.913806	-17.967067	-18.736174	-13.993335	-8.830846	-22.754554	-3.525060	6.500760	-1.785420	0.628844	0.751158	0.116089	-1.000000	-1.000000	-1.000000	-1.000000	-1.000000	-1.000000	-1.000000	76.551724	0.000000	-1.000000	-1.000000	1739674.000000	1770064976.053222
-2485.620000	-8731.305000	-342.810000	13066.785000	-1850.175000	-1818.945000	8781.210000	-2989.665000	-8.166671	-10.229238	-7.740874	-8.083535	-10.052011	-2.633096	3.983823	-17.631751	-3.525060	6.500760	-1.785420	0.628844	0.751158	0.116089	-1.000000	-1.000000	-1.000000	-1.000000	-1.000000	-1.000000	-1.000000	76.551724	0.000000	-1.000000	-1.000000	1739675.000000	1770064976.057192
-2442.195000	-8671.545000	-283.320000	13122.630000	-1798.830000	-1782.855000	8788.770000	-2958.480000	1.569163	-0.068989	2.117596	3.523883	1.822416	9.671863	13.200683	-4.454856	-3.525060	6.500760	-1.785420	0.628844	0.751158	0.116089	-1.000000	-1.000000	-1.000000	-1.000000	-1.000000	-1.000000	-1.000000	76.551724	0.000000	-1.000000	-1.000000	1739676.000000	1770064976.057200
-2319.300000	-8537.490000	-148.185000	13259.295000	-1664.235000	-1660.905000	8889.345000	-2944.215000	10.109791	10.002629	11.656791	14.715711	14.158579	19.038302	15.781854	11.280091	-3.525060	6.500760	-1.785420	0.628844	0.751158	0.116089	-1.000000	-1.000000	-1.000000	-1.000000	-1.000000	-1.000000	-1.000000	76.551724	0.000000	-1.000000	-1.000000	1739677.000000	1770064976.062844
-2340.360000	-8569.575000	-180.450000	13227.885000	-1695.510000	-1688.355000	8851.905000	-2931.570000	21.572328	22.866431	23.383919	26.812377	27.065066	26.210967	15.412731	23.133148	-3.525060	6.500760	-1.785420	0.628844	0.751158	0.116089	-1.000000	-1.000000	-1.000000	-1.000000	-1.000000	-1.000000	-1.000000	76.551724	0.000000	-1.000000	-1.000000	1739678.000000	1770064976.062850
-2449.440000	-8711.100000	-325.350000	13081.905000	-1836.720000	-1820.880000	8773.605000	-2945.160000	30.678637	31.296201	30.227479	32.454119	32.882821	26.819048	12.878540	25.770118	-3.525060	6.500760	-1.785420	0.628844	0.751158	0.116089	-1.000000	-1.000000	-1.000000	-1.000000	-1.000000	-1.000000	-1.000000	76.551724	0.000000	-1.000000	-1.000000	1739679.000000	1770064976.066904
-2409.120000	-8650.305000	-267.885000	13135.005000	-1785.690000	-1760.670000	8827.695000	-2919.960000	26.350378	23.240505	20.512200	20.449738	20.757049	13.336127	4.186869	19.990933	-3.525060	6.500760	-1.785420	0.628844	0.751158	0.116089	-1.000000	-1.000000	-1.000000	-1.000000	-1.000000	-1.000000	-1.000000	76.551724	0.000000	-1.000000	-1.000000	1739680.000000	1770064976.066916
-2464.920000	-8709.930000	-332.730000	13067.145000	-1850.805000	-1810.935000	8816.445000	-2938.815000	7.841016	0.938351	-2.937802	-5.425191	-5.281667	-9.712961	-8.685453	11.330338	-2.701020	4.791640	-2.304260	0.629088	0.750547	0.115478	-1.000000	-1.000000	-1.000000	-1.000000	-1.000000	-1.000000	-1.000000	76.551724	0.000000	-1.000000	-1.000000	1739681.000000	1770064976.069171
-2530.395000	-8795.520000	-416.835000	12983.850000	-1928.115000	-1894.995000	8747.775000	-3024.855000	-15.921642	-22.906384	-26.787524	-30.752285	-30.466450	-29.828651	-18.771360	1.225017	-2.701020	4.791640	-2.304260	0.629088	0.750547	0.115478	-1.000000	-1.000000	-1.000000	-1.000000	-1.000000	-1.000000	-1.000000	76.551724	0.000000	-1.000000	-1.000000	1739682.000000	1770064976.069180
-2463.795000	-8719.650000	-340.920000	13059.360000	-1858.545000	-1830.780000	8783.775000	-2985.255000	-33.920297	-37.390933	-39.944008	-43.842838	-42.985729	-38.768671	-22.614186	-12.501461	-2.701020	4.791640	-2.304260	0.629088	0.750547	0.115478	-1.000000	-1.000000	-1.000000	-1.000000	-1.000000	-1.000000	-1.000000	76.551724	0.000000	-1.000000	-1.000000	1739683.000000	1770064976.073193
-2435.580000	-8684.955000	-304.695000	13098.330000	-1822.185000	-1805.265000	8767.125000	-2970.540000	-35.023452	-33.703648	-34.037610	-36.464055	-35.392572	-31.578840	-18.994412	-25.223290	-2.701020	4.791640	-2.304260	0.629088	0.750547	0.115478	-1.000000	-1.000000	-1.000000	-1.000000	-1.000000	-1.000000	-1.000000	76.551724	0.000000	-1.000000	-1.000000	1739684.000000	1770064976.073200
-2438.775000	-8677.755000	-289.035000	13124.430000	-1793.655000	-1789.830000	8756.055000	-2982.825000	-17.746423	-12.480267	-10.461853	-10.420560	-10.150384	-10.013672	-9.034970	-28.081300	-2.701020	4.791640	-2.304260	0.629088	0.750547	0.115478	-1.000000	-1.000000	-1.000000	-1.000000	-1.000000	-1.000000	-1.000000	76.551724	0.000000	-1.000000	-1.000000	1739685.000000	1770064976.077240
-2396.115000	-8626.860000	-239.220000	13169.835000	-1753.470000	-1744.290000	8815.365000	-2950.515000	5.009434	12.022716	15.847095	18.646835	17.649179	13.924668	2.239537	-19.203617	-2.701020	4.791640	-2.304260	0.629088	0.750547	0.115478	-1.000000	-1.000000	-1.000000	-1.000000	-1.000000	-1.000000	-1.000000	76.551724	0.000000	-1.000000	-1.000000	1739686.000000	1770064976.077249
-2439.990000	-8679.330000	-297.045000	13106.205000	-1818.630000	-1795.950000	8789.355000	-2964.555000	20.195571	26.835761	31.211513	35.625198	33.741209	28.931402	12.031082	-3.843115	-2.701020	4.791640	-2.304260	0.629088	0.750547	0.115478	-1.000000	-1.000000	-1.000000	-1.000000	-1.000000	-1.000000	-1.000000	76.551724	0.000000	-1.000000	-1.000000	1739687.000000	1770064976.081149
-2474.820000	-8721.405000	-339.435000	13062.420000	-1858.545000	-1825.830000	8788.545000	-2977.245000	24.343848	29.140715	32.327143	36.010334	33.967319	31.694580	20.028672	10.917177	-2.701020	4.791640	-2.304260	0.629088	0.750547	0.115478	-1.000000	-1.000000	-1.000000	-1.000000	-1.000000	-1.000000	-1.000000	76.551724	0.000000	-1.000000	-1.000000	1739688.000000	1770064976.081158
-2452.545000	-8698.275000	-316.440000	13088.880000	-1832.310000	-1808.010000	8793.945000	-2981.835000	19.284733	20.972136	21.793086	22.959457	21.580342	23.421909	22.810601	19.298039	-2.701020	4.791640	-2.304260	0.629088	0.750547	0.115478	-1.000000	-1.000000	-1.000000	-1.000000	-1.000000	-1.000000	-1.000000	76.551724	0.000000	-1.000000	-1.000000	1739689.000000	1770064976.086067
-2461.230000	-8704.035000	-319.815000	13092.300000	-1824.165000	-1805.805000	8775.630000	-2993.040000	9.629987	7.734949	6.412829	5.220892	5.188087	9.328958	17.289367	19.575401	-2.701020	4.791640	-2.304260	0.629088	0.750547	0.115478	-1.000000	-1.000000	-1.000000	-1.000000	-1.000000	-1.000000	-1.000000	76.551724	0.000000	-1.000000	-1.000000	1739690.000000	1770064976.086087
-2441.880000	-8680.590000	-294.885000	13117.275000	-1797.615000	-1785.870000	8791.560000	-2974.815000	1.400919	-2.663887	-4.909747	-6.875342	-5.381514	-2.360314	6.251321	14.552494	-3.921820	6.134520	-2.273740	0.631224	0.751341	0.112732	-1.000000	-1.000000	-1.000000	-1.000000	-1.000000	-1.000000	-1.000000	76.551724	0.000000	-1.000000	-1.000000	1739691.000000	1770064976.091467
-2426.625000	-8653.455000	-270.270000	13133.070000	-1791.720000	-1774.935000	8804.385000	-2954.790000	-3.150142	-6.849544	-8.860190	-10.328135	-7.885685	-7.898648	-4.430732	7.942392	-3.921820	6.134520	-2.273740	0.631224	0.751341	0.112732	-1.000000	-1.000000	-1.000000	-1.000000	-1.000000	-1.000000	-1.000000	76.551724	0.000000	-1.000000	-1.000000	1739692.000000	1770064976.091477
-2448.945000	-8680.185000	-301.500000	13095.360000	-1830.555000	-1807.245000	8783.955000	-2969.685000	-6.579027	-8.462146	-9.908039	-11.031288	-8.902434	-10.779292	-11.002801	1.102029	-3.921820	6.134520	-2.273740	0.631224	0.751341	0.112732	-1.000000	-1.000000	-1.000000	-1.000000	-1.000000	-1.000000	-1.000000	76.551724	0.000000	-1.000000	-1.000000	1739693.000000	1770064976.093426
-2425.230000	-8672.895000	-292.545000	13113.855000	-1804.140000	-1785.330000	8783.505000	-2969.280000	-11.477195	-12.533815	-13.846289	-15.481047	-14.711238	-15.452793	-13.762181	-5.980361	-3.921820	6.134520	-2.273740	0.631224	0.751341	0.112732	-1.000000	-1.000000	-1.000000	-1.000000	-1.000000	-1.000000	-1.000000	76.551724	0.000000	-1.000000	-1.000000	1739694.000000	1770064976.093434
-2431.890000	-8675.550000	-290.790000	13121.415000	-1791.855000	-1770.705000	8800.965000	-2964.645000	-16.241875	-18.649102	-20.045382	-22.009742	-22.357348	-20.307558	-14.443201	-12.292972	-3.921820	6.134520	-2.273740	0.631224	0.751341	0.112732	-1.000000	-1.000000	-1.000000	-1.000000	-1.000000	-1.000000	-1.000000	76.551724	0.000000	-1.000000	-1.000000	1739695.000000	1770064976.097294
-2432.610000	-8675.010000	-288.270000	13128.120000	-1786.860000	-1765.440000	8818.290000	-2962.575000	-15.489620	-19.509394	-20.281159	-20.991426	-21.346253	-17.933444	-11.727599	-15.050252	-3.921820	6.134520	-2.273740	0.631224	0.751341	0.112732	-1.000000	-1.000000	-1.000000	-1.000000	-1.000000	-1.000000	-1.000000	76.551724	0.000000	-1.000000	-1.000000	1739696.000000	1770064976.097303
-2437.830000	-8659.260000	-268.965000	13146.525000	-1769.670000	-1751.850000	8819.010000	-2966.130000	-6.319362	-9.214357	-8.350352	-6.495614	-6.345415	-4.639050	-3.962351	-11.834287	-3.921820	6.134520	-2.273740	0.631224	0.751341	0.112732	-1.000000	-1.000000	-1.000000	-1.000000	-1.000000	-1.000000	-1.000000	76.551724	0.000000	-1.000000	-1.000000	1739697.000000	1770064976.101951
-2419.920000	-8630.865000	-243.630000	13167.405000	-1754.325000	-1741.950000	8814.195000	-2935.530000	6.905113	8.540251	11.188764	14.995125	15.048762	13.071923	5.541162	-3.291774	-3.921820	6.134520	-2.273740	0.631224	0.751341	0.112732	-1.000000	-1.000000	-1.000000	-1.000000	-1.000000	-1.000000	-1.000000	76.551724	0.000000	-1.000000	-1.000000	1739698.000000	1770064976.101962
-2370.195000	-8632.755000	-250.020000	13162.410000	-1755.765000	-1747.890000	8771.625000	-2905.920000	17.484311	23.922829	27.140126	30.567281	29.596860	24.577849	11.076500	7.623502	-3.921820	6.134520	-2.273740	0.631224	0.751341	0.112732	-1.000000	-1.000000	-1.000000	-1.000000	-1.000000	-1.000000	-1.000000	76.551724	0.000000	-1.000000	-1.000000	1739699.000000	1770064976.105173
-2393.415000	-8643.825000	-262.620000	13143.105000	-1776.960000	-1763.775000	8766.855000	-2910.600000	21.146067	27.905924	29.779363	30.609785	28.475014	23.133536	9.120334	16.183761	-3.921820	6.134520	-2.273740	0.631224	0.751341	0.112732	-1.000000	-1.000000	-1.000000	-1.000000	-1.000000	-1.000000	-1.000000	76.551724	0.000000	-1.000000	-1.000000	1739700.000000	1770064976.105179
-2370.195000	-8606.205000	-224.280000	13178.295000	-1743.165000	-1721.115000	8875.845000	-2898.315000	15.521931	17.432096	16.837717	14.606704	12.340408	9.742045	2.444624	16.816411	-3.540320	3.799740	-1.770160	0.628294	0.751463	0.115234	-1.000000	-1.000000	-1.000000	-1.000000	-1.000000	-1.000000	-1.000000	76.551724	0.000000	-1.000000	-1.000000	1739701.000000	1770064976.112340
-2401.290000	-8642.655000	-261.315000	13142.655000	-1776.420000	-1753.020000	8873.325000	-2975.895000	2.220692	-1.418412	-3.975451	-7.903124	-8.934862	-7.087431	-0.472510	7.485230	-3.540320	3.799740	-1.770160	0.628294	0.751463	0.115234	-1.000000	-1.000000	-1.000000	-1.000000	-1.000000	-1.000000	-1.000000	76.551724	0.000000	-1.000000	-1.000000	1739702.000000	1770064976.112349
-2466.495000	-8706.510000	-323.370000	13085.640000	-1828.215000	-1820.205000	8798.805000	-3012.210000	-13.931243	-19.608987	-22.596242	-26.174894	-25.394743	-19.952482	2.169037	-8.908076	-3.540320	3.799740	-1.770160	0.628294	0.751463	0.115234	-1.000000	-1.000000	-1.000000	-1.000000	-1.000000	-1.000000	-1.000000	76.551724	0.000000	-1.000000	-1.000000	1739703.000000	1770064976.113182
-2451.600000	-8680.140000	-292.950000	13120.380000	-1795.005000	-1794.555000	8807.940000	-2975.265000	-27.040256	-30.483283	-32.416891	-34.063329	-31.966628	-26.353178	2.384320	-24.591347	-3.540320	3.799740	-1.770160	0.628294	0.751463	0.115234	-1.000000	-1.000000	-1.000000	-1.000000	-1.000000	-1.000000	-1.000000	76.551724	0.000000	-1.000000	-1.000000	1739704.000000	1770064976.113191
-2416.860000	-8654.445000	-268.830000	13139.280000	-1784.475000	-1772.640000	8730.810000	-2984.670000	-28.942145	-27.961996	-28.095591	-27.316933	-25.129163	-23.028870	-4.644676	-28.899339	-3.540320	3.799740	-1.770160	0.628294	0.751463	0.115234	-1.000000	-1.000000	-1.000000	-1.000000	-1.000000	-1.000000	-1.000000	76.551724	0.000000	-1.000000	-1.000000	1739705.000000	1770064976.117576
-2359.755000	-8588.115000	-204.480000	13198.995000	-1734.885000	-1729.845000	8769.465000	-2923.740000	-14.647374	-10.527978	-9.146380	-6.741845	-5.886098	-8.180030	-14.901991	-16.893746	-3.540320	3.799740	-1.770160	0.628294	0.751463	0.115234	-1.000000	-1.000000	-1.000000	-1.000000	-1.000000	-1.000000	-1.000000	76.551724	0.000000	-1.000000	-1.000000	1739706.000000	1770064976.117585
-2433.330000	-8693.280000	-315.720000	13090.995000	-1826.460000	-1804.455000	8781.660000	-2969.190000	8.826970	12.570675	14.398661	16.936906	15.876207	11.639184	-19.032568	4.959655	-3.540320	3.799740	-1.770160	0.628294	0.751463	0.115234	-1.000000	-1.000000	-1.000000	-1.000000	-1.000000	-1.000000	-1.000000	76.551724	0.000000	-1.000000	-1.000000	1739707.000000	1770064976.121184
-2488.815000	-8761.005000	-380.250000	13029.255000	-1877.490000	-1839.735000	8770.815000	-3018.330000	24.448438	25.024929	26.244339	27.895858	26.146912	23.882498	-10.366806	22.159865	-3.540320	3.799740	-1.770160	0.628294	0.751463	0.115234	-1.000000	-1.000000	-1.000000	-1.000000	-1.000000	-1.000000	-1.000000	76.551724	0.000000	-1.000000	-1.000000	1739708.000000	1770064976.121194
-2466.135000	-8712.315000	-325.080000	13083.165000	-1830.960000	-1803.555000	8803.845000	-2999.115000	21.110042	18.305899	18.694367	19.500339	19.208411	21.327056	6.659156	23.633956	-3.540320	3.799740	-1.770160	0.628294	0.751463	0.115234	-1.000000	-1.000000	-1.000000	-1.000000	-1.000000	-1.000000	-1.000000	76.551724	0.000000	-1.000000	-1.000000	1739709.000000	1770064976.129572
-2427.255000	-8673.435000	-290.340000	13113.270000	-1805.580000	-1784.520000	8809.830000	-2939.625000	5.654797	1.685711	1.813763	2.320526	4.223706	9.189196	20.077776	13.061302	-3.540320	3.799740	-1.770160	0.628294	0.751463	0.115234	-1.000000	-1.000000	-1.000000	-1.000000	-1.000000	-1.000000	-1.000000	76.551724	0.000000	-1.000000	-1.000000	1739710.000000	1770064976.129582
-2418.795000	-8656.020000	-270.180000	13134.060000	-1782.585000	-1769.670000	8801.505000	-2914.290000	-5.927639	-8.016841	-7.693909	-7.417604	-4.802129	-1.253191	21.972144	4.485013	-4.318580	6.928040	-0.610400	0.631102	0.750486	0.114441	-1.000000	-1.000000	-1.000000	-1.000000	-1.000000	-1.000000	-1.000000	76.551724	0.000000	-1.000000	-1.000000	1739711.000000	1770064976.131076
-2419.830000	-8653.410000	-263.970000	13143.600000	-1772.955000	-1757.880000	8826.750000	-2945.430000	-4.822231	-3.185023	-2.777295	-3.232694	-2.072349	-2.908236	14.525763	5.162773	-4.318580	6.928040	-0.610400	0.631102	0.750486	0.114441	-1.000000	-1.000000	-1.000000	-1.000000	-1.000000	-1.000000	-1.000000	76.551724	0.000000	-1.000000	-1.000000	1739712.000000	1770064976.131085
-2450.250000	-8688.285000	-299.610000	13104.810000	-1816.605000	-1788.570000	8811.045000	-2966.085000	4.524158	9.233946	9.372893	7.886426	6.575536	2.039541	5.300320	8.200087	-4.318580	6.928040	-0.610400	0.631102	0.750486	0.114441	-1.000000	-1.000000	-1.000000	-1.000000	-1.000000	-1.000000	-1.000000	76.551724	0.000000	-1.000000	-1.000000	1739713.000000	1770064976.134962
-2446.245000	-8681.805000	-294.165000	13107.015000	-1816.785000	-1786.140000	8817.390000	-2989.170000	10.318900	15.286945	14.883632	12.757600	9.714951	4.711774	-0.946507	3.629916	-4.318580	6.928040	-0.610400	0.631102	0.750486	0.114441	-1.000000	-1.000000	-1.000000	-1.000000	-1.000000	-1.000000	-1.000000	76.551724	0.000000	-1.000000	-1.000000	1739714.000000	1770064976.134984
-2414.025000	-8653.815000	-269.595000	13130.685000	-1793.790000	-1770.570000	8823.240000	-2974.005000	6.137488	8.437757	7.490280	5.610337	2.632207	0.035090	-4.338597	-9.360883	-4.318580	6.928040	-0.610400	0.631102	0.750486	0.114441	-1.000000	-1.000000	-1.000000	-1.000000	-1.000000	-1.000000	-1.000000	76.551724	0.000000	-1.000000	-1.000000	1739715.000000	1770064976.137277
-2408.040000	-8656.110000	-274.320000	13126.185000	-1794.510000	-1781.280000	8807.130000	-2962.125000	-2.479560	-3.517093	-4.700202	-5.569147	-7.135740	-7.104340	-6.887238	-21.548984	-4.318580	6.928040	-0.610400	0.631102	0.750486	0.114441	-1.000000	-1.000000	-1.000000	-1.000000	-1.000000	-1.000000	-1.000000	76.551724	0.000000	-1.000000	-1.000000	1739716.000000	1770064976.137287
-2422.845000	-8663.940000	-280.755000	13122.270000	-1796.895000	-1785.645000	8798.805000	-2957.130000	-6.642388	-9.286356	-10.340324	-9.967264	-10.021133	-9.544985	-9.713882	-22.480557	-4.318580	6.928040	-0.610400	0.631102	0.750486	0.114441	-1.000000	-1.000000	-1.000000	-1.000000	-1.000000	-1.000000	-1.000000	76.551724	0.000000	-1.000000	-1.000000	1739717.000000	1770064976.141379
-2419.740000	-8657.595000	-270.990000	13135.410000	-1782.720000	-1771.245000	8794.710000	-2959.425000	-5.368347	-7.924304	-8.609490	-7.084175	-6.014049	-6.931401	-12.881082	-11.461208	-4.318580	6.928040	-0.610400	0.631102	0.750486	0.114441	-1.000000	-1.000000	-1.000000	-1.000000	-1.000000	-1.000000	-1.000000	76.551724	0.000000	-1.000000	-1.000000	1739718.000000	1770064976.141391
-2382.390000	-8617.815000	-227.655000	13182.795000	-1734.030000	-1723.680000	8812.845000	-2950.470000	-3.304053	-5.489876	-5.533216	-3.036713	-1.037174	-2.754778	-14.831838	2.482966	-4.318580	6.928040	-0.610400	0.631102	0.750486	0.114441	-1.000000	-1.000000	-1.000000	-1.000000	-1.000000	-1.000000	-1.000000	76.551724	0.000000	-1.000000	-1.000000	1739719.000000	1770064976.152450
-2409.255000	-8639.685000	-249.165000	13158.450000	-1762.920000	-1750.230000	8817.570000	-2946.375000	-2.597060	-4.579482	-3.758622	-0.892416	1.575638	1.282135	-11.951770	11.106377	-4.318580	6.928040	-0.610400	0.631102	0.750486	0.114441	-1.000000	-1.000000	-1.000000	-1.000000	-1.000000	-1.000000	-1.000000	76.551724	0.000000	-1.000000	-1.000000	1739720.000000	1770064976.152461
-2463.615000	-8695.440000	-304.380000	13101.840000	-1816.875000	-1798.110000	8808.390000	-2999.250000	-3.189251	-4.787672	-3.386241	-1.404034	0.544458	3.281352	-3.032157	12.290879	-3.326680	3.860780	-1.022420	0.628966	0.749022	0.115478	-1.000000	-1.000000	-1.000000	-1.000000	-1.000000	-1.000000	-1.000000	76.551724	0.000000	-1.000000	-1.000000	1739721.000000	1770064976.152472
-2469.510000	-8701.020000	-312.660000	13090.140000	-1826.325000	-1809.270000	8782.335000	-3017.025000	-5.420546	-6.247045	-5.031066	-5.109075	-4.337107	0.807551	7.681005	7.436947	-3.326680	3.860780	-1.022420	0.628966	0.749022	0.115478	-1.000000	-1.000000	-1.000000	-1.000000	-1.000000	-1.000000	-1.000000	76.551724	0.000000	-1.000000	-1.000000	1739722.000000	1770064976.152478
-2479.995000	-8710.020000	-321.255000	13083.255000	-1827.855000	-1801.980000	8811.090000	-2964.330000	-8.324176	-8.135892	-7.733998	-9.903853	-9.922949	-4.758462	14.569069	0.494581	-3.326680	3.860780	-1.022420	0.628966	0.749022	0.115478	-1.000000	-1.000000	-1.000000	-1.000000	-1.000000	-1.000000	-1.000000	76.551724	0.000000	-1.000000	-1.000000	1739723.000000	1770064976.157528
-2413.755000	-8649.720000	-262.395000	13141.980000	-1776.105000	-1745.145000	8839.935000	-2927.025000	-8.472801	-7.209548	-7.609237	-10.677332	-10.802900	-7.578220	15.834546	-2.512118	-3.326680	3.860780	-1.022420	0.628966	0.749022	0.115478	-1.000000	-1.000000	-1.000000	-1.000000	-1.000000	-1.000000	-1.000000	76.551724	0.000000	-1.000000	-1.000000	1739724.000000	1770064976.157538
-2348.505000	-8591.715000	-205.470000	13198.905000	-1721.070000	-1702.395000	8828.595000	-2895.075000	-1.158465	1.068829	0.377876	-2.123817	-2.584185	-1.814891	13.424541	1.586141	-3.326680	3.860780	-1.022420	0.628966	0.749022	0.115478	-1.000000	-1.000000	-1.000000	-1.000000	-1.000000	-1.000000	-1.000000	76.551724	0.000000	-1.000000	-1.000000	1739725.000000	1770064976.157548
-2402.640000	-8655.615000	-274.455000	13124.520000	-1797.255000	-1780.020000	8781.165000	-2930.355000	13.036757	15.197102	14.544331	13.360723	11.747186	10.134383	8.107889	8.789553	-3.326680	3.860780	-1.022420	0.628966	0.749022	0.115478	-1.000000	-1.000000	-1.000000	-1.000000	-1.000000	-1.000000	-1.000000	76.551724	0.000000	-1.000000	-1.000000	1739726.000000	1770064976.157553
-2458.845000	-8717.895000	-338.265000	13059.270000	-1857.420000	-1836.225000	8710.920000	-2966.130000	22.744167	22.856148	22.041300	21.929806	19.171826	15.600120	-2.167304	10.308434	-3.326680	3.860780	-1.022420	0.628966	0.749022	0.115478	-1.000000	-1.000000	-1.000000	-1.000000	-1.000000	-1.000000	-1.000000	76.551724	0.000000	-1.000000	-1.000000	1739727.000000	1770064976.161196
-2461.365000	-8711.730000	-325.845000	13080.195000	-1835.055000	-1828.665000	8795.745000	-2982.960000	16.621662	13.720546	12.554401	12.901485	10.242482	5.808713	-15.349607	1.223432	-3.326680	3.860780	-1.022420	0.628966	0.749022	0.115478	-1.000000	-1.000000	-1.000000	-1.000000	-1.000000	-1.000000	-1.000000	76.551724	0.000000	-1.000000	-1.000000	1739728.000000	1770064976.161209
-2445.480000	-8699.085000	-308.970000	13102.425000	-1813.815000	-1814.670000	8790.210000	-2973.870000	-1.250548	-5.711366	-6.738030	-5.985078	-7.056324	-11.311574	-21.890885	-13.041717	-3.326680	3.860780	-1.022420	0.628966	0.749022	0.115478	-1.000000	-1.000000	-1.000000	-1.000000	-1.000000	-1.000000	-1.000000	76.551724	0.000000	-1.000000	-1.000000	1739729.000000	1770064976.168027
-2438.235000	-8668.665000	-281.925000	13124.385000	-1797.165000	-1781.370000	8796.960000	-2960.415000	-15.241469	-18.190998	-18.212330	-16.642382	-15.643713	-19.119122	-14.964721	-20.576452	-3.326680	3.860780	-1.022420	0.628966	0.749022	0.115478	-1.000000	-1.000000	-1.000000	-1.000000	-1.000000	-1.000000	-1.000000	76.551724	0.000000	-1.000000	-1.000000	1739730.000000	1770064976.168037
-2353.455000	-8575.065000	-192.105000	13208.445000	-1720.440000	-1707.165000	8826.435000	-2899.125000	-14.311174	-12.823288	-11.566884	-9.335115	-7.251202	-9.068272	1.702994	-13.831238	-4.181240	5.295220	-0.244160	0.626463	0.751463	0.113525	-1.000000	-1.000000	-1.000000	-1.000000	-1.000000	-1.000000	-1.000000	76.551724	0.000000	-1.000000	-1.000000	1739731.000000	1770064976.169307
-2259.945000	-8492.760000	-111.780000	13282.335000	-1657.530000	-1661.940000	8861.220000	-2831.940000	0.820823	7.347608	9.219397	10.983429	12.339013	12.778904	18.232699	3.756128	-4.181240	5.295220	-0.244160	0.626463	0.751463	0.113525	-1.000000	-1.000000	-1.000000	-1.000000	-1.000000	-1.000000	-1.000000	76.551724	0.000000	-1.000000	-1.000000	1739732.000000	1770064976.169317
-2383.605000	-8614.845000	-225.990000	13176.495000	-1751.490000	-1741.275000	8842.320000	-2941.380000	17.602896	26.454072	28.070687	28.195899	27.697935	29.757097	25.360239	19.292905	-4.181240	5.295220	-0.244160	0.626463	0.751463	0.113525	-1.000000	-1.000000	-1.000000	-1.000000	-1.000000	-1.000000	-1.000000	76.551724	0.000000	-1.000000	-1.000000	1739733.000000	1770064976.173308
-2434.995000	-8674.020000	-283.590000	13125.645000	-1789.515000	-1767.150000	8780.895000	-3016.530000	17.919234	24.812406	25.925454	24.564675	23.191160	26.328365	18.752287	18.327627	-4.181240	5.295220	-0.244160	0.626463	0.751463	0.113525	-1.000000	-1.000000	-1.000000	-1.000000	-1.000000	-1.000000	-1.000000	76.551724	0.000000	-1.000000	-1.000000	1739734.000000	1770064976.173318
-2378.475000	-8628.930000	-244.980000	13160.295000	-1759.050000	-1740.915000	8827.425000	-2931.615000	-1.534685	0.028339	0.802453	-0.589939	-0.518744	4.025567	2.577119	0.274308	-4.181240	5.295220	-0.244160	0.626463	0.751463	0.113525	-1.000000	-1.000000	-1.000000	-1.000000	-1.000000	-1.000000	-1.000000	76.551724	0.000000	-1.000000	-1.000000	1739735.000000	1770064976.206878
-2447.145000	-8716.905000	-334.260000	13069.845000	-1848.240000	-1821.105000	8816.310000	-2931.885000	-23.238358	-28.229876	-28.004521	-28.312035	-25.767824	-20.151593	-12.065048	-17.212920	-4.181240	5.295220	-0.244160	0.626463	0.751463	0.113525	-1.000000	-1.000000	-1.000000	-1.000000	-1.000000	-1.000000	-1.000000	76.551724	0.000000	-1.000000	-1.000000	1739736.000000	1770064976.206890
-2529.045000	-8763.210000	-373.770000	13035.285000	-1873.755000	-1842.345000	8764.155000	-3040.560000	-32.118153	-42.006090	-42.857328	-42.360362	-38.535958	-33.214463	-18.756807	-20.003283	-4.181240	5.295220	-0.244160	0.626463	0.751463	0.113525	-1.000000	-1.000000	-1.000000	-1.000000	-1.000000	-1.000000	-1.000000	76.551724	0.000000	-1.000000	-1.000000	1739737.000000	1770064976.206903
-2533.680000	-8774.820000	-383.850000	13023.495000	-1888.020000	-1860.030000	8762.715000	-3033.000000	-27.864971	-38.035083	-39.949898	-39.634777	-36.425566	-32.974707	-20.003380	-11.929189	-4.181240	5.295220	-0.244160	0.626463	0.751463	0.113525	-1.000000	-1.000000	-1.000000	-1.000000	-1.000000	-1.000000	-1.000000	76.551724	0.000000	-1.000000	-1.000000	1739738.000000	1770064976.206909
-2475.180000	-8741.880000	-358.470000	13042.620000	-1875.015000	-1852.830000	8784.000000	-2985.120000	-14.492518	-20.618783	-22.802984	-23.250529	-22.002436	-22.184861	-17.378043	-1.648532	-4.181240	5.295220	-0.244160	0.626463	0.751463	0.113525	-1.000000	-1.000000	-1.000000	-1.000000	-1.000000	-1.000000	-1.000000	76.551724	0.000000	-1.000000	-1.000000	1739739.000000	1770064976.206915
-2455.380000	-8698.095000	-315.945000	13079.430000	-1844.280000	-1822.095000	8783.910000	-2989.170000	3.959089	2.682239	1.113675	0.020796	-1.227249	-6.127384	-9.771476	6.849931	-4.181240	5.295220	-0.244160	0.626463	0.751463	0.113525	-1.000000	-1.000000	-1.000000	-1.000000	-1.000000	-1.000000	-1.000000	76.551724	0.000000	-1.000000	-1.000000	1739740.000000	1770064976.206920
-2453.895000	-8689.095000	-305.055000	13093.335000	-1832.895000	-1815.705000	8779.365000	-2987.325000	20.354445	23.156055	22.641231	21.429491	18.055786	9.681338	0.533342	10.872703	-5.051060	4.516960	-2.243220	0.630247	0.757444	0.111633	-1.000000	-1.000000	-1.000000	-1.000000	-1.000000	-1.000000	-1.000000	76.551724	0.000000	-1.000000	-1.000000	1739741.000000	1770064976.206926
-2444.265000	-8695.485000	-311.445000	13093.065000	-1830.555000	-1813.410000	8769.960000	-2978.595000	29.521094	35.908694	36.368655	35.637926	31.152537	22.383132	9.619532	11.382084	-5.051060	4.516960	-2.243220	0.630247	0.757444	0.111633	-1.000000	-1.000000	-1.000000	-1.000000	-1.000000	-1.000000	-1.000000	76.551724	0.000000	-1.000000	-1.000000	1739742.000000	1770064976.206930
-2423.745000	-8686.980000	-306.720000	13099.005000	-1818.495000	-1805.445000	8751.510000	-2953.710000	31.956052	40.050087	41.005154	41.173904	36.833424	30.482415	15.728167	13.049732	-5.051060	4.516960	-2.243220	0.630247	0.757444	0.111633	-1.000000	-1.000000	-1.000000	-1.000000	-1.000000	-1.000000	-1.000000	76.551724	0.000000	-1.000000	-1.000000	1739743.000000	1770064976.206936
-2434.185000	-8688.330000	-301.815000	13108.140000	-1809.540000	-1798.695000	8756.910000	-2973.240000	28.198084	34.917212	35.962959	37.176363	34.377715	31.856120	17.624384	15.151972	-5.051060	4.516960	-2.243220	0.630247	0.757444	0.111633	-1.000000	-1.000000	-1.000000	-1.000000	-1.000000	-1.000000	-1.000000	76.551724	0.000000	-1.000000	-1.000000	1739744.000000	1770064976.206941
-2442.015000	-8678.565000	-287.415000	13122.090000	-1798.245000	-1776.240000	8806.545000	-3011.445000	17.939378	21.601866	22.783256	24.793878	24.501303	25.975045	15.004611	11.724725	-5.051060	4.516960	-2.243220	0.630247	0.757444	0.111633	-1.000000	-1.000000	-1.000000	-1.000000	-1.000000	-1.000000	-1.000000	76.551724	0.000000	-1.000000	-1.000000	1739745.000000	1770064976.206946
-2442.510000	-8677.350000	-286.740000	13119.435000	-1801.305000	-1774.080000	8830.845000	-2978.685000	4.384156	5.109656	6.461149	8.382418	10.289818	15.226539	11.050859	2.520808	-5.051060	4.516960	-2.243220	0.630247	0.757444	0.111633	-1.000000	-1.000000	-1.000000	-1.000000	-1.000000	-1.000000	-1.000000	76.551724	0.000000	-1.000000	-1.000000	1739746.000000	1770064976.206951
-2452.005000	-8683.515000	-293.715000	13107.690000	-1812.240000	-1800.855000	8802.585000	-2979.765000	-8.435080	-10.019372	-8.934357	-8.278337	-5.380930	1.618466	8.006491	-6.232840	-5.051060	4.516960	-2.243220	0.630247	0.757444	0.111633	-1.000000	-1.000000	-1.000000	-1.000000	-1.000000	-1.000000	-1.000000	76.551724	0.000000	-1.000000	-1.000000	1739747.000000	1770064976.206956
-2431.890000	-8668.170000	-283.770000	13115.115000	-1806.255000	-1795.680000	8797.860000	-2967.930000	-19.847100	-22.904113	-22.594503	-23.649756	-20.710008	-14.228802	2.759642	-11.519431	-5.051060	4.516960	-2.243220	0.630247	0.757444	0.111633	-1.000000	-1.000000	-1.000000	-1.000000	-1.000000	-1.000000	-1.000000	76.551724	0.000000	-1.000000	-1.000000	1739748.000000	1770064976.206961
-2426.670000	-8671.230000	-285.435000	13120.920000	-1799.505000	-1785.645000	8800.515000	-2960.370000	-29.209904	-33.162479	-33.755166	-35.685693	-32.984565	-29.393059	-7.243933	-14.588649	-5.051060	4.516960	-2.243220	0.630247	0.757444	0.111633	-1.000000	-1.000000	-1.000000	-1.000000	-1.000000	-1.000000	-1.000000	76.551724	0.000000	-1.000000	-1.000000	1739749.000000	1770064976.209706
-2441.790000	-8671.320000	-280.395000	13127.760000	-1797.165000	-1778.895000	8805.060000	-2955.240000	-32.452034	-37.130190	-38.341670	-39.697189	-37.440103	-37.146282	-17.853626	-14.877307	-5.051060	4.516960	-2.243220	0.630247	0.757444	0.111633	-1.000000	-1.000000	-1.000000	-1.000000	-1.000000	-1.000000	-1.000000	76.551724	0.000000	-1.000000	-1.000000	1739750.000000	1770064976.209718
-2429.010000	-8674.560000	-285.120000	13123.890000	-1798.290000	-1775.205000	8801.055000	-2952.225000	-25.648587	-29.995390	-31.244970	-31.286540	-30.190733	-31.830428	-21.781833	-10.429877	-3.052000	4.272800	-3.158820	0.629576	0.758299	0.114441	-1.000000	-1.000000	-1.000000	-1.000000	-1.000000	-1.000000	-1.000000	76.551724	0.000000	-1.000000	-1.000000	1739751.000000	1770064976.209731
-2427.750000	-8681.445000	-289.890000	13122.045000	-1794.015000	-1775.835000	8792.595000	-2962.530000	-10.152703	-12.463262	-13.161240	-12.305940	-13.071325	-14.943535	-16.082114	-2.785009	-3.052000	4.272800	-3.158820	0.629576	0.758299	0.114441	-1.000000	-1.000000	-1.000000	-1.000000	-1.000000	-1.000000	-1.000000	76.551724	0.000000	-1.000000	-1.000000	1739752.000000	1770064976.209736
-2435.220000	-8683.695000	-293.490000	13114.935000	-1801.935000	-1784.970000	8785.935000	-2974.230000	7.822312	8.042689	8.047977	8.890829	6.581663	5.257941	-5.077628	3.802106	-3.052000	4.272800	-3.158820	0.629576	0.758299	0.114441	-1.000000	-1.000000	-1.000000	-1.000000	-1.000000	-1.000000	-1.000000	76.551724	0.000000	-1.000000	-1.000000	1739753.000000	1770064976.215628
-2420.865000	-8667.630000	-278.865000	13127.625000	-1792.080000	-1777.860000	8781.480000	-2957.490000	21.918410	23.489800	23.676592	23.726981	21.028634	19.748128	3.706126	7.769782	-3.052000	4.272800	-3.158820	0.629576	0.758299	0.114441	-1.000000	-1.000000	-1.000000	-1.000000	-1.000000	-1.000000	-1.000000	76.551724	0.000000	-1.000000	-1.000000	1739754.000000	1770064976.215641
-2398.545000	-8641.575000	-253.395000	13152.510000	-1767.420000	-1751.940000	8797.905000	-2956.770000	28.557068	29.891654	29.538699	28.589805	26.524953	24.458428	6.576389	9.910647	-3.052000	4.272800	-3.158820	0.629576	0.758299	0.114441	-1.000000	-1.000000	-1.000000	-1.000000	-1.000000	-1.000000	-1.000000	76.551724	0.000000	-1.000000	-1.000000	1739755.000000	1770064976.220484
-2382.705000	-8616.240000	-228.330000	13176.990000	-1741.140000	-1728.315000	8847.855000	-2932.380000	26.423695	27.188990	26.241677	24.955810	24.045313	21.458243	6.598503	9.568404	-3.052000	4.272800	-3.158820	0.629576	0.758299	0.114441	-1.000000	-1.000000	-1.000000	-1.000000	-1.000000	-1.000000	-1.000000	76.551724	0.000000	-1.000000	-1.000000	1739756.000000	1770064976.220495
-2396.565000	-8622.720000	-233.820000	13169.970000	-1749.555000	-1741.230000	8849.205000	-2914.470000	15.537322	16.950319	16.204558	15.615970	16.009597	14.191751	8.440112	6.053750	-3.052000	4.272800	-3.158820	0.629576	0.758299	0.114441	-1.000000	-1.000000	-1.000000	-1.000000	-1.000000	-1.000000	-1.000000	76.551724	0.000000	-1.000000	-1.000000	1739757.000000	1770064976.222273
-2393.100000	-8622.810000	-237.285000	13162.680000	-1761.480000	-1742.445000	8841.285000	-2928.555000	-1.157551	1.969124	2.203903	2.640437	4.033305	3.982696	11.401859	0.652264	-3.052000	4.272800	-3.158820	0.629576	0.758299	0.114441	-1.000000	-1.000000	-1.000000	-1.000000	-1.000000	-1.000000	-1.000000	76.551724	0.000000	-1.000000	-1.000000	1739758.000000	1770064976.222282
-2430.720000	-8675.235000	-290.655000	13108.545000	-1819.620000	-1786.095000	8795.385000	-2967.480000	-16.925610	-12.978005	-11.914937	-11.201208	-9.693000	-7.736975	10.410520	-5.161233	-3.052000	4.272800	-3.158820	0.629576	0.758299	0.114441	-1.000000	-1.000000	-1.000000	-1.000000	-1.000000	-1.000000	-1.000000	76.551724	0.000000	-1.000000	-1.000000	1739759.000000	1770064976.225251
-2437.020000	-8688.690000	-305.190000	13092.795000	-1836.540000	-1786.995000	8750.160000	-2967.525000	-25.636815	-23.208162	-22.154087	-22.129158	-21.618886	-17.754914	2.323326	-10.470835	-3.052000	4.272800	-3.158820	0.629576	0.758299	0.114441	-1.000000	-1.000000	-1.000000	-1.000000	-1.000000	-1.000000	-1.000000	76.551724	0.000000	-1.000000	-1.000000	1739760.000000	1770064976.225260
-2401.200000	-8659.620000	-274.455000	13129.695000	-1784.250000	-1718.325000	8727.975000	-2951.145000	-24.432596	-25.144209	-24.709131	-25.511727	-26.392674	-20.905367	-10.387741	-12.816631	-3.189340	5.066320	-2.060100	0.629393	0.756468	0.118042	-1.000000	-1.000000	-1.000000	-1.000000	-1.000000	-1.000000	-1.000000	76.551724	0.000000	-1.000000	-1.000000	1739761.000000	1770064976.229359
-2401.290000	-8678.520000	-270.000000	13139.505000	-1768.005000	-1700.325000	8700.075000	-2952.135000	-12.992160	-17.050343	-16.931195	-17.618810	-18.780822	-12.645566	-21.049507	-8.895165	-3.189340	5.066320	-2.060100	0.629393	0.756468	0.118042	-1.000000	-1.000000	-1.000000	-1.000000	-1.000000	-1.000000	-1.000000	76.551724	0.000000	-1.000000	-1.000000	1739762.000000	1770064976.229378
-2411.730000	-8695.530000	-266.310000	13144.230000	-1774.890000	-1730.475000	8678.835000	-2954.970000	3.791104	-3.023601	-1.761364	-1.057430	-0.875046	3.414636	-23.785205	0.405483	-3.189340	5.066320	-2.060100	0.629393	0.756468	0.118042	-1.000000	-1.000000	-1.000000	-1.000000	-1.000000	-1.000000	-1.000000	76.551724	0.000000	-1.000000	-1.000000	1739763.000000	1770064976.233275
-2388.420000	-8661.105000	-238.545000	13170.735000	-1749.735000	-1716.300000	8598.960000	-2944.530000	16.642838	8.900604	12.616370	15.105767	16.783865	15.771781	-18.293735	9.223831	-3.189340	5.066320	-2.060100	0.629393	0.756468	0.118042	-1.000000	-1.000000	-1.000000	-1.000000	-1.000000	-1.000000	-1.000000	76.551724	0.000000	-1.000000	-1.000000	1739764.000000	1770064976.233285
-2379.915000	-8638.020000	-230.670000	13179.195000	-1739.340000	-1688.445000	8695.305000	-2928.150000	19.608787	14.431512	19.406303	22.724507	24.507711	16.853754	-8.084135	12.343675	-3.189340	5.066320	-2.060100	0.629393	0.756468	0.118042	-1.000000	-1.000000	-1.000000	-1.000000	-1.000000	-1.000000	-1.000000	76.551724	0.000000	-1.000000	-1.000000	1739765.000000	1770064976.247216
-2392.605000	-8654.265000	-263.610000	13144.950000	-1780.065000	-1766.565000	8794.035000	-2935.665000	13.558212	14.260102	16.653477	19.167290	19.730695	8.060042	6.986461	8.992998	-3.189340	5.066320	-2.060100	0.629393	0.756468	0.118042	-1.000000	-1.000000	-1.000000	-1.000000	-1.000000	-1.000000	-1.000000	76.551724	0.000000	-1.000000	-1.000000	1739766.000000	1770064976.247228
-2391.390000	-8671.095000	-279.585000	13141.755000	-1766.385000	-1722.420000	8589.870000	-2944.710000	3.526933	10.374422	6.807988	7.403019	6.655804	-4.609421	25.093122	2.297647	-3.189340	5.066320	-2.060100	0.629393	0.756468	0.118042	-1.000000	-1.000000	-1.000000	-1.000000	-1.000000	-1.000000	-1.000000	76.551724	0.000000	-1.000000	-1.000000	1739767.000000	1770064976.247240
-2399.670000	-8685.540000	-299.790000	13129.740000	-1778.130000	-1708.785000	8720.235000	-2938.050000	-4.631565	5.081342	-4.127753	-5.162016	-5.991833	-12.626565	35.576807	-3.039289	-3.189340	5.066320	-2.060100	0.629393	0.756468	0.118042	-1.000000	-1.000000	-1.000000	-1.000000	-1.000000	-1.000000	-1.000000	76.551724	0.000000	-1.000000	-1.000000	1739768.000000	1770064976.247245
-2421.720000	-8721.990000	-338.040000	13104.270000	-1806.795000	-1741.860000	8681.985000	-2955.690000	-8.088928	0.073890	-10.753337	-12.046196	-11.848606	-10.933093	33.039253	-4.463322	-3.189340	5.066320	-2.060100	0.629393	0.756468	0.118042	-1.000000	-1.000000	-1.000000	-1.000000	-1.000000	-1.000000	-1.000000	76.551724	0.000000	-1.000000	-1.000000	1739769.000000	1770064976.247252
-2356.245000	-8703.180000	-294.120000	13165.470000	-1745.550000	-1621.890000	8455.410000	-2892.690000	-7.512845	-4.489769	-11.791863	-12.043397	-11.415048	-2.890597	18.875283	-2.540394	-3.189340	5.066320	-2.060100	0.629393	0.756468	0.118042	-1.000000	-1.000000	-1.000000	-1.000000	-1.000000	-1.000000	-1.000000	76.551724	0.000000	-1.000000	-1.000000	1739770.000000	1770064976.247257
-2342.025000	-8712.945000	-314.820000	13182.300000	-1710.405000	-1629.405000	8715.645000	-2869.110000	-3.248898	-7.483381	-8.031259	-6.441587	-6.694178	6.628205	-3.850662	2.013128	-5.341000	2.655240	-2.517900	0.632628	0.753721	0.120483	-1.000000	-1.000000	-1.000000	-1.000000	-1.000000	-1.000000	-1.000000	76.551724	0.000000	-1.000000	-1.000000	1739771.000000	1770064976.249346
-2391.660000	-8767.845000	-405.495000	13094.055000	-1777.905000	-1696.410000	8668.215000	-2947.005000	2.846767	-7.853444	-2.909644	0.784989	0.117929	13.157221	-20.482011	6.440514	-5.341000	2.655240	-2.517900	0.632628	0.753721	0.120483	-1.000000	-1.000000	-1.000000	-1.000000	-1.000000	-1.000000	-1.000000	76.551724	0.000000	-1.000000	-1.000000	1739772.000000	1770064976.249357
-2375.460000	-8772.210000	-352.935000	13108.185000	-1772.640000	-1676.565000	8635.770000	-2929.905000	5.080598	-7.926167	-1.590235	2.454535	3.328561	10.739239	-19.244517	4.679961	-5.341000	2.655240	-2.517900	0.632628	0.753721	0.120483	-1.000000	-1.000000	-1.000000	-1.000000	-1.000000	-1.000000	-1.000000	76.551724	0.000000	-1.000000	-1.000000	1739773.000000	1770064976.253426
-2394.720000	-8715.150000	-304.515000	13116.555000	-1782.180000	-1770.030000	8708.895000	-2939.445000	0.693701	-8.429002	-2.271997	-2.699862	-0.079056	-1.505643	-9.132100	-4.516710	-5.341000	2.655240	-2.517900	0.632628	0.753721	0.120483	-1.000000	-1.000000	-1.000000	-1.000000	-1.000000	-1.000000	-1.000000	76.551724	0.000000	-1.000000	-1.000000	1739774.000000	1770064976.253436
-2392.470000	-8872.020000	-331.155000	13092.480000	-1799.190000	-1744.245000	8643.510000	-2917.575000	-6.220264	-6.809087	2.067808	-7.324326	-5.495239	-16.180936	-3.296432	-13.909570	-5.341000	2.655240	-2.517900	0.632628	0.753721	0.120483	-1.000000	-1.000000	-1.000000	-1.000000	-1.000000	-1.000000	-1.000000	76.551724	0.000000	-1.000000	-1.000000	1739775.000000	1770064976.257652
-2373.795000	-8960.220000	-440.370000	13049.820000	-1810.710000	-1606.770000	8290.395000	-2892.915000	-9.293291	-5.015666	10.365676	-5.943321	-7.029362	-21.303620	-7.996681	-14.838020	-5.341000	2.655240	-2.517900	0.632628	0.753721	0.120483	-1.000000	-1.000000	-1.000000	-1.000000	-1.000000	-1.000000	-1.000000	76.551724	0.000000	-1.000000	-1.000000	1739776.000000	1770064976.257663
-2318.895000	-8718.480000	-457.380000	13071.510000	-1765.350000	-1515.690000	8234.100000	-2886.615000	-4.414473	-2.859389	13.544125	0.352694	-2.393483	-7.731571	-27.054675	-5.123494	-5.341000	2.655240	-2.517900	0.632628	0.753721	0.120483	-1.000000	-1.000000	-1.000000	-1.000000	-1.000000	-1.000000	-1.000000	76.551724	0.000000	-1.000000	-1.000000	1739777.000000	1770064976.261832
-2457.585000	-8638.020000	-492.030000	13063.230000	-1764.540000	-1734.120000	8757.855000	-2972.835000	5.115473	10.191798	7.357871	7.925418	6.953964	16.240558	-42.432738	7.625520	-5.341000	2.655240	-2.517900	0.632628	0.753721	0.120483	-1.000000	-1.000000	-1.000000	-1.000000	-1.000000	-1.000000	-1.000000	76.551724	0.000000	-1.000000	-1.000000	1739778.000000	1770064976.261839
-2593.440000	-8878.995000	-607.095000	12933.405000	-1857.105000	-1899.405000	9013.545000	-2990.970000	6.196274	32.269271	-5.354137	10.458995	13.402304	22.858252	-13.048390	11.209371	-5.341000	2.655240	-2.517900	0.632628	0.753721	0.120483	-1.000000	-1.000000	-1.000000	-1.000000	-1.000000	-1.000000	-1.000000	76.551724	0.000000	-1.000000	-1.000000	1739779.000000	1770064976.265325
-2471.265000	-9017.145000	-504.945000	12977.460000	-1864.305000	-1837.620000	8821.170000	-2954.835000	-7.262241	37.583139	-17.466975	2.971347	8.200515	-1.765035	60.201201	2.706042	-5.341000	2.655240	-2.517900	0.632628	0.753721	0.120483	-1.000000	-1.000000	-1.000000	-1.000000	-1.000000	-1.000000	-1.000000	76.551724	0.000000	-1.000000	-1.000000	1739780.000000	1770064976.265332
-2356.335000	-8835.840000	-329.985000	13040.550000	-1881.630000	-1796.895000	8706.510000	-2938.275000	-18.338985	13.304708	-15.214407	-6.782780	-5.798273	-33.433716	112.612549	-6.576184	7.431620	-19.227600	9.629060	0.638121	0.737669	0.124145	-1.000000	-1.000000	-1.000000	-1.000000	-1.000000	-1.000000	-1.000000	76.551724	0.000000	-1.000000	-1.000000	1739781.000000	1770064976.269341
-2290.680000	-8559.045000	-165.240000	13098.780000	-1922.265000	-1757.160000	8469.000000	-2912.040000	-7.099118	-15.009939	10.340519	-5.002634	-16.858174	-38.617591	88.360444	-5.521899	7.431620	-19.227600	9.629060	0.638121	0.737669	0.124145	-1.000000	-1.000000	-1.000000	-1.000000	-1.000000	-1.000000	-1.000000	76.551724	0.000000	-1.000000	-1.000000	1739782.000000	1770064976.269351
-2272.590000	-8492.940000	-64.125000	13214.610000	-1794.060000	-1620.045000	8046.810000	-2835.900000	22.568394	-14.731675	47.514344	11.050859	-15.915979	-8.121809	-10.749507	5.654683	7.431620	-19.227600	9.629060	0.638121	0.737669	0.124145	-1.000000	-1.000000	-1.000000	-1.000000	-1.000000	-1.000000	-1.000000	76.551724	0.000000	-1.000000	-1.000000	1739783.000000	1770064976.275890
-2438.685000	-8815.995000	-299.475000	13146.570000	-1758.600000	-1668.600000	8373.060000	-2878.065000	45.590059	10.801256	68.372163	31.017221	0.358811	39.185091	-126.145949	18.569026	7.431620	-19.227600	9.629060	0.638121	0.737669	0.124145	-1.000000	-1.000000	-1.000000	-1.000000	-1.000000	-1.000000	-1.000000	76.551724	0.000000	-1.000000	-1.000000	1739784.000000	1770064976.275901
-2657.520000	-9151.515000	-589.005000	13006.935000	-1852.380000	-1865.430000	8987.535000	-3002.130000	35.361826	20.947765	46.024333	36.925922	23.562911	65.205216	-161.095179	20.715759	7.431620	-19.227600	9.629060	0.638121	0.737669	0.124145	-1.000000	-1.000000	-1.000000	-1.000000	-1.000000	-1.000000	-1.000000	76.551724	0.000000	-1.000000	-1.000000	1739785.000000	1770064976.277243
-2555.190000	-9084.195000	-695.070000	12911.130000	-1922.400000	-1844.865000	8273.880000	-3014.505000	-9.761847	-15.800000	-21.611344	14.866145	33.349201	43.307056	-74.668609	4.832543	7.431620	-19.227600	9.629060	0.638121	0.737669	0.124145	-1.000000	-1.000000	-1.000000	-1.000000	-1.000000	-1.000000	-1.000000	76.551724	0.000000	-1.000000	-1.000000	1739786.000000	1770064976.277250
-2366.865000	-8956.755000	-595.215000	12973.995000	-1853.865000	-1690.380000	7858.035000	-2957.895000	-52.151360	-74.630316	-96.503368	-26.629566	19.057675	-5.867998	38.901754	-18.403981	7.431620	-19.227600	9.629060	0.638121	0.737669	0.124145	-1.000000	-1.000000	-1.000000	-1.000000	-1.000000	-1.000000	-1.000000	76.551724	0.000000	-1.000000	-1.000000	1739787.000000	1770064976.281318
-2405.520000	-9323.370000	-592.425000	12944.160000	-1858.905000	-1791.630000	8762.805000	-2902.995000	-50.106999	-98.484966	-124.607580	-57.886353	-5.959537	-36.029739	72.773190	-28.459147	7.431620	-19.227600	9.629060	0.638121	0.737669	0.124145	-1.000000	-1.000000	-1.000000	-1.000000	-1.000000	-1.000000	-1.000000	76.551724	0.000000	-1.000000	-1.000000	1739788.000000	1770064976.281329
-2531.295000	-9446.265000	-732.105000	12767.445000	-1982.520000	-1883.475000	9016.380000	-2973.240000	-9.885227	-67.880048	-87.907693	-59.468014	-23.005499	-32.428494	55.306994	-18.109732	7.431620	-19.227600	9.629060	0.638121	0.737669	0.124145	-1.000000	-1.000000	-1.000000	-1.000000	-1.000000	-1.000000	-1.000000	76.551724	0.000000	-1.000000	-1.000000	1739789.000000	1770064976.285356
-2518.335000	-9255.330000	-754.245000	12745.845000	-1969.605000	-1911.375000	8849.970000	-2979.405000	24.440954	-10.606631	-20.626149	-40.494079	-27.373051	-17.239444	63.968117	0.374658	7.431620	-19.227600	9.629060	0.638121	0.737669	0.124145	-1.000000	-1.000000	-1.000000	-1.000000	-1.000000	-1.000000	-1.000000	76.551724	0.000000	-1.000000	-1.000000	1739790.000000	1770064976.285367
-2432.340000	-8712.045000	-669.195000	12798.945000	-1913.175000	-1800.900000	8475.930000	-2927.340000	26.971953	48.145141	32.788323	-17.462149	-21.451631	-9.045454	92.515387	11.927284	19.441240	-19.151300	16.114560	0.645689	0.723753	0.129821	-1.000000	-1.000000	-1.000000	-1.000000	-1.000000	-1.000000	-1.000000	76.551724	0.000000	-1.000000	-1.000000	1739791.000000	1770064976.298984
-2364.885000	-8396.820000	-776.970000	12783.015000	-1940.130000	-1815.525000	8425.890000	-2955.195000	11.027368	109.294209	56.716144	4.678018	-8.657752	-6.485618	85.357915	12.292755	19.441240	-19.151300	16.114560	0.645689	0.723753	0.129821	-1.000000	-1.000000	-1.000000	-1.000000	-1.000000	-1.000000	-1.000000	76.551724	0.000000	-1.000000	-1.000000	1739792.000000	1770064976.298995
-2388.915000	-8934.525000	-599.670000	12902.355000	-1890.675000	-1902.915000	8643.960000	-2962.170000	3.222319	164.160026	64.824534	28.792940	4.776089	-3.391120	21.754783	6.225628	19.441240	-19.151300	16.114560	0.645689	0.723753	0.129821	-1.000000	-1.000000	-1.000000	-1.000000	-1.000000	-1.000000	-1.000000	76.551724	0.000000	-1.000000	-1.000000	1739793.000000	1770064976.299008
-2359.530000	-8972.640000	-453.060000	12928.770000	-1870.785000	-1899.180000	8910.630000	-2909.115000	13.691608	167.363072	80.571793	57.372942	16.183821	2.336335	-64.153901	2.602091	19.441240	-19.151300	16.114560	0.645689	0.723753	0.129821	-1.000000	-1.000000	-1.000000	-1.000000	-1.000000	-1.000000	-1.000000	76.551724	0.000000	-1.000000	-1.000000	1739794.000000	1770064976.299014
-2435.445000	-8954.055000	-576.945000	12830.220000	-1894.140000	-1857.870000	8922.195000	-2918.700000	27.291551	86.210092	103.788710	80.405571	25.432011	10.663331	-107.968168	6.968956	19.441240	-19.151300	16.114560	0.645689	0.723753	0.129821	-1.000000	-1.000000	-1.000000	-1.000000	-1.000000	-1.000000	-1.000000	76.551724	0.000000	-1.000000	-1.000000	1739795.000000	1770064976.299020
-2459.925000	-8903.970000	-629.865000	12826.305000	-1916.550000	-1901.565000	8847.405000	-2996.595000	20.303735	-45.199419	99.785499	76.198429	26.688026	17.964398	-79.620761	12.282510	19.441240	-19.151300	16.114560	0.645689	0.723753	0.129821	-1.000000	-1.000000	-1.000000	-1.000000	-1.000000	-1.000000	-1.000000	76.551724	0.000000	-1.000000	-1.000000	1739796.000000	1770064976.299025
-2412.405000	-8803.845000	-485.010000	12950.460000	-1903.095000	-1938.645000	8769.645000	-2979.900000	-9.726131	-146.632528	45.645729	39.509875	15.668449	19.146499	-29.521760	6.627344	19.441240	-19.151300	16.114560	0.645689	0.723753	0.129821	-1.000000	-1.000000	-1.000000	-1.000000	-1.000000	-1.000000	-1.000000	76.551724	0.000000	-1.000000	-1.000000	1739797.000000	1770064976.301860
-2385.180000	-8976.420000	-483.975000	12916.305000	-1932.165000	-1863.630000	8737.920000	-2970.450000	-38.680049	-163.952110	-34.049338	-6.821641	-0.759376	15.105200	-22.150016	-8.308929	19.441240	-19.151300	16.114560	0.645689	0.723753	0.129821	-1.000000	-1.000000	-1.000000	-1.000000	-1.000000	-1.000000	-1.000000	76.551724	0.000000	-1.000000	-1.000000	1739798.000000	1770064976.301870
-2293.290000	-8785.080000	-460.080000	12907.800000	-1959.480000	-1865.610000	8749.845000	-2947.770000	-43.871926	-116.483807	-97.329334	-40.037678	-13.560226	10.462053	-47.334054	-19.380926	19.441240	-19.151300	16.114560	0.645689	0.723753	0.129821	-1.000000	-1.000000	-1.000000	-1.000000	-1.000000	-1.000000	-1.000000	76.551724	0.000000	-1.000000	-1.000000	1739799.000000	1770064976.305387
-2023.920000	-8254.665000	-347.715000	12906.675000	-1987.965000	-1940.580000	8320.500000	-2935.035000	-21.866832	-55.256160	-120.689965	-56.701784	-21.819860	3.030878	-50.213433	-19.139784	19.441240	-19.151300	16.114560	0.645689	0.723753	0.129821	-1.000000	-1.000000	-1.000000	-1.000000	-1.000000	-1.000000	-1.000000	76.551724	0.000000	-1.000000	-1.000000	1739800.000000	1770064976.305398
-2117.250000	-8563.725000	-692.955000	12625.515000	-2005.425000	-1893.105000	8334.585000	-2916.585000	15.485684	-2.652391	-104.220026	-64.517097	-27.357629	-11.082773	-16.018921	-9.417962	45.871560	-51.029440	26.384540	0.642699	0.749083	0.136596	-1.000000	-1.000000	-1.000000	-1.000000	-1.000000	-1.000000	-1.000000	76.551724	0.000000	-1.000000	-1.000000	1739801.000000	1770064976.309362
-2273.895000	-8764.470000	-830.745000	12577.995000	-2023.380000	-1889.955000	8507.745000	-2874.690000	43.441436	38.925604	-70.816129	-71.270110	-28.044961	-23.031472	24.021338	5.153673	45.871560	-51.029440	26.384540	0.642699	0.749083	0.136596	-1.000000	-1.000000	-1.000000	-1.000000	-1.000000	-1.000000	-1.000000	76.551724	0.000000	-1.000000	-1.000000	1739802.000000	1770064976.309373
-2446.830000	-8744.445000	-624.555000	12811.095000	-1885.950000	-1787.265000	8252.595000	-2833.740000	36.155210	61.260158	-41.452802	-68.642096	-18.651021	-19.780882	43.624732	18.964959	45.871560	-51.029440	26.384540	0.642699	0.749083	0.136596	-1.000000	-1.000000	-1.000000	-1.000000	-1.000000	-1.000000	-1.000000	76.551724	0.000000	-1.000000	-1.000000	1739803.000000	1770064976.313478
-2510.775000	-8768.925000	-448.875000	12968.775000	-1806.390000	-1708.290000	8195.805000	-2871.315000	-7.938251	56.448729	-6.021714	-32.655088	4.777282	-1.156911	40.928734	25.409700	45.871560	-51.029440	26.384540	0.642699	0.749083	0.136596	-1.000000	-1.000000	-1.000000	-1.000000	-1.000000	-1.000000	-1.000000	76.551724	0.000000	-1.000000	-1.000000	1739804.000000	1770064976.313485
-2501.415000	-8704.080000	-348.795000	13015.350000	-1816.920000	-1982.745000	8886.330000	-2930.715000	-59.016222	31.366495	49.822440	38.367593	35.654755	18.066621	35.485943	19.436748	45.871560	-51.029440	26.384540	0.642699	0.749083	0.136596	-1.000000	-1.000000	-1.000000	-1.000000	-1.000000	-1.000000	-1.000000	76.551724	0.000000	-1.000000	-1.000000	1739805.000000	1770064976.320637
-2570.040000	-8626.680000	-418.005000	12984.480000	-1885.680000	-1992.465000	9083.835000	-2977.695000	-80.859142	6.979744	105.296065	105.401648	54.861663	18.218688	56.715333	1.116870	45.871560	-51.029440	26.384540	0.642699	0.749083	0.136596	-1.000000	-1.000000	-1.000000	-1.000000	-1.000000	-1.000000	-1.000000	76.551724	0.000000	-1.000000	-1.000000	1739806.000000	1770064976.320648
-2561.265000	-8522.145000	-178.470000	13150.575000	-1868.085000	-1912.545000	8814.735000	-2953.395000	-60.687300	0.210711	123.781840	126.195799	47.067452	-3.581836	99.650607	-21.651643	45.871560	-51.029440	26.384540	0.642699	0.749083	0.136596	-1.000000	-1.000000	-1.000000	-1.000000	-1.000000	-1.000000	-1.000000	76.551724	0.000000	-1.000000	-1.000000	1739807.000000	1770064976.349082
-2310.120000	-8362.440000	149.895000	13336.155000	-1812.510000	-1959.840000	8788.770000	-2933.505000	-11.376204	3.878878	98.245480	95.502648	16.677257	-27.746388	116.435377	-36.009490	45.871560	-51.029440	26.384540	0.642699	0.749083	0.136596	-1.000000	-1.000000	-1.000000	-1.000000	-1.000000	-1.000000	-1.000000	76.551724	0.000000	-1.000000	-1.000000	1739808.000000	1770064976.349095
-2295.495000	-8557.380000	-90.000000	13187.970000	-1838.880000	-1890.450000	8627.535000	-2926.575000	44.178399	-7.069340	49.748644	37.635653	-17.368433	-34.211409	77.148190	-33.214648	45.871560	-51.029440	26.384540	0.642699	0.749083	0.136596	-1.000000	-1.000000	-1.000000	-1.000000	-1.000000	-1.000000	-1.000000	76.551724	0.000000	-1.000000	-1.000000	1739809.000000	1770064976.349108
-2382.615000	-8746.920000	-614.385000	12760.920000	-1832.535000	-1783.890000	8355.600000	-2913.795000	83.411188	-37.039452	-10.068651	-27.470793	-38.883652	-16.600890	-10.319357	-14.904204	45.871560	-51.029440	26.384540	0.642699	0.749083	0.136596	-1.000000	-1.000000	-1.000000	-1.000000	-1.000000	-1.000000	-1.000000	76.551724	0.000000	-1.000000	-1.000000	1739810.000000	1770064976.349113
-2442.780000	-9129.465000	-1095.165000	12439.215000	-1843.335000	-1757.790000	8492.760000	-2877.840000	92.175833	-61.695056	-87.427132	-96.706275	-43.287447	16.805386	-118.442959	8.779607	9.445940	-62.566000	30.306360	0.637816	0.785520	0.134277	-1.000000	-1.000000	-1.000000	-1.000000	-1.000000	-1.000000	-1.000000	76.551724	0.000000	-1.000000	-1.000000	1739811.000000	1770064976.349119
-2435.445000	-9550.890000	-1343.340000	12127.230000	-2139.885000	-1858.320000	8522.055000	-2850.030000	71.342037	-70.643339	-176.578356	-165.386731	-40.025200	42.704101	-190.693216	26.686101	9.445940	-62.566000	30.306360	0.637816	0.785520	0.134277	-1.000000	-1.000000	-1.000000	-1.000000	-1.000000	-1.000000	-1.000000	76.551724	0.000000	-1.000000	-1.000000	1739812.000000	1770064976.349124
-2360.565000	-9113.355000	-1381.725000	12284.910000	-2163.150000	-2103.615000	8832.960000	-2910.330000	34.357689	-65.805768	-236.867593	-204.873030	-43.649648	36.660939	-174.168927	32.916299	9.445940	-62.566000	30.306360	0.637816	0.785520	0.134277	-1.000000	-1.000000	-1.000000	-1.000000	-1.000000	-1.000000	-1.000000	76.551724	0.000000	-1.000000	-1.000000	1739813.000000	1770064976.349130
-2177.055000	-8603.055000	-940.185000	12514.455000	-2030.895000	-1980.855000	8891.100000	-2904.840000	-0.488082	-22.957571	-208.736026	-168.588329	-47.751331	1.853069	-82.447569	27.368420	9.445940	-62.566000	30.306360	0.637816	0.785520	0.134277	-1.000000	-1.000000	-1.000000	-1.000000	-1.000000	-1.000000	-1.000000	76.551724	0.000000	-1.000000	-1.000000	1739814.000000	1770064976.349135
-2295.270000	-9271.170000	-768.960000	12588.120000	-1912.590000	-1963.890000	8939.565000	-2923.965000	-21.208146	63.930812	-64.599883	-39.708421	-25.822139	-29.628355	21.820397	14.005990	9.445940	-62.566000	30.306360	0.637816	0.785520	0.134277	-1.000000	-1.000000	-1.000000	-1.000000	-1.000000	-1.000000	-1.000000	76.551724	0.000000	-1.000000	-1.000000	1739815.000000	1770064976.349140
-2514.330000	-9327.690000	-526.545000	12855.780000	-1883.115000	-2012.715000	8817.705000	-2998.755000	-36.685167	127.987750	142.816000	131.459225	29.007421	-34.952253	92.758294	-3.089692	9.445940	-62.566000	30.306360	0.637816	0.785520	0.134277	-1.000000	-1.000000	-1.000000	-1.000000	-1.000000	-1.000000	-1.000000	76.551724	0.000000	-1.000000	-1.000000	1739816.000000	1770064976.349145
-2677.230000	-8994.555000	-250.020000	13099.905000	-1845.045000	-1982.880000	8512.110000	-3013.605000	-68.512154	108.562818	306.146509	261.806544	87.325919	-19.003837	116.038620	-21.380167	9.445940	-62.566000	30.306360	0.637816	0.785520	0.134277	-1.000000	-1.000000	-1.000000	-1.000000	-1.000000	-1.000000	-1.000000	76.551724	0.000000	-1.000000	-1.000000	1739817.000000	1770064976.349150
-2419.515000	-8297.640000	-128.790000	13118.760000	-1825.020000	-1955.115000	8335.305000	-2931.930000	-108.624391	48.286243	354.331678	299.409971	112.402014	2.800068	90.724151	-33.789853	9.445940	-62.566000	30.306360	0.637816	0.785520	0.134277	-1.000000	-1.000000	-1.000000	-1.000000	-1.000000	-1.000000	-1.000000	76.551724	0.000000	-1.000000	-1.000000	1739818.000000	1770064976.349155
-2195.730000	-8328.015000	-323.460000	12982.230000	-1863.720000	-1883.295000	8767.935000	-2836.440000	-106.740951	36.743395	289.779921	241.771699	89.532850	18.386926	37.503244	-29.318299	9.445940	-62.566000	30.306360	0.637816	0.785520	0.134277	-1.000000	-1.000000	-1.000000	-1.000000	-1.000000	-1.000000	-1.000000	76.551724	0.000000	-1.000000	-1.000000	1739819.000000	1770064976.349161
-2257.245000	-8444.295000	-483.165000	12932.145000	-1879.560000	-1947.690000	8689.995000	-2874.645000	-32.074127	86.424027	148.053614	116.300178	31.078760	22.175983	-2.808598	-7.228708	9.445940	-62.566000	30.306360	0.637816	0.785520	0.134277	-1.000000	-1.000000	-1.000000	-1.000000	-1.000000	-1.000000	-1.000000	76.551724	0.000000	-1.000000	-1.000000	1739820.000000	1770064976.349165
-2127.780000	-8397.270000	-600.930000	12819.285000	-1881.180000	-1993.815000	8759.385000	-2901.195000	77.584752	124.804424	-30.522965	-36.104902	-31.439438	16.009771	-12.456199	17.544165	19.380200	-10.926160	14.374920	0.678709	0.750486	0.097046	-1.000000	-1.000000	-1.000000	-1.000000	-1.000000	-1.000000	-1.000000	76.551724	0.000000	-1.000000	-1.000000	1739821.000000	1770064976.359697
-2126.295000	-8601.480000	-573.300000	12598.470000	-1926.405000	-2011.860000	8771.310000	-2903.580000	151.407648	77.112425	-198.914157	-176.176362	-69.166136	8.599334	-14.252541	29.648713	19.380200	-10.926160	14.374920	0.678709	0.750486	0.097046	-1.000000	-1.000000	-1.000000	-1.000000	-1.000000	-1.000000	-1.000000	76.551724	0.000000	-1.000000	-1.000000	1739822.000000	1770064976.359709
-2339.280000	-9018.495000	-581.220000	12667.500000	-1978.155000	-2044.035000	8522.730000	-2895.705000	142.671983	-72.445991	-310.348822	-272.220217	-77.804287	5.271822	-35.390980	26.225708	19.380200	-10.926160	14.374920	0.678709	0.750486	0.097046	-1.000000	-1.000000	-1.000000	-1.000000	-1.000000	-1.000000	-1.000000	76.551724	0.000000	-1.000000	-1.000000	1739823.000000	1770064976.359722
-2440.530000	-8843.040000	-422.505000	13080.645000	-1867.365000	-1867.635000	8349.705000	-2918.070000	55.848515	-248.216553	-332.204556	-288.053516	-68.410394	2.979403	-73.696344	13.344961	19.380200	-10.926160	14.374920	0.678709	0.750486	0.097046	-1.000000	-1.000000	-1.000000	-1.000000	-1.000000	-1.000000	-1.000000	76.551724	0.000000	-1.000000	-1.000000	1739824.000000	1770064976.359728
-2308.815000	-8559.990000	-369.405000	13004.505000	-1903.230000	-1950.705000	8761.770000	-2913.030000	-53.341957	-324.865161	-258.664023	-204.715324	-47.199114	1.168080	-90.536064	-0.996082	19.380200	-10.926160	14.374920	0.678709	0.750486	0.097046	-1.000000	-1.000000	-1.000000	-1.000000	-1.000000	-1.000000	-1.000000	76.551724	0.000000	-1.000000	-1.000000	1739825.000000	1770064976.361654
-2319.255000	-8628.525000	-472.770000	12866.985000	-1973.205000	-2140.650000	9003.060000	-2973.465000	-117.473546	-247.989349	-120.282076	-61.375574	-18.775886	-3.219588	-36.449279	-11.798488	19.380200	-10.926160	14.374920	0.678709	0.750486	0.097046	-1.000000	-1.000000	-1.000000	-1.000000	-1.000000	-1.000000	-1.000000	76.551724	0.000000	-1.000000	-1.000000	1739826.000000	1770064976.361663
-2321.010000	-8753.715000	-524.880000	12772.845000	-1944.630000	-2069.145000	8886.060000	-2989.170000	-112.783615	-81.817352	32.011688	71.642951	7.954151	-18.703464	81.059058	-20.342838	19.380200	-10.926160	14.374920	0.678709	0.750486	0.097046	-1.000000	-1.000000	-1.000000	-1.000000	-1.000000	-1.000000	-1.000000	76.551724	0.000000	-1.000000	-1.000000	1739827.000000	1770064976.361673
-2376.270000	-8832.330000	-253.440000	13094.145000	-1960.920000	-2109.015000	8915.445000	-2984.445000	-65.644740	74.226722	161.535346	156.651653	27.706871	-39.668624	174.404707	-28.484575	19.380200	-10.926160	14.374920	0.678709	0.750486	0.097046	-1.000000	-1.000000	-1.000000	-1.000000	-1.000000	-1.000000	-1.000000	76.551724	0.000000	-1.000000	-1.000000	1739828.000000	1770064976.361678
-2334.015000	-8813.880000	-226.530000	13201.470000	-1996.920000	-2065.095000	8674.110000	-2970.090000	-11.745769	170.073484	251.641601	197.660498	40.335488	-45.944323	161.435508	-30.474700	19.380200	-10.926160	14.374920	0.678709	0.750486	0.097046	-1.000000	-1.000000	-1.000000	-1.000000	-1.000000	-1.000000	-1.000000	76.551724	0.000000	-1.000000	-1.000000	1739829.000000	1770064976.371315
-2203.560000	-8657.550000	-230.985000	13107.105000	-1984.095000	-2091.870000	8433.675000	-2957.175000	30.487023	202.467168	280.457046	199.810912	45.152659	-24.101962	39.483603	-17.977300	19.380200	-10.926160	14.374920	0.678709	0.750486	0.097046	-1.000000	-1.000000	-1.000000	-1.000000	-1.000000	-1.000000	-1.000000	76.551724	0.000000	-1.000000	-1.000000	1739830.000000	1770064976.371325
-2060.415000	-8617.230000	-317.745000	12990.330000	-1890.675000	-2047.770000	8821.755000	-2894.130000	58.456663	184.849816	221.317759	151.086928	42.046370	18.554686	-118.437212	8.253345	26.903380	28.612500	-11.338180	0.608336	0.695799	0.069092	-1.000000	-1.000000	-1.000000	-1.000000	-1.000000	-1.000000	-1.000000	76.551724	0.000000	-1.000000	-1.000000	1739831.000000	1770064976.371337
-2141.685000	-8716.095000	-571.455000	12873.645000	-1919.430000	-2045.565000	8636.625000	-2930.400000	75.894433	137.766284	75.551529	45.652127	32.365634	56.793904	-206.768617	35.948079	26.903380	28.612500	-11.338180	0.608336	0.695799	0.069092	-1.000000	-1.000000	-1.000000	-1.000000	-1.000000	-1.000000	-1.000000	76.551724	0.000000	-1.000000	-1.000000	1739832.000000	1770064976.371342
-2213.010000	-8793.630000	-659.070000	12864.465000	-1875.240000	-2021.940000	8874.855000	-2915.010000	78.447024	72.066315	-110.887745	-93.077261	15.156149	66.243549	-168.774708	49.608276	26.903380	28.612500	-11.338180	0.608336	0.695799	0.069092	-1.000000	-1.000000	-1.000000	-1.000000	-1.000000	-1.000000	-1.000000	76.551724	0.000000	-1.000000	-1.000000	1739833.000000	1770064976.373595
-2210.220000	-8836.065000	-661.545000	12807.945000	-1874.475000	-2003.490000	8798.040000	-2971.620000	53.700249	-16.311147	-259.924304	-208.645157	-7.640305	44.478593	-43.550604	41.414094	26.903380	28.612500	-11.338180	0.608336	0.695799	0.069092	-1.000000	-1.000000	-1.000000	-1.000000	-1.000000	-1.000000	-1.000000	76.551724	0.000000	-1.000000	-1.000000	1739834.000000	1770064976.373605
-2265.165000	-8900.280000	-620.955000	12807.585000	-1911.285000	-2063.250000	8768.295000	-2977.245000	1.897867	-113.655221	-296.179348	-236.993976	-26.976324	10.019941	79.017501	15.463145	26.903380	28.612500	-11.338180	0.608336	0.695799	0.069092	-1.000000	-1.000000	-1.000000	-1.000000	-1.000000	-1.000000	-1.000000	76.551724	0.000000	-1.000000	-1.000000	1739835.000000	1770064976.383269
-2265.345000	-8785.845000	-588.690000	12732.390000	-1903.095000	-2068.650000	8770.680000	-2951.460000	-55.846463	-173.775393	-197.088501	-158.202109	-35.741909	-20.326609	132.124944	-15.422333	26.903380	28.612500	-11.338180	0.608336	0.695799	0.069092	-1.000000	-1.000000	-1.000000	-1.000000	-1.000000	-1.000000	-1.000000	76.551724	0.000000	-1.000000	-1.000000	1739836.000000	1770064976.383280
-2231.460000	-8827.605000	-596.295000	12733.470000	-1891.845000	-2033.775000	8808.165000	-2936.835000	-90.172197	-155.122942	-17.665570	-20.765644	-32.460720	-39.532202	109.123139	-36.396581	26.903380	28.612500	-11.338180	0.608336	0.695799	0.069092	-1.000000	-1.000000	-1.000000	-1.000000	-1.000000	-1.000000	-1.000000	76.551724	0.000000	-1.000000	-1.000000	1739837.000000	1770064976.388988
-2227.815000	-8902.440000	-739.440000	12674.205000	-1945.755000	-2053.440000	8790.435000	-2944.170000	-84.192387	-68.011505	144.754390	98.722830	-19.144639	-42.809767	49.888832	-38.984501	26.903380	28.612500	-11.338180	0.608336	0.695799	0.069092	-1.000000	-1.000000	-1.000000	-1.000000	-1.000000	-1.000000	-1.000000	76.551724	0.000000	-1.000000	-1.000000	1739838.000000	1770064976.388999
-2243.970000	-9042.930000	-873.180000	12565.485000	-1957.095000	-1996.965000	8576.055000	-2945.070000	-48.205219	26.864850	213.836080	153.385930	-3.608153	-29.330234	-5.785184	-25.919651	26.903380	28.612500	-11.338180	0.608336	0.695799	0.069092	-1.000000	-1.000000	-1.000000	-1.000000	-1.000000	-1.000000	-1.000000	76.551724	0.000000	-1.000000	-1.000000	1739839.000000	1770064976.389011
-2210.265000	-8911.080000	-809.190000	12447.945000	-1953.630000	-1982.250000	8567.460000	-2904.030000	-6.144523	78.362859	176.693148	140.045073	4.716583	-6.326914	-47.260091	-6.974873	26.903380	28.612500	-11.338180	0.608336	0.695799	0.069092	-1.000000	-1.000000	-1.000000	-1.000000	-1.000000	-1.000000	-1.000000	76.551724	0.000000	-1.000000	-1.000000	1739840.000000	1770064976.389017
-2245.545000	-9084.420000	-673.380000	12427.470000	-1968.750000	-2044.845000	8861.445000	-2880.945000	28.775424	83.683652	83.995359	80.617861	3.672220	12.612687	-67.439093	10.045015	55.164900	6.226080	17.884720	0.542296	0.732359	0.041016	-1.000000	-1.000000	-1.000000	-1.000000	-1.000000	-1.000000	-1.000000	76.551724	0.000000	-1.000000	-1.000000	1739841.000000	1770064976.397596
-2098.485000	-8936.955000	-647.820000	12903.525000	-1946.250000	-2076.390000	8743.185000	-2906.010000	54.780395	62.314929	1.969621	14.127592	-1.399216	15.614708	-52.777271	21.319769	55.164900	6.226080	17.884720	0.542296	0.732359	0.041016	-1.000000	-1.000000	-1.000000	-1.000000	-1.000000	-1.000000	-1.000000	76.551724	0.000000	-1.000000	-1.000000	1739842.000000	1770064976.397616
-2046.960000	-8559.630000	-460.620000	13121.955000	-1888.965000	-2066.805000	8713.260000	-2954.925000	70.490773	37.209557	-36.081248	-12.031416	-2.024701	4.411873	-14.482982	23.538745	55.164900	6.226080	17.884720	0.542296	0.732359	0.041016	-1.000000	-1.000000	-1.000000	-1.000000	-1.000000	-1.000000	-1.000000	76.551724	0.000000	-1.000000	-1.000000	1739843.000000	1770064976.397629
-2043.990000	-8684.820000	-132.615000	13231.080000	-1867.680000	-2024.370000	8530.200000	-2949.300000	70.720968	29.180559	-29.462096	17.318481	7.447245	-6.526212	16.843044	15.164667	55.164900	6.226080	17.884720	0.542296	0.732359	0.041016	-1.000000	-1.000000	-1.000000	-1.000000	-1.000000	-1.000000	-1.000000	76.551724	0.000000	-1.000000	-1.000000	1739844.000000	1770064976.397634
-2007.405000	-8657.505000	-81.405000	13224.105000	-1873.980000	-2053.530000	8616.870000	-2932.515000	50.330124	31.683203	3.848695	62.156294	22.459715	-6.305870	23.188722	0.023574	55.164900	6.226080	17.884720	0.542296	0.732359	0.041016	-1.000000	-1.000000	-1.000000	-1.000000	-1.000000	-1.000000	-1.000000	76.551724	0.000000	-1.000000	-1.000000	1739845.000000	1770064976.397694
-2079.495000	-8731.665000	-241.740000	13110.795000	-1904.400000	-2150.280000	8871.705000	-2947.455000	11.409672	20.388283	28.624855	65.189365	30.943003	1.177757	15.082300	-13.833553	55.164900	6.226080	17.884720	0.542296	0.732359	0.041016	-1.000000	-1.000000	-1.000000	-1.000000	-1.000000	-1.000000	-1.000000	76.551724	0.000000	-1.000000	-1.000000	1739846.000000	1770064976.397699
-2085.120000	-8746.335000	-412.830000	13012.200000	-1848.960000	-2119.275000	8863.335000	-2981.070000	-35.648018	-12.039550	12.367054	5.034418	25.936788	5.359377	18.823814	-20.048779	55.164900	6.226080	17.884720	0.542296	0.732359	0.041016	-1.000000	-1.000000	-1.000000	-1.000000	-1.000000	-1.000000	-1.000000	76.551724	0.000000	-1.000000	-1.000000	1739847.000000	1770064976.404593
-2005.695000	-8814.015000	-442.395000	13012.875000	-1813.590000	-2025.315000	8670.330000	-2947.590000	-73.109696	-51.680099	-43.903816	-85.896162	11.355319	4.250761	37.457791	-17.634661	55.164900	6.226080	17.884720	0.542296	0.732359	0.041016	-1.000000	-1.000000	-1.000000	-1.000000	-1.000000	-1.000000	-1.000000	76.551724	0.000000	-1.000000	-1.000000	1739848.000000	1770064976.404611
-1850.940000	-8874.135000	-450.405000	12998.610000	-1852.065000	-1996.200000	8537.085000	-2901.915000	-79.253821	-78.827313	-105.453556	-150.014784	-5.275859	4.664603	41.407622	-8.503913	55.164900	6.226080	17.884720	0.542296	0.732359	0.041016	-1.000000	-1.000000	-1.000000	-1.000000	-1.000000	-1.000000	-1.000000	76.551724	0.000000	-1.000000	-1.000000	1739849.000000	1770064976.405431
-1890.765000	-8938.530000	-488.520000	12947.490000	-1917.540000	-2092.815000	8550.045000	-2882.520000	-46.427257	-81.425613	-134.240053	-154.621027	-20.775854	9.213935	7.143662	4.703561	55.164900	6.226080	17.884720	0.542296	0.732359	0.041016	-1.000000	-1.000000	-1.000000	-1.000000	-1.000000	-1.000000	-1.000000	76.551724	0.000000	-1.000000	-1.000000	1739850.000000	1770064976.405442
-1974.105000	-8743.770000	-468.360000	12953.565000	-1855.710000	-1986.615000	8258.805000	-2875.320000	1.837496	-60.342100	-114.369932	-113.368370	-33.315426	13.120116	-52.581271	17.982700	5.676720	2.899400	-5.936140	0.616759	0.789549	0.042175	-1.000000	-1.000000	-1.000000	-1.000000	-1.000000	-1.000000	-1.000000	76.551724	0.000000	-1.000000	-1.000000	1739851.000000	1770064976.414535
-2067.840000	-8491.095000	-375.525000	13012.200000	-1795.410000	-2081.970000	8708.760000	-2896.020000	28.737354	-22.257539	-55.725582	-57.009434	-36.341243	12.093784	-93.646160	26.093134	5.676720	2.899400	-5.936140	0.616759	0.789549	0.042175	-1.000000	-1.000000	-1.000000	-1.000000	-1.000000	-1.000000	-1.000000	76.551724	0.000000	-1.000000	-1.000000	1739852.000000	1770064976.414548
-2109.780000	-8832.780000	-370.620000	12977.370000	-1888.470000	-2210.850000	9100.170000	-2960.460000	20.262096	22.664967	14.205551	-0.788580	-25.467383	2.059975	-66.836422	22.961121	5.676720	2.899400	-5.936140	0.616759	0.789549	0.042175	-1.000000	-1.000000	-1.000000	-1.000000	-1.000000	-1.000000	-1.000000	76.551724	0.000000	-1.000000	-1.000000	1739853.000000	1770064976.414677
-2062.125000	-8748.270000	-320.085000	12994.200000	-1890.765000	-2175.705000	8935.470000	-3029.265000	-6.048830	54.459715	68.788882	51.489955	-7.047722	-17.014402	27.292336	5.186727	5.676720	2.899400	-5.936140	0.616759	0.789549	0.042175	-1.000000	-1.000000	-1.000000	-1.000000	-1.000000	-1.000000	-1.000000	76.551724	0.000000	-1.000000	-1.000000	1739854.000000	1770064976.414683
-2023.785000	-8721.045000	-253.890000	13059.540000	-1830.240000	-2102.265000	8813.250000	-3006.045000	-20.878324	60.539844	101.468626	95.931520	10.254122	-30.625164	113.524783	-20.117760	5.676720	2.899400	-5.936140	0.616759	0.789549	0.042175	-1.000000	-1.000000	-1.000000	-1.000000	-1.000000	-1.000000	-1.000000	76.551724	0.000000	-1.000000	-1.000000	1739855.000000	1770064976.417466
-2019.600000	-8801.730000	-357.480000	12984.435000	-1887.345000	-2114.820000	8844.705000	-2951.550000	-9.360086	48.373621	116.736424	125.164852	21.941257	-24.116519	119.475214	-35.769481	5.676720	2.899400	-5.936140	0.616759	0.789549	0.042175	-1.000000	-1.000000	-1.000000	-1.000000	-1.000000	-1.000000	-1.000000	76.551724	0.000000	-1.000000	-1.000000	1739856.000000	1770064976.417476
-2070.765000	-8800.605000	-363.465000	12987.360000	-1876.230000	-2096.055000	8888.175000	-2956.770000	16.423528	28.647148	108.385769	126.002194	23.757699	-3.633924	52.929861	-30.179553	5.676720	2.899400	-5.936140	0.616759	0.789549	0.042175	-1.000000	-1.000000	-1.000000	-1.000000	-1.000000	-1.000000	-1.000000	76.551724	0.000000	-1.000000	-1.000000	1739857.000000	1770064976.421360
-2032.650000	-8716.680000	-304.200000	13041.540000	-1816.155000	-2048.940000	8814.420000	-2970.495000	32.834309	10.133691	68.524025	91.056138	16.989486	15.154035	-28.495567	-9.457355	5.676720	2.899400	-5.936140	0.616759	0.789549	0.042175	-1.000000	-1.000000	-1.000000	-1.000000	-1.000000	-1.000000	-1.000000	76.551724	0.000000	-1.000000	-1.000000	1739858.000000	1770064976.421366
-1917.135000	-8721.990000	-333.180000	13009.680000	-1851.480000	-2007.810000	8599.320000	-2939.940000	31.942971	-0.475213	7.736434	29.847570	9.929693	26.183200	-83.497316	11.432081	5.676720	2.899400	-5.936140	0.616759	0.789549	0.042175	-1.000000	-1.000000	-1.000000	-1.000000	-1.000000	-1.000000	-1.000000	76.551724	0.000000	-1.000000	-1.000000	1739859.000000	1770064976.425967
-1964.250000	-8764.695000	-351.585000	13008.600000	-1844.280000	-1992.375000	8608.320000	-2956.995000	24.569550	-11.506146	-52.070864	-38.337282	4.939656	29.386891	-101.266519	23.379310	5.676720	2.899400	-5.936140	0.616759	0.789549	0.042175	-1.000000	-1.000000	-1.000000	-1.000000	-1.000000	-1.000000	-1.000000	76.551724	0.000000	-1.000000	-1.000000	1739860.000000	1770064976.425973
-2011.140000	-8783.055000	-357.255000	13014.675000	-1835.865000	-2095.965000	8831.385000	-2969.955000	18.842058	-34.328582	-94.164953	-91.575120	-1.833777	23.232985	-86.738719	25.011783	-26.003040	-9.766400	-16.633400	0.623228	0.789671	0.045471	-1.000000	-1.000000	-1.000000	-1.000000	-1.000000	-1.000000	-1.000000	76.551724	0.000000	-1.000000	-1.000000	1739861.000000	1770064976.429519
-1987.515000	-8792.055000	-374.805000	12995.415000	-1844.730000	-2073.645000	8957.565000	-2947.005000	11.577709	-55.098582	-108.594043	-110.300055	-8.713725	8.623062	-50.482631	19.370478	-26.003040	-9.766400	-16.633400	0.623228	0.789671	0.045471	-1.000000	-1.000000	-1.000000	-1.000000	-1.000000	-1.000000	-1.000000	76.551724	0.000000	-1.000000	-1.000000	1739862.000000	1770064976.429529
-1961.955000	-8791.560000	-380.565000	12985.920000	-1850.760000	-2036.880000	8851.950000	-2962.575000	-0.800869	-49.912351	-90.178335	-88.650970	-10.633428	-8.086141	-2.577715	11.669436	-26.003040	-9.766400	-16.633400	0.623228	0.789671	0.045471	-1.000000	-1.000000	-1.000000	-1.000000	-1.000000	-1.000000	-1.000000	76.551724	0.000000	-1.000000	-1.000000	1739863.000000	1770064976.433576
-1909.035000	-8764.695000	-367.740000	12982.635000	-1860.705000	-2008.890000	8774.145000	-2916.315000	-15.021378	-17.584695	-42.537449	-39.009759	-8.164955	-19.862174	43.221208	4.657702	-26.003040	-9.766400	-16.633400	0.623228	0.789671	0.045471	-1.000000	-1.000000	-1.000000	-1.000000	-1.000000	-1.000000	-1.000000	76.551724	0.000000	-1.000000	-1.000000	1739864.000000	1770064976.433586
-1859.625000	-8734.275000	-336.195000	12998.745000	-1873.035000	-1984.770000	8751.510000	-2862.180000	-23.611839	24.656282	19.943725	17.082964	-5.255828	-23.792044	69.040066	-1.870692	-26.003040	-9.766400	-16.633400	0.623228	0.789671	0.045471	-1.000000	-1.000000	-1.000000	-1.000000	-1.000000	-1.000000	-1.000000	76.551724	0.000000	-1.000000	-1.000000	1739865.000000	1770064976.437415
-1862.910000	-8684.145000	-278.235000	13086.540000	-1800.270000	-1994.040000	8727.570000	-2871.855000	-22.063369	57.916007	74.952608	59.986587	-2.602155	-20.979470	66.083912	-7.547773	-26.003040	-9.766400	-16.633400	0.623228	0.789671	0.045471	-1.000000	-1.000000	-1.000000	-1.000000	-1.000000	-1.000000	-1.000000	76.482759	0.000000	-1.000000	-1.000000	1739866.000000	1770064976.437424
-1870.830000	-8698.950000	-426.240000	12958.830000	-1840.725000	-1993.455000	8617.950000	-2905.200000	-14.621374	67.152007	98.014818	75.136881	1.223605	-14.751623	41.305194	-12.312616	-26.003040	-9.766400	-16.633400	0.623228	0.789671	0.045471	-1.000000	-1.000000	-1.000000	-1.000000	-1.000000	-1.000000	-1.000000	76.482759	0.000000	-1.000000	-1.000000	1739867.000000	1770064976.444621
-1861.740000	-8728.515000	-409.230000	12946.995000	-1840.095000	-1935.720000	8561.520000	-2906.685000	-9.652126	45.551755	76.259831	55.574910	4.811075	-7.909914	11.803507	-16.966163	-26.003040	-9.766400	-16.633400	0.623228	0.789671	0.045471	-1.000000	-1.000000	-1.000000	-1.000000	-1.000000	-1.000000	-1.000000	76.482759	0.000000	-1.000000	-1.000000	1739868.000000	1770064976.444640
-1948.590000	-8875.710000	-434.520000	12938.625000	-1896.480000	-2150.280000	8874.450000	-2949.165000	-9.218527	-1.015920	22.047302	11.175807	4.264920	-2.649828	-6.418326	-20.134793	-26.003040	-9.766400	-16.633400	0.623228	0.789671	0.045471	-1.000000	-1.000000	-1.000000	-1.000000	-1.000000	-1.000000	-1.000000	76.482759	0.000000	-1.000000	-1.000000	1739869.000000	1770064976.448641
-1993.140000	-8824.500000	-406.395000	12969.990000	-1877.670000	-2149.110000	8884.395000	-3008.205000	-9.569729	-50.929428	-33.926612	-32.097587	-1.230568	-1.330298	-10.795307	-19.475887	-26.003040	-9.766400	-16.633400	0.623228	0.789671	0.045471	-1.000000	-1.000000	-1.000000	-1.000000	-1.000000	-1.000000	-1.000000	76.482759	0.000000	-1.000000	-1.000000	1739870.000000	1770064976.448649
-1959.885000	-8823.015000	-393.480000	12967.605000	-1880.550000	-2076.255000	8894.430000	-2976.165000	-7.844628	-74.642534	-63.394683	-50.224406	-6.474853	-1.200326	-11.428768	-14.142470	-2.151660	11.231360	-19.105520	0.675596	0.713255	0.047424	-1.000000	-1.000000	-1.000000	-1.000000	-1.000000	-1.000000	-1.000000	76.482759	0.000000	-1.000000	-1.000000	1739871.000000	1770064976.449516
-1945.620000	-8774.415000	-372.375000	12975.885000	-1863.765000	-2042.640000	8845.065000	-2967.210000	-2.777804	-57.913189	-55.719294	-37.324260	-5.783111	4.132407	-14.012478	-3.692908	-2.151660	11.231360	-19.105520	0.675596	0.713255	0.047424	-1.000000	-1.000000	-1.000000	-1.000000	-1.000000	-1.000000	-1.000000	76.482759	0.000000	-1.000000	-1.000000	1739872.000000	1770064976.449536
-1934.730000	-8771.445000	-360.855000	13007.520000	-1829.610000	-1984.005000	8818.470000	-2977.875000	4.926562	-12.885758	-21.074553	-5.633703	1.438975	15.054557	-14.496517	9.064543	-2.151660	11.231360	-19.105520	0.675596	0.713255	0.047424	-1.000000	-1.000000	-1.000000	-1.000000	-1.000000	-1.000000	-1.000000	76.482759	0.000000	-1.000000	-1.000000	1739873.000000	1770064976.453535
-1901.700000	-8748.585000	-334.935000	13029.165000	-1824.435000	-1950.975000	8666.055000	-2957.400000	12.375508	33.820302	17.942252	25.302835	11.146074	25.541070	-12.469301	17.312797	-2.151660	11.231360	-19.105520	0.675596	0.713255	0.047424	-1.000000	-1.000000	-1.000000	-1.000000	-1.000000	-1.000000	-1.000000	76.482759	0.000000	-1.000000	-1.000000	1739874.000000	1770064976.453547
-1849.320000	-8689.770000	-315.495000	13029.840000	-1842.390000	-1893.825000	8551.665000	-2910.105000	18.075442	58.992434	40.789562	39.135036	16.035776	29.817298	-14.363294	18.790911	-2.151660	11.231360	-19.105520	0.675596	0.713255	0.047424	-1.000000	-1.000000	-1.000000	-1.000000	-1.000000	-1.000000	-1.000000	76.482759	0.000000	-1.000000	-1.000000	1739875.000000	1770064976.459712
-1908.090000	-8792.010000	-414.045000	12959.820000	-1867.365000	-2010.555000	8903.025000	-2932.920000	20.819801	53.847069	39.907993	30.836801	10.919743	23.363334	-14.250918	17.450011	-2.151660	11.231360	-19.105520	0.675596	0.713255	0.047424	-1.000000	-1.000000	-1.000000	-1.000000	-1.000000	-1.000000	-1.000000	76.482759	0.000000	-1.000000	-1.000000	1739876.000000	1770064976.459730
-1971.270000	-8917.020000	-451.755000	12970.890000	-1843.245000	-2042.280000	8926.020000	-2985.885000	16.760926	22.877929	19.055555	7.787365	-0.934088	3.609417	5.273447	14.555742	-2.151660	11.231360	-19.105520	0.675596	0.713255	0.047424	-1.000000	-1.000000	-1.000000	-1.000000	-1.000000	-1.000000	-1.000000	76.482759	0.000000	-1.000000	-1.000000	1739877.000000	1770064976.461616
-1896.120000	-8783.055000	-392.490000	12990.645000	-1840.545000	-1988.550000	8859.015000	-2960.685000	6.906694	-16.212605	-10.681316	-16.590761	-10.521376	-19.368678	33.100410	8.524873	-2.151660	11.231360	-19.105520	0.675596	0.713255	0.047424	-1.000000	-1.000000	-1.000000	-1.000000	-1.000000	-1.000000	-1.000000	76.482759	0.000000	-1.000000	-1.000000	1739878.000000	1770064976.461626
-1869.300000	-8755.695000	-379.035000	13000.680000	-1837.215000	-1968.840000	8820.945000	-2960.955000	0.244230	-37.354017	-32.446576	-29.994401	-11.832322	-27.434502	33.539009	1.512577	-2.151660	11.231360	-19.105520	0.675596	0.713255	0.047424	-1.000000	-1.000000	-1.000000	-1.000000	-1.000000	-1.000000	-1.000000	76.482759	0.000000	-1.000000	-1.000000	1739879.000000	1770064976.465508
-1906.605000	-8790.075000	-385.110000	13021.965000	-1813.185000	-1930.185000	8792.100000	-2963.655000	0.053382	-30.061808	-34.709298	-27.209916	-6.152316	-17.768319	-0.030332	-3.601456	-2.151660	11.231360	-19.105520	0.675596	0.713255	0.047424	-1.000000	-1.000000	-1.000000	-1.000000	-1.000000	-1.000000	-1.000000	76.482759	0.000000	-1.000000	-1.000000	1739880.000000	1770064976.465518
-1903.635000	-8772.975000	-374.535000	13025.340000	-1814.220000	-1928.565000	8796.735000	-2961.630000	-1.157153	-8.408037	-19.934589	-12.027324	1.110623	-3.821300	-37.439666	-7.678030	21.089320	12.024880	-3.876040	0.673643	0.706419	0.055847	-1.000000	-1.000000	-1.000000	-1.000000	-1.000000	-1.000000	-1.000000	76.482759	0.000000	-1.000000	-1.000000	1739881.000000	1770064976.469547
-1901.250000	-8794.935000	-378.270000	13017.870000	-1833.975000	-1963.215000	8847.675000	-2969.325000	-8.752588	8.672724	0.695105	5.385238	4.522477	1.677658	-47.163351	-11.991742	21.089320	12.024880	-3.876040	0.673643	0.706419	0.055847	-1.000000	-1.000000	-1.000000	-1.000000	-1.000000	-1.000000	-1.000000	76.482759	0.000000	-1.000000	-1.000000	1739882.000000	1770064976.469553
-1893.555000	-8759.970000	-355.545000	13033.440000	-1834.200000	-1950.390000	8835.885000	-2973.105000	-19.110633	12.336097	15.703188	14.646345	1.512968	-4.477930	-19.899333	-15.716422	21.089320	12.024880	-3.876040	0.673643	0.706419	0.055847	-1.000000	-1.000000	-1.000000	-1.000000	-1.000000	-1.000000	-1.000000	76.482759	0.000000	-1.000000	-1.000000	1739883.000000	1770064976.473414
-1869.165000	-8766.090000	-360.045000	13019.850000	-1846.665000	-1939.905000	8814.960000	-2956.140000	-24.653856	4.855253	20.249971	13.147717	-4.968202	-14.603523	26.036115	-16.602779	21.089320	12.024880	-3.876040	0.673643	0.706419	0.055847	-1.000000	-1.000000	-1.000000	-1.000000	-1.000000	-1.000000	-1.000000	76.482759	0.000000	-1.000000	-1.000000	1739884.000000	1770064976.473436
-1814.670000	-8735.400000	-333.765000	13049.505000	-1815.480000	-1924.965000	8814.375000	-2953.260000	-18.343212	-3.070275	18.440994	7.248782	-8.375582	-15.898433	54.801845	-11.628590	21.089320	12.024880	-3.876040	0.673643	0.706419	0.055847	-1.000000	-1.000000	-1.000000	-1.000000	-1.000000	-1.000000	-1.000000	76.482759	0.000000	-1.000000	-1.000000	1739885.000000	1770064976.478451
-1820.115000	-8738.955000	-347.850000	13058.640000	-1805.085000	-1905.750000	8792.190000	-2949.570000	1.420825	-1.043238	15.339321	3.647781	-4.778690	-1.704956	41.710268	0.262001	21.089320	12.024880	-3.876040	0.673643	0.706419	0.055847	-1.000000	-1.000000	-1.000000	-1.000000	-1.000000	-1.000000	-1.000000	76.482759	0.000000	-1.000000	-1.000000	1739886.000000	1770064976.478462
-1846.710000	-8758.170000	-355.725000	13051.710000	-1820.790000	-1917.585000	8751.420000	-2956.590000	23.807848	7.986497	9.333985	2.420979	3.414191	20.661689	-3.710509	14.443984	21.089320	12.024880	-3.876040	0.673643	0.706419	0.055847	-1.000000	-1.000000	-1.000000	-1.000000	-1.000000	-1.000000	-1.000000	76.482759	0.000000	-1.000000	-1.000000	1739887.000000	1770064976.481536
-1856.250000	-8758.440000	-352.800000	13060.980000	-1805.715000	-1923.480000	8842.905000	-2960.550000	31.851887	10.910883	-2.366990	0.135446	9.938566	34.044429	-46.256567	22.514862	21.089320	12.024880	-3.876040	0.673643	0.706419	0.055847	-1.000000	-1.000000	-1.000000	-1.000000	-1.000000	-1.000000	-1.000000	76.482759	0.000000	-1.000000	-1.000000	1739888.000000	1770064976.481546
-1851.480000	-8761.050000	-354.060000	13056.930000	-1810.620000	-1921.230000	8842.590000	-2959.245000	20.103760	2.702793	-15.794610	-4.218976	10.312464	26.926258	-54.479847	19.411751	21.089320	12.024880	-3.876040	0.673643	0.706419	0.055847	-1.000000	-1.000000	-1.000000	-1.000000	-1.000000	-1.000000	-1.000000	76.482759	0.000000	-1.000000	-1.000000	1739889.000000	1770064976.487873
-1838.205000	-8758.530000	-351.540000	13051.035000	-1821.105000	-1922.895000	8821.125000	-2943.855000	-1.418382	-9.485424	-23.336262	-8.651621	4.689491	3.925440	-25.602144	7.555780	21.089320	12.024880	-3.876040	0.673643	0.706419	0.055847	-1.000000	-1.000000	-1.000000	-1.000000	-1.000000	-1.000000	-1.000000	76.482759	0.000000	-1.000000	-1.000000	1739890.000000	1770064976.487884
-1831.995000	-8751.600000	-339.840000	13061.340000	-1815.435000	-1912.770000	8816.445000	-2953.305000	-18.913016	-16.891905	-21.166596	-10.748063	-3.112616	-19.547767	16.353391	-5.852742	-10.590440	2.578940	-6.012440	0.657347	0.759336	0.061523	-1.000000	-1.000000	-1.000000	-1.000000	-1.000000	-1.000000	-1.000000	76.482759	0.000000	-1.000000	-1.000000	1739891.000000	1770064976.489394
-1834.155000	-8750.295000	-333.630000	13065.750000	-1809.945000	-1899.675000	8813.970000	-2963.295000	-24.864952	-16.256336	-11.192794	-9.075893	-8.123925	-30.095062	45.290063	-14.838953	-10.590440	2.578940	-6.012440	0.657347	0.759336	0.061523	-1.000000	-1.000000	-1.000000	-1.000000	-1.000000	-1.000000	-1.000000	76.482759	0.000000	-1.000000	-1.000000	1739892.000000	1770064976.489404
-1841.130000	-8755.920000	-338.580000	13064.490000	-1806.390000	-1890.855000	8819.100000	-2956.005000	-19.999726	-9.323461	1.839741	-3.458377	-7.447456	-24.022750	48.854255	-17.274575	-10.590440	2.578940	-6.012440	0.657347	0.759336	0.061523	-1.000000	-1.000000	-1.000000	-1.000000	-1.000000	-1.000000	-1.000000	76.482759	0.000000	-1.000000	-1.000000	1739893.000000	1770064976.494584
-1844.460000	-8758.620000	-341.910000	13063.545000	-1811.430000	-1893.780000	8804.835000	-2944.215000	-9.444625	0.748509	12.724295	3.806796	-2.741025	-6.744330	27.918848	-12.990361	-10.590440	2.578940	-6.012440	0.657347	0.759336	0.061523	-1.000000	-1.000000	-1.000000	-1.000000	-1.000000	-1.000000	-1.000000	76.482759	0.000000	-1.000000	-1.000000	1739894.000000	1770064976.494595
-1799.955000	-8721.810000	-309.465000	13094.280000	-1787.895000	-1884.735000	8780.715000	-2902.455000	2.475805	10.684672	17.555474	8.882347	1.958964	11.703322	-5.561031	-2.907012	-10.590440	2.578940	-6.012440	0.657347	0.759336	0.061523	-1.000000	-1.000000	-1.000000	-1.000000	-1.000000	-1.000000	-1.000000	76.482759	0.000000	-1.000000	-1.000000	1739895.000000	1770064976.497425
-1756.530000	-8673.570000	-268.290000	13131.135000	-1758.150000	-1855.575000	8784.495000	-2860.470000	14.123703	17.763583	16.438484	10.654842	5.136479	22.500812	-33.626336	10.047757	-10.590440	2.578940	-6.012440	0.657347	0.759336	0.061523	-1.000000	-1.000000	-1.000000	-1.000000	-1.000000	-1.000000	-1.000000	76.482759	0.000000	-1.000000	-1.000000	1739896.000000	1770064976.497435
-1728.720000	-8623.260000	-220.005000	13186.260000	-1697.355000	-1787.715000	8834.670000	-2866.455000	23.919358	21.205081	12.874127	11.153849	7.933572	23.181909	-42.810594	20.506859	-10.590440	2.578940	-6.012440	0.657347	0.759336	0.061523	-1.000000	-1.000000	-1.000000	-1.000000	-1.000000	-1.000000	-1.000000	76.482759	0.000000	-1.000000	-1.000000	1739897.000000	1770064976.513028
-1643.220000	-8522.820000	-156.195000	13272.840000	-1608.975000	-1707.840000	8846.100000	-2887.155000	28.717129	21.787913	10.134161	12.616128	11.765830	17.905816	-30.326646	21.772087	-10.590440	2.578940	-6.012440	0.657347	0.759336	0.061523	-1.000000	-1.000000	-1.000000	-1.000000	-1.000000	-1.000000	-1.000000	76.482759	0.000000	-1.000000	-1.000000	1739898.000000	1770064976.513040
-1579.860000	-8464.050000	-137.790000	13308.345000	-1575.720000	-1672.425000	8880.075000	-2820.330000	26.505592	20.273954	8.578335	15.227983	16.576592	12.109682	-3.480602	11.669931	-10.590440	2.578940	-6.012440	0.657347	0.759336	0.061523	-1.000000	-1.000000	-1.000000	-1.000000	-1.000000	-1.000000	-1.000000	76.482759	0.000000	-1.000000	-1.000000	1739899.000000	1770064976.513054
-1630.845000	-8526.915000	-131.535000	13257.135000	-1609.065000	-1667.700000	8978.805000	-2734.245000	16.584161	14.070806	5.043821	14.293031	17.762033	6.545788	25.512800	-1.973487	-10.590440	2.578940	-6.012440	0.657347	0.759336	0.061523	-1.000000	-1.000000	-1.000000	-1.000000	-1.000000	-1.000000	-1.000000	76.482759	0.000000	-1.000000	-1.000000	1739900.000000	1770064976.513059
-1796.130000	-8752.725000	-283.590000	13067.010000	-1795.410000	-1829.340000	8917.290000	-2874.330000	-3.711488	-4.502153	-5.317720	1.094297	6.404577	-4.066840	44.191236	-10.465373	-14.847980	15.977220	-5.264700	0.677672	0.773619	0.060913	-1.000000	-1.000000	-1.000000	-1.000000	-1.000000	-1.000000	-1.000000	76.482759	0.000000	-1.000000	-1.000000	1739901.000000	1770064976.513065
-1931.805000	-8897.580000	-431.280000	12940.965000	-1912.950000	-1922.355000	8856.855000	-3129.930000	-35.183389	-39.152711	-25.584583	-28.158993	-22.295026	-24.840488	40.698545	-19.019025	-14.847980	15.977220	-5.264700	0.677672	0.773619	0.060913	-1.000000	-1.000000	-1.000000	-1.000000	-1.000000	-1.000000	-1.000000	76.482759	0.000000	-1.000000	-1.000000	1739902.000000	1770064976.513070
-1992.015000	-8947.935000	-480.600000	12905.685000	-1953.675000	-1985.805000	8511.120000	-3120.930000	-67.532576	-76.607118	-50.628528	-62.055278	-57.766859	-50.103538	8.286107	-36.629963	-14.847980	15.977220	-5.264700	0.677672	0.773619	0.060913	-1.000000	-1.000000	-1.000000	-1.000000	-1.000000	-1.000000	-1.000000	76.482759	0.000000	-1.000000	-1.000000	1739903.000000	1770064976.513745
-1893.015000	-8833.410000	-409.995000	12971.745000	-1907.190000	-1967.670000	8571.420000	-2947.275000	-79.822702	-89.807543	-63.726988	-76.585842	-75.753679	-63.025037	-43.375536	-51.563501	-14.847980	15.977220	-5.264700	0.677672	0.773619	0.060913	-1.000000	-1.000000	-1.000000	-1.000000	-1.000000	-1.000000	-1.000000	76.482759	0.000000	-1.000000	-1.000000	1739904.000000	1770064976.513757
-1890.135000	-8842.050000	-472.860000	12947.580000	-1919.700000	-1936.575000	8802.990000	-2915.730000	-55.974573	-60.182355	-49.435470	-54.947002	-58.365028	-49.621167	-80.227827	-39.479845	-14.847980	15.977220	-5.264700	0.677672	0.773619	0.060913	-1.000000	-1.000000	-1.000000	-1.000000	-1.000000	-1.000000	-1.000000	76.482759	0.000000	-1.000000	-1.000000	1739905.000000	1770064976.517718
-1841.310000	-8774.145000	-358.650000	13059.270000	-1824.120000	-1884.240000	8797.725000	-2919.690000	-2.094714	2.646848	-9.944195	-3.860046	-10.705608	-11.686983	-67.467479	3.035994	-14.847980	15.977220	-5.264700	0.677672	0.773619	0.060913	-1.000000	-1.000000	-1.000000	-1.000000	-1.000000	-1.000000	-1.000000	76.482759	0.000000	-1.000000	-1.000000	1739906.000000	1770064976.517731
-1567.170000	-8437.860000	-1.305000	13395.645000	-1515.510000	-1624.095000	8945.865000	-2788.290000	58.074457	70.575698	42.123043	56.456393	47.939152	36.645586	-7.413035	52.838493	-14.847980	15.977220	-5.264700	0.677672	0.773619	0.060913	-1.000000	-1.000000	-1.000000	-1.000000	-1.000000	-1.000000	-1.000000	76.482759	0.000000	-1.000000	-1.000000	1739907.000000	1770064976.521527
-1496.520000	-8357.400000	65.835000	13477.185000	-1428.435000	-1528.875000	9065.160000	-2717.415000	102.493226	120.269327	94.044823	107.845582	99.384776	80.399601	64.168867	83.430240	-14.847980	15.977220	-5.264700	0.677672	0.773619	0.060913	-1.000000	-1.000000	-1.000000	-1.000000	-1.000000	-1.000000	-1.000000	76.482759	0.000000	-1.000000	-1.000000	1739908.000000	1770064976.521535
-1669.140000	-8546.445000	-180.045000	13258.710000	-1613.340000	-1664.505000	8929.935000	-2628.765000	114.219870	133.580243	121.481579	128.729065	122.780468	102.472474	106.109022	81.862705	-14.847980	15.977220	-5.264700	0.677672	0.773619	0.060913	-1.000000	-1.000000	-1.000000	-1.000000	-1.000000	-1.000000	-1.000000	76.482759	0.000000	-1.000000	-1.000000	1739909.000000	1770064976.525610
-1918.755000	-8776.890000	-419.940000	13017.060000	-1838.475000	-1868.715000	8488.170000	-3002.220000	80.311007	95.858702	94.451928	96.357403	96.360707	84.247580	87.364859	49.301878	-14.847980	15.977220	-5.264700	0.677672	0.773619	0.060913	-1.000000	-1.000000	-1.000000	-1.000000	-1.000000	-1.000000	-1.000000	76.482759	0.000000	-1.000000	-1.000000	1739910.000000	1770064976.525622
-1839.555000	-8720.100000	-363.015000	13057.515000	-1836.270000	-1926.765000	8185.950000	-3083.535000	9.051821	15.792525	15.247768	14.749657	22.066550	24.678965	5.371040	-5.016870	-3.601360	32.870040	-2.990960	0.692198	0.779722	0.044983	-1.000000	-1.000000	-1.000000	-1.000000	-1.000000	-1.000000	-1.000000	76.482759	0.000000	-1.000000	-1.000000	1739911.000000	1770064976.529995
-1601.460000	-8560.260000	-168.030000	13277.970000	-1626.480000	-1796.445000	8381.970000	-2667.645000	-60.127312	-66.555971	-68.999611	-72.280473	-61.214282	-46.948227	-92.247078	-57.604561	-3.601360	32.870040	-2.990960	0.692198	0.779722	0.044983	-1.000000	-1.000000	-1.000000	-1.000000	-1.000000	-1.000000	-1.000000	76.482759	0.000000	-1.000000	-1.000000	1739912.000000	1770064976.530006
-1519.470000	-8459.595000	-1.440000	13376.610000	-1536.570000	-1699.290000	8609.670000	-2457.450000	-85.564756	-107.866341	-104.567858	-112.649370	-103.888307	-88.613142	-132.104126	-73.107233	-3.601360	32.870040	-2.990960	0.692198	0.779722	0.044983	-1.000000	-1.000000	-1.000000	-1.000000	-1.000000	-1.000000	-1.000000	76.482759	0.000000	-1.000000	-1.000000	1739913.000000	1770064976.541112
-1647.405000	-8538.840000	-147.420000	13208.310000	-1652.220000	-1710.675000	9131.400000	-2516.535000	-63.428042	-96.371532	-78.435286	-93.096965	-89.806327	-80.798221	-77.965373	-40.648183	-3.601360	32.870040	-2.990960	0.692198	0.779722	0.044983	-1.000000	-1.000000	-1.000000	-1.000000	-1.000000	-1.000000	-1.000000	76.482759	0.000000	-1.000000	-1.000000	1739914.000000	1770064976.541125
-2069.640000	-8946.765000	-563.670000	12860.820000	-1956.915000	-1886.130000	9153.315000	-3105.945000	-33.086152	-62.388284	-33.035970	-52.584372	-51.948953	-43.882883	41.227876	0.582916	-3.601360	32.870040	-2.990960	0.692198	0.779722	0.044983	-1.000000	-1.000000	-1.000000	-1.000000	-1.000000	-1.000000	-1.000000	76.482759	0.000000	-1.000000	-1.000000	1739915.000000	1770064976.541141
-1906.200000	-8702.640000	-303.255000	13129.290000	-1738.125000	-1707.930000	9025.785000	-3260.655000	-35.406601	-47.019726	-21.540503	-36.937772	-33.611331	-14.477702	146.514365	-5.033585	-3.601360	32.870040	-2.990960	0.692198	0.779722	0.044983	-1.000000	-1.000000	-1.000000	-1.000000	-1.000000	-1.000000	-1.000000	76.482759	0.000000	-1.000000	-1.000000	1739916.000000	1770064976.541147
-1499.265000	-8297.820000	111.060000	13586.940000	-1328.940000	-1394.730000	9061.650000	-2958.165000	-54.834110	-43.271738	-34.635448	-34.720764	-29.395819	-0.082866	161.736335	-58.257388	-3.601360	32.870040	-2.990960	0.692198	0.779722	0.044983	-1.000000	-1.000000	-1.000000	-1.000000	-1.000000	-1.000000	-1.000000	76.482759	0.000000	-1.000000	-1.000000	1739917.000000	1770064976.541460
-1808.640000	-8679.510000	-245.745000	13207.635000	-1691.145000	-1759.455000	8849.655000	-2747.565000	-36.945045	-8.362869	-17.385502	0.939235	0.146026	18.995484	79.746045	-89.904388	-3.601360	32.870040	-2.990960	0.692198	0.779722	0.044983	-1.000000	-1.000000	-1.000000	-1.000000	-1.000000	-1.000000	-1.000000	76.482759	0.000000	-1.000000	-1.000000	1739918.000000	1770064976.541470
-2272.320000	-9206.595000	-766.530000	12659.715000	-2242.530000	-2260.665000	8712.045000	-2912.490000	22.611426	51.371557	33.601334	61.502110	48.962247	37.393142	-37.175997	-40.352319	-3.601360	32.870040	-2.990960	0.692198	0.779722	0.044983	-1.000000	-1.000000	-1.000000	-1.000000	-1.000000	-1.000000	-1.000000	76.482759	0.000000	-1.000000	-1.000000	1739919.000000	1770064976.548784
-2197.530000	-9052.830000	-703.755000	12717.810000	-2156.850000	-2110.995000	8861.535000	-3133.620000	67.661251	80.213271	62.617679	84.734521	65.368100	27.520295	-114.656633	62.675530	-3.601360	32.870040	-2.990960	0.692198	0.779722	0.044983	-1.000000	-1.000000	-1.000000	-1.000000	-1.000000	-1.000000	-1.000000	76.482759	0.000000	-1.000000	-1.000000	1739920.000000	1770064976.548797
-1797.975000	-8558.550000	-180.990000	13181.940000	-1678.320000	-1664.190000	8821.800000	-3011.355000	65.934363	62.061156	46.394134	50.790092	37.064644	-1.317369	-120.128055	129.660042	-42.529620	18.052580	-15.458380	0.676146	0.801390	0.030212	-1.000000	-1.000000	-1.000000	-1.000000	-1.000000	-1.000000	-1.000000	76.482759	0.000000	-1.000000	-1.000000	1739921.000000	1770064976.550793
-1339.335000	-8019.270000	345.735000	13757.355000	-1169.550000	-1304.505000	8548.560000	-2635.470000	48.730346	43.871867	28.662077	14.425923	15.034620	-3.523418	-85.036230	113.186549	-42.529620	18.052580	-15.458380	0.676146	0.801390	0.030212	-1.000000	-1.000000	-1.000000	-1.000000	-1.000000	-1.000000	-1.000000	76.482759	0.000000	-1.000000	-1.000000	1739922.000000	1770064976.550800
-1256.715000	-7931.970000	473.130000	13991.760000	-1011.915000	-1313.505000	8437.095000	-2354.355000	60.578097	67.604412	56.099136	35.338321	45.315654	39.506917	-66.412796	57.236440	-42.529620	18.052580	-15.458380	0.676146	0.801390	0.030212	-1.000000	-1.000000	-1.000000	-1.000000	-1.000000	-1.000000	-1.000000	76.482759	0.000000	-1.000000	-1.000000	1739923.000000	1770064976.553683
-1363.590000	-7989.750000	415.800000	13937.805000	-1088.820000	-1397.880000	8253.585000	-2648.430000	95.875033	111.827289	111.340280	101.045354	105.916636	89.021005	-78.455537	27.649984	-42.529620	18.052580	-15.458380	0.676146	0.801390	0.030212	-1.000000	-1.000000	-1.000000	-1.000000	-1.000000	-1.000000	-1.000000	76.482759	0.000000	-1.000000	-1.000000	1739924.000000	1770064976.553716
-1560.870000	-8200.620000	191.295000	13690.800000	-1269.315000	-1427.940000	8871.840000	-2813.490000	95.908867	106.123019	119.635647	126.635889	119.525286	85.607430	-75.057282	24.538823	-42.529620	18.052580	-15.458380	0.676146	0.801390	0.030212	-1.000000	-1.000000	-1.000000	-1.000000	-1.000000	-1.000000	-1.000000	76.482759	0.000000	-1.000000	-1.000000	1739925.000000	1770064976.557701
-1978.605000	-8711.235000	-327.690000	13176.765000	-1719.720000	-1703.520000	9399.870000	-2628.630000	11.453821	2.119839	23.321625	38.967640	30.209809	8.153513	3.360441	0.554441	-42.529620	18.052580	-15.458380	0.676146	0.801390	0.030212	-1.000000	-1.000000	-1.000000	-1.000000	-1.000000	-1.000000	-1.000000	76.482759	0.000000	-1.000000	-1.000000	1739926.000000	1770064976.557716
-2366.370000	-9094.725000	-709.785000	12789.720000	-2110.905000	-2097.630000	9158.625000	-3150.405000	-131.556009	-162.824059	-145.207475	-134.846284	-128.982026	-101.878175	154.460851	-62.174613	-42.529620	18.052580	-15.458380	0.676146	0.801390	0.030212	-1.000000	-1.000000	-1.000000	-1.000000	-1.000000	-1.000000	-1.000000	76.482759	0.000000	-1.000000	-1.000000	1739927.000000	1770064976.561428
-2259.405000	-8945.865000	-551.970000	12942.405000	-1965.645000	-2005.245000	9023.310000	-3128.400000	-239.169714	-279.474097	-272.942805	-275.006592	-250.338421	-170.492207	283.960605	-132.366262	-42.529620	18.052580	-15.458380	0.676146	0.801390	0.030212	-1.000000	-1.000000	-1.000000	-1.000000	-1.000000	-1.000000	-1.000000	76.482759	0.000000	-1.000000	-1.000000	1739928.000000	1770064976.561439
-2162.115000	-8809.740000	-420.210000	13060.530000	-1852.245000	-1912.230000	8676.585000	-3030.075000	-232.812639	-261.948304	-265.234571	-277.355071	-245.979770	-152.333424	279.580046	-159.023967	-42.529620	18.052580	-15.458380	0.676146	0.801390	0.030212	-1.000000	-1.000000	-1.000000	-1.000000	-1.000000	-1.000000	-1.000000	76.482759	0.000000	-1.000000	-1.000000	1739929.000000	1770064976.565465
-1859.130000	-8434.395000	-51.255000	13422.285000	-1529.055000	-1671.210000	8484.930000	-2786.895000	-117.398761	-122.499647	-129.324557	-143.760061	-123.769737	-66.506529	114.312319	-113.629379	-42.529620	18.052580	-15.458380	0.676146	0.801390	0.030212	-1.000000	-1.000000	-1.000000	-1.000000	-1.000000	-1.000000	-1.000000	76.482759	0.000000	-1.000000	-1.000000	1739930.000000	1770064976.565472
-2095.560000	-8679.780000	-284.580000	13208.580000	-1715.265000	-1819.620000	8598.960000	-2701.620000	33.398278	50.596902	44.827467	34.929171	33.128246	29.203080	-122.788493	-18.177887	-79.168880	-6.058220	-29.894340	0.614378	0.754698	0.083862	-1.000000	-1.000000	-1.000000	-1.000000	-1.000000	-1.000000	-1.000000	76.482759	0.000000	-1.000000	-1.000000	1739931.000000	1770064976.569529
-2587.725000	-9195.750000	-800.055000	12704.265000	-2191.095000	-2198.655000	8724.600000	-3175.695000	134.354865	160.592319	157.049675	152.738713	133.987004	83.618008	-288.184165	71.380779	-79.168880	-6.058220	-29.894340	0.614378	0.754698	0.083862	-1.000000	-1.000000	-1.000000	-1.000000	-1.000000	-1.000000	-1.000000	76.482759	0.000000	-1.000000	-1.000000	1739932.000000	1770064976.569537
-2540.295000	-9125.190000	-739.395000	12761.775000	-2136.645000	-2112.480000	8832.510000	-3326.310000	143.814352	163.052930	160.741330	159.005707	137.949352	79.399600	-292.043093	108.538042	-79.168880	-6.058220	-29.894340	0.614378	0.754698	0.083862	-1.000000	-1.000000	-1.000000	-1.000000	-1.000000	-1.000000	-1.000000	76.482759	0.000000	-1.000000	-1.000000	1739933.000000	1770064976.573530
-2458.305000	-9023.895000	-615.915000	12892.725000	-1999.395000	-1947.195000	8662.635000	-3274.110000	93.405834	98.072276	95.901972	95.381260	82.519727	44.841450	-166.368286	88.525611	-79.168880	-6.058220	-29.894340	0.614378	0.754698	0.083862	-1.000000	-1.000000	-1.000000	-1.000000	-1.000000	-1.000000	-1.000000	76.482759	0.000000	-1.000000	-1.000000	1739934.000000	1770064976.573541
-2270.610000	-8783.955000	-333.315000	13124.655000	-1799.370000	-1820.565000	8430.795000	-3005.280000	57.216094	54.427461	53.544853	55.291271	49.463966	33.649043	-22.239877	46.592670	-79.168880	-6.058220	-29.894340	0.614378	0.754698	0.083862	-1.000000	-1.000000	-1.000000	-1.000000	-1.000000	-1.000000	-1.000000	76.482759	0.000000	-1.000000	-1.000000	1739935.000000	1770064976.577992
-2046.150000	-8520.390000	-106.605000	13378.770000	-1556.955000	-1613.430000	8729.190000	-2813.355000	82.097556	86.337204	88.811603	93.352181	87.066648	75.838743	68.746457	32.345441	-79.168880	-6.058220	-29.894340	0.614378	0.754698	0.083862	-1.000000	-1.000000	-1.000000	-1.000000	-1.000000	-1.000000	-1.000000	76.482759	0.000000	-1.000000	-1.000000	1739936.000000	1770064976.578004
-2132.100000	-8595.810000	-189.360000	13300.830000	-1630.395000	-1650.690000	9163.260000	-2922.300000	138.339786	155.779481	160.645793	168.033527	157.435799	139.090657	124.224711	61.117943	-79.168880	-6.058220	-29.894340	0.614378	0.754698	0.083862	-1.000000	-1.000000	-1.000000	-1.000000	-1.000000	-1.000000	-1.000000	76.482759	0.000000	-1.000000	-1.000000	1739937.000000	1770064976.590969
-2269.170000	-8741.745000	-320.715000	13168.755000	-1754.190000	-1717.380000	9016.245000	-2937.780000	139.989930	160.659831	164.209754	174.883661	163.931349	145.967991	178.146919	85.212134	-79.168880	-6.058220	-29.894340	0.614378	0.754698	0.083862	-1.000000	-1.000000	-1.000000	-1.000000	-1.000000	-1.000000	-1.000000	76.482759	0.000000	-1.000000	-1.000000	1739938.000000	1770064976.590979
-2475.450000	-8930.205000	-492.570000	12993.255000	-1923.030000	-1833.255000	8936.955000	-2958.030000	32.094542	37.882814	37.935039	50.666626	47.558521	49.610931	208.583413	47.301398	-79.168880	-6.058220	-29.894340	0.614378	0.754698	0.083862	-1.000000	-1.000000	-1.000000	-1.000000	-1.000000	-1.000000	-1.000000	76.482759	0.000000	-1.000000	-1.000000	1739939.000000	1770064976.590990
-2451.555000	-8890.245000	-470.115000	13042.620000	-1891.260000	-1830.015000	8628.435000	-3052.170000	-138.980096	-157.753669	-160.549706	-150.392678	-140.702921	-107.275743	162.299378	-48.862639	-79.168880	-6.058220	-29.894340	0.614378	0.754698	0.083862	-1.000000	-1.000000	-1.000000	-1.000000	-1.000000	-1.000000	-1.000000	76.482759	0.000000	-1.000000	-1.000000	1739940.000000	1770064976.590996
-2306.880000	-8700.615000	-258.030000	13249.305000	-1710.495000	-1706.130000	8410.005000	-2931.345000	-253.716121	-288.952869	-293.076660	-290.889485	-272.228505	-220.538909	23.996083	-134.170147	-27.300140	18.434080	5.920880	0.565978	0.734129	0.112793	-1.000000	-1.000000	-1.000000	-1.000000	-1.000000	-1.000000	-1.000000	76.482759	0.000000	-1.000000	-1.000000	1739941.000000	1770064976.591002
-2148.570000	-8490.195000	-25.380000	13439.655000	-1519.920000	-1513.935000	8599.230000	-2675.700000	-229.355924	-261.326591	-264.750834	-272.657966	-255.369583	-216.844491	-150.278688	-136.228750	-27.300140	18.434080	5.920880	0.565978	0.734129	0.112793	-1.000000	-1.000000	-1.000000	-1.000000	-1.000000	-1.000000	-1.000000	76.482759	0.000000	-1.000000	-1.000000	1739942.000000	1770064976.591007
-1960.920000	-8270.010000	166.185000	13644.270000	-1286.910000	-1222.335000	9085.905000	-2715.795000	-87.611442	-98.566433	-99.653591	-115.215816	-107.757704	-106.428322	-255.067274	-53.671237	-27.300140	18.434080	5.920880	0.565978	0.734129	0.112793	-1.000000	-1.000000	-1.000000	-1.000000	-1.000000	-1.000000	-1.000000	76.482759	0.000000	-1.000000	-1.000000	1739943.000000	1770064976.593506
-2105.370000	-8413.515000	13.185000	13511.520000	-1397.340000	-1301.535000	9436.005000	-2721.105000	78.312511	93.112109	92.801679	76.708300	74.392014	42.145405	-207.768714	42.581965	-27.300140	18.434080	5.920880	0.565978	0.734129	0.112793	-1.000000	-1.000000	-1.000000	-1.000000	-1.000000	-1.000000	-1.000000	76.482759	0.000000	-1.000000	-1.000000	1739944.000000	1770064976.593518
-2555.550000	-8898.525000	-454.815000	13022.235000	-1901.700000	-1802.205000	9056.475000	-2779.830000	165.623780	194.457965	192.357009	184.173114	179.005071	139.552094	-38.838183	83.230746	-27.300140	18.434080	5.920880	0.565978	0.734129	0.112793	-1.000000	-1.000000	-1.000000	-1.000000	-1.000000	-1.000000	-1.000000	76.482759	0.000000	-1.000000	-1.000000	1739945.000000	1770064976.607690
-2272.590000	-8526.420000	-66.825000	13404.150000	-1541.565000	-1496.880000	8748.090000	-2744.280000	128.278352	151.984662	149.412377	152.122401	149.648436	127.713084	112.874984	55.673519	-27.300140	18.434080	5.920880	0.565978	0.734129	0.112793	-1.000000	-1.000000	-1.000000	-1.000000	-1.000000	-1.000000	-1.000000	76.482759	0.000000	-1.000000	-1.000000	1739946.000000	1770064976.607704
-2132.820000	-8351.325000	125.910000	13600.125000	-1336.095000	-1269.900000	8419.275000	-2852.055000	20.255957	27.782645	28.564806	38.423155	38.355432	39.225867	136.196982	-7.068190	-27.300140	18.434080	5.920880	0.565978	0.734129	0.112793	-1.000000	-1.000000	-1.000000	-1.000000	-1.000000	-1.000000	-1.000000	76.482759	0.000000	-1.000000	-1.000000	1739947.000000	1770064976.607717
-2484.450000	-8713.395000	-230.895000	13248.630000	-1651.365000	-1491.705000	8563.725000	-2992.860000	-65.491781	-72.240105	-66.510472	-55.756505	-55.723545	-40.973267	47.381955	-65.449300	-27.300140	18.434080	5.920880	0.565978	0.734129	0.112793	-1.000000	-1.000000	-1.000000	-1.000000	-1.000000	-1.000000	-1.000000	76.482759	0.000000	-1.000000	-1.000000	1739948.000000	1770064976.607722
-2614.140000	-8873.280000	-406.800000	13067.685000	-1820.880000	-1616.940000	8970.480000	-2828.295000	-90.152646	-104.379884	-96.085002	-89.970361	-89.586110	-69.191574	-45.678209	-88.232051	-27.300140	18.434080	5.920880	0.565978	0.734129	0.112793	-1.000000	-1.000000	-1.000000	-1.000000	-1.000000	-1.000000	-1.000000	76.482759	0.000000	-1.000000	-1.000000	1739949.000000	1770064976.609299
-2713.005000	-9001.125000	-557.955000	12896.415000	-2003.805000	-1835.235000	9044.595000	-3165.795000	-72.435082	-90.126770	-84.629504	-85.743258	-83.295368	-61.273925	-50.804755	-62.874527	-27.300140	18.434080	5.920880	0.565978	0.734129	0.112793	-1.000000	-1.000000	-1.000000	-1.000000	-1.000000	-1.000000	-1.000000	76.482759	0.000000	-1.000000	-1.000000	1739950.000000	1770064976.609320
-2898.090000	-9180.270000	-731.610000	12727.980000	-2149.605000	-1920.330000	8822.655000	-3321.405000	-44.783421	-64.639560	-67.012887	-73.355177	-69.467019	-51.580416	18.417969	-17.422285	-32.702180	16.557100	3.448760	0.609007	0.734556	0.121765	-1.000000	-1.000000	-1.000000	-1.000000	-1.000000	-1.000000	-1.000000	76.482759	0.000000	-1.000000	-1.000000	1739951.000000	1770064976.609760
-2784.465000	-9032.895000	-578.430000	12882.330000	-1992.285000	-1772.235000	8787.915000	-3173.040000	-23.644123	-41.969359	-52.214586	-58.617782	-56.695703	-50.843656	68.063952	11.587142	-32.702180	16.557100	3.448760	0.609007	0.734556	0.121765	-1.000000	-1.000000	-1.000000	-1.000000	-1.000000	-1.000000	-1.000000	76.482759	0.000000	-1.000000	-1.000000	1739952.000000	1770064976.609770
