Channel1	Channel2	Channel3	Channel4	Channel5	Channel6	Channel7	Channel8	FilteredChannel1	FilteredChannel2	FilteredChannel3	FilteredChannel4	FilteredChannel5	FilteredChannel6	FilteredChannel7	FilteredChannel8	GyroX	GyroY	GyroZ	AccX	AccY	AccZ	PPG1	PPG2	rawPPG1	rawPPG2	rawPPG3	Hr	Hrv	Battery	Trigger	PhysicalTrigger	AutoTrigger	NumMeasurements	Timestamp
10737.180000	-15026.220000	750.600000	18533.925000	8518.095000	-42522.165000	-29937.330000	-23628.825000	3.636469	-5.378669	-0.987105	-0.986974	-0.727489	-0.895432	4.530462	18.275688	-4.364360	4.867940	-0.839300	0.822691	-0.071289	0.534606	-1.000000	-1.000000	-1.000000	-1.000000	-1.000000	-1.000000	-1.000000	78.413793	0.000000	-1.000000	-1.000000	1133001.000000	1774906200.814095
10685.565000	-15076.710000	701.595000	18485.415000	8472.150000	-42565.590000	-29954.790000	-23674.005000	-16.250808	-13.572451	-5.903405	-5.286240	-5.053052	-5.488867	-0.754006	6.415568	-4.364360	4.867940	-0.839300	0.822691	-0.071289	0.534606	-1.000000	-1.000000	-1.000000	-1.000000	-1.000000	-1.000000	-1.000000	78.413793	0.000000	-1.000000	-1.000000	1133002.000000	1774906200.814105
10720.485000	-15035.715000	740.520000	18525.690000	8513.055000	-42525.405000	-29926.755000	-23653.305000	-33.030013	-20.252680	-12.868659	-11.999973	-11.576255	-11.735433	-8.839601	-13.422284	-4.364360	4.867940	-0.839300	0.822691	-0.071289	0.534606	-1.000000	-1.000000	-1.000000	-1.000000	-1.000000	-1.000000	-1.000000	78.413793	0.000000	-1.000000	-1.000000	1133003.000000	1774906200.817773
10750.230000	-14991.255000	776.520000	18559.485000	8542.530000	-42499.440000	-29906.640000	-23619.780000	-35.509810	-19.252267	-14.956732	-13.704071	-12.762198	-12.273698	-11.471149	-26.990101	-4.364360	4.867940	-0.839300	0.822691	-0.071289	0.534606	-1.000000	-1.000000	-1.000000	-1.000000	-1.000000	-1.000000	-1.000000	78.413793	0.000000	-1.000000	-1.000000	1133004.000000	1774906200.817870
10790.505000	-14939.595000	831.375000	18613.395000	8596.935000	-42446.520000	-29855.790000	-23567.130000	-19.972473	-6.392785	-6.060784	-4.334195	-3.135383	-2.356417	-4.079163	-22.811204	-4.364360	4.867940	-0.839300	0.822691	-0.071289	0.534606	-1.000000	-1.000000	-1.000000	-1.000000	-1.000000	-1.000000	-1.000000	78.413793	0.000000	-1.000000	-1.000000	1133005.000000	1774906200.822030
10807.155000	-14932.890000	836.685000	18615.330000	8597.340000	-42446.160000	-29863.350000	-23568.480000	6.228446	14.433453	11.679528	13.428894	14.207289	14.576294	9.792570	-2.222963	-4.364360	4.867940	-0.839300	0.822691	-0.071289	0.534606	-1.000000	-1.000000	-1.000000	-1.000000	-1.000000	-1.000000	-1.000000	78.413793	0.000000	-1.000000	-1.000000	1133006.000000	1774906200.822044
10796.760000	-14964.120000	808.380000	18588.195000	8572.680000	-42469.695000	-29887.785000	-23581.935000	29.660036	31.976273	27.704057	28.617584	28.532317	28.202405	20.247220	20.571000	-4.364360	4.867940	-0.839300	0.822691	-0.071289	0.534606	-1.000000	-1.000000	-1.000000	-1.000000	-1.000000	-1.000000	-1.000000	78.413793	0.000000	-1.000000	-1.000000	1133007.000000	1774906200.825846
10824.390000	-14937.615000	836.145000	18621.225000	8610.390000	-42432.030000	-29870.505000	-23536.845000	38.815677	34.934595	30.566099	30.176442	29.480557	28.825034	18.991398	30.496894	-4.364360	4.867940	-0.839300	0.822691	-0.071289	0.534606	-1.000000	-1.000000	-1.000000	-1.000000	-1.000000	-1.000000	-1.000000	78.413793	0.000000	-1.000000	-1.000000	1133008.000000	1774906200.825856
10822.455000	-14929.020000	852.795000	18642.105000	8634.645000	-42406.875000	-29859.705000	-23566.455000	32.013358	22.591500	19.170691	17.952330	17.415344	17.026617	8.098021	24.784528	-4.364360	4.867940	-0.839300	0.822691	-0.071289	0.534606	-1.000000	-1.000000	-1.000000	-1.000000	-1.000000	-1.000000	-1.000000	78.413793	0.000000	-1.000000	-1.000000	1133009.000000	1774906200.836843
10753.785000	-14984.190000	802.530000	18592.695000	8582.535000	-42459.030000	-29894.985000	-23642.370000	16.454574	4.674395	2.834185	1.781646	1.941554	2.080551	-3.105399	10.464175	-4.364360	4.867940	-0.839300	0.822691	-0.071289	0.534606	-1.000000	-1.000000	-1.000000	-1.000000	-1.000000	-1.000000	-1.000000	78.413793	0.000000	-1.000000	-1.000000	1133010.000000	1774906200.836854
10680.840000	-15061.185000	720.720000	18507.735000	8496.810000	-42542.595000	-29938.905000	-23686.695000	-1.608217	-11.278400	-11.365619	-11.636697	-11.006919	-10.502917	-9.710662	-6.240359	-2.960440	4.043900	-1.236060	0.823728	-0.072815	0.535460	-1.000000	-1.000000	-1.000000	-1.000000	-1.000000	-1.000000	-1.000000	78.413793	0.000000	-1.000000	-1.000000	1133011.000000	1774906200.836868
10700.640000	-15044.850000	727.110000	18508.995000	8496.270000	-42544.575000	-29935.440000	-23664.780000	-19.612151	-24.537689	-23.315154	-23.071602	-22.696690	-22.133742	-13.612186	-21.035359	-2.960440	4.043900	-1.236060	0.823728	-0.072815	0.535460	-1.000000	-1.000000	-1.000000	-1.000000	-1.000000	-1.000000	-1.000000	78.413793	0.000000	-1.000000	-1.000000	1133012.000000	1774906200.836874
10734.120000	-15012.630000	756.090000	18535.905000	8522.370000	-42520.590000	-29931.390000	-23646.240000	-32.601810	-33.297772	-31.659868	-31.684765	-32.054629	-31.669745	-16.249310	-28.429896	-2.960440	4.043900	-1.236060	0.823728	-0.072815	0.535460	-1.000000	-1.000000	-1.000000	-1.000000	-1.000000	-1.000000	-1.000000	78.413793	0.000000	-1.000000	-1.000000	1133013.000000	1774906200.837778
10745.280000	-14996.700000	780.795000	18564.300000	8551.260000	-42494.040000	-29918.745000	-23635.890000	-33.639600	-32.070920	-30.681493	-31.377298	-32.369008	-32.341678	-15.774959	-24.571997	-2.960440	4.043900	-1.236060	0.823728	-0.072815	0.535460	-1.000000	-1.000000	-1.000000	-1.000000	-1.000000	-1.000000	-1.000000	78.413793	0.000000	-1.000000	-1.000000	1133014.000000	1774906200.837787
10743.345000	-14998.635000	780.480000	18566.730000	8553.735000	-42492.195000	-29903.895000	-23628.870000	-21.174009	-18.274775	-17.143582	-18.062244	-19.149953	-19.604124	-9.805646	-10.961319	-2.960440	4.043900	-1.236060	0.823728	-0.072815	0.535460	-1.000000	-1.000000	-1.000000	-1.000000	-1.000000	-1.000000	-1.000000	78.413793	0.000000	-1.000000	-1.000000	1133015.000000	1774906200.845547
10752.255000	-15006.510000	766.260000	18551.565000	8540.370000	-42502.995000	-29894.355000	-23617.485000	-1.298897	3.183339	4.199966	3.838292	3.167498	2.338129	1.621249	6.207309	-2.960440	4.043900	-1.236060	0.823728	-0.072815	0.535460	-1.000000	-1.000000	-1.000000	-1.000000	-1.000000	-1.000000	-1.000000	78.413793	0.000000	-1.000000	-1.000000	1133016.000000	1774906200.845558
10752.660000	-15008.940000	765.045000	18550.800000	8540.820000	-42501.330000	-29897.505000	-23614.785000	16.692370	22.125484	22.625346	23.008668	22.935281	22.166458	14.103800	19.341627	-2.960440	4.043900	-1.236060	0.823728	-0.072815	0.535460	-1.000000	-1.000000	-1.000000	-1.000000	-1.000000	-1.000000	-1.000000	78.413793	0.000000	-1.000000	-1.000000	1133017.000000	1774906200.849032
10760.130000	-15000.795000	772.740000	18555.840000	8544.195000	-42498.630000	-29905.470000	-23613.705000	26.614528	30.731122	29.999876	30.527597	30.850942	30.608426	21.342432	24.534021	-2.960440	4.043900	-1.236060	0.823728	-0.072815	0.535460	-1.000000	-1.000000	-1.000000	-1.000000	-1.000000	-1.000000	-1.000000	78.413793	0.000000	-1.000000	-1.000000	1133018.000000	1774906200.849044
10774.395000	-14986.395000	786.735000	18568.035000	8553.420000	-42492.420000	-29902.005000	-23606.370000	28.836750	29.457699	27.339536	27.296892	27.666407	27.985704	20.688208	23.694205	-2.960440	4.043900	-1.236060	0.823728	-0.072815	0.535460	-1.000000	-1.000000	-1.000000	-1.000000	-1.000000	-1.000000	-1.000000	78.413793	0.000000	-1.000000	-1.000000	1133019.000000	1774906200.851273
10766.385000	-14983.470000	789.480000	18568.845000	8551.710000	-42497.370000	-29901.105000	-23605.740000	26.132147	23.219583	20.689711	19.964112	20.124196	20.525155	14.212414	19.500697	-2.960440	4.043900	-1.236060	0.823728	-0.072815	0.535460	-1.000000	-1.000000	-1.000000	-1.000000	-1.000000	-1.000000	-1.000000	78.413793	0.000000	-1.000000	-1.000000	1133020.000000	1774906200.851285
10748.160000	-15002.550000	771.525000	18555.210000	8545.230000	-42496.290000	-29890.485000	-23611.140000	17.242165	13.192941	12.067260	11.339505	11.369091	11.436460	5.011462	10.825395	-3.738700	2.670500	-0.900340	0.823850	-0.074524	0.536986	-1.000000	-1.000000	-1.000000	-1.000000	-1.000000	-1.000000	-1.000000	78.413793	0.000000	-1.000000	-1.000000	1133021.000000	1774906200.853776
10744.245000	-15002.145000	780.660000	18567.045000	8560.395000	-42479.595000	-29893.275000	-23620.635000	-0.287018	-2.590571	-0.881049	-0.600949	-0.165300	-0.123364	-4.901536	-3.890272	-3.738700	2.670500	-0.900340	0.823850	-0.074524	0.536986	-1.000000	-1.000000	-1.000000	-1.000000	-1.000000	-1.000000	-1.000000	78.413793	0.000000	-1.000000	-1.000000	1133022.000000	1774906200.853787
10754.910000	-14986.080000	800.145000	18585.585000	8576.370000	-42468.165000	-29896.290000	-23631.480000	-21.753010	-20.933093	-16.615592	-14.942583	-13.661520	-13.027555	-13.711644	-21.075679	-3.738700	2.670500	-0.900340	0.823850	-0.074524	0.536986	-1.000000	-1.000000	-1.000000	-1.000000	-1.000000	-1.000000	-1.000000	78.413793	0.000000	-1.000000	-1.000000	1133023.000000	1774906200.857691
10752.075000	-14977.305000	806.355000	18593.370000	8584.380000	-42460.875000	-29889.630000	-23644.080000	-36.037067	-32.250422	-27.310113	-25.003026	-23.272427	-22.122410	-18.927673	-33.011317	-3.738700	2.670500	-0.900340	0.823850	-0.074524	0.536986	-1.000000	-1.000000	-1.000000	-1.000000	-1.000000	-1.000000	-1.000000	78.413793	0.000000	-1.000000	-1.000000	1133024.000000	1774906200.857702
10754.280000	-14976.270000	797.625000	18584.370000	8576.775000	-42466.905000	-29888.190000	-23631.480000	-35.369620	-29.568409	-26.625418	-24.995015	-23.851586	-22.986243	-18.313519	-33.589616	-3.738700	2.670500	-0.900340	0.823850	-0.074524	0.536986	-1.000000	-1.000000	-1.000000	-1.000000	-1.000000	-1.000000	-1.000000	78.413793	0.000000	-1.000000	-1.000000	1133025.000000	1774906200.861830
10760.445000	-14972.625000	799.155000	18585.045000	8576.055000	-42468.930000	-29888.055000	-23622.930000	-20.823739	-14.945566	-15.880635	-15.837494	-16.103126	-16.224330	-11.688216	-21.614960	-3.738700	2.670500	-0.900340	0.823850	-0.074524	0.536986	-1.000000	-1.000000	-1.000000	-1.000000	-1.000000	-1.000000	-1.000000	78.413793	0.000000	-1.000000	-1.000000	1133026.000000	1774906200.861840
10791.855000	-14938.650000	838.395000	18623.385000	8613.585000	-42434.415000	-29864.340000	-23585.940000	0.774975	3.832268	-0.963100	-2.524938	-4.204215	-5.390598	-1.024930	-0.545488	-3.738700	2.670500	-0.900340	0.823850	-0.074524	0.536986	-1.000000	-1.000000	-1.000000	-1.000000	-1.000000	-1.000000	-1.000000	78.413793	0.000000	-1.000000	-1.000000	1133027.000000	1774906200.873982
10823.490000	-14935.725000	837.360000	18618.840000	8608.635000	-42437.700000	-29862.855000	-23548.410000	21.517969	19.166852	12.741127	10.364738	8.102117	6.392042	10.311662	22.497048	-3.738700	2.670500	-0.900340	0.823850	-0.074524	0.536986	-1.000000	-1.000000	-1.000000	-1.000000	-1.000000	-1.000000	-1.000000	78.413793	0.000000	-1.000000	-1.000000	1133028.000000	1774906200.873992
10822.410000	-14931.090000	845.505000	18627.570000	8618.130000	-42427.350000	-29866.905000	-23521.545000	34.075093	25.534825	20.663083	18.542157	16.818389	15.467157	17.566623	38.397766	-3.738700	2.670500	-0.900340	0.823850	-0.074524	0.536986	-1.000000	-1.000000	-1.000000	-1.000000	-1.000000	-1.000000	-1.000000	78.413793	0.000000	-1.000000	-1.000000	1133029.000000	1774906200.874004
10823.805000	-14917.680000	854.145000	18634.545000	8623.395000	-42424.920000	-29873.070000	-23536.620000	33.049489	20.833692	19.669844	18.545011	17.970192	17.573171	16.545437	39.471101	-3.738700	2.670500	-0.900340	0.823850	-0.074524	0.536986	-1.000000	-1.000000	-1.000000	-1.000000	-1.000000	-1.000000	-1.000000	78.413793	0.000000	-1.000000	-1.000000	1133030.000000	1774906200.874010
10820.070000	-14923.755000	845.730000	18626.040000	8614.755000	-42435.180000	-29872.845000	-23568.795000	18.337340	7.917709	10.235747	10.192703	10.525410	10.936546	7.461242	23.626710	-3.906560	6.058220	-0.991900	0.825315	-0.075134	0.536376	-1.000000	-1.000000	-1.000000	-1.000000	-1.000000	-1.000000	-1.000000	78.413793	0.000000	-1.000000	-1.000000	1133031.000000	1774906200.876794
10764.135000	-14967.270000	799.200000	18581.760000	8572.320000	-42475.095000	-29892.330000	-23601.375000	-4.149058	-7.768943	-4.200049	-3.530188	-2.854186	-2.097884	-4.705295	-3.277782	-3.906560	6.058220	-0.991900	0.825315	-0.075134	0.536376	-1.000000	-1.000000	-1.000000	-1.000000	-1.000000	-1.000000	-1.000000	78.413793	0.000000	-1.000000	-1.000000	1133032.000000	1774906200.876804
10786.905000	-14945.355000	825.075000	18609.075000	8600.310000	-42447.690000	-29856.150000	-23550.750000	-25.246352	-20.592326	-17.925249	-16.905870	-16.170929	-15.293566	-13.580786	-28.620207	-3.906560	6.058220	-0.991900	0.825315	-0.075134	0.536376	-1.000000	-1.000000	-1.000000	-1.000000	-1.000000	-1.000000	-1.000000	78.413793	0.000000	-1.000000	-1.000000	1133033.000000	1774906200.878891
10819.125000	-14926.005000	845.415000	18627.210000	8617.050000	-42430.725000	-29838.780000	-23548.410000	-34.904990	-24.588613	-23.238121	-22.111538	-21.396211	-20.508811	-14.306022	-39.318575	-3.906560	6.058220	-0.991900	0.825315	-0.075134	0.536376	-1.000000	-1.000000	-1.000000	-1.000000	-1.000000	-1.000000	-1.000000	78.413793	0.000000	-1.000000	-1.000000	1133034.000000	1774906200.878900
10767.105000	-14991.795000	777.420000	18560.565000	8553.555000	-42489.810000	-29879.865000	-23623.065000	-28.351393	-17.808138	-16.970989	-15.973265	-15.345964	-14.580101	-7.121091	-32.213547	-3.906560	6.058220	-0.991900	0.825315	-0.075134	0.536376	-1.000000	-1.000000	-1.000000	-1.000000	-1.000000	-1.000000	-1.000000	78.413793	0.000000	-1.000000	-1.000000	1133035.000000	1774906200.899618
10707.840000	-15066.315000	701.505000	18480.870000	8471.835000	-42575.445000	-29959.200000	-23684.445000	-12.616627	-7.213783	-6.404817	-5.719665	-5.155809	-4.527205	0.486491	-17.283095	-3.906560	6.058220	-0.991900	0.825315	-0.075134	0.536376	-1.000000	-1.000000	-1.000000	-1.000000	-1.000000	-1.000000	-1.000000	78.413793	0.000000	-1.000000	-1.000000	1133036.000000	1774906200.899632
10704.510000	-15075.990000	694.755000	18470.655000	8459.955000	-42589.710000	-29977.920000	-23682.960000	0.272087	-1.498795	-0.917751	-0.653155	-0.143821	0.234882	0.653330	-6.273188	-3.906560	6.058220	-0.991900	0.825315	-0.075134	0.536376	-1.000000	-1.000000	-1.000000	-1.000000	-1.000000	-1.000000	-1.000000	78.413793	0.000000	-1.000000	-1.000000	1133037.000000	1774906200.899644
10716.660000	-15053.355000	717.705000	18498.825000	8493.795000	-42549.705000	-29940.840000	-23657.490000	6.189327	-0.465081	-0.331184	-0.501500	-0.181285	-0.337988	-4.886336	-0.679727	-3.906560	6.058220	-0.991900	0.825315	-0.075134	0.536376	-1.000000	-1.000000	-1.000000	-1.000000	-1.000000	-1.000000	-1.000000	78.413793	0.000000	-1.000000	-1.000000	1133038.000000	1774906200.899649
10732.770000	-15030.090000	738.810000	18518.490000	8512.110000	-42531.795000	-29925.045000	-23635.845000	9.424548	2.588357	2.289263	1.898483	1.957988	1.309483	-6.737388	6.144839	-3.906560	6.058220	-0.991900	0.825315	-0.075134	0.536376	-1.000000	-1.000000	-1.000000	-1.000000	-1.000000	-1.000000	-1.000000	78.413793	0.000000	-1.000000	-1.000000	1133039.000000	1774906200.899655
10737.135000	-15019.245000	749.655000	18530.145000	8524.395000	-42521.265000	-29921.265000	-23641.560000	14.198607	11.355599	10.666610	10.351448	10.199951	9.502772	0.486337	18.266405	-3.906560	6.058220	-0.991900	0.825315	-0.075134	0.536376	-1.000000	-1.000000	-1.000000	-1.000000	-1.000000	-1.000000	-1.000000	78.413793	0.000000	-1.000000	-1.000000	1133040.000000	1774906200.899661
10744.110000	-15010.515000	757.935000	18537.705000	8530.470000	-42517.080000	-29920.320000	-23641.380000	20.225537	22.773217	21.768743	21.575147	21.195208	20.708126	12.602817	31.060772	0.213640	5.844580	-1.281840	0.828428	-0.074402	0.534178	-1.000000	-1.000000	-1.000000	-1.000000	-1.000000	-1.000000	-1.000000	78.413793	0.000000	-1.000000	-1.000000	1133041.000000	1774906200.899666
10745.370000	-15005.880000	766.890000	18546.165000	8539.920000	-42506.415000	-29906.055000	-23623.695000	23.169756	29.431097	28.373051	28.109751	27.423313	27.010446	20.718993	35.130297	0.213640	5.844580	-1.281840	0.828428	-0.074402	0.534178	-1.000000	-1.000000	-1.000000	-1.000000	-1.000000	-1.000000	-1.000000	78.413793	0.000000	-1.000000	-1.000000	1133042.000000	1774906200.899671
10726.380000	-15001.695000	776.295000	18556.605000	8550.180000	-42498.270000	-29899.080000	-23611.770000	18.173035	25.457310	24.827662	24.388763	23.471703	22.932290	19.377509	26.223042	0.213640	5.844580	-1.281840	0.828428	-0.074402	0.534178	-1.000000	-1.000000	-1.000000	-1.000000	-1.000000	-1.000000	-1.000000	78.413793	0.000000	-1.000000	-1.000000	1133043.000000	1774906200.899677
10735.020000	-14988.690000	789.930000	18571.095000	8564.670000	-42482.790000	-29895.570000	-23621.040000	5.955082	12.680482	12.943475	12.528486	11.671401	10.994505	10.877840	9.859273	0.213640	5.844580	-1.281840	0.828428	-0.074402	0.534178	-1.000000	-1.000000	-1.000000	-1.000000	-1.000000	-1.000000	-1.000000	78.413793	0.000000	-1.000000	-1.000000	1133044.000000	1774906200.899682
10766.655000	-14976.945000	794.070000	18574.065000	8569.845000	-42476.445000	-29901.735000	-23624.685000	-6.033114	-0.808088	0.229616	0.230312	-0.185724	-0.708637	1.957222	-5.276156	0.213640	5.844580	-1.281840	0.828428	-0.074402	0.534178	-1.000000	-1.000000	-1.000000	-1.000000	-1.000000	-1.000000	-1.000000	78.413793	0.000000	-1.000000	-1.000000	1133045.000000	1774906200.915657
10779.660000	-14983.695000	781.380000	18559.530000	8555.310000	-42493.680000	-29911.005000	-23638.815000	-11.096087	-9.509127	-8.718546	-8.115189	-7.812329	-7.765992	-3.696638	-15.517251	0.213640	5.844580	-1.281840	0.828428	-0.074402	0.534178	-1.000000	-1.000000	-1.000000	-1.000000	-1.000000	-1.000000	-1.000000	78.413793	0.000000	-1.000000	-1.000000	1133046.000000	1774906200.915670
10776.555000	-14992.785000	780.660000	18562.545000	8557.830000	-42491.250000	-29909.430000	-23638.410000	-9.846785	-14.859711	-15.394822	-14.496037	-13.617310	-13.006042	-7.942899	-21.911083	0.213640	5.844580	-1.281840	0.828428	-0.074402	0.534178	-1.000000	-1.000000	-1.000000	-1.000000	-1.000000	-1.000000	-1.000000	78.413793	0.000000	-1.000000	-1.000000	1133047.000000	1774906200.915684
10785.960000	-14979.690000	794.205000	18576.495000	8569.530000	-42482.790000	-29902.005000	-23619.870000	-7.523651	-19.770580	-21.444193	-20.766250	-19.902668	-19.218397	-12.825854	-24.535978	0.213640	5.844580	-1.281840	0.828428	-0.074402	0.534178	-1.000000	-1.000000	-1.000000	-1.000000	-1.000000	-1.000000	-1.000000	78.413793	0.000000	-1.000000	-1.000000	1133048.000000	1774906200.915689
10794.960000	-14965.740000	793.125000	18591.120000	8589.960000	-42461.505000	-29885.220000	-23588.955000	-7.019349	-22.634985	-24.333317	-23.966087	-23.612358	-23.276004	-16.152016	-20.552875	0.213640	5.844580	-1.281840	0.828428	-0.074402	0.534178	-1.000000	-1.000000	-1.000000	-1.000000	-1.000000	-1.000000	-1.000000	78.413793	0.000000	-1.000000	-1.000000	1133049.000000	1774906200.915695
10873.530000	-14877.495000	819.135000	18648.765000	8667.225000	-42378.840000	-29822.895000	-23510.790000	-6.353758	-18.611678	-20.589404	-19.619839	-19.446665	-19.372725	-13.773808	-8.250080	0.213640	5.844580	-1.281840	0.828428	-0.074402	0.534178	-1.000000	-1.000000	-1.000000	-1.000000	-1.000000	-1.000000	-1.000000	78.413793	0.000000	-1.000000	-1.000000	1133050.000000	1774906200.915700
10887.030000	-14842.800000	811.845000	18661.365000	8696.520000	-42346.170000	-29803.770000	-23526.225000	-2.238212	-5.334902	-10.409573	-7.187678	-5.910403	-5.569967	-4.486905	8.346491	-0.763000	8.560860	-1.129240	0.829527	-0.071289	0.531004	-1.000000	-1.000000	-1.000000	-1.000000	-1.000000	-1.000000	-1.000000	78.413793	0.000000	-1.000000	-1.000000	1133051.000000	1774906200.915706
10799.055000	-14914.620000	757.755000	18590.670000	8615.745000	-42427.530000	-29874.870000	-23618.205000	3.553343	11.381123	1.308862	7.003230	10.220140	11.231731	6.533357	19.107341	-0.763000	8.560860	-1.129240	0.829527	-0.071289	0.531004	-1.000000	-1.000000	-1.000000	-1.000000	-1.000000	-1.000000	-1.000000	78.413793	0.000000	-1.000000	-1.000000	1133052.000000	1774906200.915710
10705.905000	-15022.980000	738.810000	18511.605000	8507.205000	-42539.445000	-29945.655000	-23654.115000	2.979830	18.429936	8.335875	12.703075	16.146866	17.522283	10.130234	15.178240	-0.763000	8.560860	-1.129240	0.829527	-0.071289	0.531004	-1.000000	-1.000000	-1.000000	-1.000000	-1.000000	-1.000000	-1.000000	78.413793	0.000000	-1.000000	-1.000000	1133053.000000	1774906200.917925
10782.180000	-14976.495000	848.790000	18583.560000	8569.080000	-42479.235000	-29892.330000	-23565.645000	-7.487032	8.584877	10.258190	6.585931	6.346875	7.167936	3.379571	0.116252	-0.763000	8.560860	-1.129240	0.829527	-0.071289	0.531004	-1.000000	-1.000000	-1.000000	-1.000000	-1.000000	-1.000000	-1.000000	78.413793	0.000000	-1.000000	-1.000000	1133054.000000	1774906200.917936
10848.510000	-14915.340000	926.955000	18655.740000	8631.900000	-42420.780000	-29834.190000	-23526.540000	-17.524375	-8.191034	13.857297	-1.471616	-7.947881	-8.498835	-4.936862	-11.193711	-0.763000	8.560860	-1.129240	0.829527	-0.071289	0.531004	-1.000000	-1.000000	-1.000000	-1.000000	-1.000000	-1.000000	-1.000000	78.413793	0.000000	-1.000000	-1.000000	1133055.000000	1774906200.932429
10800.675000	-14962.680000	850.095000	18607.635000	8590.545000	-42463.800000	-29862.630000	-23606.280000	-14.717332	-15.838296	21.048470	-0.954115	-11.870264	-13.895812	-5.188090	-9.992365	-0.763000	8.560860	-1.129240	0.829527	-0.071289	0.531004	-1.000000	-1.000000	-1.000000	-1.000000	-1.000000	-1.000000	-1.000000	78.413793	0.000000	-1.000000	-1.000000	1133056.000000	1774906200.932442
10678.320000	-15084.090000	703.665000	18485.820000	8480.880000	-42569.595000	-29935.305000	-23701.320000	-2.468627	-12.276998	20.455278	3.891251	-5.865427	-8.535243	0.364043	-4.095216	-0.763000	8.560860	-1.129240	0.829527	-0.071289	0.531004	-1.000000	-1.000000	-1.000000	-1.000000	-1.000000	-1.000000	-1.000000	78.413793	0.000000	-1.000000	-1.000000	1133057.000000	1774906200.932456
10650.555000	-15092.820000	687.645000	18467.730000	8470.485000	-42578.145000	-29943.180000	-23710.770000	4.756380	-8.015757	1.565083	1.036079	-1.809746	-3.721497	2.015329	-5.541467	-0.763000	8.560860	-1.129240	0.829527	-0.071289	0.531004	-1.000000	-1.000000	-1.000000	-1.000000	-1.000000	-1.000000	-1.000000	78.413793	0.000000	-1.000000	-1.000000	1133058.000000	1774906200.932462
10769.130000	-14971.860000	810.990000	18582.660000	8580.240000	-42472.125000	-29876.895000	-23616.495000	1.982603	-7.397035	-25.702410	-9.661420	-3.957776	-4.193009	-3.214038	-13.341268	-0.763000	8.560860	-1.129240	0.829527	-0.071289	0.531004	-1.000000	-1.000000	-1.000000	-1.000000	-1.000000	-1.000000	-1.000000	78.413793	0.000000	-1.000000	-1.000000	1133059.000000	1774906200.932468
10832.850000	-14917.095000	880.245000	18646.785000	8635.095000	-42419.880000	-29851.965000	-23591.610000	0.675117	-2.127735	-36.498122	-13.481995	-2.993961	-1.889182	-7.430050	-13.765078	-0.763000	8.560860	-1.129240	0.829527	-0.071289	0.531004	-1.000000	-1.000000	-1.000000	-1.000000	-1.000000	-1.000000	-1.000000	78.413793	0.000000	-1.000000	-1.000000	1133060.000000	1774906200.932472
10807.920000	-14928.930000	872.010000	18635.175000	8609.085000	-42449.085000	-29893.005000	-23650.740000	12.438194	14.918244	-17.900667	0.662702	9.922035	11.252435	-2.188751	1.940460	-3.158820	8.011500	-0.289940	0.825193	-0.068481	0.534606	-1.000000	-1.000000	-1.000000	-1.000000	-1.000000	-1.000000	-1.000000	78.413793	0.000000	-1.000000	-1.000000	1133061.000000	1774906200.943993
10750.005000	-15004.350000	781.920000	18542.835000	8521.200000	-42532.425000	-29942.055000	-23659.020000	31.068561	36.012328	14.993307	24.017203	28.419274	29.221396	10.081742	24.430059	-3.158820	8.011500	-0.289940	0.825193	-0.068481	0.534606	-1.000000	-1.000000	-1.000000	-1.000000	-1.000000	-1.000000	-1.000000	78.413793	0.000000	-1.000000	-1.000000	1133062.000000	1774906200.944006
10721.700000	-15040.170000	727.245000	18481.995000	8472.240000	-42579.090000	-29943.900000	-23638.995000	36.605805	42.327194	32.045877	33.609024	33.882645	34.368972	17.545027	35.408183	-3.158820	8.011500	-0.289940	0.825193	-0.068481	0.534606	-1.000000	-1.000000	-1.000000	-1.000000	-1.000000	-1.000000	-1.000000	78.413793	0.000000	-1.000000	-1.000000	1133063.000000	1774906200.944019
10728.675000	-15029.100000	728.370000	18488.070000	8490.060000	-42555.375000	-29910.150000	-23618.070000	17.726013	23.272057	18.145837	16.219708	15.693545	16.668163	12.468538	26.972110	-3.158820	8.011500	-0.289940	0.825193	-0.068481	0.534606	-1.000000	-1.000000	-1.000000	-1.000000	-1.000000	-1.000000	-1.000000	78.413793	0.000000	-1.000000	-1.000000	1133064.000000	1774906200.944024
10731.105000	-15032.520000	735.930000	18506.160000	8511.075000	-42533.955000	-29907.630000	-23619.870000	-13.645685	-9.436989	-10.958300	-14.864922	-13.707196	-11.750999	0.381699	8.162063	-3.158820	8.011500	-0.289940	0.825193	-0.068481	0.534606	-1.000000	-1.000000	-1.000000	-1.000000	-1.000000	-1.000000	-1.000000	78.413793	0.000000	-1.000000	-1.000000	1133065.000000	1774906200.944030
10738.395000	-15023.520000	765.180000	18548.955000	8552.655000	-42497.055000	-29896.470000	-23616.225000	-33.599879	-32.143019	-25.861230	-32.300481	-30.061637	-27.712478	-7.073677	-6.405695	-3.158820	8.011500	-0.289940	0.825193	-0.068481	0.534606	-1.000000	-1.000000	-1.000000	-1.000000	-1.000000	-1.000000	-1.000000	78.413793	0.000000	-1.000000	-1.000000	1133066.000000	1774906200.944035
10742.580000	-15025.860000	771.885000	18570.420000	8571.600000	-42482.115000	-29881.755000	-23609.340000	-30.588154	-32.958390	-14.356045	-23.014437	-22.634924	-21.470695	-5.530192	-11.471189	-3.158820	8.011500	-0.289940	0.825193	-0.068481	0.534606	-1.000000	-1.000000	-1.000000	-1.000000	-1.000000	-1.000000	-1.000000	78.413793	0.000000	-1.000000	-1.000000	1133067.000000	1774906200.945845
10765.575000	-15006.645000	784.485000	18582.975000	8587.260000	-42464.520000	-29863.980000	-23613.705000	-14.192866	-20.242351	8.911028	0.475938	-3.291501	-4.574473	-0.645696	-12.804796	-3.158820	8.011500	-0.289940	0.825193	-0.068481	0.534606	-1.000000	-1.000000	-1.000000	-1.000000	-1.000000	-1.000000	-1.000000	78.413793	0.000000	-1.000000	-1.000000	1133068.000000	1774906200.945856
10778.040000	-14985.225000	799.875000	18590.580000	8593.335000	-42459.165000	-29870.190000	-23627.070000	0.361222	-7.361424	22.498850	17.140640	10.049180	6.666775	1.188849	-15.473247	-3.158820	8.011500	-0.289940	0.825193	-0.068481	0.534606	-1.000000	-1.000000	-1.000000	-1.000000	-1.000000	-1.000000	-1.000000	78.413793	0.000000	-1.000000	-1.000000	1133069.000000	1774906200.951061
10791.045000	-14988.555000	782.280000	18555.930000	8552.070000	-42502.230000	-29899.575000	-23609.520000	8.451854	2.337177	19.759147	18.582532	11.676887	7.901875	0.013026	-16.221648	-3.158820	8.011500	-0.289940	0.825193	-0.068481	0.534606	-1.000000	-1.000000	-1.000000	-1.000000	-1.000000	-1.000000	-1.000000	78.413793	0.000000	-1.000000	-1.000000	1133070.000000	1774906200.951076
10772.685000	-14999.220000	768.330000	18535.005000	8529.795000	-42524.235000	-29905.515000	-23592.600000	12.964174	11.432496	8.111858	10.133237	6.673227	4.180702	-1.243299	-10.387295	-7.355320	7.614740	-3.891300	0.821104	-0.067016	0.533690	-1.000000	-1.000000	-1.000000	-1.000000	-1.000000	-1.000000	-1.000000	78.413793	0.000000	-1.000000	-1.000000	1133071.000000	1774906200.957717
10783.575000	-14967.090000	796.545000	18567.585000	8563.770000	-42490.350000	-29876.940000	-23584.050000	14.282807	18.957305	-2.915844	0.398329	0.974550	0.424154	-1.899667	-0.321855	-7.355320	7.614740	-3.891300	0.821104	-0.067016	0.533690	-1.000000	-1.000000	-1.000000	-1.000000	-1.000000	-1.000000	-1.000000	78.413793	0.000000	-1.000000	-1.000000	1133072.000000	1774906200.957730
10800.810000	-14952.060000	812.880000	18589.590000	8585.280000	-42471.405000	-29870.505000	-23576.445000	10.901931	21.147834	-7.832930	-4.908552	-2.156193	-1.170066	-2.553193	7.830879	-7.355320	7.614740	-3.891300	0.821104	-0.067016	0.533690	-1.000000	-1.000000	-1.000000	-1.000000	-1.000000	-1.000000	-1.000000	78.413793	0.000000	-1.000000	-1.000000	1133073.000000	1774906200.958293
10806.660000	-14951.565000	813.420000	18591.795000	8586.990000	-42472.305000	-29880.180000	-23574.870000	4.614897	16.641522	-5.951564	-4.638572	-2.144614	-0.597572	-2.933054	11.235106	-7.355320	7.614740	-3.891300	0.821104	-0.067016	0.533690	-1.000000	-1.000000	-1.000000	-1.000000	-1.000000	-1.000000	-1.000000	78.413793	0.000000	-1.000000	-1.000000	1133074.000000	1774906200.958302
10810.485000	-14944.815000	825.795000	18605.520000	8604.135000	-42452.640000	-29861.865000	-23559.840000	-1.157332	7.021453	-1.074270	-2.101673	-1.164475	0.165898	-2.557028	10.533271	-7.355320	7.614740	-3.891300	0.821104	-0.067016	0.533690	-1.000000	-1.000000	-1.000000	-1.000000	-1.000000	-1.000000	-1.000000	78.413793	0.000000	-1.000000	-1.000000	1133075.000000	1774906200.961935
10789.830000	-14961.330000	817.020000	18595.530000	8597.970000	-42455.385000	-29866.635000	-23596.740000	-6.188377	-5.738450	0.848293	-2.303057	-2.503328	-1.420633	-2.046854	5.970647	-7.355320	7.614740	-3.891300	0.821104	-0.067016	0.533690	-1.000000	-1.000000	-1.000000	-1.000000	-1.000000	-1.000000	-1.000000	78.413793	0.000000	-1.000000	-1.000000	1133076.000000	1774906200.961943
10769.715000	-14977.395000	794.205000	18577.980000	8582.175000	-42471.180000	-29899.170000	-23661.945000	-12.571817	-19.509028	-3.885662	-7.556492	-7.475827	-6.223052	-2.908795	-3.045359	-7.355320	7.614740	-3.891300	0.821104	-0.067016	0.533690	-1.000000	-1.000000	-1.000000	-1.000000	-1.000000	-1.000000	-1.000000	78.413793	0.000000	-1.000000	-1.000000	1133077.000000	1774906200.965810
10741.185000	-14993.055000	767.160000	18564.255000	8565.795000	-42489.450000	-29916.630000	-23678.415000	-19.376163	-29.752990	-13.236348	-14.523888	-12.975288	-11.452364	-4.999622	-14.034058	-7.355320	7.614740	-3.891300	0.821104	-0.067016	0.533690	-1.000000	-1.000000	-1.000000	-1.000000	-1.000000	-1.000000	-1.000000	78.413793	0.000000	-1.000000	-1.000000	1133078.000000	1774906200.965821
10745.100000	-14996.070000	774.180000	18553.140000	8550.765000	-42503.175000	-29909.520000	-23653.755000	-21.484602	-30.147455	-19.739292	-16.035332	-12.940913	-11.613772	-4.992740	-20.257961	-7.355320	7.614740	-3.891300	0.821104	-0.067016	0.533690	-1.000000	-1.000000	-1.000000	-1.000000	-1.000000	-1.000000	-1.000000	78.413793	0.000000	-1.000000	-1.000000	1133079.000000	1774906200.970018
10721.160000	-15017.715000	766.485000	18526.905000	8523.045000	-42529.230000	-29905.020000	-23641.470000	-14.826070	-18.404904	-16.451655	-8.426624	-5.054556	-4.528505	-0.383101	-16.275305	-7.355320	7.614740	-3.891300	0.821104	-0.067016	0.533690	-1.000000	-1.000000	-1.000000	-1.000000	-1.000000	-1.000000	-1.000000	78.413793	0.000000	-1.000000	-1.000000	1133080.000000	1774906200.970029
10744.470000	-14998.995000	776.340000	18545.085000	8542.485000	-42509.790000	-29892.105000	-23625.855000	-1.132007	-0.088762	-3.980905	3.817755	5.569644	5.035123	6.307753	-3.130211	-4.883200	8.423520	-1.220800	0.826719	-0.072754	0.534911	-1.000000	-1.000000	-1.000000	-1.000000	-1.000000	-1.000000	-1.000000	78.413793	0.000000	-1.000000	-1.000000	1133081.000000	1774906200.982561
10785.060000	-14959.620000	810.180000	18582.255000	8579.565000	-42473.970000	-29857.725000	-23593.950000	14.131005	16.686991	11.006276	13.776470	12.745545	11.367787	10.969202	13.150522	-4.883200	8.423520	-1.220800	0.826719	-0.072754	0.534911	-1.000000	-1.000000	-1.000000	-1.000000	-1.000000	-1.000000	-1.000000	78.413793	0.000000	-1.000000	-1.000000	1133082.000000	1774906200.982582
10800.945000	-14903.460000	860.670000	18632.070000	8626.320000	-42429.780000	-29825.955000	-23560.200000	26.033937	27.969844	22.796328	19.067782	15.577669	13.855572	12.762736	25.959647	-4.883200	8.423520	-1.220800	0.826719	-0.072754	0.534911	-1.000000	-1.000000	-1.000000	-1.000000	-1.000000	-1.000000	-1.000000	78.413793	0.000000	-1.000000	-1.000000	1133083.000000	1774906200.982605
10797.885000	-14903.775000	859.635000	18629.550000	8622.720000	-42435.315000	-29848.455000	-23575.635000	30.273522	32.339447	27.946462	19.861865	15.308772	13.672660	11.668905	29.924440	-4.883200	8.423520	-1.220800	0.826719	-0.072754	0.534911	-1.000000	-1.000000	-1.000000	-1.000000	-1.000000	-1.000000	-1.000000	78.413793	0.000000	-1.000000	-1.000000	1133084.000000	1774906200.982615
10734.300000	-14977.440000	793.395000	18566.145000	8559.135000	-42498.045000	-29899.665000	-23627.925000	23.183201	26.608097	22.828698	14.380539	10.393971	9.036263	5.488542	22.121472	-4.883200	8.423520	-1.220800	0.826719	-0.072754	0.534911	-1.000000	-1.000000	-1.000000	-1.000000	-1.000000	-1.000000	-1.000000	78.413793	0.000000	-1.000000	-1.000000	1133085.000000	1774906200.982628
10746.000000	-15007.680000	759.735000	18535.500000	8533.395000	-42520.995000	-29913.210000	-23610.645000	5.827243	8.775353	6.301172	1.242000	-0.785741	-1.663058	-5.769240	5.676032	-4.883200	8.423520	-1.220800	0.826719	-0.072754	0.534911	-1.000000	-1.000000	-1.000000	-1.000000	-1.000000	-1.000000	-1.000000	78.413793	0.000000	-1.000000	-1.000000	1133086.000000	1774906200.982638
10812.510000	-14963.220000	806.985000	18585.090000	8585.145000	-42467.040000	-29883.465000	-23562.540000	-12.261068	-14.240128	-14.241140	-13.954257	-13.047990	-13.022906	-15.704814	-10.084441	-4.883200	8.423520	-1.220800	0.826719	-0.072754	0.534911	-1.000000	-1.000000	-1.000000	-1.000000	-1.000000	-1.000000	-1.000000	78.413793	0.000000	-1.000000	-1.000000	1133087.000000	1774906200.991654
10813.005000	-14962.905000	812.925000	18592.065000	8591.355000	-42460.245000	-29878.920000	-23568.525000	-19.272134	-28.430443	-25.719920	-20.186766	-16.297119	-15.094951	-16.798912	-17.612518	-4.883200	8.423520	-1.220800	0.826719	-0.072754	0.534911	-1.000000	-1.000000	-1.000000	-1.000000	-1.000000	-1.000000	-1.000000	78.413793	0.000000	-1.000000	-1.000000	1133088.000000	1774906200.991675
10781.640000	-14993.865000	780.075000	18557.145000	8553.555000	-42499.980000	-29892.150000	-23599.980000	-13.557161	-26.420364	-22.267511	-13.318087	-7.903339	-5.925642	-8.999829	-17.817322	-4.883200	8.423520	-1.220800	0.826719	-0.072754	0.534911	-1.000000	-1.000000	-1.000000	-1.000000	-1.000000	-1.000000	-1.000000	78.413793	0.000000	-1.000000	-1.000000	1133089.000000	1774906200.991698
10803.195000	-14955.075000	817.605000	18594.270000	8585.370000	-42469.515000	-29844.810000	-23569.740000	-4.329911	-13.530013	-9.785438	-0.974335	3.378107	5.154587	1.175609	-15.721024	-4.883200	8.423520	-1.220800	0.826719	-0.072754	0.534911	-1.000000	-1.000000	-1.000000	-1.000000	-1.000000	-1.000000	-1.000000	78.413793	0.000000	-1.000000	-1.000000	1133090.000000	1774906200.991709
10832.805000	-14909.940000	858.960000	18633.690000	8620.200000	-42437.655000	-29838.330000	-23569.380000	0.155934	0.980795	3.123488	7.591671	8.599384	9.305758	8.184874	-13.197092	0.793520	7.752080	-1.526000	0.829344	-0.082824	0.536254	-1.000000	-1.000000	-1.000000	-1.000000	-1.000000	-1.000000	-1.000000	78.413793	0.000000	-1.000000	-1.000000	1133091.000000	1774906200.997618
10781.190000	-14957.055000	815.085000	18587.745000	8576.460000	-42481.125000	-29895.345000	-23638.140000	-1.337673	10.343718	10.679679	8.466164	5.645395	5.087570	9.059679	-10.380550	0.793520	7.752080	-1.526000	0.829344	-0.082824	0.536254	-1.000000	-1.000000	-1.000000	-1.000000	-1.000000	-1.000000	-1.000000	78.413793	0.000000	-1.000000	-1.000000	1133092.000000	1774906200.997630
10697.220000	-15042.330000	728.685000	18503.910000	8503.065000	-42552.945000	-29958.390000	-23703.705000	-7.088661	9.963348	8.905971	1.148734	-3.685177	-4.978226	2.477950	-8.656333	0.793520	7.752080	-1.526000	0.829344	-0.082824	0.536254	-1.000000	-1.000000	-1.000000	-1.000000	-1.000000	-1.000000	-1.000000	78.413793	0.000000	-1.000000	-1.000000	1133093.000000	1774906200.998782
10712.250000	-15032.340000	730.575000	18506.520000	8515.395000	-42539.130000	-29933.145000	-23673.735000	-13.464398	1.323583	-0.671878	-10.131927	-13.842802	-15.028828	-7.304095	-6.549899	0.793520	7.752080	-1.526000	0.829344	-0.082824	0.536254	-1.000000	-1.000000	-1.000000	-1.000000	-1.000000	-1.000000	-1.000000	78.413793	0.000000	-1.000000	-1.000000	1133094.000000	1774906200.998793
10738.305000	-15006.330000	759.960000	18531.090000	8530.605000	-42530.085000	-29910.555000	-23638.680000	-14.010647	-6.208383	-8.770121	-15.830299	-16.153252	-16.723286	-11.035297	0.726527	0.793520	7.752080	-1.526000	0.829344	-0.082824	0.536254	-1.000000	-1.000000	-1.000000	-1.000000	-1.000000	-1.000000	-1.000000	78.413793	0.000000	-1.000000	-1.000000	1133095.000000	1774906201.007828
10715.715000	-15039.405000	729.630000	18515.205000	8515.260000	-42542.505000	-29907.180000	-23620.905000	-6.032749	-5.501894	-7.958588	-10.148718	-7.429556	-7.537406	-4.360841	13.280802	0.793520	7.752080	-1.526000	0.829344	-0.082824	0.536254	-1.000000	-1.000000	-1.000000	-1.000000	-1.000000	-1.000000	-1.000000	78.413793	0.000000	-1.000000	-1.000000	1133096.000000	1774906201.007839
10690.560000	-15053.490000	718.380000	18506.655000	8514.585000	-42532.470000	-29893.410000	-23640.705000	5.565929	0.980152	-0.541432	2.749574	6.303777	6.420941	7.514197	24.281287	0.793520	7.752080	-1.526000	0.829344	-0.082824	0.536254	-1.000000	-1.000000	-1.000000	-1.000000	-1.000000	-1.000000	-1.000000	78.413793	0.000000	-1.000000	-1.000000	1133097.000000	1774906201.009964
10714.005000	-15031.755000	723.420000	18519.525000	8528.175000	-42522.435000	-29898.495000	-23643.090000	14.647270	7.360114	7.091124	14.621016	17.127919	17.736639	16.022750	26.629783	0.793520	7.752080	-1.526000	0.829344	-0.082824	0.536254	-1.000000	-1.000000	-1.000000	-1.000000	-1.000000	-1.000000	-1.000000	78.413793	0.000000	-1.000000	-1.000000	1133098.000000	1774906201.009974
10757.025000	-14998.455000	722.610000	18531.045000	8549.595000	-42499.395000	-29895.030000	-23627.970000	18.859354	10.471996	10.568348	19.433796	20.416013	21.769823	15.364537	18.367266	0.793520	7.752080	-1.526000	0.829344	-0.082824	0.536254	-1.000000	-1.000000	-1.000000	-1.000000	-1.000000	-1.000000	-1.000000	78.413793	0.000000	-1.000000	-1.000000	1133099.000000	1774906201.010220
10794.195000	-14960.970000	740.205000	18545.220000	8564.895000	-42486.480000	-29883.960000	-23608.395000	18.836793	9.783202	8.260672	15.157000	15.212240	16.933935	5.940822	4.075527	0.793520	7.752080	-1.526000	0.829344	-0.082824	0.536254	-1.000000	-1.000000	-1.000000	-1.000000	-1.000000	-1.000000	-1.000000	78.413793	0.000000	-1.000000	-1.000000	1133100.000000	1774906201.010229
10791.495000	-14961.555000	753.480000	18550.305000	8563.230000	-42488.910000	-29878.560000	-23614.425000	16.797407	7.588616	3.502714	5.881725	5.497181	6.741391	-4.586299	-7.332406	2.426340	5.020540	-2.060100	0.825254	-0.085083	0.538085	-1.000000	-1.000000	-1.000000	-1.000000	-1.000000	-1.000000	-1.000000	78.413793	0.000000	-1.000000	-1.000000	1133101.000000	1774906201.013722
10793.070000	-14969.070000	803.160000	18586.485000	8581.545000	-42472.755000	-29866.590000	-23599.620000	14.479357	7.175935	3.507788	0.083207	-1.544996	-1.605192	-7.598700	-9.339721	2.426340	5.020540	-2.060100	0.825254	-0.085083	0.538085	-1.000000	-1.000000	-1.000000	-1.000000	-1.000000	-1.000000	-1.000000	78.413793	0.000000	-1.000000	-1.000000	1133102.000000	1774906201.013731
10797.435000	-14979.015000	833.085000	18609.885000	8599.095000	-42458.490000	-29857.500000	-23577.300000	10.245956	7.556032	10.799556	2.123857	-2.256294	-3.929225	-2.366384	-3.798940	2.426340	5.020540	-2.060100	0.825254	-0.085083	0.538085	-1.000000	-1.000000	-1.000000	-1.000000	-1.000000	-1.000000	-1.000000	78.413793	0.000000	-1.000000	-1.000000	1133103.000000	1774906201.020443
10778.760000	-14975.595000	819.945000	18590.085000	8575.965000	-42482.835000	-29879.010000	-23582.700000	0.384208	3.912619	17.965772	6.748877	-0.274356	-3.047402	3.558420	0.879586	2.426340	5.020540	-2.060100	0.825254	-0.085083	0.538085	-1.000000	-1.000000	-1.000000	-1.000000	-1.000000	-1.000000	-1.000000	78.413793	0.000000	-1.000000	-1.000000	1133104.000000	1774906201.020458
10750.950000	-14993.460000	791.730000	18553.455000	8537.805000	-42522.975000	-29901.150000	-23614.470000	-14.782010	-5.025807	14.872997	4.953150	-2.016831	-4.862721	2.509635	-2.056898	2.426340	5.020540	-2.060100	0.825254	-0.085083	0.538085	-1.000000	-1.000000	-1.000000	-1.000000	-1.000000	-1.000000	-1.000000	78.413793	0.000000	-1.000000	-1.000000	1133105.000000	1774906201.022059
10732.680000	-15009.750000	758.160000	18528.435000	8530.020000	-42529.095000	-29898.945000	-23637.330000	-28.649601	-14.877597	-0.717123	-6.102697	-9.387411	-11.432365	-5.935022	-11.553907	2.426340	5.020540	-2.060100	0.825254	-0.085083	0.538085	-1.000000	-1.000000	-1.000000	-1.000000	-1.000000	-1.000000	-1.000000	78.413793	0.000000	-1.000000	-1.000000	1133106.000000	1774906201.022071
10752.525000	-14987.565000	755.505000	18539.370000	8561.970000	-42494.715000	-29876.940000	-23613.795000	-33.944879	-20.826653	-21.651664	-20.754761	-17.734061	-18.404930	-14.971782	-20.224524	2.426340	5.020540	-2.060100	0.825254	-0.085083	0.538085	-1.000000	-1.000000	-1.000000	-1.000000	-1.000000	-1.000000	-1.000000	78.413793	0.000000	-1.000000	-1.000000	1133107.000000	1774906201.028792
10817.190000	-14930.190000	819.045000	18597.015000	8603.595000	-42459.570000	-29864.115000	-23585.895000	-27.612407	-20.255704	-36.209390	-29.290698	-20.019578	-19.011440	-16.958520	-20.594367	2.426340	5.020540	-2.060100	0.825254	-0.085083	0.538085	-1.000000	-1.000000	-1.000000	-1.000000	-1.000000	-1.000000	-1.000000	78.413793	0.000000	-1.000000	-1.000000	1133108.000000	1774906201.028805
10859.130000	-14905.395000	874.035000	18635.310000	8632.620000	-42427.710000	-29840.265000	-23547.870000	-10.555282	-12.102700	-34.099069	-23.930445	-12.322299	-9.929807	-9.332145	-9.922510	2.426340	5.020540	-2.060100	0.825254	-0.085083	0.538085	-1.000000	-1.000000	-1.000000	-1.000000	-1.000000	-1.000000	-1.000000	78.413793	0.000000	-1.000000	-1.000000	1133109.000000	1774906201.029758
10810.935000	-14951.565000	840.645000	18593.910000	8590.590000	-42466.230000	-29861.865000	-23579.640000	11.593751	1.384828	-14.774493	-5.653176	2.544721	5.537859	4.196431	7.809162	2.426340	5.020540	-2.060100	0.825254	-0.085083	0.538085	-1.000000	-1.000000	-1.000000	-1.000000	-1.000000	-1.000000	-1.000000	78.413793	0.000000	-1.000000	-1.000000	1133110.000000	1774906201.029768
10735.965000	-15006.870000	777.285000	18537.705000	8531.190000	-42525.945000	-29904.300000	-23646.690000	27.090700	12.854681	8.355369	13.314622	14.756026	17.592721	15.144277	21.657292	-1.327620	4.028640	-1.251320	0.826353	-0.073730	0.540587	-1.000000	-1.000000	-1.000000	-1.000000	-1.000000	-1.000000	-1.000000	78.413793	0.000000	-1.000000	-1.000000	1133111.000000	1774906201.034137
10712.520000	-15023.430000	753.885000	18518.355000	8514.945000	-42544.845000	-29926.800000	-23696.370000	25.328165	14.650435	18.494543	19.311917	14.899666	16.984415	15.568922	20.092100	-1.327620	4.028640	-1.251320	0.826353	-0.073730	0.540587	-1.000000	-1.000000	-1.000000	-1.000000	-1.000000	-1.000000	-1.000000	78.413793	0.000000	-1.000000	-1.000000	1133112.000000	1774906201.034148
10785.510000	-14943.915000	831.330000	18596.880000	8593.470000	-42470.685000	-29896.605000	-23636.745000	9.582185	7.908588	13.178787	12.127257	5.474178	6.257852	6.253988	3.938155	-1.327620	4.028640	-1.251320	0.826353	-0.073730	0.540587	-1.000000	-1.000000	-1.000000	-1.000000	-1.000000	-1.000000	-1.000000	78.413793	0.000000	-1.000000	-1.000000	1133113.000000	1774906201.046983
10878.480000	-14860.350000	918.540000	18684.405000	8677.710000	-42391.845000	-29836.035000	-23527.755000	-3.059981	3.464121	6.523048	5.667434	0.224708	-0.775146	-2.745048	-10.081520	-1.327620	4.028640	-1.251320	0.826353	-0.073730	0.540587	-1.000000	-1.000000	-1.000000	-1.000000	-1.000000	-1.000000	-1.000000	78.413793	0.000000	-1.000000	-1.000000	1133114.000000	1774906201.046995
10881.810000	-14879.430000	894.645000	18662.850000	8659.035000	-42407.955000	-29819.700000	-23524.695000	-0.166835	8.444954	10.453055	10.041528	6.966223	4.153842	-2.800925	-6.476014	-1.327620	4.028640	-1.251320	0.826353	-0.073730	0.540587	-1.000000	-1.000000	-1.000000	-1.000000	-1.000000	-1.000000	-1.000000	78.413793	0.000000	-1.000000	-1.000000	1133115.000000	1774906201.047009
10782.585000	-14977.485000	786.195000	18561.510000	8563.095000	-42499.395000	-29871.180000	-23606.550000	10.133965	14.118843	18.018141	16.822529	15.262712	11.632315	3.362052	9.193542	-1.327620	4.028640	-1.251320	0.826353	-0.073730	0.540587	-1.000000	-1.000000	-1.000000	-1.000000	-1.000000	-1.000000	-1.000000	78.413793	0.000000	-1.000000	-1.000000	1133116.000000	1774906201.047014
10697.355000	-15049.170000	709.245000	18486.585000	8499.285000	-42556.635000	-29905.515000	-23671.755000	7.745876	4.882336	11.439949	8.707006	8.115459	5.588810	5.221970	16.078788	-1.327620	4.028640	-1.251320	0.826353	-0.073730	0.540587	-1.000000	-1.000000	-1.000000	-1.000000	-1.000000	-1.000000	-1.000000	78.413793	0.000000	-1.000000	-1.000000	1133117.000000	1774906201.047019
10744.470000	-15006.735000	741.960000	18515.115000	8527.320000	-42532.380000	-29905.380000	-23627.115000	-13.239714	-19.349882	-13.284942	-16.516647	-15.227043	-15.099953	-2.254649	4.034740	-1.327620	4.028640	-1.251320	0.826353	-0.073730	0.540587	-1.000000	-1.000000	-1.000000	-1.000000	-1.000000	-1.000000	-1.000000	78.413793	0.000000	-1.000000	-1.000000	1133118.000000	1774906201.047024
10803.060000	-14942.925000	796.545000	18583.155000	8592.210000	-42468.120000	-29872.170000	-23585.535000	-33.450810	-37.324833	-36.666378	-38.434900	-34.554695	-32.025515	-12.099112	-14.208860	-1.327620	4.028640	-1.251320	0.826353	-0.073730	0.540587	-1.000000	-1.000000	-1.000000	-1.000000	-1.000000	-1.000000	-1.000000	78.413793	0.000000	-1.000000	-1.000000	1133119.000000	1774906201.051882
10804.590000	-14936.310000	837.090000	18621.360000	8620.290000	-42441.705000	-29858.580000	-23619.915000	-29.902256	-28.806438	-35.328044	-34.539514	-29.384170	-26.273220	-13.231957	-19.796569	-1.327620	4.028640	-1.251320	0.826353	-0.073730	0.540587	-1.000000	-1.000000	-1.000000	-1.000000	-1.000000	-1.000000	-1.000000	78.413793	0.000000	-1.000000	-1.000000	1133120.000000	1774906201.051905
10749.105000	-14954.130000	851.535000	18613.665000	8599.725000	-42468.210000	-29875.545000	-23677.560000	-3.397727	1.975991	-6.985287	-4.756594	-1.303366	0.526801	-3.098517	-9.929726	-5.203660	2.990960	-0.747740	0.828855	-0.065368	0.541319	-1.000000	-1.000000	-1.000000	-1.000000	-1.000000	-1.000000	-1.000000	78.413793	0.000000	-1.000000	-1.000000	1133121.000000	1774906201.055390
10692.450000	-15025.410000	782.505000	18546.345000	8532.765000	-42537.825000	-29911.815000	-23674.905000	22.359058	29.674755	26.401069	27.211525	26.413530	26.131983	8.961432	2.183400	-5.203660	2.990960	-0.747740	0.828855	-0.065368	0.541319	-1.000000	-1.000000	-1.000000	-1.000000	-1.000000	-1.000000	-1.000000	78.413793	0.000000	-1.000000	-1.000000	1133122.000000	1774906201.055404
10691.505000	-15057.630000	714.375000	18478.665000	8471.745000	-42594.750000	-29946.420000	-23654.970000	26.067033	31.935426	37.947732	35.411005	30.400802	28.467888	10.868723	4.922833	-5.203660	2.990960	-0.747740	0.828855	-0.065368	0.541319	-1.000000	-1.000000	-1.000000	-1.000000	-1.000000	-1.000000	-1.000000	78.413793	0.000000	-1.000000	-1.000000	1133123.000000	1774906201.068998
10719.630000	-15046.695000	713.610000	18482.220000	8483.085000	-42578.595000	-29934.405000	-23666.445000	9.499445	10.089117	20.833649	15.753007	9.320041	7.129604	0.533278	-0.285726	-5.203660	2.990960	-0.747740	0.828855	-0.065368	0.541319	-1.000000	-1.000000	-1.000000	-1.000000	-1.000000	-1.000000	-1.000000	78.413793	0.000000	-1.000000	-1.000000	1133124.000000	1774906201.069022
10731.870000	-15030.090000	740.115000	18513.405000	8517.105000	-42543.000000	-29895.615000	-23634.945000	-7.215679	-13.580867	-5.880165	-10.802601	-15.136395	-16.223685	-10.842781	-3.204493	-5.203660	2.990960	-0.747740	0.828855	-0.065368	0.541319	-1.000000	-1.000000	-1.000000	-1.000000	-1.000000	-1.000000	-1.000000	78.413793	0.000000	-1.000000	-1.000000	1133125.000000	1774906201.069046
10763.100000	-14998.230000	775.305000	18548.145000	8550.720000	-42510.780000	-29871.495000	-23617.620000	-7.869273	-18.745641	-18.310441	-20.232253	-20.467304	-20.055283	-10.282309	3.343581	-5.203660	2.990960	-0.747740	0.828855	-0.065368	0.541319	-1.000000	-1.000000	-1.000000	-1.000000	-1.000000	-1.000000	-1.000000	78.413793	0.000000	-1.000000	-1.000000	1133126.000000	1774906201.069057
10746.405000	-15000.390000	776.880000	18550.530000	8553.870000	-42507.855000	-29879.595000	-23657.040000	5.163749	-4.676119	-10.436306	-7.954432	-4.467244	-3.191674	2.863867	14.660101	-5.203660	2.990960	-0.747740	0.828855	-0.065368	0.541319	-1.000000	-1.000000	-1.000000	-1.000000	-1.000000	-1.000000	-1.000000	78.413793	0.000000	-1.000000	-1.000000	1133127.000000	1774906201.069070
10716.210000	-15024.735000	752.580000	18525.735000	8528.130000	-42533.415000	-29906.505000	-23677.380000	16.487675	13.071010	4.953982	10.792971	16.081931	17.283486	16.646023	18.677941	-5.203660	2.990960	-0.747740	0.828855	-0.065368	0.541319	-1.000000	-1.000000	-1.000000	-1.000000	-1.000000	-1.000000	-1.000000	78.413793	0.000000	-1.000000	-1.000000	1133128.000000	1774906201.069080
10711.080000	-15019.110000	755.415000	18526.320000	8524.575000	-42537.195000	-29906.820000	-23641.740000	14.859116	19.572410	12.220564	18.605517	23.619469	24.226932	19.261594	11.326011	-5.203660	2.990960	-0.747740	0.828855	-0.065368	0.541319	-1.000000	-1.000000	-1.000000	-1.000000	-1.000000	-1.000000	-1.000000	78.413793	0.000000	-1.000000	-1.000000	1133129.000000	1774906201.076776
10730.565000	-15004.395000	771.660000	18543.060000	8539.830000	-42522.480000	-29898.450000	-23629.455000	3.242889	12.842919	7.067476	11.567126	14.866634	14.980582	9.895180	0.683138	-5.203660	2.990960	-0.747740	0.828855	-0.065368	0.541319	-1.000000	-1.000000	-1.000000	-1.000000	-1.000000	-1.000000	-1.000000	78.413793	0.000000	-1.000000	-1.000000	1133130.000000	1774906201.076790
10765.485000	-14996.970000	773.055000	18545.850000	8542.755000	-42520.185000	-29897.415000	-23623.965000	-7.319728	1.337598	-2.746756	-0.976937	-0.099754	-0.093302	-3.054676	-5.815195	-7.828380	2.807840	0.045780	0.828184	-0.065918	0.539244	-1.000000	-1.000000	-1.000000	-1.000000	-1.000000	-1.000000	-1.000000	78.413793	0.000000	-1.000000	-1.000000	1133131.000000	1774906201.076804
10783.215000	-14977.170000	790.020000	18563.445000	8559.405000	-42509.700000	-29893.050000	-23608.890000	-9.851077	-6.172219	-7.080484	-7.852244	-9.609626	-9.697273	-11.243738	-8.369549	-7.828380	2.807840	0.045780	0.828184	-0.065918	0.539244	-1.000000	-1.000000	-1.000000	-1.000000	-1.000000	-1.000000	-1.000000	78.413793	0.000000	-1.000000	-1.000000	1133132.000000	1774906201.076810
10793.205000	-14958.180000	804.375000	18578.655000	8582.805000	-42484.005000	-29883.240000	-23606.100000	-5.806133	-6.750376	-2.575498	-5.393496	-9.416289	-10.145335	-12.051100	-8.852827	-7.828380	2.807840	0.045780	0.828184	-0.065918	0.539244	-1.000000	-1.000000	-1.000000	-1.000000	-1.000000	-1.000000	-1.000000	78.413793	0.000000	-1.000000	-1.000000	1133133.000000	1774906201.077833
10804.635000	-14948.730000	814.770000	18587.295000	8586.810000	-42479.505000	-29886.705000	-23619.015000	-0.627309	-3.061371	5.629532	1.518271	-3.474782	-5.168735	-8.172896	-7.870905	-7.828380	2.807840	0.045780	0.828184	-0.065918	0.539244	-1.000000	-1.000000	-1.000000	-1.000000	-1.000000	-1.000000	-1.000000	78.413793	0.000000	-1.000000	-1.000000	1133134.000000	1774906201.077845
10777.230000	-14982.120000	782.955000	18556.245000	8554.815000	-42513.165000	-29895.660000	-23625.270000	0.912238	-0.738010	8.815398	4.594570	0.437102	-1.648412	-4.103281	-6.715194	-7.828380	2.807840	0.045780	0.828184	-0.065918	0.539244	-1.000000	-1.000000	-1.000000	-1.000000	-1.000000	-1.000000	-1.000000	78.413793	0.000000	-1.000000	-1.000000	1133135.000000	1774906201.081908
10755.810000	-14989.140000	766.755000	18535.005000	8536.140000	-42534.765000	-29898.720000	-23639.355000	-3.111347	-3.988868	2.112300	-0.947660	-2.846296	-4.285071	-2.120891	-5.931345	-7.828380	2.807840	0.045780	0.828184	-0.065918	0.539244	-1.000000	-1.000000	-1.000000	-1.000000	-1.000000	-1.000000	-1.000000	78.413793	0.000000	-1.000000	-1.000000	1133136.000000	1774906201.081920
10768.230000	-14980.230000	778.050000	18545.445000	8548.470000	-42523.290000	-29887.515000	-23629.230000	-9.521589	-10.653776	-10.512990	-11.757918	-10.757855	-10.882960	-0.958951	-4.061445	-7.828380	2.807840	0.045780	0.828184	-0.065918	0.539244	-1.000000	-1.000000	-1.000000	-1.000000	-1.000000	-1.000000	-1.000000	78.413793	0.000000	-1.000000	-1.000000	1133137.000000	1774906201.099126
10759.905000	-15004.260000	779.130000	18559.035000	8564.355000	-42505.200000	-29880.180000	-23634.945000	-12.084278	-14.528026	-19.660953	-18.911251	-15.233520	-13.999464	1.498935	-0.356668	-7.828380	2.807840	0.045780	0.828184	-0.065918	0.539244	-1.000000	-1.000000	-1.000000	-1.000000	-1.000000	-1.000000	-1.000000	78.413793	0.000000	-1.000000	-1.000000	1133138.000000	1774906201.099150
10764.810000	-14981.040000	799.965000	18576.630000	8583.210000	-42485.355000	-29871.315000	-23635.170000	-8.262620	-12.207664	-18.839485	-16.005436	-10.804334	-8.547684	5.131148	3.296906	-7.828380	2.807840	0.045780	0.828184	-0.065918	0.539244	-1.000000	-1.000000	-1.000000	-1.000000	-1.000000	-1.000000	-1.000000	78.413793	0.000000	-1.000000	-1.000000	1133139.000000	1774906201.099176
10793.970000	-14948.145000	824.355000	18592.740000	8595.675000	-42474.600000	-29858.355000	-23607.135000	-0.955373	-3.959004	-7.819142	-3.706697	1.037752	3.715901	8.000664	4.794715	-7.828380	2.807840	0.045780	0.828184	-0.065918	0.539244	-1.000000	-1.000000	-1.000000	-1.000000	-1.000000	-1.000000	-1.000000	78.413793	0.000000	-1.000000	-1.000000	1133140.000000	1774906201.099187
10817.640000	-14935.815000	824.895000	18591.435000	8595.405000	-42474.150000	-29856.780000	-23593.365000	6.092286	7.523849	8.093219	11.361420	13.492068	15.763858	8.332045	4.715843	-5.432560	2.212700	1.480220	0.824522	-0.074219	0.540282	-1.000000	-1.000000	-1.000000	-1.000000	-1.000000	-1.000000	-1.000000	78.413793	0.000000	-1.000000	-1.000000	1133141.000000	1774906201.099200
10793.520000	-14959.845000	803.565000	18570.690000	8575.560000	-42494.130000	-29883.870000	-23624.865000	10.449279	16.406239	19.777220	20.258145	18.637315	19.712712	4.881813	4.381419	-5.432560	2.212700	1.480220	0.824522	-0.074219	0.540282	-1.000000	-1.000000	-1.000000	-1.000000	-1.000000	-1.000000	-1.000000	78.413793	0.000000	-1.000000	-1.000000	1133142.000000	1774906201.099211
10773.495000	-14965.155000	796.725000	18566.460000	8569.485000	-42503.040000	-29901.375000	-23658.975000	9.935179	16.890695	19.979116	17.613457	13.009082	12.478336	-2.416681	2.741247	-5.432560	2.212700	1.480220	0.824522	-0.074219	0.540282	-1.000000	-1.000000	-1.000000	-1.000000	-1.000000	-1.000000	-1.000000	78.413793	0.000000	-1.000000	-1.000000	1133143.000000	1774906201.099222
10820.520000	-14919.300000	837.855000	18623.250000	8629.560000	-42442.920000	-29860.155000	-23593.050000	5.255037	9.701461	10.237470	7.036964	1.770275	-0.146158	-9.980180	-0.322906	-5.432560	2.212700	1.480220	0.824522	-0.074219	0.540282	-1.000000	-1.000000	-1.000000	-1.000000	-1.000000	-1.000000	-1.000000	78.413793	0.000000	-1.000000	-1.000000	1133144.000000	1774906201.099233
11008.305000	-14751.630000	991.350000	18774.270000	8782.965000	-42288.705000	-29720.520000	-23363.595000	3.964382	3.912063	1.391710	0.061166	-3.361815	-5.782017	-9.996976	2.045650	-5.432560	2.212700	1.480220	0.824522	-0.074219	0.540282	-1.000000	-1.000000	-1.000000	-1.000000	-1.000000	-1.000000	-1.000000	78.413793	0.000000	-1.000000	-1.000000	1133145.000000	1774906201.101914
11003.130000	-14752.035000	992.295000	18771.210000	8777.610000	-42292.800000	-29716.245000	-23388.075000	12.878059	7.726161	2.938040	4.637354	4.374772	2.585686	2.152320	15.925508	-5.432560	2.212700	1.480220	0.824522	-0.074219	0.540282	-1.000000	-1.000000	-1.000000	-1.000000	-1.000000	-1.000000	-1.000000	78.413793	0.000000	-1.000000	-1.000000	1133146.000000	1774906201.101928
10788.660000	-14966.415000	782.685000	18565.650000	8569.845000	-42499.215000	-29869.200000	-23616.585000	22.016962	13.554001	7.957195	11.244363	13.655268	13.216485	16.544859	28.285386	-5.432560	2.212700	1.480220	0.824522	-0.074219	0.540282	-1.000000	-1.000000	-1.000000	-1.000000	-1.000000	-1.000000	-1.000000	78.413793	0.000000	-1.000000	-1.000000	1133147.000000	1774906201.105921
10584.180000	-15164.505000	574.920000	18367.245000	8380.710000	-42684.705000	-29993.760000	-23795.595000	8.630738	0.896470	-3.441547	-0.940401	2.491006	3.389940	13.713447	13.720717	-5.432560	2.212700	1.480220	0.824522	-0.074219	0.540282	-1.000000	-1.000000	-1.000000	-1.000000	-1.000000	-1.000000	-1.000000	78.413793	0.000000	-1.000000	-1.000000	1133148.000000	1774906201.105939
10639.485000	-15099.795000	616.905000	18419.355000	8438.580000	-42626.745000	-29957.085000	-23755.230000	-31.886786	-34.885445	-35.979428	-35.164122	-32.104740	-30.400396	-11.190234	-30.736576	-5.432560	2.212700	1.480220	0.824522	-0.074219	0.540282	-1.000000	-1.000000	-1.000000	-1.000000	-1.000000	-1.000000	-1.000000	78.413793	0.000000	-1.000000	-1.000000	1133149.000000	1774906201.109797
10732.185000	-15001.830000	726.930000	18517.635000	8532.045000	-42535.440000	-29889.765000	-23670.810000	-69.617606	-66.032007	-63.208064	-63.491049	-61.447675	-59.751848	-37.370695	-72.075484	-5.432560	2.212700	1.480220	0.824522	-0.074219	0.540282	-1.000000	-1.000000	-1.000000	-1.000000	-1.000000	-1.000000	-1.000000	78.413793	0.000000	-1.000000	-1.000000	1133150.000000	1774906201.109807
10753.200000	-14989.455000	793.530000	18564.030000	8560.125000	-42509.430000	-29878.920000	-23638.410000	-68.087413	-59.477104	-52.791830	-54.107662	-53.755691	-52.967735	-39.226758	-72.193941	-0.991900	3.097780	2.395820	0.822996	-0.078430	0.540648	-1.000000	-1.000000	-1.000000	-1.000000	-1.000000	-1.000000	-1.000000	78.413793	0.000000	-1.000000	-1.000000	1133151.000000	1774906201.113783
10754.550000	-15011.100000	790.335000	18561.105000	8551.035000	-42520.635000	-29901.015000	-23630.670000	-22.419859	-13.790365	-2.922679	-6.353891	-8.591829	-9.218804	-13.026750	-25.559467	-0.991900	3.097780	2.395820	0.822996	-0.078430	0.540648	-1.000000	-1.000000	-1.000000	-1.000000	-1.000000	-1.000000	-1.000000	78.413793	0.000000	-1.000000	-1.000000	1133152.000000	1774906201.113793
10757.565000	-14993.145000	773.505000	18542.610000	8532.090000	-42542.100000	-29908.440000	-23620.320000	37.138643	40.290970	53.878683	47.918760	43.100516	41.293154	20.903797	36.434492	-0.991900	3.097780	2.395820	0.822996	-0.078430	0.540648	-1.000000	-1.000000	-1.000000	-1.000000	-1.000000	-1.000000	-1.000000	78.413793	0.000000	-1.000000	-1.000000	1133153.000000	1774906201.117833
10755.855000	-14973.840000	787.185000	18547.245000	8545.185000	-42526.620000	-29884.005000	-23610.375000	72.175603	68.792944	79.482194	72.681509	67.153065	64.975151	38.381155	72.808636	-0.991900	3.097780	2.395820	0.822996	-0.078430	0.540648	-1.000000	-1.000000	-1.000000	-1.000000	-1.000000	-1.000000	-1.000000	78.413793	0.000000	-1.000000	-1.000000	1133154.000000	1774906201.117844
10758.510000	-14980.230000	793.035000	18545.400000	8552.835000	-42517.665000	-29883.330000	-23628.195000	66.925763	61.180114	62.395330	57.572367	54.510880	52.946723	32.590117	66.872147	-0.991900	3.097780	2.395820	0.822996	-0.078430	0.540648	-1.000000	-1.000000	-1.000000	-1.000000	-1.000000	-1.000000	-1.000000	78.413793	0.000000	-1.000000	-1.000000	1133155.000000	1774906201.135141
10732.680000	-15015.645000	771.570000	18527.625000	8529.615000	-42542.820000	-29910.240000	-23669.280000	37.833012	34.156011	24.288619	23.432003	25.182361	24.869798	16.544177	35.962940	-0.991900	3.097780	2.395820	0.822996	-0.078430	0.540648	-1.000000	-1.000000	-1.000000	-1.000000	-1.000000	-1.000000	-1.000000	78.413793	0.000000	-1.000000	-1.000000	1133156.000000	1774906201.135154
10710.810000	-15033.375000	746.145000	18510.210000	8513.055000	-42557.130000	-29922.705000	-23674.185000	10.904322	10.193638	-5.656237	-2.210246	3.685710	4.542783	5.471277	7.241582	-0.991900	3.097780	2.395820	0.822996	-0.078430	0.540648	-1.000000	-1.000000	-1.000000	-1.000000	-1.000000	-1.000000	-1.000000	78.413793	0.000000	-1.000000	-1.000000	1133157.000000	1774906201.135168
10729.035000	-15016.095000	755.505000	18518.175000	8525.205000	-42545.025000	-29905.470000	-23650.740000	-5.039728	-4.404673	-18.365519	-11.667641	-4.923569	-3.461662	1.534625	-8.575765	-0.991900	3.097780	2.395820	0.822996	-0.078430	0.540648	-1.000000	-1.000000	-1.000000	-1.000000	-1.000000	-1.000000	-1.000000	78.413793	0.000000	-1.000000	-1.000000	1133158.000000	1774906201.135174
10720.800000	-15003.765000	762.795000	18530.910000	8540.460000	-42529.995000	-29889.810000	-23670.315000	-16.846837	-16.268071	-23.581868	-15.377780	-10.896671	-9.392857	-2.060478	-17.132562	-0.991900	3.097780	2.395820	0.822996	-0.078430	0.540648	-1.000000	-1.000000	-1.000000	-1.000000	-1.000000	-1.000000	-1.000000	78.413793	0.000000	-1.000000	-1.000000	1133159.000000	1774906201.135180
10720.080000	-14990.490000	765.585000	18553.230000	8562.015000	-42508.755000	-29883.015000	-23694.480000	-28.905237	-27.866510	-29.818054	-21.494689	-20.084692	-18.883572	-8.457872	-25.168369	-0.991900	3.097780	2.395820	0.822996	-0.078430	0.540648	-1.000000	-1.000000	-1.000000	-1.000000	-1.000000	-1.000000	-1.000000	78.413793	0.000000	-1.000000	-1.000000	1133160.000000	1774906201.135186
10734.525000	-14992.290000	776.385000	18555.840000	8557.380000	-42514.920000	-29886.705000	-23684.175000	-36.617215	-33.704179	-34.469548	-27.074408	-27.790601	-27.027999	-14.348492	-32.071025	-4.211760	2.563680	0.549360	0.825437	-0.075317	0.538329	-1.000000	-1.000000	-1.000000	-1.000000	-1.000000	-1.000000	-1.000000	78.413793	0.000000	-1.000000	-1.000000	1133161.000000	1774906201.135192
10765.485000	-14985.225000	793.350000	18549.765000	8544.105000	-42528.870000	-29890.620000	-23638.995000	-34.059265	-30.281019	-30.789185	-26.437066	-28.511879	-28.240237	-16.694831	-32.792996	-4.211760	2.563680	0.549360	0.825437	-0.075317	0.538329	-1.000000	-1.000000	-1.000000	-1.000000	-1.000000	-1.000000	-1.000000	78.413793	0.000000	-1.000000	-1.000000	1133162.000000	1774906201.135197
10783.170000	-14966.055000	803.385000	18559.575000	8552.025000	-42524.820000	-29894.085000	-23625.045000	-20.594673	-19.916654	-17.211899	-18.644350	-22.207418	-22.551274	-15.928824	-23.455267	-4.211760	2.563680	0.549360	0.825437	-0.075317	0.538329	-1.000000	-1.000000	-1.000000	-1.000000	-1.000000	-1.000000	-1.000000	78.413793	0.000000	-1.000000	-1.000000	1133163.000000	1774906201.145210
10768.455000	-14973.615000	772.605000	18549.090000	8558.730000	-42515.145000	-29895.255000	-23627.565000	-0.146327	-4.971474	2.059899	-5.412208	-10.232040	-11.297238	-11.929000	-3.797318	-4.211760	2.563680	0.549360	0.825437	-0.075317	0.538329	-1.000000	-1.000000	-1.000000	-1.000000	-1.000000	-1.000000	-1.000000	78.413793	0.000000	-1.000000	-1.000000	1133164.000000	1774906201.145228
10768.950000	-14977.305000	751.995000	18537.615000	8556.390000	-42511.995000	-29891.385000	-23618.880000	21.008093	13.136614	20.810193	10.927451	6.762460	5.318573	-2.714329	21.280087	-4.211760	2.563680	0.549360	0.825437	-0.075317	0.538329	-1.000000	-1.000000	-1.000000	-1.000000	-1.000000	-1.000000	-1.000000	78.413793	0.000000	-1.000000	-1.000000	1133165.000000	1774906201.145244
10770.615000	-14977.755000	772.155000	18552.105000	8559.135000	-42510.330000	-29882.655000	-23619.105000	34.686737	28.603413	32.625265	25.014270	23.844513	22.830362	10.145841	40.668867	-4.211760	2.563680	0.549360	0.825437	-0.075317	0.538329	-1.000000	-1.000000	-1.000000	-1.000000	-1.000000	-1.000000	-1.000000	78.413793	0.000000	-1.000000	-1.000000	1133166.000000	1774906201.145252
10772.730000	-14987.475000	794.565000	18556.875000	8551.080000	-42518.745000	-29880.720000	-23620.455000	33.365836	31.913056	32.638999	29.333205	31.181647	31.155688	19.356453	42.233756	-4.211760	2.563680	0.549360	0.825437	-0.075317	0.538329	-1.000000	-1.000000	-1.000000	-1.000000	-1.000000	-1.000000	-1.000000	78.413793	0.000000	-1.000000	-1.000000	1133167.000000	1774906201.145841
10757.880000	-14986.485000	801.090000	18556.605000	8545.095000	-42524.505000	-29881.980000	-23626.755000	16.465494	19.032334	20.575117	20.194747	22.619368	23.443583	18.370625	23.571017	-4.211760	2.563680	0.549360	0.825437	-0.075317	0.538329	-1.000000	-1.000000	-1.000000	-1.000000	-1.000000	-1.000000	-1.000000	78.413793	0.000000	-1.000000	-1.000000	1133168.000000	1774906201.145852
10756.485000	-14969.655000	816.255000	18578.655000	8565.120000	-42508.800000	-29870.415000	-23636.205000	-7.333498	-2.653843	2.089902	2.041838	2.821800	3.890706	8.139912	-4.775247	-4.211760	2.563680	0.549360	0.825437	-0.075317	0.538329	-1.000000	-1.000000	-1.000000	-1.000000	-1.000000	-1.000000	-1.000000	78.413793	0.000000	-1.000000	-1.000000	1133169.000000	1774906201.151266
10754.460000	-14965.965000	817.785000	18589.905000	8590.770000	-42482.070000	-29862.630000	-23677.740000	-26.408808	-20.249728	-14.410366	-14.877175	-15.583490	-14.921047	-4.171109	-29.290844	-4.211760	2.563680	0.549360	0.825437	-0.075317	0.538329	-1.000000	-1.000000	-1.000000	-1.000000	-1.000000	-1.000000	-1.000000	78.413793	0.000000	-1.000000	-1.000000	1133170.000000	1774906201.151282
10747.845000	-14956.560000	828.495000	18603.585000	8607.105000	-42465.465000	-29860.920000	-23689.440000	-33.689936	-25.772793	-23.108220	-21.927529	-21.906840	-21.928972	-11.856523	-42.679662	-8.652420	2.609460	0.137340	0.826231	-0.074829	0.536192	-1.000000	-1.000000	-1.000000	-1.000000	-1.000000	-1.000000	-1.000000	78.413793	0.000000	-1.000000	-1.000000	1133171.000000	1774906201.153962
10748.385000	-14971.005000	805.140000	18577.845000	8576.820000	-42495.525000	-29868.975000	-23639.670000	-27.973791	-19.429642	-22.578681	-17.645892	-15.220279	-15.693705	-12.613521	-41.231128	-8.652420	2.609460	0.137340	0.826231	-0.074829	0.536192	-1.000000	-1.000000	-1.000000	-1.000000	-1.000000	-1.000000	-1.000000	78.413793	0.000000	-1.000000	-1.000000	1133172.000000	1774906201.154053
10775.655000	-14962.230000	794.880000	18562.995000	8559.495000	-42510.015000	-29864.565000	-23585.670000	-11.273211	-5.844170	-14.100631	-6.753087	-3.034039	-3.544552	-7.596443	-21.850280	-8.652420	2.609460	0.137340	0.826231	-0.074829	0.536192	-1.000000	-1.000000	-1.000000	-1.000000	-1.000000	-1.000000	-1.000000	78.413793	0.000000	-1.000000	-1.000000	1133173.000000	1774906201.158094
10791.180000	-14938.560000	818.055000	18588.105000	8588.430000	-42478.785000	-29858.940000	-23585.940000	11.207644	9.419921	-0.781211	4.700817	6.848204	6.542369	0.183103	10.552776	-8.652420	2.609460	0.137340	0.826231	-0.074829	0.536192	-1.000000	-1.000000	-1.000000	-1.000000	-1.000000	-1.000000	-1.000000	78.413793	0.000000	-1.000000	-1.000000	1133174.000000	1774906201.158104
10808.910000	-14920.830000	834.795000	18607.635000	8612.325000	-42453.315000	-29846.880000	-23581.890000	29.935984	20.599702	11.900322	12.386546	11.535188	11.508437	6.625464	39.427061	-8.652420	2.609460	0.137340	0.826231	-0.074829	0.536192	-1.000000	-1.000000	-1.000000	-1.000000	-1.000000	-1.000000	-1.000000	78.413793	0.000000	-1.000000	-1.000000	1133175.000000	1774906201.161870
10827.045000	-14930.190000	816.615000	18586.260000	8594.190000	-42474.060000	-29865.015000	-23578.785000	35.859275	22.840521	17.315894	13.579539	11.166498	11.405314	8.254084	48.480857	-8.652420	2.609460	0.137340	0.826231	-0.074829	0.536192	-1.000000	-1.000000	-1.000000	-1.000000	-1.000000	-1.000000	-1.000000	78.413793	0.000000	-1.000000	-1.000000	1133176.000000	1774906201.161880
10784.115000	-14975.145000	774.405000	18540.180000	8541.810000	-42529.680000	-29896.155000	-23602.365000	26.583252	14.195151	11.674627	6.888046	5.440541	5.742311	3.928738	34.390390	-8.652420	2.609460	0.137340	0.826231	-0.074829	0.536192	-1.000000	-1.000000	-1.000000	-1.000000	-1.000000	-1.000000	-1.000000	78.413793	0.000000	-1.000000	-1.000000	1133177.000000	1774906201.167256
10808.055000	-14958.945000	810.360000	18572.670000	8569.845000	-42501.015000	-29863.215000	-23611.500000	6.729122	-2.440699	-1.882953	-5.390353	-4.929967	-4.860445	-3.919917	6.549899	-8.652420	2.609460	0.137340	0.826231	-0.074829	0.536192	-1.000000	-1.000000	-1.000000	-1.000000	-1.000000	-1.000000	-1.000000	78.413793	0.000000	-1.000000	-1.000000	1133178.000000	1774906201.167264
10956.645000	-14810.580000	961.515000	18720.720000	8709.390000	-42365.115000	-29754.405000	-23486.940000	-12.435722	-16.818443	-12.006718	-13.876675	-12.966339	-13.252604	-8.250435	-18.813297	-8.652420	2.609460	0.137340	0.826231	-0.074829	0.536192	-1.000000	-1.000000	-1.000000	-1.000000	-1.000000	-1.000000	-1.000000	78.413793	0.000000	-1.000000	-1.000000	1133179.000000	1774906201.171345
10968.750000	-14786.280000	982.890000	18749.295000	8743.770000	-42329.115000	-29740.095000	-23436.135000	-18.062201	-16.535953	-7.232493	-7.916237	-8.709240	-9.273158	-2.335172	-26.643591	-8.652420	2.609460	0.137340	0.826231	-0.074829	0.536192	-1.000000	-1.000000	-1.000000	-1.000000	-1.000000	-1.000000	-1.000000	78.413793	0.000000	-1.000000	-1.000000	1133180.000000	1774906201.171352
10841.445000	-14913.990000	856.485000	18628.875000	8629.740000	-42440.850000	-29841.570000	-23567.895000	-10.664848	-2.760642	8.822145	9.249106	6.360857	5.772626	9.683269	-17.404379	-5.386780	5.600420	0.518840	0.823911	-0.082092	0.535765	-1.000000	-1.000000	-1.000000	-1.000000	-1.000000	-1.000000	-1.000000	78.413793	0.000000	-1.000000	-1.000000	1133181.000000	1774906201.174075
10659.645000	-15107.400000	663.165000	18435.195000	8436.060000	-42632.145000	-29969.145000	-23745.105000	-7.452289	5.643646	16.106206	17.818791	14.611429	14.336735	12.754722	-10.289985	-5.386780	5.600420	0.518840	0.823911	-0.082092	0.535765	-1.000000	-1.000000	-1.000000	-1.000000	-1.000000	-1.000000	-1.000000	78.413793	0.000000	-1.000000	-1.000000	1133182.000000	1774906201.174084
10677.105000	-15087.330000	685.890000	18460.125000	8458.785000	-42610.995000	-29936.295000	-23703.345000	-20.688880	-6.292823	0.088541	2.738806	1.254480	1.431164	-1.633259	-19.338013	-5.386780	5.600420	0.518840	0.823911	-0.082092	0.535765	-1.000000	-1.000000	-1.000000	-1.000000	-1.000000	-1.000000	-1.000000	78.413793	0.000000	-1.000000	-1.000000	1133183.000000	1774906201.178898
10738.620000	-15014.115000	754.560000	18533.295000	8532.180000	-42540.210000	-29902.680000	-23668.605000	-38.645529	-27.822157	-27.510463	-24.761508	-23.862310	-23.443264	-22.151198	-33.036008	-5.386780	5.600420	0.518840	0.823911	-0.082092	0.535765	-1.000000	-1.000000	-1.000000	-1.000000	-1.000000	-1.000000	-1.000000	78.413793	0.000000	-1.000000	-1.000000	1133184.000000	1774906201.178907
10750.050000	-15002.190000	751.995000	18526.230000	8524.755000	-42546.060000	-29926.125000	-23687.460000	-38.132534	-33.386817	-39.681190	-37.544760	-34.955604	-34.593574	-29.466280	-30.133506	-5.386780	5.600420	0.518840	0.823911	-0.082092	0.535765	-1.000000	-1.000000	-1.000000	-1.000000	-1.000000	-1.000000	-1.000000	78.413793	0.000000	-1.000000	-1.000000	1133185.000000	1774906201.183329
10726.425000	-15013.035000	740.880000	18508.275000	8506.035000	-42563.520000	-29934.720000	-23707.260000	-11.613615	-12.367614	-23.870588	-22.944961	-19.815558	-19.496057	-17.083857	-5.906930	-5.386780	5.600420	0.518840	0.823911	-0.082092	0.535765	-1.000000	-1.000000	-1.000000	-1.000000	-1.000000	-1.000000	-1.000000	78.413793	0.000000	-1.000000	-1.000000	1133186.000000	1774906201.183339
10727.955000	-14991.930000	769.905000	18538.785000	8533.845000	-42540.750000	-29899.665000	-23691.420000	24.948956	20.986089	7.584270	6.762784	9.441768	9.925830	5.145318	25.623767	-5.386780	5.600420	0.518840	0.823911	-0.082092	0.535765	-1.000000	-1.000000	-1.000000	-1.000000	-1.000000	-1.000000	-1.000000	78.413793	0.000000	-1.000000	-1.000000	1133187.000000	1774906201.185813
10735.695000	-14988.555000	769.725000	18546.930000	8546.355000	-42526.215000	-29877.570000	-23673.780000	47.450712	42.700139	31.840933	29.506844	31.086887	31.676960	22.515490	45.595581	-5.386780	5.600420	0.518840	0.823911	-0.082092	0.535765	-1.000000	-1.000000	-1.000000	-1.000000	-1.000000	-1.000000	-1.000000	78.413793	0.000000	-1.000000	-1.000000	1133188.000000	1774906201.185822
10743.300000	-14998.590000	754.425000	18531.135000	8533.935000	-42536.205000	-29881.080000	-23668.695000	45.303801	40.393519	35.826575	33.119806	33.376313	33.800174	27.402287	44.455251	-5.386780	5.600420	0.518840	0.823911	-0.082092	0.535765	-1.000000	-1.000000	-1.000000	-1.000000	-1.000000	-1.000000	-1.000000	78.413793	0.000000	-1.000000	-1.000000	1133189.000000	1774906201.191372
10773.495000	-14970.555000	787.545000	18556.425000	8558.010000	-42511.140000	-29863.845000	-23641.020000	29.476493	23.283441	26.301270	24.145026	23.153387	23.218721	23.623554	29.532587	-5.386780	5.600420	0.518840	0.823911	-0.082092	0.535765	-1.000000	-1.000000	-1.000000	-1.000000	-1.000000	-1.000000	-1.000000	78.413793	0.000000	-1.000000	-1.000000	1133190.000000	1774906201.191384
10796.310000	-14945.130000	823.095000	18580.320000	8579.565000	-42489.360000	-29844.630000	-23606.055000	18.004870	10.307802	19.480644	17.744439	15.727270	15.357186	19.507827	16.684547	-0.488320	6.821220	-1.327620	0.824705	-0.087585	0.532775	-1.000000	-1.000000	-1.000000	-1.000000	-1.000000	-1.000000	-1.000000	78.413793	0.000000	-1.000000	-1.000000	1133191.000000	1774906201.193894
10796.670000	-14948.955000	811.800000	18568.935000	8567.235000	-42502.185000	-29850.795000	-23601.735000	14.925406	7.585912	19.423533	17.468260	14.908688	14.187620	16.127475	11.473736	-0.488320	6.821220	-1.327620	0.824705	-0.087585	0.532775	-1.000000	-1.000000	-1.000000	-1.000000	-1.000000	-1.000000	-1.000000	78.413793	0.000000	-1.000000	-1.000000	1133192.000000	1774906201.193902
10776.690000	-14977.305000	778.500000	18532.845000	8526.555000	-42545.700000	-29886.975000	-23615.370000	8.782224	4.060909	14.112868	11.979250	9.597653	8.799076	6.927304	5.326167	-0.488320	6.821220	-1.327620	0.824705	-0.087585	0.532775	-1.000000	-1.000000	-1.000000	-1.000000	-1.000000	-1.000000	-1.000000	78.413793	0.000000	-1.000000	-1.000000	1133193.000000	1774906201.198748
10717.380000	-15038.865000	725.220000	18493.155000	8492.580000	-42575.175000	-29915.730000	-23668.065000	-9.283063	-10.446427	-5.471643	-6.483906	-7.953959	-8.511191	-10.525094	-9.285898	-0.488320	6.821220	-1.327620	0.824705	-0.087585	0.532775	-1.000000	-1.000000	-1.000000	-1.000000	-1.000000	-1.000000	-1.000000	78.413793	0.000000	-1.000000	-1.000000	1133194.000000	1774906201.198758
10700.370000	-15051.780000	720.360000	18510.705000	8517.105000	-42546.195000	-29900.070000	-23665.365000	-34.021430	-32.175639	-32.739119	-30.491276	-30.326509	-30.300979	-29.099097	-28.842917	-0.488320	6.821220	-1.327620	0.824705	-0.087585	0.532775	-1.000000	-1.000000	-1.000000	-1.000000	-1.000000	-1.000000	-1.000000	78.413793	0.000000	-1.000000	-1.000000	1133195.000000	1774906201.204889
10720.125000	-15013.305000	742.995000	18527.670000	8532.045000	-42531.345000	-29894.715000	-23651.190000	-51.742104	-47.945661	-52.481301	-45.786997	-43.593882	-42.680875	-39.119033	-43.246669	-0.488320	6.821220	-1.327620	0.824705	-0.087585	0.532775	-1.000000	-1.000000	-1.000000	-1.000000	-1.000000	-1.000000	-1.000000	78.413793	0.000000	-1.000000	-1.000000	1133196.000000	1774906201.204901
10744.245000	-14990.580000	725.310000	18523.170000	8533.125000	-42530.940000	-29890.305000	-23646.465000	-51.018549	-45.758812	-52.883003	-43.596505	-40.052192	-38.438875	-35.796118	-44.424210	-0.488320	6.821220	-1.327620	0.824705	-0.087585	0.532775	-1.000000	-1.000000	-1.000000	-1.000000	-1.000000	-1.000000	-1.000000	78.413793	0.000000	-1.000000	-1.000000	1133197.000000	1774906201.205944
10773.180000	-14976.765000	730.890000	18532.440000	8545.005000	-42520.905000	-29882.745000	-23643.945000	-29.126112	-22.656854	-31.851356	-24.091352	-20.841726	-19.466760	-19.822300	-30.520954	-0.488320	6.821220	-1.327620	0.824705	-0.087585	0.532775	-1.000000	-1.000000	-1.000000	-1.000000	-1.000000	-1.000000	-1.000000	78.413793	0.000000	-1.000000	-1.000000	1133198.000000	1774906201.205954
10789.110000	-14965.560000	770.355000	18551.115000	8556.435000	-42512.625000	-29880.630000	-23641.965000	6.028134	12.373654	2.769520	5.422561	6.796590	6.790037	3.626807	-6.023313	-0.488320	6.821220	-1.327620	0.824705	-0.087585	0.532775	-1.000000	-1.000000	-1.000000	-1.000000	-1.000000	-1.000000	-1.000000	78.413793	0.000000	-1.000000	-1.000000	1133199.000000	1774906201.209937
10796.085000	-14954.715000	815.805000	18573.570000	8567.010000	-42508.305000	-29881.845000	-23639.940000	38.372506	42.359539	36.837965	32.667842	31.328791	29.423915	24.932974	19.008718	-0.488320	6.821220	-1.327620	0.824705	-0.087585	0.532775	-1.000000	-1.000000	-1.000000	-1.000000	-1.000000	-1.000000	-1.000000	78.413793	0.000000	-1.000000	-1.000000	1133200.000000	1774906201.209947
10799.280000	-14939.955000	831.780000	18583.695000	8577.225000	-42499.665000	-29888.055000	-23635.170000	52.147185	52.615203	56.146098	45.633939	41.761827	38.480994	34.463434	33.577079	-3.433500	5.661460	-3.021480	0.823972	-0.084045	0.530455	-1.000000	-1.000000	-1.000000	-1.000000	-1.000000	-1.000000	-1.000000	78.413793	0.000000	-1.000000	-1.000000	1133201.000000	1774906201.213920
10823.175000	-14907.825000	840.330000	18612.135000	8612.010000	-42460.245000	-29868.480000	-23605.965000	42.897863	41.019067	53.888752	40.513562	35.660480	32.460383	30.111846	34.005877	-3.433500	5.661460	-3.021480	0.823972	-0.084045	0.530455	-1.000000	-1.000000	-1.000000	-1.000000	-1.000000	-1.000000	-1.000000	78.413793	0.000000	-1.000000	-1.000000	1133202.000000	1774906201.213931
10878.435000	-14852.565000	912.690000	18676.755000	8669.655000	-42403.590000	-29802.690000	-23549.580000	20.751546	18.748906	34.661074	24.013059	20.487831	19.003831	18.595243	26.220219	-3.433500	5.661460	-3.021480	0.823972	-0.084045	0.530455	-1.000000	-1.000000	-1.000000	-1.000000	-1.000000	-1.000000	-1.000000	78.413793	0.000000	-1.000000	-1.000000	1133203.000000	1774906201.218015
10846.440000	-14885.010000	892.935000	18664.335000	8656.245000	-42415.965000	-29793.105000	-23580.405000	-0.516059	-1.820355	8.994619	5.245221	4.398245	5.352514	7.573217	16.870799	-3.433500	5.661460	-3.021480	0.823972	-0.084045	0.530455	-1.000000	-1.000000	-1.000000	-1.000000	-1.000000	-1.000000	-1.000000	78.413793	0.000000	-1.000000	-1.000000	1133204.000000	1774906201.218029
10759.365000	-14961.825000	793.395000	18580.545000	8575.875000	-42494.130000	-29852.820000	-23670.945000	-17.093697	-18.754599	-17.020278	-13.192975	-11.614792	-8.738141	-2.179890	4.410414	-3.433500	5.661460	-3.021480	0.823972	-0.084045	0.530455	-1.000000	-1.000000	-1.000000	-1.000000	-1.000000	-1.000000	-1.000000	78.413793	0.000000	-1.000000	-1.000000	1133205.000000	1774906201.221912
10695.420000	-15027.435000	733.545000	18511.200000	8508.330000	-42564.240000	-29912.355000	-23722.110000	-32.708728	-35.542238	-41.333040	-32.146881	-29.231162	-25.670839	-14.337273	-15.104357	-3.433500	5.661460	-3.021480	0.823972	-0.084045	0.530455	-1.000000	-1.000000	-1.000000	-1.000000	-1.000000	-1.000000	-1.000000	78.413793	0.000000	-1.000000	-1.000000	1133206.000000	1774906201.221920
10724.805000	-15034.815000	743.220000	18508.095000	8509.770000	-42558.210000	-29904.795000	-23679.270000	-45.271808	-48.755837	-57.308858	-46.959974	-43.818370	-40.871721	-27.805292	-35.339931	-3.433500	5.661460	-3.021480	0.823972	-0.084045	0.530455	-1.000000	-1.000000	-1.000000	-1.000000	-1.000000	-1.000000	-1.000000	78.413793	0.000000	-1.000000	-1.000000	1133207.000000	1774906201.225878
10781.055000	-14990.670000	794.430000	18569.880000	8563.995000	-42503.175000	-29866.365000	-23628.060000	-44.140878	-47.931292	-55.046619	-47.476019	-44.750613	-43.117574	-33.966142	-41.279776	-3.433500	5.661460	-3.021480	0.823972	-0.084045	0.530455	-1.000000	-1.000000	-1.000000	-1.000000	-1.000000	-1.000000	-1.000000	78.413793	0.000000	-1.000000	-1.000000	1133208.000000	1774906201.225889
10810.935000	-14957.415000	829.080000	18596.205000	8578.935000	-42494.130000	-29863.980000	-23597.280000	-22.482630	-26.800498	-31.534953	-27.808631	-25.845402	-25.485316	-25.265204	-24.925872	-3.433500	5.661460	-3.021480	0.823972	-0.084045	0.530455	-1.000000	-1.000000	-1.000000	-1.000000	-1.000000	-1.000000	-1.000000	78.413793	0.000000	-1.000000	-1.000000	1133209.000000	1774906201.229987
10813.095000	-14936.670000	841.005000	18584.010000	8556.435000	-42524.145000	-29881.845000	-23592.645000	11.986385	8.135483	4.550242	5.131194	5.644610	4.869774	-4.505844	5.377601	-3.433500	5.661460	-3.021480	0.823972	-0.084045	0.530455	-1.000000	-1.000000	-1.000000	-1.000000	-1.000000	-1.000000	-1.000000	78.413793	0.000000	-1.000000	-1.000000	1133210.000000	1774906201.229998
10728.720000	-15010.290000	760.770000	18508.320000	8495.460000	-42578.595000	-29908.350000	-23649.120000	40.066191	39.325634	36.137436	33.408842	31.872782	29.903850	16.095862	30.750026	-4.333840	5.615680	-2.563680	0.820310	-0.080322	0.531554	-1.000000	-1.000000	-1.000000	-1.000000	-1.000000	-1.000000	-1.000000	78.413793	0.000000	-1.000000	-1.000000	1133211.000000	1774906201.233930
10710.495000	-15042.375000	720.855000	18480.735000	8489.880000	-42573.735000	-29906.505000	-23672.160000	44.746201	49.020174	46.247479	40.180016	37.697770	35.039725	24.315967	35.241175	-4.333840	5.615680	-2.563680	0.820310	-0.080322	0.531554	-1.000000	-1.000000	-1.000000	-1.000000	-1.000000	-1.000000	-1.000000	78.413793	0.000000	-1.000000	-1.000000	1133212.000000	1774906201.233941
10733.445000	-15010.920000	749.070000	18513.135000	8519.130000	-42549.300000	-29894.715000	-23653.665000	26.360578	34.333117	32.066537	24.840410	24.058670	22.027061	18.051618	18.906800	-4.333840	5.615680	-2.563680	0.820310	-0.080322	0.531554	-1.000000	-1.000000	-1.000000	-1.000000	-1.000000	-1.000000	-1.000000	78.413793	0.000000	-1.000000	-1.000000	1133213.000000	1774906201.238520
10761.480000	-14984.640000	772.200000	18536.895000	8536.635000	-42534.450000	-29885.670000	-23636.025000	3.205277	11.097187	10.314657	5.087376	7.216113	6.702196	6.959246	-1.708398	-4.333840	5.615680	-2.563680	0.820310	-0.080322	0.531554	-1.000000	-1.000000	-1.000000	-1.000000	-1.000000	-1.000000	-1.000000	78.413793	0.000000	-1.000000	-1.000000	1133214.000000	1774906201.238532
10764.180000	-14977.305000	784.620000	18551.700000	8550.225000	-42519.870000	-29878.605000	-23636.970000	-7.219092	-2.403584	0.043199	-1.220720	1.906353	2.578142	2.090955	-10.504345	-4.333840	5.615680	-2.563680	0.820310	-0.080322	0.531554	-1.000000	-1.000000	-1.000000	-1.000000	-1.000000	-1.000000	-1.000000	78.413793	0.000000	-1.000000	-1.000000	1133215.000000	1774906201.241926
10774.575000	-14957.505000	808.110000	18575.505000	8573.220000	-42498.270000	-29872.305000	-23631.345000	-4.140163	-2.253422	3.591665	6.649383	7.779831	8.695866	4.899292	-6.754283	-4.333840	5.615680	-2.563680	0.820310	-0.080322	0.531554	-1.000000	-1.000000	-1.000000	-1.000000	-1.000000	-1.000000	-1.000000	78.413793	0.000000	-1.000000	-1.000000	1133216.000000	1774906201.241937
10801.845000	-14933.475000	833.580000	18599.895000	8594.685000	-42479.820000	-29848.275000	-23598.315000	1.253012	2.431603	9.227431	15.426848	13.399715	13.832066	8.407298	-0.509858	-4.333840	5.615680	-2.563680	0.820310	-0.080322	0.531554	-1.000000	-1.000000	-1.000000	-1.000000	-1.000000	-1.000000	-1.000000	78.413793	0.000000	-1.000000	-1.000000	1133217.000000	1774906201.251149
10820.250000	-14928.795000	834.570000	18602.460000	8597.385000	-42479.865000	-29832.255000	-23572.710000	0.669763	1.768627	6.394796	13.397262	9.666258	9.524478	7.091808	1.221755	-4.333840	5.615680	-2.563680	0.820310	-0.080322	0.531554	-1.000000	-1.000000	-1.000000	-1.000000	-1.000000	-1.000000	-1.000000	78.413793	0.000000	-1.000000	-1.000000	1133218.000000	1774906201.251162
10825.605000	-14916.420000	842.040000	18607.905000	8607.780000	-42467.220000	-29836.530000	-23579.190000	-4.751998	-6.088591	-4.940590	0.546590	-2.325178	-2.554905	1.629799	-0.873075	-4.333840	5.615680	-2.563680	0.820310	-0.080322	0.531554	-1.000000	-1.000000	-1.000000	-1.000000	-1.000000	-1.000000	-1.000000	78.413793	0.000000	-1.000000	-1.000000	1133219.000000	1774906201.251176
10825.020000	-14897.970000	865.035000	18627.930000	8627.895000	-42444.315000	-29827.485000	-23580.945000	-8.821153	-14.569765	-15.904917	-13.688184	-14.312725	-14.172341	-4.846856	-3.105078	-4.333840	5.615680	-2.563680	0.820310	-0.080322	0.531554	-1.000000	-1.000000	-1.000000	-1.000000	-1.000000	-1.000000	-1.000000	78.413793	0.000000	-1.000000	-1.000000	1133220.000000	1774906201.251183
10790.730000	-14922.405000	837.000000	18598.860000	8598.285000	-42474.195000	-29851.470000	-23600.070000	-8.375127	-16.601068	-18.481433	-20.753507	-19.975800	-19.549138	-10.631458	-3.590599	-3.815000	6.149780	-2.472120	0.822508	-0.079345	0.531432	-1.000000	-1.000000	-1.000000	-1.000000	-1.000000	-1.000000	-1.000000	78.275862	0.000000	-1.000000	-1.000000	1133221.000000	1774906201.254299
10758.960000	-14959.170000	789.345000	18550.620000	8550.720000	-42519.465000	-29881.440000	-23664.780000	-6.542121	-12.921875	-13.962155	-20.669117	-20.237923	-19.865622	-15.340648	-4.007755	-3.815000	6.149780	-2.472120	0.822508	-0.079345	0.531432	-1.000000	-1.000000	-1.000000	-1.000000	-1.000000	-1.000000	-1.000000	78.275862	0.000000	-1.000000	-1.000000	1133222.000000	1774906201.254311
10727.685000	-14996.880000	757.800000	18533.655000	8536.230000	-42531.930000	-29880.315000	-23691.015000	-7.504273	-9.515725	-9.467490	-18.316900	-18.834124	-18.518987	-17.712117	-7.109669	-3.815000	6.149780	-2.472120	0.822508	-0.079345	0.531432	-1.000000	-1.000000	-1.000000	-1.000000	-1.000000	-1.000000	-1.000000	78.275862	0.000000	-1.000000	-1.000000	1133223.000000	1774906201.257895
10747.710000	-14978.475000	772.515000	18560.295000	8569.710000	-42495.885000	-29848.140000	-23615.730000	-10.549464	-8.833172	-8.422914	-15.171605	-15.718400	-15.185487	-14.885772	-10.827081	-3.815000	6.149780	-2.472120	0.822508	-0.079345	0.531432	-1.000000	-1.000000	-1.000000	-1.000000	-1.000000	-1.000000	-1.000000	78.275862	0.000000	-1.000000	-1.000000	1133224.000000	1774906201.257905
10774.080000	-14974.875000	742.860000	18530.505000	8545.770000	-42520.230000	-29872.530000	-23592.780000	-10.886836	-7.923632	-8.824767	-9.687129	-8.864981	-8.029636	-6.110288	-8.673958	-3.815000	6.149780	-2.472120	0.822508	-0.079345	0.531432	-1.000000	-1.000000	-1.000000	-1.000000	-1.000000	-1.000000	-1.000000	78.275862	0.000000	-1.000000	-1.000000	1133225.000000	1774906201.261757
10753.515000	-15008.310000	724.230000	18509.715000	8518.320000	-42549.030000	-29904.435000	-23660.910000	-5.768960	-4.367789	-8.293266	-2.841259	-0.017575	0.889078	3.725901	-0.178551	-3.815000	6.149780	-2.472120	0.822508	-0.079345	0.531432	-1.000000	-1.000000	-1.000000	-1.000000	-1.000000	-1.000000	-1.000000	78.275862	0.000000	-1.000000	-1.000000	1133226.000000	1774906201.261763
10712.475000	-15027.120000	737.370000	18504.720000	8500.995000	-42565.455000	-29919.645000	-23686.380000	1.683433	0.378461	-5.277359	3.030818	6.733150	7.359098	8.393952	6.228281	-3.815000	6.149780	-2.472120	0.822508	-0.079345	0.531432	-1.000000	-1.000000	-1.000000	-1.000000	-1.000000	-1.000000	-1.000000	78.275862	0.000000	-1.000000	-1.000000	1133227.000000	1774906201.266046
10735.155000	-14992.380000	782.370000	18533.655000	8526.285000	-42539.715000	-29903.085000	-23675.940000	7.115272	4.942554	2.600135	8.445640	10.388683	10.378195	7.402342	5.483885	-3.815000	6.149780	-2.472120	0.822508	-0.079345	0.531432	-1.000000	-1.000000	-1.000000	-1.000000	-1.000000	-1.000000	-1.000000	78.275862	0.000000	-1.000000	-1.000000	1133228.000000	1774906201.266056
10752.975000	-14989.635000	782.235000	18541.980000	8532.225000	-42534.990000	-29894.670000	-23674.815000	10.871471	10.538332	15.477010	15.027044	13.031706	12.052428	5.384394	2.210708	-3.815000	6.149780	-2.472120	0.822508	-0.079345	0.531432	-1.000000	-1.000000	-1.000000	-1.000000	-1.000000	-1.000000	-1.000000	78.275862	0.000000	-1.000000	-1.000000	1133229.000000	1774906201.269868
10772.910000	-14980.455000	786.870000	18550.530000	8546.085000	-42522.795000	-29887.380000	-23653.800000	15.572628	17.374415	28.099662	21.828128	16.251874	14.238657	6.347478	3.138900	-3.815000	6.149780	-2.472120	0.822508	-0.079345	0.531432	-1.000000	-1.000000	-1.000000	-1.000000	-1.000000	-1.000000	-1.000000	78.275862	0.000000	-1.000000	-1.000000	1133230.000000	1774906201.269879
10809.990000	-14935.320000	830.070000	18592.155000	8585.595000	-42490.575000	-29884.230000	-23611.545000	21.140799	23.311401	34.143286	26.242299	20.030040	17.378383	10.438432	10.739807	-0.854560	7.782600	-2.670500	0.826353	-0.080749	0.532286	-1.000000	-1.000000	-1.000000	-1.000000	-1.000000	-1.000000	-1.000000	78.275862	0.000000	-1.000000	-1.000000	1133231.000000	1774906201.273966
10804.995000	-14923.890000	843.930000	18604.935000	8597.430000	-42479.415000	-29873.115000	-23604.255000	23.977644	25.800856	31.025707	25.811636	22.299281	19.646872	14.029066	21.151542	-0.854560	7.782600	-2.670500	0.826353	-0.080749	0.532286	-1.000000	-1.000000	-1.000000	-1.000000	-1.000000	-1.000000	-1.000000	78.275862	0.000000	-1.000000	-1.000000	1133232.000000	1774906201.273973
10758.465000	-14959.035000	818.235000	18584.955000	8583.120000	-42489.720000	-29866.095000	-23653.395000	17.991314	20.904688	18.252825	17.565446	18.245581	16.348538	12.577301	23.700635	-0.854560	7.782600	-2.670500	0.826353	-0.080749	0.532286	-1.000000	-1.000000	-1.000000	-1.000000	-1.000000	-1.000000	-1.000000	78.275862	0.000000	-1.000000	-1.000000	1133233.000000	1774906201.277905
10745.280000	-14982.480000	786.195000	18549.900000	8546.490000	-42527.430000	-29878.830000	-23673.330000	-0.288313	5.211447	-3.004432	0.318620	4.501400	4.238567	5.012913	9.884809	-0.854560	7.782600	-2.670500	0.826353	-0.080749	0.532286	-1.000000	-1.000000	-1.000000	-1.000000	-1.000000	-1.000000	-1.000000	78.275862	0.000000	-1.000000	-1.000000	1133234.000000	1774906201.277915
10869.345000	-14868.450000	876.060000	18629.640000	8624.880000	-42448.005000	-29804.220000	-23552.325000	-22.390221	-15.438603	-25.263662	-19.707093	-13.877761	-11.977844	-4.082470	-12.638097	-0.854560	7.782600	-2.670500	0.826353	-0.080749	0.532286	-1.000000	-1.000000	-1.000000	-1.000000	-1.000000	-1.000000	-1.000000	78.275862	0.000000	-1.000000	-1.000000	1133235.000000	1774906201.283487
10884.780000	-14869.845000	878.985000	18632.655000	8629.380000	-42441.120000	-29814.525000	-23528.520000	-31.114960	-27.124158	-36.663795	-30.888144	-25.334910	-21.672722	-8.277339	-24.520914	-0.854560	7.782600	-2.670500	0.826353	-0.080749	0.532286	-1.000000	-1.000000	-1.000000	-1.000000	-1.000000	-1.000000	-1.000000	78.275862	0.000000	-1.000000	-1.000000	1133236.000000	1774906201.283498
10780.335000	-14987.115000	769.545000	18530.190000	8527.545000	-42545.205000	-29910.825000	-23646.870000	-21.556214	-25.436440	-33.979115	-29.269348	-25.419946	-21.319407	-8.274381	-18.872985	-0.854560	7.782600	-2.670500	0.826353	-0.080749	0.532286	-1.000000	-1.000000	-1.000000	-1.000000	-1.000000	-1.000000	-1.000000	78.275862	0.000000	-1.000000	-1.000000	1133237.000000	1774906201.287504
10710.945000	-15053.805000	701.595000	18458.955000	8455.635000	-42616.035000	-29968.245000	-23713.065000	-8.421462	-20.811098	-26.227083	-23.199808	-21.924842	-18.991042	-11.891943	-9.212697	-0.854560	7.782600	-2.670500	0.826353	-0.080749	0.532286	-1.000000	-1.000000	-1.000000	-1.000000	-1.000000	-1.000000	-1.000000	78.275862	0.000000	-1.000000	-1.000000	1133238.000000	1774906201.287520
10735.830000	-15032.520000	726.165000	18499.140000	8497.800000	-42572.430000	-29922.480000	-23669.415000	-5.284415	-20.722036	-20.151729	-19.290815	-20.813841	-19.962528	-20.349682	-8.059994	-0.854560	7.782600	-2.670500	0.826353	-0.080749	0.532286	-1.000000	-1.000000	-1.000000	-1.000000	-1.000000	-1.000000	-1.000000	78.275862	0.000000	-1.000000	-1.000000	1133239.000000	1774906201.289924
10724.940000	-15035.355000	728.595000	18503.640000	8502.750000	-42563.790000	-29887.650000	-23661.990000	-9.375973	-20.026292	-12.529485	-13.749880	-17.397958	-18.295254	-23.401322	-11.811003	-0.854560	7.782600	-2.670500	0.826353	-0.080749	0.532286	-1.000000	-1.000000	-1.000000	-1.000000	-1.000000	-1.000000	-1.000000	78.275862	0.000000	-1.000000	-1.000000	1133240.000000	1774906201.289934
10733.310000	-15009.705000	750.285000	18515.430000	8511.255000	-42558.525000	-29871.945000	-23650.245000	-10.084161	-10.933239	1.057208	-1.610591	-6.036566	-7.635278	-12.802117	-10.740528	0.061040	7.813120	-1.312360	0.825010	-0.078186	0.533446	-1.000000	-1.000000	-1.000000	-1.000000	-1.000000	-1.000000	-1.000000	78.275862	0.000000	-1.000000	-1.000000	1133241.000000	1774906201.295173
10762.875000	-14972.220000	778.590000	18540.405000	8536.185000	-42534.405000	-29868.615000	-23647.410000	-1.149564	7.977528	19.554349	15.728393	11.774026	10.164051	7.338454	-1.177535	0.061040	7.813120	-1.312360	0.825010	-0.078186	0.533446	-1.000000	-1.000000	-1.000000	-1.000000	-1.000000	-1.000000	-1.000000	78.275862	0.000000	-1.000000	-1.000000	1133242.000000	1774906201.295182
10756.395000	-14969.520000	783.585000	18549.000000	8548.155000	-42519.645000	-29872.305000	-23649.390000	14.527260	30.034837	36.708310	32.075119	29.472995	27.971511	25.150247	12.664760	0.061040	7.813120	-1.312360	0.825010	-0.078186	0.533446	-1.000000	-1.000000	-1.000000	-1.000000	-1.000000	-1.000000	-1.000000	78.275862	0.000000	-1.000000	-1.000000	1133243.000000	1774906201.297946
10751.535000	-14967.720000	794.070000	18559.305000	8556.750000	-42512.310000	-29868.795000	-23638.005000	25.802205	42.299799	42.763744	38.824251	38.263269	36.935685	30.249040	21.461229	0.061040	7.813120	-1.312360	0.825010	-0.078186	0.533446	-1.000000	-1.000000	-1.000000	-1.000000	-1.000000	-1.000000	-1.000000	78.275862	0.000000	-1.000000	-1.000000	1133244.000000	1774906201.297953
10775.025000	-14956.020000	809.685000	18573.660000	8569.935000	-42500.160000	-29852.910000	-23621.490000	24.367466	36.346930	32.504513	31.182135	32.758861	31.717993	21.278032	19.596187	0.061040	7.813120	-1.312360	0.825010	-0.078186	0.533446	-1.000000	-1.000000	-1.000000	-1.000000	-1.000000	-1.000000	-1.000000	78.275862	0.000000	-1.000000	-1.000000	1133245.000000	1774906201.302016
10797.030000	-14946.345000	815.490000	18580.230000	8575.200000	-42496.380000	-29857.410000	-23619.375000	15.201434	18.499446	13.123888	14.882514	17.687395	16.956067	7.292492	12.393144	0.061040	7.813120	-1.312360	0.825010	-0.078186	0.533446	-1.000000	-1.000000	-1.000000	-1.000000	-1.000000	-1.000000	-1.000000	78.275862	0.000000	-1.000000	-1.000000	1133246.000000	1774906201.302027
10815.480000	-14939.820000	812.835000	18577.170000	8571.780000	-42500.655000	-29863.350000	-23599.665000	8.681300	1.911403	-3.214651	0.123646	2.719271	2.303738	-2.077600	8.242850	0.061040	7.813120	-1.312360	0.825010	-0.078186	0.533446	-1.000000	-1.000000	-1.000000	-1.000000	-1.000000	-1.000000	-1.000000	78.275862	0.000000	-1.000000	-1.000000	1133247.000000	1774906201.306051
10853.100000	-14913.810000	815.445000	18590.940000	8592.030000	-42476.445000	-29835.180000	-23549.715000	7.061926	-7.669166	-12.263082	-9.527190	-8.151097	-8.159967	-5.816826	7.703628	0.061040	7.813120	-1.312360	0.825010	-0.078186	0.533446	-1.000000	-1.000000	-1.000000	-1.000000	-1.000000	-1.000000	-1.000000	78.275862	0.000000	-1.000000	-1.000000	1133248.000000	1774906201.306065
10890.585000	-14857.470000	846.855000	18649.710000	8663.760000	-42399.630000	-29778.750000	-23485.095000	5.739923	-11.902523	-16.985429	-15.678682	-15.349130	-14.718489	-7.500427	6.501918	0.061040	7.813120	-1.312360	0.825010	-0.078186	0.533446	-1.000000	-1.000000	-1.000000	-1.000000	-1.000000	-1.000000	-1.000000	78.275862	0.000000	-1.000000	-1.000000	1133249.000000	1774906201.310028
10895.985000	-14841.405000	859.320000	18658.035000	8668.530000	-42398.370000	-29786.805000	-23523.120000	1.194096	-12.970382	-19.303999	-18.137821	-17.785058	-16.345024	-8.413219	2.133056	0.061040	7.813120	-1.312360	0.825010	-0.078186	0.533446	-1.000000	-1.000000	-1.000000	-1.000000	-1.000000	-1.000000	-1.000000	78.275862	0.000000	-1.000000	-1.000000	1133250.000000	1774906201.310038
10782.450000	-14963.625000	772.920000	18548.550000	8554.770000	-42510.735000	-29871.495000	-23679.630000	-8.773460	-14.441832	-19.908353	-17.866187	-16.980085	-15.052113	-9.577037	-8.249744	-2.517900	6.867000	0.030520	0.822141	-0.073547	0.532164	-1.000000	-1.000000	-1.000000	-1.000000	-1.000000	-1.000000	-1.000000	78.275862	0.000000	-1.000000	-1.000000	1133251.000000	1774906201.315912
10688.490000	-15070.005000	711.270000	18454.635000	8457.030000	-42605.865000	-29940.255000	-23743.800000	-26.104944	-22.518970	-21.750530	-20.733854	-20.129095	-18.475975	-14.265499	-27.421612	-2.517900	6.867000	0.030520	0.822141	-0.073547	0.532164	-1.000000	-1.000000	-1.000000	-1.000000	-1.000000	-1.000000	-1.000000	78.275862	0.000000	-1.000000	-1.000000	1133252.000000	1774906201.315926
10704.870000	-15042.285000	721.125000	18467.730000	8464.500000	-42603.840000	-29938.230000	-23703.930000	-45.575453	-36.228410	-25.289208	-28.525188	-29.425114	-28.757122	-22.162044	-48.034179	-2.517900	6.867000	0.030520	0.822141	-0.073547	0.532164	-1.000000	-1.000000	-1.000000	-1.000000	-1.000000	-1.000000	-1.000000	78.275862	0.000000	-1.000000	-1.000000	1133253.000000	1774906201.317938
10717.110000	-14994.540000	732.060000	18504.135000	8489.205000	-42585.435000	-29917.890000	-23677.920000	-52.130825	-40.881380	-23.408798	-30.933255	-33.854475	-34.586031	-24.878809	-51.811557	-2.517900	6.867000	0.030520	0.822141	-0.073547	0.532164	-1.000000	-1.000000	-1.000000	-1.000000	-1.000000	-1.000000	-1.000000	78.275862	0.000000	-1.000000	-1.000000	1133254.000000	1774906201.317947
10731.060000	-14999.085000	749.520000	18506.250000	8496.270000	-42571.755000	-29902.995000	-23658.795000	-34.322662	-22.783066	-8.690975	-16.168446	-20.490567	-22.499060	-13.590187	-27.514895	-2.517900	6.867000	0.030520	0.822141	-0.073547	0.532164	-1.000000	-1.000000	-1.000000	-1.000000	-1.000000	-1.000000	-1.000000	78.275862	0.000000	-1.000000	-1.000000	1133255.000000	1774906201.322207
10786.545000	-14972.580000	810.720000	18547.695000	8535.735000	-42531.885000	-29890.170000	-23625.045000	2.820829	12.901455	16.763359	13.553329	9.514184	7.178579	9.719635	14.988301	-2.517900	6.867000	0.030520	0.822141	-0.073547	0.532164	-1.000000	-1.000000	-1.000000	-1.000000	-1.000000	-1.000000	-1.000000	78.275862	0.000000	-1.000000	-1.000000	1133256.000000	1774906201.322218
10803.690000	-14956.245000	827.460000	18570.285000	8557.695000	-42513.210000	-29882.970000	-23612.130000	41.347215	46.120341	41.635885	42.806368	40.795457	39.284984	31.811547	51.834370	-2.517900	6.867000	0.030520	0.822141	-0.073547	0.532164	-1.000000	-1.000000	-1.000000	-1.000000	-1.000000	-1.000000	-1.000000	78.275862	0.000000	-1.000000	-1.000000	1133257.000000	1774906201.326145
10779.705000	-14976.090000	799.650000	18547.245000	8537.985000	-42529.635000	-29882.070000	-23627.835000	62.062588	58.251095	51.806568	54.768737	55.392711	55.115853	38.954681	63.121334	-2.517900	6.867000	0.030520	0.822141	-0.073547	0.532164	-1.000000	-1.000000	-1.000000	-1.000000	-1.000000	-1.000000	-1.000000	78.275862	0.000000	-1.000000	-1.000000	1133258.000000	1774906201.326155
10751.490000	-14995.665000	761.580000	18520.470000	8515.530000	-42550.380000	-29888.370000	-23631.795000	55.560260	43.999150	39.234619	42.447076	45.314224	46.079253	28.369070	46.702446	-2.517900	6.867000	0.030520	0.822141	-0.073547	0.532164	-1.000000	-1.000000	-1.000000	-1.000000	-1.000000	-1.000000	-1.000000	78.275862	0.000000	-1.000000	-1.000000	1133259.000000	1774906201.330133
10759.995000	-14965.290000	773.325000	18543.195000	8538.255000	-42529.140000	-29875.005000	-23618.295000	29.142494	15.535323	10.434766	15.078269	19.526642	20.986818	9.988352	18.443985	-2.517900	6.867000	0.030520	0.822141	-0.073547	0.532164	-1.000000	-1.000000	-1.000000	-1.000000	-1.000000	-1.000000	-1.000000	78.275862	0.000000	-1.000000	-1.000000	1133260.000000	1774906201.330144
10844.145000	-14876.865000	857.835000	18616.230000	8607.420000	-42459.165000	-29809.440000	-23550.930000	1.757039	-6.302637	-16.234856	-8.224744	-3.156266	-1.550761	-2.736306	-2.965096	-2.517900	5.249440	-1.770160	0.819944	-0.071350	0.533629	-1.000000	-1.000000	-1.000000	-1.000000	-1.000000	-1.000000	-1.000000	78.275862	0.000000	-1.000000	-1.000000	1133261.000000	1774906201.333975
10858.770000	-14853.105000	900.585000	18648.945000	8638.695000	-42429.780000	-29797.020000	-23555.295000	-12.213731	-10.645142	-25.501996	-15.418300	-11.097279	-9.880612	-4.223561	-11.443621	-2.517900	5.249440	-1.770160	0.819944	-0.071350	0.533629	-1.000000	-1.000000	-1.000000	-1.000000	-1.000000	-1.000000	-1.000000	78.275862	0.000000	-1.000000	-1.000000	1133262.000000	1774906201.333984
10796.670000	-14918.760000	856.530000	18597.645000	8587.260000	-42483.960000	-29856.105000	-23629.410000	-14.355471	-5.545715	-17.862835	-11.117435	-8.743002	-8.126693	-0.974401	-14.421452	-2.517900	5.249440	-1.770160	0.819944	-0.071350	0.533629	-1.000000	-1.000000	-1.000000	-1.000000	-1.000000	-1.000000	-1.000000	78.275862	0.000000	-1.000000	-1.000000	1133263.000000	1774906201.345233
10705.005000	-15044.175000	734.760000	18487.485000	8484.660000	-42585.840000	-29925.990000	-23707.935000	-17.296818	-7.729191	-8.577538	-9.914307	-9.910473	-9.984895	-4.639951	-22.373903	-2.517900	5.249440	-1.770160	0.819944	-0.071350	0.533629	-1.000000	-1.000000	-1.000000	-1.000000	-1.000000	-1.000000	-1.000000	78.275862	0.000000	-1.000000	-1.000000	1133264.000000	1774906201.345242
10688.220000	-15041.205000	732.060000	18495.270000	8496.000000	-42571.080000	-29907.315000	-23718.240000	-29.292924	-24.435941	-12.256476	-20.781635	-22.673965	-23.444602	-18.836620	-37.101738	-2.517900	5.249440	-1.770160	0.819944	-0.071350	0.533629	-1.000000	-1.000000	-1.000000	-1.000000	-1.000000	-1.000000	-1.000000	78.275862	0.000000	-1.000000	-1.000000	1133265.000000	1774906201.345252
10693.080000	-15014.430000	753.210000	18514.035000	8513.325000	-42551.190000	-29893.095000	-23701.995000	-43.619704	-44.308130	-25.983118	-36.419640	-39.272566	-40.340968	-33.770728	-48.075928	-2.517900	5.249440	-1.770160	0.819944	-0.071350	0.533629	-1.000000	-1.000000	-1.000000	-1.000000	-1.000000	-1.000000	-1.000000	78.275862	0.000000	-1.000000	-1.000000	1133266.000000	1774906201.345257
10719.135000	-15002.280000	759.240000	18519.570000	8517.960000	-42545.610000	-29898.315000	-23686.335000	-44.194915	-47.675933	-32.315382	-40.015438	-43.142854	-43.863265	-35.982041	-41.265444	-2.517900	5.249440	-1.770160	0.819944	-0.071350	0.533629	-1.000000	-1.000000	-1.000000	-1.000000	-1.000000	-1.000000	-1.000000	78.275862	0.000000	-1.000000	-1.000000	1133267.000000	1774906201.345896
10754.415000	-14996.385000	757.170000	18518.490000	8512.785000	-42550.605000	-29907.090000	-23668.470000	-21.405665	-25.729727	-19.010642	-22.436727	-25.580020	-25.622574	-20.975894	-12.457275	-2.517900	5.249440	-1.770160	0.819944	-0.071350	0.533629	-1.000000	-1.000000	-1.000000	-1.000000	-1.000000	-1.000000	-1.000000	78.275862	0.000000	-1.000000	-1.000000	1133268.000000	1774906201.345906
10780.290000	-14987.205000	766.305000	18529.920000	8518.095000	-42544.440000	-29893.140000	-23646.690000	17.557060	11.519246	8.898314	9.149023	6.172968	6.625580	4.108959	26.998555	-2.517900	5.249440	-1.770160	0.819944	-0.071350	0.533629	-1.000000	-1.000000	-1.000000	-1.000000	-1.000000	-1.000000	-1.000000	78.275862	0.000000	-1.000000	-1.000000	1133269.000000	1774906201.350057
10768.680000	-14965.380000	793.665000	18551.115000	8533.530000	-42533.955000	-29876.580000	-23610.780000	51.338766	42.985447	34.233322	37.010381	34.582063	35.063715	26.296695	56.770645	-2.517900	5.249440	-1.770160	0.819944	-0.071350	0.533629	-1.000000	-1.000000	-1.000000	-1.000000	-1.000000	-1.000000	-1.000000	78.275862	0.000000	-1.000000	-1.000000	1133270.000000	1774906201.350072
10738.935000	-14948.235000	819.810000	18571.095000	8553.420000	-42518.700000	-29867.220000	-23614.425000	59.895836	52.855457	42.971232	46.906337	45.626104	45.662590	35.860831	62.405492	-4.867940	3.799740	-1.724380	0.820005	-0.071594	0.534178	-1.000000	-1.000000	-1.000000	-1.000000	-1.000000	-1.000000	-1.000000	78.275862	0.000000	-1.000000	-1.000000	1133271.000000	1774906201.353966
10758.330000	-14961.870000	795.465000	18544.230000	8543.250000	-42522.750000	-29870.145000	-23608.305000	41.314817	41.760737	34.685835	38.094930	38.695608	38.131297	32.357144	45.012417	-4.867940	3.799740	-1.724380	0.820005	-0.071594	0.534178	-1.000000	-1.000000	-1.000000	-1.000000	-1.000000	-1.000000	-1.000000	78.275862	0.000000	-1.000000	-1.000000	1133272.000000	1774906201.353977
10788.885000	-14970.645000	780.885000	18533.385000	8535.330000	-42527.745000	-29888.325000	-23619.105000	11.724572	21.520276	18.135339	19.661931	22.638481	21.894652	21.268231	16.601382	-4.867940	3.799740	-1.724380	0.820005	-0.071594	0.534178	-1.000000	-1.000000	-1.000000	-1.000000	-1.000000	-1.000000	-1.000000	78.275862	0.000000	-1.000000	-1.000000	1133273.000000	1774906201.357972
10806.255000	-14957.325000	791.550000	18543.915000	8538.030000	-42527.520000	-29897.415000	-23636.610000	-11.238619	1.932262	1.057518	0.324733	5.022670	4.710436	6.613055	-11.248473	-4.867940	3.799740	-1.724380	0.820005	-0.071594	0.534178	-1.000000	-1.000000	-1.000000	-1.000000	-1.000000	-1.000000	-1.000000	78.275862	0.000000	-1.000000	-1.000000	1133274.000000	1774906201.357983
10786.230000	-14967.090000	788.670000	18546.705000	8543.655000	-42517.980000	-29880.135000	-23651.730000	-21.571016	-13.917966	-12.989189	-15.236298	-10.856487	-10.591211	-9.097476	-32.309158	-4.867940	3.799740	-1.724380	0.820005	-0.071594	0.534178	-1.000000	-1.000000	-1.000000	-1.000000	-1.000000	-1.000000	-1.000000	78.275862	0.000000	-1.000000	-1.000000	1133275.000000	1774906201.363844
10758.285000	-14985.270000	772.605000	18532.845000	8531.460000	-42527.745000	-29872.305000	-23656.815000	-23.702028	-25.242005	-21.974997	-24.131589	-22.039475	-21.449861	-20.656881	-42.956049	-4.867940	3.799740	-1.724380	0.820005	-0.071594	0.534178	-1.000000	-1.000000	-1.000000	-1.000000	-1.000000	-1.000000	-1.000000	78.275862	0.000000	-1.000000	-1.000000	1133276.000000	1774906201.363854
10755.405000	-14986.080000	771.795000	18530.550000	8526.780000	-42535.260000	-29882.655000	-23658.345000	-23.660814	-30.259629	-24.295180	-24.881070	-25.508881	-24.877486	-22.921809	-40.858713	-4.867940	3.799740	-1.724380	0.820005	-0.071594	0.534178	-1.000000	-1.000000	-1.000000	-1.000000	-1.000000	-1.000000	-1.000000	78.275862	0.000000	-1.000000	-1.000000	1133277.000000	1774906201.370576
10770.480000	-14974.020000	781.515000	18534.555000	8526.645000	-42537.735000	-29893.005000	-23656.995000	-22.842975	-27.595905	-20.304132	-19.014137	-21.347242	-20.977846	-16.989288	-27.852567	-4.867940	3.799740	-1.724380	0.820005	-0.071594	0.534178	-1.000000	-1.000000	-1.000000	-1.000000	-1.000000	-1.000000	-1.000000	78.275862	0.000000	-1.000000	-1.000000	1133278.000000	1774906201.370584
10780.110000	-14963.130000	792.495000	18542.520000	8535.510000	-42528.510000	-29885.085000	-23652.810000	-18.234629	-18.373403	-12.744460	-10.447132	-12.980281	-13.042191	-8.685623	-10.028984	-4.867940	3.799740	-1.724380	0.820005	-0.071594	0.534178	-1.000000	-1.000000	-1.000000	-1.000000	-1.000000	-1.000000	-1.000000	78.275862	0.000000	-1.000000	-1.000000	1133279.000000	1774906201.371001
10784.745000	-14953.905000	797.355000	18548.685000	8541.405000	-42520.500000	-29867.445000	-23628.015000	-6.984833	-5.308934	-4.220744	-2.073953	-3.763289	-4.007468	-1.523965	7.223763	-4.867940	3.799740	-1.724380	0.820005	-0.071594	0.534178	-1.000000	-1.000000	-1.000000	-1.000000	-1.000000	-1.000000	-1.000000	78.275862	0.000000	-1.000000	-1.000000	1133280.000000	1774906201.371009
10803.825000	-14925.690000	824.355000	18578.745000	8572.320000	-42487.515000	-29829.465000	-23575.635000	8.820359	9.404052	5.184501	6.498660	5.578236	5.520817	5.550518	22.042911	-2.609460	3.250380	-1.571780	0.821714	-0.076172	0.536254	-1.000000	-1.000000	-1.000000	-1.000000	-1.000000	-1.000000	-1.000000	78.275862	0.000000	-1.000000	-1.000000	1133281.000000	1774906201.375307
10896.480000	-14843.205000	904.230000	18660.735000	8655.795000	-42404.940000	-29766.870000	-23481.315000	23.125609	23.737925	16.314452	16.603886	15.692590	15.821867	14.242481	34.101426	-2.609460	3.250380	-1.571780	0.821714	-0.076172	0.536254	-1.000000	-1.000000	-1.000000	-1.000000	-1.000000	-1.000000	-1.000000	78.275862	0.000000	-1.000000	-1.000000	1133282.000000	1774906201.375317
10982.835000	-14756.310000	993.780000	18746.820000	8741.475000	-42318.855000	-29708.100000	-23419.620000	31.956619	34.567281	27.670350	26.886566	25.791608	25.800845	23.064223	41.930662	-2.609460	3.250380	-1.571780	0.821714	-0.076172	0.536254	-1.000000	-1.000000	-1.000000	-1.000000	-1.000000	-1.000000	-1.000000	78.275862	0.000000	-1.000000	-1.000000	1133283.000000	1774906201.378026
10874.610000	-14837.895000	924.300000	18674.550000	8667.675000	-42392.610000	-29787.480000	-23560.515000	32.693240	36.535389	33.382615	31.508906	30.820691	30.434656	25.779562	39.360107	-2.609460	3.250380	-1.571780	0.821714	-0.076172	0.536254	-1.000000	-1.000000	-1.000000	-1.000000	-1.000000	-1.000000	-1.000000	78.275862	0.000000	-1.000000	-1.000000	1133284.000000	1774906201.378036
10710.450000	-14986.395000	778.545000	18528.345000	8519.265000	-42543.900000	-29915.010000	-23715.585000	18.524820	21.750378	23.634488	20.904392	21.121558	20.272420	13.624772	16.385640	-2.609460	3.250380	-1.571780	0.821714	-0.076172	0.536254	-1.000000	-1.000000	-1.000000	-1.000000	-1.000000	-1.000000	-1.000000	78.275862	0.000000	-1.000000	-1.000000	1133285.000000	1774906201.383233
10607.265000	-15078.870000	692.055000	18439.290000	8433.990000	-42623.730000	-29952.180000	-23791.995000	-14.493661	-12.544057	-6.653172	-9.439218	-8.246473	-9.256563	-14.594579	-27.166682	-2.609460	3.250380	-1.571780	0.821714	-0.076172	0.536254	-1.000000	-1.000000	-1.000000	-1.000000	-1.000000	-1.000000	-1.000000	78.275862	0.000000	-1.000000	-1.000000	1133286.000000	1774906201.383252
10676.340000	-15038.550000	713.160000	18457.245000	8454.375000	-42599.790000	-29917.080000	-23709.690000	-52.790329	-52.597533	-45.767745	-47.389717	-45.260556	-45.648101	-44.099191	-69.942148	-2.609460	3.250380	-1.571780	0.821714	-0.076172	0.536254	-1.000000	-1.000000	-1.000000	-1.000000	-1.000000	-1.000000	-1.000000	78.275862	0.000000	-1.000000	-1.000000	1133287.000000	1774906201.394211
10716.705000	-15033.915000	709.785000	18451.530000	8447.940000	-42604.380000	-29907.000000	-23656.545000	-68.784133	-72.724474	-68.993762	-68.578790	-65.769606	-64.762240	-53.734498	-81.135453	-2.609460	3.250380	-1.571780	0.821714	-0.076172	0.536254	-1.000000	-1.000000	-1.000000	-1.000000	-1.000000	-1.000000	-1.000000	78.275862	0.000000	-1.000000	-1.000000	1133288.000000	1774906201.394222
10746.585000	-15001.065000	744.930000	18490.635000	8482.185000	-42574.635000	-29897.640000	-23677.650000	-46.035856	-56.633732	-58.596466	-56.257550	-53.762980	-51.559655	-35.305072	-49.180114	-2.609460	3.250380	-1.571780	0.821714	-0.076172	0.536254	-1.000000	-1.000000	-1.000000	-1.000000	-1.000000	-1.000000	-1.000000	78.275862	0.000000	-1.000000	-1.000000	1133289.000000	1774906201.394237
10760.895000	-15004.755000	747.765000	18506.925000	8496.630000	-42564.015000	-29894.625000	-23674.050000	3.388311	-11.929988	-18.417217	-15.024259	-14.361596	-12.387209	-0.048124	5.695211	-2.609460	3.250380	-1.571780	0.821714	-0.076172	0.536254	-1.000000	-1.000000	-1.000000	-1.000000	-1.000000	-1.000000	-1.000000	78.275862	0.000000	-1.000000	-1.000000	1133290.000000	1774906201.394243
10754.505000	-14997.780000	755.280000	18506.475000	8495.370000	-42565.680000	-29889.765000	-23659.650000	48.488017	35.257355	28.493004	31.877715	29.899372	30.077887	31.381061	50.093848	0.152600	4.028640	-2.044840	0.822569	-0.079590	0.535582	-1.000000	-1.000000	-1.000000	-1.000000	-1.000000	-1.000000	-1.000000	78.275862	0.000000	-1.000000	-1.000000	1133291.000000	1774906201.394249
10762.740000	-14982.975000	760.455000	18508.455000	8497.305000	-42561.990000	-29889.225000	-23648.085000	64.282652	60.155898	56.928301	59.135717	55.302552	53.338952	43.934157	64.481946	0.152600	4.028640	-2.044840	0.822569	-0.079590	0.535582	-1.000000	-1.000000	-1.000000	-1.000000	-1.000000	-1.000000	-1.000000	78.275862	0.000000	-1.000000	-1.000000	1133292.000000	1774906201.394254
10778.805000	-14972.985000	770.670000	18520.110000	8509.860000	-42549.210000	-29887.740000	-23637.150000	50.766267	57.926786	58.828549	58.893466	55.136760	52.152488	37.881181	53.680775	0.152600	4.028640	-2.044840	0.822569	-0.079590	0.535582	-1.000000	-1.000000	-1.000000	-1.000000	-1.000000	-1.000000	-1.000000	78.275862	0.000000	-1.000000	-1.000000	1133293.000000	1774906201.397942
10763.280000	-14992.020000	751.005000	18500.310000	8492.535000	-42562.890000	-29897.730000	-23638.770000	27.400122	41.607023	44.568586	42.524207	40.740888	38.482000	24.846489	35.415444	0.152600	4.028640	-2.044840	0.822569	-0.079590	0.535582	-1.000000	-1.000000	-1.000000	-1.000000	-1.000000	-1.000000	-1.000000	78.275862	0.000000	-1.000000	-1.000000	1133294.000000	1774906201.397952
10763.055000	-14982.750000	743.895000	18501.165000	8501.670000	-42552.765000	-29884.905000	-23623.605000	9.553506	23.737419	26.316401	23.453934	24.565689	24.272559	13.770107	20.263336	0.152600	4.028640	-2.044840	0.822569	-0.079590	0.535582	-1.000000	-1.000000	-1.000000	-1.000000	-1.000000	-1.000000	-1.000000	78.275862	0.000000	-1.000000	-1.000000	1133295.000000	1774906201.401899
10833.075000	-14899.905000	814.140000	18581.085000	8588.790000	-42468.345000	-29815.695000	-23551.740000	-2.328194	7.540418	8.331731	6.640686	10.328195	11.961808	5.181520	6.116030	0.152600	4.028640	-2.044840	0.822569	-0.079590	0.535582	-1.000000	-1.000000	-1.000000	-1.000000	-1.000000	-1.000000	-1.000000	78.275862	0.000000	-1.000000	-1.000000	1133296.000000	1774906201.401905
10874.430000	-14859.225000	871.470000	18631.755000	8628.480000	-42430.770000	-29783.115000	-23517.855000	-12.576958	-6.673974	-7.373826	-6.562558	-1.786500	0.563970	-2.381171	-10.360444	0.152600	4.028640	-2.044840	0.822569	-0.079590	0.535582	-1.000000	-1.000000	-1.000000	-1.000000	-1.000000	-1.000000	-1.000000	78.275862	0.000000	-1.000000	-1.000000	1133297.000000	1774906201.405941
10838.160000	-14906.655000	845.595000	18591.030000	8580.015000	-42476.040000	-29828.610000	-23572.080000	-22.239993	-18.472831	-18.529234	-16.217512	-12.760560	-11.041954	-9.688004	-26.846796	0.152600	4.028640	-2.044840	0.822569	-0.079590	0.535582	-1.000000	-1.000000	-1.000000	-1.000000	-1.000000	-1.000000	-1.000000	78.275862	0.000000	-1.000000	-1.000000	1133298.000000	1774906201.405947
10752.705000	-14990.445000	748.845000	18501.075000	8494.785000	-42557.895000	-29903.670000	-23680.395000	-32.060254	-30.369088	-27.595359	-26.743891	-26.661702	-25.999669	-19.426638	-41.110970	0.152600	4.028640	-2.044840	0.822569	-0.079590	0.535582	-1.000000	-1.000000	-1.000000	-1.000000	-1.000000	-1.000000	-1.000000	78.275862	0.000000	-1.000000	-1.000000	1133299.000000	1774906201.410805
10701.360000	-15014.880000	714.555000	18472.320000	8462.385000	-42592.995000	-29927.520000	-23723.190000	-42.306120	-43.829855	-38.755950	-41.086861	-44.450353	-44.407672	-32.489157	-52.701937	0.152600	4.028640	-2.044840	0.822569	-0.079590	0.535582	-1.000000	-1.000000	-1.000000	-1.000000	-1.000000	-1.000000	-1.000000	78.275862	0.000000	-1.000000	-1.000000	1133300.000000	1774906201.410811
10724.400000	-14988.105000	749.970000	18496.080000	8485.200000	-42569.955000	-29903.715000	-23693.445000	-46.753559	-51.672287	-47.358672	-51.535060	-56.487401	-56.671892	-41.437312	-55.247150	-0.976640	3.891300	-2.227960	0.824766	-0.079651	0.535582	-1.000000	-1.000000	-1.000000	-1.000000	-1.000000	-1.000000	-1.000000	78.275862	0.000000	-1.000000	-1.000000	1133301.000000	1774906201.415187
10767.465000	-14963.040000	793.125000	18522.540000	8502.300000	-42554.520000	-29894.940000	-23656.275000	-34.214446	-41.559396	-40.319118	-44.055415	-48.375285	-48.831288	-34.624648	-37.647757	-0.976640	3.891300	-2.227960	0.824766	-0.079651	0.535582	-1.000000	-1.000000	-1.000000	-1.000000	-1.000000	-1.000000	-1.000000	78.275862	0.000000	-1.000000	-1.000000	1133302.000000	1774906201.415198
10771.155000	-14984.550000	780.615000	18516.690000	8501.895000	-42549.840000	-29898.090000	-23630.625000	-1.448111	-10.531567	-11.854469	-14.079496	-16.455550	-17.306462	-9.585032	1.204354	-0.976640	3.891300	-2.227960	0.824766	-0.079651	0.535582	-1.000000	-1.000000	-1.000000	-1.000000	-1.000000	-1.000000	-1.000000	78.275862	0.000000	-1.000000	-1.000000	1133303.000000	1774906201.417961
10753.245000	-15016.815000	752.535000	18508.410000	8509.545000	-42541.290000	-29896.335000	-23634.990000	37.156792	26.464001	24.988091	24.760732	24.746343	23.702841	21.145613	44.121794	-0.976640	3.891300	-2.227960	0.824766	-0.079651	0.535582	-1.000000	-1.000000	-1.000000	-1.000000	-1.000000	-1.000000	-1.000000	78.275862	0.000000	-1.000000	-1.000000	1133304.000000	1774906201.417979
10768.995000	-14988.150000	773.910000	18523.755000	8523.630000	-42528.375000	-29886.390000	-23630.130000	58.325928	47.425721	47.586793	50.009586	52.414400	51.677162	39.684397	66.475177	-0.976640	3.891300	-2.227960	0.824766	-0.079651	0.535582	-1.000000	-1.000000	-1.000000	-1.000000	-1.000000	-1.000000	-1.000000	78.275862	0.000000	-1.000000	-1.000000	1133305.000000	1774906201.424098
10801.485000	-14940.945000	796.275000	18550.620000	8542.845000	-42512.355000	-29875.680000	-23613.210000	50.732236	43.780764	44.279350	49.283441	53.585846	53.476945	37.621034	56.945293	-0.976640	3.891300	-2.227960	0.824766	-0.079651	0.535582	-1.000000	-1.000000	-1.000000	-1.000000	-1.000000	-1.000000	-1.000000	78.275862	0.000000	-1.000000	-1.000000	1133306.000000	1774906201.424112
10809.945000	-14930.820000	812.880000	18554.535000	8541.810000	-42514.065000	-29875.905000	-23602.365000	24.151120	26.083626	23.137698	29.194010	33.859797	34.160651	21.456435	26.766178	-0.976640	3.891300	-2.227960	0.824766	-0.079651	0.535582	-1.000000	-1.000000	-1.000000	-1.000000	-1.000000	-1.000000	-1.000000	78.275862	0.000000	-1.000000	-1.000000	1133307.000000	1774906201.425902
10788.660000	-14960.115000	799.695000	18530.460000	8524.575000	-42528.060000	-29877.030000	-23626.395000	-2.340540	9.454458	1.661961	5.996104	9.072078	9.302863	4.497253	-2.718502	-0.976640	3.891300	-2.227960	0.824766	-0.079651	0.535582	-1.000000	-1.000000	-1.000000	-1.000000	-1.000000	-1.000000	-1.000000	78.275862	0.000000	-1.000000	-1.000000	1133308.000000	1774906201.425914
10767.375000	-14970.105000	774.000000	18515.025000	8510.895000	-42541.920000	-29880.000000	-23649.210000	-17.026093	-0.674772	-9.650707	-9.497389	-9.009640	-9.001603	-5.069463	-18.881421	-0.976640	3.891300	-2.227960	0.824766	-0.079651	0.535582	-1.000000	-1.000000	-1.000000	-1.000000	-1.000000	-1.000000	-1.000000	78.275862	0.000000	-1.000000	-1.000000	1133309.000000	1774906201.437117
10768.545000	-14969.880000	772.740000	18518.715000	8506.485000	-42547.680000	-29885.400000	-23639.040000	-20.326434	-7.315289	-12.676659	-16.310567	-17.954114	-17.934942	-7.893644	-22.714990	-0.976640	3.891300	-2.227960	0.824766	-0.079651	0.535582	-1.000000	-1.000000	-1.000000	-1.000000	-1.000000	-1.000000	-1.000000	78.275862	0.000000	-1.000000	-1.000000	1133310.000000	1774906201.437137
