Channel1	Channel2	Channel3	Channel4	Channel5	Channel6	Channel7	Channel8	FilteredChannel1	FilteredChannel2	FilteredChannel3	FilteredChannel4	FilteredChannel5	FilteredChannel6	FilteredChannel7	FilteredChannel8	GyroX	GyroY	GyroZ	AccX	AccY	AccZ	PPG1	PPG2	rawPPG1	rawPPG2	rawPPG3	Hr	Hrv	Battery	Trigger	PhysicalTrigger	AutoTrigger	NumMeasurements	Timestamp
-6220.800000	20645.190000	31015.485000	-4152.060000	-26518.725000	11028.510000	-17473.320000	-27943.920000	13.536187	24.308544	24.814409	18.485121	4.530209	11.013142	7.190202	-3.827580	-0.488320	5.920880	-1.526000	0.748838	0.616026	0.198791	-1.000000	-1.000000	-1.000000	-1.000000	-1.000000	-1.000000	-1.000000	76.827586	0.000000	-1.000000	-1.000000	313103.000000	1773688183.176481
-6225.435000	20639.745000	31015.890000	-4147.605000	-26525.295000	11030.850000	-17472.915000	-27902.070000	3.510238	9.753904	6.679393	5.959444	-3.107029	-0.264891	1.008656	-13.838966	-0.488320	5.920880	-1.526000	0.748838	0.616026	0.198791	-1.000000	-1.000000	-1.000000	-1.000000	-1.000000	-1.000000	-1.000000	76.827586	0.000000	-1.000000	-1.000000	313104.000000	1773688183.176497
-6214.905000	20644.695000	31021.020000	-4129.020000	-26522.910000	11045.475000	-17462.790000	-27885.420000	-8.787527	-5.926253	-10.416632	-6.444535	-6.924454	-8.359721	-2.947318	-21.262078	-0.488320	5.920880	-1.526000	0.748838	0.616026	0.198791	-1.000000	-1.000000	-1.000000	-1.000000	-1.000000	-1.000000	-1.000000	76.827586	0.000000	-1.000000	-1.000000	313105.000000	1773688183.181794
-6197.670000	20663.370000	31039.425000	-4112.640000	-26554.185000	11050.065000	-17451.720000	-27888.120000	-14.440225	-12.860482	-16.235931	-11.553722	-10.522908	-9.020798	-2.585497	-18.325860	-0.488320	5.920880	-1.526000	0.748838	0.616026	0.198791	-1.000000	-1.000000	-1.000000	-1.000000	-1.000000	-1.000000	-1.000000	76.827586	0.000000	-1.000000	-1.000000	313106.000000	1773688183.181806
-6188.220000	20667.060000	31026.105000	-4117.365000	-26558.865000	11043.180000	-17452.890000	-27869.085000	-10.489147	-9.855421	-11.382450	-8.767107	-15.307643	-4.427388	1.045952	-5.486230	-0.488320	5.920880	-1.526000	0.748838	0.616026	0.198791	-1.000000	-1.000000	-1.000000	-1.000000	-1.000000	-1.000000	-1.000000	76.827586	0.000000	-1.000000	-1.000000	313107.000000	1773688183.184480
-6202.035000	20651.670000	30999.690000	-4131.900000	-26504.370000	11040.930000	-17476.155000	-27878.265000	-1.758713	-3.624716	-4.892565	-3.450661	-17.080397	-0.109322	4.075247	10.672354	-0.488320	5.920880	-1.526000	0.748838	0.616026	0.198791	-1.000000	-1.000000	-1.000000	-1.000000	-1.000000	-1.000000	-1.000000	76.827586	0.000000	-1.000000	-1.000000	313108.000000	1773688183.184512
-6209.190000	20650.680000	31035.420000	-4124.655000	-26459.775000	11049.975000	-17501.445000	-27907.380000	4.673775	-0.958516	-3.255223	-1.077950	-9.977665	0.960821	2.731279	22.083684	-0.488320	5.920880	-1.526000	0.748838	0.616026	0.198791	-1.000000	-1.000000	-1.000000	-1.000000	-1.000000	-1.000000	-1.000000	76.827586	0.000000	-1.000000	-1.000000	313109.000000	1773688183.194097
-6198.840000	20668.680000	31066.380000	-4110.165000	-26471.655000	11053.845000	-17480.970000	-27931.770000	5.779672	-2.614261	-4.036302	-2.291625	5.566148	-0.007272	-2.942594	22.294018	-0.488320	5.920880	-1.526000	0.748838	0.616026	0.198791	-1.000000	-1.000000	-1.000000	-1.000000	-1.000000	-1.000000	-1.000000	76.827586	0.000000	-1.000000	-1.000000	313110.000000	1773688183.194111
-6200.955000	20666.160000	31048.020000	-4112.775000	-26492.265000	11048.535000	-17445.420000	-27900.540000	3.825905	-4.326596	-1.648545	-3.141736	21.280548	-0.439199	-7.770213	11.767015	-2.350040	5.112100	-1.999060	0.746519	0.617979	0.198303	-1.000000	-1.000000	-1.000000	-1.000000	-1.000000	-1.000000	-1.000000	76.827586	0.000000	-1.000000	-1.000000	313111.000000	1773688183.194125
-6198.030000	20667.060000	31045.140000	-4114.935000	-26493.300000	11055.735000	-17444.880000	-27891.900000	2.032933	-2.619885	4.217138	-0.224739	28.202446	0.908124	-6.335015	-1.881508	-2.350040	5.112100	-1.999060	0.746519	0.617979	0.198303	-1.000000	-1.000000	-1.000000	-1.000000	-1.000000	-1.000000	-1.000000	76.827586	0.000000	-1.000000	-1.000000	313112.000000	1773688183.194130
-6190.830000	20672.010000	31047.795000	-4125.150000	-26502.885000	11053.845000	-17465.265000	-27920.340000	1.436754	2.089917	9.354421	4.936451	22.621251	3.162511	0.231133	-12.068521	-2.350040	5.112100	-1.999060	0.746519	0.617979	0.198303	-1.000000	-1.000000	-1.000000	-1.000000	-1.000000	-1.000000	-1.000000	76.827586	0.000000	-1.000000	-1.000000	313113.000000	1773688183.196622
-6192.720000	20670.345000	31045.230000	-4130.055000	-26517.735000	11043.675000	-17481.555000	-27913.905000	1.407034	6.917763	10.392909	7.488252	6.749083	4.049656	5.482213	-17.178913	-2.350040	5.112100	-1.999060	0.746519	0.617979	0.198303	-1.000000	-1.000000	-1.000000	-1.000000	-1.000000	-1.000000	-1.000000	76.827586	0.000000	-1.000000	-1.000000	313114.000000	1773688183.196632
-6197.220000	20663.775000	31041.135000	-4118.670000	-26529.615000	11030.580000	-17492.220000	-27894.645000	0.392885	8.298259	6.343842	4.698523	-12.215559	1.731270	4.806767	-16.527495	-2.350040	5.112100	-1.999060	0.746519	0.617979	0.198303	-1.000000	-1.000000	-1.000000	-1.000000	-1.000000	-1.000000	-1.000000	76.827586	0.000000	-1.000000	-1.000000	313115.000000	1773688183.200616
-6192.990000	20663.955000	31041.360000	-4110.750000	-26509.320000	11044.485000	-17478.315000	-27865.620000	-2.420187	4.426178	-1.195364	-1.049453	-25.235516	-2.901206	-0.362298	-8.986575	-2.350040	5.112100	-1.999060	0.746519	0.617979	0.198303	-1.000000	-1.000000	-1.000000	-1.000000	-1.000000	-1.000000	-1.000000	76.827586	0.000000	-1.000000	-1.000000	313116.000000	1773688183.200628
-6192.540000	20680.605000	31060.080000	-4096.890000	-26502.075000	11067.975000	-17458.065000	-27894.285000	-5.294711	-2.146611	-7.931178	-4.920806	-27.258225	-6.037363	-4.056691	3.520133	-2.350040	5.112100	-1.999060	0.746519	0.617979	0.198303	-1.000000	-1.000000	-1.000000	-1.000000	-1.000000	-1.000000	-1.000000	76.827586	0.000000	-1.000000	-1.000000	313117.000000	1773688183.210853
-6217.110000	20665.890000	31045.905000	-4114.170000	-26536.005000	11050.830000	-17451.540000	-27942.165000	-5.985744	-6.841188	-10.577497	-4.885069	-20.166791	-4.933363	-1.859682	14.319455	-2.350040	5.112100	-1.999060	0.746519	0.617979	0.198303	-1.000000	-1.000000	-1.000000	-1.000000	-1.000000	-1.000000	-1.000000	76.827586	0.000000	-1.000000	-1.000000	313118.000000	1773688183.210865
-6213.915000	20639.565000	31012.695000	-4140.180000	-26527.905000	11033.145000	-17470.620000	-27934.515000	-4.486819	-8.139591	-10.066762	-3.251621	-8.787112	-1.291823	3.747536	16.629361	-2.350040	5.112100	-1.999060	0.746519	0.617979	0.198303	-1.000000	-1.000000	-1.000000	-1.000000	-1.000000	-1.000000	-1.000000	76.827586	0.000000	-1.000000	-1.000000	313119.000000	1773688183.210879
-6206.535000	20639.385000	31011.255000	-4131.855000	-26476.965000	11033.145000	-17485.650000	-27922.095000	-1.742322	-7.361036	-8.312626	-2.454100	4.767800	1.461096	5.860431	9.835118	-2.350040	5.112100	-1.999060	0.746519	0.617979	0.198303	-1.000000	-1.000000	-1.000000	-1.000000	-1.000000	-1.000000	-1.000000	76.827586	0.000000	-1.000000	-1.000000	313120.000000	1773688183.210885
-6221.745000	20640.060000	31016.520000	-4132.350000	-26497.620000	11029.095000	-17486.370000	-27919.530000	1.523221	-4.989182	-4.728353	-1.739574	18.926024	2.097480	1.424603	-0.761672	-3.006220	3.753960	-1.434440	0.743345	0.619261	0.199523	-1.000000	-1.000000	-1.000000	-1.000000	-1.000000	-1.000000	-1.000000	76.827586	0.000000	-1.000000	-1.000000	313121.000000	1773688183.212729
-6199.470000	20665.260000	31043.025000	-4110.705000	-26490.600000	11052.810000	-17467.965000	-27902.745000	4.214200	-0.385437	1.844703	0.711690	27.895172	1.765439	-5.049342	-8.424993	-3.006220	3.753960	-1.434440	0.743345	0.619261	0.199523	-1.000000	-1.000000	-1.000000	-1.000000	-1.000000	-1.000000	-1.000000	76.827586	0.000000	-1.000000	-1.000000	313122.000000	1773688183.212741
-6160.635000	20682.945000	31057.065000	-4098.555000	-26481.330000	11067.345000	-17467.020000	-27878.760000	6.154322	6.152750	10.234995	4.856946	26.281875	2.522431	-6.901242	-8.986833	-3.006220	3.753960	-1.434440	0.743345	0.619261	0.199523	-1.000000	-1.000000	-1.000000	-1.000000	-1.000000	-1.000000	-1.000000	76.827586	0.000000	-1.000000	-1.000000	313123.000000	1773688183.216486
-6179.670000	20677.095000	31050.855000	-4106.520000	-26491.005000	11057.850000	-17472.105000	-27990.540000	7.739194	12.097387	16.592874	8.211068	14.962051	4.810334	-2.663172	-5.088459	-3.006220	3.753960	-1.434440	0.743345	0.619261	0.199523	-1.000000	-1.000000	-1.000000	-1.000000	-1.000000	-1.000000	-1.000000	76.827586	0.000000	-1.000000	-1.000000	313124.000000	1773688183.216512
-6202.980000	20692.080000	31070.925000	-4085.640000	-26472.105000	11074.770000	-17467.425000	-28032.390000	7.122528	13.810073	16.965331	7.912103	-1.117694	6.158001	3.412298	-4.752482	-3.006220	3.753960	-1.434440	0.743345	0.619261	0.199523	-1.000000	-1.000000	-1.000000	-1.000000	-1.000000	-1.000000	-1.000000	76.827586	0.000000	-1.000000	-1.000000	313125.000000	1773688183.220351
-6205.230000	20692.350000	31073.085000	-4082.805000	-26473.230000	11075.760000	-17470.035000	-27921.690000	2.311221	9.730860	10.568675	3.850240	-15.825563	4.167536	6.440895	-8.341263	-3.006220	3.753960	-1.434440	0.743345	0.619261	0.199523	-1.000000	-1.000000	-1.000000	-1.000000	-1.000000	-1.000000	-1.000000	76.827586	0.000000	-1.000000	-1.000000	313126.000000	1773688183.220361
-6215.220000	20650.185000	31026.915000	-4132.935000	-26548.965000	11030.535000	-17469.765000	-27789.255000	-4.644494	1.352813	-0.226536	-1.934281	-24.041850	-0.962167	4.786046	-3.356848	-3.006220	3.753960	-1.434440	0.743345	0.619261	0.199523	-1.000000	-1.000000	-1.000000	-1.000000	-1.000000	-1.000000	-1.000000	76.827586	0.000000	-1.000000	-1.000000	313127.000000	1773688183.230707
-6223.140000	20627.460000	31000.275000	-4167.630000	-26602.830000	11003.355000	-17468.820000	-27843.345000	-9.635005	-8.341897	-11.612581	-7.945962	-25.544438	-7.463630	0.412032	15.898670	-3.006220	3.753960	-1.434440	0.743345	0.619261	0.199523	-1.000000	-1.000000	-1.000000	-1.000000	-1.000000	-1.000000	-1.000000	76.827586	0.000000	-1.000000	-1.000000	313128.000000	1773688183.230737
-6211.440000	20639.925000	31011.660000	-4161.285000	-26556.480000	11017.845000	-17465.805000	-27893.565000	-10.305215	-15.442407	-18.988499	-12.641110	-22.493829	-12.482738	-3.189883	33.406307	-3.006220	3.753960	-1.434440	0.743345	0.619261	0.199523	-1.000000	-1.000000	-1.000000	-1.000000	-1.000000	-1.000000	-1.000000	76.827586	0.000000	-1.000000	-1.000000	313129.000000	1773688183.230775
-6204.240000	20641.635000	31009.995000	-4150.575000	-26502.705000	11025.360000	-17481.465000	-27895.410000	-6.373330	-16.210780	-18.750399	-13.131604	-12.901653	-12.462629	-4.126973	29.628824	-3.006220	3.753960	-1.434440	0.743345	0.619261	0.199523	-1.000000	-1.000000	-1.000000	-1.000000	-1.000000	-1.000000	-1.000000	76.827586	0.000000	-1.000000	-1.000000	313130.000000	1773688183.230780
-6201.270000	20644.110000	31016.160000	-4129.965000	-26482.815000	11037.015000	-17479.530000	-27899.055000	0.037417	-10.319295	-11.318199	-7.561614	5.301238	-6.330331	-3.291160	4.450917	-3.326680	3.647140	-1.739640	0.743834	0.618468	0.201110	-1.000000	-1.000000	-1.000000	-1.000000	-1.000000	-1.000000	-1.000000	76.827586	0.000000	-1.000000	-1.000000	313131.000000	1773688183.234291
-6207.075000	20642.580000	31016.430000	-4129.245000	-26501.580000	11029.995000	-17476.605000	-27900.090000	4.779550	-1.433537	-0.844990	2.131832	25.497210	2.791755	-2.067517	-25.116262	-3.326680	3.647140	-1.739640	0.743834	0.618468	0.201110	-1.000000	-1.000000	-1.000000	-1.000000	-1.000000	-1.000000	-1.000000	76.827586	0.000000	-1.000000	-1.000000	313132.000000	1773688183.234310
-6212.340000	20650.770000	31024.080000	-4129.515000	-26513.370000	11035.395000	-17476.065000	-27914.850000	5.558482	6.284843	8.233453	11.097814	35.378910	10.140109	-0.596738	-39.999101	-3.326680	3.647140	-1.739640	0.743834	0.618468	0.201110	-1.000000	-1.000000	-1.000000	-1.000000	-1.000000	-1.000000	-1.000000	76.827586	0.000000	-1.000000	-1.000000	313133.000000	1773688183.237989
-6202.215000	20665.935000	31039.875000	-4117.050000	-26511.660000	11052.135000	-17466.030000	-27934.920000	4.093509	10.656791	13.179672	14.808775	28.037884	12.580608	1.172006	-32.682998	-3.326680	3.647140	-1.739640	0.743834	0.618468	0.201110	-1.000000	-1.000000	-1.000000	-1.000000	-1.000000	-1.000000	-1.000000	76.827586	0.000000	-1.000000	-1.000000	313134.000000	1773688183.238008
-6183.630000	20672.235000	31041.360000	-4123.620000	-26542.530000	11050.965000	-17454.510000	-27898.920000	3.484904	11.662675	13.465331	12.266609	8.092111	10.342814	2.906226	-12.486432	-3.326680	3.647140	-1.739640	0.743834	0.618468	0.201110	-1.000000	-1.000000	-1.000000	-1.000000	-1.000000	-1.000000	-1.000000	76.827586	0.000000	-1.000000	-1.000000	313135.000000	1773688183.241854
-6178.230000	20675.250000	31041.765000	-4138.155000	-26550.045000	11045.925000	-17452.755000	-27855.900000	4.888172	10.929076	11.068086	6.587635	-11.822412	6.427777	4.205474	5.580448	-3.326680	3.647140	-1.739640	0.743834	0.618468	0.201110	-1.000000	-1.000000	-1.000000	-1.000000	-1.000000	-1.000000	-1.000000	76.827586	0.000000	-1.000000	-1.000000	313136.000000	1773688183.241876
-6171.570000	20684.385000	31053.060000	-4123.440000	-26534.565000	11052.765000	-17459.820000	-27850.545000	6.569766	9.700648	8.436474	1.790111	-20.777079	3.456759	4.308924	15.640014	-3.326680	3.647140	-1.739640	0.743834	0.618468	0.201110	-1.000000	-1.000000	-1.000000	-1.000000	-1.000000	-1.000000	-1.000000	76.827586	0.000000	-1.000000	-1.000000	313137.000000	1773688183.244297
-6176.340000	20676.420000	31049.505000	-4097.565000	-26491.365000	11058.120000	-17475.120000	-27876.780000	5.610071	6.901388	5.527850	-0.435489	-17.018065	1.274742	2.359440	19.906372	-3.326680	3.647140	-1.739640	0.743834	0.618468	0.201110	-1.000000	-1.000000	-1.000000	-1.000000	-1.000000	-1.000000	-1.000000	76.827586	0.000000	-1.000000	-1.000000	313138.000000	1773688183.244306
-6183.405000	20684.835000	31058.055000	-4081.590000	-26463.195000	11055.285000	-17466.570000	-27927.180000	0.535324	0.886742	0.682596	-0.983978	-6.581149	-1.860230	-1.207148	18.622792	-3.326680	3.647140	-1.739640	0.743834	0.618468	0.201110	-1.000000	-1.000000	-1.000000	-1.000000	-1.000000	-1.000000	-1.000000	76.827586	0.000000	-1.000000	-1.000000	313139.000000	1773688183.250031
-6194.520000	20675.385000	31046.715000	-4116.780000	-26522.820000	11018.385000	-17479.440000	-27909.990000	-7.343763	-7.373555	-6.180670	-2.451309	2.366939	-6.953984	-4.485434	10.096618	-3.326680	3.647140	-1.739640	0.743834	0.618468	0.201110	-1.000000	-1.000000	-1.000000	-1.000000	-1.000000	-1.000000	-1.000000	76.827586	0.000000	-1.000000	-1.000000	313140.000000	1773688183.250041
-6210.045000	20653.290000	31014.495000	-4148.055000	-26534.925000	11019.780000	-17483.940000	-27900.315000	-14.317720	-14.714714	-13.222917	-7.259489	4.077420	-12.821241	-5.992743	-1.573257	-3.555580	3.815000	-1.327620	0.746641	0.616515	0.201477	-1.000000	-1.000000	-1.000000	-1.000000	-1.000000	-1.000000	-1.000000	76.827586	0.000000	-1.000000	-1.000000	313141.000000	1773688183.253904
-6210.315000	20643.570000	31006.710000	-4136.265000	-26493.705000	11034.405000	-17478.045000	-27886.905000	-16.297194	-18.509896	-18.310723	-14.182119	-0.419171	-15.855988	-5.467882	-7.819971	-3.555580	3.815000	-1.327620	0.746641	0.616515	0.201477	-1.000000	-1.000000	-1.000000	-1.000000	-1.000000	-1.000000	-1.000000	76.827586	0.000000	-1.000000	-1.000000	313142.000000	1773688183.253916
-6210.810000	20642.535000	31027.005000	-4122.945000	-26476.830000	11044.260000	-17483.940000	-27912.375000	-11.713074	-17.505053	-18.990052	-17.764863	-3.995106	-12.723825	-3.342865	-5.880822	-3.555580	3.815000	-1.327620	0.746641	0.616515	0.201477	-1.000000	-1.000000	-1.000000	-1.000000	-1.000000	-1.000000	-1.000000	76.827586	0.000000	-1.000000	-1.000000	313143.000000	1773688183.257749
-6205.770000	20668.365000	31052.070000	-4099.095000	-26466.480000	11066.355000	-17466.255000	-27941.220000	-2.714219	-10.861957	-12.371466	-12.630320	-0.823626	-3.180260	-0.446953	-2.753916	-3.555580	3.815000	-1.327620	0.746641	0.616515	0.201477	-1.000000	-1.000000	-1.000000	-1.000000	-1.000000	-1.000000	-1.000000	76.827586	0.000000	-1.000000	-1.000000	313144.000000	1773688183.257757
-6206.535000	20669.670000	31047.435000	-4103.955000	-26478.540000	11064.780000	-17452.395000	-27929.610000	6.561526	0.958888	1.389297	1.171196	7.682025	9.494420	2.811047	-5.569291	-3.555580	3.815000	-1.327620	0.746641	0.616515	0.201477	-1.000000	-1.000000	-1.000000	-1.000000	-1.000000	-1.000000	-1.000000	76.827586	0.000000	-1.000000	-1.000000	313145.000000	1773688183.260372
-6195.870000	20675.835000	31052.655000	-4099.185000	-26474.445000	11073.465000	-17441.640000	-27883.710000	12.584211	13.780100	16.063661	16.200346	13.644070	19.178722	6.414569	-10.722922	-3.555580	3.815000	-1.327620	0.746641	0.616515	0.201477	-1.000000	-1.000000	-1.000000	-1.000000	-1.000000	-1.000000	-1.000000	76.827586	0.000000	-1.000000	-1.000000	313146.000000	1773688183.260388
-6179.310000	20676.780000	31051.845000	-4100.895000	-26477.685000	11075.895000	-17443.080000	-27862.920000	14.136883	21.348611	23.490893	22.691495	9.783788	20.378842	9.357125	-8.232269	-3.555580	3.815000	-1.327620	0.746641	0.616515	0.201477	-1.000000	-1.000000	-1.000000	-1.000000	-1.000000	-1.000000	-1.000000	76.827586	0.000000	-1.000000	-1.000000	313147.000000	1773688183.267998
-6204.375000	20647.035000	31018.725000	-4140.675000	-26517.960000	11044.980000	-17476.875000	-27918.135000	11.763721	19.677402	19.718855	16.331423	-3.564592	12.301265	9.061688	3.934847	-3.555580	3.815000	-1.327620	0.746641	0.616515	0.201477	-1.000000	-1.000000	-1.000000	-1.000000	-1.000000	-1.000000	-1.000000	76.827586	0.000000	-1.000000	-1.000000	313148.000000	1773688183.268012
-6232.320000	20615.445000	30984.300000	-4176.450000	-26553.105000	11006.460000	-17504.595000	-27926.415000	5.946348	9.121475	6.616077	0.988455	-18.261105	-1.251998	3.305453	15.787531	-3.555580	3.815000	-1.327620	0.746641	0.616515	0.201477	-1.000000	-1.000000	-1.000000	-1.000000	-1.000000	-1.000000	-1.000000	76.827586	0.000000	-1.000000	-1.000000	313149.000000	1773688183.268253
-6224.355000	20630.790000	31004.235000	-4149.495000	-26533.845000	11023.605000	-17491.725000	-27915.975000	-1.883478	-4.927765	-8.627908	-13.775000	-24.663835	-14.221027	-6.145092	17.393846	-3.555580	3.815000	-1.327620	0.746641	0.616515	0.201477	-1.000000	-1.000000	-1.000000	-1.000000	-1.000000	-1.000000	-1.000000	76.827586	0.000000	-1.000000	-1.000000	313150.000000	1773688183.268259
-6206.715000	20655.135000	31029.345000	-4128.480000	-26525.745000	11044.755000	-17470.395000	-27902.070000	-7.885000	-14.072918	-16.877132	-18.785301	-18.818882	-20.436271	-13.201714	9.258112	-3.402980	3.692920	-0.976640	0.746275	0.614928	0.200195	-1.000000	-1.000000	-1.000000	-1.000000	-1.000000	-1.000000	-1.000000	76.827586	0.000000	-1.000000	-1.000000	313151.000000	1773688183.272422
-6197.940000	20664.720000	31039.065000	-4124.340000	-26520.975000	11044.170000	-17468.595000	-27907.965000	-8.657093	-13.178801	-14.019604	-11.958863	-4.187306	-16.859857	-12.727996	-1.403197	-3.402980	3.692920	-0.976640	0.746275	0.614928	0.200195	-1.000000	-1.000000	-1.000000	-1.000000	-1.000000	-1.000000	-1.000000	76.827586	0.000000	-1.000000	-1.000000	313152.000000	1773688183.272433
-6187.050000	20681.910000	31058.505000	-4103.910000	-26486.820000	11052.180000	-17472.465000	-27916.155000	-4.518750	-4.467945	-3.668051	1.167211	12.518470	-6.012132	-5.633736	-8.845538	-3.402980	3.692920	-0.976640	0.746275	0.614928	0.200195	-1.000000	-1.000000	-1.000000	-1.000000	-1.000000	-1.000000	-1.000000	76.827586	0.000000	-1.000000	-1.000000	313153.000000	1773688183.276395
-6186.240000	20687.760000	31063.995000	-4100.670000	-26483.130000	11056.185000	-17476.920000	-27916.695000	1.130501	5.384954	7.218972	12.820570	25.100635	6.053006	2.486508	-11.694378	-3.402980	3.692920	-0.976640	0.746275	0.614928	0.200195	-1.000000	-1.000000	-1.000000	-1.000000	-1.000000	-1.000000	-1.000000	76.827586	0.000000	-1.000000	-1.000000	313154.000000	1773688183.276407
-6189.345000	20679.075000	31051.125000	-4113.495000	-26518.635000	11058.255000	-17482.185000	-27926.100000	4.360320	10.426275	12.798057	17.081906	27.895708	13.723875	6.854637	-11.395651	-3.402980	3.692920	-0.976640	0.746275	0.614928	0.200195	-1.000000	-1.000000	-1.000000	-1.000000	-1.000000	-1.000000	-1.000000	76.827586	0.000000	-1.000000	-1.000000	313155.000000	1773688183.280290
-6187.185000	20666.205000	31036.995000	-4136.940000	-26618.940000	11034.945000	-17488.170000	-27893.070000	3.278807	8.259626	10.436878	11.794469	16.784311	14.186977	6.660888	-8.607618	-3.402980	3.692920	-0.976640	0.746275	0.614928	0.200195	-1.000000	-1.000000	-1.000000	-1.000000	-1.000000	-1.000000	-1.000000	76.827586	0.000000	-1.000000	-1.000000	313156.000000	1773688183.280301
-6180.435000	20688.480000	31061.880000	-4102.065000	-26563.095000	11070.450000	-17457.120000	-27867.285000	-0.143544	1.545991	2.851099	1.150293	-4.033541	9.274456	4.876161	-1.437130	-3.402980	3.692920	-0.976640	0.746275	0.614928	0.200195	-1.000000	-1.000000	-1.000000	-1.000000	-1.000000	-1.000000	-1.000000	76.827586	0.000000	-1.000000	-1.000000	313157.000000	1773688183.286600
-6152.715000	20754.675000	31117.905000	-4011.345000	-26375.130000	11139.750000	-17404.830000	-27916.560000	-1.586830	-2.908034	-2.666609	-5.191520	-17.771596	5.259321	5.816771	9.069401	-3.402980	3.692920	-0.976640	0.746275	0.614928	0.200195	-1.000000	-1.000000	-1.000000	-1.000000	-1.000000	-1.000000	-1.000000	76.827586	0.000000	-1.000000	-1.000000	313158.000000	1773688183.286621
-6156.135000	20725.245000	31094.460000	-4038.480000	-26383.365000	11101.230000	-17427.240000	-27857.340000	0.693974	-1.165543	-1.918105	-1.994666	-10.169457	5.473366	9.662085	16.108141	-3.402980	3.692920	-0.976640	0.746275	0.614928	0.200195	-1.000000	-1.000000	-1.000000	-1.000000	-1.000000	-1.000000	-1.000000	76.827586	0.000000	-1.000000	-1.000000	313159.000000	1773688183.288400
-6205.140000	20635.245000	31022.775000	-4153.770000	-26562.285000	10999.710000	-17483.400000	-27839.115000	2.828513	1.060570	-0.250117	2.645366	8.495263	3.587935	9.758747	15.400066	-3.402980	3.692920	-0.976640	0.746275	0.614928	0.200195	-1.000000	-1.000000	-1.000000	-1.000000	-1.000000	-1.000000	-1.000000	76.827586	0.000000	-1.000000	-1.000000	313160.000000	1773688183.288411
-6243.030000	20597.040000	30969.540000	-4198.410000	-26600.400000	10982.160000	-17495.145000	-27903.465000	-0.799634	-5.152899	-6.095823	-3.736830	12.582688	-7.925155	0.234654	8.234966	-3.540320	2.731540	-1.358140	0.748655	0.612730	0.198608	-1.000000	-1.000000	-1.000000	-1.000000	-1.000000	-1.000000	-1.000000	76.827586	0.000000	-1.000000	-1.000000	313161.000000	1773688183.292566
-6233.490000	20603.430000	30962.520000	-4179.960000	-26536.365000	11011.995000	-17484.660000	-27891.855000	-9.943076	-18.606123	-18.959079	-20.310407	-5.537376	-24.177615	-14.809613	-3.065768	-3.540320	2.731540	-1.358140	0.748655	0.612730	0.198608	-1.000000	-1.000000	-1.000000	-1.000000	-1.000000	-1.000000	-1.000000	76.827586	0.000000	-1.000000	-1.000000	313162.000000	1773688183.292581
-6227.595000	20616.165000	30986.505000	-4152.510000	-26490.330000	11028.690000	-17477.730000	-27902.385000	-17.077228	-27.354997	-27.948654	-31.930334	-26.714535	-31.105457	-24.294498	-14.422507	-3.540320	2.731540	-1.358140	0.748655	0.612730	0.198608	-1.000000	-1.000000	-1.000000	-1.000000	-1.000000	-1.000000	-1.000000	76.827586	0.000000	-1.000000	-1.000000	313163.000000	1773688183.296337
-6227.820000	20619.405000	30994.830000	-4159.305000	-26517.555000	11019.285000	-17484.885000	-27913.725000	-15.023490	-21.160128	-22.133577	-25.503720	-29.319798	-20.946560	-21.054630	-20.369645	-3.540320	2.731540	-1.358140	0.748655	0.612730	0.198608	-1.000000	-1.000000	-1.000000	-1.000000	-1.000000	-1.000000	-1.000000	76.827586	0.000000	-1.000000	-1.000000	313164.000000	1773688183.296343
-6225.660000	20625.480000	30998.925000	-4155.930000	-26527.140000	11022.435000	-17485.380000	-27911.925000	-3.768576	-1.023523	-1.286161	-2.486040	-10.339060	0.983221	-7.325638	-18.510546	-3.540320	2.731540	-1.358140	0.748655	0.612730	0.198608	-1.000000	-1.000000	-1.000000	-1.000000	-1.000000	-1.000000	-1.000000	76.827586	0.000000	-1.000000	-1.000000	313165.000000	1773688183.300389
-6216.165000	20636.820000	31009.005000	-4151.430000	-26520.255000	11027.745000	-17478.540000	-27905.850000	10.562279	21.982606	23.215149	23.260998	14.877631	21.909985	8.284134	-9.996250	-3.540320	2.731540	-1.358140	0.748655	0.612730	0.198608	-1.000000	-1.000000	-1.000000	-1.000000	-1.000000	-1.000000	-1.000000	76.827586	0.000000	-1.000000	-1.000000	313166.000000	1773688183.300401
-6211.260000	20641.545000	31014.630000	-4144.320000	-26520.390000	11029.680000	-17476.245000	-27902.790000	20.522744	34.883010	37.220816	36.331182	26.245708	30.491752	17.249507	2.176258	-3.540320	2.731540	-1.358140	0.748655	0.612730	0.198608	-1.000000	-1.000000	-1.000000	-1.000000	-1.000000	-1.000000	-1.000000	76.827586	0.000000	-1.000000	-1.000000	313167.000000	1773688183.304370
-6208.245000	20649.060000	31023.900000	-4126.725000	-26507.835000	11038.320000	-17472.780000	-27905.130000	21.835603	32.421215	34.593107	31.862903	17.783588	24.810284	16.992328	12.697049	-3.540320	2.731540	-1.358140	0.748655	0.612730	0.198608	-1.000000	-1.000000	-1.000000	-1.000000	-1.000000	-1.000000	-1.000000	76.827586	0.000000	-1.000000	-1.000000	313168.000000	1773688183.304382
-6204.285000	20655.180000	31029.750000	-4117.860000	-26499.060000	11043.315000	-17469.405000	-27904.545000	15.905865	20.251728	20.747749	18.684246	3.740245	13.229068	11.711751	16.429364	-3.540320	2.731540	-1.358140	0.748655	0.612730	0.198608	-1.000000	-1.000000	-1.000000	-1.000000	-1.000000	-1.000000	-1.000000	76.827586	0.000000	-1.000000	-1.000000	313169.000000	1773688183.308392
-6199.290000	20663.955000	31038.030000	-4113.810000	-26496.270000	11049.210000	-17468.145000	-27900.675000	7.435734	7.210298	5.570090	7.567329	-0.732056	4.206898	6.459823	13.774378	-3.540320	2.731540	-1.358140	0.748655	0.612730	0.198608	-1.000000	-1.000000	-1.000000	-1.000000	-1.000000	-1.000000	-1.000000	76.827586	0.000000	-1.000000	-1.000000	313170.000000	1773688183.308404
-6201.675000	20661.120000	31034.430000	-4121.055000	-26505.405000	11043.630000	-17471.115000	-27903.195000	-0.524884	-3.122512	-5.622621	0.051404	2.422206	-1.766210	2.241502	8.789593	-4.028640	3.296160	-0.564620	0.751768	0.613402	0.196044	-1.000000	-1.000000	-1.000000	-1.000000	-1.000000	-1.000000	-1.000000	76.827586	0.000000	-1.000000	-1.000000	313171.000000	1773688183.312299
-6195.420000	20664.765000	31036.320000	-4121.280000	-26505.450000	11044.440000	-17466.480000	-27898.290000	-7.407786	-11.514839	-13.251056	-7.874027	2.610580	-7.920806	-2.046338	3.838328	-4.028640	3.296160	-0.564620	0.751768	0.613402	0.196044	-1.000000	-1.000000	-1.000000	-1.000000	-1.000000	-1.000000	-1.000000	76.827586	0.000000	-1.000000	-1.000000	313172.000000	1773688183.312327
-6183.720000	20674.845000	31046.310000	-4113.720000	-26497.530000	11053.575000	-17451.495000	-27888.345000	-12.307360	-17.827728	-18.362932	-16.540418	-2.647346	-13.924970	-5.825626	-0.265974	-4.028640	3.296160	-0.564620	0.751768	0.613402	0.196044	-1.000000	-1.000000	-1.000000	-1.000000	-1.000000	-1.000000	-1.000000	76.827586	0.000000	-1.000000	-1.000000	313173.000000	1773688183.316426
-6179.760000	20677.905000	31048.785000	-4120.470000	-26510.895000	11053.845000	-17449.740000	-27887.940000	-13.535898	-20.097357	-19.910119	-21.864498	-7.821468	-16.370947	-7.324979	-3.071717	-4.028640	3.296160	-0.564620	0.751768	0.613402	0.196044	-1.000000	-1.000000	-1.000000	-1.000000	-1.000000	-1.000000	-1.000000	76.827586	0.000000	-1.000000	-1.000000	313174.000000	1773688183.316437
-6186.915000	20670.885000	31040.505000	-4137.030000	-26580.330000	11050.695000	-17463.375000	-27893.205000	-11.081121	-17.776967	-17.310376	-21.551488	-11.110226	-14.064108	-6.797021	-4.834553	-4.028640	3.296160	-0.564620	0.751768	0.613402	0.196044	-1.000000	-1.000000	-1.000000	-1.000000	-1.000000	-1.000000	-1.000000	76.827586	0.000000	-1.000000	-1.000000	313175.000000	1773688183.320340
-6187.995000	20668.680000	31038.390000	-4133.295000	-26592.390000	11044.305000	-17486.280000	-27895.680000	-7.052883	-12.540257	-11.994224	-16.873505	-15.411331	-8.948025	-6.458651	-6.238456	-4.028640	3.296160	-0.564620	0.751768	0.613402	0.196044	-1.000000	-1.000000	-1.000000	-1.000000	-1.000000	-1.000000	-1.000000	76.827586	0.000000	-1.000000	-1.000000	313176.000000	1773688183.320348
-6189.075000	20671.515000	31044.285000	-4123.890000	-26549.550000	11043.000000	-17495.595000	-27940.275000	-3.117403	-5.657809	-5.249001	-8.837393	-17.813521	-2.815707	-7.061864	-8.111429	-4.028640	3.296160	-0.564620	0.751768	0.613402	0.196044	-1.000000	-1.000000	-1.000000	-1.000000	-1.000000	-1.000000	-1.000000	76.827586	0.000000	-1.000000	-1.000000	313177.000000	1773688183.324450
-6167.655000	20698.695000	31067.595000	-4092.390000	-26449.425000	11070.045000	-17469.135000	-27984.690000	0.854418	2.633920	2.760975	2.509290	-9.349487	3.781616	-6.465545	-10.825980	-4.028640	3.296160	-0.564620	0.751768	0.613402	0.196044	-1.000000	-1.000000	-1.000000	-1.000000	-1.000000	-1.000000	-1.000000	76.827586	0.000000	-1.000000	-1.000000	313178.000000	1773688183.324462
-6133.905000	20714.535000	31071.645000	-4069.935000	-26420.445000	11087.640000	-17475.435000	-27960.930000	5.560027	11.150629	11.024371	15.047142	11.920711	10.012228	-2.354815	-12.599256	-4.028640	3.296160	-0.564620	0.751768	0.613402	0.196044	-1.000000	-1.000000	-1.000000	-1.000000	-1.000000	-1.000000	-1.000000	76.827586	0.000000	-1.000000	-1.000000	313179.000000	1773688183.328652
-6132.420000	20730.330000	31106.430000	-4049.190000	-26402.805000	11107.170000	-17468.325000	-27876.825000	10.324692	17.076458	16.868965	24.060478	34.447131	14.086716	4.326353	-8.574804	-4.028640	3.296160	-0.564620	0.751768	0.613402	0.196044	-1.000000	-1.000000	-1.000000	-1.000000	-1.000000	-1.000000	-1.000000	76.827586	0.000000	-1.000000	-1.000000	313180.000000	1773688183.328662
-6228.900000	20695.680000	31087.350000	-4077.720000	-26436.060000	11093.445000	-17430.075000	-27856.395000	11.074632	17.091233	17.607737	24.732346	42.403677	14.000182	10.431270	4.570466	-4.516960	2.090620	-1.648080	0.750975	0.611082	0.195739	-1.000000	-1.000000	-1.000000	-1.000000	-1.000000	-1.000000	-1.000000	76.827586	0.000000	-1.000000	-1.000000	313181.000000	1773688183.335207
-6243.750000	20646.945000	31023.945000	-4124.385000	-26496.225000	11055.105000	-17416.935000	-27752.850000	2.996404	8.854291	11.043344	14.573117	28.086728	8.153931	13.756691	22.660564	-4.516960	2.090620	-1.648080	0.750975	0.611082	0.195739	-1.000000	-1.000000	-1.000000	-1.000000	-1.000000	-1.000000	-1.000000	76.827586	0.000000	-1.000000	-1.000000	313182.000000	1773688183.335218
-6178.230000	20676.420000	31033.755000	-4100.490000	-26475.615000	11085.390000	-17412.615000	-27854.100000	-10.311911	-5.484135	-2.537547	-3.376862	-2.430352	-2.510804	13.096684	34.920045	-4.516960	2.090620	-1.648080	0.750975	0.611082	0.195739	-1.000000	-1.000000	-1.000000	-1.000000	-1.000000	-1.000000	-1.000000	76.827586	0.000000	-1.000000	-1.000000	313183.000000	1773688183.338874
-6175.980000	20679.705000	31045.005000	-4095.315000	-26484.930000	11075.265000	-17438.670000	-27910.980000	-16.949846	-17.451943	-16.422516	-19.488692	-31.643471	-12.529446	7.811459	29.470327	-4.516960	2.090620	-1.648080	0.750975	0.611082	0.195739	-1.000000	-1.000000	-1.000000	-1.000000	-1.000000	-1.000000	-1.000000	76.827586	0.000000	-1.000000	-1.000000	313184.000000	1773688183.338881
-6184.710000	20675.610000	31064.130000	-4109.625000	-26501.715000	11051.640000	-17461.170000	-27861.165000	-10.645495	-18.988333	-21.115835	-24.748673	-43.497009	-16.206995	-1.065175	4.920111	-4.516960	2.090620	-1.648080	0.750975	0.611082	0.195739	-1.000000	-1.000000	-1.000000	-1.000000	-1.000000	-1.000000	-1.000000	76.827586	0.000000	-1.000000	-1.000000	313185.000000	1773688183.341374
-6207.705000	20637.900000	31019.220000	-4145.985000	-26514.315000	11019.105000	-17485.650000	-27879.030000	2.599239	-10.573286	-14.045849	-18.909711	-36.165846	-13.311433	-10.776858	-22.895859	-4.516960	2.090620	-1.648080	0.750975	0.611082	0.195739	-1.000000	-1.000000	-1.000000	-1.000000	-1.000000	-1.000000	-1.000000	76.827586	0.000000	-1.000000	-1.000000	313186.000000	1773688183.341384
-6253.695000	20590.290000	30966.120000	-4185.315000	-26556.840000	10977.750000	-17507.070000	-27922.725000	11.549904	-0.525671	-2.684257	-9.326225	-20.410860	-8.422673	-18.276475	-36.271468	-4.516960	2.090620	-1.648080	0.750975	0.611082	0.195739	-1.000000	-1.000000	-1.000000	-1.000000	-1.000000	-1.000000	-1.000000	76.827586	0.000000	-1.000000	-1.000000	313187.000000	1773688183.344449
-6237.540000	20605.995000	30980.295000	-4174.380000	-26558.100000	10993.545000	-17499.330000	-27914.130000	9.617974	3.712127	3.843765	-2.749925	-7.271313	-5.337990	-20.623778	-32.365806	-4.516960	2.090620	-1.648080	0.750975	0.611082	0.195739	-1.000000	-1.000000	-1.000000	-1.000000	-1.000000	-1.000000	-1.000000	76.827586	0.000000	-1.000000	-1.000000	313188.000000	1773688183.344459
-6221.025000	20627.550000	31001.715000	-4153.095000	-26538.660000	11014.605000	-17491.185000	-27925.695000	1.122238	3.170641	4.429185	0.987180	1.555765	-2.591168	-15.596969	-19.631148	-4.516960	2.090620	-1.648080	0.750975	0.611082	0.195739	-1.000000	-1.000000	-1.000000	-1.000000	-1.000000	-1.000000	-1.000000	76.827586	0.000000	-1.000000	-1.000000	313189.000000	1773688183.348502
-6214.545000	20637.585000	31012.380000	-4142.565000	-26521.605000	11026.170000	-17480.025000	-27906.705000	-2.942056	4.566202	4.891808	6.677871	11.502999	3.938224	-4.458590	-6.757912	-4.516960	2.090620	-1.648080	0.750975	0.611082	0.195739	-1.000000	-1.000000	-1.000000	-1.000000	-1.000000	-1.000000	-1.000000	76.827586	0.000000	-1.000000	-1.000000	313190.000000	1773688183.348513
-6217.830000	20634.435000	31008.825000	-4150.665000	-26523.855000	11023.920000	-17484.930000	-27913.815000	2.015877	10.939161	9.613055	15.897522	25.038959	14.314398	7.757814	2.535784	-2.670500	3.784480	-1.678600	0.752501	0.616698	0.194335	-1.000000	-1.000000	-1.000000	-1.000000	-1.000000	-1.000000	-1.000000	76.827586	0.000000	-1.000000	-1.000000	313191.000000	1773688183.355668
-6211.440000	20644.515000	31019.535000	-4142.745000	-26523.675000	11027.430000	-17483.355000	-27914.355000	9.156792	17.634626	16.190670	23.476872	36.307099	22.615817	16.064823	10.109086	-2.670500	3.784480	-1.678600	0.752501	0.616698	0.194335	-1.000000	-1.000000	-1.000000	-1.000000	-1.000000	-1.000000	-1.000000	76.827586	0.000000	-1.000000	-1.000000	313192.000000	1773688183.355677
-6196.545000	20657.970000	31032.135000	-4127.940000	-26521.515000	11034.495000	-17475.210000	-27891.945000	10.277703	18.107312	18.307148	23.122137	36.954465	22.820720	18.884132	19.057120	-2.670500	3.784480	-1.678600	0.752501	0.616698	0.194335	-1.000000	-1.000000	-1.000000	-1.000000	-1.000000	-1.000000	-1.000000	76.827586	0.000000	-1.000000	-1.000000	313193.000000	1773688183.356254
-6202.440000	20655.315000	31028.850000	-4132.125000	-26548.020000	11028.825000	-17479.395000	-27901.710000	4.969384	11.124626	12.674090	14.367538	24.315934	14.890153	17.545639	26.944836	-2.670500	3.784480	-1.678600	0.752501	0.616698	0.194335	-1.000000	-1.000000	-1.000000	-1.000000	-1.000000	-1.000000	-1.000000	76.827586	0.000000	-1.000000	-1.000000	313194.000000	1773688183.356259
-6203.745000	20656.845000	31031.010000	-4127.445000	-26545.455000	11022.975000	-17474.940000	-27905.220000	-1.967705	0.809074	2.108630	2.110936	2.683746	3.424037	13.386423	27.776802	-2.670500	3.784480	-1.678600	0.752501	0.616698	0.194335	-1.000000	-1.000000	-1.000000	-1.000000	-1.000000	-1.000000	-1.000000	76.827586	0.000000	-1.000000	-1.000000	313195.000000	1773688183.361633
-6201.225000	20658.510000	31034.205000	-4122.630000	-26497.215000	11034.585000	-17466.705000	-27902.880000	-6.403882	-7.738880	-7.330601	-8.121359	-18.289156	-6.741952	7.073109	19.585495	-2.670500	3.784480	-1.678600	0.752501	0.616698	0.194335	-1.000000	-1.000000	-1.000000	-1.000000	-1.000000	-1.000000	-1.000000	76.827586	0.000000	-1.000000	-1.000000	313196.000000	1773688183.361646
-6203.205000	20653.335000	31026.870000	-4127.220000	-26492.985000	11059.110000	-17462.205000	-27903.330000	-7.502655	-12.434201	-12.352146	-13.934414	-28.374094	-12.770413	-0.465121	5.213289	-2.670500	3.784480	-1.678600	0.752501	0.616698	0.194335	-1.000000	-1.000000	-1.000000	-1.000000	-1.000000	-1.000000	-1.000000	76.827586	0.000000	-1.000000	-1.000000	313197.000000	1773688183.365661
-6196.590000	20665.530000	31036.770000	-4137.075000	-26596.170000	11052.540000	-17460.045000	-27898.020000	-6.602785	-14.189501	-14.067067	-16.316015	-26.393910	-14.401651	-8.160658	-10.654523	-2.670500	3.784480	-1.678600	0.752501	0.616698	0.194335	-1.000000	-1.000000	-1.000000	-1.000000	-1.000000	-1.000000	-1.000000	76.827586	0.000000	-1.000000	-1.000000	313198.000000	1773688183.365672
-6183.540000	20676.420000	31047.030000	-4144.410000	-26596.215000	11036.205000	-17472.510000	-27894.870000	-4.441540	-13.254470	-13.342077	-16.349265	-20.250745	-13.232968	-14.755373	-22.909617	-2.670500	3.784480	-1.678600	0.752501	0.616698	0.194335	-1.000000	-1.000000	-1.000000	-1.000000	-1.000000	-1.000000	-1.000000	76.827586	0.000000	-1.000000	-1.000000	313199.000000	1773688183.375598
-6172.875000	20680.965000	31054.590000	-4125.510000	-26492.985000	11033.460000	-17489.835000	-27896.490000	-1.385471	-9.003521	-9.335336	-13.346020	-13.433733	-11.037635	-18.520414	-27.062874	-2.670500	3.784480	-1.678600	0.752501	0.616698	0.194335	-1.000000	-1.000000	-1.000000	-1.000000	-1.000000	-1.000000	-1.000000	76.827586	0.000000	-1.000000	-1.000000	313200.000000	1773688183.375612
-6173.910000	20685.420000	31062.285000	-4096.665000	-26420.580000	11054.025000	-17486.100000	-27925.110000	1.126011	-2.800657	-2.865516	-6.477980	-0.815491	-8.065066	-17.682634	-21.470327	-2.578940	4.272800	-1.892240	0.749876	0.614928	0.195434	-1.000000	-1.000000	-1.000000	-1.000000	-1.000000	-1.000000	-1.000000	76.827586	0.000000	-1.000000	-1.000000	313201.000000	1773688183.376083
-6147.180000	20711.880000	31090.140000	-4051.575000	-26407.170000	11098.350000	-17461.305000	-27961.155000	2.003568	2.843762	3.389732	3.540893	18.693067	-2.635321	-11.062541	-10.403138	-2.578940	4.272800	-1.892240	0.749876	0.614928	0.195434	-1.000000	-1.000000	-1.000000	-1.000000	-1.000000	-1.000000	-1.000000	76.827586	0.000000	-1.000000	-1.000000	313202.000000	1773688183.376100
-6163.830000	20693.835000	31080.420000	-4059.360000	-26431.875000	11095.605000	-17468.190000	-27938.070000	1.893966	6.618973	7.582874	13.833161	34.729588	6.093695	0.333820	-0.315599	-2.578940	4.272800	-1.892240	0.749876	0.614928	0.195434	-1.000000	-1.000000	-1.000000	-1.000000	-1.000000	-1.000000	-1.000000	76.827586	0.000000	-1.000000	-1.000000	313203.000000	1773688183.376462
-6225.975000	20613.465000	30994.695000	-4158.990000	-26535.600000	11010.060000	-17514.720000	-27864.675000	0.747465	6.801803	7.847188	18.132312	33.068269	13.573424	11.233899	8.070725	-2.578940	4.272800	-1.892240	0.749876	0.614928	0.195434	-1.000000	-1.000000	-1.000000	-1.000000	-1.000000	-1.000000	-1.000000	76.827586	0.000000	-1.000000	-1.000000	313204.000000	1773688183.376472
-6230.295000	20622.780000	30994.695000	-4154.580000	-26549.190000	11013.930000	-17503.920000	-27837.765000	-3.024637	1.439527	2.016693	10.447692	8.491349	12.075419	14.965922	17.349189	-2.578940	4.272800	-1.892240	0.749876	0.614928	0.195434	-1.000000	-1.000000	-1.000000	-1.000000	-1.000000	-1.000000	-1.000000	76.827586	0.000000	-1.000000	-1.000000	313205.000000	1773688183.380368
-6193.845000	20667.780000	31035.510000	-4116.330000	-26517.915000	11062.935000	-17455.230000	-27862.740000	-7.691597	-6.053967	-6.861304	-5.295553	-25.800260	1.337340	10.912105	24.714508	-2.578940	4.272800	-1.892240	0.749876	0.614928	0.195434	-1.000000	-1.000000	-1.000000	-1.000000	-1.000000	-1.000000	-1.000000	76.827586	0.000000	-1.000000	-1.000000	313206.000000	1773688183.380379
-6199.920000	20649.510000	31024.485000	-4138.650000	-26510.625000	11050.650000	-17455.050000	-27905.130000	-7.941609	-8.403729	-10.901380	-16.600151	-44.958443	-9.029003	4.972205	22.304019	-2.578940	4.272800	-1.892240	0.749876	0.614928	0.195434	-1.000000	-1.000000	-1.000000	-1.000000	-1.000000	-1.000000	-1.000000	76.827586	0.000000	-1.000000	-1.000000	313207.000000	1773688183.384362
-6216.840000	20632.230000	31012.020000	-4148.415000	-26505.855000	11023.785000	-17476.020000	-27972.045000	-2.526322	-3.915980	-6.849723	-16.177949	-35.913188	-11.152947	1.594502	6.122179	-2.578940	4.272800	-1.892240	0.749876	0.614928	0.195434	-1.000000	-1.000000	-1.000000	-1.000000	-1.000000	-1.000000	-1.000000	76.827586	0.000000	-1.000000	-1.000000	313208.000000	1773688183.384370
-6246.000000	20619.180000	30996.855000	-4151.655000	-26527.590000	11016.225000	-17474.265000	-27946.440000	3.531118	2.357691	0.921155	-7.401123	-9.908058	-6.268868	0.314306	-16.867378	-2.578940	4.272800	-1.892240	0.749876	0.614928	0.195434	-1.000000	-1.000000	-1.000000	-1.000000	-1.000000	-1.000000	-1.000000	76.827586	0.000000	-1.000000	-1.000000	313209.000000	1773688183.388339
-6252.795000	20602.530000	30977.820000	-4169.700000	-26540.865000	11007.225000	-17479.980000	-27871.965000	5.253637	5.358550	6.151277	1.741120	11.605949	-0.286912	-0.907422	-30.659229	-2.578940	4.272800	-1.892240	0.749876	0.614928	0.195434	-1.000000	-1.000000	-1.000000	-1.000000	-1.000000	-1.000000	-1.000000	76.827586	0.000000	-1.000000	-1.000000	313210.000000	1773688183.388350
-6231.420000	20619.765000	30994.200000	-4153.365000	-26527.005000	11023.785000	-17476.875000	-27894.600000	2.883716	4.155896	6.140826	5.760586	18.115336	2.683177	-3.086027	-23.755122	-2.762060	5.005280	-1.770160	0.747740	0.618040	0.197570	-1.000000	-1.000000	-1.000000	-1.000000	-1.000000	-1.000000	-1.000000	76.827586	0.000000	-1.000000	-1.000000	313211.000000	1773688183.392420
-6216.480000	20633.670000	31006.845000	-4149.630000	-26560.890000	11021.265000	-17478.180000	-27899.640000	1.459032	2.589221	4.102159	5.968266	14.612911	3.508903	-5.209959	-2.326424	-2.762060	5.005280	-1.770160	0.747740	0.618040	0.197570	-1.000000	-1.000000	-1.000000	-1.000000	-1.000000	-1.000000	-1.000000	76.827586	0.000000	-1.000000	-1.000000	313212.000000	1773688183.392480
-6199.245000	20656.395000	31029.435000	-4130.325000	-26534.295000	11039.895000	-17473.770000	-27890.325000	5.564661	5.698939	5.914814	8.100088	11.040189	6.154537	-4.847861	15.693471	-2.762060	5.005280	-1.770160	0.747740	0.618040	0.197570	-1.000000	-1.000000	-1.000000	-1.000000	-1.000000	-1.000000	-1.000000	76.827586	0.000000	-1.000000	-1.000000	313213.000000	1773688183.396277
-6203.520000	20652.570000	31026.555000	-4132.305000	-26506.080000	11036.790000	-17482.770000	-27904.770000	13.174269	12.477763	11.982067	13.559184	12.301550	10.973625	-1.907503	18.594275	-2.762060	5.005280	-1.770160	0.747740	0.618040	0.197570	-1.000000	-1.000000	-1.000000	-1.000000	-1.000000	-1.000000	-1.000000	76.827586	0.000000	-1.000000	-1.000000	313214.000000	1773688183.396288
-6199.875000	20655.270000	31030.155000	-4123.215000	-26476.650000	11044.170000	-17486.865000	-27919.440000	16.458301	15.188306	15.205436	16.549028	16.272742	12.654928	0.003829	8.686313	-2.762060	5.005280	-1.770160	0.747740	0.618040	0.197570	-1.000000	-1.000000	-1.000000	-1.000000	-1.000000	-1.000000	-1.000000	76.827586	0.000000	-1.000000	-1.000000	313215.000000	1773688183.400300
-6200.055000	20648.745000	31023.540000	-4129.695000	-26497.800000	11041.110000	-17475.210000	-27907.200000	10.386433	8.716766	9.753881	12.127791	17.193184	7.715716	-1.116139	-3.226110	-2.762060	5.005280	-1.770160	0.747740	0.618040	0.197570	-1.000000	-1.000000	-1.000000	-1.000000	-1.000000	-1.000000	-1.000000	76.827586	0.000000	-1.000000	-1.000000	313216.000000	1773688183.400310
-6209.370000	20639.655000	31013.910000	-4143.645000	-26521.515000	11025.000000	-17478.045000	-27907.695000	-2.062442	-3.704431	-2.330513	1.588387	9.728300	-0.960944	-2.382177	-7.294277	-2.762060	5.005280	-1.770160	0.747740	0.618040	0.197570	-1.000000	-1.000000	-1.000000	-1.000000	-1.000000	-1.000000	-1.000000	76.827586	0.000000	-1.000000	-1.000000	313217.000000	1773688183.414413
-6197.805000	20658.150000	31031.865000	-4127.670000	-26511.075000	11034.405000	-17471.115000	-27902.700000	-13.395510	-14.566256	-13.932701	-10.157863	-6.059291	-8.462706	-0.700345	-2.567507	-2.762060	5.005280	-1.770160	0.747740	0.618040	0.197570	-1.000000	-1.000000	-1.000000	-1.000000	-1.000000	-1.000000	-1.000000	76.827586	0.000000	-1.000000	-1.000000	313218.000000	1773688183.414426
-6206.445000	20654.505000	31027.995000	-4131.180000	-26518.635000	11031.210000	-17476.740000	-27910.395000	-18.013123	-18.183003	-18.777154	-17.857972	-22.423624	-11.992428	3.063228	3.461927	-2.762060	5.005280	-1.770160	0.747740	0.618040	0.197570	-1.000000	-1.000000	-1.000000	-1.000000	-1.000000	-1.000000	-1.000000	76.827586	0.000000	-1.000000	-1.000000	313219.000000	1773688183.414438
-6211.575000	20646.675000	31019.310000	-4136.580000	-26535.780000	11031.660000	-17485.425000	-27914.265000	-15.770394	-14.297861	-15.797691	-18.733521	-30.118785	-11.340154	5.706838	4.442855	-2.762060	5.005280	-1.770160	0.747740	0.618040	0.197570	-1.000000	-1.000000	-1.000000	-1.000000	-1.000000	-1.000000	-1.000000	76.827586	0.000000	-1.000000	-1.000000	313220.000000	1773688183.414443
-6210.495000	20648.115000	31019.760000	-4151.205000	-26602.560000	11022.435000	-17482.230000	-27914.805000	-9.853436	-6.833365	-8.483234	-13.620189	-26.055176	-7.609149	5.291398	0.481159	-2.929920	5.539380	-2.105880	0.749876	0.614989	0.198730	-1.000000	-1.000000	-1.000000	-1.000000	-1.000000	-1.000000	-1.000000	76.827586	0.000000	-1.000000	-1.000000	313221.000000	1773688183.414450
-6203.880000	20656.665000	31026.330000	-4168.305000	-26607.330000	11026.215000	-17471.295000	-27922.185000	-2.978541	0.287110	-0.771486	-5.754255	-14.684724	-2.447324	2.667552	-5.087083	-2.929920	5.539380	-2.105880	0.749876	0.614989	0.198730	-1.000000	-1.000000	-1.000000	-1.000000	-1.000000	-1.000000	-1.000000	76.827586	0.000000	-1.000000	-1.000000	313222.000000	1773688183.414456
-6202.890000	20663.820000	31029.660000	-4129.920000	-26511.615000	11047.005000	-17468.595000	-27933.930000	3.103720	4.918170	4.775720	1.444432	-1.656834	2.158288	-0.182009	-8.664841	-2.929920	5.539380	-2.105880	0.749876	0.614989	0.198730	-1.000000	-1.000000	-1.000000	-1.000000	-1.000000	-1.000000	-1.000000	76.827586	0.000000	-1.000000	-1.000000	313223.000000	1773688183.423171
-6210.495000	20662.920000	31036.320000	-4089.105000	-26434.440000	11058.840000	-17477.775000	-27933.480000	6.898922	6.622781	7.213700	7.479461	12.618620	5.321034	-2.277024	-7.627305	-2.929920	5.539380	-2.105880	0.749876	0.614989	0.198730	-1.000000	-1.000000	-1.000000	-1.000000	-1.000000	-1.000000	-1.000000	76.827586	0.000000	-1.000000	-1.000000	313224.000000	1773688183.423183
-6196.725000	20673.090000	31052.745000	-4090.815000	-26463.420000	11061.765000	-17476.785000	-27919.710000	7.883633	6.418289	7.515699	13.403830	27.528061	7.448031	-3.612848	-1.760886	-2.929920	5.539380	-2.105880	0.749876	0.614989	0.198730	-1.000000	-1.000000	-1.000000	-1.000000	-1.000000	-1.000000	-1.000000	76.827586	0.000000	-1.000000	-1.000000	313225.000000	1773688183.423194
-6188.805000	20665.620000	31021.560000	-4120.605000	-26486.460000	11050.740000	-17479.665000	-27909.540000	7.258568	5.522870	6.794226	16.800052	35.147112	8.332790	-4.066429	6.351110	-2.929920	5.539380	-2.105880	0.749876	0.614989	0.198730	-1.000000	-1.000000	-1.000000	-1.000000	-1.000000	-1.000000	-1.000000	76.827586	0.000000	-1.000000	-1.000000	313226.000000	1773688183.423199
-6190.695000	20660.175000	31034.565000	-4112.325000	-26459.145000	11062.755000	-17461.350000	-27925.515000	6.265991	3.825282	4.471953	13.216148	27.694171	6.753941	-3.166657	11.969109	-2.929920	5.539380	-2.105880	0.749876	0.614989	0.198730	-1.000000	-1.000000	-1.000000	-1.000000	-1.000000	-1.000000	-1.000000	76.827586	0.000000	-1.000000	-1.000000	313227.000000	1773688183.424370
-6157.935000	20694.870000	31086.810000	-4079.925000	-26448.930000	11083.410000	-17439.435000	-27855.045000	5.001170	1.232817	1.185074	3.266230	8.188540	2.750917	-0.354957	12.157874	-2.929920	5.539380	-2.105880	0.749876	0.614989	0.198730	-1.000000	-1.000000	-1.000000	-1.000000	-1.000000	-1.000000	-1.000000	76.827586	0.000000	-1.000000	-1.000000	313228.000000	1773688183.424392
-6124.590000	20728.350000	31111.605000	-4054.995000	-26435.610000	11103.615000	-17441.865000	-27842.715000	4.084918	-0.052218	0.444385	-6.120651	-11.561279	-1.153218	4.027917	9.213655	-2.929920	5.539380	-2.105880	0.749876	0.614989	0.198730	-1.000000	-1.000000	-1.000000	-1.000000	-1.000000	-1.000000	-1.000000	76.827586	0.000000	-1.000000	-1.000000	313229.000000	1773688183.428270
-6189.075000	20675.340000	31054.545000	-4107.780000	-26487.855000	11056.005000	-17467.470000	-27918.180000	3.188293	0.947106	2.576289	-9.493877	-21.628046	-3.187803	7.110548	4.852518	-2.929920	5.539380	-2.105880	0.749876	0.614989	0.198730	-1.000000	-1.000000	-1.000000	-1.000000	-1.000000	-1.000000	-1.000000	76.827586	0.000000	-1.000000	-1.000000	313230.000000	1773688183.428282
-6228.270000	20627.910000	31007.475000	-4154.715000	-26533.890000	11013.480000	-17497.845000	-27905.220000	-1.391407	-0.084622	1.579578	-9.255913	-22.671766	-5.705666	4.819368	-2.900600	-2.807840	5.463080	-1.083460	0.751890	0.613524	0.197570	-1.000000	-1.000000	-1.000000	-1.000000	-1.000000	-1.000000	-1.000000	76.827586	0.000000	-1.000000	-1.000000	313231.000000	1773688183.433207
-6204.105000	20655.720000	31036.680000	-4122.765000	-26501.310000	11043.405000	-17492.310000	-27907.605000	-10.679960	-6.389890	-6.133336	-10.660460	-22.458592	-10.859260	-3.120320	-12.261639	-2.807840	5.463080	-1.083460	0.751890	0.613524	0.197570	-1.000000	-1.000000	-1.000000	-1.000000	-1.000000	-1.000000	-1.000000	76.827586	0.000000	-1.000000	-1.000000	313232.000000	1773688183.433213
-6210.135000	20637.675000	31013.100000	-4144.095000	-26521.110000	11026.710000	-17479.080000	-27902.025000	-18.200139	-13.361236	-15.190447	-13.471378	-23.632516	-15.056743	-10.945255	-17.047593	-2.807840	5.463080	-1.083460	0.751890	0.613524	0.197570	-1.000000	-1.000000	-1.000000	-1.000000	-1.000000	-1.000000	-1.000000	76.827586	0.000000	-1.000000	-1.000000	313233.000000	1773688183.436194
-6218.640000	20623.320000	30998.160000	-4159.890000	-26538.840000	11009.655000	-17470.755000	-27865.080000	-17.383800	-14.505606	-18.131230	-13.256342	-20.898960	-13.293833	-11.944827	-13.778400	-2.807840	5.463080	-1.083460	0.751890	0.613524	0.197570	-1.000000	-1.000000	-1.000000	-1.000000	-1.000000	-1.000000	-1.000000	76.827586	0.000000	-1.000000	-1.000000	313234.000000	1773688183.436204
-6214.860000	20630.295000	31004.505000	-4152.105000	-26531.730000	11018.610000	-17474.625000	-27883.215000	-8.524512	-8.487459	-12.474783	-7.104638	-9.460929	-5.169863	-5.134884	-4.273654	-2.807840	5.463080	-1.083460	0.751890	0.613524	0.197570	-1.000000	-1.000000	-1.000000	-1.000000	-1.000000	-1.000000	-1.000000	76.827586	0.000000	-1.000000	-1.000000	313235.000000	1773688183.440448
-6208.245000	20631.330000	31003.830000	-4152.330000	-26530.605000	11026.260000	-17480.745000	-27881.505000	3.441010	1.741417	-0.916145	3.725661	8.346737	5.753376	4.130581	5.545019	-2.807840	5.463080	-1.083460	0.751890	0.613524	0.197570	-1.000000	-1.000000	-1.000000	-1.000000	-1.000000	-1.000000	-1.000000	76.827586	0.000000	-1.000000	-1.000000	313236.000000	1773688183.440459
-6210.495000	20634.660000	31007.115000	-4149.405000	-26530.515000	11024.325000	-17483.220000	-27896.040000	12.694017	11.046784	10.163873	13.923062	24.613166	14.440827	9.419601	9.176758	-2.807840	5.463080	-1.083460	0.751890	0.613524	0.197570	-1.000000	-1.000000	-1.000000	-1.000000	-1.000000	-1.000000	-1.000000	76.827586	0.000000	-1.000000	-1.000000	313237.000000	1773688183.447110
-6207.885000	20650.275000	31023.135000	-4138.290000	-26532.045000	11031.210000	-17470.215000	-27923.580000	15.420636	15.114894	15.579294	18.559432	32.642254	17.280507	8.855720	4.783183	-2.807840	5.463080	-1.083460	0.751890	0.613524	0.197570	-1.000000	-1.000000	-1.000000	-1.000000	-1.000000	-1.000000	-1.000000	76.827586	0.000000	-1.000000	-1.000000	313238.000000	1773688183.447120
-6200.460000	20657.160000	31030.290000	-4134.600000	-26533.575000	11038.455000	-17461.530000	-27907.605000	12.979942	14.428098	16.136447	17.887293	31.238177	15.051800	5.725878	-2.316275	-2.807840	5.463080	-1.083460	0.751890	0.613524	0.197570	-1.000000	-1.000000	-1.000000	-1.000000	-1.000000	-1.000000	-1.000000	76.827586	0.000000	-1.000000	-1.000000	313239.000000	1773688183.448224
-6190.380000	20658.870000	31029.345000	-4131.540000	-26517.420000	11039.355000	-17459.055000	-27889.470000	9.815949	12.187859	15.118235	14.743059	22.575271	10.926454	3.857357	-4.396515	-2.807840	5.463080	-1.083460	0.751890	0.613524	0.197570	-1.000000	-1.000000	-1.000000	-1.000000	-1.000000	-1.000000	-1.000000	76.827586	0.000000	-1.000000	-1.000000	313240.000000	1773688183.448234
-6163.515000	20673.180000	31044.060000	-4114.215000	-26488.305000	11049.705000	-17467.200000	-27880.785000	7.688823	9.067677	12.518673	9.502297	9.125905	5.940668	3.361431	0.788001	-1.098720	6.058220	-0.259420	0.750547	0.613097	0.195434	-1.000000	-1.000000	-1.000000	-1.000000	-1.000000	-1.000000	-1.000000	76.827586	0.000000	-1.000000	-1.000000	313241.000000	1773688183.452452
-6126.345000	20727.945000	31104.585000	-4063.860000	-26457.345000	11098.080000	-17459.550000	-27940.545000	5.708677	4.750448	7.649536	2.538770	-4.778406	0.528120	1.672619	7.606625	-1.098720	6.058220	-0.259420	0.750547	0.613097	0.195434	-1.000000	-1.000000	-1.000000	-1.000000	-1.000000	-1.000000	-1.000000	76.827586	0.000000	-1.000000	-1.000000	313242.000000	1773688183.452458
-6152.490000	20747.430000	31134.240000	-4051.530000	-26481.915000	11124.180000	-17425.755000	-27989.100000	2.902333	1.168757	3.119288	-2.760476	-13.650430	-2.599622	-1.781567	7.327170	-1.098720	6.058220	-0.259420	0.750547	0.613097	0.195434	-1.000000	-1.000000	-1.000000	-1.000000	-1.000000	-1.000000	-1.000000	76.827586	0.000000	-1.000000	-1.000000	313243.000000	1773688183.460203
-6187.815000	20698.380000	31078.305000	-4097.340000	-26505.855000	11079.135000	-17442.720000	-27865.215000	-2.639710	-1.530945	-0.242885	-5.424706	-16.817704	-3.097925	-4.688696	-0.678669	-1.098720	6.058220	-0.259420	0.750547	0.613097	0.195434	-1.000000	-1.000000	-1.000000	-1.000000	-1.000000	-1.000000	-1.000000	76.827586	0.000000	-1.000000	-1.000000	313244.000000	1773688183.460214
-6210.135000	20654.505000	31022.865000	-4122.270000	-26500.050000	11031.660000	-17475.930000	-27865.845000	-12.202207	-7.452852	-7.191014	-9.529202	-17.682864	-6.004212	-6.179560	-5.978610	-1.098720	6.058220	-0.259420	0.750547	0.613097	0.195434	-1.000000	-1.000000	-1.000000	-1.000000	-1.000000	-1.000000	-1.000000	76.827586	0.000000	-1.000000	-1.000000	313245.000000	1773688183.460358
-6211.935000	20650.860000	31012.470000	-4123.395000	-26493.750000	11021.535000	-17490.015000	-27932.130000	-22.390601	-18.204940	-20.209582	-16.943597	-16.988699	-14.399998	-7.801912	-2.690347	-1.098720	6.058220	-0.259420	0.750547	0.613097	0.195434	-1.000000	-1.000000	-1.000000	-1.000000	-1.000000	-1.000000	-1.000000	76.827586	0.000000	-1.000000	-1.000000	313246.000000	1773688183.460370
-6179.895000	20679.435000	31048.605000	-4107.015000	-26496.720000	11040.750000	-17461.845000	-27878.985000	-25.692986	-27.279289	-31.885538	-22.549282	-12.554634	-22.825395	-9.253804	3.877585	-1.098720	6.058220	-0.259420	0.750547	0.613097	0.195434	-1.000000	-1.000000	-1.000000	-1.000000	-1.000000	-1.000000	-1.000000	76.827586	0.000000	-1.000000	-1.000000	313247.000000	1773688183.464368
-6201.090000	20635.875000	31011.570000	-4165.920000	-26551.170000	11012.130000	-17482.275000	-27849.015000	-17.128290	-25.999086	-31.329565	-20.304413	-4.880290	-22.720695	-7.762659	8.573302	-1.098720	6.058220	-0.259420	0.750547	0.613097	0.195434	-1.000000	-1.000000	-1.000000	-1.000000	-1.000000	-1.000000	-1.000000	76.827586	0.000000	-1.000000	-1.000000	313248.000000	1773688183.464375
-6234.705000	20594.970000	30971.340000	-4200.930000	-26570.295000	10995.210000	-17494.740000	-27879.300000	-1.095536	-14.138028	-17.199255	-11.457501	0.838613	-12.514765	-2.712434	9.552647	-1.098720	6.058220	-0.259420	0.750547	0.613097	0.195434	-1.000000	-1.000000	-1.000000	-1.000000	-1.000000	-1.000000	-1.000000	76.827586	0.000000	-1.000000	-1.000000	313249.000000	1773688183.470692
-6228.990000	20614.005000	30985.290000	-4166.730000	-26520.705000	11021.310000	-17482.905000	-27905.040000	11.811862	0.580550	1.420220	-1.764309	1.370894	1.924094	3.346126	4.816881	-1.098720	6.058220	-0.259420	0.750547	0.613097	0.195434	-1.000000	-1.000000	-1.000000	-1.000000	-1.000000	-1.000000	-1.000000	76.827586	0.000000	-1.000000	-1.000000	313250.000000	1773688183.470704
-6213.870000	20636.010000	31003.605000	-4132.800000	-26510.715000	11036.160000	-17477.370000	-27931.005000	15.730426	11.875432	15.517903	6.672012	0.898726	14.202643	7.844744	-4.455988	-1.083460	5.493600	-0.503580	0.747313	0.613646	0.198852	-1.000000	-1.000000	-1.000000	-1.000000	-1.000000	-1.000000	-1.000000	76.827586	0.000000	-1.000000	-1.000000	313251.000000	1773688183.472223
-6202.080000	20649.330000	31019.490000	-4124.700000	-26507.160000	11046.285000	-17482.095000	-27928.620000	13.694588	18.656022	22.341731	14.978157	4.905874	20.893873	9.217525	-13.062643	-1.083460	5.493600	-0.503580	0.747313	0.613646	0.198852	-1.000000	-1.000000	-1.000000	-1.000000	-1.000000	-1.000000	-1.000000	76.827586	0.000000	-1.000000	-1.000000	313252.000000	1773688183.472234
-6195.645000	20658.015000	31036.095000	-4114.755000	-26548.335000	11046.465000	-17477.955000	-27873.855000	11.697274	22.529630	24.347757	22.730794	12.162295	21.853640	7.510639	-16.879976	-1.083460	5.493600	-0.503580	0.747313	0.613646	0.198852	-1.000000	-1.000000	-1.000000	-1.000000	-1.000000	-1.000000	-1.000000	76.827586	0.000000	-1.000000	-1.000000	313253.000000	1773688183.476314
-6205.140000	20649.060000	31017.555000	-4142.835000	-26559.765000	11033.595000	-17474.445000	-27881.775000	11.583872	24.122241	24.329052	26.510656	15.888656	18.804157	5.092511	-13.945508	-1.083460	5.493600	-0.503580	0.747313	0.613646	0.198852	-1.000000	-1.000000	-1.000000	-1.000000	-1.000000	-1.000000	-1.000000	76.827586	0.000000	-1.000000	-1.000000	313254.000000	1773688183.476321
-6203.070000	20651.985000	31002.120000	-4144.140000	-26521.785000	11034.270000	-17477.460000	-27907.965000	10.260419	20.987490	20.567176	21.803492	12.181069	12.455702	3.757986	-4.306046	-1.083460	5.493600	-0.503580	0.747313	0.613646	0.198852	-1.000000	-1.000000	-1.000000	-1.000000	-1.000000	-1.000000	-1.000000	76.827586	0.000000	-1.000000	-1.000000	313255.000000	1773688183.480509
-6201.720000	20650.905000	30996.630000	-4131.855000	-26486.415000	11039.310000	-17480.070000	-27908.370000	4.691989	10.972095	9.738093	8.530278	5.300725	3.092257	2.332110	6.771556	-1.083460	5.493600	-0.503580	0.747313	0.613646	0.198852	-1.000000	-1.000000	-1.000000	-1.000000	-1.000000	-1.000000	-1.000000	76.827586	0.000000	-1.000000	-1.000000	313256.000000	1773688183.480519
-6197.670000	20663.190000	31047.570000	-4115.790000	-26515.530000	11040.165000	-17475.480000	-27905.670000	-3.692593	-2.642196	-4.934664	-6.024238	1.593838	-6.623959	-0.425493	11.952507	-1.083460	5.493600	-0.503580	0.747313	0.613646	0.198852	-1.000000	-1.000000	-1.000000	-1.000000	-1.000000	-1.000000	-1.000000	76.827586	0.000000	-1.000000	-1.000000	313257.000000	1773688183.484578
-6176.565000	20681.955000	31080.330000	-4114.575000	-26512.830000	11062.215000	-17459.460000	-27877.365000	-10.021925	-12.767964	-14.106446	-13.877276	0.716548	-12.698404	-3.128149	10.380023	-1.083460	5.493600	-0.503580	0.747313	0.613646	0.198852	-1.000000	-1.000000	-1.000000	-1.000000	-1.000000	-1.000000	-1.000000	76.827586	0.000000	-1.000000	-1.000000	313258.000000	1773688183.484588
-6162.615000	20696.715000	31082.085000	-4093.740000	-26470.440000	11086.110000	-17450.055000	-27887.355000	-10.990882	-15.722294	-13.403456	-14.329562	-1.842504	-13.404768	-4.006513	7.541326	-1.083460	5.493600	-0.503580	0.747313	0.613646	0.198852	-1.000000	-1.000000	-1.000000	-1.000000	-1.000000	-1.000000	-1.000000	76.827586	0.000000	-1.000000	-1.000000	313259.000000	1773688183.490614
-6175.350000	20692.620000	31071.735000	-4079.250000	-26465.715000	11081.745000	-17457.480000	-27929.880000	-7.902286	-13.945927	-8.465239	-11.887498	-6.613813	-10.426505	-3.523097	6.529301	-1.083460	5.493600	-0.503580	0.747313	0.613646	0.198852	-1.000000	-1.000000	-1.000000	-1.000000	-1.000000	-1.000000	-1.000000	76.827586	0.000000	-1.000000	-1.000000	313260.000000	1773688183.490624
-6210.945000	20648.880000	31023.180000	-4124.475000	-26527.590000	11039.670000	-17488.080000	-27892.530000	-4.913223	-11.902215	-7.202516	-10.007691	-10.784963	-7.199029	-3.619615	4.454117	-3.021480	5.676720	-1.342880	0.748777	0.613158	0.201538	-1.000000	-1.000000	-1.000000	-1.000000	-1.000000	-1.000000	-1.000000	76.827586	0.000000	-1.000000	-1.000000	313261.000000	1773688183.492299
-6196.275000	20655.630000	31028.760000	-4122.090000	-26488.620000	11054.295000	-17489.115000	-27867.465000	-4.558227	-11.373060	-11.279561	-9.371510	-12.295215	-5.654332	-5.178789	-1.112055	-3.021480	5.676720	-1.342880	0.748777	0.613158	0.201538	-1.000000	-1.000000	-1.000000	-1.000000	-1.000000	-1.000000	-1.000000	76.827586	0.000000	-1.000000	-1.000000	313262.000000	1773688183.492309
-6185.070000	20665.080000	31037.130000	-4104.720000	-26449.065000	11069.775000	-17467.470000	-27937.890000	-4.900192	-10.028330	-14.975256	-7.817926	-9.038886	-3.923351	-6.307569	-7.702442	-3.021480	5.676720	-1.342880	0.748777	0.613158	0.201538	-1.000000	-1.000000	-1.000000	-1.000000	-1.000000	-1.000000	-1.000000	76.827586	0.000000	-1.000000	-1.000000	313263.000000	1773688183.496791
-6227.730000	20616.930000	30986.280000	-4154.535000	-26513.595000	11016.135000	-17475.480000	-27942.525000	-3.263561	-5.573019	-12.379958	-3.320994	-1.933365	-0.278223	-4.322194	-12.089073	-3.021480	5.676720	-1.342880	0.748777	0.613158	0.201538	-1.000000	-1.000000	-1.000000	-1.000000	-1.000000	-1.000000	-1.000000	76.827586	0.000000	-1.000000	-1.000000	313264.000000	1773688183.496801
-6228.270000	20621.115000	30991.320000	-4155.615000	-26525.790000	11020.455000	-17478.495000	-27885.420000	-0.597498	0.400533	-4.424816	1.979811	2.672679	2.977216	0.522487	-12.227717	-3.021480	5.676720	-1.342880	0.748777	0.613158	0.201538	-1.000000	-1.000000	-1.000000	-1.000000	-1.000000	-1.000000	-1.000000	76.827586	0.000000	-1.000000	-1.000000	313265.000000	1773688183.500274
-6216.345000	20638.620000	31009.185000	-4142.070000	-26515.215000	11039.040000	-17474.265000	-27927.405000	1.546482	5.750271	4.118366	5.316893	1.635831	3.986512	5.310206	-6.883306	-3.021480	5.676720	-1.342880	0.748777	0.613158	0.201538	-1.000000	-1.000000	-1.000000	-1.000000	-1.000000	-1.000000	-1.000000	76.827586	0.000000	-1.000000	-1.000000	313266.000000	1773688183.500282
-6187.230000	20661.885000	31032.585000	-4117.770000	-26494.200000	11057.310000	-17473.140000	-27919.845000	3.765988	10.198237	10.309802	7.128640	-1.002865	4.102983	7.333556	1.224908	-3.021480	5.676720	-1.342880	0.748777	0.613158	0.201538	-1.000000	-1.000000	-1.000000	-1.000000	-1.000000	-1.000000	-1.000000	76.827586	0.000000	-1.000000	-1.000000	313267.000000	1773688183.504347
-6194.970000	20652.795000	31024.620000	-4123.440000	-26500.545000	11052.315000	-17472.870000	-27886.995000	6.414775	12.823528	13.379259	8.051667	-1.513824	4.201105	5.689992	8.231265	-3.021480	5.676720	-1.342880	0.748777	0.613158	0.201538	-1.000000	-1.000000	-1.000000	-1.000000	-1.000000	-1.000000	-1.000000	76.827586	0.000000	-1.000000	-1.000000	313268.000000	1773688183.504357
-6219.000000	20643.075000	31016.745000	-4131.405000	-26507.070000	11047.410000	-17463.870000	-27886.545000	8.096312	11.964367	13.349739	7.165514	0.287883	3.831569	2.079508	13.374859	-3.021480	5.676720	-1.342880	0.748777	0.613158	0.201538	-1.000000	-1.000000	-1.000000	-1.000000	-1.000000	-1.000000	-1.000000	76.827586	0.000000	-1.000000	-1.000000	313269.000000	1773688183.508474
-6206.805000	20652.615000	31025.700000	-4128.120000	-26505.180000	11049.795000	-17468.415000	-27907.335000	7.454572	8.101791	11.171349	4.746019	4.017074	3.437651	-0.251735	14.261856	-3.021480	5.676720	-1.342880	0.748777	0.613158	0.201538	-1.000000	-1.000000	-1.000000	-1.000000	-1.000000	-1.000000	-1.000000	76.827586	0.000000	-1.000000	-1.000000	313270.000000	1773688183.508485
-6192.045000	20668.860000	31039.920000	-4124.745000	-26500.905000	11060.235000	-17464.140000	-27906.165000	4.905759	3.755905	8.289562	2.599506	8.153664	3.642018	-0.024619	7.585645	-2.670500	4.959500	-0.854560	0.749205	0.616698	0.200866	-1.000000	-1.000000	-1.000000	-1.000000	-1.000000	-1.000000	-1.000000	76.827586	0.000000	-1.000000	-1.000000	313271.000000	1773688183.519817
-6195.645000	20650.950000	31020.345000	-4141.845000	-26522.100000	11041.245000	-17466.075000	-27888.615000	1.827278	0.412315	5.041128	1.216711	8.945581	3.551185	0.850491	-2.568581	-2.670500	4.959500	-0.854560	0.749205	0.616698	0.200866	-1.000000	-1.000000	-1.000000	-1.000000	-1.000000	-1.000000	-1.000000	76.827586	0.000000	-1.000000	-1.000000	313272.000000	1773688183.519828
-6194.565000	20651.310000	31023.045000	-4124.250000	-26527.050000	11039.535000	-17463.960000	-27893.970000	-0.578934	-2.035440	1.096344	0.214559	4.965747	2.183922	0.364265	-8.506752	-2.670500	4.959500	-0.854560	0.749205	0.616698	0.200866	-1.000000	-1.000000	-1.000000	-1.000000	-1.000000	-1.000000	-1.000000	76.827586	0.000000	-1.000000	-1.000000	313273.000000	1773688183.519840
-6160.230000	20695.995000	31069.080000	-4080.420000	-26484.345000	11083.185000	-17430.615000	-27885.645000	-1.408849	-3.321252	-2.798228	0.480370	0.109854	0.389075	-0.845880	-8.777879	-2.670500	4.959500	-0.854560	0.749205	0.616698	0.200866	-1.000000	-1.000000	-1.000000	-1.000000	-1.000000	-1.000000	-1.000000	76.827586	0.000000	-1.000000	-1.000000	313274.000000	1773688183.519844
-6139.260000	20723.085000	31096.170000	-4057.920000	-26446.815000	11110.005000	-17409.195000	-27878.490000	-0.723707	-2.816360	-5.248468	2.480151	-0.873374	-0.292661	-0.649878	-6.093548	-2.670500	4.959500	-0.854560	0.749205	0.616698	0.200866	-1.000000	-1.000000	-1.000000	-1.000000	-1.000000	-1.000000	-1.000000	76.827586	0.000000	-1.000000	-1.000000	313275.000000	1773688183.522289
-6196.770000	20656.395000	31026.915000	-4126.815000	-26501.040000	11043.405000	-17468.820000	-27889.470000	-1.017079	-2.391250	-7.023290	2.900697	1.102829	-1.031130	0.478151	-2.427620	-2.670500	4.959500	-0.854560	0.749205	0.616698	0.200866	-1.000000	-1.000000	-1.000000	-1.000000	-1.000000	-1.000000	-1.000000	76.827586	0.000000	-1.000000	-1.000000	313276.000000	1773688183.522300
-6230.970000	20616.390000	30985.110000	-4176.090000	-26592.795000	10989.630000	-17522.865000	-27917.100000	-5.513211	-6.014757	-11.096921	-3.343024	-0.711180	-5.664724	-1.692831	-0.187463	-2.670500	4.959500	-0.854560	0.749205	0.616698	0.200866	-1.000000	-1.000000	-1.000000	-1.000000	-1.000000	-1.000000	-1.000000	76.827586	0.000000	-1.000000	-1.000000	313277.000000	1773688183.524306
-6214.005000	20643.480000	31013.595000	-4153.005000	-26565.705000	11015.685000	-17501.355000	-27937.755000	-12.394440	-12.877619	-16.537998	-14.786890	-9.360624	-13.709215	-8.554955	-1.653022	-2.670500	4.959500	-0.854560	0.749205	0.616698	0.200866	-1.000000	-1.000000	-1.000000	-1.000000	-1.000000	-1.000000	-1.000000	76.827586	0.000000	-1.000000	-1.000000	313278.000000	1773688183.524316
-6202.620000	20648.970000	31019.535000	-4137.705000	-26506.305000	11028.780000	-17488.755000	-27915.840000	-14.997491	-15.876176	-16.937367	-21.657976	-17.014700	-17.635516	-13.911538	-5.342359	-2.670500	4.959500	-0.854560	0.749205	0.616698	0.200866	-1.000000	-1.000000	-1.000000	-1.000000	-1.000000	-1.000000	-1.000000	76.827586	0.000000	-1.000000	-1.000000	313279.000000	1773688183.529585
-6188.490000	20661.255000	31035.420000	-4113.900000	-26464.275000	11048.715000	-17496.765000	-27896.670000	-9.495757	-10.134173	-8.381809	-16.030681	-13.204229	-11.325032	-11.152033	-5.875163	-2.670500	4.959500	-0.854560	0.749205	0.616698	0.200866	-1.000000	-1.000000	-1.000000	-1.000000	-1.000000	-1.000000	-1.000000	76.827586	0.000000	-1.000000	-1.000000	313280.000000	1773688183.529595
-6180.480000	20687.895000	31066.155000	-4087.800000	-26461.530000	11075.760000	-17481.645000	-27926.280000	1.875848	2.660940	6.566064	0.725166	2.817396	3.747859	-0.961576	-0.493428	-3.250380	4.165980	-1.541260	0.752195	0.612852	0.197204	-1.000000	-1.000000	-1.000000	-1.000000	-1.000000	-1.000000	-1.000000	76.827586	0.000000	-1.000000	-1.000000	313281.000000	1773688183.533641
-6192.630000	20677.500000	31061.520000	-4098.915000	-26484.255000	11061.135000	-17470.395000	-27871.290000	13.140358	16.392025	21.096275	19.216743	20.538685	19.842293	10.822103	7.212121	-3.250380	4.165980	-1.541260	0.752195	0.612852	0.197204	-1.000000	-1.000000	-1.000000	-1.000000	-1.000000	-1.000000	-1.000000	76.827586	0.000000	-1.000000	-1.000000	313282.000000	1773688183.533660
-6212.745000	20636.685000	31012.785000	-4146.570000	-26526.240000	11029.500000	-17471.070000	-27841.905000	17.203957	22.046051	25.707268	26.816451	25.814680	26.073590	17.763274	13.137789	-3.250380	4.165980	-1.541260	0.752195	0.612852	0.197204	-1.000000	-1.000000	-1.000000	-1.000000	-1.000000	-1.000000	-1.000000	76.827586	0.000000	-1.000000	-1.000000	313283.000000	1773688183.539572
-6218.685000	20633.895000	30999.510000	-4155.975000	-26551.125000	11028.960000	-17471.340000	-27896.850000	10.884593	14.025476	14.797371	17.063057	12.330070	16.546919	16.259144	15.009536	-3.250380	4.165980	-1.541260	0.752195	0.612852	0.197204	-1.000000	-1.000000	-1.000000	-1.000000	-1.000000	-1.000000	-1.000000	76.827586	0.000000	-1.000000	-1.000000	313284.000000	1773688183.539592
-6214.410000	20640.510000	31007.565000	-4151.160000	-26550.405000	11031.660000	-17471.745000	-27899.145000	-0.367978	-1.482004	-4.371377	-2.184026	-10.606599	-1.496166	8.887920	10.184437	-3.250380	4.165980	-1.541260	0.752195	0.612852	0.197204	-1.000000	-1.000000	-1.000000	-1.000000	-1.000000	-1.000000	-1.000000	76.827586	0.000000	-1.000000	-1.000000	313285.000000	1773688183.540208
-6197.040000	20647.485000	31013.550000	-4143.510000	-26514.765000	11034.810000	-17487.900000	-27891.585000	-6.805820	-11.581355	-16.906205	-15.411898	-24.432056	-13.973591	1.637321	-0.123060	-3.250380	4.165980	-1.541260	0.752195	0.612852	0.197204	-1.000000	-1.000000	-1.000000	-1.000000	-1.000000	-1.000000	-1.000000	76.827586	0.000000	-1.000000	-1.000000	313286.000000	1773688183.540220
-6209.865000	20636.730000	31005.360000	-4145.355000	-26503.605000	11019.960000	-17506.485000	-27921.555000	-4.727774	-10.698754	-15.788908	-14.991546	-19.153475	-14.588097	-3.290837	-9.947029	-3.250380	4.165980	-1.541260	0.752195	0.612852	0.197204	-1.000000	-1.000000	-1.000000	-1.000000	-1.000000	-1.000000	-1.000000	76.827586	0.000000	-1.000000	-1.000000	313287.000000	1773688183.551008
-6226.830000	20629.935000	31000.680000	-4150.575000	-26520.615000	11020.545000	-17485.920000	-27953.910000	0.511998	-3.910254	-6.292632	-5.848129	-2.749833	-8.205707	-7.331922	-15.651819	-3.250380	4.165980	-1.541260	0.752195	0.612852	0.197204	-1.000000	-1.000000	-1.000000	-1.000000	-1.000000	-1.000000	-1.000000	76.827586	0.000000	-1.000000	-1.000000	313288.000000	1773688183.551019
-6222.150000	20631.105000	31004.190000	-4157.955000	-26534.745000	11024.820000	-17470.080000	-27926.235000	2.172281	1.504406	2.783194	2.722181	9.333260	-2.060146	-9.871713	-16.838214	-3.250380	4.165980	-1.541260	0.752195	0.612852	0.197204	-1.000000	-1.000000	-1.000000	-1.000000	-1.000000	-1.000000	-1.000000	76.827586	0.000000	-1.000000	-1.000000	313289.000000	1773688183.551071
-6206.940000	20646.630000	31019.895000	-4153.950000	-26553.420000	11036.880000	-17461.260000	-27910.080000	-0.410565	2.834376	6.803747	5.377372	9.858698	1.028069	-8.748194	-12.301057	-3.250380	4.165980	-1.541260	0.752195	0.612852	0.197204	-1.000000	-1.000000	-1.000000	-1.000000	-1.000000	-1.000000	-1.000000	76.827586	0.000000	-1.000000	-1.000000	313290.000000	1773688183.551081
-6199.065000	20651.310000	31022.685000	-4142.520000	-26557.830000	11037.330000	-17470.620000	-27903.555000	-3.042274	1.885354	6.271958	3.174767	2.862255	2.153015	-4.705114	-2.674654	-0.976640	5.447820	-1.175020	0.751768	0.612242	0.194274	-1.000000	-1.000000	-1.000000	-1.000000	-1.000000	-1.000000	-1.000000	76.827586	0.000000	-1.000000	-1.000000	313291.000000	1773688183.552163
-6197.490000	20660.850000	31030.020000	-4116.510000	-26495.820000	11057.310000	-17475.885000	-27909.225000	-2.511734	1.616182	4.337398	1.197821	-2.644638	3.318047	-1.009871	7.188058	-0.976640	5.447820	-1.175020	0.751768	0.612242	0.194274	-1.000000	-1.000000	-1.000000	-1.000000	-1.000000	-1.000000	-1.000000	76.827586	0.000000	-1.000000	-1.000000	313292.000000	1773688183.552170
-6200.685000	20655.945000	31007.295000	-4117.410000	-26467.920000	11056.770000	-17487.495000	-27912.330000	0.756947	3.121534	3.353295	3.166167	0.453734	5.429273	0.482947	13.200948	-0.976640	5.447820	-1.175020	0.751768	0.612242	0.194274	-1.000000	-1.000000	-1.000000	-1.000000	-1.000000	-1.000000	-1.000000	76.827586	0.000000	-1.000000	-1.000000	313293.000000	1773688183.556146
-6210.675000	20644.785000	30990.060000	-4138.380000	-26551.710000	11028.105000	-17495.055000	-27916.335000	4.015879	4.742945	2.592007	7.213545	9.954072	7.117772	0.731555	14.594444	-0.976640	5.447820	-1.175020	0.751768	0.612242	0.194274	-1.000000	-1.000000	-1.000000	-1.000000	-1.000000	-1.000000	-1.000000	76.827586	0.000000	-1.000000	-1.000000	313294.000000	1773688183.556176
-6201.990000	20659.095000	31042.710000	-4128.840000	-26562.195000	11027.520000	-17485.155000	-27921.915000	4.550222	4.054014	0.717806	8.070527	14.119570	5.617535	1.612175	11.729224	-0.976640	5.447820	-1.175020	0.751768	0.612242	0.194274	-1.000000	-1.000000	-1.000000	-1.000000	-1.000000	-1.000000	-1.000000	76.827586	0.000000	-1.000000	-1.000000	313295.000000	1773688183.561547
-6203.565000	20662.560000	31046.535000	-4130.595000	-26507.385000	11037.330000	-17484.930000	-27961.695000	2.017662	0.906102	-0.808983	3.351868	6.006075	0.547399	3.737261	5.507172	-0.976640	5.447820	-1.175020	0.751768	0.612242	0.194274	-1.000000	-1.000000	-1.000000	-1.000000	-1.000000	-1.000000	-1.000000	76.827586	0.000000	-1.000000	-1.000000	313296.000000	1773688183.561554
-6197.985000	20676.285000	31043.835000	-4101.705000	-26436.465000	11070.990000	-17484.300000	-27990.495000	-1.389166	-2.487288	-0.571196	-3.949664	-6.391633	-4.567796	5.501804	-2.622162	-0.976640	5.447820	-1.175020	0.751768	0.612242	0.194274	-1.000000	-1.000000	-1.000000	-1.000000	-1.000000	-1.000000	-1.000000	76.827586	0.000000	-1.000000	-1.000000	313297.000000	1773688183.564116
-6177.465000	20698.785000	31076.100000	-4075.650000	-26440.380000	11097.045000	-17466.750000	-27939.825000	-3.305341	-4.028551	0.096564	-8.481632	-10.613063	-5.758044	4.785514	-10.117445	-0.976640	5.447820	-1.175020	0.751768	0.612242	0.194274	-1.000000	-1.000000	-1.000000	-1.000000	-1.000000	-1.000000	-1.000000	76.827586	0.000000	-1.000000	-1.000000	313298.000000	1773688183.564122
-6173.505000	20688.705000	31077.675000	-4102.110000	-26489.115000	11061.180000	-17473.005000	-27868.140000	-2.986144	-3.578287	-0.300557	-7.873925	-5.130209	-3.100482	1.610205	-12.156660	-0.976640	5.447820	-1.175020	0.751768	0.612242	0.194274	-1.000000	-1.000000	-1.000000	-1.000000	-1.000000	-1.000000	-1.000000	76.827586	0.000000	-1.000000	-1.000000	313299.000000	1773688183.568189
-6175.260000	20672.505000	31050.855000	-4129.110000	-26504.145000	11042.685000	-17478.315000	-27882.810000	-1.481195	-2.991328	-2.239082	-5.316149	0.768421	-1.027613	-2.210027	-5.840748	-0.976640	5.447820	-1.175020	0.751768	0.612242	0.194274	-1.000000	-1.000000	-1.000000	-1.000000	-1.000000	-1.000000	-1.000000	76.827586	0.000000	-1.000000	-1.000000	313300.000000	1773688183.568199
-6201.990000	20659.815000	31036.095000	-4130.730000	-26514.315000	11055.285000	-17451.090000	-27895.590000	-0.683636	-3.954449	-5.639036	-5.040264	-1.056478	-2.691414	-4.351870	4.434293	-1.983800	5.371520	-1.739640	0.751707	0.608336	0.195861	-1.000000	-1.000000	-1.000000	-1.000000	-1.000000	-1.000000	-1.000000	76.827586	0.000000	-1.000000	-1.000000	313301.000000	1773688183.572106
-6226.425000	20610.990000	30978.810000	-4183.875000	-26596.620000	11000.205000	-17466.795000	-27862.470000	-1.873815	-6.266895	-9.261717	-7.152541	-10.106243	-6.327988	-2.999454	11.272664	-1.983800	5.371520	-1.739640	0.751707	0.608336	0.195861	-1.000000	-1.000000	-1.000000	-1.000000	-1.000000	-1.000000	-1.000000	76.827586	0.000000	-1.000000	-1.000000	313302.000000	1773688183.572116
-6219.315000	20618.505000	30989.430000	-4168.620000	-26558.370000	10999.170000	-17483.220000	-27845.955000	-4.372626	-8.313586	-11.343138	-8.557008	-18.289369	-8.435777	0.635953	11.816202	-1.983800	5.371520	-1.739640	0.751707	0.608336	0.195861	-1.000000	-1.000000	-1.000000	-1.000000	-1.000000	-1.000000	-1.000000	76.827586	0.000000	-1.000000	-1.000000	313303.000000	1773688183.577065
-6229.620000	20620.485000	30996.045000	-4147.065000	-26506.215000	11028.645000	-17495.820000	-27897.615000	-5.765677	-7.719857	-10.417371	-5.776779	-15.931209	-6.392090	2.624637	7.187984	-1.983800	5.371520	-1.739640	0.751707	0.608336	0.195861	-1.000000	-1.000000	-1.000000	-1.000000	-1.000000	-1.000000	-1.000000	76.827586	0.000000	-1.000000	-1.000000	313304.000000	1773688183.577076
-6228.675000	20629.125000	31005.270000	-4138.515000	-26520.480000	11040.435000	-17509.320000	-27924.615000	-4.222425	-2.895542	-5.395791	2.237602	-1.946358	0.491581	0.581046	-0.972642	-1.983800	5.371520	-1.739640	0.751707	0.608336	0.195861	-1.000000	-1.000000	-1.000000	-1.000000	-1.000000	-1.000000	-1.000000	76.827586	0.000000	-1.000000	-1.000000	313305.000000	1773688183.584569
-6222.645000	20624.445000	30997.710000	-4150.620000	-26526.105000	11035.530000	-17497.620000	-27902.880000	-0.102047	4.624050	2.945174	11.471796	13.236565	8.665039	-4.038138	-9.815671	-1.983800	5.371520	-1.739640	0.751707	0.608336	0.195861	-1.000000	-1.000000	-1.000000	-1.000000	-1.000000	-1.000000	-1.000000	76.827586	0.000000	-1.000000	-1.000000	313306.000000	1773688183.584579
-6213.825000	20625.885000	30994.560000	-4158.810000	-26519.130000	11024.595000	-17489.205000	-27896.580000	4.536334	10.711635	10.672471	15.507200	19.806912	12.376346	-7.393614	-15.810351	-1.983800	5.371520	-1.739640	0.751707	0.608336	0.195861	-1.000000	-1.000000	-1.000000	-1.000000	-1.000000	-1.000000	-1.000000	76.827586	0.000000	-1.000000	-1.000000	313307.000000	1773688183.584591
-6201.765000	20649.105000	31018.275000	-4138.290000	-26495.100000	11045.970000	-17478.585000	-27927.315000	7.665084	12.782270	14.110103	12.534281	18.326536	10.176162	-6.218235	-18.013082	-1.983800	5.371520	-1.739640	0.751707	0.608336	0.195861	-1.000000	-1.000000	-1.000000	-1.000000	-1.000000	-1.000000	-1.000000	76.827586	0.000000	-1.000000	-1.000000	313308.000000	1773688183.584596
-6207.930000	20643.435000	31014.720000	-4138.920000	-26515.395000	11029.860000	-17483.535000	-27912.780000	8.616393	11.794365	13.749652	6.736525	13.812908	5.576606	-0.523156	-16.384698	-1.983800	5.371520	-1.739640	0.751707	0.608336	0.195861	-1.000000	-1.000000	-1.000000	-1.000000	-1.000000	-1.000000	-1.000000	76.827586	0.000000	-1.000000	-1.000000	313309.000000	1773688183.594702
-6208.695000	20649.330000	31022.055000	-4129.920000	-26509.545000	11032.245000	-17483.445000	-27905.355000	7.846473	9.562034	12.139929	2.554740	8.242887	1.559018	6.039355	-9.102816	-1.983800	5.371520	-1.739640	0.751707	0.608336	0.195861	-1.000000	-1.000000	-1.000000	-1.000000	-1.000000	-1.000000	-1.000000	76.827586	0.000000	-1.000000	-1.000000	313310.000000	1773688183.594725
-6203.790000	20649.150000	31020.435000	-4135.140000	-26512.020000	11029.455000	-17481.690000	-27907.245000	6.083100	6.923140	10.449863	1.254576	2.765323	-0.653081	9.686590	3.063932	-1.449700	5.905620	-1.236060	0.751646	0.611266	0.198730	-1.000000	-1.000000	-1.000000	-1.000000	-1.000000	-1.000000	-1.000000	76.827586	0.000000	-1.000000	-1.000000	313311.000000	1773688183.594749
-6207.300000	20641.770000	31013.235000	-4148.505000	-26521.020000	11029.455000	-17482.635000	-27916.695000	3.424028	3.410620	7.186488	0.791082	-1.935884	-0.885815	9.568600	14.574159	-1.449700	5.905620	-1.236060	0.751646	0.611266	0.198730	-1.000000	-1.000000	-1.000000	-1.000000	-1.000000	-1.000000	-1.000000	76.827586	0.000000	-1.000000	-1.000000	313312.000000	1773688183.594761
-6184.080000	20670.255000	31042.530000	-4126.230000	-26511.885000	11049.750000	-17458.380000	-27863.325000	-0.111120	-1.849436	0.298638	-2.106546	-7.944995	-1.001114	7.059795	21.682045	-1.449700	5.905620	-1.236060	0.751646	0.611266	0.198730	-1.000000	-1.000000	-1.000000	-1.000000	-1.000000	-1.000000	-1.000000	76.827586	0.000000	-1.000000	-1.000000	313313.000000	1773688183.596257
-6184.980000	20680.605000	31053.195000	-4109.490000	-26525.430000	11055.375000	-17447.355000	-27878.355000	-3.443880	-7.509054	-8.332961	-7.127899	-15.515649	-2.671633	4.020404	24.724040	-1.449700	5.905620	-1.236060	0.751646	0.611266	0.198730	-1.000000	-1.000000	-1.000000	-1.000000	-1.000000	-1.000000	-1.000000	76.827586	0.000000	-1.000000	-1.000000	313314.000000	1773688183.596268
-6190.065000	20684.880000	31059.630000	-4101.435000	-26529.975000	11066.895000	-17458.920000	-27925.110000	-5.904792	-10.892283	-14.139891	-10.300569	-20.404321	-5.015219	0.826390	21.318474	-1.449700	5.905620	-1.236060	0.751646	0.611266	0.198730	-1.000000	-1.000000	-1.000000	-1.000000	-1.000000	-1.000000	-1.000000	76.827586	0.000000	-1.000000	-1.000000	313315.000000	1773688183.603340
-6183.540000	20687.310000	31062.465000	-4090.500000	-26475.345000	11083.680000	-17479.845000	-27906.435000	-7.913066	-11.040746	-14.851684	-8.858312	-17.668992	-5.659926	-3.934099	7.703785	-1.449700	5.905620	-1.236060	0.751646	0.611266	0.198730	-1.000000	-1.000000	-1.000000	-1.000000	-1.000000	-1.000000	-1.000000	76.827586	0.000000	-1.000000	-1.000000	313316.000000	1773688183.603352
-6177.420000	20672.460000	31046.895000	-4095.540000	-26470.935000	11079.720000	-17475.570000	-27874.845000	-8.977765	-9.043489	-11.654928	-3.834170	-5.927697	-3.413836	-10.171974	-10.870346	-1.449700	5.905620	-1.236060	0.751646	0.611266	0.198730	-1.000000	-1.000000	-1.000000	-1.000000	-1.000000	-1.000000	-1.000000	76.827586	0.000000	-1.000000	-1.000000	313317.000000	1773688183.605434
-6225.930000	20613.375000	30985.200000	-4174.650000	-26553.780000	11013.480000	-17487.630000	-27939.015000	-8.114740	-7.133315	-7.807787	0.210397	8.794016	-0.662472	-14.664644	-23.426636	-1.449700	5.905620	-1.236060	0.751646	0.611266	0.198730	-1.000000	-1.000000	-1.000000	-1.000000	-1.000000	-1.000000	-1.000000	76.827586	0.000000	-1.000000	-1.000000	313318.000000	1773688183.605443
-6238.845000	20607.120000	30975.750000	-4194.900000	-26556.795000	10993.365000	-17499.510000	-27972.180000	-5.984742	-6.824429	-5.963627	-1.229974	16.389301	-1.319196	-14.206324	-26.277013	-1.449700	5.905620	-1.236060	0.751646	0.611266	0.198730	-1.000000	-1.000000	-1.000000	-1.000000	-1.000000	-1.000000	-1.000000	76.827586	0.000000	-1.000000	-1.000000	313319.000000	1773688183.608111
-6221.835000	20637.270000	31009.545000	-4152.960000	-26518.005000	11029.275000	-17485.560000	-27944.010000	-3.400214	-6.093551	-4.692715	-6.136768	13.739909	-4.717894	-8.291753	-21.963385	-1.449700	5.905620	-1.236060	0.751646	0.611266	0.198730	-1.000000	-1.000000	-1.000000	-1.000000	-1.000000	-1.000000	-1.000000	76.827586	0.000000	-1.000000	-1.000000	313320.000000	1773688183.608121
-6224.895000	20627.235000	30995.595000	-4158.405000	-26534.565000	11027.430000	-17481.105000	-27897.705000	0.313840	-1.459505	-0.475928	-7.148817	6.311052	-5.718596	1.115992	-10.983448	-1.434440	4.455920	-2.258480	0.750364	0.610838	0.200988	-1.000000	-1.000000	-1.000000	-1.000000	-1.000000	-1.000000	-1.000000	76.827586	0.000000	-1.000000	-1.000000	313321.000000	1773688183.614507
-6222.285000	20623.320000	30991.860000	-4154.895000	-26508.105000	11025.315000	-17487.225000	-27909.450000	4.951954	6.039463	6.066709	-1.419078	-0.236702	-2.184081	9.941633	5.401574	-1.434440	4.455920	-2.258480	0.750364	0.610838	0.200988	-1.000000	-1.000000	-1.000000	-1.000000	-1.000000	-1.000000	-1.000000	76.827586	0.000000	-1.000000	-1.000000	313322.000000	1773688183.614519
-6214.770000	20635.695000	31010.175000	-4128.480000	-26497.260000	11037.285000	-17486.370000	-27921.555000	8.619944	11.655208	10.920501	6.968282	-2.961403	3.104598	13.760870	20.235356	-1.434440	4.455920	-2.258480	0.750364	0.610838	0.200988	-1.000000	-1.000000	-1.000000	-1.000000	-1.000000	-1.000000	-1.000000	76.827586	0.000000	-1.000000	-1.000000	313323.000000	1773688183.624649
-6206.580000	20645.010000	31020.570000	-4125.780000	-26507.880000	11039.985000	-17487.225000	-27930.375000	9.982837	12.874955	12.240501	13.218951	-1.693160	7.037806	11.496478	25.781718	-1.434440	4.455920	-2.258480	0.750364	0.610838	0.200988	-1.000000	-1.000000	-1.000000	-1.000000	-1.000000	-1.000000	-1.000000	76.827586	0.000000	-1.000000	-1.000000	313324.000000	1773688183.624660
-6205.815000	20646.270000	31019.850000	-4127.580000	-26507.475000	11038.320000	-17485.965000	-27938.070000	8.763740	10.544147	10.776816	14.626654	-0.140409	8.129136	6.017633	19.580577	-1.434440	4.455920	-2.258480	0.750364	0.610838	0.200988	-1.000000	-1.000000	-1.000000	-1.000000	-1.000000	-1.000000	-1.000000	76.827586	0.000000	-1.000000	-1.000000	313325.000000	1773688183.624885
-6205.455000	20645.370000	31015.710000	-4128.300000	-26505.495000	11038.320000	-17477.235000	-27919.755000	5.471170	6.780202	7.855889	10.948299	-1.148248	6.638551	0.943117	5.595638	-1.434440	4.455920	-2.258480	0.750364	0.610838	0.200988	-1.000000	-1.000000	-1.000000	-1.000000	-1.000000	-1.000000	-1.000000	76.827586	0.000000	-1.000000	-1.000000	313326.000000	1773688183.624897
-6203.970000	20656.035000	31024.710000	-4121.055000	-26499.735000	11045.295000	-17474.085000	-27919.845000	2.064219	4.061649	5.296466	5.490822	-1.948679	5.095744	-1.653905	-7.247919	-1.434440	4.455920	-2.258480	0.750364	0.610838	0.200988	-1.000000	-1.000000	-1.000000	-1.000000	-1.000000	-1.000000	-1.000000	76.827586	0.000000	-1.000000	-1.000000	313327.000000	1773688183.624908
-6198.165000	20657.700000	31025.520000	-4125.195000	-26509.005000	11039.220000	-17479.935000	-27888.075000	0.334224	3.164733	3.848489	1.713637	0.438057	5.273464	-1.753325	-11.190863	-1.434440	4.455920	-2.258480	0.750364	0.610838	0.200988	-1.000000	-1.000000	-1.000000	-1.000000	-1.000000	-1.000000	-1.000000	76.827586	0.000000	-1.000000	-1.000000	313328.000000	1773688183.624913
-6177.825000	20663.595000	31021.290000	-4118.445000	-26506.080000	11049.165000	-17487.405000	-27856.260000	-0.247158	1.721851	1.378174	-1.222495	3.228188	4.870331	-1.344112	-6.113253	-1.434440	4.455920	-2.258480	0.750364	0.610838	0.200988	-1.000000	-1.000000	-1.000000	-1.000000	-1.000000	-1.000000	-1.000000	76.827586	0.000000	-1.000000	-1.000000	313329.000000	1773688183.630917
-6190.065000	20656.035000	31008.105000	-4116.240000	-26507.205000	11054.115000	-17473.095000	-27884.160000	-1.316500	-2.515078	-4.172289	-5.537149	2.336136	1.026055	-2.308943	0.981282	-1.434440	4.455920	-2.258480	0.750364	0.610838	0.200988	-1.000000	-1.000000	-1.000000	-1.000000	-1.000000	-1.000000	-1.000000	76.827586	0.000000	-1.000000	-1.000000	313330.000000	1773688183.630951
-6212.835000	20633.355000	31000.410000	-4140.135000	-26524.710000	11029.950000	-17470.980000	-27894.195000	-4.142229	-8.897236	-11.438249	-10.899052	-2.353791	-5.600185	-4.028619	2.646135	-2.243220	4.928980	-1.541260	0.749510	0.613524	0.199890	-1.000000	-1.000000	-1.000000	-1.000000	-1.000000	-1.000000	-1.000000	76.827586	0.000000	-1.000000	-1.000000	313331.000000	1773688183.632224
-6201.900000	20652.840000	31028.400000	-4133.025000	-26521.245000	11036.835000	-17474.850000	-27907.020000	-8.565010	-14.684340	-16.509056	-15.409652	-7.937000	-12.161453	-4.690189	-2.161644	-2.243220	4.928980	-1.541260	0.749510	0.613524	0.199890	-1.000000	-1.000000	-1.000000	-1.000000	-1.000000	-1.000000	-1.000000	76.827586	0.000000	-1.000000	-1.000000	313332.000000	1773688183.632234
-6197.940000	20662.020000	31047.705000	-4126.140000	-26550.990000	11040.930000	-17484.030000	-27930.105000	-11.849889	-16.169149	-15.406761	-16.330737	-11.036516	-15.303086	-3.762485	-8.845914	-2.243220	4.928980	-1.541260	0.749510	0.613524	0.199890	-1.000000	-1.000000	-1.000000	-1.000000	-1.000000	-1.000000	-1.000000	76.827586	0.000000	-1.000000	-1.000000	313333.000000	1773688183.636237
-6214.905000	20646.720000	31027.725000	-4146.750000	-26594.910000	11026.485000	-17483.625000	-27936.855000	-11.036056	-11.275774	-7.393944	-11.518689	-10.580142	-12.728122	-2.058896	-12.976879	-2.243220	4.928980	-1.541260	0.749510	0.613524	0.199890	-1.000000	-1.000000	-1.000000	-1.000000	-1.000000	-1.000000	-1.000000	76.827586	0.000000	-1.000000	-1.000000	313334.000000	1773688183.636243
-6225.075000	20628.000000	30994.425000	-4160.205000	-26553.465000	11018.520000	-17483.805000	-27916.560000	-6.035921	-2.189420	3.068523	-2.266422	-6.889670	-5.265577	-0.482106	-12.017212	-2.243220	4.928980	-1.541260	0.749510	0.613524	0.199890	-1.000000	-1.000000	-1.000000	-1.000000	-1.000000	-1.000000	-1.000000	76.827586	0.000000	-1.000000	-1.000000	313335.000000	1773688183.640134
-6216.750000	20636.370000	31008.870000	-4144.545000	-26505.540000	11031.525000	-17487.855000	-27916.200000	1.036819	6.424448	9.909210	7.667319	1.511335	3.958958	0.737929	-5.082463	-2.243220	4.928980	-1.541260	0.749510	0.613524	0.199890	-1.000000	-1.000000	-1.000000	-1.000000	-1.000000	-1.000000	-1.000000	76.827586	0.000000	-1.000000	-1.000000	313336.000000	1773688183.640140
-6200.640000	20659.815000	31041.135000	-4119.030000	-26483.580000	11053.530000	-17476.155000	-27907.290000	7.657720	11.402105	11.180308	15.078537	14.356844	11.729017	1.937724	4.839553	-2.243220	4.928980	-1.541260	0.749510	0.613524	0.199890	-1.000000	-1.000000	-1.000000	-1.000000	-1.000000	-1.000000	-1.000000	76.827586	0.000000	-1.000000	-1.000000	313337.000000	1773688183.646700
-6196.050000	20654.145000	31030.560000	-4128.480000	-26493.930000	11044.485000	-17476.155000	-27888.345000	11.625651	12.343790	9.269282	17.880688	25.179746	15.314460	3.310965	12.104392	-2.243220	4.928980	-1.541260	0.749510	0.613524	0.199890	-1.000000	-1.000000	-1.000000	-1.000000	-1.000000	-1.000000	-1.000000	76.827586	0.000000	-1.000000	-1.000000	313338.000000	1773688183.646711
-6196.590000	20644.155000	31019.985000	-4142.475000	-26491.365000	11037.690000	-17481.240000	-27878.085000	11.894410	9.977400	6.300746	14.689272	25.850041	12.957409	4.017327	14.180032	-2.243220	4.928980	-1.541260	0.749510	0.613524	0.199890	-1.000000	-1.000000	-1.000000	-1.000000	-1.000000	-1.000000	-1.000000	76.827586	0.000000	-1.000000	-1.000000	313339.000000	1773688183.648281
-6204.195000	20642.760000	31018.005000	-4151.700000	-26556.615000	11033.235000	-17468.865000	-27875.970000	8.876794	5.211520	2.264730	6.091062	13.645393	5.604915	3.053185	12.704819	-2.243220	4.928980	-1.541260	0.749510	0.613524	0.199890	-1.000000	-1.000000	-1.000000	-1.000000	-1.000000	-1.000000	-1.000000	76.827586	0.000000	-1.000000	-1.000000	313340.000000	1773688183.648287
-6209.055000	20648.835000	31026.555000	-4129.245000	-26535.015000	11041.245000	-17461.935000	-27894.735000	3.439872	-0.621370	-2.983233	-4.198910	-6.567502	-3.050431	1.220765	9.297228	-1.281840	5.051060	-1.464960	0.748289	0.614195	0.200683	-1.000000	-1.000000	-1.000000	-1.000000	-1.000000	-1.000000	-1.000000	76.827586	0.000000	-1.000000	-1.000000	313341.000000	1773688183.652301
-6191.370000	20662.245000	31040.730000	-4100.805000	-26462.115000	11053.215000	-17475.120000	-27878.040000	-2.847276	-5.482442	-7.690800	-10.627340	-22.751704	-8.809190	0.034007	4.321949	-1.281840	5.051060	-1.464960	0.748289	0.614195	0.200683	-1.000000	-1.000000	-1.000000	-1.000000	-1.000000	-1.000000	-1.000000	76.827586	0.000000	-1.000000	-1.000000	313342.000000	1773688183.652312
-6184.080000	20664.630000	31039.830000	-4106.790000	-26454.150000	11054.160000	-17492.175000	-27890.505000	-6.751447	-6.807204	-8.451353	-9.465023	-23.098450	-9.017512	-0.848243	-1.483245	-1.281840	5.051060	-1.464960	0.748289	0.614195	0.200683	-1.000000	-1.000000	-1.000000	-1.000000	-1.000000	-1.000000	-1.000000	76.827586	0.000000	-1.000000	-1.000000	313343.000000	1773688183.656325
-6202.395000	20655.000000	31029.030000	-4121.595000	-26489.295000	11049.255000	-17490.060000	-27942.930000	-6.175354	-3.829048	-3.809122	-2.636418	-9.532978	-4.336377	-2.531975	-7.805136	-1.281840	5.051060	-1.464960	0.748289	0.614195	0.200683	-1.000000	-1.000000	-1.000000	-1.000000	-1.000000	-1.000000	-1.000000	76.827586	0.000000	-1.000000	-1.000000	313344.000000	1773688183.656337
-6224.715000	20651.265000	31030.335000	-4120.965000	-26494.020000	11052.810000	-17478.855000	-27973.395000	-3.575773	0.392481	2.670917	3.264783	3.210023	1.157922	-4.187346	-15.092209	-1.281840	5.051060	-1.464960	0.748289	0.614195	0.200683	-1.000000	-1.000000	-1.000000	-1.000000	-1.000000	-1.000000	-1.000000	76.827586	0.000000	-1.000000	-1.000000	313345.000000	1773688183.661828
-6212.745000	20659.590000	31038.345000	-4119.570000	-26500.590000	11046.645000	-17481.825000	-27951.345000	-2.982070	1.822110	5.655404	3.241416	4.677435	3.199299	-4.017589	-21.212587	-1.281840	5.051060	-1.464960	0.748289	0.614195	0.200683	-1.000000	-1.000000	-1.000000	-1.000000	-1.000000	-1.000000	-1.000000	76.827586	0.000000	-1.000000	-1.000000	313346.000000	1773688183.661838
-6182.505000	20680.245000	31058.505000	-4104.945000	-26497.620000	11057.085000	-17475.480000	-27921.780000	-4.107469	0.298046	4.206394	-1.421382	-2.411095	1.149737	-1.812074	-20.518658	-1.281840	5.051060	-1.464960	0.748289	0.614195	0.200683	-1.000000	-1.000000	-1.000000	-1.000000	-1.000000	-1.000000	-1.000000	76.827586	0.000000	-1.000000	-1.000000	313347.000000	1773688183.664331
-6168.105000	20700.135000	31079.160000	-4081.095000	-26510.535000	11074.455000	-17436.330000	-27960.570000	-2.879293	-0.605668	2.019687	-4.920039	-8.736948	-1.594476	1.646021	-9.996711	-1.281840	5.051060	-1.464960	0.748289	0.614195	0.200683	-1.000000	-1.000000	-1.000000	-1.000000	-1.000000	-1.000000	-1.000000	76.827586	0.000000	-1.000000	-1.000000	313348.000000	1773688183.664342
-6182.415000	20697.210000	31076.190000	-4083.030000	-26497.215000	11076.795000	-17431.425000	-27950.445000	2.136960	1.169511	1.688582	-3.341867	-7.432411	-1.586363	5.609174	5.796424	-1.281840	5.051060	-1.464960	0.748289	0.614195	0.200683	-1.000000	-1.000000	-1.000000	-1.000000	-1.000000	-1.000000	-1.000000	76.827586	0.000000	-1.000000	-1.000000	313349.000000	1773688183.668331
-6173.910000	20685.555000	31059.045000	-4103.955000	-26469.540000	11057.085000	-17462.565000	-27871.515000	7.293136	3.177579	1.416848	0.793286	1.420404	0.529295	7.873118	20.219605	-1.281840	5.051060	-1.464960	0.748289	0.614195	0.200683	-1.000000	-1.000000	-1.000000	-1.000000	-1.000000	-1.000000	-1.000000	76.827586	0.000000	-1.000000	-1.000000	313350.000000	1773688183.668341
-6196.860000	20614.815000	30982.635000	-4183.335000	-26534.250000	10990.755000	-17509.185000	-27832.365000	8.084029	1.084264	-2.449992	1.037230	10.477179	0.555125	5.156239	30.240533	-0.152600	5.783540	-0.976640	0.746824	0.613768	0.202331	-1.000000	-1.000000	-1.000000	-1.000000	-1.000000	-1.000000	-1.000000	76.827586	0.000000	-1.000000	-1.000000	313351.000000	1773688183.672228
-6247.440000	20564.775000	30933.540000	-4224.105000	-26588.430000	10965.420000	-17539.740000	-27896.085000	2.830206	-6.883466	-10.908457	-5.734139	10.690711	-4.338610	-3.124741	32.671677	-0.152600	5.783540	-0.976640	0.746824	0.613768	0.202331	-1.000000	-1.000000	-1.000000	-1.000000	-1.000000	-1.000000	-1.000000	76.827586	0.000000	-1.000000	-1.000000	313352.000000	1773688183.672233
-6252.210000	20584.035000	30958.335000	-4183.740000	-26541.900000	11006.550000	-17512.380000	-27904.005000	-6.160183	-16.426289	-19.121534	-14.207048	1.442021	-10.679712	-12.410722	23.286287	-0.152600	5.783540	-0.976640	0.746824	0.613768	0.202331	-1.000000	-1.000000	-1.000000	-1.000000	-1.000000	-1.000000	-1.000000	76.827586	0.000000	-1.000000	-1.000000	313353.000000	1773688183.676300
-6248.205000	20592.405000	30967.515000	-4176.990000	-26545.860000	11006.595000	-17499.060000	-27902.430000	-12.948651	-18.975956	-19.023420	-14.718119	-7.651407	-11.052432	-15.559776	3.656619	-0.152600	5.783540	-0.976640	0.746824	0.613768	0.202331	-1.000000	-1.000000	-1.000000	-1.000000	-1.000000	-1.000000	-1.000000	76.827586	0.000000	-1.000000	-1.000000	313354.000000	1773688183.676311
-6238.080000	20605.635000	30979.260000	-4174.110000	-26561.205000	11012.445000	-17495.865000	-27924.930000	-12.491292	-10.001017	-7.493998	-3.893435	-8.389121	-2.757730	-9.211366	-18.288800	-0.152600	5.783540	-0.976640	0.746824	0.613768	0.202331	-1.000000	-1.000000	-1.000000	-1.000000	-1.000000	-1.000000	-1.000000	76.827586	0.000000	-1.000000	-1.000000	313355.000000	1773688183.680329
-6222.825000	20625.165000	31000.860000	-4158.045000	-26568.450000	11022.660000	-17488.170000	-27908.685000	-5.084120	6.402050	10.142274	11.971287	-1.815382	9.334633	2.783462	-33.865322	-0.152600	5.783540	-0.976640	0.746824	0.613768	0.202331	-1.000000	-1.000000	-1.000000	-1.000000	-1.000000	-1.000000	-1.000000	76.827586	0.000000	-1.000000	-1.000000	313356.000000	1773688183.680340
-6208.695000	20636.280000	31015.620000	-4142.160000	-26536.545000	11025.405000	-17489.340000	-27898.920000	5.140487	21.494800	24.817843	23.651733	6.885737	17.906518	12.613233	-36.078818	-0.152600	5.783540	-0.976640	0.746824	0.613768	0.202331	-1.000000	-1.000000	-1.000000	-1.000000	-1.000000	-1.000000	-1.000000	76.827586	0.000000	-1.000000	-1.000000	313357.000000	1773688183.687418
-6217.830000	20620.485000	31000.905000	-4154.940000	-26516.385000	11018.790000	-17494.515000	-27912.555000	13.551303	27.736987	29.535060	25.478337	13.787420	18.412116	14.854585	-23.848842	-0.152600	5.783540	-0.976640	0.746824	0.613768	0.202331	-1.000000	-1.000000	-1.000000	-1.000000	-1.000000	-1.000000	-1.000000	76.827586	0.000000	-1.000000	-1.000000	313358.000000	1773688183.687429
-6224.670000	20614.050000	30991.095000	-4160.745000	-26508.600000	11025.810000	-17494.470000	-27922.590000	16.307193	22.689304	22.756844	17.521627	15.910784	11.710606	10.501482	-5.896638	-0.152600	5.783540	-0.976640	0.746824	0.613768	0.202331	-1.000000	-1.000000	-1.000000	-1.000000	-1.000000	-1.000000	-1.000000	76.827586	0.000000	-1.000000	-1.000000	313359.000000	1773688183.688110
-6226.200000	20620.305000	30996.405000	-4150.350000	-26515.350000	11025.180000	-17494.290000	-27918.855000	12.454303	10.839691	9.676760	5.607030	12.458941	3.332430	4.975766	7.138149	-0.152600	5.783540	-0.976640	0.746824	0.613768	0.202331	-1.000000	-1.000000	-1.000000	-1.000000	-1.000000	-1.000000	-1.000000	76.827586	0.000000	-1.000000	-1.000000	313360.000000	1773688183.688121
-6218.865000	20630.160000	31005.045000	-4144.365000	-26512.830000	11027.880000	-17490.645000	-27914.715000	5.493922	-0.047321	-1.737485	-3.204613	5.794208	-2.032213	2.087907	13.407188	-0.320460	5.691980	-1.266580	0.745787	0.613951	0.203063	-1.000000	-1.000000	-1.000000	-1.000000	-1.000000	-1.000000	-1.000000	76.827586	0.000000	-1.000000	-1.000000	313361.000000	1773688183.692180
-6198.795000	20639.880000	31009.770000	-4156.155000	-26527.545000	11025.945000	-17494.065000	-27916.650000	0.064238	-6.195809	-8.086970	-7.619041	-2.304708	-4.980841	0.651046	16.887599	-0.320460	5.691980	-1.266580	0.745787	0.613951	0.203063	-1.000000	-1.000000	-1.000000	-1.000000	-1.000000	-1.000000	-1.000000	76.827586	0.000000	-1.000000	-1.000000	313362.000000	1773688183.692190
-6186.690000	20648.520000	31017.105000	-4153.545000	-26525.340000	11032.875000	-17493.795000	-27910.485000	-2.362761	-9.182903	-11.354631	-11.039046	-11.112636	-8.096057	-2.461324	18.551630	-0.320460	5.691980	-1.266580	0.745787	0.613951	0.203063	-1.000000	-1.000000	-1.000000	-1.000000	-1.000000	-1.000000	-1.000000	76.827586	0.000000	-1.000000	-1.000000	313363.000000	1773688183.696223
-6204.825000	20663.910000	31040.550000	-4111.290000	-26497.350000	11053.665000	-17487.990000	-27916.920000	-3.891839	-11.264373	-13.427874	-14.118912	-17.152223	-10.884968	-7.384330	16.255085	-0.320460	5.691980	-1.266580	0.745787	0.613951	0.203063	-1.000000	-1.000000	-1.000000	-1.000000	-1.000000	-1.000000	-1.000000	76.827586	0.000000	-1.000000	-1.000000	313364.000000	1773688183.696236
-6209.055000	20665.755000	31042.620000	-4097.070000	-26511.615000	11062.620000	-17480.970000	-27941.940000	-7.325914	-12.794058	-13.982462	-13.818601	-16.288267	-10.860822	-11.214189	8.822694	-0.320460	5.691980	-1.266580	0.745787	0.613951	0.203063	-1.000000	-1.000000	-1.000000	-1.000000	-1.000000	-1.000000	-1.000000	76.827586	0.000000	-1.000000	-1.000000	313365.000000	1773688183.700194
-6193.755000	20661.345000	31024.170000	-4106.835000	-26513.910000	11056.680000	-17474.355000	-27903.465000	-12.066825	-12.965333	-12.627188	-9.078167	-9.762470	-7.350184	-11.216472	-1.681190	-0.320460	5.691980	-1.266580	0.745787	0.613951	0.203063	-1.000000	-1.000000	-1.000000	-1.000000	-1.000000	-1.000000	-1.000000	76.827586	0.000000	-1.000000	-1.000000	313366.000000	1773688183.700203
-6186.870000	20649.960000	31020.570000	-4116.960000	-26479.395000	11052.360000	-17473.995000	-27842.175000	-13.752034	-10.759440	-9.518142	-2.616708	-2.677388	-2.202855	-6.640898	-9.283401	-0.320460	5.691980	-1.266580	0.745787	0.613951	0.203063	-1.000000	-1.000000	-1.000000	-1.000000	-1.000000	-1.000000	-1.000000	76.827586	0.000000	-1.000000	-1.000000	313367.000000	1773688183.704329
-6228.315000	20629.980000	31025.295000	-4133.745000	-26484.255000	11038.185000	-17474.670000	-27920.925000	-9.761644	-5.904784	-4.181914	2.482935	2.529265	2.193382	0.897513	-9.979689	-0.320460	5.691980	-1.266580	0.745787	0.613951	0.203063	-1.000000	-1.000000	-1.000000	-1.000000	-1.000000	-1.000000	-1.000000	76.827586	0.000000	-1.000000	-1.000000	313368.000000	1773688183.704340
-6247.305000	20598.930000	30982.455000	-4178.385000	-26542.440000	10997.460000	-17495.820000	-27941.670000	-2.767918	-0.059288	2.813372	4.320160	5.677979	3.956262	7.726768	-7.573154	-0.320460	5.691980	-1.266580	0.745787	0.613951	0.203063	-1.000000	-1.000000	-1.000000	-1.000000	-1.000000	-1.000000	-1.000000	76.827586	0.000000	-1.000000	-1.000000	313369.000000	1773688183.708203
-6231.600000	20618.370000	30999.330000	-4160.070000	-26537.670000	11010.285000	-17489.970000	-27929.610000	3.075104	4.127987	8.072136	2.285411	5.399021	2.192072	9.977590	-6.927645	-0.320460	5.691980	-1.266580	0.745787	0.613951	0.203063	-1.000000	-1.000000	-1.000000	-1.000000	-1.000000	-1.000000	-1.000000	76.827586	0.000000	-1.000000	-1.000000	313370.000000	1773688183.708211
-6201.495000	20650.725000	31028.445000	-4133.340000	-26532.225000	11037.375000	-17467.110000	-27901.350000	6.600142	6.217731	9.363480	-0.788881	2.053313	-0.917648	7.022633	-6.634622	-2.121140	3.525060	-2.090620	0.745420	0.613951	0.204589	-1.000000	-1.000000	-1.000000	-1.000000	-1.000000	-1.000000	-1.000000	76.827586	0.000000	-1.000000	-1.000000	313371.000000	1773688183.721110
-6185.070000	20661.795000	31032.405000	-4132.755000	-26550.900000	11051.235000	-17452.980000	-27890.055000	8.957505	7.905163	8.134843	-0.660860	-1.023088	-1.242548	2.272006	-3.076091	-2.121140	3.525060	-2.090620	0.745420	0.613951	0.204589	-1.000000	-1.000000	-1.000000	-1.000000	-1.000000	-1.000000	-1.000000	76.827586	0.000000	-1.000000	-1.000000	313372.000000	1773688183.721122
-6188.400000	20654.415000	31027.320000	-4147.020000	-26571.105000	11042.145000	-17474.805000	-27893.385000	10.645881	9.127489	5.647195	2.108579	-2.201317	1.885571	-1.225831	3.701888	-2.121140	3.525060	-2.090620	0.745420	0.613951	0.204589	-1.000000	-1.000000	-1.000000	-1.000000	-1.000000	-1.000000	-1.000000	76.827586	0.000000	-1.000000	-1.000000	313373.000000	1773688183.721136
-6211.755000	20626.920000	30997.575000	-4153.590000	-26529.210000	11026.125000	-17508.960000	-27890.460000	9.984361	7.461500	1.438180	3.230104	-1.580883	4.750130	-4.138186	9.894829	-2.121140	3.525060	-2.090620	0.745420	0.613951	0.204589	-1.000000	-1.000000	-1.000000	-1.000000	-1.000000	-1.000000	-1.000000	76.827586	0.000000	-1.000000	-1.000000	313374.000000	1773688183.721141
-6223.590000	20615.355000	30984.165000	-4140.270000	-26488.035000	11025.360000	-17504.640000	-27922.275000	4.756474	1.907374	-3.896780	1.665512	1.902368	4.328231	-7.738420	10.393886	-2.121140	3.525060	-2.090620	0.745420	0.613951	0.204589	-1.000000	-1.000000	-1.000000	-1.000000	-1.000000	-1.000000	-1.000000	76.827586	0.000000	-1.000000	-1.000000	313375.000000	1773688183.721148
-6224.400000	20629.305000	31015.620000	-4134.960000	-26489.970000	11030.220000	-17481.915000	-27943.065000	-3.808945	-4.399173	-7.233081	0.754343	7.679112	1.617058	-9.659494	2.467513	-2.121140	3.525060	-2.090620	0.745420	0.613951	0.204589	-1.000000	-1.000000	-1.000000	-1.000000	-1.000000	-1.000000	-1.000000	76.827586	0.000000	-1.000000	-1.000000	313376.000000	1773688183.721153
-6225.525000	20637.270000	31027.185000	-4142.520000	-26521.650000	11030.670000	-17485.830000	-27938.655000	-10.112922	-6.206066	-4.900984	3.106677	11.628440	-0.059767	-6.183055	-8.890419	-2.121140	3.525060	-2.090620	0.745420	0.613951	0.204589	-1.000000	-1.000000	-1.000000	-1.000000	-1.000000	-1.000000	-1.000000	76.827586	0.000000	-1.000000	-1.000000	313377.000000	1773688183.725351
-6216.480000	20642.805000	31022.685000	-4142.340000	-26529.165000	11031.435000	-17483.355000	-27926.370000	-9.398005	-1.604900	2.968158	7.318292	10.288549	1.197739	2.244737	-13.568856	-2.121140	3.525060	-2.090620	0.745420	0.613951	0.204589	-1.000000	-1.000000	-1.000000	-1.000000	-1.000000	-1.000000	-1.000000	76.827586	0.000000	-1.000000	-1.000000	313378.000000	1773688183.725362
-6207.300000	20645.190000	31023.405000	-4142.430000	-26531.190000	11027.565000	-17482.815000	-27918.585000	-2.975295	5.103103	10.574618	9.180051	3.942977	3.522036	10.448657	-7.589020	-2.121140	3.525060	-2.090620	0.745420	0.613951	0.204589	-1.000000	-1.000000	-1.000000	-1.000000	-1.000000	-1.000000	-1.000000	76.827586	0.000000	-1.000000	-1.000000	313379.000000	1773688183.728194
-6197.670000	20650.545000	31027.185000	-4138.065000	-26517.285000	11034.000000	-17484.705000	-27895.590000	3.386865	7.342297	11.204615	5.459151	-4.143293	3.120020	12.863069	3.585192	-2.121140	3.525060	-2.090620	0.745420	0.613951	0.204589	-1.000000	-1.000000	-1.000000	-1.000000	-1.000000	-1.000000	-1.000000	76.827586	0.000000	-1.000000	-1.000000	313380.000000	1773688183.728205
-6198.840000	20642.130000	31015.305000	-4140.045000	-26530.605000	11032.290000	-17490.420000	-27884.115000	5.324435	2.675092	3.608999	-2.780725	-9.734007	-1.208755	7.920119	12.368348	-3.036740	1.770160	-2.060100	0.746336	0.614012	0.203430	-1.000000	-1.000000	-1.000000	-1.000000	-1.000000	-1.000000	-1.000000	76.827586	0.000000	-1.000000	-1.000000	313381.000000	1773688183.732115
-6190.965000	20651.580000	31019.985000	-4126.140000	-26546.130000	11054.655000	-17465.220000	-27901.485000	3.142074	-5.223780	-7.132931	-10.593769	-10.834979	-6.283781	-0.279410	14.587786	-3.036740	1.770160	-2.060100	0.746336	0.614012	0.203430	-1.000000	-1.000000	-1.000000	-1.000000	-1.000000	-1.000000	-1.000000	76.827586	0.000000	-1.000000	-1.000000	313382.000000	1773688183.732125
-6186.015000	20659.905000	31038.435000	-4135.140000	-26572.995000	11054.070000	-17451.630000	-27928.395000	0.283222	-9.807638	-13.296130	-13.146518	-9.726810	-7.476741	-4.961123	9.351833	-3.036740	1.770160	-2.060100	0.746336	0.614012	0.203430	-1.000000	-1.000000	-1.000000	-1.000000	-1.000000	-1.000000	-1.000000	76.827586	0.000000	-1.000000	-1.000000	313383.000000	1773688183.736172
-6173.640000	20680.785000	31061.610000	-4117.275000	-26511.705000	11060.820000	-17464.455000	-27973.575000	-0.380533	-7.081577	-10.109582	-9.432676	-9.097747	-3.504294	-3.577976	-1.618714	-3.036740	1.770160	-2.060100	0.746336	0.614012	0.203430	-1.000000	-1.000000	-1.000000	-1.000000	-1.000000	-1.000000	-1.000000	76.827586	0.000000	-1.000000	-1.000000	313384.000000	1773688183.736182
-6162.435000	20717.145000	31103.685000	-4039.965000	-26387.325000	11102.805000	-17465.130000	-28015.425000	1.490980	1.492956	0.299783	-0.938303	-5.083356	3.080094	-0.166464	-13.691717	-3.036740	1.770160	-2.060100	0.746336	0.614012	0.203430	-1.000000	-1.000000	-1.000000	-1.000000	-1.000000	-1.000000	-1.000000	76.827586	0.000000	-1.000000	-1.000000	313385.000000	1773688183.740841
-6183.540000	20695.545000	31080.960000	-4060.440000	-26431.245000	11086.110000	-17464.905000	-27927.765000	3.866441	10.370493	10.850403	10.115925	7.874390	8.946260	0.748450	-19.627536	-3.036740	1.770160	-2.060100	0.746336	0.614012	0.203430	-1.000000	-1.000000	-1.000000	-1.000000	-1.000000	-1.000000	-1.000000	76.827586	0.000000	-1.000000	-1.000000	313386.000000	1773688183.740847
-6235.200000	20612.295000	30992.355000	-4157.640000	-26548.470000	11008.260000	-17499.420000	-27853.470000	2.756089	11.987096	13.316760	16.804277	22.161143	9.669041	-1.643080	-12.561260	-3.036740	1.770160	-2.060100	0.746336	0.614012	0.203430	-1.000000	-1.000000	-1.000000	-1.000000	-1.000000	-1.000000	-1.000000	76.827586	0.000000	-1.000000	-1.000000	313387.000000	1773688183.744142
-6252.165000	20586.960000	30963.825000	-4187.070000	-26537.445000	10997.100000	-17500.320000	-27883.260000	-4.687513	1.482922	2.908915	10.133882	21.745730	1.363585	-6.056035	5.727390	-3.036740	1.770160	-2.060100	0.746336	0.614012	0.203430	-1.000000	-1.000000	-1.000000	-1.000000	-1.000000	-1.000000	-1.000000	76.827586	0.000000	-1.000000	-1.000000	313388.000000	1773688183.744153
-6231.060000	20613.645000	30988.440000	-4165.020000	-26490.960000	11030.805000	-17484.435000	-27924.345000	-14.908531	-15.719879	-14.820247	-8.138674	4.758764	-12.106538	-9.542732	21.379869	-3.036740	1.770160	-2.060100	0.746336	0.614012	0.203430	-1.000000	-1.000000	-1.000000	-1.000000	-1.000000	-1.000000	-1.000000	76.827586	0.000000	-1.000000	-1.000000	313389.000000	1773688183.748219
-6212.565000	20636.280000	31020.480000	-4125.960000	-26490.510000	11046.780000	-17476.245000	-27892.440000	-19.038185	-25.726831	-25.492594	-23.572792	-13.702914	-19.872254	-8.340183	21.658644	-3.036740	1.770160	-2.060100	0.746336	0.614012	0.203430	-1.000000	-1.000000	-1.000000	-1.000000	-1.000000	-1.000000	-1.000000	76.827586	0.000000	-1.000000	-1.000000	313390.000000	1773688183.748227
-6201.315000	20635.695000	31011.975000	-4128.300000	-26503.605000	11040.705000	-17482.005000	-27890.640000	-11.550064	-19.402685	-19.380138	-23.414714	-20.357797	-15.334194	-2.019574	8.652472	-2.609460	0.244160	-1.938020	0.745054	0.617491	0.203308	-1.000000	-1.000000	-1.000000	-1.000000	-1.000000	-1.000000	-1.000000	76.827586	0.000000	-1.000000	-1.000000	313391.000000	1773688183.753542
-6205.005000	20625.030000	30998.745000	-4149.630000	-26520.795000	11028.240000	-17491.815000	-27894.825000	3.979811	-0.896490	-0.911999	-8.477919	-15.056027	-2.173662	5.357172	-5.786705	-2.609460	0.244160	-1.938020	0.745054	0.617491	0.203308	-1.000000	-1.000000	-1.000000	-1.000000	-1.000000	-1.000000	-1.000000	76.827586	0.000000	-1.000000	-1.000000	313392.000000	1773688183.753552
-6210.090000	20628.180000	31002.570000	-4144.995000	-26515.080000	11031.570000	-17493.210000	-27895.095000	17.974209	17.174477	16.475102	9.341542	-6.727173	10.549024	9.374943	-12.288165	-2.609460	0.244160	-1.938020	0.745054	0.617491	0.203308	-1.000000	-1.000000	-1.000000	-1.000000	-1.000000	-1.000000	-1.000000	76.827586	0.000000	-1.000000	-1.000000	313393.000000	1773688183.756181
-6211.530000	20631.105000	31005.450000	-4142.970000	-26516.430000	11029.860000	-17483.085000	-27900.945000	22.630351	24.545420	22.572746	18.431106	-3.152644	15.921171	8.975811	-9.428001	-2.609460	0.244160	-1.938020	0.745054	0.617491	0.203308	-1.000000	-1.000000	-1.000000	-1.000000	-1.000000	-1.000000	-1.000000	76.827586	0.000000	-1.000000	-1.000000	313394.000000	1773688183.756192
-6210.945000	20641.095000	31021.560000	-4127.940000	-26505.090000	11041.605000	-17474.895000	-27896.490000	17.333776	20.439293	17.847024	16.885646	-2.663227	13.718747	6.286733	-3.867579	-2.609460	0.244160	-1.938020	0.745054	0.617491	0.203308	-1.000000	-1.000000	-1.000000	-1.000000	-1.000000	-1.000000	-1.000000	76.827586	0.000000	-1.000000	-1.000000	313395.000000	1773688183.760146
-6194.790000	20656.395000	31035.555000	-4116.915000	-26500.455000	11032.020000	-17473.590000	-27883.980000	7.703765	12.075318	10.703481	12.005923	2.728648	9.195969	4.003641	-3.279380	-2.609460	0.244160	-1.938020	0.745054	0.617491	0.203308	-1.000000	-1.000000	-1.000000	-1.000000	-1.000000	-1.000000	-1.000000	76.896552	0.000000	-1.000000	-1.000000	313396.000000	1773688183.760156
-6174.945000	20685.105000	31063.410000	-4095.585000	-26485.830000	11056.635000	-17469.180000	-27916.380000	-0.118726	6.246811	7.573369	10.190658	14.328260	6.287041	2.767968	-7.381581	-2.609460	0.244160	-1.938020	0.745054	0.617491	0.203308	-1.000000	-1.000000	-1.000000	-1.000000	-1.000000	-1.000000	-1.000000	76.896552	0.000000	-1.000000	-1.000000	313397.000000	1773688183.764299
-6115.680000	20749.545000	31126.095000	-4039.155000	-26430.660000	11125.665000	-17458.200000	-27911.520000	-3.590237	3.914731	7.606910	10.419861	23.910253	4.759343	1.189574	-10.033967	-2.609460	0.244160	-1.938020	0.745054	0.617491	0.203308	-1.000000	-1.000000	-1.000000	-1.000000	-1.000000	-1.000000	-1.000000	76.896552	0.000000	-1.000000	-1.000000	313398.000000	1773688183.764309
-6109.695000	20744.910000	31122.765000	-4042.170000	-26444.565000	11134.080000	-17435.520000	-27825.255000	-3.492666	2.314790	6.403568	8.087663	24.290269	3.507418	-1.374932	-6.219481	-2.609460	0.244160	-1.938020	0.745054	0.617491	0.203308	-1.000000	-1.000000	-1.000000	-1.000000	-1.000000	-1.000000	-1.000000	76.896552	0.000000	-1.000000	-1.000000	313399.000000	1773688183.768168
-6193.890000	20618.775000	30992.940000	-4161.285000	-26576.145000	11021.580000	-17484.660000	-27854.370000	-3.825797	-3.257080	-0.876556	-0.802381	13.169517	0.042803	-4.266812	4.620529	-2.609460	0.244160	-1.938020	0.745054	0.617491	0.203308	-1.000000	-1.000000	-1.000000	-1.000000	-1.000000	-1.000000	-1.000000	76.896552	0.000000	-1.000000	-1.000000	313400.000000	1773688183.768178
-6269.220000	20565.360000	30940.380000	-4212.315000	-26603.820000	10961.055000	-17511.795000	-27962.820000	-10.161284	-16.914833	-17.194412	-17.440572	-8.715608	-9.930993	-7.631013	15.294277	-3.280900	0.625660	-1.434440	0.745054	0.618468	0.203002	-1.000000	-1.000000	-1.000000	-1.000000	-1.000000	-1.000000	-1.000000	76.896552	0.000000	-1.000000	-1.000000	313401.000000	1773688183.774447
-6252.345000	20592.045000	30966.795000	-4189.320000	-26550.090000	10993.725000	-17487.900000	-27932.805000	-21.824616	-34.001363	-36.562634	-35.375034	-32.567611	-24.474736	-10.923668	15.901007	-3.280900	0.625660	-1.434440	0.745054	0.618468	0.203002	-1.000000	-1.000000	-1.000000	-1.000000	-1.000000	-1.000000	-1.000000	76.896552	0.000000	-1.000000	-1.000000	313402.000000	1773688183.774457
-6227.370000	20614.230000	30974.445000	-4165.875000	-26515.845000	11028.420000	-17478.135000	-27916.245000	-28.421456	-40.532775	-44.317504	-41.408243	-41.999247	-31.886362	-10.944735	6.313602	-3.280900	0.625660	-1.434440	0.745054	0.618468	0.203002	-1.000000	-1.000000	-1.000000	-1.000000	-1.000000	-1.000000	-1.000000	76.896552	0.000000	-1.000000	-1.000000	313403.000000	1773688183.776199
-6220.890000	20622.465000	30979.845000	-4146.525000	-26500.095000	11038.500000	-17471.565000	-27905.670000	-20.092686	-26.760352	-30.800111	-26.916076	-27.309504	-22.023270	-5.427817	-4.871083	-3.280900	0.625660	-1.434440	0.745054	0.618468	0.203002	-1.000000	-1.000000	-1.000000	-1.000000	-1.000000	-1.000000	-1.000000	76.896552	0.000000	-1.000000	-1.000000	313404.000000	1773688183.776208
-6214.770000	20628.225000	31012.470000	-4133.520000	-26499.015000	11045.700000	-17464.770000	-27908.055000	1.082028	2.164334	-0.871755	3.004522	3.728973	2.047545	3.624980	-10.544037	-3.280900	0.625660	-1.434440	0.745054	0.618468	0.203002	-1.000000	-1.000000	-1.000000	-1.000000	-1.000000	-1.000000	-1.000000	76.896552	0.000000	-1.000000	-1.000000	313405.000000	1773688183.779992
-6202.080000	20643.840000	31030.470000	-4135.950000	-26506.890000	11053.890000	-17461.800000	-27912.915000	22.671148	30.041304	30.133866	32.034877	31.244598	25.768357	11.405286	-8.455654	-3.280900	0.625660	-1.434440	0.745054	0.618468	0.203002	-1.000000	-1.000000	-1.000000	-1.000000	-1.000000	-1.000000	-1.000000	76.896552	0.000000	-1.000000	-1.000000	313406.000000	1773688183.780002
-6198.030000	20648.880000	31029.660000	-4139.370000	-26515.350000	11050.020000	-17487.450000	-27930.960000	32.254038	41.878803	46.267347	43.742708	38.583674	34.407135	13.226845	-1.789517	-3.280900	0.625660	-1.434440	0.745054	0.618468	0.203002	-1.000000	-1.000000	-1.000000	-1.000000	-1.000000	-1.000000	-1.000000	76.896552	0.000000	-1.000000	-1.000000	313407.000000	1773688183.783993
-6198.165000	20649.195000	31032.270000	-4124.565000	-26504.820000	11046.915000	-17500.320000	-27918.045000	26.511786	34.621923	41.507579	34.235246	25.166394	24.723275	7.486325	2.669361	-3.280900	0.625660	-1.434440	0.745054	0.618468	0.203002	-1.000000	-1.000000	-1.000000	-1.000000	-1.000000	-1.000000	-1.000000	76.896552	0.000000	-1.000000	-1.000000	313408.000000	1773688183.784003
-6207.120000	20643.165000	31026.645000	-4115.115000	-26493.525000	11044.890000	-17492.175000	-27919.215000	12.933577	18.205806	24.044357	15.245383	5.686629	7.454121	-1.549316	2.865657	-3.280900	0.625660	-1.434440	0.745054	0.618468	0.203002	-1.000000	-1.000000	-1.000000	-1.000000	-1.000000	-1.000000	-1.000000	76.896552	0.000000	-1.000000	-1.000000	313409.000000	1773688183.788004
-6209.820000	20635.695000	31014.720000	-4129.740000	-26502.930000	11043.720000	-17479.440000	-27920.970000	1.790869	4.220206	6.217197	0.723707	-6.162358	-4.221379	-6.499297	3.747276	-3.280900	0.625660	-1.434440	0.745054	0.618468	0.203002	-1.000000	-1.000000	-1.000000	-1.000000	-1.000000	-1.000000	-1.000000	76.896552	0.000000	-1.000000	-1.000000	313410.000000	1773688183.788016
-6202.755000	20629.395000	31006.440000	-4145.355000	-26521.065000	11038.320000	-17467.695000	-27876.420000	-3.441734	-4.775432	-7.374705	-6.919027	-10.354326	-7.506000	-4.549230	8.059738	-3.204600	1.144500	-1.449700	0.745543	0.618407	0.202148	-1.000000	-1.000000	-1.000000	-1.000000	-1.000000	-1.000000	-1.000000	76.896552	0.000000	-1.000000	-1.000000	313411.000000	1773688183.797088
-6199.290000	20645.505000	31025.880000	-4133.925000	-26512.740000	11047.680000	-17454.285000	-27895.680000	-5.907487	-11.818148	-17.401803	-12.672417	-13.436793	-7.930443	0.839765	11.575061	-3.204600	1.144500	-1.449700	0.745543	0.618407	0.202148	-1.000000	-1.000000	-1.000000	-1.000000	-1.000000	-1.000000	-1.000000	76.896552	0.000000	-1.000000	-1.000000	313412.000000	1773688183.797103
-6207.615000	20657.430000	31041.540000	-4108.590000	-26488.305000	11059.875000	-17450.955000	-27905.535000	-8.780036	-17.153657	-22.709184	-17.804394	-16.334855	-9.026045	4.973675	8.565816	-3.204600	1.144500	-1.449700	0.745543	0.618407	0.202148	-1.000000	-1.000000	-1.000000	-1.000000	-1.000000	-1.000000	-1.000000	76.896552	0.000000	-1.000000	-1.000000	313413.000000	1773688183.797116
-6199.425000	20654.595000	31029.120000	-4113.540000	-26504.460000	11053.530000	-17476.335000	-27904.725000	-12.160230	-18.535297	-22.029522	-19.208242	-15.294680	-9.859267	4.920614	-1.142052	-3.204600	1.144500	-1.449700	0.745543	0.618407	0.202148	-1.000000	-1.000000	-1.000000	-1.000000	-1.000000	-1.000000	-1.000000	76.896552	0.000000	-1.000000	-1.000000	313414.000000	1773688183.797121
