Channel1	Channel2	Channel3	Channel4	Channel5	Channel6	Channel7	Channel8	FilteredChannel1	FilteredChannel2	FilteredChannel3	FilteredChannel4	FilteredChannel5	FilteredChannel6	FilteredChannel7	FilteredChannel8	GyroX	GyroY	GyroZ	AccX	AccY	AccZ	PPG1	PPG2	rawPPG1	rawPPG2	rawPPG3	Hr	Hrv	Battery	Trigger	PhysicalTrigger	AutoTrigger	NumMeasurements	Timestamp
8200.755000	-28657.395000	-9710.505000	-3376.305000	-14398.830000	-7454.880000	22502.880000	27535.320000	-14.205726	-12.654845	-13.242795	-19.750733	-19.093530	-16.506520	-8.006514	-7.396017	-6.973820	1.953280	2.060100	0.970334	-0.200622	0.182861	-1.000000	-1.000000	-1.000000	-1.000000	-1.000000	-1.000000	-1.000000	66.275862	0.000000	-1.000000	-1.000000	428037.000000	1772738253.561243
8204.535000	-28631.520000	-9681.480000	-3359.790000	-14388.795000	-7459.875000	22491.855000	27527.085000	-18.925384	-17.760565	-20.774938	-24.934438	-23.662985	-20.364561	-9.088230	-2.822298	-6.973820	1.953280	2.060100	0.970334	-0.200622	0.182861	-1.000000	-1.000000	-1.000000	-1.000000	-1.000000	-1.000000	-1.000000	66.275862	0.000000	-1.000000	-1.000000	428038.000000	1772738253.561249
8193.330000	-28614.555000	-9670.455000	-3356.865000	-14392.485000	-7476.975000	22486.005000	27523.710000	-12.183242	-18.216462	-22.445016	-20.658660	-17.868643	-14.871719	-5.672320	6.856037	-6.973820	1.953280	2.060100	0.970334	-0.200622	0.182861	-1.000000	-1.000000	-1.000000	-1.000000	-1.000000	-1.000000	-1.000000	66.275862	0.000000	-1.000000	-1.000000	428039.000000	1772738253.565009
8179.200000	-28633.005000	-9688.140000	-3375.990000	-14410.440000	-7493.895000	22493.025000	27521.100000	-2.255370	-13.091486	-16.396094	-9.084040	-5.616485	-4.262261	-1.020592	12.940332	-6.973820	1.953280	2.060100	0.970334	-0.200622	0.182861	-1.000000	-1.000000	-1.000000	-1.000000	-1.000000	-1.000000	-1.000000	66.275862	0.000000	-1.000000	-1.000000	428040.000000	1772738253.565016
8183.430000	-28640.520000	-9696.105000	-3384.045000	-14415.480000	-7486.065000	22498.515000	27547.470000	2.870315	-4.676407	-5.136408	3.270684	5.485629	4.925284	2.450185	11.548211	-10.147900	3.357200	3.113040	0.966733	-0.200805	0.177856	-1.000000	-1.000000	-1.000000	-1.000000	-1.000000	-1.000000	-1.000000	66.275862	0.000000	-1.000000	-1.000000	428041.000000	1772738253.568199
8204.085000	-28623.330000	-9682.065000	-3373.065000	-14406.075000	-7474.185000	22491.180000	27561.600000	3.009448	4.434186	6.821053	11.282979	10.865332	9.267083	4.405391	5.963035	-10.147900	3.357200	3.113040	0.966733	-0.200805	0.177856	-1.000000	-1.000000	-1.000000	-1.000000	-1.000000	-1.000000	-1.000000	66.275862	0.000000	-1.000000	-1.000000	428042.000000	1772738253.568205
8207.055000	-28626.660000	-9673.245000	-3357.630000	-14387.715000	-7449.615000	22497.975000	27564.660000	4.212727	13.312774	16.354677	14.675725	11.581145	9.763585	5.410178	2.774940	-10.147900	3.357200	3.113040	0.966733	-0.200805	0.177856	-1.000000	-1.000000	-1.000000	-1.000000	-1.000000	-1.000000	-1.000000	66.275862	0.000000	-1.000000	-1.000000	428043.000000	1772738253.573797
8246.340000	-28620.900000	-9664.155000	-3340.170000	-14366.790000	-7421.985000	22505.760000	27555.885000	10.150588	19.414833	21.243787	15.321747	10.839590	9.009541	5.601128	3.796623	-10.147900	3.357200	3.113040	0.966733	-0.200805	0.177856	-1.000000	-1.000000	-1.000000	-1.000000	-1.000000	-1.000000	-1.000000	66.275862	0.000000	-1.000000	-1.000000	428044.000000	1772738253.573805
8232.885000	-28615.455000	-9662.040000	-3338.055000	-14367.195000	-7426.980000	22499.820000	27535.680000	16.847795	19.030415	19.849234	13.726533	9.770930	7.983220	4.410882	3.663638	-10.147900	3.357200	3.113040	0.966733	-0.200805	0.177856	-1.000000	-1.000000	-1.000000	-1.000000	-1.000000	-1.000000	-1.000000	66.275862	0.000000	-1.000000	-1.000000	428045.000000	1772738253.579941
8170.830000	-28619.325000	-9667.215000	-3349.890000	-14381.865000	-7447.365000	22497.840000	27525.870000	15.465207	11.529698	12.264864	8.809900	6.750693	5.370255	1.551888	-2.304480	-10.147900	3.357200	3.113040	0.966733	-0.200805	0.177856	-1.000000	-1.000000	-1.000000	-1.000000	-1.000000	-1.000000	-1.000000	66.275862	0.000000	-1.000000	-1.000000	428046.000000	1772738253.579949
8149.815000	-28626.120000	-9680.535000	-3367.530000	-14400.945000	-7473.240000	22495.995000	27540.945000	1.277339	-0.593263	-0.051899	-0.170073	0.055487	-0.203415	-1.913677	-11.220876	-10.147900	3.357200	3.113040	0.966733	-0.200805	0.177856	-1.000000	-1.000000	-1.000000	-1.000000	-1.000000	-1.000000	-1.000000	66.275862	0.000000	-1.000000	-1.000000	428047.000000	1772738253.580395
8174.385000	-28616.445000	-9683.505000	-3377.340000	-14412.510000	-7494.570000	22490.775000	27538.290000	-18.550643	-13.113792	-13.714457	-11.133634	-8.914194	-7.518356	-4.446941	-16.212173	-10.147900	3.357200	3.113040	0.966733	-0.200805	0.177856	-1.000000	-1.000000	-1.000000	-1.000000	-1.000000	-1.000000	-1.000000	66.275862	0.000000	-1.000000	-1.000000	428048.000000	1772738253.580403
8200.215000	-28602.270000	-9668.340000	-3375.405000	-14409.135000	-7488.315000	22492.395000	27544.500000	-29.616361	-20.134821	-22.367313	-18.800087	-15.476342	-12.908437	-5.532378	-13.966054	-10.147900	3.357200	3.113040	0.966733	-0.200805	0.177856	-1.000000	-1.000000	-1.000000	-1.000000	-1.000000	-1.000000	-1.000000	66.275862	0.000000	-1.000000	-1.000000	428049.000000	1772738253.584335
8194.230000	-28605.780000	-9667.530000	-3374.010000	-14404.815000	-7475.580000	22491.360000	27547.245000	-23.874589	-17.436288	-20.580798	-18.399033	-15.291481	-13.017095	-5.258476	-6.679034	-10.147900	3.357200	3.113040	0.966733	-0.200805	0.177856	-1.000000	-1.000000	-1.000000	-1.000000	-1.000000	-1.000000	-1.000000	66.275862	0.000000	-1.000000	-1.000000	428050.000000	1772738253.584344
8186.580000	-28608.390000	-9692.730000	-3355.965000	-14386.905000	-7456.140000	22490.910000	27530.955000	-5.988692	-6.893568	-9.791667	-9.785354	-8.008732	-7.341802	-3.479111	1.425052	-12.253780	4.837420	3.067260	0.967466	-0.202148	0.176635	-1.000000	-1.000000	-1.000000	-1.000000	-1.000000	-1.000000	-1.000000	66.275862	0.000000	-1.000000	-1.000000	428051.000000	1772738253.588264
8187.750000	-28596.690000	-9660.645000	-3320.685000	-14356.440000	-7424.100000	22488.660000	27501.930000	12.534475	4.987826	2.847576	2.836119	2.764139	1.471706	-0.616170	6.872184	-12.253780	4.837420	3.067260	0.967466	-0.202148	0.176635	-1.000000	-1.000000	-1.000000	-1.000000	-1.000000	-1.000000	-1.000000	66.275862	0.000000	-1.000000	-1.000000	428052.000000	1772738253.588272
8200.755000	-28591.695000	-9638.190000	-3313.980000	-14351.625000	-7419.960000	22487.805000	27521.055000	22.218069	12.357742	11.766967	13.854230	11.969138	9.261544	1.864138	8.083547	-12.253780	4.837420	3.067260	0.967466	-0.202148	0.176635	-1.000000	-1.000000	-1.000000	-1.000000	-1.000000	-1.000000	-1.000000	66.275862	0.000000	-1.000000	-1.000000	428053.000000	1772738253.592533
8215.335000	-28614.105000	-9651.510000	-3334.680000	-14370.930000	-7440.930000	22495.500000	27568.035000	20.882566	12.638022	15.387440	18.252106	15.264342	12.407409	3.028981	7.299708	-12.253780	4.837420	3.067260	0.967466	-0.202148	0.176635	-1.000000	-1.000000	-1.000000	-1.000000	-1.000000	-1.000000	-1.000000	66.275862	0.000000	-1.000000	-1.000000	428054.000000	1772738253.592540
8204.805000	-28618.245000	-9660.555000	-3347.595000	-14384.340000	-7456.545000	22499.910000	27569.880000	13.282464	6.397364	13.128089	13.676400	11.034932	9.702406	3.440310	8.327218	-12.253780	4.837420	3.067260	0.967466	-0.202148	0.176635	-1.000000	-1.000000	-1.000000	-1.000000	-1.000000	-1.000000	-1.000000	66.275862	0.000000	-1.000000	-1.000000	428055.000000	1772738253.596523
8187.660000	-28632.780000	-9688.950000	-3371.220000	-14405.670000	-7484.715000	22492.845000	27554.220000	4.720771	-2.995381	5.292829	2.487100	1.727986	3.101524	3.672824	10.208131	-12.253780	4.837420	3.067260	0.967466	-0.202148	0.176635	-1.000000	-1.000000	-1.000000	-1.000000	-1.000000	-1.000000	-1.000000	66.275862	0.000000	-1.000000	-1.000000	428056.000000	1772738253.596529
8201.205000	-28622.385000	-9686.430000	-3369.780000	-14405.670000	-7488.315000	22483.710000	27544.455000	-3.324334	-10.625288	-5.026567	-9.256023	-7.556406	-3.770122	3.069142	8.041991	-12.253780	4.837420	3.067260	0.967466	-0.202148	0.176635	-1.000000	-1.000000	-1.000000	-1.000000	-1.000000	-1.000000	-1.000000	66.275862	0.000000	-1.000000	-1.000000	428057.000000	1772738253.600322
8215.740000	-28601.370000	-9664.830000	-3350.250000	-14389.020000	-7466.445000	22483.935000	27534.375000	-10.225060	-12.166550	-12.438568	-15.215735	-12.020409	-7.719852	0.871613	-0.104409	-12.253780	4.837420	3.067260	0.967466	-0.202148	0.176635	-1.000000	-1.000000	-1.000000	-1.000000	-1.000000	-1.000000	-1.000000	66.275862	0.000000	-1.000000	-1.000000	428058.000000	1772738253.600330
8199.450000	-28607.490000	-9658.665000	-3339.450000	-14376.150000	-7445.565000	22493.880000	27518.895000	-13.735874	-6.330319	-12.350083	-12.399739	-9.658051	-7.160208	-1.974166	-10.741582	-12.253780	4.837420	3.067260	0.967466	-0.202148	0.176635	-1.000000	-1.000000	-1.000000	-1.000000	-1.000000	-1.000000	-1.000000	66.275862	0.000000	-1.000000	-1.000000	428059.000000	1772738253.607063
8204.985000	-28597.590000	-9643.545000	-3323.520000	-14362.560000	-7426.755000	22497.570000	27524.970000	-12.293335	3.507269	-4.653898	-3.411015	-2.642900	-3.024126	-3.357726	-17.471750	-12.253780	4.837420	3.067260	0.967466	-0.202148	0.176635	-1.000000	-1.000000	-1.000000	-1.000000	-1.000000	-1.000000	-1.000000	66.275862	0.000000	-1.000000	-1.000000	428060.000000	1772738253.607071
8192.700000	-28599.570000	-9640.845000	-3317.445000	-14353.380000	-7417.395000	22501.845000	27548.955000	-7.158019	11.331354	5.343979	5.408190	4.111596	1.495842	-2.389564	-15.192562	-12.558980	5.386780	3.357200	0.965879	-0.202514	0.177063	-1.000000	-1.000000	-1.000000	-1.000000	-1.000000	-1.000000	-1.000000	66.275862	0.000000	-1.000000	-1.000000	428061.000000	1772738253.608300
8175.600000	-28595.340000	-9637.965000	-3311.370000	-14337.855000	-7404.120000	22514.355000	27547.830000	-1.896961	12.968544	10.863031	9.241643	7.175767	3.849160	-0.004023	-4.773494	-12.558980	5.386780	3.357200	0.965879	-0.202514	0.177063	-1.000000	-1.000000	-1.000000	-1.000000	-1.000000	-1.000000	-1.000000	66.275862	0.000000	-1.000000	-1.000000	428062.000000	1772738253.608305
8177.220000	-28586.025000	-9634.545000	-3314.070000	-14348.790000	-7422.705000	22507.875000	27520.605000	0.856878	8.852554	9.374935	8.003699	6.822219	4.169942	2.155101	6.194141	-12.558980	5.386780	3.357200	0.965879	-0.202514	0.177063	-1.000000	-1.000000	-1.000000	-1.000000	-1.000000	-1.000000	-1.000000	66.275862	0.000000	-1.000000	-1.000000	428063.000000	1772738253.612348
8184.465000	-28639.845000	-9721.170000	-3383.415000	-14413.905000	-7491.375000	22482.045000	27536.130000	2.232845	1.895938	2.613728	3.700893	4.052539	2.779677	2.258169	10.333287	-12.558980	5.386780	3.357200	0.965879	-0.202514	0.177063	-1.000000	-1.000000	-1.000000	-1.000000	-1.000000	-1.000000	-1.000000	66.275862	0.000000	-1.000000	-1.000000	428064.000000	1772738253.612356
8205.300000	-28662.525000	-9783.225000	-3420.180000	-14441.670000	-7517.520000	22473.855000	27571.455000	4.833942	-6.189398	-7.499021	-2.939760	-1.534832	-1.268581	-0.534283	8.132176	-12.558980	5.386780	3.357200	0.965879	-0.202514	0.177063	-1.000000	-1.000000	-1.000000	-1.000000	-1.000000	-1.000000	-1.000000	66.275862	0.000000	-1.000000	-1.000000	428065.000000	1772738253.616391
8226.135000	-28608.390000	-9701.640000	-3368.790000	-14404.950000	-7483.275000	22480.335000	27566.505000	8.645565	-13.001876	-16.866329	-9.721303	-8.171403	-6.575026	-4.358327	5.265634	-12.558980	5.386780	3.357200	0.965879	-0.202514	0.177063	-1.000000	-1.000000	-1.000000	-1.000000	-1.000000	-1.000000	-1.000000	66.275862	0.000000	-1.000000	-1.000000	428066.000000	1772738253.616399
8201.250000	-28597.770000	-9620.055000	-3335.805000	-14385.240000	-7459.695000	22488.705000	27538.155000	10.714778	-13.670511	-16.562944	-10.995838	-10.645785	-8.600511	-5.840689	4.023747	-12.558980	5.386780	3.357200	0.965879	-0.202514	0.177063	-1.000000	-1.000000	-1.000000	-1.000000	-1.000000	-1.000000	-1.000000	66.275862	0.000000	-1.000000	-1.000000	428067.000000	1772738253.627705
8187.480000	-28605.780000	-9631.710000	-3331.665000	-14373.765000	-7437.780000	22488.435000	27527.625000	8.130869	-6.384819	-2.074990	-3.995372	-6.070636	-4.804118	-3.524832	2.247804	-12.558980	5.386780	3.357200	0.965879	-0.202514	0.177063	-1.000000	-1.000000	-1.000000	-1.000000	-1.000000	-1.000000	-1.000000	66.275862	0.000000	-1.000000	-1.000000	428068.000000	1772738253.627717
8173.530000	-28589.355000	-9626.445000	-3310.605000	-14353.695000	-7415.820000	22491.720000	27528.615000	0.973773	4.211006	17.521519	6.574199	2.554116	2.523180	0.930379	-1.453732	-12.558980	5.386780	3.357200	0.965879	-0.202514	0.177063	-1.000000	-1.000000	-1.000000	-1.000000	-1.000000	-1.000000	-1.000000	66.275862	0.000000	-1.000000	-1.000000	428069.000000	1772738253.628024
8192.430000	-28566.270000	-9594.270000	-3281.265000	-14329.890000	-7400.070000	22505.490000	27488.160000	-7.021162	12.052352	28.035537	13.836392	9.948710	8.977084	4.817439	-6.401091	-12.558980	5.386780	3.357200	0.965879	-0.202514	0.177063	-1.000000	-1.000000	-1.000000	-1.000000	-1.000000	-1.000000	-1.000000	66.275862	0.000000	-1.000000	-1.000000	428070.000000	1772738253.628028
8210.745000	-28602.315000	-9621.540000	-3296.655000	-14333.310000	-7403.760000	22519.530000	27530.055000	-10.497243	13.779018	23.457305	14.545687	12.740321	11.446144	6.628023	-10.608636	-12.620020	6.546540	2.273740	0.961912	-0.203308	0.175903	-1.000000	-1.000000	-1.000000	-1.000000	-1.000000	-1.000000	-1.000000	66.275862	0.000000	-1.000000	-1.000000	428071.000000	1772738253.628463
8235.405000	-28612.215000	-9650.430000	-3325.005000	-14359.005000	-7433.415000	22514.175000	27629.685000	-6.618234	8.575984	7.355109	8.936456	10.296107	9.355155	6.356018	-8.961689	-12.620020	6.546540	2.273740	0.961912	-0.203308	0.175903	-1.000000	-1.000000	-1.000000	-1.000000	-1.000000	-1.000000	-1.000000	66.275862	0.000000	-1.000000	-1.000000	428072.000000	1772738253.628471
8241.660000	-28622.115000	-9699.030000	-3387.825000	-14430.015000	-7512.615000	22471.605000	27566.055000	1.995293	-0.458899	-11.152076	-0.452458	3.836961	3.761109	4.156030	1.247540	-12.620020	6.546540	2.273740	0.961912	-0.203308	0.175903	-1.000000	-1.000000	-1.000000	-1.000000	-1.000000	-1.000000	-1.000000	66.275862	0.000000	-1.000000	-1.000000	428073.000000	1772738253.632281
8211.510000	-28618.830000	-9692.865000	-3380.265000	-14424.480000	-7504.560000	22471.560000	27530.190000	8.341327	-7.665054	-22.675206	-9.816893	-4.684977	-3.999953	-0.201202	11.564966	-12.620020	6.546540	2.273740	0.961912	-0.203308	0.175903	-1.000000	-1.000000	-1.000000	-1.000000	-1.000000	-1.000000	-1.000000	66.275862	0.000000	-1.000000	-1.000000	428074.000000	1772738253.632288
8214.390000	-28605.690000	-9676.395000	-3354.705000	-14386.140000	-7459.965000	22488.885000	27535.455000	6.569579	-10.392667	-24.288967	-15.746526	-12.089817	-11.134896	-5.349180	11.493333	-12.620020	6.546540	2.273740	0.961912	-0.203308	0.175903	-1.000000	-1.000000	-1.000000	-1.000000	-1.000000	-1.000000	-1.000000	66.275862	0.000000	-1.000000	-1.000000	428075.000000	1772738253.636310
8221.050000	-28620.405000	-9681.480000	-3353.670000	-14383.800000	-7450.110000	22486.365000	27545.580000	-1.483851	-9.530842	-19.459021	-16.141784	-14.360006	-13.473991	-8.155929	2.727989	-12.620020	6.546540	2.273740	0.961912	-0.203308	0.175903	-1.000000	-1.000000	-1.000000	-1.000000	-1.000000	-1.000000	-1.000000	66.275862	0.000000	-1.000000	-1.000000	428076.000000	1772738253.636317
8204.850000	-28631.610000	-9677.655000	-3345.840000	-14376.555000	-7433.730000	22490.685000	27557.010000	-8.294377	-6.571854	-11.570821	-10.999159	-10.309807	-9.626344	-6.940864	-5.154050	-12.620020	6.546540	2.273740	0.961912	-0.203308	0.175903	-1.000000	-1.000000	-1.000000	-1.000000	-1.000000	-1.000000	-1.000000	66.275862	0.000000	-1.000000	-1.000000	428077.000000	1772738253.640451
8189.595000	-28611.405000	-9659.520000	-3330.855000	-14363.550000	-7424.415000	22489.155000	27541.170000	-9.441238	-2.814171	-1.641282	-2.642832	-2.858650	-2.409029	-2.890584	-6.585456	-12.620020	6.546540	2.273740	0.961912	-0.203308	0.175903	-1.000000	-1.000000	-1.000000	-1.000000	-1.000000	-1.000000	-1.000000	66.275862	0.000000	-1.000000	-1.000000	428078.000000	1772738253.640456
8194.905000	-28587.240000	-9649.665000	-3328.470000	-14364.765000	-7436.115000	22488.615000	27525.555000	-6.270329	1.453651	8.913347	5.546957	3.923165	4.045043	1.225267	-3.236605	-12.620020	6.546540	2.273740	0.961912	-0.203308	0.175903	-1.000000	-1.000000	-1.000000	-1.000000	-1.000000	-1.000000	-1.000000	66.275862	0.000000	-1.000000	-1.000000	428079.000000	1772738253.646050
8218.125000	-28587.870000	-9659.250000	-3340.395000	-14378.040000	-7456.905000	22486.590000	27533.205000	-1.651335	6.821696	17.426404	11.030829	7.580920	7.010578	3.115888	-0.476569	-12.620020	6.546540	2.273740	0.961912	-0.203308	0.175903	-1.000000	-1.000000	-1.000000	-1.000000	-1.000000	-1.000000	-1.000000	66.275862	0.000000	-1.000000	-1.000000	428080.000000	1772738253.646057
8220.060000	-28601.235000	-9676.395000	-3356.955000	-14394.555000	-7481.880000	22484.790000	27554.805000	2.721999	12.156377	21.777954	13.403220	8.527048	6.935436	3.014786	-1.815092	-7.599480	7.294280	1.159760	0.958982	-0.205322	0.172729	-1.000000	-1.000000	-1.000000	-1.000000	-1.000000	-1.000000	-1.000000	66.275862	0.000000	-1.000000	-1.000000	428081.000000	1772738253.648293
8212.275000	-28574.865000	-9653.895000	-3336.570000	-14378.580000	-7470.945000	22475.790000	27526.950000	5.659887	14.469380	21.619734	14.019703	9.222885	6.866517	3.094320	-4.822707	-7.599480	7.294280	1.159760	0.958982	-0.205322	0.172729	-1.000000	-1.000000	-1.000000	-1.000000	-1.000000	-1.000000	-1.000000	66.275862	0.000000	-1.000000	-1.000000	428082.000000	1772738253.648298
8207.415000	-28559.745000	-9641.430000	-3324.465000	-14368.320000	-7456.230000	22466.880000	27485.685000	6.308398	11.855726	16.999935	13.135044	10.236946	7.967593	3.896901	-5.040601	-7.599480	7.294280	1.159760	0.958982	-0.205322	0.172729	-1.000000	-1.000000	-1.000000	-1.000000	-1.000000	-1.000000	-1.000000	66.275862	0.000000	-1.000000	-1.000000	428083.000000	1772738253.654447
8195.220000	-28602.180000	-9661.725000	-3336.660000	-14375.520000	-7450.920000	22483.215000	27538.020000	4.738263	4.171842	6.810105	8.265294	8.235491	7.125418	3.601891	-1.532227	-7.599480	7.294280	1.159760	0.958982	-0.205322	0.172729	-1.000000	-1.000000	-1.000000	-1.000000	-1.000000	-1.000000	-1.000000	66.275862	0.000000	-1.000000	-1.000000	428084.000000	1772738253.654453
8204.535000	-28612.440000	-9650.745000	-3318.075000	-14356.305000	-7418.430000	22504.140000	27580.320000	1.976871	-6.962119	-7.878765	-1.641589	0.953751	1.877724	1.761501	5.026687	-7.599480	7.294280	1.159760	0.958982	-0.205322	0.172729	-1.000000	-1.000000	-1.000000	-1.000000	-1.000000	-1.000000	-1.000000	66.275862	0.000000	-1.000000	-1.000000	428085.000000	1772738253.656134
8209.170000	-28595.610000	-9632.925000	-3296.880000	-14331.870000	-7396.965000	22500.990000	27557.730000	0.034334	-16.835630	-20.825306	-12.375521	-8.204498	-5.189925	0.061442	12.658472	-7.599480	7.294280	1.159760	0.958982	-0.205322	0.172729	-1.000000	-1.000000	-1.000000	-1.000000	-1.000000	-1.000000	-1.000000	66.275862	0.000000	-1.000000	-1.000000	428086.000000	1772738253.656139
8148.195000	-28618.740000	-9665.685000	-3331.035000	-14359.230000	-7429.230000	22482.090000	27488.250000	-0.437408	-20.432732	-25.857309	-18.555785	-13.995347	-10.005214	-1.074585	15.562064	-7.599480	7.294280	1.159760	0.958982	-0.205322	0.172729	-1.000000	-1.000000	-1.000000	-1.000000	-1.000000	-1.000000	-1.000000	66.275862	0.000000	-1.000000	-1.000000	428087.000000	1772738253.660243
8133.120000	-28639.440000	-9686.340000	-3355.875000	-14387.760000	-7462.080000	22468.365000	27464.625000	-2.202301	-17.174727	-22.582596	-18.911810	-14.946112	-11.625960	-3.018095	8.376283	-7.599480	7.294280	1.159760	0.958982	-0.205322	0.172729	-1.000000	-1.000000	-1.000000	-1.000000	-1.000000	-1.000000	-1.000000	66.275862	0.000000	-1.000000	-1.000000	428088.000000	1772738253.660249
8212.365000	-28617.165000	-9680.445000	-3359.700000	-14392.755000	-7474.140000	22475.655000	27580.905000	-5.935570	-9.224280	-13.571398	-14.426019	-12.025782	-10.546882	-5.738317	-5.574224	-7.599480	7.294280	1.159760	0.958982	-0.205322	0.172729	-1.000000	-1.000000	-1.000000	-1.000000	-1.000000	-1.000000	-1.000000	66.275862	0.000000	-1.000000	-1.000000	428089.000000	1772738253.665905
8253.630000	-28593.090000	-9669.870000	-3357.450000	-14394.240000	-7483.590000	22471.560000	27585.585000	-5.996288	2.139084	-0.539144	-5.398636	-5.381007	-6.049487	-6.644576	-14.498850	-7.599480	7.294280	1.159760	0.958982	-0.205322	0.172729	-1.000000	-1.000000	-1.000000	-1.000000	-1.000000	-1.000000	-1.000000	66.275862	0.000000	-1.000000	-1.000000	428090.000000	1772738253.665912
8236.035000	-28596.870000	-9675.630000	-3352.545000	-14389.425000	-7475.490000	22464.270000	27542.655000	1.424710	14.050878	13.024354	6.068326	3.708572	1.344094	-3.824773	-11.006665	-5.646200	6.607580	-0.808780	0.957151	-0.208679	0.166809	-1.000000	-1.000000	-1.000000	-1.000000	-1.000000	-1.000000	-1.000000	66.275862	0.000000	-1.000000	-1.000000	428091.000000	1772738253.669853
8215.155000	-28592.955000	-9662.715000	-3331.440000	-14369.085000	-7451.190000	22466.700000	27503.325000	10.882373	20.762074	20.868464	15.006687	11.277758	8.140435	1.207750	-0.782707	-5.646200	6.607580	-0.808780	0.957151	-0.208679	0.166809	-1.000000	-1.000000	-1.000000	-1.000000	-1.000000	-1.000000	-1.000000	66.275862	0.000000	-1.000000	-1.000000	428092.000000	1772738253.669863
8190.855000	-28571.490000	-9634.815000	-3303.765000	-14338.845000	-7413.705000	22473.720000	27496.575000	13.493789	19.610749	20.018617	18.092458	14.379444	11.369875	5.072993	4.698613	-5.646200	6.607580	-0.808780	0.957151	-0.208679	0.166809	-1.000000	-1.000000	-1.000000	-1.000000	-1.000000	-1.000000	-1.000000	66.275862	0.000000	-1.000000	-1.000000	428093.000000	1772738253.672875
8214.480000	-28557.765000	-9617.445000	-3284.640000	-14320.170000	-7393.545000	22477.410000	27499.320000	6.562907	13.476835	13.366094	15.655225	13.062211	10.709947	5.635229	0.466001	-5.646200	6.607580	-0.808780	0.957151	-0.208679	0.166809	-1.000000	-1.000000	-1.000000	-1.000000	-1.000000	-1.000000	-1.000000	66.275862	0.000000	-1.000000	-1.000000	428094.000000	1772738253.672881
8228.205000	-28582.020000	-9641.565000	-3322.530000	-14360.265000	-7434.405000	22469.760000	27557.190000	-3.950487	5.282069	4.638902	8.752586	7.748242	6.435885	3.352695	-6.673330	-5.646200	6.607580	-0.808780	0.957151	-0.208679	0.166809	-1.000000	-1.000000	-1.000000	-1.000000	-1.000000	-1.000000	-1.000000	66.275862	0.000000	-1.000000	-1.000000	428095.000000	1772738253.676162
8175.015000	-28621.215000	-9678.690000	-3355.245000	-14383.350000	-7452.045000	22467.060000	27538.380000	-10.060023	-4.515327	-4.465729	-1.510724	-1.069181	-0.728127	0.432755	-5.487098	-5.646200	6.607580	-0.808780	0.957151	-0.208679	0.166809	-1.000000	-1.000000	-1.000000	-1.000000	-1.000000	-1.000000	-1.000000	66.275862	0.000000	-1.000000	-1.000000	428096.000000	1772738253.676169
8174.295000	-28620.180000	-9676.125000	-3343.545000	-14369.850000	-7447.095000	22475.835000	27527.760000	-10.419207	-14.416218	-12.068183	-11.411218	-9.757868	-7.276911	-1.014194	4.675820	-5.646200	6.607580	-0.808780	0.957151	-0.208679	0.166809	-1.000000	-1.000000	-1.000000	-1.000000	-1.000000	-1.000000	-1.000000	66.275862	0.000000	-1.000000	-1.000000	428097.000000	1772738253.680204
8229.150000	-28600.065000	-9673.650000	-3349.980000	-14382.720000	-7470.135000	22475.700000	27587.700000	-8.917991	-20.238344	-15.106063	-15.476733	-12.878377	-8.856978	-0.389064	12.672520	-5.646200	6.607580	-0.808780	0.957151	-0.208679	0.166809	-1.000000	-1.000000	-1.000000	-1.000000	-1.000000	-1.000000	-1.000000	66.275862	0.000000	-1.000000	-1.000000	428098.000000	1772738253.680212
8205.345000	-28604.430000	-9673.155000	-3374.145000	-14409.720000	-7492.455000	22461.075000	27551.295000	-7.294353	-18.616538	-12.062974	-12.084756	-9.355874	-5.500562	1.112539	11.168839	-5.646200	6.607580	-0.808780	0.957151	-0.208679	0.166809	-1.000000	-1.000000	-1.000000	-1.000000	-1.000000	-1.000000	-1.000000	66.275862	0.000000	-1.000000	-1.000000	428099.000000	1772738253.688591
8189.235000	-28593.315000	-9656.595000	-3356.595000	-14392.890000	-7470.315000	22461.930000	27536.085000	-4.599086	-10.344937	-4.864250	-5.170945	-3.467817	-1.363342	1.645951	3.418101	-5.646200	6.607580	-0.808780	0.957151	-0.208679	0.166809	-1.000000	-1.000000	-1.000000	-1.000000	-1.000000	-1.000000	-1.000000	66.275862	0.000000	-1.000000	-1.000000	428100.000000	1772738253.688599
8217.810000	-28592.145000	-9681.030000	-3337.830000	-14371.380000	-7443.630000	22468.725000	27555.525000	0.236855	0.770358	2.406570	0.945299	0.944831	0.691400	0.445949	-3.813829	-4.791640	7.935200	-2.212700	0.959470	-0.207336	0.164733	-1.000000	-1.000000	-1.000000	-1.000000	-1.000000	-1.000000	-1.000000	66.275862	0.000000	-1.000000	-1.000000	428101.000000	1772738253.688608
8209.935000	-28615.320000	-9663.480000	-3313.575000	-14347.575000	-7413.750000	22465.980000	27535.635000	7.215669	9.863151	5.815155	4.826893	3.329740	1.027115	-1.845951	-6.866205	-4.791640	7.935200	-2.212700	0.959470	-0.207336	0.164733	-1.000000	-1.000000	-1.000000	-1.000000	-1.000000	-1.000000	-1.000000	66.275862	0.000000	-1.000000	-1.000000	428102.000000	1772738253.688612
8192.655000	-28605.510000	-9643.365000	-3305.250000	-14338.935000	-7405.605000	22469.355000	27525.330000	12.838369	12.871484	4.822329	6.692260	4.563082	1.209815	-3.939458	-7.042601	-4.791640	7.935200	-2.212700	0.959470	-0.207336	0.164733	-1.000000	-1.000000	-1.000000	-1.000000	-1.000000	-1.000000	-1.000000	66.275862	0.000000	-1.000000	-1.000000	428103.000000	1772738253.692440
8176.140000	-28607.895000	-9655.425000	-3322.395000	-14358.555000	-7432.920000	22471.785000	27549.045000	12.472735	10.276540	3.065248	7.445254	5.596691	2.440540	-4.282424	-6.754073	-4.791640	7.935200	-2.212700	0.959470	-0.207336	0.164733	-1.000000	-1.000000	-1.000000	-1.000000	-1.000000	-1.000000	-1.000000	66.275862	0.000000	-1.000000	-1.000000	428104.000000	1772738253.692447
8204.355000	-28616.400000	-9671.940000	-3342.105000	-14379.030000	-7457.130000	22468.500000	27555.885000	6.985925	6.483343	3.623343	7.483813	6.281321	4.108246	-2.174352	-5.039218	-4.791640	7.935200	-2.212700	0.959470	-0.207336	0.164733	-1.000000	-1.000000	-1.000000	-1.000000	-1.000000	-1.000000	-1.000000	66.275862	0.000000	-1.000000	-1.000000	428105.000000	1772738253.696259
8250.705000	-28593.630000	-9666.405000	-3344.220000	-14386.365000	-7477.200000	22465.440000	27540.495000	1.535622	4.232465	5.430960	5.671393	4.952530	3.940326	0.980138	-1.304456	-4.791640	7.935200	-2.212700	0.959470	-0.207336	0.164733	-1.000000	-1.000000	-1.000000	-1.000000	-1.000000	-1.000000	-1.000000	66.275862	0.000000	-1.000000	-1.000000	428106.000000	1772738253.696268
8220.780000	-28598.850000	-9665.865000	-3342.870000	-14385.555000	-7480.125000	22463.595000	27551.565000	-1.851206	2.696239	5.617283	1.569019	1.245008	1.302790	3.053080	1.235969	-4.791640	7.935200	-2.212700	0.959470	-0.207336	0.164733	-1.000000	-1.000000	-1.000000	-1.000000	-1.000000	-1.000000	-1.000000	66.275862	0.000000	-1.000000	-1.000000	428107.000000	1772738253.707989
8204.445000	-28573.380000	-9650.295000	-3322.575000	-14364.090000	-7455.195000	22469.355000	27554.535000	-5.003362	0.413183	3.041338	-2.686831	-2.296496	-1.420537	3.516282	1.621936	-4.791640	7.935200	-2.212700	0.959470	-0.207336	0.164733	-1.000000	-1.000000	-1.000000	-1.000000	-1.000000	-1.000000	-1.000000	66.275862	0.000000	-1.000000	-1.000000	428108.000000	1772738253.707997
8235.360000	-28543.095000	-9668.385000	-3307.050000	-14340.060000	-7425.090000	22481.820000	27558.135000	-7.872395	-1.934871	-1.348987	-4.747783	-3.210051	-1.878140	3.188976	3.026654	-4.791640	7.935200	-2.212700	0.959470	-0.207336	0.164733	-1.000000	-1.000000	-1.000000	-1.000000	-1.000000	-1.000000	-1.000000	66.275862	0.000000	-1.000000	-1.000000	428109.000000	1772738253.708004
8224.920000	-28587.690000	-9701.280000	-3325.095000	-14344.605000	-7414.695000	22477.005000	27530.145000	-7.968257	-3.115613	-6.313664	-5.118506	-2.254686	-0.654656	2.429665	5.764099	-4.791640	7.935200	-2.212700	0.959470	-0.207336	0.164733	-1.000000	-1.000000	-1.000000	-1.000000	-1.000000	-1.000000	-1.000000	66.275862	0.000000	-1.000000	-1.000000	428110.000000	1772738253.708009
8235.585000	-28582.740000	-9620.685000	-3290.130000	-14323.815000	-7394.040000	22479.120000	27542.160000	-4.738758	-4.128911	-10.034851	-5.804515	-2.113271	-0.166277	0.843356	6.596468	-5.173140	8.072540	-4.318580	0.963132	-0.202392	0.163757	-1.000000	-1.000000	-1.000000	-1.000000	-1.000000	-1.000000	-1.000000	66.275862	0.000000	-1.000000	-1.000000	428111.000000	1772738253.708230
8244.135000	-28560.690000	-9563.580000	-3273.705000	-14318.640000	-7394.715000	22492.035000	27611.460000	0.263960	-5.563333	-8.177750	-5.921288	-3.144817	-0.981013	-1.258742	5.140567	-5.173140	8.072540	-4.318580	0.963132	-0.202392	0.163757	-1.000000	-1.000000	-1.000000	-1.000000	-1.000000	-1.000000	-1.000000	66.275862	0.000000	-1.000000	-1.000000	428112.000000	1772738253.708238
8201.070000	-28595.070000	-9618.750000	-3301.920000	-14341.770000	-7424.145000	22481.055000	27582.750000	4.845759	-5.701298	1.177448	-2.765183	-3.054086	-1.376619	-2.676318	3.874126	-5.173140	8.072540	-4.318580	0.963132	-0.202392	0.163757	-1.000000	-1.000000	-1.000000	-1.000000	-1.000000	-1.000000	-1.000000	66.275862	0.000000	-1.000000	-1.000000	428113.000000	1772738253.712283
8191.710000	-28614.420000	-9666.270000	-3344.985000	-14383.440000	-7477.155000	22456.260000	27523.305000	5.237891	-4.357562	10.799251	2.252475	-1.462343	-1.146214	-3.274163	1.694051	-5.173140	8.072540	-4.318580	0.963132	-0.202392	0.163757	-1.000000	-1.000000	-1.000000	-1.000000	-1.000000	-1.000000	-1.000000	66.275862	0.000000	-1.000000	-1.000000	428114.000000	1772738253.712291
8192.655000	-28603.620000	-9681.525000	-3362.490000	-14395.140000	-7489.080000	22452.345000	27511.020000	-0.912831	-3.461634	10.848493	4.180854	-0.777212	-2.040988	-4.014074	-5.071383	-5.173140	8.072540	-4.318580	0.963132	-0.202392	0.163757	-1.000000	-1.000000	-1.000000	-1.000000	-1.000000	-1.000000	-1.000000	66.275862	0.000000	-1.000000	-1.000000	428115.000000	1772738253.716313
8196.030000	-28595.925000	-9674.505000	-3359.385000	-14394.330000	-7475.265000	22459.905000	27508.455000	-9.122649	-3.100047	0.615736	1.207516	-1.953734	-3.853872	-4.511805	-14.538095	-5.173140	8.072540	-4.318580	0.963132	-0.202392	0.163757	-1.000000	-1.000000	-1.000000	-1.000000	-1.000000	-1.000000	-1.000000	66.275862	0.000000	-1.000000	-1.000000	428116.000000	1772738253.716321
8207.775000	-28615.815000	-9684.000000	-3365.820000	-14400.495000	-7470.630000	22457.610000	27519.570000	-11.211042	-2.118115	-11.614311	-3.712545	-3.547487	-4.492909	-3.299644	-18.991331	-5.173140	8.072540	-4.318580	0.963132	-0.202392	0.163757	-1.000000	-1.000000	-1.000000	-1.000000	-1.000000	-1.000000	-1.000000	66.275862	0.000000	-1.000000	-1.000000	428117.000000	1772738253.720290
8194.635000	-28621.440000	-9678.465000	-3353.265000	-14387.175000	-7454.115000	22451.400000	27528.570000	-4.752825	-0.817647	-16.785891	-6.641500	-4.125834	-3.304493	-0.528556	-13.091384	-5.173140	8.072540	-4.318580	0.963132	-0.202392	0.163757	-1.000000	-1.000000	-1.000000	-1.000000	-1.000000	-1.000000	-1.000000	66.275862	0.000000	-1.000000	-1.000000	428118.000000	1772738253.720296
8208.585000	-28595.925000	-9653.400000	-3325.815000	-14359.365000	-7422.480000	22457.745000	27534.060000	5.182431	1.319916	-11.256297	-4.956648	-2.459207	-0.783705	2.249800	1.234419	-5.173140	8.072540	-4.318580	0.963132	-0.202392	0.163757	-1.000000	-1.000000	-1.000000	-1.000000	-1.000000	-1.000000	-1.000000	66.275862	0.000000	-1.000000	-1.000000	428119.000000	1772738253.724280
8218.080000	-28584.855000	-9643.320000	-3315.420000	-14349.195000	-7421.355000	22464.315000	27539.505000	12.614031	5.859676	0.469832	1.180014	2.107968	2.778054	4.155665	16.025462	-5.173140	8.072540	-4.318580	0.963132	-0.202392	0.163757	-1.000000	-1.000000	-1.000000	-1.000000	-1.000000	-1.000000	-1.000000	66.275862	0.000000	-1.000000	-1.000000	428120.000000	1772738253.724287
8201.160000	-28593.405000	-9649.440000	-3321.180000	-14354.415000	-7434.180000	22473.000000	27541.080000	14.694982	11.189815	9.752976	8.318067	8.031082	6.505430	5.117566	22.141532	-6.470240	4.898460	-6.744920	0.959226	-0.198852	0.163330	-1.000000	-1.000000	-1.000000	-1.000000	-1.000000	-1.000000	-1.000000	66.275862	0.000000	-1.000000	-1.000000	428121.000000	1772738253.728577
8190.720000	-28606.545000	-9665.730000	-3340.890000	-14374.170000	-7460.865000	22462.425000	27530.910000	11.374398	13.396643	12.704907	12.661653	12.324490	8.939709	5.235308	16.774251	-6.470240	4.898460	-6.744920	0.959226	-0.198852	0.163330	-1.000000	-1.000000	-1.000000	-1.000000	-1.000000	-1.000000	-1.000000	66.275862	0.000000	-1.000000	-1.000000	428122.000000	1772738253.728585
8236.530000	-28573.020000	-9644.040000	-3323.115000	-14360.535000	-7458.930000	22465.305000	27536.805000	4.780588	10.843572	11.926494	12.948253	13.018384	9.341036	4.646722	5.840138	-6.470240	4.898460	-6.744920	0.959226	-0.198852	0.163330	-1.000000	-1.000000	-1.000000	-1.000000	-1.000000	-1.000000	-1.000000	66.275862	0.000000	-1.000000	-1.000000	428123.000000	1772738253.732306
8239.275000	-28547.370000	-9616.635000	-3292.695000	-14332.680000	-7429.365000	22485.285000	27541.440000	-1.442055	5.273668	10.820842	10.475589	10.480279	8.143580	3.602438	-2.910155	-6.470240	4.898460	-6.744920	0.959226	-0.198852	0.163330	-1.000000	-1.000000	-1.000000	-1.000000	-1.000000	-1.000000	-1.000000	66.275862	0.000000	-1.000000	-1.000000	428124.000000	1772738253.732313
8179.920000	-28566.495000	-9633.105000	-3306.420000	-14345.370000	-7435.755000	22474.260000	27504.045000	-5.541472	-0.888262	9.336779	6.467262	5.824338	5.484355	2.122734	-6.935133	-6.470240	4.898460	-6.744920	0.959226	-0.198852	0.163330	-1.000000	-1.000000	-1.000000	-1.000000	-1.000000	-1.000000	-1.000000	66.275862	0.000000	-1.000000	-1.000000	428125.000000	1772738253.736305
8179.155000	-28559.790000	-9624.195000	-3295.755000	-14335.065000	-7421.445000	22467.420000	27472.365000	-9.372229	-6.588069	5.091566	0.387559	-0.870629	0.425743	-0.479339	-9.067689	-6.470240	4.898460	-6.744920	0.959226	-0.198852	0.163330	-1.000000	-1.000000	-1.000000	-1.000000	-1.000000	-1.000000	-1.000000	66.275862	0.000000	-1.000000	-1.000000	428126.000000	1772738253.736312
8246.025000	-28559.385000	-9632.340000	-3308.490000	-14349.465000	-7423.380000	22467.645000	27559.575000	-12.362249	-10.735484	-2.410719	-7.800462	-9.179830	-6.941323	-4.287017	-10.714851	-6.470240	4.898460	-6.744920	0.959226	-0.198852	0.163330	-1.000000	-1.000000	-1.000000	-1.000000	-1.000000	-1.000000	-1.000000	66.275862	0.000000	-1.000000	-1.000000	428127.000000	1772738253.740166
8259.885000	-28576.125000	-9650.115000	-3326.355000	-14365.800000	-7440.165000	22459.770000	27586.125000	-9.701065	-12.294923	-11.500085	-16.353629	-17.294438	-14.528848	-7.791795	-7.874966	-6.470240	4.898460	-6.744920	0.959226	-0.198852	0.163330	-1.000000	-1.000000	-1.000000	-1.000000	-1.000000	-1.000000	-1.000000	66.275862	0.000000	-1.000000	-1.000000	428128.000000	1772738253.740174
8227.575000	-28572.210000	-9630.180000	-3309.570000	-14351.535000	-7430.265000	22468.320000	27551.070000	-1.080373	-11.708387	-19.524705	-22.054944	-22.019207	-18.901006	-9.255813	0.420240	-6.470240	4.898460	-6.744920	0.959226	-0.198852	0.163330	-1.000000	-1.000000	-1.000000	-1.000000	-1.000000	-1.000000	-1.000000	66.275862	0.000000	-1.000000	-1.000000	428129.000000	1772738253.744607
8182.305000	-28612.395000	-9658.845000	-3327.030000	-14359.455000	-7437.960000	22472.910000	27550.800000	6.666341	-9.399444	-21.896940	-20.549605	-19.226678	-16.082892	-7.593611	7.409577	-6.470240	4.898460	-6.744920	0.959226	-0.198852	0.163330	-1.000000	-1.000000	-1.000000	-1.000000	-1.000000	-1.000000	-1.000000	66.275862	0.000000	-1.000000	-1.000000	428130.000000	1772738253.744614
8191.620000	-28612.305000	-9669.465000	-3335.985000	-14370.030000	-7460.955000	22468.770000	27555.795000	7.431380	-5.463088	-15.532079	-10.328900	-7.869491	-5.318406	-2.703341	8.058134	-6.393940	3.815000	-6.256600	0.962156	-0.199035	0.162109	-1.000000	-1.000000	-1.000000	-1.000000	-1.000000	-1.000000	-1.000000	66.275862	0.000000	-1.000000	-1.000000	428131.000000	1772738253.752419
8203.005000	-28599.210000	-9671.220000	-3340.800000	-14370.975000	-7464.285000	22463.820000	27548.235000	1.563343	-0.865583	-3.335315	3.902294	6.865119	8.011134	3.400423	3.940220	-6.393940	3.815000	-6.256600	0.962156	-0.199035	0.162109	-1.000000	-1.000000	-1.000000	-1.000000	-1.000000	-1.000000	-1.000000	66.275862	0.000000	-1.000000	-1.000000	428132.000000	1772738253.752429
8240.895000	-28580.265000	-9666.765000	-3339.630000	-14370.840000	-7455.600000	22463.595000	27551.070000	-4.555648	3.595642	8.300809	14.615966	17.137326	16.241183	7.247331	-1.229428	-6.393940	3.815000	-6.256600	0.962156	-0.199035	0.162109	-1.000000	-1.000000	-1.000000	-1.000000	-1.000000	-1.000000	-1.000000	66.275862	0.000000	-1.000000	-1.000000	428133.000000	1772738253.752514
8251.470000	-28572.660000	-9653.355000	-3323.880000	-14357.430000	-7437.420000	22473.000000	27543.015000	-3.610985	8.166580	15.169477	17.770121	18.875785	16.021444	7.241327	-4.158854	-6.393940	3.815000	-6.256600	0.962156	-0.199035	0.162109	-1.000000	-1.000000	-1.000000	-1.000000	-1.000000	-1.000000	-1.000000	66.275862	0.000000	-1.000000	-1.000000	428134.000000	1772738253.752520
8259.210000	-28552.005000	-9626.355000	-3296.565000	-14332.590000	-7406.055000	22482.270000	27547.920000	4.589229	12.635879	17.200959	14.979312	13.981553	10.060955	5.051906	-3.616270	-6.393940	3.815000	-6.256600	0.962156	-0.199035	0.162109	-1.000000	-1.000000	-1.000000	-1.000000	-1.000000	-1.000000	-1.000000	66.275862	0.000000	-1.000000	-1.000000	428135.000000	1772738253.756227
8230.545000	-28544.265000	-9596.250000	-3265.560000	-14305.365000	-7380.315000	22491.585000	27547.695000	11.257444	15.284684	16.262383	10.527829	7.437624	3.602802	3.074303	-2.323638	-6.393940	3.815000	-6.256600	0.962156	-0.199035	0.162109	-1.000000	-1.000000	-1.000000	-1.000000	-1.000000	-1.000000	-1.000000	66.275862	0.000000	-1.000000	-1.000000	428136.000000	1772738253.756236
8205.705000	-28568.565000	-9611.100000	-3275.595000	-14310.180000	-7388.640000	22498.110000	27562.860000	7.952598	13.642493	13.046711	6.980380	2.823408	-0.007524	2.049729	-3.274244	-6.393940	3.815000	-6.256600	0.962156	-0.199035	0.162109	-1.000000	-1.000000	-1.000000	-1.000000	-1.000000	-1.000000	-1.000000	66.275862	0.000000	-1.000000	-1.000000	428137.000000	1772738253.760198
8151.930000	-28620.810000	-9673.470000	-3336.345000	-14365.845000	-7444.620000	22475.025000	27528.480000	-4.039986	5.957625	5.781697	2.601410	-0.811645	-1.980448	0.800562	-5.141831	-6.393940	3.815000	-6.256600	0.962156	-0.199035	0.162109	-1.000000	-1.000000	-1.000000	-1.000000	-1.000000	-1.000000	-1.000000	66.275862	0.000000	-1.000000	-1.000000	428138.000000	1772738253.760206
8128.035000	-28619.055000	-9686.295000	-3355.920000	-14389.380000	-7475.940000	22459.410000	27507.555000	-15.914439	-5.913882	-6.067986	-5.357768	-6.545422	-5.725917	-2.329654	-5.270131	-6.393940	3.815000	-6.256600	0.962156	-0.199035	0.162109	-1.000000	-1.000000	-1.000000	-1.000000	-1.000000	-1.000000	-1.000000	66.275862	0.000000	-1.000000	-1.000000	428139.000000	1772738253.767401
8197.470000	-28584.720000	-9666.135000	-3335.985000	-14372.685000	-7467.255000	22468.140000	27516.375000	-19.334526	-15.542084	-17.306836	-14.389910	-13.327881	-10.826151	-6.665134	-3.230808	-6.393940	3.815000	-6.256600	0.962156	-0.199035	0.162109	-1.000000	-1.000000	-1.000000	-1.000000	-1.000000	-1.000000	-1.000000	66.275862	0.000000	-1.000000	-1.000000	428140.000000	1772738253.767411
8240.130000	-28572.840000	-9647.145000	-3311.190000	-14347.575000	-7435.530000	22483.170000	27521.460000	-10.660733	-17.034419	-20.490905	-17.740168	-15.651777	-12.441105	-8.797801	0.660501	-3.570840	5.127360	-7.050120	0.969968	-0.200805	0.164367	-1.000000	-1.000000	-1.000000	-1.000000	-1.000000	-1.000000	-1.000000	66.275862	0.000000	-1.000000	-1.000000	428141.000000	1772738253.769151
8266.545000	-28570.185000	-9637.020000	-3307.905000	-14347.305000	-7431.570000	22474.395000	27567.945000	6.784203	-10.405733	-13.311602	-11.939548	-10.155169	-7.488003	-6.378889	6.493339	-3.570840	5.127360	-7.050120	0.969968	-0.200805	0.164367	-1.000000	-1.000000	-1.000000	-1.000000	-1.000000	-1.000000	-1.000000	66.275862	0.000000	-1.000000	-1.000000	428142.000000	1772738253.769160
8264.880000	-28570.455000	-9642.015000	-3320.640000	-14358.195000	-7434.315000	22459.410000	27578.070000	23.088696	-0.746279	-0.707926	-0.989330	-0.115412	1.083054	-1.196732	13.533377	-3.570840	5.127360	-7.050120	0.969968	-0.200805	0.164367	-1.000000	-1.000000	-1.000000	-1.000000	-1.000000	-1.000000	-1.000000	66.275862	0.000000	-1.000000	-1.000000	428143.000000	1772738253.772149
8245.620000	-28574.730000	-9646.110000	-3316.095000	-14347.485000	-7415.505000	22471.425000	27554.445000	27.817591	6.165711	9.011945	7.243198	7.545758	7.198576	2.928827	17.677966	-3.570840	5.127360	-7.050120	0.969968	-0.200805	0.164367	-1.000000	-1.000000	-1.000000	-1.000000	-1.000000	-1.000000	-1.000000	66.275862	0.000000	-1.000000	-1.000000	428144.000000	1772738253.772157
8219.655000	-28599.705000	-9655.290000	-3320.370000	-14349.600000	-7421.445000	22473.270000	27545.085000	17.454128	7.297811	10.399372	8.247520	8.879908	7.741229	4.286625	13.129834	-3.570840	5.127360	-7.050120	0.969968	-0.200805	0.164367	-1.000000	-1.000000	-1.000000	-1.000000	-1.000000	-1.000000	-1.000000	66.275862	0.000000	-1.000000	-1.000000	428145.000000	1772738253.776351
8223.750000	-28612.440000	-9655.650000	-3321.360000	-14351.895000	-7432.695000	22473.090000	27544.815000	-1.350978	3.854230	5.034799	4.185164	5.580285	4.480935	3.756459	-0.021909	-3.570840	5.127360	-7.050120	0.969968	-0.200805	0.164367	-1.000000	-1.000000	-1.000000	-1.000000	-1.000000	-1.000000	-1.000000	66.137931	0.000000	-1.000000	-1.000000	428146.000000	1772738253.776360
8207.190000	-28609.470000	-9657.135000	-3330.180000	-14360.760000	-7448.670000	22470.930000	27545.175000	-16.284342	0.433420	-0.131464	0.983250	2.427467	1.522440	2.961056	-13.541221	-3.570840	5.127360	-7.050120	0.969968	-0.200805	0.164367	-1.000000	-1.000000	-1.000000	-1.000000	-1.000000	-1.000000	-1.000000	66.137931	0.000000	-1.000000	-1.000000	428147.000000	1772738253.782306
8194.680000	-28581.885000	-9652.005000	-3350.385000	-14379.705000	-7473.375000	22466.115000	27546.255000	-20.090132	0.789778	0.033747	1.863154	2.245159	1.296490	2.881951	-18.719187	-3.570840	5.127360	-7.050120	0.969968	-0.200805	0.164367	-1.000000	-1.000000	-1.000000	-1.000000	-1.000000	-1.000000	-1.000000	66.137931	0.000000	-1.000000	-1.000000	428148.000000	1772738253.782315
8225.685000	-28545.795000	-9635.805000	-3342.330000	-14373.495000	-7467.795000	22470.705000	27541.620000	-15.692312	4.199648	3.899396	4.067970	3.042701	2.151373	2.903850	-14.008879	-3.570840	5.127360	-7.050120	0.969968	-0.200805	0.164367	-1.000000	-1.000000	-1.000000	-1.000000	-1.000000	-1.000000	-1.000000	66.137931	0.000000	-1.000000	-1.000000	428149.000000	1772738253.784218
8219.880000	-28566.990000	-9670.590000	-3328.065000	-14356.980000	-7444.080000	22478.535000	27556.380000	-9.629464	6.807667	5.840402	3.617036	1.745608	1.282509	1.838383	-4.504236	-3.570840	5.127360	-7.050120	0.969968	-0.200805	0.164367	-1.000000	-1.000000	-1.000000	-1.000000	-1.000000	-1.000000	-1.000000	66.137931	0.000000	-1.000000	-1.000000	428150.000000	1772738253.784226
8218.845000	-28602.765000	-9668.745000	-3311.820000	-14342.715000	-7428.510000	22476.285000	27553.770000	-5.159329	4.701141	2.107599	0.683413	-1.121889	-1.007007	-0.073452	3.452740	-0.122080	2.899400	-7.797860	0.969236	-0.202758	0.165954	-1.000000	-1.000000	-1.000000	-1.000000	-1.000000	-1.000000	-1.000000	66.137931	0.000000	-1.000000	-1.000000	428151.000000	1772738253.788223
8225.100000	-28589.625000	-9638.820000	-3295.935000	-14325.615000	-7405.515000	22478.220000	27536.400000	-1.753645	-2.769057	-5.111542	-1.693110	-2.769559	-2.317057	-1.616774	6.158587	-0.122080	2.899400	-7.797860	0.969236	-0.202758	0.165954	-1.000000	-1.000000	-1.000000	-1.000000	-1.000000	-1.000000	-1.000000	66.137931	0.000000	-1.000000	-1.000000	428152.000000	1772738253.788233
8221.005000	-28560.285000	-9616.005000	-3277.440000	-14304.780000	-7387.740000	22486.365000	27537.795000	2.694250	-10.391578	-9.293625	-1.616339	-1.873509	-1.525851	-2.290234	3.989783	-0.122080	2.899400	-7.797860	0.969236	-0.202758	0.165954	-1.000000	-1.000000	-1.000000	-1.000000	-1.000000	-1.000000	-1.000000	66.137931	0.000000	-1.000000	-1.000000	428153.000000	1772738253.792172
8239.770000	-28534.815000	-9610.245000	-3278.520000	-14309.190000	-7398.405000	22487.220000	27553.905000	9.107351	-10.681628	-6.382606	0.274766	0.498100	0.507217	-2.349587	0.694194	-0.122080	2.899400	-7.797860	0.969236	-0.202758	0.165954	-1.000000	-1.000000	-1.000000	-1.000000	-1.000000	-1.000000	-1.000000	66.137931	0.000000	-1.000000	-1.000000	428154.000000	1772738253.792178
8225.595000	-28568.745000	-9669.870000	-3323.565000	-14349.825000	-7441.290000	22471.515000	27526.860000	15.678525	-2.081766	0.818228	1.589733	1.883277	1.796469	-2.172411	-0.274919	-0.122080	2.899400	-7.797860	0.969236	-0.202758	0.165954	-1.000000	-1.000000	-1.000000	-1.000000	-1.000000	-1.000000	-1.000000	66.137931	0.000000	-1.000000	-1.000000	428155.000000	1772738253.796184
8231.625000	-28563.345000	-9701.955000	-3330.945000	-14355.405000	-7457.625000	22466.205000	27509.355000	18.770209	8.282836	5.100686	0.124725	0.386685	0.692813	-2.073900	0.802721	-0.122080	2.899400	-7.797860	0.969236	-0.202758	0.165954	-1.000000	-1.000000	-1.000000	-1.000000	-1.000000	-1.000000	-1.000000	66.137931	0.000000	-1.000000	-1.000000	428156.000000	1772738253.796194
8193.960000	-28583.730000	-9682.245000	-3326.400000	-14351.445000	-7452.360000	22473.405000	27523.710000	14.754472	11.159948	2.373941	-3.507822	-3.039308	-2.101757	-1.897676	1.698149	-0.122080	2.899400	-7.797860	0.969236	-0.202758	0.165954	-1.000000	-1.000000	-1.000000	-1.000000	-1.000000	-1.000000	-1.000000	66.137931	0.000000	-1.000000	-1.000000	428157.000000	1772738253.800177
8134.290000	-28604.520000	-9616.095000	-3306.870000	-14342.130000	-7436.700000	22476.240000	27511.695000	1.554219	3.236057	-3.044424	-6.278605	-5.598807	-4.212427	-1.174984	1.657558	-0.122080	2.899400	-7.797860	0.969236	-0.202758	0.165954	-1.000000	-1.000000	-1.000000	-1.000000	-1.000000	-1.000000	-1.000000	66.137931	0.000000	-1.000000	-1.000000	428158.000000	1772738253.800186
8155.395000	-28584.855000	-9606.015000	-3290.535000	-14327.010000	-7417.080000	22483.395000	27512.595000	-17.179618	-9.527089	-3.006110	-5.880231	-5.571204	-4.190114	0.166858	0.743740	-0.122080	2.899400	-7.797860	0.969236	-0.202758	0.165954	-1.000000	-1.000000	-1.000000	-1.000000	-1.000000	-1.000000	-1.000000	66.137931	0.000000	-1.000000	-1.000000	428159.000000	1772738253.807707
8226.585000	-28555.830000	-9605.115000	-3272.895000	-14305.680000	-7385.895000	22500.225000	27547.245000	-29.402907	-15.850150	3.963200	-2.325072	-2.872470	-1.967899	2.051317	-0.366554	-0.122080	2.899400	-7.797860	0.969236	-0.202758	0.165954	-1.000000	-1.000000	-1.000000	-1.000000	-1.000000	-1.000000	-1.000000	66.137931	0.000000	-1.000000	-1.000000	428160.000000	1772738253.807715
8296.560000	-28535.715000	-9611.055000	-3283.155000	-14314.860000	-7389.405000	22500.585000	27591.255000	-23.078812	-9.690305	10.402427	2.088234	1.037802	1.294402	4.116599	1.013041	2.731540	1.693860	-6.760180	0.969846	-0.199768	0.167419	-1.000000	-1.000000	-1.000000	-1.000000	-1.000000	-1.000000	-1.000000	66.137931	0.000000	-1.000000	-1.000000	428161.000000	1772738253.811387
8322.345000	-28510.245000	-9586.710000	-3261.420000	-14297.580000	-7384.770000	22501.665000	27610.515000	1.141271	4.248849	9.290155	4.433893	3.662413	3.349632	4.950882	6.272882	2.731540	1.693860	-6.760180	0.969846	-0.199768	0.167419	-1.000000	-1.000000	-1.000000	-1.000000	-1.000000	-1.000000	-1.000000	66.137931	0.000000	-1.000000	-1.000000	428162.000000	1772738253.811392
8287.335000	-28506.195000	-9577.710000	-3255.930000	-14298.840000	-7394.130000	22496.400000	27547.650000	27.734397	16.453216	2.010778	4.468126	4.292018	3.320186	3.347166	10.903465	2.731540	1.693860	-6.760180	0.969846	-0.199768	0.167419	-1.000000	-1.000000	-1.000000	-1.000000	-1.000000	-1.000000	-1.000000	66.137931	0.000000	-1.000000	-1.000000	428163.000000	1772738253.812315
8235.135000	-28543.230000	-9610.155000	-3285.900000	-14328.000000	-7428.645000	22486.230000	27514.620000	37.642255	20.004997	-4.615932	4.241536	4.307995	2.507046	0.004675	7.922046	2.731540	1.693860	-6.760180	0.969846	-0.199768	0.167419	-1.000000	-1.000000	-1.000000	-1.000000	-1.000000	-1.000000	-1.000000	66.137931	0.000000	-1.000000	-1.000000	428164.000000	1772738253.812321
8215.425000	-28580.985000	-9647.955000	-3311.415000	-14342.670000	-7441.020000	22481.460000	27539.325000	23.376738	12.351714	-7.210513	3.709480	3.755817	1.576755	-3.312194	-3.050546	2.731540	1.693860	-6.760180	0.969846	-0.199768	0.167419	-1.000000	-1.000000	-1.000000	-1.000000	-1.000000	-1.000000	-1.000000	66.137931	0.000000	-1.000000	-1.000000	428165.000000	1772738253.816306
8196.390000	-28602.720000	-9681.930000	-3349.215000	-14380.695000	-7468.065000	22466.250000	27523.035000	-5.361690	-3.801065	-8.964201	0.187367	0.753552	-0.589548	-5.587393	-14.442509	2.731540	1.693860	-6.760180	0.969846	-0.199768	0.167419	-1.000000	-1.000000	-1.000000	-1.000000	-1.000000	-1.000000	-1.000000	66.137931	0.000000	-1.000000	-1.000000	428166.000000	1772738253.816315
8192.925000	-28616.805000	-9696.195000	-3363.525000	-14393.295000	-7470.945000	22458.645000	27551.070000	-30.008337	-19.961458	-13.514068	-7.384515	-5.493273	-4.908211	-6.783585	-18.587113	2.731540	1.693860	-6.760180	0.969846	-0.199768	0.167419	-1.000000	-1.000000	-1.000000	-1.000000	-1.000000	-1.000000	-1.000000	66.137931	0.000000	-1.000000	-1.000000	428167.000000	1772738253.820206
8218.485000	-28598.895000	-9677.295000	-3343.095000	-14373.225000	-7447.230000	22461.120000	27559.215000	-37.376318	-26.731300	-18.066579	-15.204701	-12.066358	-9.590780	-6.697894	-13.298038	2.731540	1.693860	-6.760180	0.969846	-0.199768	0.167419	-1.000000	-1.000000	-1.000000	-1.000000	-1.000000	-1.000000	-1.000000	66.137931	0.000000	-1.000000	-1.000000	428168.000000	1772738253.820236
8231.265000	-28577.250000	-9644.220000	-3305.925000	-14335.155000	-7406.685000	22473.180000	27548.955000	-27.342393	-20.332069	-15.214704	-16.307075	-13.237509	-10.297360	-4.582669	-2.686722	2.731540	1.693860	-6.760180	0.969846	-0.199768	0.167419	-1.000000	-1.000000	-1.000000	-1.000000	-1.000000	-1.000000	-1.000000	66.137931	0.000000	-1.000000	-1.000000	428169.000000	1772738253.828344
8238.060000	-28564.470000	-9629.820000	-3291.480000	-14320.890000	-7398.630000	22476.105000	27540.090000	-9.219156	-4.568976	-1.799168	-6.895830	-5.607645	-4.162443	-0.209561	5.577294	2.731540	1.693860	-6.760180	0.969846	-0.199768	0.167419	-1.000000	-1.000000	-1.000000	-1.000000	-1.000000	-1.000000	-1.000000	66.137931	0.000000	-1.000000	-1.000000	428170.000000	1772738253.828352
8235.900000	-28540.530000	-9612.360000	-3277.485000	-14310.090000	-7398.180000	22474.305000	27527.445000	7.258497	12.280575	16.314672	8.894965	7.592265	6.504080	5.118712	7.009992	3.845520	3.174080	-6.760180	0.973020	-0.196044	0.164611	-1.000000	-1.000000	-1.000000	-1.000000	-1.000000	-1.000000	-1.000000	66.137931	0.000000	-1.000000	-1.000000	428171.000000	1772738253.828361
8248.095000	-28527.615000	-9615.195000	-3287.295000	-14323.680000	-7421.400000	22470.525000	27544.860000	18.074301	23.323910	29.375631	22.090577	18.771091	15.652219	9.123596	4.783832	3.845520	3.174080	-6.760180	0.973020	-0.196044	0.164611	-1.000000	-1.000000	-1.000000	-1.000000	-1.000000	-1.000000	-1.000000	66.137931	0.000000	-1.000000	-1.000000	428172.000000	1772738253.828365
8256.960000	-28556.370000	-9648.540000	-3318.930000	-14356.215000	-7461.675000	22464.405000	27567.495000	24.072455	25.857920	31.242082	25.703355	21.643029	17.906375	10.094427	5.335941	3.845520	3.174080	-6.760180	0.973020	-0.196044	0.164611	-1.000000	-1.000000	-1.000000	-1.000000	-1.000000	-1.000000	-1.000000	66.137931	0.000000	-1.000000	-1.000000	428173.000000	1772738253.832220
8255.295000	-28561.140000	-9639.270000	-3314.385000	-14355.585000	-7459.290000	22464.585000	27553.500000	25.819911	19.941389	21.754688	18.440865	14.719786	11.747800	7.728815	9.547031	3.845520	3.174080	-6.760180	0.973020	-0.196044	0.164611	-1.000000	-1.000000	-1.000000	-1.000000	-1.000000	-1.000000	-1.000000	66.137931	0.000000	-1.000000	-1.000000	428174.000000	1772738253.832228
8245.440000	-28556.370000	-9619.380000	-3290.355000	-14326.740000	-7418.745000	22484.790000	27563.535000	21.792959	8.252291	6.043525	5.242596	2.628071	1.280937	3.501272	12.009340	3.845520	3.174080	-6.760180	0.973020	-0.196044	0.164611	-1.000000	-1.000000	-1.000000	-1.000000	-1.000000	-1.000000	-1.000000	66.137931	0.000000	-1.000000	-1.000000	428175.000000	1772738253.836178
8196.570000	-28600.965000	-9658.980000	-3317.445000	-14338.890000	-7412.805000	22492.170000	27557.145000	10.414525	-4.853291	-9.160654	-6.916147	-7.462744	-6.672532	-0.063660	8.261604	3.845520	3.174080	-6.760180	0.973020	-0.196044	0.164611	-1.000000	-1.000000	-1.000000	-1.000000	-1.000000	-1.000000	-1.000000	66.137931	0.000000	-1.000000	-1.000000	428176.000000	1772738253.836188
8170.245000	-28605.105000	-9665.145000	-3324.690000	-14344.830000	-7414.065000	22477.365000	27510.930000	-7.957596	-16.525045	-20.469683	-15.292055	-12.837588	-9.647288	-2.143796	-1.690549	3.845520	3.174080	-6.760180	0.973020	-0.196044	0.164611	-1.000000	-1.000000	-1.000000	-1.000000	-1.000000	-1.000000	-1.000000	66.137931	0.000000	-1.000000	-1.000000	428177.000000	1772738253.840347
8159.130000	-28583.550000	-9634.005000	-3300.390000	-14324.580000	-7400.070000	22476.240000	27515.025000	-28.119094	-24.281134	-26.481062	-20.110074	-15.067942	-10.190904	-4.287462	-14.004889	3.845520	3.174080	-6.760180	0.973020	-0.196044	0.164611	-1.000000	-1.000000	-1.000000	-1.000000	-1.000000	-1.000000	-1.000000	66.137931	0.000000	-1.000000	-1.000000	428178.000000	1772738253.840369
8161.830000	-28597.770000	-9646.605000	-3306.420000	-14329.125000	-7408.890000	22474.305000	27509.670000	-39.960683	-24.729738	-25.056086	-20.159857	-14.725465	-10.063472	-7.160872	-21.921160	3.845520	3.174080	-6.760180	0.973020	-0.196044	0.164611	-1.000000	-1.000000	-1.000000	-1.000000	-1.000000	-1.000000	-1.000000	66.137931	0.000000	-1.000000	-1.000000	428179.000000	1772738253.844338
8227.935000	-28594.845000	-9659.610000	-3312.765000	-14339.745000	-7425.045000	22474.080000	27537.255000	-34.351903	-17.214759	-16.353387	-14.436788	-11.111781	-8.491932	-8.943749	-19.352739	3.845520	3.174080	-6.760180	0.973020	-0.196044	0.164611	-1.000000	-1.000000	-1.000000	-1.000000	-1.000000	-1.000000	-1.000000	66.137931	0.000000	-1.000000	-1.000000	428180.000000	1772738253.844345
8265.195000	-28561.725000	-9645.930000	-3313.440000	-14348.115000	-7447.545000	22467.960000	27546.480000	-10.092791	-4.161717	-3.496386	-4.227798	-4.344103	-4.478132	-7.592447	-6.040813	1.876980	2.823100	-5.951400	0.974668	-0.195678	0.164001	-1.000000	-1.000000	-1.000000	-1.000000	-1.000000	-1.000000	-1.000000	66.137931	0.000000	-1.000000	-1.000000	428181.000000	1772738253.848597
8261.190000	-28536.345000	-9634.995000	-3306.825000	-14344.245000	-7445.565000	22466.430000	27541.125000	22.140398	11.761100	10.513058	7.870943	4.416316	1.791700	-3.147479	10.725284	1.876980	2.823100	-5.951400	0.974668	-0.195678	0.164001	-1.000000	-1.000000	-1.000000	-1.000000	-1.000000	-1.000000	-1.000000	66.137931	0.000000	-1.000000	-1.000000	428182.000000	1772738253.848606
8257.320000	-28557.855000	-9648.990000	-3308.805000	-14338.530000	-7429.815000	22470.165000	27543.780000	44.666207	25.852410	21.629501	17.815925	12.509829	8.347904	2.287704	21.248929	1.876980	2.823100	-5.951400	0.974668	-0.195678	0.164001	-1.000000	-1.000000	-1.000000	-1.000000	-1.000000	-1.000000	-1.000000	66.137931	0.000000	-1.000000	-1.000000	428183.000000	1772738253.852323
8224.695000	-28568.070000	-9646.245000	-3306.825000	-14338.125000	-7426.305000	22474.305000	27530.550000	45.358480	30.738465	24.477225	20.939074	16.151574	11.811275	6.084895	20.545675	1.876980	2.823100	-5.951400	0.974668	-0.195678	0.164001	-1.000000	-1.000000	-1.000000	-1.000000	-1.000000	-1.000000	-1.000000	66.137931	0.000000	-1.000000	-1.000000	428184.000000	1772738253.852331
8223.615000	-28565.235000	-9626.490000	-3295.350000	-14326.695000	-7405.515000	22478.265000	27545.310000	25.383065	22.900563	18.021957	15.930481	13.393783	10.024810	6.836856	10.670708	1.876980	2.823100	-5.951400	0.974668	-0.195678	0.164001	-1.000000	-1.000000	-1.000000	-1.000000	-1.000000	-1.000000	-1.000000	66.137931	0.000000	-1.000000	-1.000000	428185.000000	1772738253.856171
8207.820000	-28574.640000	-9625.005000	-3289.230000	-14315.895000	-7389.180000	22484.025000	27547.470000	-3.445411	6.243636	6.808361	6.035592	6.025150	4.421185	5.217112	-1.139882	1.876980	2.823100	-5.951400	0.974668	-0.195678	0.164001	-1.000000	-1.000000	-1.000000	-1.000000	-1.000000	-1.000000	-1.000000	66.137931	0.000000	-1.000000	-1.000000	428186.000000	1772738253.856190
8206.155000	-28575.990000	-9624.780000	-3286.530000	-14316.390000	-7397.820000	22484.070000	27536.130000	-27.140571	-11.934557	-4.532968	-4.396047	-2.401672	-1.660230	2.891336	-8.360576	1.876980	2.823100	-5.951400	0.974668	-0.195678	0.164001	-1.000000	-1.000000	-1.000000	-1.000000	-1.000000	-1.000000	-1.000000	66.137931	0.000000	-1.000000	-1.000000	428187.000000	1772738253.860271
8216.640000	-28571.490000	-9634.590000	-3296.160000	-14318.865000	-7408.260000	22477.680000	27510.930000	-36.944769	-24.461540	-13.166704	-12.104770	-8.826947	-5.893119	0.762971	-10.295287	1.876980	2.823100	-5.951400	0.974668	-0.195678	0.164001	-1.000000	-1.000000	-1.000000	-1.000000	-1.000000	-1.000000	-1.000000	66.137931	0.000000	-1.000000	-1.000000	428188.000000	1772738253.860280
8221.005000	-28542.465000	-9622.620000	-3302.730000	-14328.945000	-7433.100000	22467.285000	27511.560000	-32.199714	-26.234509	-16.540523	-14.909200	-11.106108	-7.277711	-1.208131	-9.959763	1.876980	2.823100	-5.951400	0.974668	-0.195678	0.164001	-1.000000	-1.000000	-1.000000	-1.000000	-1.000000	-1.000000	-1.000000	66.137931	0.000000	-1.000000	-1.000000	428189.000000	1772738253.864529
8221.635000	-28537.065000	-9608.760000	-3313.215000	-14343.885000	-7450.560000	22463.280000	27545.580000	-18.425819	-17.157027	-13.233991	-12.320859	-8.834264	-5.831555	-2.993305	-8.707252	1.876980	2.823100	-5.951400	0.974668	-0.195678	0.164001	-1.000000	-1.000000	-1.000000	-1.000000	-1.000000	-1.000000	-1.000000	66.137931	0.000000	-1.000000	-1.000000	428190.000000	1772738253.864537
8228.295000	-28552.815000	-9628.470000	-3310.695000	-14336.820000	-7434.540000	22470.255000	27548.730000	-2.181171	-2.943950	-5.202907	-6.099937	-3.914844	-2.685642	-3.932813	-4.996297	-0.701960	2.441600	-5.081580	0.972471	-0.192260	0.168335	-1.000000	-1.000000	-1.000000	-1.000000	-1.000000	-1.000000	-1.000000	66.137931	0.000000	-1.000000	-1.000000	428191.000000	1772738253.868190
8234.685000	-28581.300000	-9660.870000	-3294.945000	-14320.620000	-7415.235000	22473.000000	27550.440000	12.192982	8.601528	2.237415	0.956268	1.105243	0.698782	-3.389718	1.529086	-0.701960	2.441600	-5.081580	0.972471	-0.192260	0.168335	-1.000000	-1.000000	-1.000000	-1.000000	-1.000000	-1.000000	-1.000000	66.137931	0.000000	-1.000000	-1.000000	428192.000000	1772738253.868194
8216.505000	-28586.970000	-9644.355000	-3285.540000	-14303.340000	-7390.620000	22479.885000	27538.245000	21.832708	12.827508	4.777605	6.737896	4.886579	3.454123	-1.616195	7.641459	-0.701960	2.441600	-5.081580	0.972471	-0.192260	0.168335	-1.000000	-1.000000	-1.000000	-1.000000	-1.000000	-1.000000	-1.000000	66.137931	0.000000	-1.000000	-1.000000	428193.000000	1772738253.873734
8231.220000	-28552.905000	-9613.845000	-3268.755000	-14287.095000	-7370.460000	22487.220000	27548.910000	24.402407	10.704613	3.374539	9.941758	6.991450	5.146482	0.575689	9.707684	-0.701960	2.441600	-5.081580	0.972471	-0.192260	0.168335	-1.000000	-1.000000	-1.000000	-1.000000	-1.000000	-1.000000	-1.000000	66.137931	0.000000	-1.000000	-1.000000	428194.000000	1772738253.873742
8230.905000	-28558.260000	-9616.500000	-3276.360000	-14297.085000	-7387.605000	22480.290000	27568.260000	19.561561	6.584833	1.905540	9.525038	6.662090	4.936759	2.299662	7.511492	-0.701960	2.441600	-5.081580	0.972471	-0.192260	0.168335	-1.000000	-1.000000	-1.000000	-1.000000	-1.000000	-1.000000	-1.000000	66.137931	0.000000	-1.000000	-1.000000	428195.000000	1772738253.876235
8198.370000	-28571.445000	-9634.365000	-3296.025000	-14314.995000	-7408.080000	22471.920000	27538.740000	9.180824	3.196499	1.893941	5.083175	3.070102	1.941548	2.604261	3.543917	-0.701960	2.441600	-5.081580	0.972471	-0.192260	0.168335	-1.000000	-1.000000	-1.000000	-1.000000	-1.000000	-1.000000	-1.000000	66.137931	0.000000	-1.000000	-1.000000	428196.000000	1772738253.876242
8233.605000	-28533.195000	-9612.315000	-3279.015000	-14300.010000	-7403.175000	22483.395000	27532.395000	-3.781114	0.565185	2.421326	-1.571221	-2.530067	-2.612945	1.492629	-0.457484	-0.701960	2.441600	-5.081580	0.972471	-0.192260	0.168335	-1.000000	-1.000000	-1.000000	-1.000000	-1.000000	-1.000000	-1.000000	66.137931	0.000000	-1.000000	-1.000000	428197.000000	1772738253.881552
8260.020000	-28504.845000	-9594.990000	-3267.855000	-14294.430000	-7410.195000	22486.365000	27538.605000	-14.206272	-1.024903	3.069374	-6.096780	-6.153019	-5.073034	0.528054	-4.183319	-0.701960	2.441600	-5.081580	0.972471	-0.192260	0.168335	-1.000000	-1.000000	-1.000000	-1.000000	-1.000000	-1.000000	-1.000000	66.137931	0.000000	-1.000000	-1.000000	428198.000000	1772738253.881560
8273.970000	-28528.335000	-9629.055000	-3306.915000	-14334.255000	-7444.395000	22469.085000	27567.945000	-16.678561	-1.222982	3.321169	-5.896390	-5.367787	-3.684766	0.612952	-6.860004	-0.701960	2.441600	-5.081580	0.972471	-0.192260	0.168335	-1.000000	-1.000000	-1.000000	-1.000000	-1.000000	-1.000000	-1.000000	66.137931	0.000000	-1.000000	-1.000000	428199.000000	1772738253.884198
8272.485000	-28564.470000	-9653.580000	-3323.520000	-14346.315000	-7447.230000	22456.530000	27585.585000	-10.799254	-1.476368	1.590034	-3.635748	-2.852743	-1.455691	0.292752	-6.612455	-0.701960	2.441600	-5.081580	0.972471	-0.192260	0.168335	-1.000000	-1.000000	-1.000000	-1.000000	-1.000000	-1.000000	-1.000000	66.137931	0.000000	-1.000000	-1.000000	428200.000000	1772738253.884204
8259.480000	-28547.370000	-9624.915000	-3289.365000	-14308.785000	-7402.590000	22471.470000	27559.530000	-1.622095	-2.789922	-1.761852	-2.755539	-1.917116	-1.305037	-1.684558	-2.929490	-3.280900	2.136400	-5.295220	0.971250	-0.187072	0.171325	-1.000000	-1.000000	-1.000000	-1.000000	-1.000000	-1.000000	-1.000000	66.137931	0.000000	-1.000000	-1.000000	428201.000000	1772738253.889640
8239.860000	-28529.370000	-9595.125000	-3259.530000	-14281.020000	-7368.525000	22475.340000	27532.980000	4.817080	-3.540092	-3.604231	-2.208881	-1.442596	-1.542656	-3.872992	1.098384	-3.280900	2.136400	-5.295220	0.971250	-0.187072	0.171325	-1.000000	-1.000000	-1.000000	-1.000000	-1.000000	-1.000000	-1.000000	66.137931	0.000000	-1.000000	-1.000000	428202.000000	1772738253.889647
8225.235000	-28548.765000	-9611.865000	-3277.485000	-14302.260000	-7389.495000	22468.770000	27524.520000	5.135044	-2.680478	-2.634763	0.184491	0.639010	0.166518	-4.178025	1.550798	-3.280900	2.136400	-5.295220	0.971250	-0.187072	0.171325	-1.000000	-1.000000	-1.000000	-1.000000	-1.000000	-1.000000	-1.000000	66.137931	0.000000	-1.000000	-1.000000	428203.000000	1772738253.894851
8252.955000	-28556.595000	-9625.320000	-3288.375000	-14311.980000	-7406.235000	22479.210000	27555.435000	0.801903	-1.752145	-1.134038	3.164722	3.134793	2.651872	-2.153007	-1.231260	-3.280900	2.136400	-5.295220	0.971250	-0.187072	0.171325	-1.000000	-1.000000	-1.000000	-1.000000	-1.000000	-1.000000	-1.000000	66.137931	0.000000	-1.000000	-1.000000	428204.000000	1772738253.894860
8287.110000	-28554.570000	-9631.215000	-3284.640000	-14292.900000	-7393.365000	22503.825000	27573.660000	-2.445103	-1.865873	-1.101563	4.433196	4.294868	3.998685	1.742866	-2.113622	-3.280900	2.136400	-5.295220	0.971250	-0.187072	0.171325	-1.000000	-1.000000	-1.000000	-1.000000	-1.000000	-1.000000	-1.000000	66.137931	0.000000	-1.000000	-1.000000	428205.000000	1772738253.896284
8278.335000	-28545.750000	-9629.955000	-3279.555000	-14291.865000	-7404.705000	22508.010000	27593.595000	-1.169943	-2.676228	-2.317140	3.672721	4.351164	4.211682	6.336140	2.559868	-3.280900	2.136400	-5.295220	0.971250	-0.187072	0.171325	-1.000000	-1.000000	-1.000000	-1.000000	-1.000000	-1.000000	-1.000000	66.137931	0.000000	-1.000000	-1.000000	428206.000000	1772738253.896296
8201.745000	-28560.465000	-9687.195000	-3306.915000	-14315.130000	-7426.935000	22485.780000	27546.075000	0.600797	-3.666022	-4.259943	1.620957	3.687921	3.614020	8.884405	8.940361	-3.280900	2.136400	-5.295220	0.971250	-0.187072	0.171325	-1.000000	-1.000000	-1.000000	-1.000000	-1.000000	-1.000000	-1.000000	66.137931	0.000000	-1.000000	-1.000000	428207.000000	1772738253.900168
8164.890000	-28548.810000	-9674.505000	-3300.795000	-14314.995000	-7424.640000	22472.550000	27488.385000	-3.308124	-3.216640	-5.894011	-0.550125	2.218495	2.053349	6.750727	8.275509	-3.280900	2.136400	-5.295220	0.971250	-0.187072	0.171325	-1.000000	-1.000000	-1.000000	-1.000000	-1.000000	-1.000000	-1.000000	66.137931	0.000000	-1.000000	-1.000000	428208.000000	1772738253.900176
8187.255000	-28583.595000	-9638.415000	-3308.355000	-14329.530000	-7426.215000	22468.185000	27487.755000	-11.394340	0.566119	-3.847095	-1.524730	0.042908	-0.438723	0.317023	-2.744094	-3.280900	2.136400	-5.295220	0.971250	-0.187072	0.171325	-1.000000	-1.000000	-1.000000	-1.000000	-1.000000	-1.000000	-1.000000	66.137931	0.000000	-1.000000	-1.000000	428209.000000	1772738253.904208
8240.355000	-28576.530000	-9617.805000	-3313.215000	-14330.430000	-7411.950000	22472.550000	27527.940000	-13.660537	5.899235	3.657623	-1.905522	-3.371276	-3.971221	-7.050174	-15.276178	-3.280900	2.136400	-5.295220	0.971250	-0.187072	0.171325	-1.000000	-1.000000	-1.000000	-1.000000	-1.000000	-1.000000	-1.000000	66.137931	0.000000	-1.000000	-1.000000	428210.000000	1772738253.904215
8237.655000	-28573.830000	-9638.325000	-3313.935000	-14329.215000	-7408.755000	22473.810000	27535.905000	-2.934612	8.532368	11.878465	-3.445880	-7.877562	-7.868573	-11.395316	-16.477985	0.061040	4.471180	-4.562740	0.975889	-0.191772	0.168457	-1.000000	-1.000000	-1.000000	-1.000000	-1.000000	-1.000000	-1.000000	66.137931	0.000000	-1.000000	-1.000000	428211.000000	1772738253.911238
8226.540000	-28560.915000	-9628.020000	-3297.015000	-14313.690000	-7404.390000	22474.170000	27546.525000	15.246102	7.330357	14.216507	-5.017897	-10.150028	-9.200908	-10.409312	-3.936138	0.061040	4.471180	-4.562740	0.975889	-0.191772	0.168457	-1.000000	-1.000000	-1.000000	-1.000000	-1.000000	-1.000000	-1.000000	66.137931	0.000000	-1.000000	-1.000000	428212.000000	1772738253.911250
8230.635000	-28553.940000	-9628.785000	-3298.365000	-14314.860000	-7413.255000	22473.045000	27555.210000	27.286845	4.770453	9.766295	-3.268391	-6.507172	-5.318622	-4.942853	12.624313	0.061040	4.471180	-4.562740	0.975889	-0.191772	0.168457	-1.000000	-1.000000	-1.000000	-1.000000	-1.000000	-1.000000	-1.000000	66.137931	0.000000	-1.000000	-1.000000	428213.000000	1772738253.912406
8230.365000	-28556.730000	-9644.670000	-3319.245000	-14336.100000	-7441.290000	22473.855000	27557.910000	24.206596	2.526061	2.084307	1.759556	1.415904	1.818119	1.439714	21.705984	0.061040	4.471180	-4.562740	0.975889	-0.191772	0.168457	-1.000000	-1.000000	-1.000000	-1.000000	-1.000000	-1.000000	-1.000000	66.137931	0.000000	-1.000000	-1.000000	428214.000000	1772738253.912411
8232.075000	-28560.915000	-9649.755000	-3322.530000	-14341.995000	-7451.190000	22471.290000	27554.085000	8.625777	-0.231516	-5.439086	5.911885	7.781411	7.145749	5.521154	18.533770	0.061040	4.471180	-4.562740	0.975889	-0.191772	0.168457	-1.000000	-1.000000	-1.000000	-1.000000	-1.000000	-1.000000	-1.000000	66.137931	0.000000	-1.000000	-1.000000	428215.000000	1772738253.916354
8239.275000	-28550.880000	-9627.390000	-3295.170000	-14315.265000	-7421.985000	22481.235000	27552.465000	-7.941416	-3.662707	-9.346099	6.997263	9.783192	8.673220	7.064862	6.905284	0.061040	4.471180	-4.562740	0.975889	-0.191772	0.168457	-1.000000	-1.000000	-1.000000	-1.000000	-1.000000	-1.000000	-1.000000	66.137931	0.000000	-1.000000	-1.000000	428216.000000	1772738253.916365
8259.390000	-28494.450000	-9564.390000	-3233.835000	-14260.905000	-7371.135000	22503.780000	27557.775000	-14.914508	-4.773398	-6.458686	7.452217	10.014276	8.897487	7.929971	-4.688797	0.061040	4.471180	-4.562740	0.975889	-0.191772	0.168457	-1.000000	-1.000000	-1.000000	-1.000000	-1.000000	-1.000000	-1.000000	66.137931	0.000000	-1.000000	-1.000000	428217.000000	1772738253.920225
8241.300000	-28475.640000	-9527.355000	-3184.920000	-14208.750000	-7311.195000	22528.620000	27508.410000	-11.586418	-0.335193	2.065491	9.989897	11.656039	10.359277	9.132941	-11.058491	0.061040	4.471180	-4.562740	0.975889	-0.191772	0.168457	-1.000000	-1.000000	-1.000000	-1.000000	-1.000000	-1.000000	-1.000000	66.137931	0.000000	-1.000000	-1.000000	428218.000000	1772738253.920233
8192.880000	-28553.760000	-9595.620000	-3250.215000	-14263.830000	-7348.365000	22500.495000	27471.555000	-6.319304	6.288534	8.999507	12.079184	12.873453	11.280530	8.983364	-14.142246	0.061040	4.471180	-4.562740	0.975889	-0.191772	0.168457	-1.000000	-1.000000	-1.000000	-1.000000	-1.000000	-1.000000	-1.000000	66.137931	0.000000	-1.000000	-1.000000	428219.000000	1772738253.924238
8204.355000	-28616.130000	-9677.070000	-3342.150000	-14351.670000	-7429.995000	22460.985000	27557.460000	-6.146998	5.377298	5.602992	5.934573	6.557914	5.681415	4.114268	-15.765322	0.061040	4.471180	-4.562740	0.975889	-0.191772	0.168457	-1.000000	-1.000000	-1.000000	-1.000000	-1.000000	-1.000000	-1.000000	66.137931	0.000000	-1.000000	-1.000000	428220.000000	1772738253.924245
8208.810000	-28598.130000	-9680.445000	-3344.895000	-14358.780000	-7443.495000	22467.555000	27567.810000	-9.069611	-6.696332	-9.169667	-11.692011	-10.612330	-9.139750	-5.961173	-12.092172	3.311420	5.463080	-1.815940	0.982664	-0.198120	0.168884	-1.000000	-1.000000	-1.000000	-1.000000	-1.000000	-1.000000	-1.000000	66.137931	0.000000	-1.000000	-1.000000	428221.000000	1772738253.929869
8240.130000	-28558.890000	-9650.430000	-3311.460000	-14331.735000	-7434.450000	22471.785000	27547.020000	-8.701000	-20.151277	-24.387561	-30.590595	-29.502461	-25.470121	-15.966327	-1.770588	3.311420	5.463080	-1.815940	0.982664	-0.198120	0.168884	-1.000000	-1.000000	-1.000000	-1.000000	-1.000000	-1.000000	-1.000000	66.137931	0.000000	-1.000000	-1.000000	428222.000000	1772738253.929877
8246.835000	-28542.015000	-9647.820000	-3314.295000	-14334.300000	-7445.520000	22474.845000	27546.660000	-2.295525	-21.862885	-26.220703	-35.066968	-35.228003	-30.755248	-19.117958	8.815910	3.311420	5.463080	-1.815940	0.982664	-0.198120	0.168884	-1.000000	-1.000000	-1.000000	-1.000000	-1.000000	-1.000000	-1.000000	66.137931	0.000000	-1.000000	-1.000000	428223.000000	1772738253.934036
8236.170000	-28568.430000	-9661.635000	-3319.560000	-14334.030000	-7438.365000	22483.395000	27559.890000	7.427375	-9.219720	-11.459120	-20.257963	-22.188289	-19.994651	-13.025800	13.525665	3.311420	5.463080	-1.815940	0.982664	-0.198120	0.168884	-1.000000	-1.000000	-1.000000	-1.000000	-1.000000	-1.000000	-1.000000	66.137931	0.000000	-1.000000	-1.000000	428224.000000	1772738253.934045
8243.640000	-28557.540000	-9637.740000	-3296.745000	-14316.570000	-7419.105000	22486.230000	27562.005000	14.883490	8.398113	10.192635	4.120635	1.371512	0.261986	-0.993533	12.283450	3.311420	5.463080	-1.815940	0.982664	-0.198120	0.168884	-1.000000	-1.000000	-1.000000	-1.000000	-1.000000	-1.000000	-1.000000	66.137931	0.000000	-1.000000	-1.000000	428225.000000	1772738253.938833
8240.850000	-28544.715000	-9617.895000	-3284.190000	-14304.465000	-7402.005000	22488.345000	27549.945000	15.676814	19.514853	25.243475	23.405908	21.327967	17.956353	10.207137	7.943692	3.311420	5.463080	-1.815940	0.982664	-0.198120	0.168884	-1.000000	-1.000000	-1.000000	-1.000000	-1.000000	-1.000000	-1.000000	66.137931	0.000000	-1.000000	-1.000000	428226.000000	1772738253.938842
8240.085000	-28543.545000	-9611.640000	-3273.480000	-14290.290000	-7378.155000	22494.960000	27547.470000	9.733480	19.846078	26.559614	28.806086	28.204324	24.398685	14.876935	3.082749	3.311420	5.463080	-1.815940	0.982664	-0.198120	0.168884	-1.000000	-1.000000	-1.000000	-1.000000	-1.000000	-1.000000	-1.000000	66.137931	0.000000	-1.000000	-1.000000	428227.000000	1772738253.940270
8238.195000	-28549.260000	-9617.490000	-3274.785000	-14287.995000	-7374.375000	22496.805000	27551.385000	1.217270	13.552603	17.645324	22.530982	23.145758	20.217401	12.726908	-0.796134	3.311420	5.463080	-1.815940	0.982664	-0.198120	0.168884	-1.000000	-1.000000	-1.000000	-1.000000	-1.000000	-1.000000	-1.000000	66.137931	0.000000	-1.000000	-1.000000	428228.000000	1772738253.940275
8243.910000	-28542.240000	-9611.820000	-3271.140000	-14285.655000	-7379.370000	22497.795000	27561.960000	-5.272038	7.265429	7.674227	13.377383	14.392768	12.751866	7.801107	-4.439214	3.311420	5.463080	-1.815940	0.982664	-0.198120	0.168884	-1.000000	-1.000000	-1.000000	-1.000000	-1.000000	-1.000000	-1.000000	66.137931	0.000000	-1.000000	-1.000000	428229.000000	1772738253.944721
8255.115000	-28528.020000	-9606.465000	-3271.545000	-14290.515000	-7392.420000	22497.255000	27561.105000	-8.155197	3.135841	1.715047	6.492966	7.249174	6.860524	3.176387	-8.706913	3.311420	5.463080	-1.815940	0.982664	-0.198120	0.168884	-1.000000	-1.000000	-1.000000	-1.000000	-1.000000	-1.000000	-1.000000	66.137931	0.000000	-1.000000	-1.000000	428230.000000	1772738253.944728
8248.455000	-28533.420000	-9621.765000	-3292.290000	-14314.860000	-7425.405000	22491.090000	27546.795000	-8.554596	-1.422475	-2.309393	0.022304	0.273463	1.179243	-1.072151	-11.516754	4.654300	5.722500	-2.701020	0.985593	-0.196472	0.170959	-1.000000	-1.000000	-1.000000	-1.000000	-1.000000	-1.000000	-1.000000	66.137931	0.000000	-1.000000	-1.000000	428231.000000	1772738253.948179
8224.425000	-28559.970000	-9641.340000	-3303.585000	-14322.330000	-7432.560000	22489.605000	27537.255000	-8.153090	-8.352110	-7.839450	-8.545461	-8.703021	-6.508429	-5.347525	-10.517177	4.654300	5.722500	-2.701020	0.985593	-0.196472	0.170959	-1.000000	-1.000000	-1.000000	-1.000000	-1.000000	-1.000000	-1.000000	66.137931	0.000000	-1.000000	-1.000000	428232.000000	1772738253.948187
8240.715000	-28541.790000	-9624.150000	-3287.655000	-14306.805000	-7414.515000	22488.570000	27546.120000	-7.141758	-15.232962	-14.148713	-17.031339	-17.271297	-14.361565	-8.726755	-5.957906	4.654300	5.722500	-2.701020	0.985593	-0.196472	0.170959	-1.000000	-1.000000	-1.000000	-1.000000	-1.000000	-1.000000	-1.000000	66.137931	0.000000	-1.000000	-1.000000	428233.000000	1772738253.952276
8247.780000	-28533.465000	-9614.880000	-3278.970000	-14298.480000	-7398.405000	22500.495000	27550.800000	-4.206500	-17.348220	-17.637023	-20.941223	-20.841481	-18.242671	-9.667339	0.606008	4.654300	5.722500	-2.701020	0.985593	-0.196472	0.170959	-1.000000	-1.000000	-1.000000	-1.000000	-1.000000	-1.000000	-1.000000	66.137931	0.000000	-1.000000	-1.000000	428234.000000	1772738253.952283
8230.095000	-28554.300000	-9619.830000	-3272.580000	-14285.070000	-7371.225000	22507.335000	27539.280000	0.732677	-13.123764	-16.416528	-18.287633	-17.522048	-15.936467	-7.360457	7.365017	4.654300	5.722500	-2.701020	0.985593	-0.196472	0.170959	-1.000000	-1.000000	-1.000000	-1.000000	-1.000000	-1.000000	-1.000000	66.137931	0.000000	-1.000000	-1.000000	428235.000000	1772738253.958014
8211.555000	-28549.260000	-9606.780000	-3262.230000	-14277.195000	-7360.785000	22505.985000	27522.135000	5.275057	-5.036005	-10.675711	-9.998848	-8.701670	-8.255130	-2.544299	11.732686	4.654300	5.722500	-2.701020	0.985593	-0.196472	0.170959	-1.000000	-1.000000	-1.000000	-1.000000	-1.000000	-1.000000	-1.000000	66.137931	0.000000	-1.000000	-1.000000	428236.000000	1772738253.958022
8222.085000	-28514.340000	-9574.065000	-3237.930000	-14265.855000	-7362.270000	22512.285000	27550.395000	7.056635	4.546329	-0.458304	2.108867	2.978249	2.222899	2.926655	11.225935	4.654300	5.722500	-2.701020	0.985593	-0.196472	0.170959	-1.000000	-1.000000	-1.000000	-1.000000	-1.000000	-1.000000	-1.000000	66.137931	0.000000	-1.000000	-1.000000	428237.000000	1772738253.960180
8255.880000	-28514.565000	-9583.155000	-3242.655000	-14268.105000	-7374.330000	22516.290000	27586.125000	6.375822	13.644133	12.194550	14.596570	13.818730	11.695052	7.099720	6.532214	4.654300	5.722500	-2.701020	0.985593	-0.196472	0.170959	-1.000000	-1.000000	-1.000000	-1.000000	-1.000000	-1.000000	-1.000000	66.137931	0.000000	-1.000000	-1.000000	428238.000000	1772738253.960188
8238.105000	-28573.515000	-9664.740000	-3315.870000	-14317.155000	-7424.370000	22487.535000	27537.165000	4.872436	17.296624	19.914919	20.763399	18.654164	15.612081	8.089489	1.051059	4.654300	5.722500	-2.701020	0.985593	-0.196472	0.170959	-1.000000	-1.000000	-1.000000	-1.000000	-1.000000	-1.000000	-1.000000	66.137931	0.000000	-1.000000	-1.000000	428239.000000	1772738253.964311
8250.840000	-28551.465000	-9651.105000	-3312.720000	-14324.895000	-7436.655000	22477.770000	27524.925000	3.100633	11.336158	15.813897	15.338460	14.123486	11.603245	4.742968	-3.558976	4.654300	5.722500	-2.701020	0.985593	-0.196472	0.170959	-1.000000	-1.000000	-1.000000	-1.000000	-1.000000	-1.000000	-1.000000	66.137931	0.000000	-1.000000	-1.000000	428240.000000	1772738253.964321
8243.595000	-28548.990000	-9642.690000	-3303.540000	-14318.415000	-7422.795000	22481.685000	27535.050000	1.342147	-0.142979	3.120483	1.879847	3.030692	2.463043	-1.383982	-7.075969	0.061040	4.578000	-3.280900	0.982053	-0.190856	0.174682	-1.000000	-1.000000	-1.000000	-1.000000	-1.000000	-1.000000	-1.000000	66.137931	0.000000	-1.000000	-1.000000	428241.000000	1772738253.968234
8249.985000	-28538.190000	-9620.640000	-3290.220000	-14303.520000	-7401.780000	22480.560000	27543.375000	-0.164033	-8.630248	-8.074811	-10.076505	-7.565661	-5.872627	-6.410954	-8.080350	0.061040	4.578000	-3.280900	0.982053	-0.190856	0.174682	-1.000000	-1.000000	-1.000000	-1.000000	-1.000000	-1.000000	-1.000000	66.137931	0.000000	-1.000000	-1.000000	428242.000000	1772738253.968242
8257.680000	-28511.865000	-9590.625000	-3279.015000	-14291.370000	-7380.540000	22483.305000	27543.645000	-1.710954	-9.831232	-11.206095	-14.142135	-12.257945	-9.213036	-7.580787	-5.500095	0.061040	4.578000	-3.280900	0.982053	-0.190856	0.174682	-1.000000	-1.000000	-1.000000	-1.000000	-1.000000	-1.000000	-1.000000	66.137931	0.000000	-1.000000	-1.000000	428243.000000	1772738253.972475
8238.105000	-28528.920000	-9613.980000	-3278.790000	-14287.320000	-7365.690000	22496.130000	27548.010000	-2.891506	-4.632248	-6.525177	-10.124005	-10.089564	-7.249063	-4.813089	-0.171131	0.061040	4.578000	-3.280900	0.982053	-0.190856	0.174682	-1.000000	-1.000000	-1.000000	-1.000000	-1.000000	-1.000000	-1.000000	66.137931	0.000000	-1.000000	-1.000000	428244.000000	1772738253.972482
8187.975000	-28563.345000	-9640.845000	-3266.190000	-14276.655000	-7362.495000	22498.560000	27541.845000	-3.747735	2.098903	0.374161	-1.781290	-3.525308	-2.214756	0.450896	5.325419	0.061040	4.578000	-3.280900	0.982053	-0.190856	0.174682	-1.000000	-1.000000	-1.000000	-1.000000	-1.000000	-1.000000	-1.000000	66.137931	0.000000	-1.000000	-1.000000	428245.000000	1772738253.976235
8174.655000	-28572.930000	-9623.970000	-3266.055000	-14279.445000	-7374.420000	22493.970000	27529.470000	-6.059972	3.962314	3.359238	6.059009	3.702761	3.073110	5.704861	6.925818	0.061040	4.578000	-3.280900	0.982053	-0.190856	0.174682	-1.000000	-1.000000	-1.000000	-1.000000	-1.000000	-1.000000	-1.000000	66.137931	0.000000	-1.000000	-1.000000	428246.000000	1772738253.976242
8235.450000	-28560.735000	-9628.920000	-3283.155000	-14297.670000	-7399.710000	22491.585000	27539.955000	-9.198154	-0.223128	2.136039	9.992287	8.215733	6.182028	8.160183	2.619867	0.061040	4.578000	-3.280900	0.982053	-0.190856	0.174682	-1.000000	-1.000000	-1.000000	-1.000000	-1.000000	-1.000000	-1.000000	66.137931	0.000000	-1.000000	-1.000000	428247.000000	1772738253.980218
8288.055000	-28544.535000	-9626.490000	-3282.615000	-14300.415000	-7413.300000	22492.260000	27570.060000	-7.437688	-4.376570	1.444802	9.808032	8.735864	6.232653	7.124619	-3.065910	0.061040	4.578000	-3.280900	0.982053	-0.190856	0.174682	-1.000000	-1.000000	-1.000000	-1.000000	-1.000000	-1.000000	-1.000000	66.137931	0.000000	-1.000000	-1.000000	428248.000000	1772738253.980227
8320.275000	-28519.335000	-9610.110000	-3265.650000	-14285.025000	-7397.010000	22502.295000	27583.335000	3.209029	-2.613623	3.980701	7.465755	6.580537	4.321193	4.287250	-3.272909	0.061040	4.578000	-3.280900	0.982053	-0.190856	0.174682	-1.000000	-1.000000	-1.000000	-1.000000	-1.000000	-1.000000	-1.000000	66.137931	0.000000	-1.000000	-1.000000	428249.000000	1772738253.985162
8305.020000	-28531.620000	-9609.030000	-3260.295000	-14275.800000	-7377.480000	22509.810000	27580.005000	17.453121	3.950036	7.120131	4.056497	3.423034	1.868593	1.408179	2.212820	0.061040	4.578000	-3.280900	0.982053	-0.190856	0.174682	-1.000000	-1.000000	-1.000000	-1.000000	-1.000000	-1.000000	-1.000000	66.137931	0.000000	-1.000000	-1.000000	428250.000000	1772738253.985170
8254.575000	-28533.780000	-9595.125000	-3249.315000	-14266.350000	-7361.505000	22515.840000	27570.555000	23.555769	8.840239	6.414066	-0.580737	-0.264871	-0.654659	-0.904892	6.989904	1.602300	5.081580	0.900340	0.976316	-0.187866	0.176269	-1.000000	-1.000000	-1.000000	-1.000000	-1.000000	-1.000000	-1.000000	66.137931	0.000000	-1.000000	-1.000000	428251.000000	1772738253.988369
8184.510000	-28543.140000	-9591.570000	-3248.370000	-14266.350000	-7354.350000	22507.875000	27535.500000	13.497431	7.122454	0.737182	-5.823290	-4.276246	-3.346764	-2.949588	5.526150	1.602300	5.081580	0.900340	0.976316	-0.187866	0.176269	-1.000000	-1.000000	-1.000000	-1.000000	-1.000000	-1.000000	-1.000000	66.137931	0.000000	-1.000000	-1.000000	428252.000000	1772738253.988377
8152.695000	-28583.055000	-9628.875000	-3281.400000	-14291.820000	-7377.390000	22490.730000	27493.560000	-8.785143	-0.219273	-6.629271	-10.209156	-7.985460	-6.234915	-5.415333	-2.657060	1.602300	5.081580	0.900340	0.976316	-0.187866	0.176269	-1.000000	-1.000000	-1.000000	-1.000000	-1.000000	-1.000000	-1.000000	66.137931	0.000000	-1.000000	-1.000000	428253.000000	1772738253.992249
8203.545000	-28554.480000	-9621.315000	-3279.690000	-14292.765000	-7387.695000	22490.595000	27496.575000	-28.106772	-7.805569	-11.529143	-12.801264	-10.574807	-8.718423	-8.123906	-13.218069	1.602300	5.081580	0.900340	0.976316	-0.187866	0.176269	-1.000000	-1.000000	-1.000000	-1.000000	-1.000000	-1.000000	-1.000000	66.137931	0.000000	-1.000000	-1.000000	428254.000000	1772738253.992256
8249.265000	-28500.750000	-9590.040000	-3255.660000	-14276.790000	-7383.960000	22501.890000	27538.470000	-29.624889	-9.407857	-11.306239	-12.046741	-10.289673	-8.826447	-9.038101	-18.615727	1.602300	5.081580	0.900340	0.976316	-0.187866	0.176269	-1.000000	-1.000000	-1.000000	-1.000000	-1.000000	-1.000000	-1.000000	66.137931	0.000000	-1.000000	-1.000000	428255.000000	1772738253.996461
8264.385000	-28498.725000	-9600.885000	-3266.730000	-14286.240000	-7400.655000	22514.085000	27597.195000	-12.529480	-2.607202	-5.179849	-5.736257	-5.094830	-4.390798	-5.767549	-12.430200	1.602300	5.081580	0.900340	0.976316	-0.187866	0.176269	-1.000000	-1.000000	-1.000000	-1.000000	-1.000000	-1.000000	-1.000000	66.137931	0.000000	-1.000000	-1.000000	428256.000000	1772738253.996470
8259.390000	-28515.690000	-9607.725000	-3267.090000	-14282.820000	-7393.635000	22516.875000	27580.005000	9.539100	7.170110	3.840342	4.627938	3.792871	3.698101	1.382115	3.843299	1.602300	5.081580	0.900340	0.976316	-0.187866	0.176269	-1.000000	-1.000000	-1.000000	-1.000000	-1.000000	-1.000000	-1.000000	66.137931	0.000000	-1.000000	-1.000000	428257.000000	1772738254.000210
8238.330000	-28519.335000	-9606.780000	-3266.190000	-14281.695000	-7386.840000	22506.210000	27508.230000	21.607850	10.941103	9.755218	12.941891	11.272254	10.867188	8.373314	18.600503	1.602300	5.081580	0.900340	0.976316	-0.187866	0.176269	-1.000000	-1.000000	-1.000000	-1.000000	-1.000000	-1.000000	-1.000000	66.137931	0.000000	-1.000000	-1.000000	428258.000000	1772738254.000215
8204.805000	-28547.280000	-9644.940000	-3307.680000	-14319.720000	-7411.590000	22490.730000	27477.315000	18.602325	5.226303	8.378456	13.531245	12.146243	12.004948	10.288642	19.468068	1.602300	5.081580	0.900340	0.976316	-0.187866	0.176269	-1.000000	-1.000000	-1.000000	-1.000000	-1.000000	-1.000000	-1.000000	66.137931	0.000000	-1.000000	-1.000000	428259.000000	1772738254.004278
8190.090000	-28544.445000	-9632.070000	-3287.655000	-14296.545000	-7381.215000	22494.600000	27489.375000	6.480448	-5.736105	0.350622	5.773339	5.386092	5.720083	5.783542	6.381468	1.602300	5.081580	0.900340	0.976316	-0.187866	0.176269	-1.000000	-1.000000	-1.000000	-1.000000	-1.000000	-1.000000	-1.000000	66.137931	0.000000	-1.000000	-1.000000	428260.000000	1772738254.004283
8222.895000	-28541.565000	-9655.290000	-3277.035000	-14276.790000	-7359.075000	22502.430000	27513.495000	-3.409206	-13.934477	-8.715093	-4.350141	-3.634251	-3.119300	-1.344940	-7.925832	8.759240	7.340060	2.929920	0.978574	-0.194396	0.177002	-1.000000	-1.000000	-1.000000	-1.000000	-1.000000	-1.000000	-1.000000	66.137931	0.000000	-1.000000	-1.000000	428261.000000	1772738254.010426
8272.170000	-28551.645000	-9686.115000	-3292.020000	-14287.455000	-7372.395000	22505.445000	27564.165000	-2.759338	-13.221050	-12.269205	-8.974652	-7.498506	-7.396148	-5.529739	-10.484502	8.759240	7.340060	2.929920	0.978574	-0.194396	0.177002	-1.000000	-1.000000	-1.000000	-1.000000	-1.000000	-1.000000	-1.000000	66.137931	0.000000	-1.000000	-1.000000	428262.000000	1772738254.010449
8280.180000	-28515.555000	-9600.840000	-3248.685000	-14261.580000	-7362.540000	22509.990000	27545.085000	6.193122	-4.425774	-7.722603	-5.611695	-4.155380	-4.813222	-4.436683	-0.221813	8.759240	7.340060	2.929920	0.978574	-0.194396	0.177002	-1.000000	-1.000000	-1.000000	-1.000000	-1.000000	-1.000000	-1.000000	66.137931	0.000000	-1.000000	-1.000000	428263.000000	1772738254.016737
8259.120000	-28503.315000	-9539.415000	-3237.660000	-14262.660000	-7377.120000	22505.940000	27473.535000	11.941805	5.992599	4.184562	2.656588	2.754672	1.349309	-0.324297	10.338488	8.759240	7.340060	2.929920	0.978574	-0.194396	0.177002	-1.000000	-1.000000	-1.000000	-1.000000	-1.000000	-1.000000	-1.000000	66.137931	0.000000	-1.000000	-1.000000	428264.000000	1772738254.016745
8220.870000	-28543.725000	-9607.230000	-3285.315000	-14306.535000	-7423.290000	22489.920000	27497.565000	5.097483	11.614482	18.450719	10.108807	7.701230	5.763414	2.657463	7.985853	8.759240	7.340060	2.929920	0.978574	-0.194396	0.177002	-1.000000	-1.000000	-1.000000	-1.000000	-1.000000	-1.000000	-1.000000	66.137931	0.000000	-1.000000	-1.000000	428265.000000	1772738254.016972
8189.730000	-28529.730000	-9607.455000	-3274.875000	-14291.550000	-7402.455000	22494.105000	27499.635000	-12.329898	9.803845	24.684795	10.831968	6.456410	4.537389	2.132944	-5.250697	8.759240	7.340060	2.929920	0.978574	-0.194396	0.177002	-1.000000	-1.000000	-1.000000	-1.000000	-1.000000	-1.000000	-1.000000	66.137931	0.000000	-1.000000	-1.000000	428266.000000	1772738254.016976
8194.770000	-28505.565000	-9580.230000	-3242.925000	-14259.195000	-7367.940000	22497.885000	27443.790000	-28.349759	3.702562	17.031990	4.466379	0.417484	-0.775992	-0.529811	-15.774261	8.759240	7.340060	2.929920	0.978574	-0.194396	0.177002	-1.000000	-1.000000	-1.000000	-1.000000	-1.000000	-1.000000	-1.000000	66.137931	0.000000	-1.000000	-1.000000	428267.000000	1772738254.021989
8253.315000	-28540.080000	-9621.765000	-3284.235000	-14298.750000	-7395.570000	22489.245000	27558.675000	-29.408919	-1.020271	0.854801	-3.337582	-4.783305	-4.909203	-2.243390	-13.834589	8.759240	7.340060	2.929920	0.978574	-0.194396	0.177002	-1.000000	-1.000000	-1.000000	-1.000000	-1.000000	-1.000000	-1.000000	66.137931	0.000000	-1.000000	-1.000000	428268.000000	1772738254.021997
8277.210000	-28562.805000	-9631.170000	-3289.095000	-14298.840000	-7380.900000	22506.255000	27638.595000	-10.687031	-2.948736	-15.017875	-8.793156	-6.941199	-5.924781	-1.656332	1.755151	8.759240	7.340060	2.929920	0.978574	-0.194396	0.177002	-1.000000	-1.000000	-1.000000	-1.000000	-1.000000	-1.000000	-1.000000	66.137931	0.000000	-1.000000	-1.000000	428269.000000	1772738254.026711
8281.080000	-28541.745000	-9615.870000	-3275.460000	-14287.770000	-7374.420000	22516.515000	27622.530000	17.545582	-3.738209	-23.603355	-11.312798	-7.324625	-5.101837	0.679652	22.842112	8.759240	7.340060	2.929920	0.978574	-0.194396	0.177002	-1.000000	-1.000000	-1.000000	-1.000000	-1.000000	-1.000000	-1.000000	66.137931	0.000000	-1.000000	-1.000000	428270.000000	1772738254.026721
8266.545000	-28529.010000	-9607.320000	-3260.115000	-14272.965000	-7372.305000	22511.295000	27583.110000	36.018305	-3.195117	-20.776662	-9.624049	-5.616842	-2.618916	3.337623	33.004459	15.122660	8.240400	3.326680	0.982175	-0.199035	0.177124	-1.000000	-1.000000	-1.000000	-1.000000	-1.000000	-1.000000	-1.000000	66.137931	0.000000	-1.000000	-1.000000	428271.000000	1772738254.028289
8258.220000	-28525.770000	-9610.830000	-3269.295000	-14283.405000	-7392.285000	22500.990000	27564.570000	32.221407	-1.358083	-10.216437	-4.141753	-1.496176	1.190396	4.186145	21.494799	15.122660	8.240400	3.326680	0.982175	-0.199035	0.177124	-1.000000	-1.000000	-1.000000	-1.000000	-1.000000	-1.000000	-1.000000	66.137931	0.000000	-1.000000	-1.000000	428272.000000	1772738254.028296
8234.595000	-28551.690000	-9630.900000	-3296.385000	-14306.805000	-7417.755000	22499.910000	27565.380000	10.000887	-0.347485	-0.880130	1.428955	2.868940	4.325271	2.068842	-4.950638	15.122660	8.240400	3.326680	0.982175	-0.199035	0.177124	-1.000000	-1.000000	-1.000000	-1.000000	-1.000000	-1.000000	-1.000000	66.137931	0.000000	-1.000000	-1.000000	428273.000000	1772738254.032452
8209.350000	-28554.840000	-9627.165000	-3289.545000	-14299.065000	-7407.090000	22504.815000	27558.270000	-15.549629	-1.000272	3.589615	4.531065	5.422227	5.457941	-1.489685	-29.565579	15.122660	8.240400	3.326680	0.982175	-0.199035	0.177124	-1.000000	-1.000000	-1.000000	-1.000000	-1.000000	-1.000000	-1.000000	66.137931	0.000000	-1.000000	-1.000000	428274.000000	1772738254.032459
8226.630000	-28522.530000	-9604.215000	-3271.905000	-14287.140000	-7390.755000	22502.295000	27553.230000	-29.722018	-1.572947	6.175372	5.633626	5.867857	4.753362	-3.877847	-39.115609	15.122660	8.240400	3.326680	0.982175	-0.199035	0.177124	-1.000000	-1.000000	-1.000000	-1.000000	-1.000000	-1.000000	-1.000000	66.137931	0.000000	-1.000000	-1.000000	428275.000000	1772738254.039129
8306.460000	-28487.880000	-9581.265000	-3248.775000	-14261.580000	-7360.065000	22512.780000	27582.210000	-25.509315	0.389359	9.626043	6.137221	4.961471	3.045113	-3.800976	-29.737013	15.122660	8.240400	3.326680	0.982175	-0.199035	0.177124	-1.000000	-1.000000	-1.000000	-1.000000	-1.000000	-1.000000	-1.000000	66.137931	0.000000	-1.000000	-1.000000	428276.000000	1772738254.039138
8335.170000	-28489.500000	-9565.020000	-3218.445000	-14223.060000	-7312.545000	22536.090000	27614.520000	-6.127918	5.786896	13.879059	7.498628	4.725338	2.322250	-1.297892	-8.538770	15.122660	8.240400	3.326680	0.982175	-0.199035	0.177124	-1.000000	-1.000000	-1.000000	-1.000000	-1.000000	-1.000000	-1.000000	66.137931	0.000000	-1.000000	-1.000000	428277.000000	1772738254.040317
8270.415000	-28529.910000	-9592.155000	-3245.985000	-14252.355000	-7342.245000	22511.070000	27560.205000	15.170941	11.243562	16.374802	9.339057	5.918216	3.368982	2.035005	10.161066	15.122660	8.240400	3.326680	0.982175	-0.199035	0.177124	-1.000000	-1.000000	-1.000000	-1.000000	-1.000000	-1.000000	-1.000000	66.137931	0.000000	-1.000000	-1.000000	428278.000000	1772738254.040323
8196.930000	-28590.705000	-9651.285000	-3305.970000	-14309.280000	-7401.060000	22471.605000	27491.400000	22.171801	9.712832	12.320424	7.157736	4.457055	2.374935	2.581883	15.374460	15.122660	8.240400	3.326680	0.982175	-0.199035	0.177124	-1.000000	-1.000000	-1.000000	-1.000000	-1.000000	-1.000000	-1.000000	66.137931	0.000000	-1.000000	-1.000000	428279.000000	1772738254.044662
8236.485000	-28555.605000	-9634.095000	-3293.280000	-14297.715000	-7397.280000	22480.470000	27525.555000	9.907235	-1.792287	-0.715318	-2.690382	-3.636555	-4.249501	-1.477806	8.324175	15.122660	8.240400	3.326680	0.982175	-0.199035	0.177124	-1.000000	-1.000000	-1.000000	-1.000000	-1.000000	-1.000000	-1.000000	66.137931	0.000000	-1.000000	-1.000000	428280.000000	1772738254.044671
8253.270000	-28535.670000	-9618.210000	-3280.995000	-14291.055000	-7404.480000	22483.035000	27529.335000	-9.171676	-15.624202	-16.776886	-15.223208	-14.141210	-12.652698	-6.480651	0.618205	14.039200	9.339120	0.518840	0.979978	-0.194519	0.171997	-1.000000	-1.000000	-1.000000	-1.000000	-1.000000	-1.000000	-1.000000	66.137931	0.000000	-1.000000	-1.000000	428281.000000	1772738254.048358
8262.405000	-28538.100000	-9618.210000	-3280.770000	-14290.470000	-7403.220000	22486.230000	27547.515000	-17.913020	-19.934166	-24.631675	-20.067446	-17.806568	-14.934350	-7.142001	1.487919	14.039200	9.339120	0.518840	0.979978	-0.194519	0.171997	-1.000000	-1.000000	-1.000000	-1.000000	-1.000000	-1.000000	-1.000000	66.137931	0.000000	-1.000000	-1.000000	428282.000000	1772738254.048364
8284.635000	-28512.630000	-9592.695000	-3254.040000	-14264.235000	-7369.020000	22497.570000	27598.410000	-10.133296	-11.024349	-18.493277	-12.714461	-10.755594	-8.118206	-2.263702	10.343012	14.039200	9.339120	0.518840	0.979978	-0.194519	0.171997	-1.000000	-1.000000	-1.000000	-1.000000	-1.000000	-1.000000	-1.000000	66.137931	0.000000	-1.000000	-1.000000	428283.000000	1772738254.054064
8239.635000	-28535.040000	-9604.800000	-3262.815000	-14271.705000	-7368.930000	22490.190000	27563.085000	5.939234	3.678248	-3.271539	1.360501	2.088113	3.384077	4.971606	20.404752	14.039200	9.339120	0.518840	0.979978	-0.194519	0.171997	-1.000000	-1.000000	-1.000000	-1.000000	-1.000000	-1.000000	-1.000000	66.137931	0.000000	-1.000000	-1.000000	428284.000000	1772738254.054073
8203.320000	-28568.700000	-9624.240000	-3280.140000	-14287.680000	-7373.970000	22469.580000	27508.950000	14.565091	12.809646	10.248028	12.204433	11.768933	11.717330	9.515265	21.523565	14.039200	9.339120	0.518840	0.979978	-0.194519	0.171997	-1.000000	-1.000000	-1.000000	-1.000000	-1.000000	-1.000000	-1.000000	66.137931	0.000000	-1.000000	-1.000000	428285.000000	1772738254.056737
8198.550000	-28568.970000	-9612.810000	-3262.140000	-14267.880000	-7350.705000	22474.305000	27520.740000	7.305672	11.152445	14.657206	13.658686	12.601389	11.801662	7.915912	7.142684	14.039200	9.339120	0.518840	0.979978	-0.194519	0.171997	-1.000000	-1.000000	-1.000000	-1.000000	-1.000000	-1.000000	-1.000000	66.137931	0.000000	-1.000000	-1.000000	428286.000000	1772738254.056744
8212.905000	-28533.105000	-9602.595000	-3259.305000	-14270.220000	-7360.965000	22475.250000	27529.245000	-7.080765	4.261334	11.490822	8.179048	6.987140	5.939746	2.050735	-14.504488	14.039200	9.339120	0.518840	0.979978	-0.194519	0.171997	-1.000000	-1.000000	-1.000000	-1.000000	-1.000000	-1.000000	-1.000000	66.137931	0.000000	-1.000000	-1.000000	428287.000000	1772738254.060374
8243.505000	-28510.470000	-9602.595000	-3267.900000	-14283.180000	-7378.020000	22472.460000	27535.095000	-12.626468	1.552325	7.134689	2.670264	1.605914	0.511341	-2.511254	-26.274942	14.039200	9.339120	0.518840	0.979978	-0.194519	0.171997	-1.000000	-1.000000	-1.000000	-1.000000	-1.000000	-1.000000	-1.000000	66.137931	0.000000	-1.000000	-1.000000	428288.000000	1772738254.060391
8255.520000	-28516.005000	-9612.180000	-3279.600000	-14298.615000	-7402.905000	22468.815000	27540.990000	-3.984272	4.773591	4.173005	0.020998	-0.775849	-1.687992	-2.885196	-20.613246	14.039200	9.339120	0.518840	0.979978	-0.194519	0.171997	-1.000000	-1.000000	-1.000000	-1.000000	-1.000000	-1.000000	-1.000000	66.137931	0.000000	-1.000000	-1.000000	428289.000000	1772738254.064189
8242.470000	-28535.355000	-9633.510000	-3296.565000	-14307.300000	-7415.190000	22467.780000	27543.330000	10.074310	7.180669	0.337397	-1.838845	-2.011860	-2.365498	-0.854339	-4.605750	14.039200	9.339120	0.518840	0.979978	-0.194519	0.171997	-1.000000	-1.000000	-1.000000	-1.000000	-1.000000	-1.000000	-1.000000	66.137931	0.000000	-1.000000	-1.000000	428290.000000	1772738254.064195
8230.500000	-28524.690000	-9610.290000	-3268.530000	-14280.345000	-7383.195000	22484.070000	27564.345000	17.558332	3.443072	-5.253616	-4.297806	-3.295062	-2.954461	0.854844	9.754703	7.614740	10.407320	1.953280	0.977170	-0.189331	0.165954	-1.000000	-1.000000	-1.000000	-1.000000	-1.000000	-1.000000	-1.000000	66.137931	0.000000	-1.000000	-1.000000	428291.000000	1772738254.068218
8274.960000	-28478.655000	-9557.550000	-3213.360000	-14227.065000	-7327.755000	22515.525000	27615.780000	14.073421	-4.279955	-9.132620	-5.301017	-3.075516	-2.428644	1.681218	15.708620	7.614740	10.407320	1.953280	0.977170	-0.189331	0.165954	-1.000000	-1.000000	-1.000000	-1.000000	-1.000000	-1.000000	-1.000000	66.137931	0.000000	-1.000000	-1.000000	428292.000000	1772738254.068222
8273.745000	-28490.895000	-9567.855000	-3225.105000	-14241.330000	-7335.990000	22499.595000	27577.350000	4.599463	-9.572338	-7.319610	-2.347598	0.173931	0.420575	2.433870	14.065883	7.614740	10.407320	1.953280	0.977170	-0.189331	0.165954	-1.000000	-1.000000	-1.000000	-1.000000	-1.000000	-1.000000	-1.000000	66.137931	0.000000	-1.000000	-1.000000	428293.000000	1772738254.078716
8237.520000	-28546.245000	-9621.540000	-3279.735000	-14293.575000	-7376.175000	22463.685000	27501.480000	-4.186702	-9.361642	-1.405280	2.242226	3.680177	3.113045	2.208387	6.836274	7.614740	10.407320	1.953280	0.977170	-0.189331	0.165954	-1.000000	-1.000000	-1.000000	-1.000000	-1.000000	-1.000000	-1.000000	66.137931	0.000000	-1.000000	-1.000000	428294.000000	1772738254.078725
8233.065000	-28534.545000	-9602.370000	-3258.405000	-14274.495000	-7362.180000	22471.605000	27518.355000	-10.069191	-6.484517	2.455762	2.889511	2.449089	1.431968	-0.917840	-5.101292	7.614740	10.407320	1.953280	0.977170	-0.189331	0.165954	-1.000000	-1.000000	-1.000000	-1.000000	-1.000000	-1.000000	-1.000000	66.137931	0.000000	-1.000000	-1.000000	428295.000000	1772738254.078734
8209.395000	-28544.355000	-9618.255000	-3272.535000	-14279.355000	-7372.845000	22474.710000	27523.575000	-13.229180	-4.361693	1.595352	-1.097824	-2.903546	-3.552690	-5.524793	-16.290553	7.614740	10.407320	1.953280	0.977170	-0.189331	0.165954	-1.000000	-1.000000	-1.000000	-1.000000	-1.000000	-1.000000	-1.000000	66.137931	0.000000	-1.000000	-1.000000	428296.000000	1772738254.078737
8226.945000	-28541.655000	-9629.640000	-3289.770000	-14299.020000	-7399.620000	22468.500000	27525.510000	-13.837814	-3.632256	-1.635113	-5.339532	-6.913926	-6.650593	-7.698290	-19.010495	7.614740	10.407320	1.953280	0.977170	-0.189331	0.165954	-1.000000	-1.000000	-1.000000	-1.000000	-1.000000	-1.000000	-1.000000	66.137931	0.000000	-1.000000	-1.000000	428297.000000	1772738254.080355
8286.255000	-28507.320000	-9612.090000	-3278.250000	-14293.350000	-7404.885000	22475.430000	27566.460000	-10.804024	-2.547315	-3.951816	-6.356884	-6.446634	-5.344497	-5.741057	-11.203494	7.614740	10.407320	1.953280	0.977170	-0.189331	0.165954	-1.000000	-1.000000	-1.000000	-1.000000	-1.000000	-1.000000	-1.000000	66.137931	0.000000	-1.000000	-1.000000	428298.000000	1772738254.080360
8283.150000	-28503.720000	-9602.820000	-3265.965000	-14281.110000	-7390.485000	22482.630000	27558.810000	-2.209543	1.647751	-2.658628	-3.040878	-2.026316	-0.715865	-1.003190	2.591161	7.614740	10.407320	1.953280	0.977170	-0.189331	0.165954	-1.000000	-1.000000	-1.000000	-1.000000	-1.000000	-1.000000	-1.000000	66.137931	0.000000	-1.000000	-1.000000	428299.000000	1772738254.086612
8241.345000	-28539.900000	-9626.715000	-3283.245000	-14293.710000	-7390.845000	22473.900000	27522.405000	8.808918	7.542892	1.389062	2.300512	3.063784	3.914233	3.433817	13.363031	7.614740	10.407320	1.953280	0.977170	-0.189331	0.165954	-1.000000	-1.000000	-1.000000	-1.000000	-1.000000	-1.000000	-1.000000	66.137931	0.000000	-1.000000	-1.000000	428300.000000	1772738254.086618
8246.340000	-28534.815000	-9616.410000	-3269.070000	-14278.320000	-7369.830000	22478.760000	27528.525000	13.841550	9.091429	3.377466	4.681203	4.512548	4.830733	4.575968	13.413690	12.314820	15.305780	3.265640	0.984311	-0.192016	0.162719	-1.000000	-1.000000	-1.000000	-1.000000	-1.000000	-1.000000	-1.000000	66.137931	0.000000	-1.000000	-1.000000	428301.000000	1772738254.088198
8247.645000	-28529.595000	-9604.080000	-3251.295000	-14257.890000	-7342.965000	22484.385000	27534.510000	9.495549	4.822641	1.967406	3.279044	2.567165	2.646231	2.834249	5.260272	12.314820	15.305780	3.265640	0.984311	-0.192016	0.162719	-1.000000	-1.000000	-1.000000	-1.000000	-1.000000	-1.000000	-1.000000	66.137931	0.000000	-1.000000	-1.000000	428302.000000	1772738254.088207
8250.750000	-28519.020000	-9594.765000	-3244.275000	-14252.670000	-7339.455000	22483.755000	27540.360000	1.470977	0.627922	1.462583	2.642836	2.025443	1.830084	1.602190	-0.981503	12.314820	15.305780	3.265640	0.984311	-0.192016	0.162719	-1.000000	-1.000000	-1.000000	-1.000000	-1.000000	-1.000000	-1.000000	66.137931	0.000000	-1.000000	-1.000000	428303.000000	1772738254.092292
8250.210000	-28495.530000	-9570.150000	-3233.745000	-14252.445000	-7350.750000	22488.570000	27545.580000	-3.109464	1.163785	4.540964	5.065539	4.622949	3.811434	2.435833	-0.110923	12.314820	15.305780	3.265640	0.984311	-0.192016	0.162719	-1.000000	-1.000000	-1.000000	-1.000000	-1.000000	-1.000000	-1.000000	66.137931	0.000000	-1.000000	-1.000000	428304.000000	1772738254.092299
8235.585000	-28484.595000	-9561.465000	-3237.885000	-14258.340000	-7363.080000	22493.970000	27553.725000	-2.645608	4.926055	9.053798	7.939393	7.077404	5.537818	3.755454	4.313437	12.314820	15.305780	3.265640	0.984311	-0.192016	0.162719	-1.000000	-1.000000	-1.000000	-1.000000	-1.000000	-1.000000	-1.000000	66.137931	0.000000	-1.000000	-1.000000	428305.000000	1772738254.096296
8219.925000	-28526.040000	-9605.115000	-3268.530000	-14277.330000	-7385.580000	22494.645000	27541.530000	-1.151398	6.634275	10.450200	7.516699	6.028900	4.293475	3.687931	6.154606	12.314820	15.305780	3.265640	0.984311	-0.192016	0.162719	-1.000000	-1.000000	-1.000000	-1.000000	-1.000000	-1.000000	-1.000000	66.137931	0.000000	-1.000000	-1.000000	428306.000000	1772738254.096304
8248.230000	-28558.845000	-9632.115000	-3289.635000	-14292.810000	-7397.055000	22492.395000	27542.610000	-2.690350	1.343260	4.553886	1.619924	0.699407	-0.081531	1.555254	2.084003	12.314820	15.305780	3.265640	0.984311	-0.192016	0.162719	-1.000000	-1.000000	-1.000000	-1.000000	-1.000000	-1.000000	-1.000000	66.137931	0.000000	-1.000000	-1.000000	428307.000000	1772738254.100397
8258.580000	-28553.490000	-9616.320000	-3274.830000	-14282.145000	-7383.915000	22490.865000	27549.900000	-5.433043	-9.940977	-7.625517	-8.115863	-7.005807	-5.961037	-2.236388	-5.891826	12.314820	15.305780	3.265640	0.984311	-0.192016	0.162719	-1.000000	-1.000000	-1.000000	-1.000000	-1.000000	-1.000000	-1.000000	66.137931	0.000000	-1.000000	-1.000000	428308.000000	1772738254.100405
8233.605000	-28543.230000	-9603.000000	-3252.690000	-14249.880000	-7347.105000	22502.070000	27544.455000	-4.694161	-18.924701	-18.276648	-15.710446	-12.634140	-10.242017	-6.048643	-11.886651	12.314820	15.305780	3.265640	0.984311	-0.192016	0.162719	-1.000000	-1.000000	-1.000000	-1.000000	-1.000000	-1.000000	-1.000000	66.137931	0.000000	-1.000000	-1.000000	428309.000000	1772738254.104268
8222.130000	-28512.360000	-9586.395000	-3239.730000	-14234.715000	-7319.520000	22517.055000	27561.510000	-0.491566	-17.431543	-19.532561	-15.473336	-11.870921	-9.609337	-7.386451	-11.509983	12.314820	15.305780	3.265640	0.984311	-0.192016	0.162719	-1.000000	-1.000000	-1.000000	-1.000000	-1.000000	-1.000000	-1.000000	66.137931	0.000000	-1.000000	-1.000000	428310.000000	1772738254.104275
8268.570000	-28503.405000	-9598.860000	-3261.645000	-14264.370000	-7343.865000	22503.555000	27565.965000	4.008732	-4.721950	-10.517154	-7.496050	-5.104427	-4.056201	-4.978239	-4.748101	23.912420	23.668260	1.159760	0.995664	-0.201599	0.161071	-1.000000	-1.000000	-1.000000	-1.000000	-1.000000	-1.000000	-1.000000	66.137931	0.000000	-1.000000	-1.000000	428311.000000	1772738254.112661
8281.485000	-28526.580000	-9614.970000	-3268.305000	-14273.820000	-7365.510000	22482.945000	27522.585000	7.899902	11.432452	2.255574	2.398304	2.259022	1.972786	-0.813019	3.933563	23.912420	23.668260	1.159760	0.995664	-0.201599	0.161071	-1.000000	-1.000000	-1.000000	-1.000000	-1.000000	-1.000000	-1.000000	66.137931	0.000000	-1.000000	-1.000000	428312.000000	1772738254.112672
8296.155000	-28490.490000	-9588.465000	-3245.355000	-14255.910000	-7363.440000	22482.855000	27513.225000	11.045650	20.517606	10.834456	8.602513	5.788135	4.446538	1.596177	7.858386	23.912420	23.668260	1.159760	0.995664	-0.201599	0.161071	-1.000000	-1.000000	-1.000000	-1.000000	-1.000000	-1.000000	-1.000000	66.137931	0.000000	-1.000000	-1.000000	428313.000000	1772738254.116384
8217.405000	-28504.485000	-9626.670000	-3270.915000	-14279.355000	-7394.535000	22481.820000	27504.360000	10.604404	18.280435	12.222148	10.138694	5.864855	3.689288	1.155663	4.386190	23.912420	23.668260	1.159760	0.995664	-0.201599	0.161071	-1.000000	-1.000000	-1.000000	-1.000000	-1.000000	-1.000000	-1.000000	66.137931	0.000000	-1.000000	-1.000000	428314.000000	1772738254.116492
8227.980000	-28528.515000	-9685.125000	-3302.865000	-14299.920000	-7410.690000	22488.480000	27552.240000	2.965889	8.310759	7.761989	8.289424	4.418581	1.928189	-0.235846	-1.953227	23.912420	23.668260	1.159760	0.995664	-0.201599	0.161071	-1.000000	-1.000000	-1.000000	-1.000000	-1.000000	-1.000000	-1.000000	66.137931	0.000000	-1.000000	-1.000000	428315.000000	1772738254.116503
8220.375000	-28564.920000	-9664.830000	-3295.755000	-14292.270000	-7393.815000	22491.405000	27564.435000	-10.089470	-3.624730	0.396521	4.042166	2.250636	0.609163	-0.334704	-4.158096	23.912420	23.668260	1.159760	0.995664	-0.201599	0.161071	-1.000000	-1.000000	-1.000000	-1.000000	-1.000000	-1.000000	-1.000000	66.137931	0.000000	-1.000000	-1.000000	428316.000000	1772738254.116507
8261.820000	-28511.280000	-9566.460000	-3259.530000	-14276.385000	-7381.710000	22485.105000	27562.320000	-19.946234	-12.447375	-4.231930	-0.612062	0.071815	0.311351	1.218649	-0.004280	23.912420	23.668260	1.159760	0.995664	-0.201599	0.161071	-1.000000	-1.000000	-1.000000	-1.000000	-1.000000	-1.000000	-1.000000	66.137931	0.000000	-1.000000	-1.000000	428317.000000	1772738254.120168
8281.890000	-28490.220000	-9556.920000	-3244.275000	-14261.040000	-7361.775000	22490.100000	27558.900000	-17.967792	-13.894135	-0.802052	-2.947222	-1.358419	0.490761	2.820623	6.238983	23.912420	23.668260	1.159760	0.995664	-0.201599	0.161071	-1.000000	-1.000000	-1.000000	-1.000000	-1.000000	-1.000000	-1.000000	66.137931	0.000000	-1.000000	-1.000000	428318.000000	1772738254.120176
8260.650000	-28515.060000	-9585.945000	-3242.925000	-14249.790000	-7342.470000	22493.430000	27544.635000	-4.366753	-8.033793	7.795854	-2.103292	-1.507643	0.531579	3.043166	8.693047	23.912420	23.668260	1.159760	0.995664	-0.201599	0.161071	-1.000000	-1.000000	-1.000000	-1.000000	-1.000000	-1.000000	-1.000000	66.137931	0.000000	-1.000000	-1.000000	428319.000000	1772738254.124191
8237.295000	-28510.515000	-9581.085000	-3238.515000	-14245.020000	-7340.895000	22493.205000	27535.860000	10.135432	-0.377065	12.457005	0.559195	0.277798	1.309253	2.361451	5.109605	23.912420	23.668260	1.159760	0.995664	-0.201599	0.161071	-1.000000	-1.000000	-1.000000	-1.000000	-1.000000	-1.000000	-1.000000	66.137931	0.000000	-1.000000	-1.000000	428320.000000	1772738254.124197
8263.755000	-28490.985000	-9575.055000	-3238.560000	-14249.610000	-7353.810000	22492.080000	27542.520000	14.872722	4.307128	8.426853	2.833318	3.370097	3.391489	2.048866	-1.449145	37.905840	34.212920	5.112100	0.999936	-0.207153	0.158386	-1.000000	-1.000000	-1.000000	-1.000000	-1.000000	-1.000000	-1.000000	66.137931	0.000000	-1.000000	-1.000000	428321.000000	1772738254.128327
8302.905000	-28473.075000	-9564.165000	-3220.020000	-14224.140000	-7336.890000	22490.730000	27559.440000	10.440481	5.486864	-1.343126	3.008087	5.479595	5.397045	2.148374	-5.572740	37.905840	34.212920	5.112100	0.999936	-0.207153	0.158386	-1.000000	-1.000000	-1.000000	-1.000000	-1.000000	-1.000000	-1.000000	66.137931	0.000000	-1.000000	-1.000000	428322.000000	1772738254.128342
8325.360000	-28433.655000	-9521.235000	-3182.130000	-14192.190000	-7316.865000	22510.035000	27580.815000	5.784348	5.396206	-9.262287	2.209269	6.010066	6.433045	1.815420	-4.629972	37.905840	34.212920	5.112100	0.999936	-0.207153	0.158386	-1.000000	-1.000000	-1.000000	-1.000000	-1.000000	-1.000000	-1.000000	66.137931	0.000000	-1.000000	-1.000000	428323.000000	1772738254.132233
8279.100000	-28479.420000	-9561.060000	-3229.065000	-14246.550000	-7366.950000	22510.260000	27561.015000	5.185766	6.307499	-9.044412	2.641288	5.555533	5.986179	0.824143	-1.218839	37.905840	34.212920	5.112100	0.999936	-0.207153	0.158386	-1.000000	-1.000000	-1.000000	-1.000000	-1.000000	-1.000000	-1.000000	66.137931	0.000000	-1.000000	-1.000000	428324.000000	1772738254.132239
8245.395000	-28506.420000	-9597.510000	-3261.285000	-14270.445000	-7382.025000	22493.745000	27525.960000	3.331987	6.391560	-4.181190	1.768595	1.677864	1.271006	-0.819461	-0.574377	37.905840	34.212920	5.112100	0.999936	-0.207153	0.158386	-1.000000	-1.000000	-1.000000	-1.000000	-1.000000	-1.000000	-1.000000	66.137931	0.000000	-1.000000	-1.000000	428325.000000	1772738254.136194
8266.365000	-28505.790000	-9607.230000	-3264.300000	-14264.370000	-7366.995000	22490.100000	27526.410000	-4.715834	1.199243	-4.851801	-4.924242	-7.583718	-8.654680	-3.326683	-4.533309	37.905840	34.212920	5.112100	0.999936	-0.207153	0.158386	-1.000000	-1.000000	-1.000000	-1.000000	-1.000000	-1.000000	-1.000000	66.137931	0.000000	-1.000000	-1.000000	428326.000000	1772738254.136200
8236.890000	-28530.630000	-9599.445000	-3249.315000	-14251.365000	-7349.580000	22483.035000	27503.685000	-15.304075	-9.207360	-13.044875	-15.115879	-17.721786	-18.391459	-6.126232	-9.327321	37.905840	34.212920	5.112100	0.999936	-0.207153	0.158386	-1.000000	-1.000000	-1.000000	-1.000000	-1.000000	-1.000000	-1.000000	66.137931	0.000000	-1.000000	-1.000000	428327.000000	1772738254.140118
8208.630000	-28542.015000	-9587.520000	-3232.845000	-14235.795000	-7334.730000	22484.070000	27513.945000	-21.092335	-18.592811	-18.877333	-20.078400	-20.837871	-20.538400	-7.596621	-9.869277	37.905840	34.212920	5.112100	0.999936	-0.207153	0.158386	-1.000000	-1.000000	-1.000000	-1.000000	-1.000000	-1.000000	-1.000000	66.137931	0.000000	-1.000000	-1.000000	428328.000000	1772738254.140126
8239.635000	-28530.405000	-9593.730000	-3244.455000	-14248.890000	-7351.515000	22490.235000	27566.370000	-17.980972	-20.032979	-13.391843	-14.095759	-13.374577	-12.482150	-6.039111	-3.348919	37.905840	34.212920	5.112100	0.999936	-0.207153	0.158386	-1.000000	-1.000000	-1.000000	-1.000000	-1.000000	-1.000000	-1.000000	66.137931	0.000000	-1.000000	-1.000000	428329.000000	1772738254.144458
8198.820000	-28545.345000	-9607.860000	-3253.905000	-14255.955000	-7366.680000	22480.920000	27532.035000	-7.296832	-12.024498	1.186514	-0.537849	0.386173	1.325603	-1.356664	8.448224	37.905840	34.212920	5.112100	0.999936	-0.207153	0.158386	-1.000000	-1.000000	-1.000000	-1.000000	-1.000000	-1.000000	-1.000000	66.137931	0.000000	-1.000000	-1.000000	428330.000000	1772738254.144465
8145.270000	-28528.920000	-9585.405000	-3231.855000	-14235.795000	-7359.345000	22482.675000	27512.325000	3.960617	0.596415	15.500736	12.153028	12.345755	12.999608	4.028079	17.453426	51.960300	45.047520	15.122660	1.005002	-0.209167	0.154419	-1.000000	-1.000000	-1.000000	-1.000000	-1.000000	-1.000000	-1.000000	66.137931	0.000000	-1.000000	-1.000000	428331.000000	1772738254.148318
8172.810000	-28509.705000	-9558.315000	-3206.340000	-14215.815000	-7339.410000	22492.035000	27514.305000	9.331422	12.107942	23.148868	18.726305	17.838134	17.888505	7.065841	15.836094	51.960300	45.047520	15.122660	1.005002	-0.209167	0.154419	-1.000000	-1.000000	-1.000000	-1.000000	-1.000000	-1.000000	-1.000000	66.137931	0.000000	-1.000000	-1.000000	428332.000000	1772738254.148325
8249.265000	-28512.135000	-9580.905000	-3227.715000	-14230.845000	-7340.805000	22513.500000	27530.370000	11.506606	20.239241	23.579103	19.359822	17.666639	16.980316	7.100226	5.264523	51.960300	45.047520	15.122660	1.005002	-0.209167	0.154419	-1.000000	-1.000000	-1.000000	-1.000000	-1.000000	-1.000000	-1.000000	66.137931	0.000000	-1.000000	-1.000000	428333.000000	1772738254.152149
8264.385000	-28534.095000	-9651.375000	-3312.180000	-14319.765000	-7422.615000	22553.010000	27547.920000	17.306233	23.510887	16.851780	14.346101	12.652863	11.643519	6.456902	-4.819280	51.960300	45.047520	15.122660	1.005002	-0.209167	0.154419	-1.000000	-1.000000	-1.000000	-1.000000	-1.000000	-1.000000	-1.000000	66.137931	0.000000	-1.000000	-1.000000	428334.000000	1772738254.152154
8366.940000	-28411.785000	-9515.970000	-3177.495000	-14202.045000	-7313.625000	22581.765000	27570.150000	26.321093	20.761761	4.339061	4.151699	2.874901	2.016023	7.498771	-7.011811	51.960300	45.047520	15.122660	1.005002	-0.209167	0.154419	-1.000000	-1.000000	-1.000000	-1.000000	-1.000000	-1.000000	-1.000000	66.137931	0.000000	-1.000000	-1.000000	428335.000000	1772738254.164327
8390.025000	-28389.780000	-9461.880000	-3103.425000	-14128.245000	-7239.150000	22605.030000	27577.080000	32.407527	15.352847	-5.455371	-4.013591	-5.374803	-6.343777	9.508050	-1.532464	51.960300	45.047520	15.122660	1.005002	-0.209167	0.154419	-1.000000	-1.000000	-1.000000	-1.000000	-1.000000	-1.000000	-1.000000	66.137931	0.000000	-1.000000	-1.000000	428336.000000	1772738254.164336
8280.045000	-28503.990000	-9561.645000	-3184.695000	-14184.270000	-7291.710000	22608.945000	27558.630000	28.052030	8.948927	-6.553626	-3.974818	-5.343549	-6.786714	9.244419	5.102537	51.960300	45.047520	15.122660	1.005002	-0.209167	0.154419	-1.000000	-1.000000	-1.000000	-1.000000	-1.000000	-1.000000	-1.000000	66.137931	0.000000	-1.000000	-1.000000	428337.000000	1772738254.164346
8010.855000	-28674.180000	-9681.570000	-3280.545000	-14241.015000	-7341.660000	22608.675000	27488.070000	3.517620	-5.828846	-6.991073	-2.519097	-1.589877	-2.688868	4.078665	4.581818	51.960300	45.047520	15.122660	1.005002	-0.209167	0.154419	-1.000000	-1.000000	-1.000000	-1.000000	-1.000000	-1.000000	-1.000000	66.137931	0.000000	-1.000000	-1.000000	428338.000000	1772738254.164351
8044.110000	-28652.355000	-9673.065000	-3305.565000	-14267.250000	-7381.080000	22607.460000	27511.245000	-40.328961	-32.124619	-15.983141	-9.486930	-3.434984	-2.617447	-5.320495	-5.235319	51.960300	45.047520	15.122660	1.005002	-0.209167	0.154419	-1.000000	-1.000000	-1.000000	-1.000000	-1.000000	-1.000000	-1.000000	66.137931	0.000000	-1.000000	-1.000000	428339.000000	1772738254.165315
8206.110000	-28542.915000	-9609.030000	-3289.095000	-14288.580000	-7420.680000	22600.035000	27557.190000	-75.789615	-53.753671	-27.459726	-22.469406	-12.418347	-9.396404	-15.202218	-15.583310	51.960300	45.047520	15.122660	1.005002	-0.209167	0.154419	-1.000000	-1.000000	-1.000000	-1.000000	-1.000000	-1.000000	-1.000000	66.137931	0.000000	-1.000000	-1.000000	428340.000000	1772738254.165323
8290.485000	-28453.680000	-9562.320000	-3239.505000	-14266.080000	-7407.990000	22593.645000	27532.035000	-68.919946	-47.496712	-26.513727	-28.652272	-21.126794	-18.036888	-21.544544	-16.156948	84.967680	63.145880	20.524700	1.016843	-0.218810	0.154052	-1.000000	-1.000000	-1.000000	-1.000000	-1.000000	-1.000000	-1.000000	66.137931	0.000000	-1.000000	-1.000000	428341.000000	1772738254.168276
8259.795000	-28510.470000	-9637.380000	-3284.640000	-14292.405000	-7413.840000	22652.505000	27524.655000	-19.285242	-10.151118	-7.918804	-18.142751	-19.884618	-19.588955	-21.338311	-7.070172	84.967680	63.145880	20.524700	1.016843	-0.218810	0.154052	-1.000000	-1.000000	-1.000000	-1.000000	-1.000000	-1.000000	-1.000000	66.137931	0.000000	-1.000000	-1.000000	428342.000000	1772738254.168283
8322.885000	-28530.990000	-9639.405000	-3262.230000	-14278.545000	-7393.320000	22740.120000	27559.305000	38.701499	33.880680	16.686612	5.346869	-5.976107	-8.946303	-12.282851	4.131038	84.967680	63.145880	20.524700	1.016843	-0.218810	0.154052	-1.000000	-1.000000	-1.000000	-1.000000	-1.000000	-1.000000	-1.000000	66.137931	0.000000	-1.000000	-1.000000	428343.000000	1772738254.174117
8202.420000	-28534.725000	-9653.850000	-3217.140000	-14240.565000	-7348.140000	22780.620000	27536.085000	68.121164	54.183295	29.297653	26.683898	12.170420	8.545190	4.554002	11.418681	84.967680	63.145880	20.524700	1.016843	-0.218810	0.154052	-1.000000	-1.000000	-1.000000	-1.000000	-1.000000	-1.000000	-1.000000	66.137931	0.000000	-1.000000	-1.000000	428344.000000	1772738254.174124
8159.580000	-28557.045000	-9687.060000	-3275.640000	-14240.340000	-7335.090000	22810.770000	27515.070000	54.369697	41.071835	21.790347	32.182244	22.784368	21.824806	21.877434	12.080355	84.967680	63.145880	20.524700	1.016843	-0.218810	0.154052	-1.000000	-1.000000	-1.000000	-1.000000	-1.000000	-1.000000	-1.000000	66.137931	0.000000	-1.000000	-1.000000	428345.000000	1772738254.176819
8297.460000	-28530.630000	-9657.675000	-3341.430000	-14270.760000	-7361.595000	22842.900000	27540.765000	15.651731	11.471915	4.073928	20.280514	21.954160	25.130761	30.341337	7.216251	84.967680	63.145880	20.524700	1.016843	-0.218810	0.154052	-1.000000	-1.000000	-1.000000	-1.000000	-1.000000	-1.000000	-1.000000	66.137931	0.000000	-1.000000	-1.000000	428346.000000	1772738254.176828
8418.870000	-28454.265000	-9572.085000	-3274.470000	-14229.810000	-7333.875000	22845.690000	27591.885000	-8.883674	-8.034471	-4.290857	2.417463	14.910769	20.774789	25.636189	3.033470	84.967680	63.145880	20.524700	1.016843	-0.218810	0.154052	-1.000000	-1.000000	-1.000000	-1.000000	-1.000000	-1.000000	-1.000000	66.137931	0.000000	-1.000000	-1.000000	428347.000000	1772738254.180436
8390.970000	-28388.340000	-9449.415000	-3139.740000	-14125.455000	-7264.125000	22640.580000	27587.880000	-0.858661	-5.633981	6.374286	-5.461520	9.959692	14.776956	7.508696	4.173409	84.967680	63.145880	20.524700	1.016843	-0.218810	0.154052	-1.000000	-1.000000	-1.000000	-1.000000	-1.000000	-1.000000	-1.000000	66.137931	0.000000	-1.000000	-1.000000	428348.000000	1772738254.180444
8267.805000	-28494.540000	-9605.430000	-3292.695000	-14279.985000	-7411.455000	22472.820000	27561.600000	14.579877	5.001575	23.455045	0.421087	9.015405	9.261264	-23.588066	6.373435	84.967680	63.145880	20.524700	1.016843	-0.218810	0.154052	-1.000000	-1.000000	-1.000000	-1.000000	-1.000000	-1.000000	-1.000000	66.137931	0.000000	-1.000000	-1.000000	428349.000000	1772738254.184111
8299.935000	-28492.875000	-9629.865000	-3296.340000	-14300.820000	-7423.380000	22400.145000	27571.185000	4.193866	1.994078	23.261525	5.777581	3.448679	-1.307569	-59.385057	3.157686	84.967680	63.145880	20.524700	1.016843	-0.218810	0.154052	-1.000000	-1.000000	-1.000000	-1.000000	-1.000000	-1.000000	-1.000000	66.137931	0.000000	-1.000000	-1.000000	428350.000000	1772738254.184117
