Channel1	Channel2	Channel3	Channel4	Channel5	Channel6	Channel7	Channel8	FilteredChannel1	FilteredChannel2	FilteredChannel3	FilteredChannel4	FilteredChannel5	FilteredChannel6	FilteredChannel7	FilteredChannel8	GyroX	GyroY	GyroZ	AccX	AccY	AccZ	PPG1	PPG2	rawPPG1	rawPPG2	rawPPG3	Hr	Hrv	Battery	Trigger	PhysicalTrigger	AutoTrigger	NumMeasurements	Timestamp
11557.755000	18564.345000	25200.630000	20739.960000	-7513.200000	-4311.540000	3196.260000	13580.730000	0.033648	1.092814	1.720608	1.733420	1.682876	2.410992	2.107819	-1.946112	-3.464020	5.859840	-1.861720	0.966916	-0.160522	0.191894	-1.000000	-1.000000	-1.000000	-1.000000	-1.000000	-1.000000	-1.000000	82.275862	0.000000	-1.000000	-1.000000	1055463.000000	1770063607.013016
11552.445000	18562.230000	25197.390000	20735.145000	-7516.845000	-4314.195000	3190.950000	13573.125000	0.710441	0.964290	1.626277	2.236052	4.139458	4.272890	1.907200	-0.812020	-3.464020	5.859840	-1.861720	0.966916	-0.160522	0.191894	-1.000000	-1.000000	-1.000000	-1.000000	-1.000000	-1.000000	-1.000000	82.275862	0.000000	-1.000000	-1.000000	1055464.000000	1770063607.013021
11560.005000	18577.305000	25210.980000	20744.055000	-7522.920000	-4314.015000	3196.485000	13574.610000	1.319375	1.250849	1.649196	2.275062	5.353714	4.698946	0.983305	-0.208618	-3.464020	5.859840	-1.861720	0.966916	-0.160522	0.191894	-1.000000	-1.000000	-1.000000	-1.000000	-1.000000	-1.000000	-1.000000	82.275862	0.000000	-1.000000	-1.000000	1055465.000000	1770063607.013027
11558.520000	18572.400000	25203.420000	20735.190000	-7541.280000	-4325.670000	3192.840000	13573.305000	1.333234	1.601849	1.355828	1.231173	3.234842	2.616651	-0.372117	-0.416406	-3.464020	5.859840	-1.861720	0.966916	-0.160522	0.191894	-1.000000	-1.000000	-1.000000	-1.000000	-1.000000	-1.000000	-1.000000	82.275862	0.000000	-1.000000	-1.000000	1055466.000000	1770063607.013032
11552.040000	18561.330000	25192.755000	20728.350000	-7533.090000	-4317.705000	3195.990000	13571.595000	0.557879	1.251236	0.140784	-1.085131	-2.131950	-1.551791	-1.618752	-1.016527	-3.464020	5.859840	-1.861720	0.966916	-0.160522	0.191894	-1.000000	-1.000000	-1.000000	-1.000000	-1.000000	-1.000000	-1.000000	82.275862	0.000000	-1.000000	-1.000000	1055467.000000	1770063607.018411
11549.205000	18546.705000	25178.895000	20719.530000	-7528.995000	-4312.215000	3199.455000	13568.895000	-1.077550	-0.993809	-2.629878	-4.208942	-7.413048	-5.244515	-2.156453	-1.576430	-3.464020	5.859840	-1.861720	0.966916	-0.160522	0.191894	-1.000000	-1.000000	-1.000000	-1.000000	-1.000000	-1.000000	-1.000000	82.275862	0.000000	-1.000000	-1.000000	1055468.000000	1770063607.018418
11553.660000	18554.085000	25189.110000	20729.160000	-7518.915000	-4309.650000	3200.445000	13571.145000	-2.832912	-4.718526	-6.023328	-6.535800	-8.649724	-5.801006	-1.588981	-1.604938	-3.464020	5.859840	-1.861720	0.966916	-0.160522	0.191894	-1.000000	-1.000000	-1.000000	-1.000000	-1.000000	-1.000000	-1.000000	82.275862	0.000000	-1.000000	-1.000000	1055469.000000	1770063607.026349
11563.560000	18575.640000	25204.905000	20734.110000	-7526.070000	-4326.570000	3192.705000	13573.485000	-3.260065	-7.011483	-7.308812	-6.171038	-5.091369	-3.361062	-0.428163	-0.657988	-3.464020	5.859840	-1.861720	0.966916	-0.160522	0.191894	-1.000000	-1.000000	-1.000000	-1.000000	-1.000000	-1.000000	-1.000000	82.275862	0.000000	-1.000000	-1.000000	1055470.000000	1770063607.026361
11554.470000	18556.650000	25181.595000	20711.385000	-7545.735000	-4340.340000	3189.420000	13573.305000	-1.856608	-5.502684	-4.932284	-3.094503	0.146928	-0.604262	0.172014	0.981453	-5.020540	5.768280	-2.197440	0.963804	-0.161865	0.194580	-1.000000	-1.000000	-1.000000	-1.000000	-1.000000	-1.000000	-1.000000	82.275862	0.000000	-1.000000	-1.000000	1055471.000000	1770063607.027878
11539.080000	18529.695000	25160.580000	20703.825000	-7547.895000	-4331.430000	3189.195000	13565.205000	0.014668	-1.752366	-0.924757	0.437004	3.263689	0.595946	-0.140829	2.305505	-5.020540	5.768280	-2.197440	0.963804	-0.161865	0.194580	-1.000000	-1.000000	-1.000000	-1.000000	-1.000000	-1.000000	-1.000000	82.275862	0.000000	-1.000000	-1.000000	1055472.000000	1770063607.027888
11546.505000	18541.755000	25174.035000	20714.985000	-7551.000000	-4327.380000	3193.020000	13565.430000	0.741203	0.822379	1.715499	2.627790	3.336632	1.019159	-0.495168	2.540134	-5.020540	5.768280	-2.197440	0.963804	-0.161865	0.194580	-1.000000	-1.000000	-1.000000	-1.000000	-1.000000	-1.000000	-1.000000	82.275862	0.000000	-1.000000	-1.000000	1055473.000000	1770063607.032634
11540.970000	18544.275000	25177.680000	20720.610000	-7534.620000	-4320.720000	3192.345000	13556.160000	0.353922	1.518002	2.736562	3.830095	2.426495	2.118853	-0.116612	1.648538	-5.020540	5.768280	-2.197440	0.963804	-0.161865	0.194580	-1.000000	-1.000000	-1.000000	-1.000000	-1.000000	-1.000000	-1.000000	82.275862	0.000000	-1.000000	-1.000000	1055474.000000	1770063607.032644
11541.510000	18550.755000	25185.420000	20730.420000	-7523.865000	-4312.620000	3199.455000	13561.830000	-0.101468	2.151409	3.744121	5.023202	2.941087	3.975065	0.851496	0.117950	-5.020540	5.768280	-2.197440	0.963804	-0.161865	0.194580	-1.000000	-1.000000	-1.000000	-1.000000	-1.000000	-1.000000	-1.000000	82.275862	0.000000	-1.000000	-1.000000	1055475.000000	1770063607.033105
11548.755000	18562.995000	25196.535000	20739.195000	-7518.240000	-4309.740000	3202.875000	13573.845000	0.231205	4.110677	5.635401	6.359819	5.016529	5.413707	1.866345	-0.986549	-5.020540	5.768280	-2.197440	0.963804	-0.161865	0.194580	-1.000000	-1.000000	-1.000000	-1.000000	-1.000000	-1.000000	-1.000000	82.275862	0.000000	-1.000000	-1.000000	1055476.000000	1770063607.033114
11553.525000	18560.565000	25194.510000	20730.735000	-7537.005000	-4320.720000	3201.210000	13583.250000	1.646679	6.928825	7.667431	6.865312	6.043937	4.820308	2.324903	-0.495370	-5.020540	5.768280	-2.197440	0.963804	-0.161865	0.194580	-1.000000	-1.000000	-1.000000	-1.000000	-1.000000	-1.000000	-1.000000	82.275862	0.000000	-1.000000	-1.000000	1055477.000000	1770063607.037032
11558.610000	18552.825000	25185.780000	20723.220000	-7548.030000	-4333.590000	3189.735000	13580.280000	3.391848	8.073357	7.488429	4.760474	3.236977	1.394599	1.607311	1.372393	-5.020540	5.768280	-2.197440	0.963804	-0.161865	0.194580	-1.000000	-1.000000	-1.000000	-1.000000	-1.000000	-1.000000	-1.000000	82.275862	0.000000	-1.000000	-1.000000	1055478.000000	1770063607.037040
11558.295000	18557.010000	25188.300000	20725.605000	-7538.580000	-4327.605000	3193.065000	13577.985000	3.984197	5.076638	3.286669	-0.399524	-2.724870	-3.347201	-0.254721	2.725017	-5.020540	5.768280	-2.197440	0.963804	-0.161865	0.194580	-1.000000	-1.000000	-1.000000	-1.000000	-1.000000	-1.000000	-1.000000	82.275862	0.000000	-1.000000	-1.000000	1055479.000000	1770063607.041039
11555.370000	18554.310000	25188.525000	20729.880000	-7525.620000	-4313.745000	3200.985000	13579.650000	2.738572	-0.898271	-3.061720	-5.832178	-7.313402	-6.012692	-1.985416	2.030743	-5.020540	5.768280	-2.197440	0.963804	-0.161865	0.194580	-1.000000	-1.000000	-1.000000	-1.000000	-1.000000	-1.000000	-1.000000	82.275862	0.000000	-1.000000	-1.000000	1055480.000000	1770063607.041049
11559.960000	18561.780000	25196.130000	20735.685000	-7521.120000	-4312.395000	3199.860000	13581.135000	0.494336	-5.684079	-7.240810	-7.872834	-6.698822	-4.623502	-2.162864	-0.169114	-1.358140	5.463080	-3.189340	0.964963	-0.164856	0.196655	-1.000000	-1.000000	-1.000000	-1.000000	-1.000000	-1.000000	-1.000000	82.275862	0.000000	-1.000000	-1.000000	1055481.000000	1770063607.045854
11562.660000	18565.560000	25199.865000	20740.545000	-7515.405000	-4307.400000	3202.920000	13580.955000	-1.465739	-6.653628	-7.151025	-5.825838	-1.685417	-0.732242	-0.878658	-2.166339	-1.358140	5.463080	-3.189340	0.964963	-0.164856	0.196655	-1.000000	-1.000000	-1.000000	-1.000000	-1.000000	-1.000000	-1.000000	82.275862	0.000000	-1.000000	-1.000000	1055482.000000	1770063607.045866
11555.865000	18554.760000	25189.515000	20732.535000	-7523.415000	-4311.270000	3201.300000	13575.870000	-2.613167	-4.779453	-4.415327	-2.127937	3.420493	2.455664	0.559692	-2.943464	-1.358140	5.463080	-3.189340	0.964963	-0.164856	0.196655	-1.000000	-1.000000	-1.000000	-1.000000	-1.000000	-1.000000	-1.000000	82.275862	0.000000	-1.000000	-1.000000	1055483.000000	1770063607.048941
11547.045000	18547.425000	25182.585000	20726.505000	-7532.955000	-4320.180000	3198.690000	13568.715000	-3.253687	-2.718167	-1.976198	0.257274	4.528344	2.723673	0.964424	-2.861425	-1.358140	5.463080	-3.189340	0.964963	-0.164856	0.196655	-1.000000	-1.000000	-1.000000	-1.000000	-1.000000	-1.000000	-1.000000	82.275862	0.000000	-1.000000	-1.000000	1055484.000000	1770063607.048949
11556.135000	18560.655000	25195.545000	20735.640000	-7526.880000	-4320.450000	3200.355000	13575.420000	-3.708463	-1.868265	-1.160274	0.336685	1.071375	0.087590	0.062028	-2.800030	-1.358140	5.463080	-3.189340	0.964963	-0.164856	0.196655	-1.000000	-1.000000	-1.000000	-1.000000	-1.000000	-1.000000	-1.000000	82.275862	0.000000	-1.000000	-1.000000	1055485.000000	1770063607.053929
11557.575000	18560.835000	25194.015000	20730.510000	-7530.795000	-4321.485000	3198.195000	13575.420000	-3.558778	-1.311737	-0.883107	-0.417650	-3.484348	-3.072631	-1.246706	-2.743780	-1.358140	5.463080	-3.189340	0.964963	-0.164856	0.196655	-1.000000	-1.000000	-1.000000	-1.000000	-1.000000	-1.000000	-1.000000	82.275862	0.000000	-1.000000	-1.000000	1055486.000000	1770063607.053936
11556.675000	18555.345000	25188.570000	20728.710000	-7525.350000	-4310.370000	3201.345000	13573.620000	-2.347320	0.036594	0.113880	-0.322378	-5.158319	-3.742973	-1.591943	-1.917555	-1.358140	5.463080	-3.189340	0.964963	-0.164856	0.196655	-1.000000	-1.000000	-1.000000	-1.000000	-1.000000	-1.000000	-1.000000	82.275862	0.000000	-1.000000	-1.000000	1055487.000000	1770063607.057719
11557.845000	18561.645000	25193.160000	20732.940000	-7523.415000	-4311.315000	3200.985000	13565.295000	-0.348818	1.787910	1.654375	0.837602	-3.032018	-1.068247	-0.522867	-0.170991	-1.358140	5.463080	-3.189340	0.964963	-0.164856	0.196655	-1.000000	-1.000000	-1.000000	-1.000000	-1.000000	-1.000000	-1.000000	82.275862	0.000000	-1.000000	-1.000000	1055488.000000	1770063607.057732
11555.190000	18557.955000	25189.785000	20728.980000	-7528.545000	-4317.300000	3199.545000	13559.895000	1.841807	3.199888	3.034793	2.306307	0.703467	2.598015	0.994820	1.630953	-1.358140	5.463080	-3.189340	0.964963	-0.164856	0.196655	-1.000000	-1.000000	-1.000000	-1.000000	-1.000000	-1.000000	-1.000000	82.275862	0.000000	-1.000000	-1.000000	1055489.000000	1770063607.060941
11545.965000	18550.350000	25183.620000	20724.390000	-7533.090000	-4323.735000	3192.390000	13558.770000	3.299346	3.549755	3.407349	2.872039	3.094203	3.974738	1.593956	2.574642	-1.358140	5.463080	-3.189340	0.964963	-0.164856	0.196655	-1.000000	-1.000000	-1.000000	-1.000000	-1.000000	-1.000000	-1.000000	82.275862	0.000000	-1.000000	-1.000000	1055490.000000	1770063607.060951
11550.105000	18548.055000	25180.875000	20719.485000	-7540.695000	-4331.925000	3188.565000	13574.250000	3.135337	2.138769	2.063752	1.676404	2.720043	1.960721	0.723657	2.809931	-4.196500	5.386780	-2.929920	0.964414	-0.160095	0.197753	-1.000000	-1.000000	-1.000000	-1.000000	-1.000000	-1.000000	-1.000000	82.275862	0.000000	-1.000000	-1.000000	1055491.000000	1770063607.065044
11555.730000	18551.835000	25181.640000	20718.090000	-7543.710000	-4332.690000	3189.015000	13581.810000	1.915591	-0.262917	-0.246329	-0.607655	0.401133	-1.743827	-0.947215	3.368063	-4.196500	5.386780	-2.929920	0.964414	-0.160095	0.197753	-1.000000	-1.000000	-1.000000	-1.000000	-1.000000	-1.000000	-1.000000	82.275862	0.000000	-1.000000	-1.000000	1055492.000000	1770063607.065055
11549.475000	18547.200000	25180.290000	20720.430000	-7536.330000	-4323.240000	3194.190000	13578.570000	1.012720	-1.858557	-1.822672	-2.265252	-1.672677	-4.120613	-2.000557	4.356015	-4.196500	5.386780	-2.929920	0.964414	-0.160095	0.197753	-1.000000	-1.000000	-1.000000	-1.000000	-1.000000	-1.000000	-1.000000	82.275862	0.000000	-1.000000	-1.000000	1055493.000000	1770063607.073563
11545.920000	18550.305000	25184.880000	20726.190000	-7531.830000	-4320.000000	3194.190000	13569.930000	0.477555	-2.027561	-1.937488	-2.141495	-1.633151	-3.076435	-1.442384	4.105678	-4.196500	5.386780	-2.929920	0.964414	-0.160095	0.197753	-1.000000	-1.000000	-1.000000	-1.000000	-1.000000	-1.000000	-1.000000	82.275862	0.000000	-1.000000	-1.000000	1055494.000000	1770063607.073572
11546.145000	18548.685000	25183.395000	20725.335000	-7532.325000	-4321.755000	3191.580000	13562.775000	-0.505399	-1.318046	-0.964613	-0.319868	0.605477	0.763775	0.424355	1.195256	-4.196500	5.386780	-2.929920	0.964414	-0.160095	0.197753	-1.000000	-1.000000	-1.000000	-1.000000	-1.000000	-1.000000	-1.000000	82.275862	0.000000	-1.000000	-1.000000	1055495.000000	1770063607.074366
11550.285000	18558.000000	25191.360000	20729.385000	-7533.585000	-4325.625000	3190.185000	13564.395000	-1.740706	-0.142737	0.559092	2.105702	3.238718	4.450262	2.264065	-3.311703	-4.196500	5.386780	-2.929920	0.964414	-0.160095	0.197753	-1.000000	-1.000000	-1.000000	-1.000000	-1.000000	-1.000000	-1.000000	82.275862	0.000000	-1.000000	-1.000000	1055496.000000	1770063607.074373
11563.020000	18582.885000	25214.130000	20741.985000	-7534.215000	-4333.095000	3186.135000	13572.045000	-1.975332	1.623217	2.393208	3.842152	4.114170	5.193637	2.769571	-6.381873	-4.196500	5.386780	-2.929920	0.964414	-0.160095	0.197753	-1.000000	-1.000000	-1.000000	-1.000000	-1.000000	-1.000000	-1.000000	82.275862	0.000000	-1.000000	-1.000000	1055497.000000	1770063607.077313
11564.820000	18577.620000	25211.700000	20744.010000	-7525.350000	-4318.065000	3197.700000	13583.025000	-0.381795	3.909776	4.256048	4.258644	2.747514	2.844267	1.841552	-5.599070	-4.196500	5.386780	-2.929920	0.964414	-0.160095	0.197753	-1.000000	-1.000000	-1.000000	-1.000000	-1.000000	-1.000000	-1.000000	82.275862	0.000000	-1.000000	-1.000000	1055498.000000	1770063607.077337
11555.460000	18558.495000	25193.250000	20732.985000	-7526.970000	-4313.430000	3202.425000	13585.590000	2.089061	5.092450	4.760702	3.110312	0.498680	-0.095883	0.749528	-1.381143	-4.196500	5.386780	-2.929920	0.964414	-0.160095	0.197753	-1.000000	-1.000000	-1.000000	-1.000000	-1.000000	-1.000000	-1.000000	82.275862	0.000000	-1.000000	-1.000000	1055499.000000	1770063607.089568
11560.950000	18556.470000	25188.345000	20728.170000	-7530.705000	-4319.820000	3193.785000	13572.945000	3.305121	3.080895	2.247343	0.315932	-1.218064	-1.388085	0.425960	2.963114	-4.196500	5.386780	-2.929920	0.964414	-0.160095	0.197753	-1.000000	-1.000000	-1.000000	-1.000000	-1.000000	-1.000000	-1.000000	82.275862	0.000000	-1.000000	-1.000000	1055500.000000	1770063607.089579
11555.280000	18548.460000	25183.710000	20727.855000	-7520.220000	-4308.750000	3200.940000	13565.610000	2.172711	-1.768033	-2.696739	-3.258865	-1.931869	-1.076837	0.326841	3.898540	-2.227960	6.790700	-2.060100	0.966245	-0.161560	0.198242	-1.000000	-1.000000	-1.000000	-1.000000	-1.000000	-1.000000	-1.000000	82.275862	0.000000	-1.000000	-1.000000	1055501.000000	1770063607.089590
11535.300000	18533.205000	25171.695000	20716.830000	-7524.450000	-4314.015000	3195.495000	13557.735000	-0.770508	-6.860670	-7.441995	-6.072962	-1.852296	-0.457573	-0.365539	0.914712	-2.227960	6.790700	-2.060100	0.966245	-0.161560	0.198242	-1.000000	-1.000000	-1.000000	-1.000000	-1.000000	-1.000000	-1.000000	82.275862	0.000000	-1.000000	-1.000000	1055502.000000	1770063607.089596
11543.580000	18540.855000	25176.285000	20717.370000	-7528.140000	-4321.350000	3190.995000	13562.685000	-4.126836	-9.562948	-9.547950	-7.065492	-1.659017	-0.680900	-1.680437	-3.127329	-2.227960	6.790700	-2.060100	0.966245	-0.161560	0.198242	-1.000000	-1.000000	-1.000000	-1.000000	-1.000000	-1.000000	-1.000000	82.275862	0.000000	-1.000000	-1.000000	1055503.000000	1770063607.089602
11541.285000	18539.325000	25173.495000	20715.930000	-7526.700000	-4323.915000	3187.620000	13561.155000	-5.929773	-8.242447	-7.814932	-5.784249	-1.819776	-1.998969	-2.997075	-4.730547	-2.227960	6.790700	-2.060100	0.966245	-0.161560	0.198242	-1.000000	-1.000000	-1.000000	-1.000000	-1.000000	-1.000000	-1.000000	82.275862	0.000000	-1.000000	-1.000000	1055504.000000	1770063607.089606
11541.195000	18541.170000	25176.375000	20720.205000	-7521.795000	-4320.495000	3187.935000	13566.510000	-4.953012	-3.395753	-2.969436	-2.487190	-1.918238	-3.341513	-3.453565	-2.701054	-2.227960	6.790700	-2.060100	0.966245	-0.161560	0.198242	-1.000000	-1.000000	-1.000000	-1.000000	-1.000000	-1.000000	-1.000000	82.275862	0.000000	-1.000000	-1.000000	1055505.000000	1770063607.092958
11546.955000	18545.220000	25179.435000	20716.920000	-7550.235000	-4338.000000	3183.030000	13571.460000	-1.868472	2.270693	2.460886	1.463300	-1.673994	-3.481056	-2.626134	1.347607	-2.227960	6.790700	-2.060100	0.966245	-0.161560	0.198242	-1.000000	-1.000000	-1.000000	-1.000000	-1.000000	-1.000000	-1.000000	82.275862	0.000000	-1.000000	-1.000000	1055506.000000	1770063607.092968
11548.530000	18543.600000	25177.770000	20718.180000	-7551.045000	-4331.925000	3189.915000	13569.975000	1.841669	6.339561	6.249834	4.418918	-1.809062	-2.555568	-0.945498	4.662511	-2.227960	6.790700	-2.060100	0.966245	-0.161560	0.198242	-1.000000	-1.000000	-1.000000	-1.000000	-1.000000	-1.000000	-1.000000	82.275862	0.000000	-1.000000	-1.000000	1055507.000000	1770063607.098279
11550.420000	18546.120000	25181.640000	20724.435000	-7536.375000	-4321.080000	3194.730000	13569.795000	4.952664	8.265326	7.945342	5.843682	-2.125791	-1.018787	0.970343	5.304580	-2.227960	6.790700	-2.060100	0.966245	-0.161560	0.198242	-1.000000	-1.000000	-1.000000	-1.000000	-1.000000	-1.000000	-1.000000	82.275862	0.000000	-1.000000	-1.000000	1055508.000000	1770063607.098289
11557.035000	18555.345000	25190.235000	20730.735000	-7525.935000	-4318.020000	3194.145000	13571.010000	6.470022	8.414573	8.087375	6.223620	-0.761591	1.399126	2.794235	3.414860	-2.227960	6.790700	-2.060100	0.966245	-0.161560	0.198242	-1.000000	-1.000000	-1.000000	-1.000000	-1.000000	-1.000000	-1.000000	82.275862	0.000000	-1.000000	-1.000000	1055509.000000	1770063607.102371
11559.465000	18559.890000	25194.285000	20733.660000	-7520.850000	-4313.880000	3197.160000	13572.405000	6.060786	7.161475	7.036450	5.805635	2.791905	4.190105	3.941019	0.786644	-2.227960	6.790700	-2.060100	0.966245	-0.161560	0.198242	-1.000000	-1.000000	-1.000000	-1.000000	-1.000000	-1.000000	-1.000000	82.275862	0.000000	-1.000000	-1.000000	1055510.000000	1770063607.102381
11558.385000	18558.720000	25192.530000	20728.575000	-7537.500000	-4320.180000	3201.120000	13575.330000	4.285354	4.744896	4.735666	4.240076	6.191294	5.741016	3.841998	-0.915125	-1.068200	5.341000	-1.739640	0.968564	-0.165100	0.201599	-1.000000	-1.000000	-1.000000	-1.000000	-1.000000	-1.000000	-1.000000	82.275862	0.000000	-1.000000	-1.000000	1055511.000000	1770063607.107213
11547.720000	18546.885000	25181.730000	20719.755000	-7544.565000	-4325.355000	3199.545000	13569.390000	1.519767	1.006810	0.961576	1.178909	6.512690	4.971346	2.701128	-1.391218	-1.068200	5.341000	-1.739640	0.968564	-0.165100	0.201599	-1.000000	-1.000000	-1.000000	-1.000000	-1.000000	-1.000000	-1.000000	82.275862	0.000000	-1.000000	-1.000000	1055512.000000	1770063607.107224
11557.440000	18560.340000	25194.645000	20729.880000	-7531.695000	-4322.070000	3198.240000	13570.065000	-2.062067	-3.810297	-3.783905	-2.862397	3.229073	2.194403	1.030905	-1.448276	-1.068200	5.341000	-1.739640	0.968564	-0.165100	0.201599	-1.000000	-1.000000	-1.000000	-1.000000	-1.000000	-1.000000	-1.000000	82.275862	0.000000	-1.000000	-1.000000	1055513.000000	1770063607.109093
11561.985000	18570.195000	25202.970000	20734.785000	-7530.390000	-4327.605000	3190.500000	13568.670000	-5.219588	-7.857139	-7.583923	-6.122545	-1.095718	-1.132499	-0.900159	-1.833083	-1.068200	5.341000	-1.739640	0.968564	-0.165100	0.201599	-1.000000	-1.000000	-1.000000	-1.000000	-1.000000	-1.000000	-1.000000	82.275862	0.000000	-1.000000	-1.000000	1055514.000000	1770063607.109104
11554.830000	18556.785000	25192.710000	20730.510000	-7526.115000	-4319.910000	3191.580000	13570.110000	-6.473059	-9.108360	-8.618613	-6.924280	-3.222762	-3.293373	-2.827466	-2.540549	-1.068200	5.341000	-1.739640	0.968564	-0.165100	0.201599	-1.000000	-1.000000	-1.000000	-1.000000	-1.000000	-1.000000	-1.000000	82.275862	0.000000	-1.000000	-1.000000	1055515.000000	1770063607.113559
11573.145000	18578.520000	25212.510000	20745.810000	-7516.530000	-4311.315000	3193.695000	13582.440000	-5.414082	-7.123245	-6.595974	-5.011344	-2.156360	-3.400975	-4.204740	-2.771851	-1.068200	5.341000	-1.739640	0.968564	-0.165100	0.201599	-1.000000	-1.000000	-1.000000	-1.000000	-1.000000	-1.000000	-1.000000	82.275862	0.000000	-1.000000	-1.000000	1055516.000000	1770063607.113569
11570.625000	18572.130000	25205.760000	20742.165000	-7512.525000	-4305.465000	3197.520000	13582.485000	-2.448784	-2.750018	-2.413432	-1.404247	0.323106	-1.885581	-4.306012	-1.570067	-1.068200	5.341000	-1.739640	0.968564	-0.165100	0.201599	-1.000000	-1.000000	-1.000000	-1.000000	-1.000000	-1.000000	-1.000000	82.275862	0.000000	-1.000000	-1.000000	1055517.000000	1770063607.119648
11557.395000	18551.025000	25186.275000	20728.170000	-7525.980000	-4310.280000	3206.610000	13580.370000	0.871685	1.622383	1.600276	1.780527	1.354051	-0.134741	-2.683847	0.821551	-1.068200	5.341000	-1.739640	0.968564	-0.165100	0.201599	-1.000000	-1.000000	-1.000000	-1.000000	-1.000000	-1.000000	-1.000000	82.275862	0.000000	-1.000000	-1.000000	1055518.000000	1770063607.119657
11548.755000	18540.000000	25175.475000	20717.325000	-7543.035000	-4325.895000	3200.805000	13573.080000	2.377219	3.012622	2.679457	2.396132	-0.698967	0.326549	0.137578	2.771192	-1.068200	5.341000	-1.739640	0.968564	-0.165100	0.201599	-1.000000	-1.000000	-1.000000	-1.000000	-1.000000	-1.000000	-1.000000	82.275862	0.000000	-1.000000	-1.000000	1055519.000000	1770063607.121176
11553.075000	18544.275000	25179.255000	20721.375000	-7532.010000	-4318.920000	3202.875000	13574.745000	1.610067	1.164742	0.741892	0.573481	-4.359620	-0.779819	2.645022	2.889576	-1.068200	5.341000	-1.739640	0.968564	-0.165100	0.201599	-1.000000	-1.000000	-1.000000	-1.000000	-1.000000	-1.000000	-1.000000	82.275862	0.000000	-1.000000	-1.000000	1055520.000000	1770063607.121186
11559.555000	18557.505000	25192.395000	20732.580000	-7524.630000	-4313.655000	3204.990000	13576.635000	0.317330	-0.914647	-1.222392	-1.143459	-5.971771	-1.844029	3.642730	1.436423	-4.135460	4.333840	-2.380560	0.971799	-0.160705	0.202697	-1.000000	-1.000000	-1.000000	-1.000000	-1.000000	-1.000000	-1.000000	82.275862	0.000000	-1.000000	-1.000000	1055521.000000	1770063607.124969
11560.185000	18563.040000	25196.985000	20735.145000	-7528.770000	-4319.010000	3198.510000	13575.375000	0.146696	-0.564780	-0.680714	-0.725483	-3.789346	-1.322351	3.087371	-0.250771	-4.135460	4.333840	-2.380560	0.971799	-0.160705	0.202697	-1.000000	-1.000000	-1.000000	-1.000000	-1.000000	-1.000000	-1.000000	82.275862	0.000000	-1.000000	-1.000000	1055522.000000	1770063607.124978
11565.585000	18572.355000	25207.245000	20742.300000	-7524.315000	-4317.525000	3198.420000	13580.640000	1.026604	1.977923	2.016631	1.413363	0.498452	0.471736	1.567831	-1.206044	-4.135460	4.333840	-2.380560	0.971799	-0.160705	0.202697	-1.000000	-1.000000	-1.000000	-1.000000	-1.000000	-1.000000	-1.000000	82.275862	0.000000	-1.000000	-1.000000	1055523.000000	1770063607.135599
11557.935000	18561.870000	25198.335000	20736.135000	-7525.080000	-4314.330000	3200.400000	13576.005000	1.897666	4.648702	4.763961	3.455730	4.218973	2.116660	-0.199792	-1.340502	-4.135460	4.333840	-2.380560	0.971799	-0.160705	0.202697	-1.000000	-1.000000	-1.000000	-1.000000	-1.000000	-1.000000	-1.000000	82.275862	0.000000	-1.000000	-1.000000	1055524.000000	1770063607.135609
11560.320000	18564.300000	25201.395000	20739.735000	-7518.420000	-4306.635000	3206.475000	13576.725000	1.691559	5.241972	5.407915	3.712440	5.553947	2.494286	-1.515087	-1.207327	-4.135460	4.333840	-2.380560	0.971799	-0.160705	0.202697	-1.000000	-1.000000	-1.000000	-1.000000	-1.000000	-1.000000	-1.000000	82.275862	0.000000	-1.000000	-1.000000	1055525.000000	1770063607.135620
11560.680000	18568.260000	25199.055000	20728.845000	-7535.070000	-4325.040000	3196.845000	13573.305000	0.273273	3.124272	3.284669	1.749896	3.982107	1.308859	-2.082410	-1.218894	-4.135460	4.333840	-2.380560	0.971799	-0.160705	0.202697	-1.000000	-1.000000	-1.000000	-1.000000	-1.000000	-1.000000	-1.000000	82.275862	0.000000	-1.000000	-1.000000	1055526.000000	1770063607.135625
11556.270000	18567.405000	25197.075000	20727.810000	-7534.125000	-4322.295000	3197.385000	13572.135000	-1.074123	0.189334	0.048317	-1.122463	0.591985	-0.880772	-2.251731	-1.082483	-4.135460	4.333840	-2.380560	0.971799	-0.160705	0.202697	-1.000000	-1.000000	-1.000000	-1.000000	-1.000000	-1.000000	-1.000000	82.275862	0.000000	-1.000000	-1.000000	1055527.000000	1770063607.137338
11555.820000	18569.655000	25201.080000	20732.085000	-7530.120000	-4321.845000	3199.095000	13571.640000	-1.150723	-1.370677	-2.072085	-2.865106	-2.176388	-2.492283	-2.161002	-0.345462	-4.135460	4.333840	-2.380560	0.971799	-0.160705	0.202697	-1.000000	-1.000000	-1.000000	-1.000000	-1.000000	-1.000000	-1.000000	82.275862	0.000000	-1.000000	-1.000000	1055528.000000	1770063607.137344
11552.940000	18553.050000	25187.085000	20729.205000	-7520.130000	-4306.770000	3207.645000	13571.910000	-0.255492	-1.648441	-2.589712	-2.529926	-2.410756	-1.961084	-1.259146	0.887921	-4.135460	4.333840	-2.380560	0.971799	-0.160705	0.202697	-1.000000	-1.000000	-1.000000	-1.000000	-1.000000	-1.000000	-1.000000	82.275862	0.000000	-1.000000	-1.000000	1055529.000000	1770063607.141053
11559.960000	18559.035000	25193.160000	20735.730000	-7513.830000	-4301.505000	3210.300000	13576.860000	0.485409	-2.357615	-2.771828	-1.049240	-0.478548	0.627073	0.717333	2.031850	-4.135460	4.333840	-2.380560	0.971799	-0.160705	0.202697	-1.000000	-1.000000	-1.000000	-1.000000	-1.000000	-1.000000	-1.000000	82.275862	0.000000	-1.000000	-1.000000	1055530.000000	1770063607.141065
11565.225000	18560.520000	25197.885000	20738.835000	-7512.615000	-4302.270000	3209.490000	13583.880000	0.552142	-4.066121	-3.406145	0.145764	1.818811	3.625439	3.063416	2.636058	-7.263760	4.623780	-2.060100	0.975950	-0.161865	0.197448	-1.000000	-1.000000	-1.000000	-1.000000	-1.000000	-1.000000	-1.000000	82.275862	0.000000	-1.000000	-1.000000	1055531.000000	1770063607.147005
11568.690000	18564.120000	25202.070000	20741.580000	-7510.860000	-4303.125000	3207.960000	13585.545000	0.338083	-5.216719	-3.590531	0.610191	2.895728	4.957263	4.415647	2.570139	-7.263760	4.623780	-2.060100	0.975950	-0.161865	0.197448	-1.000000	-1.000000	-1.000000	-1.000000	-1.000000	-1.000000	-1.000000	82.275862	0.000000	-1.000000	-1.000000	1055532.000000	1770063607.147015
11568.420000	18570.285000	25207.695000	20746.170000	-7507.665000	-4301.640000	3209.580000	13584.060000	0.298694	-3.981840	-2.138663	0.691173	2.060164	3.358574	3.660373	1.744103	-7.263760	4.623780	-2.060100	0.975950	-0.161865	0.197448	-1.000000	-1.000000	-1.000000	-1.000000	-1.000000	-1.000000	-1.000000	82.275862	0.000000	-1.000000	-1.000000	1055533.000000	1770063607.149050
11561.400000	18568.530000	25204.590000	20745.405000	-7506.045000	-4301.010000	3210.480000	13580.415000	0.216548	-0.362944	0.753107	0.767702	-0.199273	-0.502052	0.986487	0.166093	-7.263760	4.623780	-2.060100	0.975950	-0.161865	0.197448	-1.000000	-1.000000	-1.000000	-1.000000	-1.000000	-1.000000	-1.000000	82.275862	0.000000	-1.000000	-1.000000	1055534.000000	1770063607.149055
11565.810000	18570.150000	25202.790000	20740.950000	-7513.245000	-4305.600000	3208.230000	13583.610000	-0.268651	3.716077	3.574235	0.942809	-2.427700	-4.226331	-2.090472	-1.646202	-7.263760	4.623780	-2.060100	0.975950	-0.161865	0.197448	-1.000000	-1.000000	-1.000000	-1.000000	-1.000000	-1.000000	-1.000000	82.275862	0.000000	-1.000000	-1.000000	1055535.000000	1770063607.156260
11559.735000	18563.940000	25196.535000	20735.100000	-7519.320000	-4310.145000	3204.585000	13580.100000	-0.801111	6.073499	4.781308	0.958860	-3.430799	-5.675645	-4.004486	-2.767667	-7.263760	4.623780	-2.060100	0.975950	-0.161865	0.197448	-1.000000	-1.000000	-1.000000	-1.000000	-1.000000	-1.000000	-1.000000	82.275862	0.000000	-1.000000	-1.000000	1055536.000000	1770063607.156269
11563.785000	18562.725000	25195.635000	20736.225000	-7510.635000	-4302.585000	3210.615000	13586.805000	-0.850948	5.668943	3.777464	0.377224	-3.139052	-4.558835	-4.152255	-2.626987	-7.263760	4.623780	-2.060100	0.975950	-0.161865	0.197448	-1.000000	-1.000000	-1.000000	-1.000000	-1.000000	-1.000000	-1.000000	82.275862	0.000000	-1.000000	-1.000000	1055537.000000	1770063607.158538
11569.860000	18568.980000	25201.440000	20739.735000	-7505.730000	-4299.885000	3212.370000	13590.945000	-0.359448	3.128917	1.331415	-0.745517	-2.056023	-2.035864	-2.802206	-1.350239	-7.263760	4.623780	-2.060100	0.975950	-0.161865	0.197448	-1.000000	-1.000000	-1.000000	-1.000000	-1.000000	-1.000000	-1.000000	82.275862	0.000000	-1.000000	-1.000000	1055538.000000	1770063607.158549
11567.385000	18571.005000	25204.950000	20740.995000	-7509.690000	-4304.025000	3209.040000	13586.085000	0.279671	0.066279	-1.055648	-1.782845	-0.721644	0.424482	-0.721245	0.237642	-7.263760	4.623780	-2.060100	0.975950	-0.161865	0.197448	-1.000000	-1.000000	-1.000000	-1.000000	-1.000000	-1.000000	-1.000000	82.275862	0.000000	-1.000000	-1.000000	1055539.000000	1770063607.170637
11568.510000	18574.515000	25207.380000	20740.230000	-7522.515000	-4314.195000	3205.395000	13581.225000	0.380055	-2.284978	-2.459384	-2.221798	0.185695	1.765288	1.135950	0.857544	-7.263760	4.623780	-2.060100	0.975950	-0.161865	0.197448	-1.000000	-1.000000	-1.000000	-1.000000	-1.000000	-1.000000	-1.000000	82.275862	0.000000	-1.000000	-1.000000	1055540.000000	1770063607.170647
11565.270000	18570.240000	25202.655000	20736.315000	-7525.980000	-4315.590000	3206.745000	13580.190000	-0.303320	-3.456365	-2.836640	-1.991471	0.095874	1.623724	2.070056	-0.023740	-4.516960	5.646200	-2.227960	0.979795	-0.171142	0.193115	-1.000000	-1.000000	-1.000000	-1.000000	-1.000000	-1.000000	-1.000000	82.275862	0.000000	-1.000000	-1.000000	1055541.000000	1770063607.170658
11563.335000	18563.625000	25197.075000	20735.055000	-7516.800000	-4306.815000	3208.995000	13583.835000	-1.214227	-3.648130	-2.635943	-1.347936	-0.602392	0.633026	1.997811	-1.366046	-4.516960	5.646200	-2.227960	0.979795	-0.171142	0.193115	-1.000000	-1.000000	-1.000000	-1.000000	-1.000000	-1.000000	-1.000000	82.275862	0.000000	-1.000000	-1.000000	1055542.000000	1770063607.170662
11566.125000	18564.570000	25199.100000	20740.905000	-7503.525000	-4295.475000	3213.585000	13592.700000	-1.499453	-3.277721	-2.136354	-0.348152	-0.337560	0.345052	1.446337	-1.485641	-4.516960	5.646200	-2.227960	0.979795	-0.171142	0.193115	-1.000000	-1.000000	-1.000000	-1.000000	-1.000000	-1.000000	-1.000000	82.275862	0.000000	-1.000000	-1.000000	1055543.000000	1770063607.170668
11563.020000	18564.435000	25199.460000	20739.735000	-7504.515000	-4298.175000	3214.215000	13583.385000	-0.694893	-2.259472	-1.006721	1.284349	2.045407	1.779020	1.100387	0.131129	-4.516960	5.646200	-2.227960	0.979795	-0.171142	0.193115	-1.000000	-1.000000	-1.000000	-1.000000	-1.000000	-1.000000	-1.000000	82.275862	0.000000	-1.000000	-1.000000	1055544.000000	1770063607.170673
11565.855000	18566.595000	25200.450000	20737.260000	-7518.465000	-4305.420000	3213.495000	13580.145000	0.839152	-0.341414	0.930112	3.187492	5.171460	3.819081	1.103431	2.109926	-4.516960	5.646200	-2.227960	0.979795	-0.171142	0.193115	-1.000000	-1.000000	-1.000000	-1.000000	-1.000000	-1.000000	-1.000000	82.275862	0.000000	-1.000000	-1.000000	1055545.000000	1770063607.185740
11560.680000	18564.615000	25198.065000	20732.265000	-7530.570000	-4316.130000	3206.655000	13576.410000	2.097386	2.040855	2.914133	4.033064	5.691301	3.895388	0.780039	2.614548	-4.516960	5.646200	-2.227960	0.979795	-0.171142	0.193115	-1.000000	-1.000000	-1.000000	-1.000000	-1.000000	-1.000000	-1.000000	82.275862	0.000000	-1.000000	-1.000000	1055546.000000	1770063607.185751
11561.355000	18567.945000	25202.115000	20737.485000	-7521.615000	-4313.070000	3206.025000	13572.765000	2.077067	3.698092	3.694934	2.846950	2.072375	0.843687	-0.492212	1.142983	-4.516960	5.646200	-2.227960	0.979795	-0.171142	0.193115	-1.000000	-1.000000	-1.000000	-1.000000	-1.000000	-1.000000	-1.000000	82.275862	0.000000	-1.000000	-1.000000	1055547.000000	1770063607.185763
11568.510000	18576.315000	25210.710000	20745.495000	-7511.625000	-4307.805000	3207.060000	13579.020000	0.793147	3.728138	2.750028	0.312540	-2.934325	-3.261654	-2.098940	-1.076146	-4.516960	5.646200	-2.227960	0.979795	-0.171142	0.193115	-1.000000	-1.000000	-1.000000	-1.000000	-1.000000	-1.000000	-1.000000	82.275862	0.000000	-1.000000	-1.000000	1055548.000000	1770063607.185768
11566.215000	18572.085000	25205.445000	20741.940000	-7505.235000	-4303.170000	3208.410000	13580.955000	-0.593780	2.364640	0.783861	-1.821975	-5.003098	-5.010499	-2.667313	-2.111220	-4.516960	5.646200	-2.227960	0.979795	-0.171142	0.193115	-1.000000	-1.000000	-1.000000	-1.000000	-1.000000	-1.000000	-1.000000	82.275862	0.000000	-1.000000	-1.000000	1055549.000000	1770063607.185774
11573.010000	18577.260000	25210.395000	20748.015000	-7494.120000	-4296.645000	3210.840000	13589.010000	-1.023264	0.531623	-1.050965	-2.446048	-2.691638	-3.140312	-1.661667	-1.033463	-4.516960	5.646200	-2.227960	0.979795	-0.171142	0.193115	-1.000000	-1.000000	-1.000000	-1.000000	-1.000000	-1.000000	-1.000000	82.275862	0.000000	-1.000000	-1.000000	1055550.000000	1770063607.185778
11580.525000	18598.005000	25228.395000	20754.585000	-7507.980000	-4314.510000	3200.220000	13587.840000	-0.215066	-0.545158	-1.635663	-1.566707	1.409967	0.289071	0.018003	1.274426	-2.807840	5.447820	-2.197440	0.980039	-0.173645	0.196166	-1.000000	-1.000000	-1.000000	-1.000000	-1.000000	-1.000000	-1.000000	82.275862	0.000000	-1.000000	-1.000000	1055551.000000	1770063607.185784
11590.920000	18608.715000	25237.530000	20757.645000	-7526.700000	-4317.210000	3207.060000	13596.255000	1.447646	0.146836	-0.292022	0.133675	3.099547	1.983985	1.028948	3.048749	-2.807840	5.447820	-2.197440	0.980039	-0.173645	0.196166	-1.000000	-1.000000	-1.000000	-1.000000	-1.000000	-1.000000	-1.000000	82.275862	0.000000	-1.000000	-1.000000	1055552.000000	1770063607.185789
11581.515000	18584.820000	25220.430000	20757.240000	-7509.465000	-4293.315000	3223.080000	13602.105000	2.878122	1.695696	1.881685	1.608542	0.862152	1.231583	1.283666	3.415618	-2.807840	5.447820	-2.197440	0.980039	-0.173645	0.196166	-1.000000	-1.000000	-1.000000	-1.000000	-1.000000	-1.000000	-1.000000	82.275862	0.000000	-1.000000	-1.000000	1055553.000000	1770063607.201243
11565.225000	18558.045000	25192.530000	20734.335000	-7513.380000	-4294.395000	3222.315000	13594.095000	2.452767	1.149747	2.021866	1.694233	-2.394943	0.473489	1.771571	2.580463	-2.807840	5.447820	-2.197440	0.980039	-0.173645	0.196166	-1.000000	-1.000000	-1.000000	-1.000000	-1.000000	-1.000000	-1.000000	82.275862	0.000000	-1.000000	-1.000000	1055554.000000	1770063607.201254
11560.050000	18551.880000	25187.805000	20730.960000	-7514.955000	-4298.535000	3217.185000	13587.705000	-0.623822	-3.054390	-1.541080	-0.324793	-3.334472	1.249030	2.520728	0.634983	-2.807840	5.447820	-2.197440	0.980039	-0.173645	0.196166	-1.000000	-1.000000	-1.000000	-1.000000	-1.000000	-1.000000	-1.000000	82.275862	0.000000	-1.000000	-1.000000	1055555.000000	1770063607.201266
11567.520000	18570.645000	25205.310000	20742.210000	-7511.220000	-4304.520000	3211.155000	13582.305000	-4.769889	-8.261965	-6.583179	-3.470682	-1.830993	2.205500	2.345376	-2.236513	-2.807840	5.447820	-2.197440	0.980039	-0.173645	0.196166	-1.000000	-1.000000	-1.000000	-1.000000	-1.000000	-1.000000	-1.000000	82.275862	0.000000	-1.000000	-1.000000	1055556.000000	1770063607.201271
11568.375000	18574.470000	25210.260000	20747.250000	-7504.965000	-4300.920000	3214.080000	13575.780000	-6.999887	-9.755602	-8.630249	-5.179842	0.366627	1.587562	0.623390	-5.077159	-2.807840	5.447820	-2.197440	0.980039	-0.173645	0.196166	-1.000000	-1.000000	-1.000000	-1.000000	-1.000000	-1.000000	-1.000000	82.275862	0.000000	-1.000000	-1.000000	1055557.000000	1770063607.201277
11569.770000	18578.475000	25215.165000	20752.470000	-7501.230000	-4297.455000	3216.285000	13580.325000	-5.632944	-5.482615	-5.348092	-3.676028	1.900403	-0.520411	-1.782442	-6.544824	-2.807840	5.447820	-2.197440	0.980039	-0.173645	0.196166	-1.000000	-1.000000	-1.000000	-1.000000	-1.000000	-1.000000	-1.000000	82.275862	0.000000	-1.000000	-1.000000	1055558.000000	1770063607.201283
11578.815000	18589.050000	25228.080000	20766.105000	-7488.045000	-4285.935000	3223.710000	13596.480000	-1.422674	2.239315	1.543273	0.447582	2.378990	-2.475318	-3.272191	-5.433816	-2.807840	5.447820	-2.197440	0.980039	-0.173645	0.196166	-1.000000	-1.000000	-1.000000	-1.000000	-1.000000	-1.000000	-1.000000	82.275862	0.000000	-1.000000	-1.000000	1055559.000000	1770063607.201288
11576.205000	18578.925000	25216.740000	20756.430000	-7496.280000	-4292.145000	3218.175000	13595.760000	3.271057	8.691421	7.754751	4.722612	2.256804	-2.638159	-2.877670	-1.573551	-2.807840	5.447820	-2.197440	0.980039	-0.173645	0.196166	-1.000000	-1.000000	-1.000000	-1.000000	-1.000000	-1.000000	-1.000000	82.275862	0.000000	-1.000000	-1.000000	1055560.000000	1770063607.201293
11575.710000	18586.755000	25222.905000	20758.545000	-7499.835000	-4297.725000	3213.270000	13588.515000	5.962483	10.239943	9.536612	6.415555	1.911381	-1.174753	-1.345443	3.108859	-1.709120	5.188400	-2.533160	0.978513	-0.172302	0.196716	-1.000000	-1.000000	-1.000000	-1.000000	-1.000000	-1.000000	-1.000000	82.275862	0.000000	-1.000000	-1.000000	1055561.000000	1770063607.207280
11565.090000	18579.150000	25214.040000	20746.980000	-7509.375000	-4306.320000	3211.605000	13581.630000	5.642522	7.284172	6.743496	4.625660	0.820866	-0.147020	-0.454817	5.690698	-1.709120	5.188400	-2.533160	0.978513	-0.172302	0.196716	-1.000000	-1.000000	-1.000000	-1.000000	-1.000000	-1.000000	-1.000000	82.275862	0.000000	-1.000000	-1.000000	1055562.000000	1770063607.207291
11568.015000	18574.965000	25207.605000	20739.690000	-7514.190000	-4307.805000	3214.170000	13584.105000	3.311052	3.051309	2.280165	0.870297	-1.407723	-0.869110	-0.729383	5.050596	-1.709120	5.188400	-2.533160	0.978513	-0.172302	0.196716	-1.000000	-1.000000	-1.000000	-1.000000	-1.000000	-1.000000	-1.000000	82.275862	0.000000	-1.000000	-1.000000	1055563.000000	1770063607.214069
11564.280000	18562.860000	25199.460000	20737.215000	-7512.570000	-4304.745000	3213.630000	13587.300000	0.706963	-0.462997	-1.550031	-2.672730	-3.810532	-2.128741	-0.894039	2.694104	-1.709120	5.188400	-2.533160	0.978513	-0.172302	0.196716	-1.000000	-1.000000	-1.000000	-1.000000	-1.000000	-1.000000	-1.000000	82.275862	0.000000	-1.000000	-1.000000	1055564.000000	1770063607.214079
11566.485000	18555.705000	25194.780000	20736.000000	-7506.495000	-4301.010000	3215.520000	13596.705000	-1.253629	-3.672658	-4.551743	-4.826493	-4.778538	-1.870134	0.176164	0.875532	-1.709120	5.188400	-2.533160	0.978513	-0.172302	0.196716	-1.000000	-1.000000	-1.000000	-1.000000	-1.000000	-1.000000	-1.000000	82.275862	0.000000	-1.000000	-1.000000	1055565.000000	1770063607.214089
11578.815000	18572.445000	25212.015000	20751.525000	-7501.230000	-4296.690000	3220.245000	13599.900000	-2.277940	-6.619452	-6.560965	-5.088458	-3.504651	0.356091	2.110253	0.618175	-1.709120	5.188400	-2.533160	0.978513	-0.172302	0.196716	-1.000000	-1.000000	-1.000000	-1.000000	-1.000000	-1.000000	-1.000000	82.275862	0.000000	-1.000000	-1.000000	1055566.000000	1770063607.214094
11572.155000	18571.680000	25209.810000	20746.845000	-7508.205000	-4304.250000	3213.540000	13590.945000	-2.143601	-7.486782	-6.306115	-3.246047	-0.770675	2.934571	3.489281	0.942596	-1.709120	5.188400	-2.533160	0.978513	-0.172302	0.196716	-1.000000	-1.000000	-1.000000	-1.000000	-1.000000	-1.000000	-1.000000	82.275862	0.000000	-1.000000	-1.000000	1055567.000000	1770063607.217087
11567.160000	18566.505000	25203.195000	20741.085000	-7509.870000	-4302.945000	3214.485000	13588.740000	-1.486511	-5.303693	-3.623772	-0.358718	1.600654	3.816989	3.104398	-0.114389	-1.709120	5.188400	-2.533160	0.978513	-0.172302	0.196716	-1.000000	-1.000000	-1.000000	-1.000000	-1.000000	-1.000000	-1.000000	82.275862	0.000000	-1.000000	-1.000000	1055568.000000	1770063607.217096
11560.680000	18560.295000	25196.670000	20734.425000	-7519.770000	-4308.165000	3211.785000	13583.790000	-1.413271	-1.547035	-0.278880	1.747164	2.548151	2.598251	1.130844	-2.943624	-1.709120	5.188400	-2.533160	0.978513	-0.172302	0.196716	-1.000000	-1.000000	-1.000000	-1.000000	-1.000000	-1.000000	-1.000000	82.275862	0.000000	-1.000000	-1.000000	1055569.000000	1770063607.221114
11564.730000	18566.145000	25202.025000	20739.060000	-7518.375000	-4309.020000	3210.525000	13586.355000	-1.799894	1.921887	2.249842	2.440215	2.403434	0.500372	-1.137668	-5.506043	-1.709120	5.188400	-2.533160	0.978513	-0.172302	0.196716	-1.000000	-1.000000	-1.000000	-1.000000	-1.000000	-1.000000	-1.000000	82.275862	0.000000	-1.000000	-1.000000	1055570.000000	1770063607.221228
11562.930000	18564.165000	25200.270000	20737.710000	-7515.855000	-4308.165000	3209.310000	13586.130000	-1.355113	4.514942	3.987654	2.619763	2.067275	-1.075559	-2.564078	-5.444599	-5.676720	4.974760	-2.380560	0.978574	-0.164489	0.195495	-1.000000	-1.000000	-1.000000	-1.000000	-1.000000	-1.000000	-1.000000	82.275862	0.000000	-1.000000	-1.000000	1055571.000000	1770063607.225341
11561.355000	18563.310000	25199.190000	20734.830000	-7519.770000	-4312.080000	3206.745000	13583.880000	0.460653	6.184400	5.300412	3.137611	2.128293	-1.422918	-2.724256	-2.450757	-5.676720	4.974760	-2.380560	0.978574	-0.164489	0.195495	-1.000000	-1.000000	-1.000000	-1.000000	-1.000000	-1.000000	-1.000000	82.275862	0.000000	-1.000000	-1.000000	1055572.000000	1770063607.225351
11567.160000	18567.990000	25203.105000	20738.385000	-7516.305000	-4308.840000	3206.340000	13587.885000	2.623313	6.496732	5.718732	3.525748	2.187057	-0.828402	-1.802134	1.584690	-5.676720	4.974760	-2.380560	0.978574	-0.164489	0.195495	-1.000000	-1.000000	-1.000000	-1.000000	-1.000000	-1.000000	-1.000000	82.275862	0.000000	-1.000000	-1.000000	1055573.000000	1770063607.229103
11565.360000	18567.405000	25203.555000	20739.195000	-7514.415000	-4309.245000	3201.480000	13583.610000	3.691096	4.987925	4.454904	2.744893	1.425056	-0.110168	-0.453459	4.307059	-5.676720	4.974760	-2.380560	0.978574	-0.164489	0.195495	-1.000000	-1.000000	-1.000000	-1.000000	-1.000000	-1.000000	-1.000000	82.275862	0.000000	-1.000000	-1.000000	1055574.000000	1770063607.229114
11563.425000	18568.980000	25205.670000	20739.870000	-7516.665000	-4312.440000	3201.930000	13580.235000	2.840836	1.644939	1.345959	0.463697	-0.263205	0.110970	0.528167	4.455241	-5.676720	4.974760	-2.380560	0.978574	-0.164489	0.195495	-1.000000	-1.000000	-1.000000	-1.000000	-1.000000	-1.000000	-1.000000	82.275862	0.000000	-1.000000	-1.000000	1055575.000000	1770063607.234792
11573.145000	18582.345000	25213.860000	20740.095000	-7524.270000	-4322.925000	3198.735000	13582.170000	0.575874	-2.473281	-2.532814	-2.488437	-2.224085	-0.374059	0.854306	2.467242	-5.676720	4.974760	-2.380560	0.978574	-0.164489	0.195495	-1.000000	-1.000000	-1.000000	-1.000000	-1.000000	-1.000000	-1.000000	82.275862	0.000000	-1.000000	-1.000000	1055576.000000	1770063607.234802
11562.120000	18570.015000	25204.545000	20737.170000	-7520.040000	-4318.650000	3199.320000	13572.720000	-1.469704	-5.318741	-5.169767	-4.457001	-3.410523	-1.197447	0.846140	-0.090603	-5.676720	4.974760	-2.380560	0.978574	-0.164489	0.195495	-1.000000	-1.000000	-1.000000	-1.000000	-1.000000	-1.000000	-1.000000	82.275862	0.000000	-1.000000	-1.000000	1055577.000000	1770063607.241277
11561.670000	18569.835000	25209.630000	20748.600000	-7504.920000	-4302.045000	3212.685000	13574.700000	-2.271652	-5.765716	-5.332606	-4.131598	-2.623531	-1.200455	1.071788	-1.832499	-5.676720	4.974760	-2.380560	0.978574	-0.164489	0.195495	-1.000000	-1.000000	-1.000000	-1.000000	-1.000000	-1.000000	-1.000000	82.275862	0.000000	-1.000000	-1.000000	1055578.000000	1770063607.241288
11564.235000	18569.835000	25208.415000	20745.720000	-7510.770000	-4307.355000	3212.820000	13580.010000	-1.943354	-4.317412	-3.388360	-1.596928	0.265543	0.487309	1.910753	-2.044119	-5.676720	4.974760	-2.380560	0.978574	-0.164489	0.195495	-1.000000	-1.000000	-1.000000	-1.000000	-1.000000	-1.000000	-1.000000	82.275862	0.000000	-1.000000	-1.000000	1055579.000000	1770063607.241298
11567.205000	18576.135000	25209.180000	20739.060000	-7521.570000	-4320.315000	3206.070000	13581.225000	-0.819739	-1.811580	-0.538341	1.542441	3.200378	2.691042	2.771278	-0.704378	-5.676720	4.974760	-2.380560	0.978574	-0.164489	0.195495	-1.000000	-1.000000	-1.000000	-1.000000	-1.000000	-1.000000	-1.000000	82.275862	0.000000	-1.000000	-1.000000	1055580.000000	1770063607.241303
11562.210000	18575.145000	25208.055000	20739.600000	-7513.605000	-4313.835000	3204.360000	13576.860000	0.548103	1.004864	1.870464	3.246384	3.755240	3.230008	2.408793	1.212201	-6.409200	4.181240	-2.578940	0.976316	-0.162902	0.195861	-1.000000	-1.000000	-1.000000	-1.000000	-1.000000	-1.000000	-1.000000	82.275862	0.000000	-1.000000	-1.000000	1055581.000000	1770063607.245100
11550.195000	18551.295000	25185.780000	20725.695000	-7515.450000	-4312.530000	3203.685000	13572.810000	1.042732	2.730617	2.487304	2.439292	1.687002	1.629276	0.501474	2.134704	-6.409200	4.181240	-2.578940	0.976316	-0.162902	0.195861	-1.000000	-1.000000	-1.000000	-1.000000	-1.000000	-1.000000	-1.000000	82.275862	0.000000	-1.000000	-1.000000	1055582.000000	1770063607.245109
11557.890000	18560.160000	25192.980000	20729.385000	-7522.245000	-4319.415000	3202.020000	13576.635000	0.022214	1.986520	0.662571	-0.452125	-1.516696	-0.868106	-1.940549	1.362269	-6.409200	4.181240	-2.578940	0.976316	-0.162902	0.195861	-1.000000	-1.000000	-1.000000	-1.000000	-1.000000	-1.000000	-1.000000	82.275862	0.000000	-1.000000	-1.000000	1055583.000000	1770063607.249050
11562.660000	18559.980000	25194.195000	20732.445000	-7523.235000	-4315.635000	3205.530000	13580.730000	-1.460482	-0.574019	-2.277144	-3.503832	-4.148258	-2.805172	-3.537474	-0.167803	-6.409200	4.181240	-2.578940	0.976316	-0.162902	0.195861	-1.000000	-1.000000	-1.000000	-1.000000	-1.000000	-1.000000	-1.000000	82.275862	0.000000	-1.000000	-1.000000	1055584.000000	1770063607.249062
11559.015000	18554.085000	25189.965000	20731.410000	-7516.395000	-4310.775000	3206.115000	13577.175000	-1.817843	-2.752327	-3.873590	-4.415952	-4.690932	-3.004514	-3.424368	-1.099674	-6.409200	4.181240	-2.578940	0.976316	-0.162902	0.195861	-1.000000	-1.000000	-1.000000	-1.000000	-1.000000	-1.000000	-1.000000	82.275862	0.000000	-1.000000	-1.000000	1055585.000000	1770063607.253082
11557.755000	18559.755000	25197.255000	20737.080000	-7508.115000	-4304.655000	3209.310000	13575.195000	-0.682616	-2.858196	-2.735286	-2.432686	-2.536472	-1.283744	-1.801997	-1.023350	-6.409200	4.181240	-2.578940	0.976316	-0.162902	0.195861	-1.000000	-1.000000	-1.000000	-1.000000	-1.000000	-1.000000	-1.000000	82.275862	0.000000	-1.000000	-1.000000	1055586.000000	1770063607.253091
11562.120000	18570.285000	25204.680000	20738.655000	-7515.450000	-4314.015000	3203.415000	13571.730000	1.211063	-0.405496	0.762061	1.137015	0.996404	0.863090	0.048277	-0.483742	-6.409200	4.181240	-2.578940	0.976316	-0.162902	0.195861	-1.000000	-1.000000	-1.000000	-1.000000	-1.000000	-1.000000	-1.000000	82.275862	0.000000	-1.000000	-1.000000	1055587.000000	1770063607.257016
11565.450000	18569.655000	25203.060000	20737.485000	-7521.390000	-4316.130000	3205.260000	13575.420000	2.815807	3.495977	4.798347	4.190197	3.508178	1.659569	0.905497	-0.237499	-6.409200	4.181240	-2.578940	0.976316	-0.162902	0.195861	-1.000000	-1.000000	-1.000000	-1.000000	-1.000000	-1.000000	-1.000000	82.275862	0.000000	-1.000000	-1.000000	1055588.000000	1770063607.257022
11563.110000	18562.140000	25196.535000	20735.370000	-7514.865000	-4306.680000	3212.235000	13582.080000	3.262558	6.245594	6.931412	5.302232	3.811326	1.111088	0.947047	-0.319479	-6.409200	4.181240	-2.578940	0.976316	-0.162902	0.195861	-1.000000	-1.000000	-1.000000	-1.000000	-1.000000	-1.000000	-1.000000	82.275862	0.000000	-1.000000	-1.000000	1055589.000000	1770063607.261560
11561.175000	18560.880000	25198.470000	20736.585000	-7512.030000	-4306.995000	3211.065000	13581.360000	2.295267	5.774077	5.799280	4.234854	2.501104	0.440368	1.155781	-0.101023	-6.409200	4.181240	-2.578940	0.976316	-0.162902	0.195861	-1.000000	-1.000000	-1.000000	-1.000000	-1.000000	-1.000000	-1.000000	82.275862	0.000000	-1.000000	-1.000000	1055590.000000	1770063607.261566
11559.915000	18562.770000	25199.730000	20738.430000	-7512.075000	-4304.070000	3212.955000	13580.865000	0.440909	2.609329	2.373955	1.820201	0.694038	0.191779	1.709597	0.562923	-2.853620	4.822160	-1.571780	0.975461	-0.164672	0.197448	-1.000000	-1.000000	-1.000000	-1.000000	-1.000000	-1.000000	-1.000000	82.275862	0.000000	-1.000000	-1.000000	1055591.000000	1770063607.270011
11565.000000	18570.510000	25207.425000	20747.835000	-7497.585000	-4297.320000	3210.930000	13583.610000	-1.455165	-1.028550	-1.205177	-0.627520	-0.531968	0.290432	1.927041	1.056232	-2.853620	4.822160	-1.571780	0.975461	-0.164672	0.197448	-1.000000	-1.000000	-1.000000	-1.000000	-1.000000	-1.000000	-1.000000	82.275862	0.000000	-1.000000	-1.000000	1055592.000000	1770063607.270022
11568.690000	18576.315000	25212.105000	20750.670000	-7495.380000	-4306.950000	3203.910000	13585.725000	-2.685885	-3.360717	-3.458650	-2.128162	-0.406018	0.510326	1.148823	0.875878	-2.853620	4.822160	-1.571780	0.975461	-0.164672	0.197448	-1.000000	-1.000000	-1.000000	-1.000000	-1.000000	-1.000000	-1.000000	82.275862	0.000000	-1.000000	-1.000000	1055593.000000	1770063607.270034
11560.500000	18562.230000	25193.835000	20728.755000	-7527.510000	-4321.800000	3200.625000	13578.885000	-2.816449	-3.856865	-4.127544	-2.736952	0.091066	-0.062066	-0.714501	0.140725	-2.853620	4.822160	-1.571780	0.975461	-0.164672	0.197448	-1.000000	-1.000000	-1.000000	-1.000000	-1.000000	-1.000000	-1.000000	82.275862	0.000000	-1.000000	-1.000000	1055594.000000	1770063607.270040
11553.570000	18555.435000	25187.490000	20723.175000	-7548.345000	-4327.650000	3201.210000	13571.685000	-2.095928	-3.418254	-4.195344	-3.534502	-1.566653	-2.204162	-2.871696	-0.815647	-2.853620	4.822160	-1.571780	0.975461	-0.164672	0.197448	-1.000000	-1.000000	-1.000000	-1.000000	-1.000000	-1.000000	-1.000000	82.275862	0.000000	-1.000000	-1.000000	1055595.000000	1770063607.275236
11552.130000	18556.380000	25191.810000	20729.430000	-7536.960000	-4323.780000	3204.405000	13570.650000	-1.359941	-3.282023	-4.469594	-4.728141	-5.446816	-4.662244	-3.903620	-1.770125	-2.853620	4.822160	-1.571780	0.975461	-0.164672	0.197448	-1.000000	-1.000000	-1.000000	-1.000000	-1.000000	-1.000000	-1.000000	82.275862	0.000000	-1.000000	-1.000000	1055596.000000	1770063607.275244
11553.345000	18562.455000	25198.605000	20734.605000	-7527.195000	-4319.280000	3204.180000	13570.830000	-0.991543	-3.185349	-4.013807	-4.597622	-7.550149	-4.829590	-2.886335	-2.394633	-2.853620	4.822160	-1.571780	0.975461	-0.164672	0.197448	-1.000000	-1.000000	-1.000000	-1.000000	-1.000000	-1.000000	-1.000000	82.275862	0.000000	-1.000000	-1.000000	1055597.000000	1770063607.278589
11558.385000	18568.890000	25200.720000	20736.180000	-7524.045000	-4316.805000	3203.280000	13574.070000	-0.443446	-1.728543	-1.499035	-1.809223	-4.665355	-1.811328	-0.397040	-2.242963	-2.853620	4.822160	-1.571780	0.975461	-0.164672	0.197448	-1.000000	-1.000000	-1.000000	-1.000000	-1.000000	-1.000000	-1.000000	82.275862	0.000000	-1.000000	-1.000000	1055598.000000	1770063607.278600
11562.885000	18569.610000	25199.730000	20734.380000	-7527.420000	-4322.295000	3197.610000	13573.215000	0.979954	1.513575	2.559572	2.541006	1.678530	2.489768	1.955126	-1.074996	-2.853620	4.822160	-1.571780	0.975461	-0.164672	0.197448	-1.000000	-1.000000	-1.000000	-1.000000	-1.000000	-1.000000	-1.000000	82.275862	0.000000	-1.000000	-1.000000	1055599.000000	1770063607.281067
11566.080000	18575.055000	25207.830000	20741.085000	-7521.660000	-4318.965000	3200.805000	13575.420000	3.010618	4.986398	5.982745	5.926754	7.315367	5.377083	2.951298	0.792620	-2.853620	4.822160	-1.571780	0.975461	-0.164672	0.197448	-1.000000	-1.000000	-1.000000	-1.000000	-1.000000	-1.000000	-1.000000	82.275862	0.000000	-1.000000	-1.000000	1055600.000000	1770063607.281076
11571.210000	18582.030000	25212.870000	20742.930000	-7523.190000	-4322.295000	3199.320000	13577.850000	4.338514	6.429646	6.844274	6.502422	9.141616	5.528466	2.579448	2.495946	-1.571780	3.601360	-0.824040	0.973997	-0.163940	0.198242	-1.000000	-1.000000	-1.000000	-1.000000	-1.000000	-1.000000	-1.000000	82.275862	0.000000	-1.000000	-1.000000	1055601.000000	1770063607.287368
11575.980000	18583.110000	25212.690000	20742.345000	-7522.830000	-4318.695000	3207.105000	13589.055000	3.971917	5.012497	4.919103	4.316307	6.800189	3.590569	1.741573	3.401313	-1.571780	3.601360	-0.824040	0.973997	-0.163940	0.198242	-1.000000	-1.000000	-1.000000	-1.000000	-1.000000	-1.000000	-1.000000	82.275862	0.000000	-1.000000	-1.000000	1055602.000000	1770063607.287378
11565.180000	18564.705000	25198.560000	20734.785000	-7520.625000	-4313.700000	3208.185000	13586.895000	2.146391	1.672848	1.476125	1.030427	2.672763	1.393634	1.280300	3.624014	-1.571780	3.601360	-0.824040	0.973997	-0.163940	0.198242	-1.000000	-1.000000	-1.000000	-1.000000	-1.000000	-1.000000	-1.000000	82.275862	0.000000	-1.000000	-1.000000	1055603.000000	1770063607.290472
11563.335000	18564.210000	25199.370000	20733.795000	-7523.865000	-4318.695000	3204.135000	13582.935000	-0.375511	-2.224456	-2.055473	-1.700191	-0.327816	0.215999	1.093101	3.233985	-1.571780	3.601360	-0.824040	0.973997	-0.163940	0.198242	-1.000000	-1.000000	-1.000000	-1.000000	-1.000000	-1.000000	-1.000000	82.275862	0.000000	-1.000000	-1.000000	1055604.000000	1770063607.290482
11564.685000	18568.710000	25201.620000	20732.850000	-7524.315000	-4320.405000	3200.985000	13580.235000	-2.808812	-5.294715	-4.633034	-3.319669	-1.617330	-0.316536	0.372645	1.769495	-1.571780	3.601360	-0.824040	0.973997	-0.163940	0.198242	-1.000000	-1.000000	-1.000000	-1.000000	-1.000000	-1.000000	-1.000000	82.275862	0.000000	-1.000000	-1.000000	1055605.000000	1770063607.294289
11553.705000	18550.485000	25182.000000	20716.605000	-7519.815000	-4311.315000	3205.080000	13575.600000	-4.420454	-6.444275	-5.731888	-4.112068	-2.527733	-1.140380	-1.118030	-0.917005	-1.571780	3.601360	-0.824040	0.973997	-0.163940	0.198242	-1.000000	-1.000000	-1.000000	-1.000000	-1.000000	-1.000000	-1.000000	82.275862	0.000000	-1.000000	-1.000000	1055606.000000	1770063607.294300
11554.920000	18543.600000	25167.240000	20694.825000	-7514.505000	-4303.305000	3210.975000	13574.205000	-4.912900	-5.831496	-5.748613	-4.738355	-3.658507	-2.102107	-2.414579	-3.983515	-1.571780	3.601360	-0.824040	0.973997	-0.163940	0.198242	-1.000000	-1.000000	-1.000000	-1.000000	-1.000000	-1.000000	-1.000000	82.275862	0.000000	-1.000000	-1.000000	1055607.000000	1770063607.297492
11556.765000	18541.620000	25157.385000	20676.285000	-7515.405000	-4295.745000	3217.410000	13578.030000	-4.194026	-4.172511	-5.252394	-5.589579	-4.242956	-2.197921	-2.280695	-5.866386	-1.571780	3.601360	-0.824040	0.973997	-0.163940	0.198242	-1.000000	-1.000000	-1.000000	-1.000000	-1.000000	-1.000000	-1.000000	82.275862	0.000000	-1.000000	-1.000000	1055608.000000	1770063607.297503
11553.525000	18552.870000	25174.845000	20694.330000	-7528.185000	-4306.590000	3211.605000	13574.970000	-2.316785	-1.638205	-3.881704	-5.817440	-3.877150	-1.279641	-0.721319	-5.403012	-1.571780	3.601360	-0.824040	0.973997	-0.163940	0.198242	-1.000000	-1.000000	-1.000000	-1.000000	-1.000000	-1.000000	-1.000000	82.275862	0.000000	-1.000000	-1.000000	1055609.000000	1770063607.308766
11557.170000	18564.705000	25191.180000	20725.830000	-7527.375000	-4311.270000	3207.060000	13575.420000	0.076871	1.796620	-0.562497	-3.155167	-3.126368	-0.532539	0.797044	-2.947866	-1.571780	3.601360	-0.824040	0.973997	-0.163940	0.198242	-1.000000	-1.000000	-1.000000	-1.000000	-1.000000	-1.000000	-1.000000	82.275862	0.000000	-1.000000	-1.000000	1055610.000000	1770063607.308776
11554.515000	18563.310000	25201.440000	20750.445000	-7518.690000	-4316.220000	3198.690000	13569.795000	2.229093	5.676717	5.022490	3.962981	-1.961571	-0.906565	0.767944	-0.017748	-2.365300	3.357200	-0.457800	0.972654	-0.158935	0.199340	-1.000000	-1.000000	-1.000000	-1.000000	-1.000000	-1.000000	-1.000000	82.275862	0.000000	-1.000000	-1.000000	1055611.000000	1770063607.308789
11562.255000	18574.110000	25221.330000	20762.550000	-7513.245000	-4316.670000	3201.030000	13574.835000	3.941018	8.904953	11.262433	13.384352	0.448145	-1.992310	-0.858035	2.191208	-2.365300	3.357200	-0.457800	0.972654	-0.158935	0.199340	-1.000000	-1.000000	-1.000000	-1.000000	-1.000000	-1.000000	-1.000000	82.275862	0.000000	-1.000000	-1.000000	1055612.000000	1770063607.308794
11569.185000	18573.390000	25214.400000	20748.555000	-7521.885000	-4320.090000	3203.370000	13581.045000	5.244211	9.994288	14.895396	19.262093	3.704414	-2.563504	-2.465312	3.622638	-2.365300	3.357200	-0.457800	0.972654	-0.158935	0.199340	-1.000000	-1.000000	-1.000000	-1.000000	-1.000000	-1.000000	-1.000000	82.275862	0.000000	-1.000000	-1.000000	1055613.000000	1770063607.309165
11566.980000	18570.600000	25208.910000	20741.580000	-7529.130000	-4328.595000	3197.430000	13575.555000	5.701498	7.705303	12.746870	16.341571	5.572197	-1.953486	-2.434876	4.501200	-2.365300	3.357200	-0.457800	0.972654	-0.158935	0.199340	-1.000000	-1.000000	-1.000000	-1.000000	-1.000000	-1.000000	-1.000000	82.275862	0.000000	-1.000000	-1.000000	1055614.000000	1770063607.309175
11561.940000	18566.325000	25206.840000	20741.670000	-7525.800000	-4319.910000	3201.795000	13574.970000	4.529376	2.365756	4.774495	5.098860	4.278268	-0.650821	-0.823920	4.384534	-2.365300	3.357200	-0.457800	0.972654	-0.158935	0.199340	-1.000000	-1.000000	-1.000000	-1.000000	-1.000000	-1.000000	-1.000000	82.275862	0.000000	-1.000000	-1.000000	1055615.000000	1770063607.319026
11566.755000	18577.620000	25219.845000	20753.055000	-7516.170000	-4312.575000	3205.260000	13575.915000	1.554084	-3.607010	-4.838847	-7.869433	0.746689	0.785625	1.205291	2.848292	-2.365300	3.357200	-0.457800	0.972654	-0.158935	0.199340	-1.000000	-1.000000	-1.000000	-1.000000	-1.000000	-1.000000	-1.000000	82.275862	0.000000	-1.000000	-1.000000	1055616.000000	1770063607.319035
11577.510000	18596.925000	25235.730000	20763.315000	-7508.295000	-4308.390000	3206.610000	13579.245000	-2.062890	-7.227481	-10.931720	-15.307762	-2.142507	2.335683	2.672017	0.376487	-2.365300	3.357200	-0.457800	0.972654	-0.158935	0.199340	-1.000000	-1.000000	-1.000000	-1.000000	-1.000000	-1.000000	-1.000000	82.275862	0.000000	-1.000000	-1.000000	1055617.000000	1770063607.319044
11568.780000	18574.515000	25210.485000	20745.135000	-7511.040000	-4307.490000	3204.405000	13574.205000	-4.613218	-7.586650	-11.948289	-15.365282	-2.357124	3.898358	3.151867	-1.996202	-2.365300	3.357200	-0.457800	0.972654	-0.158935	0.199340	-1.000000	-1.000000	-1.000000	-1.000000	-1.000000	-1.000000	-1.000000	82.275862	0.000000	-1.000000	-1.000000	1055618.000000	1770063607.319049
11563.425000	18558.450000	25195.770000	20735.010000	-7513.380000	-4308.525000	3205.485000	13575.330000	-5.504794	-6.749645	-10.645834	-11.974865	-0.513351	4.926877	2.728017	-3.464578	-2.365300	3.357200	-0.457800	0.972654	-0.158935	0.199340	-1.000000	-1.000000	-1.000000	-1.000000	-1.000000	-1.000000	-1.000000	82.275862	0.000000	-1.000000	-1.000000	1055619.000000	1770063607.323848
11560.140000	18559.530000	25199.055000	20735.640000	-7518.690000	-4311.000000	3205.035000	13571.910000	-5.166719	-6.535916	-9.577619	-9.162552	1.036025	4.591770	1.754960	-3.672081	-2.365300	3.357200	-0.457800	0.972654	-0.158935	0.199340	-1.000000	-1.000000	-1.000000	-1.000000	-1.000000	-1.000000	-1.000000	82.275862	0.000000	-1.000000	-1.000000	1055620.000000	1770063607.323859
11563.605000	18569.610000	25210.530000	20745.225000	-7514.865000	-4305.780000	3210.435000	13576.905000	-3.923703	-5.879748	-7.876028	-6.739745	0.758922	2.579121	0.590646	-2.701357	-2.914660	2.212700	0.656180	0.969907	-0.158142	0.200134	-1.000000	-1.000000	-1.000000	-1.000000	-1.000000	-1.000000	-1.000000	82.275862	0.000000	-1.000000	-1.000000	1055621.000000	1770063607.332896
11558.925000	18564.345000	25204.365000	20740.275000	-7513.920000	-4304.970000	3210.120000	13576.410000	-2.016432	-2.994453	-3.518804	-2.239193	-0.633445	-0.228962	-0.453664	-1.044454	-2.914660	2.212700	0.656180	0.969907	-0.158142	0.200134	-1.000000	-1.000000	-1.000000	-1.000000	-1.000000	-1.000000	-1.000000	82.275862	0.000000	-1.000000	-1.000000	1055622.000000	1770063607.332907
11562.885000	18562.905000	25199.865000	20737.755000	-7510.590000	-4301.640000	3210.615000	13576.905000	0.234214	1.877498	3.277651	4.753300	-1.456928	-2.509452	-1.173306	0.704585	-2.914660	2.212700	0.656180	0.969907	-0.158142	0.200134	-1.000000	-1.000000	-1.000000	-1.000000	-1.000000	-1.000000	-1.000000	82.275862	0.000000	-1.000000	-1.000000	1055623.000000	1770063607.332919
11562.615000	18564.660000	25200.585000	20736.180000	-7512.120000	-4303.170000	3210.795000	13573.620000	2.544144	6.697037	9.781769	11.474362	-1.162656	-3.776643	-1.637742	1.984494	-2.914660	2.212700	0.656180	0.969907	-0.158142	0.200134	-1.000000	-1.000000	-1.000000	-1.000000	-1.000000	-1.000000	-1.000000	82.275862	0.000000	-1.000000	-1.000000	1055624.000000	1770063607.332924
11557.575000	18559.710000	25194.330000	20728.935000	-7520.895000	-4310.190000	3206.610000	13570.785000	4.141600	9.006849	12.720606	14.300717	-0.714402	-4.476653	-2.105981	2.211938	-2.914660	2.212700	0.656180	0.969907	-0.158142	0.200134	-1.000000	-1.000000	-1.000000	-1.000000	-1.000000	-1.000000	-1.000000	82.275862	0.000000	-1.000000	-1.000000	1055625.000000	1770063607.333153
11558.745000	18559.125000	25195.860000	20733.660000	-7515.180000	-4306.950000	3206.700000	13573.485000	3.986559	7.327840	10.481427	11.558695	-0.999519	-4.837198	-2.557135	1.267272	-2.914660	2.212700	0.656180	0.969907	-0.158142	0.200134	-1.000000	-1.000000	-1.000000	-1.000000	-1.000000	-1.000000	-1.000000	82.275862	0.000000	-1.000000	-1.000000	1055626.000000	1770063607.333163
11555.190000	18557.325000	25198.470000	20736.630000	-7511.040000	-4306.500000	3203.955000	13571.235000	2.224882	2.858496	4.804354	5.047167	-1.358460	-4.157112	-2.488846	-0.093125	-2.914660	2.212700	0.656180	0.969907	-0.158142	0.200134	-1.000000	-1.000000	-1.000000	-1.000000	-1.000000	-1.000000	-1.000000	82.275862	0.000000	-1.000000	-1.000000	1055627.000000	1770063607.339890
11556.900000	18557.100000	25195.860000	20729.115000	-7518.330000	-4312.395000	3200.985000	13574.385000	0.287640	-1.136489	-0.501592	-1.537373	-0.668267	-1.901368	-1.546480	-0.878054	-2.914660	2.212700	0.656180	0.969907	-0.158142	0.200134	-1.000000	-1.000000	-1.000000	-1.000000	-1.000000	-1.000000	-1.000000	82.275862	0.000000	-1.000000	-1.000000	1055628.000000	1770063607.339986
11561.355000	18556.065000	25181.820000	20699.055000	-7531.830000	-4315.905000	3203.010000	13577.490000	-0.585681	-2.649482	-3.522214	-6.201212	0.656399	1.101565	-0.039643	-0.656618	-2.914660	2.212700	0.656180	0.969907	-0.158142	0.200134	-1.000000	-1.000000	-1.000000	-1.000000	-1.000000	-1.000000	-1.000000	82.275862	0.000000	-1.000000	-1.000000	1055629.000000	1770063607.347044
11564.325000	18557.640000	25172.865000	20678.805000	-7533.540000	-4314.420000	3205.305000	13577.895000	-0.272434	-2.295223	-5.164931	-9.331166	1.214920	3.366021	1.413132	0.209537	-2.914660	2.212700	0.656180	0.969907	-0.158142	0.200134	-1.000000	-1.000000	-1.000000	-1.000000	-1.000000	-1.000000	-1.000000	82.275862	0.000000	-1.000000	-1.000000	1055630.000000	1770063607.347054
11569.230000	18567.630000	25189.605000	20704.230000	-7521.030000	-4307.130000	3209.895000	13582.260000	0.571492	-1.254211	-5.859491	-10.434906	0.801478	4.198730	2.430369	0.971078	-4.990020	1.052940	-1.007160	0.970334	-0.157409	0.200439	-1.000000	-1.000000	-1.000000	-1.000000	-1.000000	-1.000000	-1.000000	82.275862	0.000000	-1.000000	-1.000000	1055631.000000	1770063607.350017
11560.770000	18562.590000	25189.470000	20725.245000	-7510.005000	-4301.640000	3208.860000	13574.970000	1.093558	0.055360	-4.302026	-6.964436	0.705272	3.928189	2.872070	1.135390	-4.990020	1.052940	-1.007160	0.970334	-0.157409	0.200439	-1.000000	-1.000000	-1.000000	-1.000000	-1.000000	-1.000000	-1.000000	82.275862	0.000000	-1.000000	-1.000000	1055632.000000	1770063607.350027
11559.420000	18564.300000	25198.020000	20747.655000	-7496.595000	-4299.930000	3207.015000	13573.395000	0.524581	1.040584	-0.279978	1.812894	1.932743	3.090791	2.523658	0.531941	-4.990020	1.052940	-1.007160	0.970334	-0.157409	0.200439	-1.000000	-1.000000	-1.000000	-1.000000	-1.000000	-1.000000	-1.000000	82.275862	0.000000	-1.000000	-1.000000	1055633.000000	1770063607.350206
11554.335000	18557.280000	25198.020000	20743.605000	-7503.660000	-4306.410000	3203.055000	13568.130000	-1.172844	0.805646	4.049252	11.869509	3.845842	1.865012	1.283324	-0.689830	-4.990020	1.052940	-1.007160	0.970334	-0.157409	0.200439	-1.000000	-1.000000	-1.000000	-1.000000	-1.000000	-1.000000	-1.000000	82.275862	0.000000	-1.000000	-1.000000	1055634.000000	1770063607.350213
11546.730000	18553.410000	25190.145000	20720.520000	-7538.760000	-4324.005000	3197.745000	13564.035000	-3.099020	-0.730702	6.034914	16.524342	3.984211	-0.058979	-0.487994	-2.011071	-4.990020	1.052940	-1.007160	0.970334	-0.157409	0.200439	-1.000000	-1.000000	-1.000000	-1.000000	-1.000000	-1.000000	-1.000000	82.275862	0.000000	-1.000000	-1.000000	1055635.000000	1770063607.353107
11555.460000	18567.945000	25209.405000	20728.935000	-7544.970000	-4327.020000	3198.105000	13571.820000	-3.977268	-2.256513	4.784410	11.911725	0.190973	-2.797750	-2.050006	-2.651481	-4.990020	1.052940	-1.007160	0.970334	-0.157409	0.200439	-1.000000	-1.000000	-1.000000	-1.000000	-1.000000	-1.000000	-1.000000	82.275862	0.000000	-1.000000	-1.000000	1055636.000000	1770063607.353116
11554.110000	18563.940000	25210.575000	20733.030000	-7536.195000	-4327.290000	3195.045000	13570.335000	-2.889099	-2.132642	1.883081	1.105449	-5.682049	-5.111546	-2.654717	-1.945673	-4.990020	1.052940	-1.007160	0.970334	-0.157409	0.200439	-1.000000	-1.000000	-1.000000	-1.000000	-1.000000	-1.000000	-1.000000	82.275862	0.000000	-1.000000	-1.000000	1055637.000000	1770063607.357348
11546.820000	18551.385000	25202.160000	20734.020000	-7528.320000	-4321.935000	3197.205000	13565.565000	-0.396067	-0.602303	-0.640649	-8.399307	-8.530420	-5.103286	-2.112217	-0.240804	-4.990020	1.052940	-1.007160	0.970334	-0.157409	0.200439	-1.000000	-1.000000	-1.000000	-1.000000	-1.000000	-1.000000	-1.000000	82.275862	0.000000	-1.000000	-1.000000	1055638.000000	1770063607.357358
11549.700000	18544.545000	25180.605000	20716.380000	-7526.520000	-4318.920000	3197.205000	13557.510000	1.737896	0.330174	-2.567965	-11.663214	-5.601900	-2.316116	-0.891891	1.117095	-4.990020	1.052940	-1.007160	0.970334	-0.157409	0.200439	-1.000000	-1.000000	-1.000000	-1.000000	-1.000000	-1.000000	-1.000000	82.275862	0.000000	-1.000000	-1.000000	1055639.000000	1770063607.361073
11547.720000	18531.180000	25147.035000	20686.680000	-7522.650000	-4309.110000	3204.585000	13562.910000	2.487297	-0.563520	-5.195317	-10.184051	0.717583	1.725487	0.442018	1.296707	-4.990020	1.052940	-1.007160	0.970334	-0.157409	0.200439	-1.000000	-1.000000	-1.000000	-1.000000	-1.000000	-1.000000	-1.000000	82.275862	0.000000	-1.000000	-1.000000	1055640.000000	1770063607.361082
11549.970000	18541.080000	25159.590000	20688.210000	-7520.535000	-4303.170000	3210.795000	13572.675000	2.233381	-2.352509	-8.669565	-8.491318	5.766068	4.895701	1.669945	1.046151	-3.158820	0.518840	1.007160	0.970884	-0.161987	0.194396	-1.000000	-1.000000	-1.000000	-1.000000	-1.000000	-1.000000	-1.000000	82.275862	0.000000	-1.000000	-1.000000	1055641.000000	1770063607.369830
11557.890000	18552.150000	25160.445000	20684.385000	-7529.400000	-4312.170000	3207.330000	13579.065000	1.905936	-2.690139	-10.215982	-7.994128	6.581723	5.771577	2.650080	1.665950	-3.158820	0.518840	1.007160	0.970884	-0.161987	0.194396	-1.000000	-1.000000	-1.000000	-1.000000	-1.000000	-1.000000	-1.000000	82.275862	0.000000	-1.000000	-1.000000	1055642.000000	1770063607.369840
11555.145000	18550.935000	25163.820000	20701.530000	-7524.315000	-4316.040000	3200.940000	13572.000000	2.048214	-0.135662	-6.931978	-6.007911	3.703218	4.092771	2.847363	3.067966	-3.158820	0.518840	1.007160	0.970884	-0.161987	0.194396	-1.000000	-1.000000	-1.000000	-1.000000	-1.000000	-1.000000	-1.000000	82.275862	0.000000	-1.000000	-1.000000	1055643.000000	1770063607.370075
11553.165000	18571.545000	25217.235000	20748.780000	-7516.845000	-4323.510000	3186.720000	13556.970000	2.256235	4.248889	1.273805	0.702943	0.514193	0.907183	1.609985	3.460104	-3.158820	0.518840	1.007160	0.970884	-0.161987	0.194396	-1.000000	-1.000000	-1.000000	-1.000000	-1.000000	-1.000000	-1.000000	82.275862	0.000000	-1.000000	-1.000000	1055644.000000	1770063607.370084
11561.490000	18586.260000	25242.165000	20775.555000	-7491.420000	-4307.220000	3192.210000	13559.850000	1.682665	8.025498	11.895235	11.936608	0.130700	-1.885370	-0.881405	1.308650	-3.158820	0.518840	1.007160	0.970884	-0.161987	0.194396	-1.000000	-1.000000	-1.000000	-1.000000	-1.000000	-1.000000	-1.000000	82.275862	0.000000	-1.000000	-1.000000	1055645.000000	1770063607.374702
11557.755000	18557.730000	25203.645000	20750.850000	-7492.905000	-4293.270000	3207.375000	13566.780000	0.176175	8.792081	19.613508	21.918528	2.367697	-2.581215	-2.980202	-2.408500	-3.158820	0.518840	1.007160	0.970884	-0.161987	0.194396	-1.000000	-1.000000	-1.000000	-1.000000	-1.000000	-1.000000	-1.000000	82.275862	0.000000	-1.000000	-1.000000	1055646.000000	1770063607.374713
11556.405000	18534.915000	25161.705000	20711.115000	-7516.575000	-4297.320000	3207.555000	13570.155000	-1.640029	4.844289	18.006167	22.506839	3.749011	-1.111093	-2.876111	-4.789162	-3.158820	0.518840	1.007160	0.970884	-0.161987	0.194396	-1.000000	-1.000000	-1.000000	-1.000000	-1.000000	-1.000000	-1.000000	82.275862	0.000000	-1.000000	-1.000000	1055647.000000	1770063607.382023
11564.685000	18553.905000	25170.120000	20700.180000	-7540.470000	-4315.860000	3198.960000	13571.640000	-2.964275	-2.618525	6.137114	10.783852	0.652256	0.263115	-0.917128	-4.027383	-3.158820	0.518840	1.007160	0.970884	-0.161987	0.194396	-1.000000	-1.000000	-1.000000	-1.000000	-1.000000	-1.000000	-1.000000	82.275862	0.000000	-1.000000	-1.000000	1055648.000000	1770063607.382033
11578.050000	18598.500000	25231.050000	20747.610000	-7552.395000	-4343.715000	3183.255000	13571.460000	-2.929659	-8.261815	-7.738249	-6.426236	-6.822671	-1.286803	0.487872	-1.052565	-3.158820	0.518840	1.007160	0.970884	-0.161987	0.194396	-1.000000	-1.000000	-1.000000	-1.000000	-1.000000	-1.000000	-1.000000	82.275862	0.000000	-1.000000	-1.000000	1055649.000000	1770063607.382044
11548.800000	18562.005000	25204.545000	20746.035000	-7547.220000	-4335.660000	3190.275000	13564.620000	-1.638691	-7.875006	-13.885184	-17.893119	-14.016005	-5.740638	-0.253299	1.562228	-3.158820	0.518840	1.007160	0.970884	-0.161987	0.194396	-1.000000	-1.000000	-1.000000	-1.000000	-1.000000	-1.000000	-1.000000	82.275862	0.000000	-1.000000	-1.000000	1055650.000000	1770063607.382049
11524.230000	18535.860000	25187.130000	20741.670000	-7540.290000	-4333.140000	3187.305000	13554.360000	-1.199820	-4.155518	-11.521168	-18.417712	-15.069193	-9.020985	-1.919007	1.832526	5.661460	1.693860	0.305200	0.973386	-0.172241	0.194091	-1.000000	-1.000000	-1.000000	-1.000000	-1.000000	-1.000000	-1.000000	82.275862	0.000000	-1.000000	-1.000000	1055651.000000	1770063607.386655
11531.610000	18535.320000	25184.115000	20723.085000	-7533.630000	-4325.670000	3190.950000	13551.300000	-2.916936	-2.445764	-6.935292	-11.872668	-7.762408	-6.818593	-2.052074	0.013380	5.661460	1.693860	0.305200	0.973386	-0.172241	0.194091	-1.000000	-1.000000	-1.000000	-1.000000	-1.000000	-1.000000	-1.000000	82.275862	0.000000	-1.000000	-1.000000	1055652.000000	1770063607.386663
11535.660000	18540.225000	25181.190000	20697.570000	-7530.120000	-4317.165000	3195.180000	13545.045000	-4.617979	-3.689446	-5.163603	-5.840812	4.287452	0.828953	0.330437	-1.856026	5.661460	1.693860	0.305200	0.973386	-0.172241	0.194091	-1.000000	-1.000000	-1.000000	-1.000000	-1.000000	-1.000000	-1.000000	82.275862	0.000000	-1.000000	-1.000000	1055653.000000	1770063607.389435
11531.430000	18533.385000	25159.995000	20680.020000	-7535.565000	-4318.830000	3190.275000	13543.380000	-3.587509	-4.967010	-6.586692	-4.725502	14.032741	9.329602	3.711179	-2.251601	5.661460	1.693860	0.305200	0.973386	-0.172241	0.194091	-1.000000	-1.000000	-1.000000	-1.000000	-1.000000	-1.000000	-1.000000	82.275862	0.000000	-1.000000	-1.000000	1055654.000000	1770063607.389446
11534.580000	18526.365000	25141.635000	20661.615000	-7549.380000	-4329.270000	3186.495000	13564.620000	0.200909	-3.217383	-7.489622	-6.070556	16.188384	13.026114	5.144876	-0.996198	5.661460	1.693860	0.305200	0.973386	-0.172241	0.194091	-1.000000	-1.000000	-1.000000	-1.000000	-1.000000	-1.000000	-1.000000	82.275862	0.000000	-1.000000	-1.000000	1055655.000000	1770063607.395670
11555.955000	18550.485000	25174.800000	20699.415000	-7535.250000	-4315.770000	3196.440000	13581.495000	5.020854	2.499827	-3.174963	-3.420423	11.180314	9.895962	3.317234	1.793283	5.661460	1.693860	0.305200	0.973386	-0.172241	0.194091	-1.000000	-1.000000	-1.000000	-1.000000	-1.000000	-1.000000	-1.000000	82.275862	0.000000	-1.000000	-1.000000	1055656.000000	1770063607.395677
11554.335000	18555.210000	25186.905000	20721.915000	-7516.755000	-4302.720000	3199.770000	13568.625000	8.794030	9.673789	6.909503	6.490993	4.250385	3.436244	0.159958	5.126537	5.661460	1.693860	0.305200	0.973386	-0.172241	0.194091	-1.000000	-1.000000	-1.000000	-1.000000	-1.000000	-1.000000	-1.000000	82.275862	0.000000	-1.000000	-1.000000	1055657.000000	1770063607.397070
11541.015000	18544.905000	25181.595000	20722.455000	-7516.620000	-4308.705000	3190.320000	13554.450000	9.319467	13.257638	16.743088	18.820205	0.076208	-1.329200	-1.770606	6.302925	5.661460	1.693860	0.305200	0.973386	-0.172241	0.194091	-1.000000	-1.000000	-1.000000	-1.000000	-1.000000	-1.000000	-1.000000	82.275862	0.000000	-1.000000	-1.000000	1055658.000000	1770063607.397080
11535.930000	18544.410000	25191.360000	20716.020000	-7545.735000	-4332.195000	3178.530000	13558.545000	5.910129	10.477549	19.403767	24.406627	-1.590025	-3.278909	-2.274090	3.577706	5.661460	1.693860	0.305200	0.973386	-0.172241	0.194091	-1.000000	-1.000000	-1.000000	-1.000000	-1.000000	-1.000000	-1.000000	82.275862	0.000000	-1.000000	-1.000000	1055659.000000	1770063607.401380
11526.390000	18531.045000	25174.170000	20707.785000	-7557.030000	-4341.015000	3177.495000	13563.405000	0.567429	3.708966	13.900935	18.717972	-4.105668	-4.802939	-2.562573	-1.147433	5.661460	1.693860	0.305200	0.973386	-0.172241	0.194091	-1.000000	-1.000000	-1.000000	-1.000000	-1.000000	-1.000000	-1.000000	82.275862	0.000000	-1.000000	-1.000000	1055660.000000	1770063607.401390
11526.075000	18535.860000	25179.210000	20720.115000	-7547.580000	-4337.280000	3177.540000	13557.960000	-4.174651	-3.130263	3.596328	5.209272	-8.407404	-7.057986	-2.859443	-4.376656	6.531280	2.609460	1.495480	0.976316	-0.164062	0.189147	-1.000000	-1.000000	-1.000000	-1.000000	-1.000000	-1.000000	-1.000000	82.275862	0.000000	-1.000000	-1.000000	1055661.000000	1770063607.409434
11537.820000	18545.220000	25190.280000	20730.915000	-7531.155000	-4320.540000	3187.395000	13555.260000	-6.863433	-7.653884	-7.041480	-8.155461	-11.304219	-8.217997	-2.346601	-4.643805	6.531280	2.609460	1.495480	0.976316	-0.164062	0.189147	-1.000000	-1.000000	-1.000000	-1.000000	-1.000000	-1.000000	-1.000000	82.275862	0.000000	-1.000000	-1.000000	1055662.000000	1770063607.409444
11560.005000	18557.910000	25189.245000	20723.310000	-7523.910000	-4314.510000	3188.205000	13561.335000	-6.354367	-8.235602	-12.952776	-14.624686	-9.188034	-5.987973	-0.526260	-2.970136	6.531280	2.609460	1.495480	0.976316	-0.164062	0.189147	-1.000000	-1.000000	-1.000000	-1.000000	-1.000000	-1.000000	-1.000000	82.275862	0.000000	-1.000000	-1.000000	1055663.000000	1770063607.409456
11557.845000	18555.210000	25182.405000	20723.535000	-7505.280000	-4292.010000	3195.540000	13561.515000	-2.624080	-4.593424	-11.509853	-12.926539	-1.739058	-0.192074	2.008307	-1.247991	6.531280	2.609460	1.495480	0.976316	-0.164062	0.189147	-1.000000	-1.000000	-1.000000	-1.000000	-1.000000	-1.000000	-1.000000	82.275862	0.000000	-1.000000	-1.000000	1055664.000000	1770063607.409461
11564.190000	18560.610000	25199.460000	20753.910000	-7494.300000	-4286.205000	3196.845000	13571.640000	1.692653	0.432284	-5.398721	-6.832373	7.524003	6.720291	3.888673	-0.592083	6.531280	2.609460	1.495480	0.976316	-0.164062	0.189147	-1.000000	-1.000000	-1.000000	-1.000000	-1.000000	-1.000000	-1.000000	82.275862	0.000000	-1.000000	-1.000000	1055665.000000	1770063607.413180
11578.230000	18580.320000	25222.680000	20790.765000	-7469.820000	-4273.965000	3211.695000	13585.590000	3.744194	3.150135	0.436705	-0.789676	13.602906	11.128639	4.254861	-0.118347	6.531280	2.609460	1.495480	0.976316	-0.164062	0.189147	-1.000000	-1.000000	-1.000000	-1.000000	-1.000000	-1.000000	-1.000000	82.275862	0.000000	-1.000000	-1.000000	1055666.000000	1770063607.413190
11570.760000	18555.930000	25180.290000	20758.860000	-7482.285000	-4280.220000	3219.345000	13589.190000	3.477894	2.686479	2.935292	2.702695	13.535274	10.826847	3.641214	1.777387	6.531280	2.609460	1.495480	0.976316	-0.164062	0.189147	-1.000000	-1.000000	-1.000000	-1.000000	-1.000000	-1.000000	-1.000000	82.275862	0.000000	-1.000000	-1.000000	1055667.000000	1770063607.417197
11569.005000	18563.580000	25199.280000	20776.545000	-7508.565000	-4295.610000	3214.170000	13583.520000	2.250423	0.507736	1.594458	2.713817	7.516999	6.146346	2.843180	4.467309	6.531280	2.609460	1.495480	0.976316	-0.164062	0.189147	-1.000000	-1.000000	-1.000000	-1.000000	-1.000000	-1.000000	-1.000000	82.275862	0.000000	-1.000000	-1.000000	1055668.000000	1770063607.417207
11558.565000	18549.765000	25182.000000	20755.665000	-7562.925000	-4326.705000	3201.885000	13574.160000	0.608827	-1.635011	-1.529041	0.061516	-2.741060	-1.325500	1.371008	5.257841	6.531280	2.609460	1.495480	0.976316	-0.164062	0.189147	-1.000000	-1.000000	-1.000000	-1.000000	-1.000000	-1.000000	-1.000000	82.275862	0.000000	-1.000000	-1.000000	1055669.000000	1770063607.421080
11545.740000	18529.830000	25147.935000	20716.830000	-7570.890000	-4337.640000	3188.070000	13562.010000	-1.776800	-3.217917	-4.206100	-3.936997	-14.575077	-9.709212	-1.854640	2.572366	6.531280	2.609460	1.495480	0.976316	-0.164062	0.189147	-1.000000	-1.000000	-1.000000	-1.000000	-1.000000	-1.000000	-1.000000	82.275862	0.000000	-1.000000	-1.000000	1055670.000000	1770063607.421090
11549.205000	18549.675000	25177.770000	20717.055000	-7537.095000	-4321.125000	3186.000000	13556.970000	-4.972496	-4.530423	-5.640966	-8.278448	-22.590874	-15.920928	-6.476799	-2.440172	1.342880	7.782600	3.876040	0.977720	-0.164978	0.181640	-1.000000	-1.000000	-1.000000	-1.000000	-1.000000	-1.000000	-1.000000	82.275862	0.000000	-1.000000	-1.000000	1055671.000000	1770063607.428599
11550.870000	18557.910000	25193.385000	20696.670000	-7527.645000	-4311.855000	3187.755000	13558.995000	-7.658128	-4.410226	-3.853978	-10.347408	-20.419228	-16.038354	-10.032542	-7.046114	1.342880	7.782600	3.876040	0.977720	-0.164978	0.181640	-1.000000	-1.000000	-1.000000	-1.000000	-1.000000	-1.000000	-1.000000	82.275862	0.000000	-1.000000	-1.000000	1055672.000000	1770063607.428609
11551.455000	18559.440000	25198.425000	20694.555000	-7536.690000	-4317.480000	3185.460000	13560.705000	-7.828189	-1.533209	2.398915	-7.807297	-7.717615	-9.090754	-9.880997	-8.776698	1.342880	7.782600	3.876040	0.977720	-0.164978	0.181640	-1.000000	-1.000000	-1.000000	-1.000000	-1.000000	-1.000000	-1.000000	82.275862	0.000000	-1.000000	-1.000000	1055673.000000	1770063607.430090
11548.980000	18558.405000	25199.595000	20718.495000	-7541.820000	-4323.870000	3184.245000	13556.835000	-4.816960	2.612855	9.317747	-1.816137	7.779549	1.014843	-5.688674	-6.833901	1.342880	7.782600	3.876040	0.977720	-0.164978	0.181640	-1.000000	-1.000000	-1.000000	-1.000000	-1.000000	-1.000000	-1.000000	82.275862	0.000000	-1.000000	-1.000000	1055674.000000	1770063607.430116
11546.235000	18552.960000	25200.180000	20750.355000	-7524.450000	-4313.475000	3192.480000	13559.130000	0.069515	5.069816	11.467958	5.220727	17.489747	9.151650	0.532239	-2.386071	1.342880	7.782600	3.876040	0.977720	-0.164978	0.181640	-1.000000	-1.000000	-1.000000	-1.000000	-1.000000	-1.000000	-1.000000	82.275862	0.000000	-1.000000	-1.000000	1055675.000000	1770063607.433364
11552.310000	18551.880000	25189.335000	20739.015000	-7515.765000	-4300.290000	3203.640000	13566.915000	5.011450	4.831925	7.776153	11.974246	19.127554	13.277465	6.390751	2.669842	1.342880	7.782600	3.876040	0.977720	-0.164978	0.181640	-1.000000	-1.000000	-1.000000	-1.000000	-1.000000	-1.000000	-1.000000	82.275862	0.000000	-1.000000	-1.000000	1055676.000000	1770063607.433375
11571.030000	18580.320000	25215.570000	20766.600000	-7507.890000	-4295.880000	3200.085000	13573.935000	9.040644	3.556521	1.515364	16.665907	16.127424	14.361882	10.325598	6.978690	1.342880	7.782600	3.876040	0.977720	-0.164978	0.181640	-1.000000	-1.000000	-1.000000	-1.000000	-1.000000	-1.000000	-1.000000	82.275862	0.000000	-1.000000	-1.000000	1055677.000000	1770063607.438871
11567.205000	18570.330000	25199.685000	20778.525000	-7502.850000	-4288.140000	3202.695000	13571.820000	11.551716	3.270746	-3.238273	17.515021	12.318320	13.532306	11.406903	9.652881	1.342880	7.782600	3.876040	0.977720	-0.164978	0.181640	-1.000000	-1.000000	-1.000000	-1.000000	-1.000000	-1.000000	-1.000000	82.275862	0.000000	-1.000000	-1.000000	1055678.000000	1770063607.438887
11549.070000	18542.520000	25169.580000	20770.290000	-7500.150000	-4284.630000	3213.045000	13568.175000	11.021933	3.353730	-5.038670	14.326218	8.102538	10.438652	9.473708	9.791947	1.342880	7.782600	3.876040	0.977720	-0.164978	0.181640	-1.000000	-1.000000	-1.000000	-1.000000	-1.000000	-1.000000	-1.000000	82.275862	0.000000	-1.000000	-1.000000	1055679.000000	1770063607.451496
11551.275000	18555.660000	25203.555000	20769.750000	-7495.425000	-4279.365000	3218.580000	13577.130000	5.915109	1.137961	-5.435779	7.473195	1.334353	4.118212	5.384259	6.934992	1.342880	7.782600	3.876040	0.977720	-0.164978	0.181640	-1.000000	-1.000000	-1.000000	-1.000000	-1.000000	-1.000000	-1.000000	82.275862	0.000000	-1.000000	-1.000000	1055680.000000	1770063607.451507
11543.310000	18560.205000	25220.205000	20763.585000	-7503.615000	-4292.955000	3198.420000	13570.785000	-2.581822	-3.538889	-5.076370	-1.934763	-8.310633	-4.953093	0.074952	1.760289	18.022060	7.782600	-1.342880	0.975217	-0.188354	0.185791	-1.000000	-1.000000	-1.000000	-1.000000	-1.000000	-1.000000	-1.000000	82.275862	0.000000	-1.000000	-1.000000	1055681.000000	1770063607.451518
11537.190000	18546.120000	25188.885000	20748.285000	-7518.465000	-4300.020000	3191.850000	13556.610000	-10.565195	-7.705255	-3.539564	-11.739127	-17.475956	-13.956545	-5.843590	-4.287104	18.022060	7.782600	-1.342880	0.975217	-0.188354	0.185791	-1.000000	-1.000000	-1.000000	-1.000000	-1.000000	-1.000000	-1.000000	82.275862	0.000000	-1.000000	-1.000000	1055682.000000	1770063607.451524
11530.440000	18521.370000	25150.860000	20697.255000	-7556.355000	-4329.090000	3177.540000	13539.555000	-14.320066	-9.311526	-2.715381	-20.656229	-22.405086	-19.337007	-11.087468	-9.639755	18.022060	7.782600	-1.342880	0.975217	-0.188354	0.185791	-1.000000	-1.000000	-1.000000	-1.000000	-1.000000	-1.000000	-1.000000	82.275862	0.000000	-1.000000	-1.000000	1055683.000000	1770063607.451529
11536.200000	18525.870000	25151.220000	20667.330000	-7564.500000	-4336.965000	3157.515000	13541.400000	-12.268901	-8.139343	-4.211533	-27.650929	-21.829680	-19.292895	-13.980136	-12.587044	18.022060	7.782600	-1.342880	0.975217	-0.188354	0.185791	-1.000000	-1.000000	-1.000000	-1.000000	-1.000000	-1.000000	-1.000000	82.275862	0.000000	-1.000000	-1.000000	1055684.000000	1770063607.451534
11545.380000	18529.740000	25141.905000	20649.420000	-7565.085000	-4332.645000	3167.685000	13559.490000	-5.381897	-4.237955	-5.783954	-29.314065	-15.721543	-13.912836	-13.290708	-11.333283	18.022060	7.782600	-1.342880	0.975217	-0.188354	0.185791	-1.000000	-1.000000	-1.000000	-1.000000	-1.000000	-1.000000	-1.000000	82.275862	0.000000	-1.000000	-1.000000	1055685.000000	1770063607.467170
11555.820000	18534.105000	25134.390000	20661.345000	-7559.820000	-4369.185000	3173.760000	13573.080000	3.254211	1.454306	-4.539435	-21.711146	-4.426563	-4.709311	-8.022186	-5.102945	18.022060	7.782600	-1.342880	0.975217	-0.188354	0.185791	-1.000000	-1.000000	-1.000000	-1.000000	-1.000000	-1.000000	-1.000000	82.275862	0.000000	-1.000000	-1.000000	1055686.000000	1770063607.467180
11558.340000	18549.360000	25162.065000	20720.880000	-7545.465000	-4405.545000	3191.490000	13573.980000	10.161945	7.255303	0.526866	-3.980367	9.564877	4.369084	1.377367	4.239639	18.022060	7.782600	-1.342880	0.975217	-0.188354	0.185791	-1.000000	-1.000000	-1.000000	-1.000000	-1.000000	-1.000000	-1.000000	82.275862	0.000000	-1.000000	-1.000000	1055687.000000	1770063607.467191
11558.430000	18560.205000	25188.165000	20743.830000	-7535.925000	-4401.000000	3181.005000	13570.875000	13.079936	11.971433	9.041015	20.138439	21.239142	9.156488	11.300192	12.212745	18.022060	7.782600	-1.342880	0.975217	-0.188354	0.185791	-1.000000	-1.000000	-1.000000	-1.000000	-1.000000	-1.000000	-1.000000	82.275862	0.000000	-1.000000	-1.000000	1055688.000000	1770063607.467196
11551.455000	18554.445000	25190.280000	20739.195000	-7531.830000	-4362.930000	3174.120000	13559.670000	11.102753	13.725145	17.211463	41.207950	25.669933	10.063060	16.553986	14.268029	18.022060	7.782600	-1.342880	0.975217	-0.188354	0.185791	-1.000000	-1.000000	-1.000000	-1.000000	-1.000000	-1.000000	-1.000000	82.275862	0.000000	-1.000000	-1.000000	1055689.000000	1770063607.467202
11552.850000	18552.375000	25183.395000	20731.995000	-7571.565000	-4429.305000	3145.545000	13556.745000	5.002529	10.257171	18.783919	47.774657	20.792146	10.202874	14.290467	9.231564	18.022060	7.782600	-1.342880	0.975217	-0.188354	0.185791	-1.000000	-1.000000	-1.000000	-1.000000	-1.000000	-1.000000	-1.000000	82.275862	0.000000	-1.000000	-1.000000	1055690.000000	1770063607.467206
11568.510000	18576.315000	25202.745000	20753.280000	-7585.380000	-4600.260000	3085.875000	13563.810000	-2.157400	2.686239	11.987303	35.511047	8.466331	7.473862	5.280291	0.694500	29.711220	5.676720	-4.104940	0.975400	-0.188232	0.193908	-1.000000	-1.000000	-1.000000	-1.000000	-1.000000	-1.000000	-1.000000	82.275862	0.000000	-1.000000	-1.000000	1055691.000000	1770063607.467211
11566.485000	18581.220000	25226.865000	20784.105000	-7556.445000	-4581.180000	3087.585000	13564.980000	-6.664163	-4.138007	2.131610	11.880573	-5.141161	-2.426466	-6.748082	-5.806156	29.711220	5.676720	-4.104940	0.975400	-0.188232	0.193908	-1.000000	-1.000000	-1.000000	-1.000000	-1.000000	-1.000000	-1.000000	82.275862	0.000000	-1.000000	-1.000000	1055692.000000	1770063607.467216
11580.795000	18614.700000	25285.635000	20846.385000	-7452.360000	-4320.405000	3123.135000	13571.325000	-7.112770	-6.424903	-3.903266	-9.338973	-11.230234	-10.617043	-14.825118	-7.450619	29.711220	5.676720	-4.104940	0.975400	-0.188232	0.193908	-1.000000	-1.000000	-1.000000	-1.000000	-1.000000	-1.000000	-1.000000	82.275862	0.000000	-1.000000	-1.000000	1055693.000000	1770063607.482222
11581.560000	18605.430000	25254.495000	20818.170000	-7396.515000	-4020.570000	3221.910000	13572.585000	-4.931179	-4.739086	-4.254751	-19.377894	-4.561933	3.677447	-11.621909	-5.550771	29.711220	5.676720	-4.104940	0.975400	-0.188232	0.193908	-1.000000	-1.000000	-1.000000	-1.000000	-1.000000	-1.000000	-1.000000	82.275862	0.000000	-1.000000	-1.000000	1055694.000000	1770063607.482235
11543.535000	18542.520000	25168.770000	20703.105000	-7536.960000	-4126.140000	3239.370000	13552.515000	-2.992686	-3.508936	-4.420294	-22.334899	7.819570	42.989256	3.520115	-3.232073	29.711220	5.676720	-4.104940	0.975400	-0.188232	0.193908	-1.000000	-1.000000	-1.000000	-1.000000	-1.000000	-1.000000	-1.000000	82.275862	0.000000	-1.000000	-1.000000	1055695.000000	1770063607.482248
11540.520000	18541.935000	25180.065000	20725.155000	-7550.730000	-4244.445000	3248.010000	13562.640000	-3.499664	-6.879508	-10.925944	-27.904375	9.441934	73.420620	20.915765	-2.352421	29.711220	5.676720	-4.104940	0.975400	-0.188232	0.193908	-1.000000	-1.000000	-1.000000	-1.000000	-1.000000	-1.000000	-1.000000	82.275862	0.000000	-1.000000	-1.000000	1055696.000000	1770063607.482253
11537.505000	18530.055000	25169.760000	20725.785000	-7566.435000	-4324.185000	3244.635000	13584.780000	-5.467870	-13.240330	-21.721972	-35.365951	-6.165797	56.194840	27.537884	-1.786039	29.711220	5.676720	-4.104940	0.975400	-0.188232	0.193908	-1.000000	-1.000000	-1.000000	-1.000000	-1.000000	-1.000000	-1.000000	82.275862	0.000000	-1.000000	-1.000000	1055697.000000	1770063607.482260
11522.970000	18511.605000	25149.420000	20712.510000	-7590.915000	-4395.825000	3184.155000	13576.635000	-5.792418	-16.565190	-27.906696	-34.194303	-27.084258	-9.300558	17.618583	0.580800	29.711220	5.676720	-4.104940	0.975400	-0.188232	0.193908	-1.000000	-1.000000	-1.000000	-1.000000	-1.000000	-1.000000	-1.000000	82.275862	0.000000	-1.000000	-1.000000	1055698.000000	1770063607.482265
11523.240000	18511.650000	25149.375000	20716.065000	-7600.905000	-4429.305000	3173.085000	13565.160000	-3.056314	-12.859025	-23.060583	-18.889930	-36.507323	-83.338522	-4.005858	4.075234	29.711220	5.676720	-4.104940	0.975400	-0.188232	0.193908	-1.000000	-1.000000	-1.000000	-1.000000	-1.000000	-1.000000	-1.000000	82.275862	0.000000	-1.000000	-1.000000	1055699.000000	1770063607.482270
11535.570000	18539.460000	25181.280000	20741.850000	-7615.305000	-4567.095000	3149.640000	13546.305000	1.741612	-2.555817	-7.324461	5.461957	-26.989395	-119.699454	-25.043307	5.500381	29.711220	5.676720	-4.104940	0.975400	-0.188232	0.193908	-1.000000	-1.000000	-1.000000	-1.000000	-1.000000	-1.000000	-1.000000	82.275862	0.000000	-1.000000	-1.000000	1055700.000000	1770063607.482275
11552.130000	18574.065000	25220.025000	20764.035000	-7545.195000	-4534.830000	3114.630000	13546.935000	6.988970	10.994120	13.493749	28.354617	-3.902241	-102.022927	-34.702753	2.996920	38.913000	5.951400	-7.691040	0.967466	-0.180114	0.209411	-1.000000	-1.000000	-1.000000	-1.000000	-1.000000	-1.000000	-1.000000	82.206897	0.000000	-1.000000	-1.000000	1055701.000000	1770063607.485652
11578.410000	18596.385000	25238.655000	20778.705000	-7428.465000	-4222.530000	3183.930000	13564.755000	11.172806	22.694866	30.566485	40.209738	21.260390	-46.773101	-30.772852	-1.651485	38.913000	5.951400	-7.691040	0.967466	-0.180114	0.209411	-1.000000	-1.000000	-1.000000	-1.000000	-1.000000	-1.000000	-1.000000	82.206897	0.000000	-1.000000	-1.000000	1055702.000000	1770063607.485664
11579.085000	18565.740000	25182.630000	20715.480000	-7484.580000	-4061.520000	3279.330000	13580.370000	12.952853	27.237798	36.515821	37.180176	38.658050	21.930825	-16.037500	-4.395057	38.913000	5.951400	-7.691040	0.967466	-0.180114	0.209411	-1.000000	-1.000000	-1.000000	-1.000000	-1.000000	-1.000000	-1.000000	82.206897	0.000000	-1.000000	-1.000000	1055703.000000	1770063607.489143
11551.995000	18542.880000	25161.030000	20698.695000	-7590.645000	-4301.595000	3214.575000	13563.810000	11.275068	21.938446	29.073875	22.295588	41.031516	81.183994	4.229818	-2.854765	38.913000	5.951400	-7.691040	0.967466	-0.180114	0.209411	-1.000000	-1.000000	-1.000000	-1.000000	-1.000000	-1.000000	-1.000000	82.206897	0.000000	-1.000000	-1.000000	1055704.000000	1770063607.489153
11581.020000	18603.180000	25241.625000	20792.745000	-7548.480000	-4408.830000	3106.485000	13557.825000	5.920016	9.294564	12.588631	3.654379	25.979742	104.857128	18.873465	0.856121	38.913000	5.951400	-7.691040	0.967466	-0.180114	0.209411	-1.000000	-1.000000	-1.000000	-1.000000	-1.000000	-1.000000	-1.000000	82.206897	0.000000	-1.000000	-1.000000	1055705.000000	1770063607.496580
11599.605000	18630.135000	25275.510000	20829.240000	-7491.870000	-4371.075000	3150.900000	13575.600000	-0.861221	-3.285411	-3.215040	-8.705988	2.229115	81.188942	18.804698	2.899002	38.913000	5.951400	-7.691040	0.967466	-0.180114	0.209411	-1.000000	-1.000000	-1.000000	-1.000000	-1.000000	-1.000000	-1.000000	82.206897	0.000000	-1.000000	-1.000000	1055706.000000	1770063607.496587
11573.685000	18585.630000	25233.480000	20804.580000	-7433.730000	-4220.595000	3275.910000	13602.195000	-5.871155	-10.062207	-11.142815	-10.315965	-14.287598	31.580077	11.327484	2.913416	38.913000	5.951400	-7.691040	0.967466	-0.180114	0.209411	-1.000000	-1.000000	-1.000000	-1.000000	-1.000000	-1.000000	-1.000000	82.206897	0.000000	-1.000000	-1.000000	1055707.000000	1770063607.497131
11514.510000	18486.990000	25116.480000	20675.205000	-7530.930000	-4179.015000	3253.410000	13590.135000	-9.505762	-13.872765	-14.626809	-8.465928	-16.238358	-6.670736	11.376093	3.203440	38.913000	5.951400	-7.691040	0.967466	-0.180114	0.209411	-1.000000	-1.000000	-1.000000	-1.000000	-1.000000	-1.000000	-1.000000	82.206897	0.000000	-1.000000	-1.000000	1055708.000000	1770063607.497141
11517.795000	18480.060000	25097.940000	20637.135000	-7650.135000	-4406.940000	3162.150000	13572.765000	-14.199572	-20.940964	-22.047445	-14.652669	-13.316376	-18.171737	18.631707	3.830381	38.913000	5.951400	-7.691040	0.967466	-0.180114	0.209411	-1.000000	-1.000000	-1.000000	-1.000000	-1.000000	-1.000000	-1.000000	82.206897	0.000000	-1.000000	-1.000000	1055709.000000	1770063607.502133
11550.105000	18540.990000	25169.535000	20713.455000	-7620.120000	-4530.870000	3171.330000	13565.025000	-18.082162	-28.866887	-32.092930	-28.062974	-19.535248	-24.488385	18.734128	2.290989	38.913000	5.951400	-7.691040	0.967466	-0.180114	0.209411	-1.000000	-1.000000	-1.000000	-1.000000	-1.000000	-1.000000	-1.000000	82.206897	0.000000	-1.000000	-1.000000	1055710.000000	1770063607.502154
11560.005000	18578.520000	25220.880000	20782.260000	-7490.430000	-4348.260000	3195.720000	13564.035000	-15.828675	-26.732307	-31.613536	-32.557330	-32.128094	-50.978696	3.591242	-2.600282	56.858760	11.139800	-10.147900	0.966916	-0.182373	0.201477	-1.000000	-1.000000	-1.000000	-1.000000	-1.000000	-1.000000	-1.000000	82.206897	0.000000	-1.000000	-1.000000	1055711.000000	1770063607.507751
11560.455000	18561.555000	25190.730000	20748.780000	-7461.945000	-4133.925000	3251.430000	13575.960000	-5.443621	-8.521774	-11.483064	-15.152708	-30.794246	-81.160221	-19.413739	-8.293797	56.858760	11.139800	-10.147900	0.966916	-0.182373	0.201477	-1.000000	-1.000000	-1.000000	-1.000000	-1.000000	-1.000000	-1.000000	82.206897	0.000000	-1.000000	-1.000000	1055712.000000	1770063607.507758
11571.075000	18572.130000	25194.555000	20739.105000	-7511.355000	-4180.050000	3235.140000	13554.000000	9.221014	17.878908	19.466775	16.017183	-4.186926	-70.302800	-33.522304	-10.486624	56.858760	11.139800	-10.147900	0.966916	-0.182373	0.201477	-1.000000	-1.000000	-1.000000	-1.000000	-1.000000	-1.000000	-1.000000	82.206897	0.000000	-1.000000	-1.000000	1055713.000000	1770063607.511783
11580.390000	18580.860000	25209.000000	20755.080000	-7514.820000	-4253.310000	3212.100000	13559.355000	20.881119	36.429097	40.825237	38.188857	31.344082	-8.064330	-27.517216	-7.656827	56.858760	11.139800	-10.147900	0.966916	-0.182373	0.201477	-1.000000	-1.000000	-1.000000	-1.000000	-1.000000	-1.000000	-1.000000	82.206897	0.000000	-1.000000	-1.000000	1055714.000000	1770063607.511796
11574.720000	18567.675000	25196.580000	20741.355000	-7539.840000	-4291.515000	3207.285000	13585.680000	23.424413	36.490692	39.687414	36.826877	48.419180	62.237156	-7.569786	-1.764813	56.858760	11.139800	-10.147900	0.966916	-0.182373	0.201477	-1.000000	-1.000000	-1.000000	-1.000000	-1.000000	-1.000000	-1.000000	82.206897	0.000000	-1.000000	-1.000000	1055715.000000	1770063607.513229
11541.420000	18543.780000	25180.695000	20729.070000	-7555.500000	-4332.735000	3131.235000	13567.635000	16.166083	20.643865	20.572200	17.071356	36.004196	89.649900	8.533171	4.309463	56.858760	11.139800	-10.147900	0.966916	-0.182373	0.201477	-1.000000	-1.000000	-1.000000	-1.000000	-1.000000	-1.000000	-1.000000	82.206897	0.000000	-1.000000	-1.000000	1055716.000000	1770063607.513240
11532.960000	18530.730000	25169.265000	20721.600000	-7556.580000	-4325.895000	3178.440000	13566.870000	3.712238	0.528188	-1.417251	-4.243400	7.057013	62.604438	10.704894	8.113012	56.858760	11.139800	-10.147900	0.966916	-0.182373	0.201477	-1.000000	-1.000000	-1.000000	-1.000000	-1.000000	-1.000000	-1.000000	82.206897	0.000000	-1.000000	-1.000000	1055717.000000	1770063607.523721
11543.490000	18547.110000	25182.495000	20732.085000	-7548.300000	-4307.670000	3233.205000	13571.415000	-7.942120	-13.824805	-14.826140	-14.492116	-15.919196	12.536776	7.094744	8.842454	56.858760	11.139800	-10.147900	0.966916	-0.182373	0.201477	-1.000000	-1.000000	-1.000000	-1.000000	-1.000000	-1.000000	-1.000000	82.206897	0.000000	-1.000000	-1.000000	1055718.000000	1770063607.523729
11532.060000	18552.960000	25187.940000	20737.125000	-7542.090000	-4311.765000	3183.885000	13528.755000	-15.178902	-20.070364	-19.064555	-14.421281	-22.877244	-24.367015	8.435852	6.714360	56.858760	11.139800	-10.147900	0.966916	-0.182373	0.201477	-1.000000	-1.000000	-1.000000	-1.000000	-1.000000	-1.000000	-1.000000	82.206897	0.000000	-1.000000	-1.000000	1055719.000000	1770063607.523739
11520.900000	18552.105000	25186.995000	20735.010000	-7546.680000	-4335.300000	3174.570000	13510.845000	-17.266616	-20.128252	-18.359318	-11.454632	-20.421266	-41.579073	10.575975	1.261200	56.858760	11.139800	-10.147900	0.966916	-0.182373	0.201477	-1.000000	-1.000000	-1.000000	-1.000000	-1.000000	-1.000000	-1.000000	82.206897	0.000000	-1.000000	-1.000000	1055720.000000	1770063607.523744
11537.325000	18556.065000	25187.130000	20729.070000	-7584.885000	-4422.465000	3222.630000	13543.470000	-14.128575	-15.020698	-13.998485	-8.573966	-16.314105	-50.492568	5.638433	-5.758360	85.196580	13.474580	-10.208940	0.969114	-0.194458	0.210693	-1.000000	-1.000000	-1.000000	-1.000000	-1.000000	-1.000000	-1.000000	82.206897	0.000000	-1.000000	-1.000000	1055721.000000	1770063607.525125
11545.920000	18537.525000	25169.985000	20709.855000	-7639.920000	-4610.340000	3162.195000	13574.205000	-6.183089	-6.326641	-6.617503	-5.214500	-11.626902	-53.716856	-3.036465	-8.489765	85.196580	13.474580	-10.208940	0.969114	-0.194458	0.210693	-1.000000	-1.000000	-1.000000	-1.000000	-1.000000	-1.000000	-1.000000	82.206897	0.000000	-1.000000	-1.000000	1055722.000000	1770063607.525132
11554.560000	18565.155000	25208.055000	20757.510000	-7570.440000	-4549.770000	3142.260000	13581.180000	3.816279	2.144293	0.699066	-1.856040	-5.008961	-43.648681	-8.484181	-3.502555	85.196580	13.474580	-10.208940	0.969114	-0.194458	0.210693	-1.000000	-1.000000	-1.000000	-1.000000	-1.000000	-1.000000	-1.000000	82.206897	0.000000	-1.000000	-1.000000	1055723.000000	1770063607.529749
11556.630000	18564.030000	25209.405000	20776.635000	-7455.195000	-4219.605000	3216.600000	13578.210000	12.053629	8.348162	6.471924	2.311090	6.423101	-10.253624	-8.146239	4.874610	85.196580	13.474580	-10.208940	0.969114	-0.194458	0.210693	-1.000000	-1.000000	-1.000000	-1.000000	-1.000000	-1.000000	-1.000000	82.206897	0.000000	-1.000000	-1.000000	1055724.000000	1770063607.529760
11563.695000	18544.635000	25171.560000	20725.110000	-7499.295000	-4121.235000	3264.210000	13563.945000	16.522527	12.789122	11.186454	8.305680	23.362601	48.327219	-0.384752	9.516389	85.196580	13.474580	-10.208940	0.969114	-0.194458	0.210693	-1.000000	-1.000000	-1.000000	-1.000000	-1.000000	-1.000000	-1.000000	82.206897	0.000000	-1.000000	-1.000000	1055725.000000	1770063607.533201
11566.080000	18541.710000	25166.385000	20713.860000	-7543.755000	-4230.900000	3239.235000	13551.210000	16.557404	14.503336	13.056282	12.584946	36.374155	107.326997	12.327590	7.321214	85.196580	13.474580	-10.208940	0.969114	-0.194458	0.210693	-1.000000	-1.000000	-1.000000	-1.000000	-1.000000	-1.000000	-1.000000	82.206897	0.000000	-1.000000	-1.000000	1055726.000000	1770063607.533208
11558.295000	18546.795000	25174.530000	20723.445000	-7539.885000	-4277.655000	3228.795000	13561.155000	11.196200	10.950280	9.318423	10.234565	32.228385	123.329168	19.420174	0.465474	85.196580	13.474580	-10.208940	0.969114	-0.194458	0.210693	-1.000000	-1.000000	-1.000000	-1.000000	-1.000000	-1.000000	-1.000000	82.206897	0.000000	-1.000000	-1.000000	1055727.000000	1770063607.537204
11550.420000	18554.085000	25187.670000	20738.115000	-7535.025000	-4306.095000	3239.055000	13583.160000	0.926712	2.171312	0.907774	1.638480	9.105131	74.275748	13.164432	-5.305270	85.196580	13.474580	-10.208940	0.969114	-0.194458	0.210693	-1.000000	-1.000000	-1.000000	-1.000000	-1.000000	-1.000000	-1.000000	82.206897	0.000000	-1.000000	-1.000000	1055728.000000	1770063607.537211
11540.250000	18544.410000	25179.390000	20734.695000	-7523.595000	-4290.255000	3215.025000	13573.395000	-10.378628	-7.469642	-7.072273	-7.207307	-19.901064	-16.672024	-2.906874	-5.603890	85.196580	13.474580	-10.208940	0.969114	-0.194458	0.210693	-1.000000	-1.000000	-1.000000	-1.000000	-1.000000	-1.000000	-1.000000	82.206897	0.000000	-1.000000	-1.000000	1055729.000000	1770063607.541536
11549.385000	18553.635000	25184.385000	20738.340000	-7510.365000	-4265.685000	3174.435000	13547.520000	-17.766552	-12.761200	-9.967807	-10.432802	-36.554312	-95.775816	-19.940072	-2.671416	85.196580	13.474580	-10.208940	0.969114	-0.194458	0.210693	-1.000000	-1.000000	-1.000000	-1.000000	-1.000000	-1.000000	-1.000000	82.206897	0.000000	-1.000000	-1.000000	1055730.000000	1770063607.541542
11578.230000	18582.480000	25217.415000	20768.355000	-7494.390000	-4271.985000	3190.815000	13487.670000	-18.085040	-11.277348	-7.024512	-6.999574	-31.500806	-117.420037	-28.920011	-3.006583	102.119920	11.139800	-5.096840	0.965879	-0.184265	0.216552	-1.000000	-1.000000	-1.000000	-1.000000	-1.000000	-1.000000	-1.000000	82.206897	0.000000	-1.000000	-1.000000	1055731.000000	1770063607.557345
11583.360000	18578.610000	25214.085000	20767.005000	-7498.215000	-4281.345000	3223.530000	13477.680000	-10.962833	-4.337079	-0.835136	-0.491195	-12.244704	-80.281970	-23.574777	-9.318382	102.119920	11.139800	-5.096840	0.965879	-0.184265	0.216552	-1.000000	-1.000000	-1.000000	-1.000000	-1.000000	-1.000000	-1.000000	82.206897	0.000000	-1.000000	-1.000000	1055732.000000	1770063607.557355
11533.635000	18545.310000	25179.390000	20727.990000	-7543.800000	-4328.280000	3180.330000	13487.445000	-0.191860	3.473797	4.426375	3.994996	3.933223	-25.488981	-7.268929	-16.039267	102.119920	11.139800	-5.096840	0.965879	-0.184265	0.216552	-1.000000	-1.000000	-1.000000	-1.000000	-1.000000	-1.000000	-1.000000	82.206897	0.000000	-1.000000	-1.000000	1055733.000000	1770063607.557366
11506.455000	18515.520000	25146.270000	20691.450000	-7599.195000	-4386.015000	3151.575000	13565.160000	7.207096	7.111952	5.523104	3.780920	6.809444	6.953918	7.740831	-13.368701	102.119920	11.139800	-5.096840	0.965879	-0.184265	0.216552	-1.000000	-1.000000	-1.000000	-1.000000	-1.000000	-1.000000	-1.000000	82.206897	0.000000	-1.000000	-1.000000	1055734.000000	1770063607.557371
11536.110000	18515.610000	25147.305000	20693.160000	-7605.405000	-4399.335000	3178.080000	13605.840000	7.419821	4.627592	2.049678	-0.018293	0.391254	12.759690	13.134565	3.120480	102.119920	11.139800	-5.096840	0.965879	-0.184265	0.216552	-1.000000	-1.000000	-1.000000	-1.000000	-1.000000	-1.000000	-1.000000	82.206897	0.000000	-1.000000	-1.000000	1055735.000000	1770063607.557377
11550.600000	18557.370000	25190.640000	20724.975000	-7587.990000	-4383.090000	3188.520000	13581.180000	4.045589	-1.118215	-3.127110	-4.078402	-5.348675	11.895669	11.647758	25.398444	102.119920	11.139800	-5.096840	0.965879	-0.184265	0.216552	-1.000000	-1.000000	-1.000000	-1.000000	-1.000000	-1.000000	-1.000000	82.206897	0.000000	-1.000000	-1.000000	1055736.000000	1770063607.557382
11544.345000	18572.760000	25199.325000	20726.640000	-7581.240000	-4362.750000	3192.975000	13560.120000	2.797122	-4.236821	-5.214546	-4.858659	-4.094420	18.909109	9.603359	37.287817	102.119920	11.139800	-5.096840	0.965879	-0.184265	0.216552	-1.000000	-1.000000	-1.000000	-1.000000	-1.000000	-1.000000	-1.000000	82.206897	0.000000	-1.000000	-1.000000	1055737.000000	1770063607.558550
11524.185000	18527.535000	25161.570000	20715.345000	-7561.530000	-4331.115000	3206.160000	13559.490000	4.361906	-2.127258	-2.451958	-1.421135	4.269991	33.023650	9.445720	29.024195	102.119920	11.139800	-5.096840	0.965879	-0.184265	0.216552	-1.000000	-1.000000	-1.000000	-1.000000	-1.000000	-1.000000	-1.000000	82.206897	0.000000	-1.000000	-1.000000	1055738.000000	1770063607.558564
11527.650000	18504.855000	25140.870000	20699.055000	-7578.315000	-4362.120000	3197.925000	13576.905000	4.941455	0.985143	1.067697	3.096559	14.949686	45.362775	10.570687	6.419337	102.119920	11.139800	-5.096840	0.965879	-0.184265	0.216552	-1.000000	-1.000000	-1.000000	-1.000000	-1.000000	-1.000000	-1.000000	82.206897	0.000000	-1.000000	-1.000000	1055739.000000	1770063607.561229
11553.435000	18564.030000	25196.535000	20742.480000	-7537.545000	-4334.895000	3203.865000	13554.945000	2.180057	0.767768	1.240810	4.863683	21.151897	46.523540	10.506833	-15.635694	102.119920	11.139800	-5.096840	0.965879	-0.184265	0.216552	-1.000000	-1.000000	-1.000000	-1.000000	-1.000000	-1.000000	-1.000000	82.206897	0.000000	-1.000000	-1.000000	1055740.000000	1770063607.561240
11569.275000	18576.270000	25210.845000	20760.480000	-7501.680000	-4279.815000	3216.645000	13542.345000	-1.399440	-0.237392	0.280857	4.281751	19.446933	32.089130	6.096932	-26.652824	79.153620	8.072540	-0.198380	0.960752	-0.138794	0.219787	-1.000000	-1.000000	-1.000000	-1.000000	-1.000000	-1.000000	-1.000000	82.206897	0.000000	-1.000000	-1.000000	1055741.000000	1770063607.566862
11559.510000	18533.340000	25173.000000	20734.110000	-7521.885000	-4307.670000	3172.500000	13549.680000	-1.500375	2.167246	2.485144	4.768278	12.513961	6.536908	-2.637979	-26.022335	79.153620	8.072540	-0.198380	0.960752	-0.138794	0.219787	-1.000000	-1.000000	-1.000000	-1.000000	-1.000000	-1.000000	-1.000000	82.206897	0.000000	-1.000000	-1.000000	1055742.000000	1770063607.566868
11555.955000	18508.095000	25141.230000	20697.480000	-7566.390000	-4341.600000	3141.045000	13578.705000	2.049228	6.030107	6.490816	6.445670	4.359519	-19.230225	-12.504964	-18.644785	79.153620	8.072540	-0.198380	0.960752	-0.138794	0.219787	-1.000000	-1.000000	-1.000000	-1.000000	-1.000000	-1.000000	-1.000000	82.206897	0.000000	-1.000000	-1.000000	1055743.000000	1770063607.570944
11548.080000	18529.425000	25165.710000	20720.115000	-7549.875000	-4307.940000	3184.155000	13577.220000	4.437380	6.197526	7.008506	5.389767	-4.228930	-35.023295	-19.506358	-9.173664	79.153620	8.072540	-0.198380	0.960752	-0.138794	0.219787	-1.000000	-1.000000	-1.000000	-1.000000	-1.000000	-1.000000	-1.000000	82.206897	0.000000	-1.000000	-1.000000	1055744.000000	1770063607.570950
11547.630000	18545.040000	25181.730000	20724.255000	-7544.385000	-4315.725000	3174.885000	13559.985000	1.678962	1.383640	2.161157	-0.266726	-12.979338	-36.813230	-19.579940	0.047298	79.153620	8.072540	-0.198380	0.960752	-0.138794	0.219787	-1.000000	-1.000000	-1.000000	-1.000000	-1.000000	-1.000000	-1.000000	82.206897	0.000000	-1.000000	-1.000000	1055745.000000	1770063607.573199
11553.120000	18536.490000	25152.570000	20678.760000	-7561.215000	-4374.270000	3210.345000	13567.500000	-4.465085	-4.882313	-4.846315	-8.044745	-19.527785	-28.764862	-11.403257	7.839241	79.153620	8.072540	-0.198380	0.960752	-0.138794	0.219787	-1.000000	-1.000000	-1.000000	-1.000000	-1.000000	-1.000000	-1.000000	82.206897	0.000000	-1.000000	-1.000000	1055746.000000	1770063607.573208
11548.035000	18541.170000	25165.170000	20701.080000	-7588.980000	-4512.015000	3204.270000	13560.705000	-8.813320	-7.736853	-9.222086	-13.780440	-21.688048	-20.421304	1.861376	12.894790	79.153620	8.072540	-0.198380	0.960752	-0.138794	0.219787	-1.000000	-1.000000	-1.000000	-1.000000	-1.000000	-1.000000	-1.000000	82.206897	0.000000	-1.000000	-1.000000	1055747.000000	1770063607.577198
11545.155000	18554.220000	25196.670000	20751.885000	-7564.410000	-4475.205000	3183.120000	13554.810000	-8.787941	-5.120999	-7.856215	-13.166899	-18.660163	-16.997925	13.921484	13.941454	79.153620	8.072540	-0.198380	0.960752	-0.138794	0.219787	-1.000000	-1.000000	-1.000000	-1.000000	-1.000000	-1.000000	-1.000000	82.206897	0.000000	-1.000000	-1.000000	1055748.000000	1770063607.577209
11521.755000	18523.080000	25174.935000	20749.995000	-7544.475000	-4333.590000	3194.505000	13548.015000	-6.345086	-0.500695	-2.332032	-5.170983	-10.707412	-11.977151	18.203452	11.094830	79.153620	8.072540	-0.198380	0.960752	-0.138794	0.219787	-1.000000	-1.000000	-1.000000	-1.000000	-1.000000	-1.000000	-1.000000	82.206897	0.000000	-1.000000	-1.000000	1055749.000000	1770063607.581189
11515.680000	18509.535000	25151.805000	20710.440000	-7548.435000	-4252.230000	3213.900000	13552.065000	-4.170208	0.919662	2.120695	4.932322	0.129568	4.677723	13.436900	6.158062	79.153620	8.072540	-0.198380	0.960752	-0.138794	0.219787	-1.000000	-1.000000	-1.000000	-1.000000	-1.000000	-1.000000	-1.000000	82.206897	0.000000	-1.000000	-1.000000	1055750.000000	1770063607.581195
11503.260000	18493.020000	25129.935000	20689.290000	-7547.265000	-4234.005000	3221.910000	13548.690000	-2.171208	-0.816142	2.957247	10.540818	11.168950	32.005210	5.561207	0.561339	25.377380	-0.686700	3.006220	0.965146	-0.079956	0.215942	-1.000000	-1.000000	-1.000000	-1.000000	-1.000000	-1.000000	-1.000000	82.206897	0.000000	-1.000000	-1.000000	1055751.000000	1770063607.586140
11521.665000	18505.845000	25144.065000	20702.160000	-7544.880000	-4279.005000	3220.470000	13562.505000	1.138284	-1.574293	2.122675	10.023312	20.122971	54.994612	0.572033	-5.247844	25.377380	-0.686700	3.006220	0.965146	-0.079956	0.215942	-1.000000	-1.000000	-1.000000	-1.000000	-1.000000	-1.000000	-1.000000	82.206897	0.000000	-1.000000	-1.000000	1055752.000000	1770063607.586149
11568.285000	18557.595000	25194.330000	20746.845000	-7516.305000	-4272.570000	3221.640000	13568.805000	6.492659	0.859125	2.088946	6.223700	23.893344	55.441888	-1.807663	-9.348961	25.377380	-0.686700	3.006220	0.965146	-0.079956	0.215942	-1.000000	-1.000000	-1.000000	-1.000000	-1.000000	-1.000000	-1.000000	82.206897	0.000000	-1.000000	-1.000000	1055753.000000	1770063607.589174
11567.835000	18565.605000	25203.555000	20751.705000	-7511.715000	-4278.420000	3185.145000	13552.560000	13.007991	5.480554	3.777036	2.988210	20.086398	28.835610	-5.234699	-8.927283	25.377380	-0.686700	3.006220	0.965146	-0.079956	0.215942	-1.000000	-1.000000	-1.000000	-1.000000	-1.000000	-1.000000	-1.000000	82.206897	0.000000	-1.000000	-1.000000	1055754.000000	1770063607.589184
11561.715000	18560.655000	25195.545000	20735.460000	-7518.960000	-4289.265000	3191.535000	13557.870000	16.975422	9.524130	6.405263	2.128420	9.911800	-9.618292	-10.973022	-4.269546	25.377380	-0.686700	3.006220	0.965146	-0.079956	0.215942	-1.000000	-1.000000	-1.000000	-1.000000	-1.000000	-1.000000	-1.000000	82.206897	0.000000	-1.000000	-1.000000	1055755.000000	1770063607.593261
11560.680000	18565.200000	25197.345000	20730.330000	-7534.305000	-4314.105000	3213.225000	13569.570000	14.182412	9.889963	7.232294	1.436835	-2.702854	-37.812706	-15.248518	1.638649	25.377380	-0.686700	3.006220	0.965146	-0.079956	0.215942	-1.000000	-1.000000	-1.000000	-1.000000	-1.000000	-1.000000	-1.000000	82.206897	0.000000	-1.000000	-1.000000	1055756.000000	1770063607.593279
11559.420000	18563.490000	25180.335000	20721.915000	-7555.050000	-4343.895000	3198.960000	13569.570000	4.579784	5.144220	3.168506	-2.921723	-14.428651	-46.013131	-12.770859	6.425049	25.377380	-0.686700	3.006220	0.965146	-0.079956	0.215942	-1.000000	-1.000000	-1.000000	-1.000000	-1.000000	-1.000000	-1.000000	82.206897	0.000000	-1.000000	-1.000000	1055757.000000	1770063607.598763
11540.385000	18538.470000	25170.255000	20729.790000	-7550.280000	-4353.120000	3197.070000	13564.845000	-7.318957	-3.009133	-5.288539	-10.300460	-23.097253	-42.089440	-4.004022	8.629313	25.377380	-0.686700	3.006220	0.965146	-0.079956	0.215942	-1.000000	-1.000000	-1.000000	-1.000000	-1.000000	-1.000000	-1.000000	82.206897	0.000000	-1.000000	-1.000000	1055758.000000	1770063607.598773
11534.085000	18534.060000	25183.305000	20743.335000	-7552.350000	-4382.370000	3166.290000	13556.565000	-15.932307	-10.282257	-12.316964	-13.894556	-25.239599	-36.226913	4.949382	6.974453	25.377380	-0.686700	3.006220	0.965146	-0.079956	0.215942	-1.000000	-1.000000	-1.000000	-1.000000	-1.000000	-1.000000	-1.000000	82.206897	0.000000	-1.000000	-1.000000	1055759.000000	1770063607.601193
11549.205000	18571.770000	25216.785000	20770.380000	-7528.590000	-4357.845000	3189.825000	13543.515000	-17.656612	-12.078428	-11.321263	-7.816939	-17.460312	-27.318142	9.352517	1.161006	25.377380	-0.686700	3.006220	0.965146	-0.079956	0.215942	-1.000000	-1.000000	-1.000000	-1.000000	-1.000000	-1.000000	-1.000000	82.206897	0.000000	-1.000000	-1.000000	1055760.000000	1770063607.601202
11557.170000	18584.010000	25226.460000	20776.230000	-7495.515000	-4289.760000	3243.375000	13502.700000	-12.541749	-7.139548	-2.288936	5.036273	-1.287179	-7.896835	9.961093	-7.322397	-33.205760	-8.957620	3.738700	0.970640	-0.046692	0.218688	-1.000000	-1.000000	-1.000000	-1.000000	-1.000000	-1.000000	-1.000000	82.206897	0.000000	-1.000000	-1.000000	1055761.000000	1770063607.605278
11549.025000	18545.310000	25181.595000	20731.365000	-7523.730000	-4270.680000	3244.455000	13511.745000	-4.531184	-0.454125	6.413180	14.106263	15.367581	22.290640	10.397193	-14.758152	-33.205760	-8.957620	3.738700	0.970640	-0.046692	0.218688	-1.000000	-1.000000	-1.000000	-1.000000	-1.000000	-1.000000	-1.000000	82.206897	0.000000	-1.000000	-1.000000	1055762.000000	1770063607.605290
11539.170000	18508.050000	25136.820000	20685.510000	-7584.975000	-4338.270000	3206.385000	13557.465000	1.664240	0.882137	5.931190	10.953581	22.278755	50.158423	10.933561	-15.371737	-33.205760	-8.957620	3.738700	0.970640	-0.046692	0.218688	-1.000000	-1.000000	-1.000000	-1.000000	-1.000000	-1.000000	-1.000000	82.206897	0.000000	-1.000000	-1.000000	1055763.000000	1770063607.611364
11524.275000	18487.665000	25115.445000	20667.330000	-7594.830000	-4364.010000	3190.635000	13585.455000	4.219787	-4.264868	-3.776834	-2.543242	15.123713	58.857944	7.538269	-5.622879	-33.205760	-8.957620	3.738700	0.970640	-0.046692	0.218688	-1.000000	-1.000000	-1.000000	-1.000000	-1.000000	-1.000000	-1.000000	82.206897	0.000000	-1.000000	-1.000000	1055764.000000	1770063607.611373
11536.785000	18507.420000	25137.180000	20686.095000	-7578.855000	-4356.540000	3198.825000	13572.450000	4.247653	-10.028303	-14.099060	-16.133891	0.456654	43.335903	-1.422756	10.076589	-33.205760	-8.957620	3.738700	0.970640	-0.046692	0.218688	-1.000000	-1.000000	-1.000000	-1.000000	-1.000000	-1.000000	-1.000000	82.206897	0.000000	-1.000000	-1.000000	1055765.000000	1770063607.613257
11546.100000	18541.890000	25174.440000	20717.190000	-7562.880000	-4342.005000	3200.805000	13554.315000	4.212502	-8.909081	-14.985126	-19.413824	-10.093415	13.095399	-11.233533	21.300621	-33.205760	-8.957620	3.738700	0.970640	-0.046692	0.218688	-1.000000	-1.000000	-1.000000	-1.000000	-1.000000	-1.000000	-1.000000	82.206897	0.000000	-1.000000	-1.000000	1055766.000000	1770063607.613267
11546.145000	18548.460000	25185.150000	20732.310000	-7552.620000	-4338.630000	3198.915000	13560.210000	5.980564	2.174925	-2.733199	-8.913104	-9.990073	-16.983693	-15.457790	20.675481	-33.205760	-8.957620	3.738700	0.970640	-0.046692	0.218688	-1.000000	-1.000000	-1.000000	-1.000000	-1.000000	-1.000000	-1.000000	82.206897	0.000000	-1.000000	-1.000000	1055767.000000	1770063607.618185
11547.225000	18548.190000	25187.535000	20737.395000	-7546.905000	-4341.465000	3196.395000	13571.100000	8.674852	17.792678	15.789109	9.264628	-1.371456	-34.870165	-11.753386	9.786753	-33.205760	-8.957620	3.738700	0.970640	-0.046692	0.218688	-1.000000	-1.000000	-1.000000	-1.000000	-1.000000	-1.000000	-1.000000	82.206897	0.000000	-1.000000	-1.000000	1055768.000000	1770063607.618195
11551.950000	18537.795000	25161.075000	20703.735000	-7559.055000	-4345.920000	3200.895000	13575.780000	9.122218	26.660494	27.341221	22.961352	7.944837	-36.455557	-3.457311	-3.433397	-33.205760	-8.957620	3.738700	0.970640	-0.046692	0.218688	-1.000000	-1.000000	-1.000000	-1.000000	-1.000000	-1.000000	-1.000000	82.206897	0.000000	-1.000000	-1.000000	1055769.000000	1770063607.621949
11551.680000	18544.815000	25166.295000	20698.695000	-7581.825000	-4376.475000	3194.460000	13572.360000	5.102787	21.325013	23.198327	22.785432	10.074469	-27.019730	3.119186	-11.474344	-33.205760	-8.957620	3.738700	0.970640	-0.046692	0.218688	-1.000000	-1.000000	-1.000000	-1.000000	-1.000000	-1.000000	-1.000000	82.206897	0.000000	-1.000000	-1.000000	1055770.000000	1770063607.621962
11532.465000	18535.455000	25167.870000	20712.060000	-7584.345000	-4391.775000	3193.830000	13563.630000	-2.289076	5.360739	7.180896	10.586035	3.777460	-14.893796	4.740615	-12.417946	-29.207640	-5.066320	5.920880	0.981138	-0.096679	0.210876	-1.000000	-1.000000	-1.000000	-1.000000	-1.000000	-1.000000	-1.000000	82.206897	0.000000	-1.000000	-1.000000	1055771.000000	1770063607.626920
11511.855000	18512.280000	25155.225000	20716.065000	-7566.525000	-4356.180000	3200.085000	13555.125000	-9.570757	-10.629896	-8.547060	-2.562914	-3.858954	-2.521379	3.948081	-10.112436	-29.207640	-5.066320	5.920880	0.981138	-0.096679	0.210876	-1.000000	-1.000000	-1.000000	-1.000000	-1.000000	-1.000000	-1.000000	82.206897	0.000000	-1.000000	-1.000000	1055772.000000	1770063607.626930
11524.905000	18510.975000	25148.430000	20707.830000	-7565.850000	-4349.880000	3199.635000	13560.390000	-13.151414	-18.865348	-15.585386	-8.400253	-5.433558	12.005303	4.348653	-8.635823	-29.207640	-5.066320	5.920880	0.981138	-0.096679	0.210876	-1.000000	-1.000000	-1.000000	-1.000000	-1.000000	-1.000000	-1.000000	82.206897	0.000000	-1.000000	-1.000000	1055773.000000	1770063607.635200
11535.120000	18529.695000	25162.425000	20715.930000	-7574.040000	-4412.835000	3190.995000	13541.895000	-11.004967	-18.237721	-14.307831	-7.910292	-1.433934	24.599232	5.726906	-7.645075	-29.207640	-5.066320	5.920880	0.981138	-0.096679	0.210876	-1.000000	-1.000000	-1.000000	-1.000000	-1.000000	-1.000000	-1.000000	82.206897	0.000000	-1.000000	-1.000000	1055774.000000	1770063607.635211
11529.180000	18545.445000	25178.895000	20731.860000	-7555.770000	-4393.080000	3196.845000	13521.645000	-4.058358	-11.425367	-9.036329	-6.006161	2.377101	25.806347	5.542795	-4.859991	-29.207640	-5.066320	5.920880	0.981138	-0.096679	0.210876	-1.000000	-1.000000	-1.000000	-1.000000	-1.000000	-1.000000	-1.000000	82.206897	0.000000	-1.000000	-1.000000	1055775.000000	1770063607.637322
11521.980000	18549.135000	25181.100000	20733.255000	-7536.870000	-4307.670000	3181.725000	13511.250000	3.925407	-1.980098	-3.135902	-5.104658	2.849665	15.018588	2.882847	-0.395663	-29.207640	-5.066320	5.920880	0.981138	-0.096679	0.210876	-1.000000	-1.000000	-1.000000	-1.000000	-1.000000	-1.000000	-1.000000	82.206897	0.000000	-1.000000	-1.000000	1055776.000000	1770063607.637333
