Channel1	Channel2	Channel3	Channel4	Channel5	Channel6	Channel7	Channel8	FilteredChannel1	FilteredChannel2	FilteredChannel3	FilteredChannel4	FilteredChannel5	FilteredChannel6	FilteredChannel7	FilteredChannel8	GyroX	GyroY	GyroZ	AccX	AccY	AccZ	PPG1	PPG2	rawPPG1	rawPPG2	rawPPG3	Hr	Hrv	Battery	Trigger	PhysicalTrigger	AutoTrigger	NumMeasurements	Timestamp
-5561.775000	2740.995000	21118.410000	14225.220000	-16333.920000	-18515.070000	8210.790000	16512.210000	3.723889	-14.347384	-30.371023	-20.483456	-17.352210	-15.884989	-6.442207	41.022925	-2.899400	4.516960	-2.166920	0.821104	0.378966	0.390197	-1.000000	-1.000000	-1.000000	-1.000000	-1.000000	-1.000000	-1.000000	72.482759	0.000000	-1.000000	-1.000000	2009496.000000	1773868262.920478
-5577.615000	2721.420000	21140.415000	14214.060000	-16339.590000	-18532.440000	8206.965000	16518.735000	-3.197425	-9.092766	-17.353728	-9.307784	-8.098667	-6.543611	-6.312425	10.336780	-2.899400	4.516960	-2.166920	0.821104	0.378966	0.390197	-1.000000	-1.000000	-1.000000	-1.000000	-1.000000	-1.000000	-1.000000	72.482759	0.000000	-1.000000	-1.000000	2009497.000000	1773868262.920484
-5581.530000	2721.870000	21145.230000	14222.385000	-16335.225000	-18533.025000	8211.330000	16516.260000	-3.200766	2.564301	6.184855	5.001433	3.384368	2.434183	-5.292540	-22.331845	-2.899400	4.516960	-2.166920	0.821104	0.378966	0.390197	-1.000000	-1.000000	-1.000000	-1.000000	-1.000000	-1.000000	-1.000000	72.482759	0.000000	-1.000000	-1.000000	2009498.000000	1773868262.920489
-5594.985000	2723.355000	21141.495000	14238.540000	-16322.715000	-18522.180000	8193.060000	16518.285000	2.286572	14.113846	27.337622	16.285902	12.471872	8.570763	-1.458736	-39.985469	-2.899400	4.516960	-2.166920	0.821104	0.378966	0.390197	-1.000000	-1.000000	-1.000000	-1.000000	-1.000000	-1.000000	-1.000000	72.482759	0.000000	-1.000000	-1.000000	2009499.000000	1773868262.924429
-5622.840000	2720.880000	21129.570000	14232.375000	-16327.755000	-18520.155000	8194.860000	16507.890000	6.360928	19.158667	33.820103	19.990888	15.523354	10.839432	3.849900	-37.739286	-2.899400	4.516960	-2.166920	0.821104	0.378966	0.390197	-1.000000	-1.000000	-1.000000	-1.000000	-1.000000	-1.000000	-1.000000	72.482759	0.000000	-1.000000	-1.000000	2009500.000000	1773868262.924440
-5593.095000	2751.705000	21147.480000	14246.820000	-16320.555000	-18509.490000	8233.110000	16475.580000	4.973877	16.583122	24.163019	16.441059	12.858115	10.316346	7.172761	-23.830255	-4.898460	4.562740	-2.060100	0.819273	0.379088	0.391662	-1.000000	-1.000000	-1.000000	-1.000000	-1.000000	-1.000000	-1.000000	72.482759	0.000000	-1.000000	-1.000000	2009501.000000	1773868262.926660
-5547.870000	2783.745000	21185.505000	14283.225000	-16278.930000	-18479.385000	8259.885000	16498.350000	1.703923	10.381257	7.958468	10.297820	8.388372	9.045782	8.059127	-9.645404	-4.898460	4.562740	-2.060100	0.819273	0.379088	0.391662	-1.000000	-1.000000	-1.000000	-1.000000	-1.000000	-1.000000	-1.000000	72.482759	0.000000	-1.000000	-1.000000	2009502.000000	1773868262.926668
-5526.360000	2763.945000	21158.415000	14252.760000	-16309.395000	-18505.980000	8220.870000	16534.755000	2.377059	4.013332	-4.417083	4.819752	4.556560	6.937560	8.264175	2.104681	-4.898460	4.562740	-2.060100	0.819273	0.379088	0.391662	-1.000000	-1.000000	-1.000000	-1.000000	-1.000000	-1.000000	-1.000000	72.482759	0.000000	-1.000000	-1.000000	2009503.000000	1773868262.930611
-5577.480000	2755.755000	21151.530000	14249.205000	-16314.705000	-18519.120000	8203.230000	16489.530000	5.993297	-3.079042	-10.991225	-1.469822	-0.348890	1.825474	6.744480	14.057386	-4.898460	4.562740	-2.060100	0.819273	0.379088	0.391662	-1.000000	-1.000000	-1.000000	-1.000000	-1.000000	-1.000000	-1.000000	72.482759	0.000000	-1.000000	-1.000000	2009504.000000	1773868262.930620
-5574.465000	2725.470000	21129.345000	14224.410000	-16344.630000	-18543.330000	8193.465000	16460.505000	6.460859	-11.077817	-15.161070	-9.504508	-7.425938	-6.344836	1.411695	23.301337	-4.898460	4.562740	-2.060100	0.819273	0.379088	0.391662	-1.000000	-1.000000	-1.000000	-1.000000	-1.000000	-1.000000	-1.000000	72.482759	0.000000	-1.000000	-1.000000	2009505.000000	1773868262.937113
-5570.055000	2726.595000	21121.695000	14211.270000	-16351.560000	-18546.390000	8192.565000	16499.475000	2.138792	-16.425489	-18.092820	-15.940838	-13.765301	-13.514689	-5.919570	24.102705	-4.898460	4.562740	-2.060100	0.819273	0.379088	0.391662	-1.000000	-1.000000	-1.000000	-1.000000	-1.000000	-1.000000	-1.000000	72.482759	0.000000	-1.000000	-1.000000	2009506.000000	1773868262.937124
-5560.470000	2756.070000	21133.035000	14212.350000	-16355.790000	-18580.815000	8209.530000	16497.405000	-3.093485	-15.231819	-17.771619	-17.359001	-15.775096	-15.482645	-10.303554	16.900188	-4.898460	4.562740	-2.060100	0.819273	0.379088	0.391662	-1.000000	-1.000000	-1.000000	-1.000000	-1.000000	-1.000000	-1.000000	72.482759	0.000000	-1.000000	-1.000000	2009507.000000	1773868262.939114
-5535.405000	2763.855000	21138.390000	14211.000000	-16369.065000	-18562.320000	8233.110000	16591.815000	-5.447265	-7.072564	-11.970306	-13.402314	-12.583275	-11.858536	-7.944990	7.927672	-4.898460	4.562740	-2.060100	0.819273	0.379088	0.391662	-1.000000	-1.000000	-1.000000	-1.000000	-1.000000	-1.000000	-1.000000	72.482759	0.000000	-1.000000	-1.000000	2009508.000000	1773868262.939124
-5562.405000	2727.000000	21131.370000	14233.005000	-16320.870000	-18498.105000	8231.175000	16561.350000	-4.254096	3.534150	-1.202135	-5.269101	-4.996495	-3.491194	-0.190199	2.542026	-4.898460	4.562740	-2.060100	0.819273	0.379088	0.391662	-1.000000	-1.000000	-1.000000	-1.000000	-1.000000	-1.000000	-1.000000	72.482759	0.000000	-1.000000	-1.000000	2009509.000000	1773868262.942588
-5580.315000	2706.570000	21107.565000	14218.020000	-16339.770000	-18528.705000	8228.610000	16555.410000	-2.944708	8.977583	9.733449	4.741710	5.406716	8.190535	6.356566	-0.280359	-4.898460	4.562740	-2.060100	0.819273	0.379088	0.391662	-1.000000	-1.000000	-1.000000	-1.000000	-1.000000	-1.000000	-1.000000	72.482759	0.000000	-1.000000	-1.000000	2009510.000000	1773868262.942599
-5578.830000	2736.315000	21144.195000	14271.210000	-16280.550000	-18480.285000	8233.245000	16526.115000	-5.575345	5.742959	15.298327	12.937866	14.770759	17.804929	6.529680	-5.550813	-0.778260	5.051060	-1.449700	0.819944	0.378905	0.390868	-1.000000	-1.000000	-1.000000	-1.000000	-1.000000	-1.000000	-1.000000	72.482759	0.000000	-1.000000	-1.000000	2009511.000000	1773868262.946824
-5566.185000	2777.985000	21186.495000	14277.285000	-16280.505000	-18477.765000	8221.860000	16439.850000	-10.608764	-0.648915	15.416002	17.106896	19.417797	20.392520	2.061789	-15.554101	-0.778260	5.051060	-1.449700	0.819944	0.378905	0.390868	-1.000000	-1.000000	-1.000000	-1.000000	-1.000000	-1.000000	-1.000000	72.482759	0.000000	-1.000000	-1.000000	2009512.000000	1773868262.946832
-5577.345000	2777.670000	21170.565000	14251.320000	-16304.670000	-18505.845000	8216.055000	16433.955000	-11.569864	-1.715457	13.772846	16.838347	18.071609	15.709101	-2.051383	-26.480125	-0.778260	5.051060	-1.449700	0.819944	0.378905	0.390868	-1.000000	-1.000000	-1.000000	-1.000000	-1.000000	-1.000000	-1.000000	72.482759	0.000000	-1.000000	-1.000000	2009513.000000	1773868262.950689
-5549.850000	2729.520000	21085.605000	14197.500000	-16367.940000	-18549.720000	8213.580000	16540.515000	-4.444859	3.825208	10.069555	11.019632	9.983212	5.220325	-3.257125	-28.428954	-0.778260	5.051060	-1.449700	0.819944	0.378905	0.390868	-1.000000	-1.000000	-1.000000	-1.000000	-1.000000	-1.000000	-1.000000	72.482759	0.000000	-1.000000	-1.000000	2009514.000000	1773868262.950699
-5637.780000	2668.185000	21046.950000	14183.505000	-16371.495000	-18549.405000	8200.215000	16558.335000	6.651758	8.237104	0.326368	-0.409565	-3.820790	-8.089874	-2.290313	-13.761625	-0.778260	5.051060	-1.449700	0.819944	0.378905	0.390868	-1.000000	-1.000000	-1.000000	-1.000000	-1.000000	-1.000000	-1.000000	72.482759	0.000000	-1.000000	-1.000000	2009515.000000	1773868262.957806
-5647.365000	2705.490000	21124.035000	14232.645000	-16326.855000	-18529.830000	8197.515000	16510.860000	12.162090	4.237716	-13.438403	-12.723328	-17.067137	-18.070821	-1.382695	10.592635	-0.778260	5.051060	-1.449700	0.819944	0.378905	0.390868	-1.000000	-1.000000	-1.000000	-1.000000	-1.000000	-1.000000	-1.000000	72.482759	0.000000	-1.000000	-1.000000	2009516.000000	1773868262.957814
-5599.980000	2730.510000	21136.455000	14235.480000	-16329.870000	-18529.335000	8199.045000	16517.835000	8.406861	-4.803528	-20.678725	-18.151727	-21.329992	-19.616804	-1.951283	26.768945	-0.778260	5.051060	-1.449700	0.819944	0.378905	0.390868	-1.000000	-1.000000	-1.000000	-1.000000	-1.000000	-1.000000	-1.000000	72.482759	0.000000	-1.000000	-1.000000	2009517.000000	1773868262.958773
-5498.550000	2754.810000	21133.620000	14223.825000	-16347.555000	-18535.770000	8207.235000	16571.385000	3.591933	-8.694386	-14.356475	-13.707025	-14.996077	-13.850981	-3.219228	25.682118	-0.778260	5.051060	-1.449700	0.819944	0.378905	0.390868	-1.000000	-1.000000	-1.000000	-1.000000	-1.000000	-1.000000	-1.000000	72.482759	0.000000	-1.000000	-1.000000	2009518.000000	1773868262.958782
-5491.890000	2774.070000	21157.605000	14258.025000	-16306.560000	-18508.095000	8196.525000	16558.200000	6.886531	-2.927568	0.864799	-3.856336	-4.128548	-5.388753	-3.379524	14.369830	-0.778260	5.051060	-1.449700	0.819944	0.378905	0.390868	-1.000000	-1.000000	-1.000000	-1.000000	-1.000000	-1.000000	-1.000000	72.482759	0.000000	-1.000000	-1.000000	2009519.000000	1773868262.962571
-5558.445000	2726.055000	21108.870000	14209.740000	-16349.175000	-18538.110000	8194.230000	16526.025000	14.355517	6.217974	13.595829	4.376609	4.507178	2.150799	-1.542144	2.995802	-0.778260	5.051060	-1.449700	0.819944	0.378905	0.390868	-1.000000	-1.000000	-1.000000	-1.000000	-1.000000	-1.000000	-1.000000	72.482759	0.000000	-1.000000	-1.000000	2009520.000000	1773868262.962590
-5580.540000	2727.900000	21116.070000	14216.490000	-16345.440000	-18540.855000	8199.405000	16477.830000	13.454116	8.489608	14.577816	6.235890	7.258601	6.387590	2.061729	-4.257137	-1.846460	4.379620	-0.869820	0.821775	0.380126	0.388244	-1.000000	-1.000000	-1.000000	-1.000000	-1.000000	-1.000000	-1.000000	72.482759	0.000000	-1.000000	-1.000000	2009521.000000	1773868262.966618
-5546.745000	2787.210000	21181.725000	14262.885000	-16300.305000	-18496.980000	8230.950000	16481.745000	0.449291	2.473481	5.880119	3.992269	6.438867	8.249285	6.766691	-8.095023	-1.846460	4.379620	-0.869820	0.821775	0.380126	0.388244	-1.000000	-1.000000	-1.000000	-1.000000	-1.000000	-1.000000	-1.000000	72.482759	0.000000	-1.000000	-1.000000	2009522.000000	1773868262.966624
-5602.095000	2760.120000	21167.325000	14234.850000	-16332.345000	-18531.990000	8222.715000	16491.060000	-15.697020	-2.761406	-0.400694	4.548242	7.924561	11.063088	11.102224	-11.525257	-1.846460	4.379620	-0.869820	0.821775	0.380126	0.388244	-1.000000	-1.000000	-1.000000	-1.000000	-1.000000	-1.000000	-1.000000	72.482759	0.000000	-1.000000	-1.000000	2009523.000000	1773868262.971780
-5624.190000	2725.875000	21124.620000	14182.290000	-16378.290000	-18549.765000	8193.780000	16503.885000	-24.679295	-1.784491	1.152859	7.899519	10.899947	13.497500	11.929431	-14.826909	-1.846460	4.379620	-0.869820	0.821775	0.380126	0.388244	-1.000000	-1.000000	-1.000000	-1.000000	-1.000000	-1.000000	-1.000000	72.482759	0.000000	-1.000000	-1.000000	2009524.000000	1773868262.971787
-5555.205000	2724.660000	21096.360000	14206.140000	-16352.505000	-18532.980000	8192.160000	16515.405000	-21.799751	0.481394	2.258464	6.697532	8.381881	10.553549	6.455835	-13.655535	-1.846460	4.379620	-0.869820	0.821775	0.380126	0.388244	-1.000000	-1.000000	-1.000000	-1.000000	-1.000000	-1.000000	-1.000000	72.482759	0.000000	-1.000000	-1.000000	2009525.000000	1773868262.974585
-5530.185000	2708.640000	21081.960000	14230.530000	-16322.130000	-18538.380000	8180.370000	16465.590000	-8.732540	-1.887122	-4.841881	-0.768564	-0.263041	1.649240	-3.946941	-6.413457	-1.846460	4.379620	-0.869820	0.821775	0.380126	0.388244	-1.000000	-1.000000	-1.000000	-1.000000	-1.000000	-1.000000	-1.000000	72.482759	0.000000	-1.000000	-1.000000	2009526.000000	1773868262.974591
-5531.130000	2741.805000	21124.980000	14239.215000	-16329.240000	-18560.700000	8202.375000	16466.895000	6.216205	-7.822111	-15.563822	-7.820599	-8.059492	-8.852997	-13.649222	1.612468	-1.846460	4.379620	-0.869820	0.821775	0.380126	0.388244	-1.000000	-1.000000	-1.000000	-1.000000	-1.000000	-1.000000	-1.000000	72.482759	0.000000	-1.000000	-1.000000	2009527.000000	1773868262.979629
-5545.305000	2743.290000	21125.655000	14230.710000	-16330.995000	-18521.775000	8215.245000	16530.885000	13.976514	-11.287325	-19.156885	-9.359871	-10.639560	-15.887765	-16.404599	6.836919	-1.846460	4.379620	-0.869820	0.821775	0.380126	0.388244	-1.000000	-1.000000	-1.000000	-1.000000	-1.000000	-1.000000	-1.000000	72.482759	0.000000	-1.000000	-1.000000	2009528.000000	1773868262.979641
-5576.400000	2718.225000	21100.185000	14206.365000	-16356.870000	-18539.595000	8204.490000	16565.445000	12.817729	-8.164117	-11.321103	-6.230343	-8.992629	-15.517673	-10.199034	13.210312	-1.846460	4.379620	-0.869820	0.821775	0.380126	0.388244	-1.000000	-1.000000	-1.000000	-1.000000	-1.000000	-1.000000	-1.000000	72.482759	0.000000	-1.000000	-1.000000	2009529.000000	1773868262.984460
-5562.090000	2727.495000	21111.075000	14219.055000	-16341.030000	-18536.490000	8200.980000	16528.545000	7.090753	-0.515469	2.249867	-1.696571	-5.281716	-7.730643	0.321209	22.675940	-1.846460	4.379620	-0.869820	0.821775	0.380126	0.388244	-1.000000	-1.000000	-1.000000	-1.000000	-1.000000	-1.000000	-1.000000	72.482759	0.000000	-1.000000	-1.000000	2009530.000000	1773868262.984471
-5555.925000	2738.655000	21118.860000	14241.960000	-16304.580000	-18509.175000	8202.060000	16505.010000	1.458860	6.582741	12.948587	2.159756	-0.406362	2.929457	7.916050	26.666270	-2.639980	4.211760	-1.693860	0.822325	0.379699	0.387511	-1.000000	-1.000000	-1.000000	-1.000000	-1.000000	-1.000000	-1.000000	72.482759	0.000000	-1.000000	-1.000000	2009531.000000	1773868262.986615
-5578.515000	2725.830000	21113.910000	14247.855000	-16304.445000	-18504.675000	8199.990000	16501.275000	-0.903066	10.686451	16.930215	5.820152	6.035252	12.055186	9.292430	15.723872	-2.639980	4.211760	-1.693860	0.822325	0.379699	0.387511	-1.000000	-1.000000	-1.000000	-1.000000	-1.000000	-1.000000	-1.000000	72.482759	0.000000	-1.000000	-1.000000	2009532.000000	1773868262.986623
-5579.055000	2748.105000	21130.110000	14252.805000	-16301.565000	-18493.785000	8215.245000	16504.785000	0.294753	12.231881	15.548177	9.753956	12.675085	17.008502	6.685635	-6.935374	-2.639980	4.211760	-1.693860	0.822325	0.379699	0.387511	-1.000000	-1.000000	-1.000000	-1.000000	-1.000000	-1.000000	-1.000000	72.482759	0.000000	-1.000000	-1.000000	2009533.000000	1773868262.991212
-5561.730000	2759.445000	21152.880000	14257.935000	-16307.325000	-18501.930000	8225.685000	16496.235000	1.180651	11.674706	11.793064	11.249709	14.612940	15.318666	3.967457	-27.792169	-2.639980	4.211760	-1.693860	0.822325	0.379699	0.387511	-1.000000	-1.000000	-1.000000	-1.000000	-1.000000	-1.000000	-1.000000	72.482759	0.000000	-1.000000	-1.000000	2009534.000000	1773868262.991223
-5575.230000	2736.945000	21148.515000	14231.295000	-16333.425000	-18536.355000	8214.345000	16531.065000	-2.193234	8.220088	7.347485	6.610482	7.771517	6.223860	2.422528	-34.465991	-2.639980	4.211760	-1.693860	0.822325	0.379699	0.387511	-1.000000	-1.000000	-1.000000	-1.000000	-1.000000	-1.000000	-1.000000	72.482759	0.000000	-1.000000	-1.000000	2009535.000000	1773868262.994980
-5591.250000	2729.745000	21135.285000	14204.655000	-16357.905000	-18555.345000	8182.710000	16474.905000	-8.844830	0.518990	1.021366	-4.360166	-6.151852	-7.390221	0.002211	-24.605519	-2.639980	4.211760	-1.693860	0.822325	0.379699	0.387511	-1.000000	-1.000000	-1.000000	-1.000000	-1.000000	-1.000000	-1.000000	72.482759	0.000000	-1.000000	-1.000000	2009536.000000	1773868262.994990
-5589.585000	2744.865000	21106.935000	14213.745000	-16346.790000	-18537.525000	8196.390000	16475.535000	-13.093530	-9.533268	-8.259017	-16.230631	-19.419732	-19.500195	-4.866103	-7.632331	-2.639980	4.211760	-1.693860	0.822325	0.379699	0.387511	-1.000000	-1.000000	-1.000000	-1.000000	-1.000000	-1.000000	-1.000000	72.482759	0.000000	-1.000000	-1.000000	2009537.000000	1773868262.998643
-5553.675000	2751.300000	21119.985000	14239.530000	-16321.365000	-18508.590000	8214.525000	16552.935000	-9.096544	-15.627557	-17.134885	-20.347103	-22.697289	-22.783616	-9.182510	6.659495	-2.639980	4.211760	-1.693860	0.822325	0.379699	0.387511	-1.000000	-1.000000	-1.000000	-1.000000	-1.000000	-1.000000	-1.000000	72.482759	0.000000	-1.000000	-1.000000	2009538.000000	1773868262.998649
-5523.030000	2779.965000	21190.725000	14283.810000	-16280.100000	-18479.295000	8214.930000	16491.330000	3.274786	-13.402042	-19.300750	-12.225841	-12.538721	-13.628136	-8.491092	16.540997	-2.639980	4.211760	-1.693860	0.822325	0.379699	0.387511	-1.000000	-1.000000	-1.000000	-1.000000	-1.000000	-1.000000	-1.000000	72.482759	0.000000	-1.000000	-1.000000	2009539.000000	1773868263.002661
-5542.965000	2739.420000	21141.315000	14237.145000	-16324.965000	-18526.230000	8188.425000	16530.345000	17.055442	-5.083521	-11.838934	3.176245	4.493694	2.572414	-3.118636	21.540923	-2.639980	4.211760	-1.693860	0.822325	0.379699	0.387511	-1.000000	-1.000000	-1.000000	-1.000000	-1.000000	-1.000000	-1.000000	72.482759	0.000000	-1.000000	-1.000000	2009540.000000	1773868263.002666
-5576.490000	2717.595000	21108.960000	14209.020000	-16357.815000	-18550.125000	8181.720000	16551.405000	23.254328	2.898860	-0.098509	14.789128	16.497805	14.394785	2.373623	20.184902	-2.914660	4.028640	-1.999060	0.822691	0.380553	0.388976	-1.000000	-1.000000	-1.000000	-1.000000	-1.000000	-1.000000	-1.000000	72.482759	0.000000	-1.000000	-1.000000	2009541.000000	1773868263.006667
-5587.110000	2743.470000	21123.180000	14233.320000	-16333.920000	-18516.645000	8194.545000	16476.975000	16.641220	5.599982	7.155635	15.221424	16.441784	14.990247	4.579256	12.698535	-2.914660	4.028640	-1.999060	0.822691	0.380553	0.388976	-1.000000	-1.000000	-1.000000	-1.000000	-1.000000	-1.000000	-1.000000	72.482759	0.000000	-1.000000	-1.000000	2009542.000000	1773868263.006679
-5607.270000	2749.320000	21135.150000	14254.155000	-16301.025000	-18505.260000	8223.255000	16417.170000	-0.833997	3.782142	7.275150	7.219805	8.071475	8.125735	4.169305	-0.928043	-2.914660	4.028640	-1.999060	0.822691	0.380553	0.388976	-1.000000	-1.000000	-1.000000	-1.000000	-1.000000	-1.000000	-1.000000	72.482759	0.000000	-1.000000	-1.000000	2009543.000000	1773868263.010659
-5647.185000	2714.805000	21119.040000	14225.985000	-16344.720000	-18558.495000	8234.505000	16455.870000	-20.385165	1.158204	3.788431	-1.106499	0.056187	1.544027	4.223334	-17.308705	-2.914660	4.028640	-1.999060	0.822691	0.380553	0.388976	-1.000000	-1.000000	-1.000000	-1.000000	-1.000000	-1.000000	-1.000000	72.482759	0.000000	-1.000000	-1.000000	2009544.000000	1773868263.010669
-5606.145000	2689.020000	21086.055000	14177.520000	-16390.440000	-18573.030000	8215.830000	16577.685000	-30.806767	-1.082435	0.214829	-5.538255	-4.188184	-2.361580	5.862110	-24.737601	-2.914660	4.028640	-1.999060	0.822691	0.380553	0.388976	-1.000000	-1.000000	-1.000000	-1.000000	-1.000000	-1.000000	-1.000000	72.482759	0.000000	-1.000000	-1.000000	2009545.000000	1773868263.014856
-5549.130000	2718.855000	21087.045000	14201.460000	-16368.660000	-18595.035000	8201.340000	16602.570000	-24.207935	-3.032820	-1.708811	-6.978046	-6.520113	-5.635696	6.160114	-13.438519	-2.914660	4.028640	-1.999060	0.822691	0.380553	0.388976	-1.000000	-1.000000	-1.000000	-1.000000	-1.000000	-1.000000	-1.000000	72.482759	0.000000	-1.000000	-1.000000	2009546.000000	1773868263.014868
-5517.180000	2739.285000	21079.935000	14227.335000	-16318.845000	-18512.505000	8192.430000	16560.180000	-2.506871	-2.884909	-1.757026	-6.374194	-7.166630	-8.101867	1.830890	9.208056	-2.914660	4.028640	-1.999060	0.822691	0.380553	0.388976	-1.000000	-1.000000	-1.000000	-1.000000	-1.000000	-1.000000	-1.000000	72.482759	0.000000	-1.000000	-1.000000	2009547.000000	1773868263.018780
-5573.340000	2703.870000	21070.080000	14205.015000	-16334.235000	-18485.955000	8205.390000	16532.370000	20.741374	0.153948	-1.578606	-3.846928	-4.573139	-5.784761	-5.623021	24.364769	-2.914660	4.028640	-1.999060	0.822691	0.380553	0.388976	-1.000000	-1.000000	-1.000000	-1.000000	-1.000000	-1.000000	-1.000000	72.482759	0.000000	-1.000000	-1.000000	2009548.000000	1773868263.018788
-5588.550000	2720.520000	21137.940000	14232.060000	-16336.305000	-18551.745000	8190.720000	16517.970000	30.471780	4.218523	-0.505066	0.329509	0.859056	2.524548	-10.580747	20.548970	-2.914660	4.028640	-1.999060	0.822691	0.380553	0.388976	-1.000000	-1.000000	-1.000000	-1.000000	-1.000000	-1.000000	-1.000000	72.482759	0.000000	-1.000000	-1.000000	2009549.000000	1773868263.022715
-5608.260000	2744.505000	21173.040000	14248.620000	-16316.865000	-18551.160000	8209.170000	16505.415000	22.618318	7.898228	5.652054	6.252232	7.024777	10.457767	-9.295351	1.466213	-2.914660	4.028640	-1.999060	0.822691	0.380553	0.388976	-1.000000	-1.000000	-1.000000	-1.000000	-1.000000	-1.000000	-1.000000	72.482759	0.000000	-1.000000	-1.000000	2009550.000000	1773868263.022722
-5584.365000	2743.110000	21156.255000	14249.970000	-16304.040000	-18500.130000	8214.750000	16512.660000	4.868518	9.905851	15.507825	11.705131	10.942123	11.339985	-3.221344	-18.058654	-5.081580	3.586100	-2.273740	0.821165	0.379149	0.390136	-1.000000	-1.000000	-1.000000	-1.000000	-1.000000	-1.000000	-1.000000	72.482759	0.000000	-1.000000	-1.000000	2009551.000000	1773868263.027304
-5540.895000	2727.855000	21128.940000	14230.215000	-16318.980000	-18501.930000	8196.930000	16525.935000	-10.282592	8.024246	19.469636	11.924426	9.678119	6.477398	2.842643	-23.601862	-5.081580	3.586100	-2.273740	0.821165	0.379149	0.390136	-1.000000	-1.000000	-1.000000	-1.000000	-1.000000	-1.000000	-1.000000	72.482759	0.000000	-1.000000	-1.000000	2009552.000000	1773868263.027314
-5565.015000	2722.185000	21122.415000	14220.720000	-16339.050000	-18531.540000	8197.740000	16516.620000	-14.043245	2.234729	11.178720	5.612149	3.525462	1.225244	4.944082	-13.998439	-5.081580	3.586100	-2.273740	0.821165	0.379149	0.390136	-1.000000	-1.000000	-1.000000	-1.000000	-1.000000	-1.000000	-1.000000	72.482759	0.000000	-1.000000	-1.000000	2009553.000000	1773868263.030729
-5590.170000	2716.065000	21118.995000	14222.205000	-16334.190000	-18528.030000	8205.210000	16504.470000	-8.989547	-4.427578	-4.577683	-2.823036	-3.516397	-2.129911	3.545676	-1.377579	-5.081580	3.586100	-2.273740	0.821165	0.379149	0.390136	-1.000000	-1.000000	-1.000000	-1.000000	-1.000000	-1.000000	-1.000000	72.482759	0.000000	-1.000000	-1.000000	2009554.000000	1773868263.030739
-5572.890000	2725.920000	21122.415000	14226.930000	-16333.425000	-18528.570000	8216.280000	16511.850000	-5.024951	-9.298437	-17.667637	-8.720671	-8.226755	-4.559704	2.140424	3.421389	-5.081580	3.586100	-2.273740	0.821165	0.379149	0.390136	-1.000000	-1.000000	-1.000000	-1.000000	-1.000000	-1.000000	-1.000000	72.482759	0.000000	-1.000000	-1.000000	2009555.000000	1773868263.034651
-5557.095000	2732.580000	21124.080000	14235.795000	-16327.845000	-18518.220000	8217.900000	16511.760000	-6.298835	-11.278571	-21.892279	-11.039000	-10.756225	-7.959803	2.643978	2.034038	-5.081580	3.586100	-2.273740	0.821165	0.379149	0.390136	-1.000000	-1.000000	-1.000000	-1.000000	-1.000000	-1.000000	-1.000000	72.482759	0.000000	-1.000000	-1.000000	2009556.000000	1773868263.034657
-5597.640000	2719.845000	21113.100000	14231.655000	-16325.955000	-18521.370000	8206.245000	16520.760000	-8.006192	-9.375777	-17.477355	-9.987613	-11.131234	-11.897014	3.793264	2.522230	-5.081580	3.586100	-2.273740	0.821165	0.379149	0.390136	-1.000000	-1.000000	-1.000000	-1.000000	-1.000000	-1.000000	-1.000000	72.482759	0.000000	-1.000000	-1.000000	2009557.000000	1773868263.038742
-5596.920000	2712.555000	21100.860000	14204.745000	-16348.095000	-18542.565000	8193.465000	16532.100000	-5.080389	-4.127921	-9.224171	-6.300283	-7.950115	-12.046182	3.200950	7.783915	-5.081580	3.586100	-2.273740	0.821165	0.379149	0.390136	-1.000000	-1.000000	-1.000000	-1.000000	-1.000000	-1.000000	-1.000000	72.482759	0.000000	-1.000000	-1.000000	2009558.000000	1773868263.038749
-5542.335000	2744.820000	21128.850000	14225.715000	-16330.995000	-18526.230000	8202.420000	16534.080000	2.695623	1.428960	-2.242147	-2.411541	-2.186649	-6.157389	-0.160407	14.359814	-5.081580	3.586100	-2.273740	0.821165	0.379149	0.390136	-1.000000	-1.000000	-1.000000	-1.000000	-1.000000	-1.000000	-1.000000	72.482759	0.000000	-1.000000	-1.000000	2009559.000000	1773868263.043118
-5511.015000	2761.200000	21148.110000	14249.250000	-16314.570000	-18513.495000	8214.075000	16505.910000	12.345080	5.440656	3.152455	0.697311	3.386896	2.168782	-4.634002	16.987076	-5.081580	3.586100	-2.273740	0.821165	0.379149	0.390136	-1.000000	-1.000000	-1.000000	-1.000000	-1.000000	-1.000000	-1.000000	72.482759	0.000000	-1.000000	-1.000000	2009560.000000	1773868263.043130
-5552.910000	2748.105000	21140.595000	14243.535000	-16319.880000	-18518.625000	8220.510000	16470.405000	18.379734	8.268825	9.384144	4.687728	7.837967	8.663472	-6.754155	11.297390	-2.365300	7.752080	-1.785420	0.820616	0.378356	0.390624	-1.000000	-1.000000	-1.000000	-1.000000	-1.000000	-1.000000	-1.000000	72.482759	0.000000	-1.000000	-1.000000	2009561.000000	1773868263.046756
-5588.145000	2745.045000	21140.730000	14242.725000	-16317.090000	-18515.970000	8213.310000	16454.520000	15.063970	9.399338	15.568189	9.666933	11.267612	12.106017	-4.706504	-2.884604	-2.365300	7.752080	-1.785420	0.820616	0.378356	0.390624	-1.000000	-1.000000	-1.000000	-1.000000	-1.000000	-1.000000	-1.000000	72.482759	0.000000	-1.000000	-1.000000	2009562.000000	1773868263.046765
-5563.440000	2773.485000	21170.925000	14272.470000	-16288.470000	-18491.265000	8204.085000	16468.020000	2.571575	7.659741	18.187619	12.894205	12.705570	12.693232	-0.525053	-18.844739	-2.365300	7.752080	-1.785420	0.820616	0.378356	0.390624	-1.000000	-1.000000	-1.000000	-1.000000	-1.000000	-1.000000	-1.000000	72.482759	0.000000	-1.000000	-1.000000	2009563.000000	1773868263.050637
-5535.315000	2773.710000	21168.180000	14271.480000	-16289.460000	-18488.070000	8196.030000	16446.870000	-11.482041	3.341611	15.226948	11.667332	10.530096	10.174650	2.119523	-26.735545	-2.365300	7.752080	-1.785420	0.820616	0.378356	0.390624	-1.000000	-1.000000	-1.000000	-1.000000	-1.000000	-1.000000	-1.000000	72.482759	0.000000	-1.000000	-1.000000	2009564.000000	1773868263.050644
-5526.090000	2772.405000	21164.805000	14271.435000	-16288.875000	-18484.470000	8212.635000	16474.950000	-17.997653	-1.981021	7.090053	5.486939	4.186851	4.153952	1.933310	-21.234674	-2.365300	7.752080	-1.785420	0.820616	0.378356	0.390624	-1.000000	-1.000000	-1.000000	-1.000000	-1.000000	-1.000000	-1.000000	72.482759	0.000000	-1.000000	-1.000000	2009565.000000	1773868263.055020
-5581.350000	2725.470000	21099.195000	14213.970000	-16329.465000	-18523.845000	8187.525000	16570.395000	-13.698057	-6.792167	-4.525425	-3.889955	-4.666639	-3.917347	0.729038	-3.898415	-2.365300	7.752080	-1.785420	0.820616	0.378356	0.390624	-1.000000	-1.000000	-1.000000	-1.000000	-1.000000	-1.000000	-1.000000	72.482759	0.000000	-1.000000	-1.000000	2009566.000000	1773868263.055031
-5576.445000	2716.785000	21052.305000	14169.600000	-16349.355000	-18540.855000	8157.060000	16514.550000	-3.849877	-10.833799	-17.734155	-14.073247	-13.185924	-11.078565	-0.294594	17.773507	-2.365300	7.752080	-1.785420	0.820616	0.378356	0.390624	-1.000000	-1.000000	-1.000000	-1.000000	-1.000000	-1.000000	-1.000000	72.482759	0.000000	-1.000000	-1.000000	2009567.000000	1773868263.058820
-5530.590000	2755.935000	21114.630000	14181.930000	-16336.890000	-18526.995000	8188.965000	16451.910000	3.620673	-13.402788	-28.119506	-22.094651	-18.533164	-15.153528	-1.650883	30.721146	-2.365300	7.752080	-1.785420	0.820616	0.378356	0.390624	-1.000000	-1.000000	-1.000000	-1.000000	-1.000000	-1.000000	-1.000000	72.482759	0.000000	-1.000000	-1.000000	2009568.000000	1773868263.058830
-5510.160000	2793.330000	21193.155000	14241.645000	-16320.780000	-18508.185000	8257.725000	16553.385000	6.224289	-11.027018	-26.740565	-22.537771	-17.669596	-14.357390	-1.557092	26.732142	-2.365300	7.752080	-1.785420	0.820616	0.378356	0.390624	-1.000000	-1.000000	-1.000000	-1.000000	-1.000000	-1.000000	-1.000000	72.482759	0.000000	-1.000000	-1.000000	2009569.000000	1773868263.062756
-5477.715000	2858.940000	21235.005000	14331.915000	-16266.870000	-18457.830000	8278.515000	16557.750000	7.415214	-0.472704	-8.099002	-9.701925	-8.301441	-6.752674	3.276904	12.661122	-2.365300	7.752080	-1.785420	0.820616	0.378356	0.390624	-1.000000	-1.000000	-1.000000	-1.000000	-1.000000	-1.000000	-1.000000	72.482759	0.000000	-1.000000	-1.000000	2009570.000000	1773868263.062762
-5501.745000	2845.215000	21229.425000	14353.920000	-16245.990000	-18456.390000	8247.510000	16504.155000	10.077782	15.174721	19.661921	14.479981	7.749204	6.380292	10.836896	-0.989621	-2.746800	5.386780	-1.495480	0.822386	0.378295	0.388061	-1.000000	-1.000000	-1.000000	-1.000000	-1.000000	-1.000000	-1.000000	72.482759	0.000000	-1.000000	-1.000000	2009571.000000	1773868263.071228
-5591.790000	2750.760000	21177.630000	14298.795000	-16278.255000	-18474.030000	8183.610000	16423.020000	9.783246	24.238244	37.831853	35.654586	21.910601	17.604330	13.014312	-13.083370	-2.746800	5.386780	-1.495480	0.822386	0.378295	0.388061	-1.000000	-1.000000	-1.000000	-1.000000	-1.000000	-1.000000	-1.000000	72.482759	0.000000	-1.000000	-1.000000	2009572.000000	1773868263.071238
-5565.690000	2737.755000	21146.805000	14255.235000	-16318.890000	-18522.000000	8174.385000	16467.795000	-0.009584	15.865993	32.523638	36.612195	23.549457	17.844319	4.193209	-24.421574	-2.746800	5.386780	-1.495480	0.822386	0.378295	0.388061	-1.000000	-1.000000	-1.000000	-1.000000	-1.000000	-1.000000	-1.000000	72.482759	0.000000	-1.000000	-1.000000	2009573.000000	1773868263.075477
-5543.685000	2719.980000	21115.485000	14217.795000	-16358.040000	-18574.155000	8186.445000	16570.170000	-14.389372	-5.930082	7.042326	14.181739	10.020714	5.024910	-11.062474	-28.562769	-2.746800	5.386780	-1.495480	0.822386	0.378295	0.388061	-1.000000	-1.000000	-1.000000	-1.000000	-1.000000	-1.000000	-1.000000	72.482759	0.000000	-1.000000	-1.000000	2009574.000000	1773868263.075488
-5574.015000	2689.020000	21075.435000	14165.820000	-16406.955000	-18582.390000	8212.095000	16636.275000	-20.167258	-25.047895	-21.392210	-17.244536	-10.268592	-12.670972	-20.765706	-18.304663	-2.746800	5.386780	-1.495480	0.822386	0.378295	0.388061	-1.000000	-1.000000	-1.000000	-1.000000	-1.000000	-1.000000	-1.000000	72.482759	0.000000	-1.000000	-1.000000	2009575.000000	1773868263.076276
-5561.190000	2716.920000	21110.895000	14212.395000	-16353.045000	-18546.480000	8210.340000	16595.730000	-12.932660	-29.192249	-35.749432	-37.921150	-24.368437	-22.534034	-16.809349	3.935212	-2.746800	5.386780	-1.495480	0.822386	0.378295	0.388061	-1.000000	-1.000000	-1.000000	-1.000000	-1.000000	-1.000000	-1.000000	72.482759	0.000000	-1.000000	-1.000000	2009576.000000	1773868263.076284
-5606.460000	2668.185000	21077.730000	14192.190000	-16358.220000	-18535.500000	8199.495000	16546.230000	-0.988495	-18.534690	-31.096710	-37.043368	-23.539929	-17.573668	-3.363340	24.740455	-2.746800	5.386780	-1.495480	0.822386	0.378295	0.388061	-1.000000	-1.000000	-1.000000	-1.000000	-1.000000	-1.000000	-1.000000	72.482759	0.000000	-1.000000	-1.000000	2009577.000000	1773868263.086162
-5599.305000	2684.925000	21097.845000	14211.450000	-16350.480000	-18548.595000	8196.435000	16534.665000	5.779452	-2.565848	-15.499641	-19.322029	-9.463832	-2.158679	7.603858	28.492904	-2.746800	5.386780	-1.495480	0.822386	0.378295	0.388061	-1.000000	-1.000000	-1.000000	-1.000000	-1.000000	-1.000000	-1.000000	72.482759	0.000000	-1.000000	-1.000000	2009578.000000	1773868263.086172
-5590.080000	2722.500000	21127.005000	14240.655000	-16318.080000	-18532.305000	8192.295000	16513.560000	5.762928	10.010840	0.934978	1.775348	7.870616	12.507462	8.997683	11.867318	-2.746800	5.386780	-1.495480	0.822386	0.378295	0.388061	-1.000000	-1.000000	-1.000000	-1.000000	-1.000000	-1.000000	-1.000000	72.482759	0.000000	-1.000000	-1.000000	2009579.000000	1773868263.086241
-5596.065000	2710.260000	21111.120000	14226.930000	-16325.145000	-18532.170000	8187.030000	16492.140000	4.636166	17.669793	14.067952	16.314636	19.053988	18.429351	4.331803	-11.736681	-2.746800	5.386780	-1.495480	0.822386	0.378295	0.388061	-1.000000	-1.000000	-1.000000	-1.000000	-1.000000	-1.000000	-1.000000	72.482759	0.000000	-1.000000	-1.000000	2009580.000000	1773868263.086250
-5594.130000	2702.970000	21109.365000	14226.300000	-16329.195000	-18524.115000	8200.170000	16503.930000	7.214344	22.321518	22.831478	22.199789	20.720776	15.698733	1.717303	-24.705664	-1.083460	5.127360	-2.334780	0.824461	0.376525	0.387572	-1.000000	-1.000000	-1.000000	-1.000000	-1.000000	-1.000000	-1.000000	72.482759	0.000000	-1.000000	-1.000000	2009581.000000	1773868263.086652
-5599.980000	2718.945000	21121.965000	14236.155000	-16317.720000	-18504.270000	8201.835000	16506.360000	11.899648	23.981239	26.327547	22.240592	15.449691	9.845141	4.660903	-20.800253	-1.083460	5.127360	-2.334780	0.824461	0.376525	0.387572	-1.000000	-1.000000	-1.000000	-1.000000	-1.000000	-1.000000	-1.000000	72.482759	0.000000	-1.000000	-1.000000	2009582.000000	1773868263.086658
-5605.065000	2737.530000	21144.735000	14261.670000	-16291.755000	-18486.090000	8215.515000	16503.570000	13.281124	21.374294	24.932194	20.309471	9.046285	6.658493	9.461876	-8.825448	-1.083460	5.127360	-2.334780	0.824461	0.376525	0.387572	-1.000000	-1.000000	-1.000000	-1.000000	-1.000000	-1.000000	-1.000000	72.482759	0.000000	-1.000000	-1.000000	2009583.000000	1773868263.090772
-5562.450000	2746.485000	21148.875000	14266.215000	-16285.815000	-18478.170000	8220.555000	16511.130000	9.446226	14.327784	19.801914	18.085648	5.486445	6.900349	10.598625	-0.078580	-1.083460	5.127360	-2.334780	0.824461	0.376525	0.387572	-1.000000	-1.000000	-1.000000	-1.000000	-1.000000	-1.000000	-1.000000	72.482759	0.000000	-1.000000	-1.000000	2009584.000000	1773868263.090782
-5535.765000	2750.895000	21151.170000	14267.520000	-16287.885000	-18489.105000	8203.005000	16519.680000	3.652437	3.451199	10.403651	12.988735	2.712596	5.291253	5.827144	4.715303	-1.083460	5.127360	-2.334780	0.824461	0.376525	0.387572	-1.000000	-1.000000	-1.000000	-1.000000	-1.000000	-1.000000	-1.000000	72.482759	0.000000	-1.000000	-1.000000	2009585.000000	1773868263.094640
-5527.080000	2740.320000	21135.735000	14247.360000	-16311.555000	-18508.185000	8207.055000	16538.715000	-0.528524	-9.534750	-4.050298	1.363299	-3.977297	-3.029317	-3.315412	10.930624	-1.083460	5.127360	-2.334780	0.824461	0.376525	0.387572	-1.000000	-1.000000	-1.000000	-1.000000	-1.000000	-1.000000	-1.000000	72.482759	0.000000	-1.000000	-1.000000	2009586.000000	1773868263.094646
-5531.715000	2729.520000	21118.545000	14227.470000	-16330.455000	-18522.045000	8208.045000	16527.825000	-2.944333	-21.646418	-20.980911	-16.091803	-15.207164	-16.226886	-12.459284	18.650431	-1.083460	5.127360	-2.334780	0.824461	0.376525	0.387572	-1.000000	-1.000000	-1.000000	-1.000000	-1.000000	-1.000000	-1.000000	72.482759	0.000000	-1.000000	-1.000000	2009587.000000	1773868263.098827
-5533.200000	2732.535000	21121.605000	14228.505000	-16333.155000	-18529.920000	8192.205000	16509.690000	-5.788604	-29.758597	-34.315137	-33.124848	-26.406094	-27.244233	-16.643440	22.402504	-1.083460	5.127360	-2.334780	0.824461	0.376525	0.387572	-1.000000	-1.000000	-1.000000	-1.000000	-1.000000	-1.000000	-1.000000	72.482759	0.000000	-1.000000	-1.000000	2009588.000000	1773868263.098838
-5526.090000	2727.720000	21111.615000	14216.040000	-16347.870000	-18547.110000	8178.795000	16517.115000	-9.343570	-29.905601	-36.907745	-40.349330	-30.600036	-29.474160	-13.809490	18.449380	-1.083460	5.127360	-2.334780	0.824461	0.376525	0.387572	-1.000000	-1.000000	-1.000000	-1.000000	-1.000000	-1.000000	-1.000000	72.482759	0.000000	-1.000000	-1.000000	2009589.000000	1773868263.102716
-5547.915000	2738.835000	21136.230000	14243.805000	-16317.090000	-18513.540000	8195.670000	16507.530000	-11.608492	-19.481892	-25.231661	-31.261708	-22.635166	-20.407958	-5.832692	7.714265	-1.083460	5.127360	-2.334780	0.824461	0.376525	0.387572	-1.000000	-1.000000	-1.000000	-1.000000	-1.000000	-1.000000	-1.000000	72.482759	0.000000	-1.000000	-1.000000	2009590.000000	1773868263.102737
-5583.015000	2722.770000	21131.505000	14235.120000	-16323.165000	-18514.485000	8193.015000	16496.415000	-12.027724	-2.131193	-3.497495	-8.414974	-3.792995	-2.540431	3.365012	-6.817276	-2.090620	3.097780	-2.517900	0.822569	0.377929	0.387999	-1.000000	-1.000000	-1.000000	-1.000000	-1.000000	-1.000000	-1.000000	72.482759	0.000000	-1.000000	-1.000000	2009591.000000	1773868263.106758
-5570.280000	2734.380000	21140.370000	14236.200000	-16320.600000	-18511.470000	8200.260000	16494.345000	-11.220791	13.702451	18.143969	17.101539	17.369741	16.748365	9.797240	-20.986527	-2.090620	3.097780	-2.517900	0.822569	0.377929	0.387999	-1.000000	-1.000000	-1.000000	-1.000000	-1.000000	-1.000000	-1.000000	72.482759	0.000000	-1.000000	-1.000000	2009592.000000	1773868263.106768
-5567.940000	2743.020000	21146.535000	14241.375000	-16316.730000	-18510.570000	8195.805000	16489.575000	-8.871130	21.435650	30.030833	32.974490	30.298514	28.382710	11.222756	-28.628591	-2.090620	3.097780	-2.517900	0.822569	0.377929	0.387999	-1.000000	-1.000000	-1.000000	-1.000000	-1.000000	-1.000000	-1.000000	72.482759	0.000000	-1.000000	-1.000000	2009593.000000	1773868263.110657
-5549.670000	2736.495000	21109.410000	14243.220000	-16313.715000	-18511.380000	8178.165000	16451.055000	-4.398112	19.956911	27.963367	33.466840	29.825512	27.731934	8.036951	-25.572198	-2.090620	3.097780	-2.517900	0.822569	0.377929	0.387999	-1.000000	-1.000000	-1.000000	-1.000000	-1.000000	-1.000000	-1.000000	72.482759	0.000000	-1.000000	-1.000000	2009594.000000	1773868263.110666
-5555.700000	2738.070000	21084.390000	14246.505000	-16306.155000	-18502.380000	8192.745000	16451.325000	2.131531	12.343512	14.057914	21.529919	18.864931	17.443724	2.389396	-14.101484	-2.090620	3.097780	-2.517900	0.822569	0.377929	0.387999	-1.000000	-1.000000	-1.000000	-1.000000	-1.000000	-1.000000	-1.000000	72.482759	0.000000	-1.000000	-1.000000	2009595.000000	1773868263.114670
-5559.840000	2737.260000	21090.600000	14239.710000	-16306.695000	-18493.920000	8201.835000	16514.100000	9.111746	2.904574	-4.264495	4.779582	4.508402	4.310033	-2.453331	1.235587	-2.090620	3.097780	-2.517900	0.822569	0.377929	0.387999	-1.000000	-1.000000	-1.000000	-1.000000	-1.000000	-1.000000	-1.000000	72.482759	0.000000	-1.000000	-1.000000	2009596.000000	1773868263.114676
-5517.090000	2773.530000	21163.590000	14269.230000	-16278.480000	-18467.370000	8212.635000	16541.010000	14.307992	-4.161849	-16.332383	-9.088903	-6.873830	-5.398451	-3.291785	18.083190	-2.090620	3.097780	-2.517900	0.822569	0.377929	0.387999	-1.000000	-1.000000	-1.000000	-1.000000	-1.000000	-1.000000	-1.000000	72.482759	0.000000	-1.000000	-1.000000	2009597.000000	1773868263.118712
-5497.965000	2805.120000	21211.020000	14290.605000	-16271.775000	-18468.585000	8225.730000	16603.830000	17.116705	-5.309041	-13.865162	-14.566968	-11.589126	-8.858767	0.280568	32.738198	-2.090620	3.097780	-2.517900	0.822569	0.377929	0.387999	-1.000000	-1.000000	-1.000000	-1.000000	-1.000000	-1.000000	-1.000000	72.482759	0.000000	-1.000000	-1.000000	2009598.000000	1773868263.118718
-5548.275000	2769.390000	21153.195000	14258.565000	-16305.840000	-18501.930000	8214.210000	16560.135000	16.787598	-1.156833	0.185073	-11.637094	-10.659852	-8.420456	4.688207	37.949636	-2.090620	3.097780	-2.517900	0.822569	0.377929	0.387999	-1.000000	-1.000000	-1.000000	-1.000000	-1.000000	-1.000000	-1.000000	72.482759	0.000000	-1.000000	-1.000000	2009599.000000	1773868263.130254
-5581.125000	2738.160000	21138.525000	14252.265000	-16306.020000	-18497.970000	8212.770000	16508.835000	10.761708	2.108677	11.993995	-6.087654	-8.763128	-8.714754	5.197106	26.843536	-2.090620	3.097780	-2.517900	0.822569	0.377929	0.387999	-1.000000	-1.000000	-1.000000	-1.000000	-1.000000	-1.000000	-1.000000	72.482759	0.000000	-1.000000	-1.000000	2009600.000000	1773868263.130266
-5551.875000	2736.630000	21121.470000	14247.315000	-16305.075000	-18495.090000	8208.810000	16501.410000	-1.205114	-0.856291	10.852630	-3.148288	-8.350120	-10.553020	0.427116	0.452322	-5.768280	3.677660	-2.548420	0.822752	0.382628	0.387450	-1.000000	-1.000000	-1.000000	-1.000000	-1.000000	-1.000000	-1.000000	72.482759	0.000000	-1.000000	-1.000000	2009601.000000	1773868263.130279
-5540.895000	2740.455000	21127.185000	14253.075000	-16300.530000	-18492.030000	8210.880000	16495.020000	-13.749743	-8.369564	-1.230146	-3.335474	-7.962032	-10.834026	-6.331656	-28.375290	-5.768280	3.677660	-2.548420	0.822752	0.382628	0.387450	-1.000000	-1.000000	-1.000000	-1.000000	-1.000000	-1.000000	-1.000000	72.482759	0.000000	-1.000000	-1.000000	2009602.000000	1773868263.130284
-5545.350000	2749.815000	21147.660000	14257.530000	-16309.800000	-18497.835000	8206.830000	16457.220000	-20.061986	-13.609308	-13.154128	-4.080209	-5.664381	-7.280331	-10.279915	-43.823492	-5.768280	3.677660	-2.548420	0.822752	0.382628	0.387450	-1.000000	-1.000000	-1.000000	-1.000000	-1.000000	-1.000000	-1.000000	72.482759	0.000000	-1.000000	-1.000000	2009603.000000	1773868263.130784
-5550.300000	2748.285000	21156.570000	14251.770000	-16311.060000	-18495.720000	8199.765000	16475.355000	-17.676830	-11.519583	-14.845565	-2.961795	-1.430742	-0.836234	-9.464259	-39.618079	-5.768280	3.677660	-2.548420	0.822752	0.382628	0.387450	-1.000000	-1.000000	-1.000000	-1.000000	-1.000000	-1.000000	-1.000000	72.482759	0.000000	-1.000000	-1.000000	2009604.000000	1773868263.130792
-5577.255000	2713.185000	21136.455000	14240.070000	-16311.555000	-18531.270000	8195.895000	16537.905000	-9.500852	-3.693522	-6.414627	-0.084140	3.069199	4.941045	-5.495797	-20.143625	-5.768280	3.677660	-2.548420	0.822752	0.382628	0.387450	-1.000000	-1.000000	-1.000000	-1.000000	-1.000000	-1.000000	-1.000000	72.482759	0.000000	-1.000000	-1.000000	2009605.000000	1773868263.134670
-5580.990000	2727.045000	21161.340000	14249.520000	-16337.520000	-18546.030000	8210.880000	16563.555000	-1.379889	3.667961	2.974732	2.475507	5.612926	6.317120	-0.637230	5.301353	-5.768280	3.677660	-2.548420	0.822752	0.382628	0.387450	-1.000000	-1.000000	-1.000000	-1.000000	-1.000000	-1.000000	-1.000000	72.482759	0.000000	-1.000000	-1.000000	2009606.000000	1773868263.134680
-5608.575000	2739.645000	21170.115000	14261.535000	-16320.015000	-18499.590000	8217.585000	16541.595000	2.667719	6.806619	6.221586	3.584875	5.190409	3.811561	3.878592	25.521875	-5.768280	3.677660	-2.548420	0.822752	0.382628	0.387450	-1.000000	-1.000000	-1.000000	-1.000000	-1.000000	-1.000000	-1.000000	72.482759	0.000000	-1.000000	-1.000000	2009607.000000	1773868263.140831
-5600.880000	2721.195000	21131.865000	14238.135000	-16314.615000	-18492.255000	8190.405000	16539.435000	4.200566	7.386241	4.356094	4.109210	3.929008	2.852950	6.898086	32.217114	-5.768280	3.677660	-2.548420	0.822752	0.382628	0.387450	-1.000000	-1.000000	-1.000000	-1.000000	-1.000000	-1.000000	-1.000000	72.482759	0.000000	-1.000000	-1.000000	2009608.000000	1773868263.140843
-5561.190000	2718.405000	21117.015000	14226.795000	-16326.135000	-18517.410000	8183.610000	16512.480000	7.612980	8.025383	1.344441	4.502458	4.371079	6.016418	6.833422	25.475586	-5.768280	3.677660	-2.548420	0.822752	0.382628	0.387450	-1.000000	-1.000000	-1.000000	-1.000000	-1.000000	-1.000000	-1.000000	72.482759	0.000000	-1.000000	-1.000000	2009609.000000	1773868263.145383
-5563.845000	2729.250000	21130.065000	14241.195000	-16318.170000	-18517.005000	8193.240000	16473.285000	13.261258	8.530014	-0.658809	3.958857	5.503307	8.949029	3.705696	10.807514	-5.768280	3.677660	-2.548420	0.822752	0.382628	0.387450	-1.000000	-1.000000	-1.000000	-1.000000	-1.000000	-1.000000	-1.000000	72.482759	0.000000	-1.000000	-1.000000	2009610.000000	1773868263.145393
-5596.695000	2732.805000	21143.160000	14252.715000	-16317.765000	-18537.390000	8197.650000	16448.400000	15.643346	7.403673	-0.503577	2.541079	5.005135	6.964285	0.225661	-5.692601	-4.211760	4.135460	-3.326680	0.821653	0.377563	0.387267	-1.000000	-1.000000	-1.000000	-1.000000	-1.000000	-1.000000	-1.000000	72.482759	0.000000	-1.000000	-1.000000	2009611.000000	1773868263.146751
-5580.405000	2714.085000	21112.785000	14215.995000	-16355.430000	-18559.530000	8174.160000	16466.670000	10.281826	3.795749	1.397034	0.771837	2.072253	0.078438	-1.347691	-17.329092	-4.211760	4.135460	-3.326680	0.821653	0.377563	0.387267	-1.000000	-1.000000	-1.000000	-1.000000	-1.000000	-1.000000	-1.000000	72.482759	0.000000	-1.000000	-1.000000	2009612.000000	1773868263.146756
-5553.405000	2724.030000	21128.580000	14248.080000	-16289.865000	-18487.035000	8165.025000	16470.495000	0.388538	-1.645426	2.638853	-1.302073	-2.108255	-7.072516	-1.590631	-19.447779	-4.211760	4.135460	-3.326680	0.821653	0.377563	0.387267	-1.000000	-1.000000	-1.000000	-1.000000	-1.000000	-1.000000	-1.000000	72.482759	0.000000	-1.000000	-1.000000	2009613.000000	1773868263.151918
-5542.470000	2732.265000	21136.860000	14252.490000	-16295.355000	-18477.180000	8192.745000	16517.565000	-6.552658	-6.092048	2.033191	-2.436455	-4.076085	-7.625744	-1.482784	-13.410869	-4.211760	4.135460	-3.326680	0.821653	0.377563	0.387267	-1.000000	-1.000000	-1.000000	-1.000000	-1.000000	-1.000000	-1.000000	72.482759	0.000000	-1.000000	-1.000000	2009614.000000	1773868263.151929
-5542.515000	2718.720000	21116.700000	14228.370000	-16328.520000	-18510.525000	8199.180000	16588.620000	-7.089406	-7.410234	-0.083822	-1.980991	-2.452540	-0.657589	-0.570901	-3.052774	-4.211760	4.135460	-3.326680	0.821653	0.377563	0.387267	-1.000000	-1.000000	-1.000000	-1.000000	-1.000000	-1.000000	-1.000000	72.482759	0.000000	-1.000000	-1.000000	2009615.000000	1773868263.154855
-5551.830000	2748.510000	21144.285000	14260.095000	-16288.830000	-18478.755000	8197.515000	16512.930000	-3.438314	-6.108326	-2.698256	-1.287654	-0.213750	6.075108	1.270082	8.290710	-4.211760	4.135460	-3.326680	0.821653	0.377563	0.387267	-1.000000	-1.000000	-1.000000	-1.000000	-1.000000	-1.000000	-1.000000	72.482759	0.000000	-1.000000	-1.000000	2009616.000000	1773868263.154862
-5544.225000	2738.295000	21124.395000	14238.405000	-16311.015000	-18496.170000	8208.585000	16535.070000	0.176563	-2.659578	-2.880975	-0.388484	0.416502	6.250012	3.330490	15.530121	-4.211760	4.135460	-3.326680	0.821653	0.377563	0.387267	-1.000000	-1.000000	-1.000000	-1.000000	-1.000000	-1.000000	-1.000000	72.482759	0.000000	-1.000000	-1.000000	2009617.000000	1773868263.158816
-5542.020000	2719.710000	21105.450000	14219.820000	-16330.005000	-18518.130000	8203.905000	16555.410000	0.203845	1.697865	0.431393	0.901838	-0.744025	0.611349	4.753314	15.711437	-4.211760	4.135460	-3.326680	0.821653	0.377563	0.387267	-1.000000	-1.000000	-1.000000	-1.000000	-1.000000	-1.000000	-1.000000	72.482759	0.000000	-1.000000	-1.000000	2009618.000000	1773868263.158822
-5537.520000	2725.245000	21114.630000	14227.785000	-16326.360000	-18522.135000	8201.025000	16547.400000	-3.633229	3.624208	3.669187	0.737088	-3.557481	-6.747350	4.131954	11.550314	-4.211760	4.135460	-3.326680	0.821653	0.377563	0.387267	-1.000000	-1.000000	-1.000000	-1.000000	-1.000000	-1.000000	-1.000000	72.482759	0.000000	-1.000000	-1.000000	2009619.000000	1773868263.162820
-5547.195000	2732.940000	21125.880000	14238.720000	-16316.640000	-18510.570000	8199.720000	16526.520000	-7.664510	1.898136	3.909049	-1.172167	-5.926816	-10.973679	0.770672	5.900485	-4.211760	4.135460	-3.326680	0.821653	0.377563	0.387267	-1.000000	-1.000000	-1.000000	-1.000000	-1.000000	-1.000000	-1.000000	72.482759	0.000000	-1.000000	-1.000000	2009620.000000	1773868263.162825
-5550.705000	2736.630000	21135.105000	14246.325000	-16308.585000	-18499.275000	8198.640000	16522.695000	-8.626031	-0.845811	2.310384	-2.121463	-4.786374	-8.895104	-3.475564	-1.566465	0.259420	5.508860	-1.999060	0.823606	0.375792	0.388488	-1.000000	-1.000000	-1.000000	-1.000000	-1.000000	-1.000000	-1.000000	72.482759	0.000000	-1.000000	-1.000000	2009621.000000	1773868263.166753
-5548.005000	2750.130000	21146.220000	14244.345000	-16311.240000	-18504.405000	8200.035000	16525.485000	-6.657128	-1.710099	1.019000	-0.669849	-0.673485	-2.582287	-5.890576	-11.100979	0.259420	5.508860	-1.999060	0.823606	0.375792	0.388488	-1.000000	-1.000000	-1.000000	-1.000000	-1.000000	-1.000000	-1.000000	72.482759	0.000000	-1.000000	-1.000000	2009622.000000	1773868263.166761
-5546.880000	2762.685000	21153.960000	14245.785000	-16308.765000	-18502.920000	8195.355000	16519.590000	-3.205428	-0.153273	0.299979	1.424968	3.073708	2.965865	-6.052644	-20.647427	0.259420	5.508860	-1.999060	0.823606	0.375792	0.388488	-1.000000	-1.000000	-1.000000	-1.000000	-1.000000	-1.000000	-1.000000	72.482759	0.000000	-1.000000	-1.000000	2009623.000000	1773868263.170766
-5554.170000	2759.535000	21149.280000	14245.650000	-16309.215000	-18502.695000	8188.155000	16517.745000	0.967547	2.214692	-0.612896	2.235636	4.928444	5.387197	-5.438496	-26.202239	0.259420	5.508860	-1.999060	0.823606	0.375792	0.388488	-1.000000	-1.000000	-1.000000	-1.000000	-1.000000	-1.000000	-1.000000	72.482759	0.000000	-1.000000	-1.000000	2009624.000000	1773868263.170772
-5559.165000	2724.705000	21126.645000	14254.155000	-16301.475000	-18494.055000	8191.260000	16524.180000	5.205190	2.624581	-2.253373	1.612823	4.945299	5.151568	-4.519652	-22.410314	0.259420	5.508860	-1.999060	0.823606	0.375792	0.388488	-1.000000	-1.000000	-1.000000	-1.000000	-1.000000	-1.000000	-1.000000	72.482759	0.000000	-1.000000	-1.000000	2009625.000000	1773868263.174858
-5560.515000	2710.530000	21116.340000	14248.350000	-16307.820000	-18493.245000	8200.935000	16502.535000	7.849995	-0.633648	-4.366740	0.698572	3.511100	3.784100	-2.326332	-7.809576	0.259420	5.508860	-1.999060	0.823606	0.375792	0.388488	-1.000000	-1.000000	-1.000000	-1.000000	-1.000000	-1.000000	-1.000000	72.482759	0.000000	-1.000000	-1.000000	2009626.000000	1773868263.174866
-5545.755000	2751.660000	21170.160000	14271.255000	-16283.565000	-18477.270000	8209.260000	16464.015000	7.461707	-5.107349	-4.868565	0.811971	2.052659	3.330773	1.609349	10.093922	0.259420	5.508860	-1.999060	0.823606	0.375792	0.388488	-1.000000	-1.000000	-1.000000	-1.000000	-1.000000	-1.000000	-1.000000	72.482759	0.000000	-1.000000	-1.000000	2009627.000000	1773868263.178808
-5549.085000	2780.955000	21195.270000	14298.705000	-16250.715000	-18442.845000	8211.060000	16399.620000	4.961686	-5.524219	-1.252411	2.227948	2.134998	4.867684	6.125893	20.533547	0.259420	5.508860	-1.999060	0.823606	0.375792	0.388488	-1.000000	-1.000000	-1.000000	-1.000000	-1.000000	-1.000000	-1.000000	72.482759	0.000000	-1.000000	-1.000000	2009628.000000	1773868263.178814
-5539.950000	2808.495000	21184.245000	14325.390000	-16232.805000	-18431.505000	8232.750000	16450.785000	2.513577	0.273069	5.118603	4.195527	3.872133	7.277006	9.330756	19.647684	0.259420	5.508860	-1.999060	0.823606	0.375792	0.388488	-1.000000	-1.000000	-1.000000	-1.000000	-1.000000	-1.000000	-1.000000	72.482759	0.000000	-1.000000	-1.000000	2009629.000000	1773868263.182700
-5527.170000	2790.720000	21156.750000	14296.320000	-16269.795000	-18470.655000	8231.445000	16595.370000	1.229640	8.295890	8.437866	4.851135	4.569531	6.831265	10.023060	14.600225	0.259420	5.508860	-1.999060	0.823606	0.375792	0.388488	-1.000000	-1.000000	-1.000000	-1.000000	-1.000000	-1.000000	-1.000000	72.482759	0.000000	-1.000000	-1.000000	2009630.000000	1773868263.182706
-5524.020000	2769.885000	21162.330000	14267.475000	-16299.945000	-18492.120000	8211.645000	16597.980000	0.822236	11.294468	4.302976	1.333922	0.179605	-0.094461	7.251328	14.890858	-0.930860	5.753020	-1.907500	0.822386	0.380614	0.389647	-1.000000	-1.000000	-1.000000	-1.000000	-1.000000	-1.000000	-1.000000	72.482759	0.000000	-1.000000	-1.000000	2009631.000000	1773868263.187207
-5522.805000	2789.955000	21199.455000	14305.995000	-16261.740000	-18466.965000	8216.100000	16519.860000	0.353324	5.603476	-4.452484	-6.119776	-8.517089	-11.134657	0.730477	17.705403	-0.930860	5.753020	-1.907500	0.822386	0.380614	0.389647	-1.000000	-1.000000	-1.000000	-1.000000	-1.000000	-1.000000	-1.000000	72.482759	0.000000	-1.000000	-1.000000	2009632.000000	1773868263.187216
-5536.305000	2791.530000	21201.345000	14312.115000	-16256.340000	-18459.090000	8176.455000	16445.520000	-0.789730	-4.442555	-9.960056	-11.974105	-14.634212	-18.380790	-7.404235	10.810617	-0.930860	5.753020	-1.907500	0.822386	0.380614	0.389647	-1.000000	-1.000000	-1.000000	-1.000000	-1.000000	-1.000000	-1.000000	72.482759	0.000000	-1.000000	-1.000000	2009633.000000	1773868263.190740
-5550.705000	2735.460000	21129.255000	14243.310000	-16312.455000	-18492.075000	8168.580000	16470.045000	-2.818616	-11.541367	-8.448883	-12.228279	-13.681147	-16.860751	-13.921547	-8.909492	-0.930860	5.753020	-1.907500	0.822386	0.380614	0.389647	-1.000000	-1.000000	-1.000000	-1.000000	-1.000000	-1.000000	-1.000000	72.482759	0.000000	-1.000000	-1.000000	2009634.000000	1773868263.190747
-5563.440000	2712.825000	21119.265000	14250.555000	-16283.520000	-18449.685000	8226.135000	16474.005000	-5.787706	-13.285105	-4.113028	-8.969061	-7.785811	-8.193628	-15.486862	-28.946456	-0.930860	5.753020	-1.907500	0.822386	0.380614	0.389647	-1.000000	-1.000000	-1.000000	-1.000000	-1.000000	-1.000000	-1.000000	72.482759	0.000000	-1.000000	-1.000000	2009635.000000	1773868263.194783
-5584.365000	2729.070000	21116.835000	14229.135000	-16330.995000	-18512.550000	8235.000000	16457.355000	-8.963865	-11.709474	-2.599382	-5.510771	-1.258593	2.406180	-9.179450	-34.007854	-0.930860	5.753020	-1.907500	0.822386	0.380614	0.389647	-1.000000	-1.000000	-1.000000	-1.000000	-1.000000	-1.000000	-1.000000	72.482759	0.000000	-1.000000	-1.000000	2009636.000000	1773868263.194789
-5581.620000	2740.995000	21127.905000	14236.785000	-16330.365000	-18543.600000	8221.770000	16490.700000	-10.420162	-8.152911	-4.187812	-2.880123	2.270589	8.029468	2.871390	-19.993365	-0.930860	5.753020	-1.907500	0.822386	0.380614	0.389647	-1.000000	-1.000000	-1.000000	-1.000000	-1.000000	-1.000000	-1.000000	72.482759	0.000000	-1.000000	-1.000000	2009637.000000	1773868263.198844
-5567.175000	2690.820000	21082.680000	14197.275000	-16354.890000	-18589.410000	8210.430000	16600.680000	-7.943753	-3.057439	-4.908214	-0.780857	1.874454	4.703479	12.751740	4.432905	-0.930860	5.753020	-1.907500	0.822386	0.380614	0.389647	-1.000000	-1.000000	-1.000000	-1.000000	-1.000000	-1.000000	-1.000000	72.482759	0.000000	-1.000000	-1.000000	2009638.000000	1773868263.198850
-5514.660000	2727.045000	21100.995000	14200.920000	-16365.645000	-18564.705000	8207.820000	16602.660000	-0.570291	2.594967	-1.880265	1.856120	0.727899	-2.869736	14.283076	24.540765	-0.930860	5.753020	-1.907500	0.822386	0.380614	0.389647	-1.000000	-1.000000	-1.000000	-1.000000	-1.000000	-1.000000	-1.000000	72.482759	0.000000	-1.000000	-1.000000	2009639.000000	1773868263.203072
-5552.190000	2704.275000	21094.470000	14201.055000	-16355.790000	-18529.560000	8193.510000	16576.335000	9.500141	8.403457	4.247394	6.292885	2.684387	-4.807795	8.135272	28.753973	-0.930860	5.753020	-1.907500	0.822386	0.380614	0.389647	-1.000000	-1.000000	-1.000000	-1.000000	-1.000000	-1.000000	-1.000000	72.482759	0.000000	-1.000000	-1.000000	2009640.000000	1773868263.203084
-5570.505000	2692.530000	21095.280000	14210.460000	-16342.650000	-18521.370000	8191.170000	16552.305000	16.244695	12.819396	10.016418	11.587178	7.843434	3.184451	-0.527473	17.143523	-0.854560	5.600420	-2.151660	0.821531	0.384032	0.390136	-1.000000	-1.000000	-1.000000	-1.000000	-1.000000	-1.000000	-1.000000	72.482759	0.000000	-1.000000	-1.000000	2009641.000000	1773868263.206753
-5584.860000	2713.185000	21115.755000	14238.225000	-16313.895000	-18517.590000	8194.455000	16522.110000	14.687127	13.642466	12.804599	15.221771	13.269290	15.324626	-6.100155	-0.295034	-0.854560	5.600420	-2.151660	0.821531	0.384032	0.390136	-1.000000	-1.000000	-1.000000	-1.000000	-1.000000	-1.000000	-1.000000	72.482759	0.000000	-1.000000	-1.000000	2009642.000000	1773868263.206760
-5594.445000	2720.160000	21103.155000	14210.280000	-16359.030000	-18558.450000	8202.735000	16531.830000	6.066765	12.410144	13.749912	16.333322	16.142686	21.977582	-6.018704	-14.146256	-0.854560	5.600420	-2.151660	0.821531	0.384032	0.390136	-1.000000	-1.000000	-1.000000	-1.000000	-1.000000	-1.000000	-1.000000	72.482759	0.000000	-1.000000	-1.000000	2009643.000000	1773868263.210817
-5575.365000	2702.430000	21079.665000	14192.235000	-16378.830000	-18571.725000	8202.420000	16538.895000	-3.630293	11.064514	13.172132	13.806018	13.337110	17.093840	-2.798197	-19.746915	-0.854560	5.600420	-2.151660	0.821531	0.384032	0.390136	-1.000000	-1.000000	-1.000000	-1.000000	-1.000000	-1.000000	-1.000000	72.482759	0.000000	-1.000000	-1.000000	2009644.000000	1773868263.210827
-5554.395000	2713.905000	21101.940000	14228.055000	-16314.840000	-18504.405000	8190.855000	16519.725000	-8.131932	7.233637	8.210089	6.194826	4.504665	3.873646	-0.739235	-15.945572	-0.854560	5.600420	-2.151660	0.821531	0.384032	0.390136	-1.000000	-1.000000	-1.000000	-1.000000	-1.000000	-1.000000	-1.000000	72.482759	0.000000	-1.000000	-1.000000	2009645.000000	1773868263.215166
-5553.720000	2722.950000	21108.645000	14224.410000	-16329.510000	-18516.465000	8195.130000	16514.955000	-5.478092	-0.700166	-0.835129	-3.832319	-4.585149	-6.763430	-0.934465	-7.320077	-0.854560	5.600420	-2.151660	0.821531	0.384032	0.390136	-1.000000	-1.000000	-1.000000	-1.000000	-1.000000	-1.000000	-1.000000	72.482759	0.000000	-1.000000	-1.000000	2009646.000000	1773868263.215177
-5555.115000	2728.755000	21118.995000	14237.100000	-16315.695000	-18497.835000	8191.530000	16510.455000	-0.077009	-9.018408	-8.639172	-10.933407	-8.570414	-8.109198	-1.341660	-2.767147	-0.854560	5.600420	-2.151660	0.821531	0.384032	0.390136	-1.000000	-1.000000	-1.000000	-1.000000	-1.000000	-1.000000	-1.000000	72.482759	0.000000	-1.000000	-1.000000	2009647.000000	1773868263.218683
-5554.350000	2736.270000	21128.760000	14248.305000	-16303.275000	-18500.355000	8192.385000	16511.310000	1.893362	-13.038350	-11.089912	-12.015529	-7.203289	-3.630821	-0.161481	-5.419538	-0.854560	5.600420	-2.151660	0.821531	0.384032	0.390136	-1.000000	-1.000000	-1.000000	-1.000000	-1.000000	-1.000000	-1.000000	72.482759	0.000000	-1.000000	-1.000000	2009648.000000	1773868263.218690
-5553.630000	2740.095000	21130.695000	14247.585000	-16307.190000	-18500.625000	8196.525000	16510.410000	-0.576764	-11.635281	-8.992895	-8.398516	-3.693046	-1.143155	2.537454	-7.823216	-0.854560	5.600420	-2.151660	0.821531	0.384032	0.390136	-1.000000	-1.000000	-1.000000	-1.000000	-1.000000	-1.000000	-1.000000	72.482759	0.000000	-1.000000	-1.000000	2009649.000000	1773868263.222863
-5555.970000	2743.380000	21131.595000	14250.870000	-16304.265000	-18498.690000	8206.380000	16511.805000	-3.289365	-6.613061	-5.676390	-4.439077	-2.459351	-4.723382	5.554626	-1.302244	-0.854560	5.600420	-2.151660	0.821531	0.384032	0.390136	-1.000000	-1.000000	-1.000000	-1.000000	-1.000000	-1.000000	-1.000000	72.482759	0.000000	-1.000000	-1.000000	2009650.000000	1773868263.222876
-5568.255000	2734.020000	21119.670000	14240.115000	-16313.085000	-18505.575000	8212.140000	16508.745000	-3.004530	-1.088370	-3.442578	-3.136757	-5.000849	-11.229950	7.331653	13.308642	-3.708180	4.974760	-0.335720	0.820066	0.384398	0.387206	-1.000000	-1.000000	-1.000000	-1.000000	-1.000000	-1.000000	-1.000000	72.482759	0.000000	-1.000000	-1.000000	2009651.000000	1773868263.238614
-5570.685000	2732.130000	21118.320000	14237.595000	-16317.585000	-18510.390000	8208.135000	16506.630000	-0.575878	2.164144	-2.335429	-3.575020	-8.053920	-14.257393	6.075186	26.270324	-3.708180	4.974760	-0.335720	0.820066	0.384398	0.387206	-1.000000	-1.000000	-1.000000	-1.000000	-1.000000	-1.000000	-1.000000	72.482759	0.000000	-1.000000	-1.000000	2009652.000000	1773868263.238626
-5564.520000	2739.465000	21126.015000	14242.500000	-16315.830000	-18507.150000	8207.955000	16508.655000	1.300712	2.452530	-1.258540	-3.273407	-7.889674	-10.744213	1.166140	28.499233	-3.708180	4.974760	-0.335720	0.820066	0.384398	0.387206	-1.000000	-1.000000	-1.000000	-1.000000	-1.000000	-1.000000	-1.000000	72.482759	0.000000	-1.000000	-1.000000	2009653.000000	1773868263.238639
-5566.410000	2744.325000	21132.630000	14247.945000	-16309.440000	-18497.835000	8205.120000	16501.950000	1.051740	0.902815	0.169675	-1.594534	-4.632371	-3.087903	-5.096621	18.700255	-3.708180	4.974760	-0.335720	0.820066	0.384398	0.387206	-1.000000	-1.000000	-1.000000	-1.000000	-1.000000	-1.000000	-1.000000	72.482759	0.000000	-1.000000	-1.000000	2009654.000000	1773868263.238644
-5575.725000	2750.265000	21142.980000	14257.440000	-16304.265000	-18497.745000	8202.375000	16483.680000	-1.024407	-0.814069	1.559236	0.610229	-0.526134	4.461811	-9.133501	1.359698	-3.708180	4.974760	-0.335720	0.820066	0.384398	0.387206	-1.000000	-1.000000	-1.000000	-1.000000	-1.000000	-1.000000	-1.000000	72.482759	0.000000	-1.000000	-1.000000	2009655.000000	1773868263.238650
-5585.940000	2767.320000	21164.760000	14280.390000	-16285.635000	-18478.845000	8208.945000	16444.215000	-3.717327	-1.224202	2.849151	3.078451	3.479756	9.426420	-8.982675	-17.516180	-3.708180	4.974760	-0.335720	0.820066	0.384398	0.387206	-1.000000	-1.000000	-1.000000	-1.000000	-1.000000	-1.000000	-1.000000	72.344828	0.000000	-1.000000	-1.000000	2009656.000000	1773868263.238655
-5603.355000	2790.765000	21198.645000	14320.485000	-16241.040000	-18440.775000	8193.555000	16349.400000	-5.630374	0.396524	4.334616	6.049119	7.492556	11.420259	-5.193278	-32.012016	-3.708180	4.974760	-0.335720	0.820066	0.384398	0.387206	-1.000000	-1.000000	-1.000000	-1.000000	-1.000000	-1.000000	-1.000000	72.344828	0.000000	-1.000000	-1.000000	2009657.000000	1773868263.240617
-5594.670000	2784.960000	21190.860000	14313.105000	-16244.505000	-18436.995000	8190.540000	16332.660000	-5.187699	3.382481	5.713821	8.733681	10.863364	11.091086	-0.386418	-37.365591	-3.708180	4.974760	-0.335720	0.820066	0.384398	0.387206	-1.000000	-1.000000	-1.000000	-1.000000	-1.000000	-1.000000	-1.000000	72.344828	0.000000	-1.000000	-1.000000	2009658.000000	1773868263.240623
-5540.760000	2766.195000	21133.800000	14269.950000	-16281.945000	-18475.290000	8215.380000	16503.525000	-0.605465	5.232639	4.751566	8.193568	10.871885	8.113388	3.047405	-27.918837	-3.708180	4.974760	-0.335720	0.820066	0.384398	0.387206	-1.000000	-1.000000	-1.000000	-1.000000	-1.000000	-1.000000	-1.000000	72.344828	0.000000	-1.000000	-1.000000	2009659.000000	1773868263.250233
-5488.830000	2746.035000	21064.500000	14234.310000	-16311.555000	-18509.310000	8227.980000	16693.515000	8.964263	3.357593	-1.576794	1.709951	4.798759	1.244369	4.931549	2.126572	-3.708180	4.974760	-0.335720	0.820066	0.384398	0.387206	-1.000000	-1.000000	-1.000000	-1.000000	-1.000000	-1.000000	-1.000000	72.344828	0.000000	-1.000000	-1.000000	2009660.000000	1773868263.250240
-5461.965000	2785.365000	21108.420000	14261.580000	-16296.930000	-18462.465000	8248.410000	16663.500000	20.363412	-1.413480	-11.672691	-8.308301	-5.348119	-7.527274	6.099864	45.329722	-2.395820	5.295220	0.320460	0.821043	0.382567	0.387938	-1.000000	-1.000000	-1.000000	-1.000000	-1.000000	-1.000000	-1.000000	72.344828	0.000000	-1.000000	-1.000000	2009661.000000	1773868263.252497
-5448.105000	2826.270000	21189.555000	14298.435000	-16268.580000	-18453.240000	8238.960000	16553.385000	26.093372	-4.498859	-16.684039	-14.471145	-12.994255	-12.370173	6.581454	73.667978	-2.395820	5.295220	0.320460	0.821043	0.382567	0.387938	-1.000000	-1.000000	-1.000000	-1.000000	-1.000000	-1.000000	-1.000000	72.344828	0.000000	-1.000000	-1.000000	2009662.000000	1773868263.252503
-5461.470000	2863.395000	21269.565000	14355.720000	-16201.665000	-18427.770000	8207.190000	16404.120000	19.961094	-2.104688	-7.970661	-10.740251	-12.104031	-9.646023	4.958696	58.999275	-2.395820	5.295220	0.320460	0.821043	0.382567	0.387938	-1.000000	-1.000000	-1.000000	-1.000000	-1.000000	-1.000000	-1.000000	72.344828	0.000000	-1.000000	-1.000000	2009663.000000	1773868263.252510
-5518.935000	2873.430000	21285.810000	14339.790000	-16232.265000	-18443.790000	8210.970000	16395.210000	2.014667	4.421218	12.113101	1.457977	-2.472171	-1.716310	0.005152	2.469940	-2.395820	5.295220	0.320460	0.821043	0.382567	0.387938	-1.000000	-1.000000	-1.000000	-1.000000	-1.000000	-1.000000	-1.000000	72.344828	0.000000	-1.000000	-1.000000	2009664.000000	1773868263.252514
-5579.955000	2786.850000	21181.725000	14229.720000	-16327.440000	-18518.535000	8176.860000	16565.760000	-21.709562	8.053245	28.083372	11.395099	6.843686	4.075054	-6.741082	-58.547771	-2.395820	5.295220	0.320460	0.821043	0.382567	0.387938	-1.000000	-1.000000	-1.000000	-1.000000	-1.000000	-1.000000	-1.000000	72.344828	0.000000	-1.000000	-1.000000	2009665.000000	1773868263.257568
-5632.650000	2673.270000	21012.795000	14121.225000	-16418.520000	-18625.320000	8179.470000	16575.840000	-41.637369	0.380897	21.587343	6.212576	3.561627	-0.374500	-11.697555	-78.672640	-2.395820	5.295220	0.320460	0.821043	0.382567	0.387938	-1.000000	-1.000000	-1.000000	-1.000000	-1.000000	-1.000000	-1.000000	72.344828	0.000000	-1.000000	-1.000000	2009666.000000	1773868263.257578
-5656.995000	2645.460000	20979.990000	14111.055000	-16420.905000	-18648.585000	8199.225000	16541.505000	-48.783172	-18.550213	-9.957171	-13.947462	-12.790427	-14.946041	-11.619182	-47.916191	-2.395820	5.295220	0.320460	0.821043	0.382567	0.387938	-1.000000	-1.000000	-1.000000	-1.000000	-1.000000	-1.000000	-1.000000	72.344828	0.000000	-1.000000	-1.000000	2009667.000000	1773868263.260072
-5603.265000	2657.970000	21025.890000	14106.240000	-16415.325000	-18593.730000	8208.180000	16582.545000	-38.880804	-35.020643	-43.669221	-31.493787	-26.627796	-26.090910	-5.807480	0.596922	-2.395820	5.295220	0.320460	0.821043	0.382567	0.387938	-1.000000	-1.000000	-1.000000	-1.000000	-1.000000	-1.000000	-1.000000	72.344828	0.000000	-1.000000	-1.000000	2009668.000000	1773868263.260082
-5479.650000	2715.570000	21101.715000	14150.295000	-16401.555000	-18569.655000	8196.120000	16607.610000	-12.586754	-32.278408	-48.935740	-27.851554	-21.960241	-18.221304	2.407051	28.771086	-2.395820	5.295220	0.320460	0.821043	0.382567	0.387938	-1.000000	-1.000000	-1.000000	-1.000000	-1.000000	-1.000000	-1.000000	72.344828	0.000000	-1.000000	-1.000000	2009669.000000	1773868263.262936
-5525.955000	2703.375000	21116.745000	14236.380000	-16331.895000	-18503.865000	8208.765000	16554.735000	22.587957	-7.677656	-18.139751	-0.846524	1.887322	8.648401	8.190396	26.779664	-2.395820	5.295220	0.320460	0.821043	0.382567	0.387938	-1.000000	-1.000000	-1.000000	-1.000000	-1.000000	-1.000000	-1.000000	72.344828	0.000000	-1.000000	-1.000000	2009670.000000	1773868263.262946
-5605.830000	2681.820000	21067.245000	14258.655000	-16302.555000	-18503.460000	8209.485000	16517.610000	49.126899	23.112901	24.873004	34.360438	31.152649	38.208466	9.814659	10.150772	-0.946120	4.654300	-2.319520	0.823545	0.380004	0.388183	-1.000000	-1.000000	-1.000000	-1.000000	-1.000000	-1.000000	-1.000000	72.344828	0.000000	-1.000000	-1.000000	2009671.000000	1773868263.266976
-5621.220000	2678.130000	21066.345000	14211.990000	-16344.720000	-18532.305000	8200.845000	16510.185000	50.857389	40.255363	48.039588	55.554529	47.714764	51.526005	8.802912	-1.440449	-0.946120	4.654300	-2.319520	0.823545	0.380004	0.388183	-1.000000	-1.000000	-1.000000	-1.000000	-1.000000	-1.000000	-1.000000	72.344828	0.000000	-1.000000	-1.000000	2009672.000000	1773868263.267007
-5567.535000	2695.230000	21096.360000	14206.005000	-16351.695000	-18541.530000	8200.260000	16546.995000	30.717928	36.856034	40.356023	48.974376	41.184742	40.140914	6.554986	-0.467369	-0.946120	4.654300	-2.319520	0.823545	0.380004	0.388183	-1.000000	-1.000000	-1.000000	-1.000000	-1.000000	-1.000000	-1.000000	72.344828	0.000000	-1.000000	-1.000000	2009673.000000	1773868263.270810
-5570.145000	2712.015000	21123.810000	14222.700000	-16339.500000	-18531.000000	8204.625000	16525.710000	7.413005	22.186294	17.714653	21.362143	17.783014	12.332979	3.759781	5.823414	-0.946120	4.654300	-2.319520	0.823545	0.380004	0.388183	-1.000000	-1.000000	-1.000000	-1.000000	-1.000000	-1.000000	-1.000000	72.344828	0.000000	-1.000000	-1.000000	2009674.000000	1773868263.270821
-5584.095000	2728.215000	21143.385000	14242.995000	-16324.200000	-18518.850000	8207.910000	16512.390000	-5.072559	10.381418	3.128319	-6.875611	-5.762823	-13.578649	1.038286	7.051045	-0.946120	4.654300	-2.319520	0.823545	0.380004	0.388183	-1.000000	-1.000000	-1.000000	-1.000000	-1.000000	-1.000000	-1.000000	72.344828	0.000000	-1.000000	-1.000000	2009675.000000	1773868263.274920
-5601.150000	2723.940000	21134.610000	14241.825000	-16324.605000	-18519.705000	8215.695000	16515.405000	-7.880874	6.611529	3.990650	-21.254151	-18.050107	-25.099792	-1.887302	0.956405	-0.946120	4.654300	-2.319520	0.823545	0.380004	0.388183	-1.000000	-1.000000	-1.000000	-1.000000	-1.000000	-1.000000	-1.000000	72.344828	0.000000	-1.000000	-1.000000	2009676.000000	1773868263.274930
-5615.505000	2702.340000	21109.680000	14233.635000	-16327.170000	-18519.480000	8220.285000	16519.365000	-10.865794	4.238780	8.379003	-22.295909	-19.524238	-23.761258	-5.248992	-8.706895	-0.946120	4.654300	-2.319520	0.823545	0.380004	0.388183	-1.000000	-1.000000	-1.000000	-1.000000	-1.000000	-1.000000	-1.000000	72.344828	0.000000	-1.000000	-1.000000	2009677.000000	1773868263.278978
-5570.775000	2712.735000	21110.895000	14227.740000	-16328.340000	-18517.590000	8211.780000	16519.950000	-19.821979	-5.153106	1.217228	-19.405960	-16.978632	-18.716621	-7.925699	-16.501820	-0.946120	4.654300	-2.319520	0.823545	0.380004	0.388183	-1.000000	-1.000000	-1.000000	-1.000000	-1.000000	-1.000000	-1.000000	72.344828	0.000000	-1.000000	-1.000000	2009678.000000	1773868263.278988
-5556.690000	2733.030000	21129.660000	14239.935000	-16325.910000	-18527.265000	8210.385000	16522.830000	-27.925047	-20.421378	-18.493114	-20.469697	-16.497617	-16.599512	-8.685252	-15.315834	-0.946120	4.654300	-2.319520	0.823545	0.380004	0.388183	-1.000000	-1.000000	-1.000000	-1.000000	-1.000000	-1.000000	-1.000000	72.344828	0.000000	-1.000000	-1.000000	2009679.000000	1773868263.282920
-5591.610000	2720.655000	21123.810000	14235.435000	-16328.295000	-18519.750000	8204.670000	16504.020000	-23.561885	-31.750230	-37.223632	-24.730963	-18.930842	-16.879545	-7.066023	-1.657914	-0.946120	4.654300	-2.319520	0.823545	0.380004	0.388183	-1.000000	-1.000000	-1.000000	-1.000000	-1.000000	-1.000000	-1.000000	72.344828	0.000000	-1.000000	-1.000000	2009680.000000	1773868263.282930
-5585.445000	2733.660000	21131.820000	14244.975000	-16318.305000	-18509.175000	8207.505000	16499.295000	-6.231212	-31.557314	-41.515306	-24.128710	-18.915888	-13.722311	-3.175714	17.307206	-4.639040	3.280900	-1.312360	0.819151	0.381774	0.389403	-1.000000	-1.000000	-1.000000	-1.000000	-1.000000	-1.000000	-1.000000	72.344828	0.000000	-1.000000	-1.000000	2009681.000000	1773868263.286939
-5540.220000	2760.345000	21150.135000	14265.765000	-16292.835000	-18506.610000	8220.105000	16506.990000	13.509379	-19.703922	-28.595385	-12.166730	-10.248894	-3.095663	2.148122	27.827873	-4.639040	3.280900	-1.312360	0.819151	0.381774	0.389403	-1.000000	-1.000000	-1.000000	-1.000000	-1.000000	-1.000000	-1.000000	72.344828	0.000000	-1.000000	-1.000000	2009682.000000	1773868263.286949
-5532.210000	2770.470000	21151.530000	14261.130000	-16309.170000	-18514.530000	8217.450000	16514.145000	26.195035	-0.974025	-4.765422	8.642242	6.276467	11.914568	7.158175	22.717540	-4.639040	3.280900	-1.312360	0.819151	0.381774	0.389403	-1.000000	-1.000000	-1.000000	-1.000000	-1.000000	-1.000000	-1.000000	72.344828	0.000000	-1.000000	-1.000000	2009683.000000	1773868263.290833
-5554.755000	2745.495000	21121.020000	14233.230000	-16325.280000	-18505.845000	8222.985000	16511.265000	27.997989	16.626545	19.053839	27.308205	21.583024	23.552408	9.381949	7.133493	-4.639040	3.280900	-1.312360	0.819151	0.381774	0.389403	-1.000000	-1.000000	-1.000000	-1.000000	-1.000000	-1.000000	-1.000000	72.344828	0.000000	-1.000000	-1.000000	2009684.000000	1773868263.290843
-5587.065000	2734.380000	21130.695000	14253.660000	-16290.945000	-18492.165000	8237.745000	16500.060000	18.180447	24.617983	32.161385	33.280390	26.733976	25.892873	7.419986	-9.548649	-4.639040	3.280900	-1.312360	0.819151	0.381774	0.389403	-1.000000	-1.000000	-1.000000	-1.000000	-1.000000	-1.000000	-1.000000	72.344828	0.000000	-1.000000	-1.000000	2009685.000000	1773868263.294772
-5617.665000	2748.330000	21146.985000	14263.245000	-16292.520000	-18493.560000	8231.760000	16501.500000	-1.236150	20.058218	30.651770	25.199778	20.844215	18.345749	2.608594	-21.223712	-4.639040	3.280900	-1.312360	0.819151	0.381774	0.389403	-1.000000	-1.000000	-1.000000	-1.000000	-1.000000	-1.000000	-1.000000	72.344828	0.000000	-1.000000	-1.000000	2009686.000000	1773868263.294782
-5598.090000	2727.720000	21121.245000	14237.685000	-16319.250000	-18516.870000	8194.005000	16522.155000	-23.087639	7.146357	18.007644	8.847722	8.170968	4.251318	-2.852622	-23.848468	-4.639040	3.280900	-1.312360	0.819151	0.381774	0.389403	-1.000000	-1.000000	-1.000000	-1.000000	-1.000000	-1.000000	-1.000000	72.344828	0.000000	-1.000000	-1.000000	2009687.000000	1773868263.299128
-5528.205000	2717.055000	21094.425000	14205.645000	-16348.050000	-18522.810000	8187.570000	16529.310000	-34.431417	-7.175987	0.233706	-9.578141	-7.245279	-11.124564	-7.726209	-15.154975	-4.639040	3.280900	-1.312360	0.819151	0.381774	0.389403	-1.000000	-1.000000	-1.000000	-1.000000	-1.000000	-1.000000	-1.000000	72.344828	0.000000	-1.000000	-1.000000	2009688.000000	1773868263.299138
-5524.245000	2733.660000	21104.370000	14208.255000	-16354.440000	-18543.420000	8188.065000	16515.270000	-24.897145	-16.358258	-15.769989	-23.923134	-20.502300	-21.726981	-10.312386	1.339462	-4.639040	3.280900	-1.312360	0.819151	0.381774	0.389403	-1.000000	-1.000000	-1.000000	-1.000000	-1.000000	-1.000000	-1.000000	72.344828	0.000000	-1.000000	-1.000000	2009689.000000	1773868263.302816
-5547.600000	2744.640000	21121.380000	14226.930000	-16341.480000	-18547.065000	8166.735000	16466.670000	0.135555	-16.220529	-22.966683	-27.552925	-25.323642	-23.408879	-8.922567	15.335100	-4.639040	3.280900	-1.312360	0.819151	0.381774	0.389403	-1.000000	-1.000000	-1.000000	-1.000000	-1.000000	-1.000000	-1.000000	72.344828	0.000000	-1.000000	-1.000000	2009690.000000	1773868263.302823
-5557.905000	2748.645000	21138.885000	14257.890000	-16296.120000	-18497.835000	8169.120000	16377.750000	21.863515	-7.783497	-18.068822	-17.677891	-17.985338	-15.266746	-4.335750	15.826787	-2.731540	5.783540	0.259420	0.818540	0.379455	0.390563	-1.000000	-1.000000	-1.000000	-1.000000	-1.000000	-1.000000	-1.000000	72.344828	0.000000	-1.000000	-1.000000	2009691.000000	1773868263.307099
-5562.225000	2765.340000	21152.520000	14271.165000	-16286.355000	-18480.825000	8208.405000	16392.645000	26.516590	3.757451	-3.842250	1.497977	-0.525962	0.645649	1.694907	1.468018	-2.731540	5.783540	0.259420	0.818540	0.379455	0.390563	-1.000000	-1.000000	-1.000000	-1.000000	-1.000000	-1.000000	-1.000000	72.344828	0.000000	-1.000000	-1.000000	2009692.000000	1773868263.307110
-5563.980000	2743.470000	21130.605000	14244.435000	-16313.670000	-18499.455000	8229.420000	16540.560000	15.833880	13.045025	12.227206	20.228302	18.328325	17.354855	8.320929	-13.992139	-2.731540	5.783540	0.259420	0.818540	0.379455	0.390563	-1.000000	-1.000000	-1.000000	-1.000000	-1.000000	-1.000000	-1.000000	72.344828	0.000000	-1.000000	-1.000000	2009693.000000	1773868263.310914
-5576.670000	2719.260000	21104.505000	14218.650000	-16341.480000	-18542.340000	8220.915000	16584.930000	0.608379	15.912788	20.840098	27.620982	26.614951	24.379137	13.502440	-12.785032	-2.731540	5.783540	0.259420	0.818540	0.379455	0.390563	-1.000000	-1.000000	-1.000000	-1.000000	-1.000000	-1.000000	-1.000000	72.344828	0.000000	-1.000000	-1.000000	2009694.000000	1773868263.310924
-5564.430000	2733.885000	21119.175000	14233.635000	-16321.950000	-18519.255000	8230.275000	16575.120000	-9.949284	10.674610	16.690431	19.215688	19.041046	16.821380	14.193839	6.541068	-2.731540	5.783540	0.259420	0.818540	0.379455	0.390563	-1.000000	-1.000000	-1.000000	-1.000000	-1.000000	-1.000000	-1.000000	72.344828	0.000000	-1.000000	-1.000000	2009695.000000	1773868263.315011
-5563.755000	2766.240000	21163.725000	14281.065000	-16274.565000	-18469.350000	8238.330000	16519.185000	-12.942622	1.298538	4.439137	2.394373	3.279063	1.898337	10.218474	26.080082	-2.731540	5.783540	0.259420	0.818540	0.379455	0.390563	-1.000000	-1.000000	-1.000000	-1.000000	-1.000000	-1.000000	-1.000000	72.344828	0.000000	-1.000000	-1.000000	2009696.000000	1773868263.315021
-5557.590000	2770.605000	21164.985000	14281.020000	-16276.410000	-18472.185000	8222.220000	16518.780000	-10.600600	-5.062584	-5.279335	-9.795558	-7.732387	-8.065745	3.922907	27.833653	-2.731540	5.783540	0.259420	0.818540	0.379455	0.390563	-1.000000	-1.000000	-1.000000	-1.000000	-1.000000	-1.000000	-1.000000	72.344828	0.000000	-1.000000	-1.000000	2009697.000000	1773868263.319013
-5567.490000	2732.535000	21121.290000	14236.110000	-16323.165000	-18528.975000	8194.635000	16552.620000	-6.153398	-6.208952	-7.962970	-11.962724	-9.339022	-8.843028	-3.364421	11.241478	-2.731540	5.783540	0.259420	0.818540	0.379455	0.390563	-1.000000	-1.000000	-1.000000	-1.000000	-1.000000	-1.000000	-1.000000	72.344828	0.000000	-1.000000	-1.000000	2009698.000000	1773868263.319023
-5571.495000	2723.760000	21109.635000	14226.300000	-16326.765000	-18515.565000	8199.855000	16546.140000	-1.298047	-6.185267	-8.162853	-9.608785	-7.418524	-5.979682	-10.618113	-9.165517	-2.731540	5.783540	0.259420	0.818540	0.379455	0.390563	-1.000000	-1.000000	-1.000000	-1.000000	-1.000000	-1.000000	-1.000000	72.344828	0.000000	-1.000000	-1.000000	2009699.000000	1773868263.322746
-5573.880000	2718.945000	21094.605000	14208.660000	-16345.710000	-18528.795000	8202.870000	16515.945000	3.111868	-7.917406	-10.238863	-9.296573	-8.380359	-5.347122	-15.239029	-19.806520	-2.731540	5.783540	0.259420	0.818540	0.379455	0.390563	-1.000000	-1.000000	-1.000000	-1.000000	-1.000000	-1.000000	-1.000000	72.344828	0.000000	-1.000000	-1.000000	2009700.000000	1773868263.322756
-5583.240000	2733.435000	21109.860000	14231.070000	-16321.680000	-18520.740000	8206.200000	16488.945000	6.195488	-9.226692	-12.309655	-10.669935	-11.418778	-7.334276	-15.347671	-19.972262	-2.487380	5.234180	-0.885080	0.822508	0.376830	0.387145	-1.000000	-1.000000	-1.000000	-1.000000	-1.000000	-1.000000	-1.000000	72.344828	0.000000	-1.000000	-1.000000	2009701.000000	1773868263.327863
-5586.615000	2729.520000	21106.125000	14224.230000	-16332.390000	-18525.645000	8189.460000	16500.645000	7.252047	-6.156497	-9.492205	-8.544392	-10.750802	-8.114819	-11.722988	-18.549515	-2.487380	5.234180	-0.885080	0.822508	0.376830	0.387145	-1.000000	-1.000000	-1.000000	-1.000000	-1.000000	-1.000000	-1.000000	72.344828	0.000000	-1.000000	-1.000000	2009702.000000	1773868263.327874
-5584.095000	2721.645000	21097.620000	14213.520000	-16345.170000	-18539.595000	8168.175000	16540.245000	6.305995	1.670702	-0.594634	-0.695314	-3.645823	-4.360146	-6.314296	-19.517067	-2.487380	5.234180	-0.885080	0.822508	0.376830	0.387145	-1.000000	-1.000000	-1.000000	-1.000000	-1.000000	-1.000000	-1.000000	72.344828	0.000000	-1.000000	-1.000000	2009703.000000	1773868263.330829
-5558.040000	2756.520000	21137.805000	14253.030000	-16308.900000	-18527.445000	8162.595000	16485.030000	4.176878	9.921911	9.877725	8.960595	6.200878	2.434352	-0.626323	-17.036115	-2.487380	5.234180	-0.885080	0.822508	0.376830	0.387145	-1.000000	-1.000000	-1.000000	-1.000000	-1.000000	-1.000000	-1.000000	72.344828	0.000000	-1.000000	-1.000000	2009704.000000	1773868263.330840
-5558.625000	2763.855000	21149.325000	14262.210000	-16303.365000	-18537.525000	8183.475000	16431.660000	1.761847	13.963132	16.439956	15.136601	13.308705	7.420378	4.965121	-6.993382	-2.487380	5.234180	-0.885080	0.822508	0.376830	0.387145	-1.000000	-1.000000	-1.000000	-1.000000	-1.000000	-1.000000	-1.000000	72.344828	0.000000	-1.000000	-1.000000	2009705.000000	1773868263.340604
-5572.305000	2734.830000	21119.625000	14233.410000	-16323.885000	-18506.520000	8212.725000	16501.005000	-0.779073	11.918150	16.312468	15.237699	14.824715	8.523377	11.245663	7.296614	-2.487380	5.234180	-0.885080	0.822508	0.376830	0.387145	-1.000000	-1.000000	-1.000000	-1.000000	-1.000000	-1.000000	-1.000000	72.344828	0.000000	-1.000000	-1.000000	2009706.000000	1773868263.340617
-5574.960000	2702.565000	21081.015000	14188.365000	-16373.115000	-18556.650000	8221.185000	16577.325000	-3.444210	4.426724	9.389074	9.164604	10.497547	7.887937	18.092219	21.925558	-2.487380	5.234180	-0.885080	0.822508	0.376830	0.387145	-1.000000	-1.000000	-1.000000	-1.000000	-1.000000	-1.000000	-1.000000	72.344828	0.000000	-1.000000	-1.000000	2009707.000000	1773868263.340630
-5547.690000	2722.185000	21097.620000	14205.375000	-16368.840000	-18573.345000	8211.330000	16529.220000	-4.921381	-5.098654	-1.365042	-0.711958	1.807153	5.992120	21.849635	33.901533	-2.487380	5.234180	-0.885080	0.822508	0.376830	0.387145	-1.000000	-1.000000	-1.000000	-1.000000	-1.000000	-1.000000	-1.000000	72.344828	0.000000	-1.000000	-1.000000	2009708.000000	1773868263.340635
-5578.560000	2703.690000	21087.225000	14207.760000	-16343.100000	-18532.800000	8199.900000	16506.720000	-3.827769	-11.657246	-10.369156	-9.287851	-7.007576	1.658361	17.273679	36.837434	-2.487380	5.234180	-0.885080	0.822508	0.376830	0.387145	-1.000000	-1.000000	-1.000000	-1.000000	-1.000000	-1.000000	-1.000000	72.344828	0.000000	-1.000000	-1.000000	2009709.000000	1773868263.349473
-5577.345000	2707.785000	21087.585000	14208.885000	-16339.320000	-18524.610000	8207.910000	16530.120000	-1.260301	-12.389609	-13.350027	-11.996549	-10.486837	-2.521752	3.764905	25.180585	-2.487380	5.234180	-0.885080	0.822508	0.376830	0.387145	-1.000000	-1.000000	-1.000000	-1.000000	-1.000000	-1.000000	-1.000000	72.344828	0.000000	-1.000000	-1.000000	2009710.000000	1773868263.349483
-5566.680000	2721.060000	21102.075000	14219.640000	-16332.300000	-18520.020000	8206.740000	16550.460000	0.804275	-7.541586	-9.783851	-8.170525	-6.781152	-2.893082	-11.953348	2.201285	-0.412020	5.508860	-2.319520	0.824400	0.375060	0.384826	-1.000000	-1.000000	-1.000000	-1.000000	-1.000000	-1.000000	-1.000000	72.344828	0.000000	-1.000000	-1.000000	2009711.000000	1773868263.349493
-5571.270000	2735.910000	21125.205000	14241.285000	-16317.675000	-18513.450000	8199.225000	16522.695000	1.653293	0.722158	-1.860400	-0.442397	1.014383	0.161766	-21.151208	-21.413295	-0.412020	5.508860	-2.319520	0.824400	0.375060	0.384826	-1.000000	-1.000000	-1.000000	-1.000000	-1.000000	-1.000000	-1.000000	72.344828	0.000000	-1.000000	-1.000000	2009712.000000	1773868263.349499
-5545.575000	2758.725000	21152.655000	14268.735000	-16294.905000	-18494.955000	8215.155000	16532.415000	1.088739	8.364417	6.272518	6.789419	7.437515	3.196779	-20.089830	-34.253060	-0.412020	5.508860	-2.319520	0.824400	0.375060	0.384826	-1.000000	-1.000000	-1.000000	-1.000000	-1.000000	-1.000000	-1.000000	72.344828	0.000000	-1.000000	-1.000000	2009713.000000	1773868263.350856
-5512.230000	2783.880000	21176.370000	14292.225000	-16264.935000	-18480.555000	8242.920000	16538.535000	0.268592	11.924769	10.799784	10.109965	9.072331	3.547405	-11.110157	-30.219270	-0.412020	5.508860	-2.319520	0.824400	0.375060	0.384826	-1.000000	-1.000000	-1.000000	-1.000000	-1.000000	-1.000000	-1.000000	72.344828	0.000000	-1.000000	-1.000000	2009714.000000	1773868263.350867
-5511.195000	2793.690000	21177.270000	14300.370000	-16247.970000	-18434.565000	8214.660000	16430.175000	1.500040	11.709136	11.363074	9.973936	7.574643	2.036755	-0.018526	-15.819620	-0.412020	5.508860	-2.319520	0.824400	0.375060	0.384826	-1.000000	-1.000000	-1.000000	-1.000000	-1.000000	-1.000000	-1.000000	72.344828	0.000000	-1.000000	-1.000000	2009715.000000	1773868263.354963
-5544.315000	2763.945000	21127.320000	14253.705000	-16296.795000	-18486.495000	8175.285000	16387.245000	3.860651	9.234337	8.802313	7.836274	5.559567	1.049839	6.467064	-6.342844	-0.412020	5.508860	-2.319520	0.824400	0.375060	0.384826	-1.000000	-1.000000	-1.000000	-1.000000	-1.000000	-1.000000	-1.000000	72.344828	0.000000	-1.000000	-1.000000	2009716.000000	1773868263.354969
-5594.535000	2708.730000	21068.685000	14193.540000	-16363.575000	-18554.130000	8177.310000	16507.395000	2.524800	3.017644	1.414910	1.611508	0.680894	-1.105595	5.173783	-5.179294	-0.412020	5.508860	-2.319520	0.824400	0.375060	0.384826	-1.000000	-1.000000	-1.000000	-1.000000	-1.000000	-1.000000	-1.000000	72.344828	0.000000	-1.000000	-1.000000	2009717.000000	1773868263.359011
-5643.180000	2668.995000	21042.180000	14163.255000	-16390.530000	-18569.700000	8204.985000	16582.320000	-5.014733	-8.543774	-11.355435	-10.648449	-10.608652	-8.727163	-0.072588	0.966104	-0.412020	5.508860	-2.319520	0.824400	0.375060	0.384826	-1.000000	-1.000000	-1.000000	-1.000000	-1.000000	-1.000000	-1.000000	72.344828	0.000000	-1.000000	-1.000000	2009718.000000	1773868263.359020
-5626.980000	2704.320000	21074.085000	14180.220000	-16361.955000	-18541.530000	8216.370000	16526.610000	-14.469031	-20.895321	-23.198880	-23.672065	-23.859206	-19.182996	-2.376374	17.791291	-0.412020	5.508860	-2.319520	0.824400	0.375060	0.384826	-1.000000	-1.000000	-1.000000	-1.000000	-1.000000	-1.000000	-1.000000	72.344828	0.000000	-1.000000	-1.000000	2009719.000000	1773868263.362895
-5598.315000	2739.735000	21085.605000	14196.690000	-16360.290000	-18577.215000	8214.480000	16526.250000	-17.618086	-24.627559	-24.737116	-27.422351	-28.083507	-23.133582	1.091142	31.930462	-0.412020	5.508860	-2.319520	0.824400	0.375060	0.384826	-1.000000	-1.000000	-1.000000	-1.000000	-1.000000	-1.000000	-1.000000	72.344828	0.000000	-1.000000	-1.000000	2009720.000000	1773868263.362904
-5557.995000	2750.715000	21071.835000	14200.605000	-16358.805000	-18551.295000	8196.030000	16547.175000	-9.419917	-15.035918	-13.824640	-17.518098	-18.064021	-15.688601	7.011130	30.672154	-0.900340	4.745860	-3.570840	0.825132	0.376647	0.386901	-1.000000	-1.000000	-1.000000	-1.000000	-1.000000	-1.000000	-1.000000	72.344828	0.000000	-1.000000	-1.000000	2009721.000000	1773868263.368222
-5549.625000	2729.070000	21087.630000	14230.395000	-16332.255000	-18521.730000	8194.230000	16536.330000	6.702193	1.793089	2.129982	0.569740	0.516113	-0.002821	9.414439	16.182704	-0.900340	4.745860	-3.570840	0.825132	0.376647	0.386901	-1.000000	-1.000000	-1.000000	-1.000000	-1.000000	-1.000000	-1.000000	72.344828	0.000000	-1.000000	-1.000000	2009722.000000	1773868263.368232
-5561.145000	2709.945000	21131.595000	14262.255000	-16295.175000	-18503.730000	8196.660000	16508.295000	20.607694	14.484475	15.140869	18.019319	18.373373	16.967396	5.352996	-2.436233	-0.900340	4.745860	-3.570840	0.825132	0.376647	0.386901	-1.000000	-1.000000	-1.000000	-1.000000	-1.000000	-1.000000	-1.000000	72.344828	0.000000	-1.000000	-1.000000	2009723.000000	1773868263.370911
-5560.650000	2727.090000	21152.880000	14249.385000	-16307.595000	-18504.090000	8192.970000	16496.190000	23.811491	17.085173	23.160306	28.809544	29.267416	27.814059	-1.911945	-17.066240	-0.900340	4.745860	-3.570840	0.825132	0.376647	0.386901	-1.000000	-1.000000	-1.000000	-1.000000	-1.000000	-1.000000	-1.000000	72.344828	0.000000	-1.000000	-1.000000	2009724.000000	1773868263.370917
-5574.330000	2742.705000	21144.285000	14246.055000	-16315.065000	-18513.540000	8195.760000	16512.255000	16.149126	13.121963	26.845212	30.281795	30.724320	28.762179	-6.212716	-22.272874	-0.900340	4.745860	-3.570840	0.825132	0.376647	0.386901	-1.000000	-1.000000	-1.000000	-1.000000	-1.000000	-1.000000	-1.000000	72.344828	0.000000	-1.000000	-1.000000	2009725.000000	1773868263.374868
-5582.835000	2739.420000	21130.875000	14247.315000	-16306.245000	-18502.470000	8190.135000	16500.420000	4.277964	9.645981	25.167188	23.151324	23.771351	21.631899	-5.056393	-19.361110	-0.900340	4.745860	-3.570840	0.825132	0.376647	0.386901	-1.000000	-1.000000	-1.000000	-1.000000	-1.000000	-1.000000	-1.000000	72.344828	0.000000	-1.000000	-1.000000	2009726.000000	1773868263.374878
-5577.390000	2727.585000	21123.315000	14241.780000	-16312.770000	-18509.265000	8180.775000	16445.295000	-4.675807	8.899763	16.161843	10.645266	11.551081	10.100529	-1.660821	-15.614087	-0.900340	4.745860	-3.570840	0.825132	0.376647	0.386901	-1.000000	-1.000000	-1.000000	-1.000000	-1.000000	-1.000000	-1.000000	72.344828	0.000000	-1.000000	-1.000000	2009727.000000	1773868263.378907
-5629.320000	2730.645000	21134.970000	14254.605000	-16302.420000	-18502.245000	8201.430000	16451.055000	-9.060549	6.781279	0.209352	-3.848513	-2.986876	-3.129657	0.052293	-14.386598	-0.900340	4.745860	-3.570840	0.825132	0.376647	0.386901	-1.000000	-1.000000	-1.000000	-1.000000	-1.000000	-1.000000	-1.000000	72.344828	0.000000	-1.000000	-1.000000	2009728.000000	1773868263.378917
-5628.645000	2712.330000	21109.230000	14223.330000	-16333.065000	-18531.090000	8206.875000	16530.525000	-12.610664	-1.059613	-18.103135	-17.453585	-16.963251	-15.192158	0.315090	-10.102141	-0.900340	4.745860	-3.570840	0.825132	0.376647	0.386901	-1.000000	-1.000000	-1.000000	-1.000000	-1.000000	-1.000000	-1.000000	72.344828	0.000000	-1.000000	-1.000000	2009729.000000	1773868263.382955
-5561.595000	2740.185000	21123.405000	14235.705000	-16322.490000	-18519.120000	8200.395000	16510.635000	-16.347599	-12.721226	-31.539189	-27.276920	-26.928558	-23.220655	1.241098	2.819176	-0.900340	4.745860	-3.570840	0.825132	0.376647	0.386901	-1.000000	-1.000000	-1.000000	-1.000000	-1.000000	-1.000000	-1.000000	72.344828	0.000000	-1.000000	-1.000000	2009730.000000	1773868263.382960
-5505.840000	2783.070000	21156.210000	14263.290000	-16301.385000	-18489.870000	8207.010000	16497.180000	-14.620256	-19.807438	-33.868497	-29.947097	-29.528435	-25.141455	2.632389	19.744785	-3.433500	4.440660	-2.258480	0.821958	0.379027	0.388549	-1.000000	-1.000000	-1.000000	-1.000000	-1.000000	-1.000000	-1.000000	72.344828	0.000000	-1.000000	-1.000000	2009731.000000	1773868263.386994
-5515.470000	2779.605000	21157.380000	14258.565000	-16311.465000	-18490.455000	8218.710000	16497.045000	-3.493166	-15.387744	-23.823803	-23.147655	-23.279166	-19.771746	3.115203	30.346145	-3.433500	4.440660	-2.258480	0.821958	0.379027	0.388549	-1.000000	-1.000000	-1.000000	-1.000000	-1.000000	-1.000000	-1.000000	72.344828	0.000000	-1.000000	-1.000000	2009732.000000	1773868263.387004
-5560.875000	2755.620000	21137.985000	14247.540000	-16301.970000	-18477.990000	8223.480000	16474.545000	11.037163	-2.648051	-6.669670	-8.593809	-9.858858	-8.122222	2.783799	28.946494	-3.433500	4.440660	-2.258480	0.821958	0.379027	0.388549	-1.000000	-1.000000	-1.000000	-1.000000	-1.000000	-1.000000	-1.000000	72.344828	0.000000	-1.000000	-1.000000	2009733.000000	1773868263.390994
-5602.095000	2737.035000	21128.445000	14255.595000	-16304.805000	-18564.030000	8200.395000	16441.830000	17.981989	8.129944	9.664977	8.240849	6.625373	5.141077	1.924969	15.487802	-3.433500	4.440660	-2.258480	0.821958	0.379027	0.388549	-1.000000	-1.000000	-1.000000	-1.000000	-1.000000	-1.000000	-1.000000	72.344828	0.000000	-1.000000	-1.000000	2009734.000000	1773868263.391003
-5601.690000	2705.130000	21079.440000	14193.135000	-16381.980000	-18604.665000	8208.585000	16501.680000	12.786187	10.139265	19.183962	20.367103	19.326543	12.261271	-0.225172	-4.673505	-3.433500	4.440660	-2.258480	0.821958	0.379027	0.388549	-1.000000	-1.000000	-1.000000	-1.000000	-1.000000	-1.000000	-1.000000	72.344828	0.000000	-1.000000	-1.000000	2009735.000000	1773868263.395024
-5566.095000	2695.725000	21071.655000	14187.285000	-16357.230000	-18518.715000	8214.885000	16589.655000	1.340197	4.112525	18.949251	21.810568	21.244490	10.264601	-3.362055	-18.538291	-3.433500	4.440660	-2.258480	0.821958	0.379027	0.388549	-1.000000	-1.000000	-1.000000	-1.000000	-1.000000	-1.000000	-1.000000	72.344828	0.000000	-1.000000	-1.000000	2009736.000000	1773868263.395030
-5593.230000	2701.620000	21108.105000	14207.805000	-16345.935000	-18529.065000	8189.145000	16529.085000	-6.759110	-4.474373	11.055926	12.884770	13.080808	6.118207	-6.026999	-16.795752	-3.433500	4.440660	-2.258480	0.821958	0.379027	0.388549	-1.000000	-1.000000	-1.000000	-1.000000	-1.000000	-1.000000	-1.000000	72.344828	0.000000	-1.000000	-1.000000	2009737.000000	1773868263.400360
-5603.805000	2703.780000	21109.500000	14204.880000	-16348.275000	-18520.155000	8174.115000	16524.720000	-8.340908	-9.378604	2.726307	1.331451	3.019342	6.551853	-7.663829	-6.977412	-3.433500	4.440660	-2.258480	0.821958	0.379027	0.388549	-1.000000	-1.000000	-1.000000	-1.000000	-1.000000	-1.000000	-1.000000	72.344828	0.000000	-1.000000	-1.000000	2009738.000000	1773868263.400369
-5604.750000	2717.100000	21081.510000	14216.715000	-16333.830000	-18531.180000	8171.235000	16525.710000	-8.027174	-7.747019	-1.280178	-5.583195	-2.711128	9.356633	-7.888745	-1.749895	-3.433500	4.440660	-2.258480	0.821958	0.379027	0.388549	-1.000000	-1.000000	-1.000000	-1.000000	-1.000000	-1.000000	-1.000000	72.344828	0.000000	-1.000000	-1.000000	2009739.000000	1773868263.403093
-5551.965000	2718.225000	21076.470000	14217.345000	-16341.570000	-18547.785000	8186.805000	16537.995000	-8.935285	-1.542170	-3.152348	-6.710942	-3.955826	8.159839	-5.586525	-2.606417	-3.433500	4.440660	-2.258480	0.821958	0.379027	0.388549	-1.000000	-1.000000	-1.000000	-1.000000	-1.000000	-1.000000	-1.000000	72.344828	0.000000	-1.000000	-1.000000	2009740.000000	1773868263.403103
-5518.170000	2729.970000	21126.780000	14231.430000	-16332.120000	-18532.035000	8206.020000	16541.955000	-6.864816	5.545804	-4.856790	-4.026276	-3.002243	0.881400	-0.129119	-3.655113	-3.296160	4.562740	-3.341940	0.821287	0.380797	0.390868	-1.000000	-1.000000	-1.000000	-1.000000	-1.000000	-1.000000	-1.000000	72.344828	0.000000	-1.000000	-1.000000	2009741.000000	1773868263.406863
-5558.940000	2744.820000	21153.510000	14257.395000	-16294.995000	-18479.115000	8206.380000	16545.645000	2.495161	11.350976	-3.011311	1.119875	-0.680412	-6.565138	7.279481	-1.221098	-3.296160	4.562740	-3.341940	0.821287	0.380797	0.390868	-1.000000	-1.000000	-1.000000	-1.000000	-1.000000	-1.000000	-1.000000	72.344828	0.000000	-1.000000	-1.000000	2009742.000000	1773868263.406873
-5582.475000	2738.655000	21138.930000	14237.190000	-16321.230000	-18516.735000	8201.160000	16509.735000	14.703581	14.960100	4.535214	7.091476	3.157990	-6.082394	13.377797	2.864831	-3.296160	4.562740	-3.341940	0.821287	0.380797	0.390868	-1.000000	-1.000000	-1.000000	-1.000000	-1.000000	-1.000000	-1.000000	72.344828	0.000000	-1.000000	-1.000000	2009743.000000	1773868263.410720
-5594.220000	2703.870000	21078.045000	14198.265000	-16357.725000	-18549.045000	8207.280000	16505.190000	19.980979	14.623061	12.391246	10.352528	6.485839	1.226531	14.553524	3.103559	-3.296160	4.562740	-3.341940	0.821287	0.380797	0.390868	-1.000000	-1.000000	-1.000000	-1.000000	-1.000000	-1.000000	-1.000000	72.344828	0.000000	-1.000000	-1.000000	2009744.000000	1773868263.410728
-5567.895000	2700.045000	21061.710000	14201.505000	-16350.255000	-18542.880000	8205.075000	16509.645000	13.791403	8.230304	11.810931	7.422944	5.347013	5.140238	9.669844	-2.982087	-3.296160	4.562740	-3.341940	0.821287	0.380797	0.390868	-1.000000	-1.000000	-1.000000	-1.000000	-1.000000	-1.000000	-1.000000	72.344828	0.000000	-1.000000	-1.000000	2009745.000000	1773868263.416293
-5580.315000	2709.855000	21092.175000	14212.260000	-16350.570000	-18538.695000	8201.070000	16495.695000	1.085865	-2.957368	0.668112	-1.116108	-1.171644	0.220950	1.338832	-10.333503	-3.296160	4.562740	-3.341940	0.821287	0.380797	0.390868	-1.000000	-1.000000	-1.000000	-1.000000	-1.000000	-1.000000	-1.000000	72.344828	0.000000	-1.000000	-1.000000	2009746.000000	1773868263.416304
-5598.900000	2714.895000	21104.820000	14225.760000	-16326.540000	-18525.330000	8188.605000	16455.960000	-10.370161	-13.516761	-12.819886	-9.972116	-8.654295	-8.223635	-6.152332	-12.101046	-3.296160	4.562740	-3.341940	0.821287	0.380797	0.390868	-1.000000	-1.000000	-1.000000	-1.000000	-1.000000	-1.000000	-1.000000	72.344828	0.000000	-1.000000	-1.000000	2009747.000000	1773868263.418817
-5602.770000	2728.260000	21115.035000	14235.795000	-16316.595000	-18515.880000	8190.765000	16447.410000	-17.170421	-18.232294	-18.238995	-13.777972	-11.670463	-12.215945	-10.199104	-7.124935	-3.296160	4.562740	-3.341940	0.821287	0.380797	0.390868	-1.000000	-1.000000	-1.000000	-1.000000	-1.000000	-1.000000	-1.000000	72.344828	0.000000	-1.000000	-1.000000	2009748.000000	1773868263.418833
-5570.280000	2758.095000	21140.595000	14262.300000	-16293.240000	-18492.120000	8217.180000	16501.635000	-18.863453	-15.101244	-12.546043	-10.811837	-8.187965	-8.344170	-10.419887	1.970339	-3.296160	4.562740	-3.341940	0.821287	0.380797	0.390868	-1.000000	-1.000000	-1.000000	-1.000000	-1.000000	-1.000000	-1.000000	72.344828	0.000000	-1.000000	-1.000000	2009749.000000	1773868263.423004
-5520.555000	2776.455000	21149.955000	14271.255000	-16290.090000	-18490.140000	8214.660000	16553.475000	-13.736697	-5.411454	-0.986208	-2.912382	-0.406301	0.726936	-7.393645	13.427183	-3.296160	4.562740	-3.341940	0.821287	0.380797	0.390868	-1.000000	-1.000000	-1.000000	-1.000000	-1.000000	-1.000000	-1.000000	72.344828	0.000000	-1.000000	-1.000000	2009750.000000	1773868263.423011
-5548.365000	2758.680000	21131.145000	14250.060000	-16310.565000	-18507.150000	8170.380000	16457.220000	-0.533104	6.024371	8.286882	5.195940	6.336789	8.571788	-3.120775	23.357681	-5.691980	5.173140	-2.517900	0.821775	0.383849	0.389525	-1.000000	-1.000000	-1.000000	-1.000000	-1.000000	-1.000000	-1.000000	72.344828	0.000000	-1.000000	-1.000000	2009751.000000	1773868263.432600
-5589.180000	2745.405000	21128.535000	14246.055000	-16316.505000	-18517.230000	8185.905000	16390.620000	15.182763	12.986449	10.876451	9.060119	8.090864	10.854483	-0.369569	22.892277	-5.691980	5.173140	-2.517900	0.821775	0.383849	0.389525	-1.000000	-1.000000	-1.000000	-1.000000	-1.000000	-1.000000	-1.000000	72.344828	0.000000	-1.000000	-1.000000	2009752.000000	1773868263.432610
-5593.545000	2735.460000	21129.570000	14249.430000	-16309.440000	-18494.460000	8230.545000	16427.565000	22.589405	12.527462	8.742775	8.440293	5.906719	8.278825	1.013847	7.887489	-5.691980	5.173140	-2.517900	0.821775	0.383849	0.389525	-1.000000	-1.000000	-1.000000	-1.000000	-1.000000	-1.000000	-1.000000	72.344828	0.000000	-1.000000	-1.000000	2009753.000000	1773868263.433838
-5586.255000	2707.470000	21102.705000	14219.370000	-16331.535000	-18520.200000	8219.970000	16533.225000	16.594188	5.878253	5.061368	4.983258	2.334301	3.340646	3.682554	-10.818928	-5.691980	5.173140	-2.517900	0.821775	0.383849	0.389525	-1.000000	-1.000000	-1.000000	-1.000000	-1.000000	-1.000000	-1.000000	72.344828	0.000000	-1.000000	-1.000000	2009754.000000	1773868263.433844
-5579.235000	2690.910000	21097.845000	14194.530000	-16357.680000	-18545.805000	8187.570000	16544.745000	2.769557	-4.051913	-0.403348	-1.253425	-2.333307	-2.912711	7.250078	-16.452068	-5.691980	5.173140	-2.517900	0.821775	0.383849	0.389525	-1.000000	-1.000000	-1.000000	-1.000000	-1.000000	-1.000000	-1.000000	72.344828	0.000000	-1.000000	-1.000000	2009755.000000	1773868263.434955
-5571.000000	2711.565000	21101.400000	14216.310000	-16329.915000	-18513.630000	8194.050000	16540.155000	-9.019862	-12.991095	-7.551223	-9.080411	-7.787214	-9.279590	8.090638	-5.137800	-5.691980	5.173140	-2.517900	0.821775	0.383849	0.389525	-1.000000	-1.000000	-1.000000	-1.000000	-1.000000	-1.000000	-1.000000	72.344828	0.000000	-1.000000	-1.000000	2009756.000000	1773868263.434965
-5506.110000	2790.405000	21122.550000	14262.705000	-16303.635000	-18513.360000	8208.765000	16509.960000	-12.363650	-14.997331	-12.580808	-13.409481	-10.733117	-12.263801	4.772399	10.419112	-5.691980	5.173140	-2.517900	0.821775	0.383849	0.389525	-1.000000	-1.000000	-1.000000	-1.000000	-1.000000	-1.000000	-1.000000	72.344828	0.000000	-1.000000	-1.000000	2009757.000000	1773868263.438931
-5540.760000	2765.385000	21130.110000	14254.605000	-16306.515000	-18521.370000	8211.465000	16538.130000	-7.910292	-7.213040	-11.831272	-9.809655	-7.864038	-9.668559	-0.685664	14.668486	-5.691980	5.173140	-2.517900	0.821775	0.383849	0.389525	-1.000000	-1.000000	-1.000000	-1.000000	-1.000000	-1.000000	-1.000000	72.344828	0.000000	-1.000000	-1.000000	2009758.000000	1773868263.438950
-5587.605000	2681.235000	21073.950000	14186.790000	-16370.325000	-18563.355000	8190.270000	16572.420000	-2.672195	3.887610	-6.390798	-1.244922	-1.370410	-4.072125	-5.420324	4.468102	-5.691980	5.173140	-2.517900	0.821775	0.383849	0.389525	-1.000000	-1.000000	-1.000000	-1.000000	-1.000000	-1.000000	-1.000000	72.344828	0.000000	-1.000000	-1.000000	2009759.000000	1773868263.442772
-5586.300000	2699.325000	21079.440000	14196.195000	-16353.495000	-18556.065000	8191.710000	16522.560000	-1.995965	8.457806	-0.403403	5.059218	3.501452	0.981229	-7.111069	-9.359280	-5.691980	5.173140	-2.517900	0.821775	0.383849	0.389525	-1.000000	-1.000000	-1.000000	-1.000000	-1.000000	-1.000000	-1.000000	72.344828	0.000000	-1.000000	-1.000000	2009760.000000	1773868263.442780
-5589.315000	2705.085000	21085.110000	14203.080000	-16354.620000	-18551.655000	8188.695000	16507.125000	-3.301933	5.835942	4.451189	6.938679	5.602834	5.028956	-5.479547	-16.009163	-2.517900	6.317640	-1.617560	0.821409	0.384398	0.387877	-1.000000	-1.000000	-1.000000	-1.000000	-1.000000	-1.000000	-1.000000	72.344828	0.000000	-1.000000	-1.000000	2009761.000000	1773868263.446874
-5607.405000	2686.995000	21078.675000	14200.920000	-16353.630000	-18538.380000	8194.905000	16529.130000	-2.270980	2.569811	8.922713	7.226092	6.863415	8.567471	-2.825667	-15.074676	-2.517900	6.317640	-1.617560	0.821409	0.384398	0.387877	-1.000000	-1.000000	-1.000000	-1.000000	-1.000000	-1.000000	-1.000000	72.344828	0.000000	-1.000000	-1.000000	2009762.000000	1773868263.446883
-5594.490000	2681.505000	21080.700000	14206.095000	-16343.010000	-18534.645000	8194.185000	16545.465000	0.856207	2.242697	12.244664	7.837652	8.020925	11.119243	-0.648813	-11.763323	-2.517900	6.317640	-1.617560	0.821409	0.384398	0.387877	-1.000000	-1.000000	-1.000000	-1.000000	-1.000000	-1.000000	-1.000000	72.344828	0.000000	-1.000000	-1.000000	2009763.000000	1773868263.450949
-5561.145000	2703.555000	21091.770000	14212.260000	-16341.660000	-18541.125000	8193.060000	16528.230000	4.379348	4.014520	12.502166	8.446623	8.593875	11.657062	2.005148	-8.582321	-2.517900	6.317640	-1.617560	0.821409	0.384398	0.387877	-1.000000	-1.000000	-1.000000	-1.000000	-1.000000	-1.000000	-1.000000	72.344828	0.000000	-1.000000	-1.000000	2009764.000000	1773868263.450956
-5564.880000	2718.090000	21097.710000	14215.635000	-16342.695000	-18546.705000	8197.605000	16511.580000	7.264005	5.392595	8.965248	7.042538	6.803343	8.342629	5.215102	-4.442158	-2.517900	6.317640	-1.617560	0.821409	0.384398	0.387877	-1.000000	-1.000000	-1.000000	-1.000000	-1.000000	-1.000000	-1.000000	72.344828	0.000000	-1.000000	-1.000000	2009765.000000	1773868263.454899
-5580.855000	2726.595000	21100.050000	14221.035000	-16341.930000	-18566.595000	8206.785000	16508.025000	6.889512	3.558442	2.273336	1.605634	1.007175	0.427111	6.760282	1.227647	-2.517900	6.317640	-1.617560	0.821409	0.384398	0.387877	-1.000000	-1.000000	-1.000000	-1.000000	-1.000000	-1.000000	-1.000000	72.344828	0.000000	-1.000000	-1.000000	2009766.000000	1773868263.454910
-5578.515000	2730.825000	21095.145000	14226.120000	-16324.965000	-18510.480000	8207.595000	16507.305000	2.003592	-1.084858	-5.447441	-5.965652	-6.363095	-8.231422	5.229017	6.251503	-2.517900	6.317640	-1.617560	0.821409	0.384398	0.387877	-1.000000	-1.000000	-1.000000	-1.000000	-1.000000	-1.000000	-1.000000	72.344828	0.000000	-1.000000	-1.000000	2009767.000000	1773868263.458989
-5569.740000	2740.005000	21108.420000	14240.385000	-16309.755000	-18499.770000	8213.535000	16506.180000	-2.948441	-3.590168	-10.100494	-9.707881	-9.269176	-10.473455	2.195381	8.602614	-2.517900	6.317640	-1.617560	0.821409	0.384398	0.387877	-1.000000	-1.000000	-1.000000	-1.000000	-1.000000	-1.000000	-1.000000	72.344828	0.000000	-1.000000	-1.000000	2009768.000000	1773868263.458997
-5554.080000	2745.405000	21121.920000	14246.550000	-16308.540000	-18505.755000	8216.100000	16508.880000	-2.644603	-1.010186	-8.445282	-6.128836	-4.855391	-4.038245	0.002416	9.954395	-2.517900	6.317640	-1.617560	0.821409	0.384398	0.387877	-1.000000	-1.000000	-1.000000	-1.000000	-1.000000	-1.000000	-1.000000	72.344828	0.000000	-1.000000	-1.000000	2009769.000000	1773868263.462936
-5556.420000	2758.995000	21146.040000	14262.885000	-16295.625000	-18492.300000	8227.935000	16506.000000	2.504558	3.610102	-1.702216	1.485168	2.755245	4.629903	-1.077981	12.092617	-2.517900	6.317640	-1.617560	0.821409	0.384398	0.387877	-1.000000	-1.000000	-1.000000	-1.000000	-1.000000	-1.000000	-1.000000	72.344828	0.000000	-1.000000	-1.000000	2009770.000000	1773868263.462947
-5544.990000	2784.735000	21175.020000	14289.795000	-16268.490000	-18465.345000	8245.080000	16492.860000	7.538088	6.344961	5.964869	7.498925	7.709209	8.304696	-1.727873	11.814485	-1.709120	5.966660	-1.022420	0.822691	0.381713	0.386107	-1.000000	-1.000000	-1.000000	-1.000000	-1.000000	-1.000000	-1.000000	72.344828	0.000000	-1.000000	-1.000000	2009771.000000	1773868263.467007
-5562.855000	2751.840000	21143.250000	14256.675000	-16303.365000	-18500.715000	8210.520000	16499.070000	7.574292	5.549624	10.069244	8.545596	7.250305	5.390911	-2.153166	5.429636	-1.709120	5.966660	-1.022420	0.822691	0.381713	0.386107	-1.000000	-1.000000	-1.000000	-1.000000	-1.000000	-1.000000	-1.000000	72.344828	0.000000	-1.000000	-1.000000	2009772.000000	1773868263.467017
-5606.370000	2701.845000	21088.080000	14203.215000	-16356.645000	-18553.680000	8168.130000	16490.610000	0.215132	-0.736704	6.190345	2.598208	0.357847	-2.839272	-3.629493	-4.250515	-1.709120	5.966660	-1.022420	0.822691	0.381713	0.386107	-1.000000	-1.000000	-1.000000	-1.000000	-1.000000	-1.000000	-1.000000	72.344828	0.000000	-1.000000	-1.000000	2009773.000000	1773868263.470848
-5602.275000	2721.105000	21105.855000	14224.140000	-16335.405000	-18534.150000	8167.455000	16453.305000	-12.331275	-12.756960	-6.106603	-9.483940	-11.238217	-13.302048	-7.523097	-11.052206	-1.709120	5.966660	-1.022420	0.822691	0.381713	0.386107	-1.000000	-1.000000	-1.000000	-1.000000	-1.000000	-1.000000	-1.000000	72.344828	0.000000	-1.000000	-1.000000	2009774.000000	1773868263.470857
-5572.080000	2729.295000	21109.455000	14227.380000	-16333.110000	-18532.710000	8180.955000	16451.145000	-21.731512	-23.772219	-19.172682	-20.470854	-20.369173	-19.489353	-11.462711	-12.608073	-1.709120	5.966660	-1.022420	0.822691	0.381713	0.386107	-1.000000	-1.000000	-1.000000	-1.000000	-1.000000	-1.000000	-1.000000	72.344828	0.000000	-1.000000	-1.000000	2009775.000000	1773868263.475106
-5590.035000	2705.445000	21086.055000	14196.825000	-16361.595000	-18558.990000	8197.020000	16529.895000	-19.465398	-24.473414	-23.148467	-21.982620	-20.023583	-16.961720	-10.323705	-9.084660	-1.709120	5.966660	-1.022420	0.822691	0.381713	0.386107	-1.000000	-1.000000	-1.000000	-1.000000	-1.000000	-1.000000	-1.000000	72.344828	0.000000	-1.000000	-1.000000	2009776.000000	1773868263.475116
-5582.025000	2730.825000	21103.830000	14203.665000	-16354.755000	-18549.540000	8197.560000	16538.085000	-5.968195	-12.631256	-15.188332	-12.808120	-10.362661	-7.801714	-2.110351	0.266108	-1.709120	5.966660	-1.022420	0.822691	0.381713	0.386107	-1.000000	-1.000000	-1.000000	-1.000000	-1.000000	-1.000000	-1.000000	72.344828	0.000000	-1.000000	-1.000000	2009777.000000	1773868263.478938
-5552.685000	2750.580000	21110.625000	14206.410000	-16349.895000	-18538.965000	8187.345000	16538.445000	10.508228	5.911765	-0.175694	1.588798	3.220103	3.643013	8.833875	12.664830	-1.709120	5.966660	-1.022420	0.822691	0.381713	0.386107	-1.000000	-1.000000	-1.000000	-1.000000	-1.000000	-1.000000	-1.000000	72.344828	0.000000	-1.000000	-1.000000	2009778.000000	1773868263.478948
-5513.805000	2770.740000	21119.490000	14251.275000	-16309.845000	-18503.550000	8199.675000	16549.425000	22.404375	22.537427	14.000015	14.753947	15.210681	13.940496	15.501359	20.075440	-1.709120	5.966660	-1.022420	0.822691	0.381713	0.386107	-1.000000	-1.000000	-1.000000	-1.000000	-1.000000	-1.000000	-1.000000	72.344828	0.000000	-1.000000	-1.000000	2009779.000000	1773868263.483034
-5522.940000	2743.875000	21100.095000	14275.890000	-16288.740000	-18473.940000	8191.755000	16441.695000	25.951023	29.753987	20.716933	22.878934	22.289965	20.596027	14.565303	15.359396	-1.709120	5.966660	-1.022420	0.822691	0.381713	0.386107	-1.000000	-1.000000	-1.000000	-1.000000	-1.000000	-1.000000	-1.000000	72.344828	0.000000	-1.000000	-1.000000	2009780.000000	1773868263.483043
-5556.330000	2747.025000	21116.295000	14277.105000	-16279.065000	-18469.575000	8201.385000	16403.535000	19.599705	24.685042	18.546945	25.047280	23.717750	22.741932	8.619566	-2.486047	-0.595140	6.149780	-0.412020	0.822996	0.381591	0.386168	-1.000000	-1.000000	-1.000000	-1.000000	-1.000000	-1.000000	-1.000000	72.344828	0.000000	-1.000000	-1.000000	2009781.000000	1773868263.487016
-5595.390000	2739.375000	21132.090000	14246.235000	-16333.920000	-18539.100000	8202.960000	16532.460000	4.685558	11.074123	11.988964	20.915246	19.325232	19.392084	2.858188	-22.817646	-0.595140	6.149780	-0.412020	0.822996	0.381591	0.386168	-1.000000	-1.000000	-1.000000	-1.000000	-1.000000	-1.000000	-1.000000	72.344828	0.000000	-1.000000	-1.000000	2009782.000000	1773868263.487028
-5608.755000	2739.060000	21128.670000	14214.375000	-16372.755000	-18588.420000	8191.980000	16552.530000	-13.506961	-4.377446	5.674760	9.284056	7.475373	7.723539	-0.449130	-27.255129	-0.595140	6.149780	-0.412020	0.822996	0.381591	0.386168	-1.000000	-1.000000	-1.000000	-1.000000	-1.000000	-1.000000	-1.000000	72.344828	0.000000	-1.000000	-1.000000	2009783.000000	1773868263.492268
-5588.055000	2719.485000	21090.105000	14185.620000	-16378.155000	-18596.475000	8193.060000	16535.880000	-26.938386	-16.245099	-0.223541	-8.448074	-10.509412	-11.411877	-3.133858	-10.732037	-0.595140	6.149780	-0.412020	0.822996	0.381591	0.386168	-1.000000	-1.000000	-1.000000	-1.000000	-1.000000	-1.000000	-1.000000	72.344828	0.000000	-1.000000	-1.000000	2009784.000000	1773868263.492278
-5552.865000	2689.335000	21065.220000	14173.290000	-16385.490000	-18587.295000	8189.055000	16528.905000	-27.779595	-21.395048	-7.146649	-24.972751	-26.078001	-28.471992	-6.798223	10.868914	-0.595140	6.149780	-0.412020	0.822996	0.381591	0.386168	-1.000000	-1.000000	-1.000000	-1.000000	-1.000000	-1.000000	-1.000000	72.344828	0.000000	-1.000000	-1.000000	2009785.000000	1773868263.494738
-5596.245000	2701.980000	21071.880000	14201.505000	-16351.830000	-18544.005000	8202.870000	16508.205000	-15.033421	-19.665703	-14.151232	-31.153529	-29.562293	-31.766313	-9.960119	19.883261	-0.595140	6.149780	-0.412020	0.822996	0.381591	0.386168	-1.000000	-1.000000	-1.000000	-1.000000	-1.000000	-1.000000	-1.000000	72.344828	0.000000	-1.000000	-1.000000	2009786.000000	1773868263.494744
-5617.080000	2725.200000	21094.380000	14238.360000	-16303.140000	-18499.185000	8200.350000	16501.995000	1.706525	-12.698925	-17.554349	-22.941452	-18.269639	-17.881458	-9.924048	12.654678	-0.595140	6.149780	-0.412020	0.822996	0.381591	0.386168	-1.000000	-1.000000	-1.000000	-1.000000	-1.000000	-1.000000	-1.000000	72.344828	0.000000	-1.000000	-1.000000	2009787.000000	1773868263.498765
-5614.605000	2724.975000	21098.925000	14233.995000	-16320.555000	-18520.110000	8204.940000	16499.250000	11.066187	-2.409999	-13.932552	-4.952504	1.241538	4.726557	-6.131496	-2.095738	-0.595140	6.149780	-0.412020	0.822996	0.381591	0.386168	-1.000000	-1.000000	-1.000000	-1.000000	-1.000000	-1.000000	-1.000000	72.344828	0.000000	-1.000000	-1.000000	2009788.000000	1773868263.498772
-5588.055000	2734.785000	21119.085000	14244.030000	-16309.980000	-18506.340000	8189.370000	16503.480000	11.361175	8.569875	-3.567930	12.370653	17.115447	21.807834	-0.638397	-11.438463	-0.595140	6.149780	-0.412020	0.822996	0.381591	0.386168	-1.000000	-1.000000	-1.000000	-1.000000	-1.000000	-1.000000	-1.000000	72.344828	0.000000	-1.000000	-1.000000	2009789.000000	1773868263.502963
-5558.805000	2732.310000	21124.845000	14250.960000	-16298.685000	-18495.135000	8186.760000	16491.285000	9.896377	16.957577	9.158221	21.366694	22.042633	25.595479	3.911290	-8.920725	-0.595140	6.149780	-0.412020	0.822996	0.381591	0.386168	-1.000000	-1.000000	-1.000000	-1.000000	-1.000000	-1.000000	-1.000000	72.344828	0.000000	-1.000000	-1.000000	2009790.000000	1773868263.502973
-5569.785000	2725.245000	21129.300000	14250.780000	-16303.770000	-18504.495000	8187.570000	16475.445000	12.462673	19.407698	17.812271	21.385896	17.941250	19.414710	5.942606	-1.031507	-1.831200	6.104000	-1.083460	0.822447	0.380553	0.388305	-1.000000	-1.000000	-1.000000	-1.000000	-1.000000	-1.000000	-1.000000	72.344828	0.000000	-1.000000	-1.000000	2009791.000000	1773868263.506974
-5567.130000	2728.305000	21138.300000	14241.645000	-16320.870000	-18505.665000	8180.010000	16439.085000	16.267368	14.415060	18.157448	15.423070	10.008855	10.092467	5.435051	1.611141	-1.831200	6.104000	-1.083460	0.822447	0.380553	0.388305	-1.000000	-1.000000	-1.000000	-1.000000	-1.000000	-1.000000	-1.000000	72.344828	0.000000	-1.000000	-1.000000	2009792.000000	1773868263.506980
-5632.875000	2716.830000	21145.455000	14237.235000	-16314.930000	-18488.790000	8196.165000	16420.500000	13.434535	4.746512	11.884603	6.881426	1.417867	1.403434	3.453062	-3.302759	-1.831200	6.104000	-1.083460	0.822447	0.380553	0.388305	-1.000000	-1.000000	-1.000000	-1.000000	-1.000000	-1.000000	-1.000000	72.344828	0.000000	-1.000000	-1.000000	2009793.000000	1773868263.510825
-5611.230000	2721.960000	21123.405000	14231.295000	-16325.820000	-18513.720000	8215.920000	16486.245000	0.375872	-4.399478	3.583968	-1.674968	-6.297957	-6.170496	1.708364	-8.667406	-1.831200	6.104000	-1.083460	0.822447	0.380553	0.388305	-1.000000	-1.000000	-1.000000	-1.000000	-1.000000	-1.000000	-1.000000	72.344828	0.000000	-1.000000	-1.000000	2009794.000000	1773868263.510830
-5543.865000	2700.765000	21046.185000	14192.595000	-16365.420000	-18561.555000	8206.515000	16589.655000	-15.077634	-10.178230	-5.655929	-9.853730	-13.132517	-14.537327	1.240739	-4.296770	-1.831200	6.104000	-1.083460	0.822447	0.380553	0.388305	-1.000000	-1.000000	-1.000000	-1.000000	-1.000000	-1.000000	-1.000000	72.344828	0.000000	-1.000000	-1.000000	2009795.000000	1773868263.514952
-5551.290000	2694.060000	21057.705000	14185.440000	-16379.730000	-18567.315000	8194.095000	16558.065000	-20.182816	-13.239844	-16.747987	-18.193667	-19.848491	-24.398249	0.875627	12.101885	-1.831200	6.104000	-1.083460	0.822447	0.380553	0.388305	-1.000000	-1.000000	-1.000000	-1.000000	-1.000000	-1.000000	-1.000000	72.344828	0.000000	-1.000000	-1.000000	2009796.000000	1773868263.514962
-5575.680000	2704.680000	21097.980000	14209.335000	-16355.250000	-18545.130000	8187.480000	16513.245000	-12.781865	-13.942136	-25.011216	-23.789547	-23.612772	-30.239332	-1.009756	28.472767	-1.831200	6.104000	-1.083460	0.822447	0.380553	0.388305	-1.000000	-1.000000	-1.000000	-1.000000	-1.000000	-1.000000	-1.000000	72.344828	0.000000	-1.000000	-1.000000	2009797.000000	1773868263.518864
-5608.305000	2698.695000	21099.555000	14218.830000	-16339.590000	-18539.505000	8195.355000	16494.480000	-2.662957	-10.746530	-22.446678	-20.820748	-18.516935	-24.233643	-3.542276	29.556271	-1.831200	6.104000	-1.083460	0.822447	0.380553	0.388305	-1.000000	-1.000000	-1.000000	-1.000000	-1.000000	-1.000000	-1.000000	72.344828	0.000000	-1.000000	-1.000000	2009798.000000	1773868263.518871
-5637.825000	2696.445000	21093.345000	14211.135000	-16354.620000	-18574.335000	8198.820000	16485.885000	0.962863	-3.553128	-8.481269	-7.824038	-3.476724	-6.186685	-4.251117	12.120072	-1.831200	6.104000	-1.083460	0.822447	0.380553	0.388305	-1.000000	-1.000000	-1.000000	-1.000000	-1.000000	-1.000000	-1.000000	72.344828	0.000000	-1.000000	-1.000000	2009799.000000	1773868263.522806
-5564.790000	2717.910000	21107.385000	14228.010000	-16336.890000	-18533.925000	8197.335000	16493.670000	-1.418144	5.082952	8.799829	9.492420	14.976813	15.608527	-2.271698	-13.254181	-1.831200	6.104000	-1.083460	0.822447	0.380553	0.388305	-1.000000	-1.000000	-1.000000	-1.000000	-1.000000	-1.000000	-1.000000	72.344828	0.000000	-1.000000	-1.000000	2009800.000000	1773868263.522818
-5556.465000	2737.080000	21119.445000	14245.155000	-16306.785000	-18494.685000	8203.635000	16481.070000	-1.664628	12.489220	20.993966	23.543672	28.749804	32.364475	0.906857	-31.047289	-3.021480	5.173140	-1.113980	0.820005	0.379760	0.390136	-1.000000	-1.000000	-1.000000	-1.000000	-1.000000	-1.000000	-1.000000	72.344828	0.000000	-1.000000	-1.000000	2009801.000000	1773868263.526898
-5555.295000	2753.910000	21134.295000	14256.540000	-16298.865000	-18495.405000	8199.945000	16462.485000	5.037881	16.996377	24.589536	29.406709	32.969713	38.654652	2.910371	-32.711949	-3.021480	5.173140	-1.113980	0.820005	0.379760	0.390136	-1.000000	-1.000000	-1.000000	-1.000000	-1.000000	-1.000000	-1.000000	72.344828	0.000000	-1.000000	-1.000000	2009802.000000	1773868263.526908
-5557.635000	2748.105000	21128.220000	14250.330000	-16307.280000	-18505.395000	8189.370000	16437.915000	13.615070	16.915757	20.635269	25.277858	26.157865	32.012478	1.987254	-22.546033	-3.021480	5.173140	-1.113980	0.820005	0.379760	0.390136	-1.000000	-1.000000	-1.000000	-1.000000	-1.000000	-1.000000	-1.000000	72.344828	0.000000	-1.000000	-1.000000	2009803.000000	1773868263.538458
-5554.395000	2722.005000	21100.320000	14221.035000	-16334.325000	-18532.215000	8195.895000	16518.330000	15.118739	10.633710	12.084699	12.334000	10.251997	14.313884	-1.231023	-9.816858	-3.021480	5.173140	-1.113980	0.820005	0.379760	0.390136	-1.000000	-1.000000	-1.000000	-1.000000	-1.000000	-1.000000	-1.000000	72.344828	0.000000	-1.000000	-1.000000	2009804.000000	1773868263.538470
-5564.520000	2708.685000	21092.085000	14210.055000	-16345.080000	-18538.920000	8206.695000	16576.020000	6.801338	-1.220732	0.761162	-5.420053	-9.442750	-8.071775	-3.488480	3.669087	-3.021480	5.173140	-1.113980	0.820005	0.379760	0.390136	-1.000000	-1.000000	-1.000000	-1.000000	-1.000000	-1.000000	-1.000000	72.344828	0.000000	-1.000000	-1.000000	2009805.000000	1773868263.538715
-5590.980000	2717.820000	21113.730000	14232.600000	-16327.440000	-18522.180000	8205.075000	16519.590000	-5.749778	-14.115902	-11.740213	-21.536175	-25.697607	-26.685110	-2.164454	19.839080	-3.021480	5.173140	-1.113980	0.820005	0.379760	0.390136	-1.000000	-1.000000	-1.000000	-1.000000	-1.000000	-1.000000	-1.000000	72.344828	0.000000	-1.000000	-1.000000	2009806.000000	1773868263.538726
-5616.990000	2712.555000	21114.225000	14237.280000	-16321.905000	-18517.725000	8201.160000	16510.545000	-14.903575	-21.463390	-20.961783	-28.791872	-31.831599	-33.850161	1.628124	32.230251	-3.021480	5.173140	-1.113980	0.820005	0.379760	0.390136	-1.000000	-1.000000	-1.000000	-1.000000	-1.000000	-1.000000	-1.000000	72.344828	0.000000	-1.000000	-1.000000	2009807.000000	1773868263.538921
-5597.145000	2736.315000	21129.660000	14255.685000	-16301.565000	-18498.780000	8207.415000	16510.140000	-16.499328	-19.241848	-21.896029	-23.515190	-24.950503	-26.400437	4.538305	31.057248	-3.021480	5.173140	-1.113980	0.820005	0.379760	0.390136	-1.000000	-1.000000	-1.000000	-1.000000	-1.000000	-1.000000	-1.000000	72.344828	0.000000	-1.000000	-1.000000	2009808.000000	1773868263.538927
