Channel1	Channel2	Channel3	Channel4	Channel5	Channel6	Channel7	Channel8	FilteredChannel1	FilteredChannel2	FilteredChannel3	FilteredChannel4	FilteredChannel5	FilteredChannel6	FilteredChannel7	FilteredChannel8	GyroX	GyroY	GyroZ	AccX	AccY	AccZ	PPG1	PPG2	rawPPG1	rawPPG2	rawPPG3	Hr	Hrv	Battery	Trigger	PhysicalTrigger	AutoTrigger	NumMeasurements	Timestamp
-8263.305000	-13000.815000	-12428.955000	482.580000	-10862.595000	-8384.715000	-11262.330000	13258.125000	-2.783121	-21.708471	-17.632376	-13.023841	-10.120588	-8.699925	-9.601008	6.305973	-34.747020	-20.494180	0.045780	1.013303	-0.259155	0.219665	-1.000000	-1.000000	-1.000000	-1.000000	-1.000000	-1.000000	-1.000000	60.344828	0.000000	-1.000000	-1.000000	1003781.000000	1772739405.313778
-8243.550000	-12967.470000	-12396.015000	512.370000	-10812.915000	-8323.560000	-11229.570000	13282.965000	-5.972132	-19.506108	-22.390850	-5.825844	-1.347057	0.500369	-1.620238	-14.901946	-34.747020	-20.494180	0.045780	1.013303	-0.259155	0.219665	-1.000000	-1.000000	-1.000000	-1.000000	-1.000000	-1.000000	-1.000000	60.344828	0.000000	-1.000000	-1.000000	1003782.000000	1772739405.313800
-8261.505000	-13007.700000	-12445.065000	454.185000	-10851.255000	-8356.860000	-11261.025000	13329.000000	0.312119	-3.605503	-12.440875	6.294144	10.529699	11.584450	9.086714	-25.097705	-34.747020	-20.494180	0.045780	1.013303	-0.259155	0.219665	-1.000000	-1.000000	-1.000000	-1.000000	-1.000000	-1.000000	-1.000000	60.344828	0.000000	-1.000000	-1.000000	1003783.000000	1772739405.317104
-8338.230000	-13073.040000	-12517.605000	375.120000	-10927.170000	-8430.975000	-11315.520000	13249.800000	9.140557	12.516954	1.020766	11.052799	14.207557	14.157790	14.033879	-17.841564	-34.747020	-20.494180	0.045780	1.013303	-0.259155	0.219665	-1.000000	-1.000000	-1.000000	-1.000000	-1.000000	-1.000000	-1.000000	60.344828	0.000000	-1.000000	-1.000000	1003784.000000	1772739405.317112
-8330.670000	-13057.515000	-12519.315000	361.530000	-10928.610000	-8430.615000	-11300.130000	13280.220000	8.163794	14.391083	4.320704	1.800043	4.324754	4.286780	8.480321	-4.276942	-34.747020	-20.494180	0.045780	1.013303	-0.259155	0.219665	-1.000000	-1.000000	-1.000000	-1.000000	-1.000000	-1.000000	-1.000000	60.344828	0.000000	-1.000000	-1.000000	1003785.000000	1772739405.322740
-8327.790000	-13040.055000	-12506.805000	380.745000	-10929.915000	-8441.280000	-11282.355000	13269.960000	-4.731575	2.344030	-3.982506	-13.778101	-11.546136	-10.134011	-2.316435	3.402553	-34.747020	-20.494180	0.045780	1.013303	-0.259155	0.219665	-1.000000	-1.000000	-1.000000	-1.000000	-1.000000	-1.000000	-1.000000	60.344828	0.000000	-1.000000	-1.000000	1003786.000000	1772739405.322747
-8268.885000	-12966.165000	-12424.590000	475.110000	-10876.500000	-8406.045000	-11271.870000	13249.350000	-16.505925	-8.479529	-10.037306	-18.546745	-18.791190	-16.316948	-8.737112	3.710278	-34.747020	-20.494180	0.045780	1.013303	-0.259155	0.219665	-1.000000	-1.000000	-1.000000	-1.000000	-1.000000	-1.000000	-1.000000	60.344828	0.000000	-1.000000	-1.000000	1003787.000000	1772739405.325086
-8256.015000	-12978.405000	-12415.230000	459.315000	-10885.140000	-8415.405000	-11289.645000	13245.210000	-13.341222	-4.589245	0.123421	-2.695164	-9.147785	-8.123315	-6.717265	-0.293250	-34.747020	-20.494180	0.045780	1.013303	-0.259155	0.219665	-1.000000	-1.000000	-1.000000	-1.000000	-1.000000	-1.000000	-1.000000	60.344828	0.000000	-1.000000	-1.000000	1003788.000000	1772739405.325094
-8293.680000	-13032.630000	-12469.140000	419.535000	-10926.630000	-8445.780000	-11295.135000	13281.615000	2.845612	9.903698	21.490645	22.783007	9.902696	7.459755	-0.154361	-3.968535	-34.747020	-20.494180	0.045780	1.013303	-0.259155	0.219665	-1.000000	-1.000000	-1.000000	-1.000000	-1.000000	-1.000000	-1.000000	60.344828	0.000000	-1.000000	-1.000000	1003789.000000	1772739405.329709
-8285.265000	-13006.575000	-12454.155000	473.895000	-10882.035000	-8400.330000	-11292.840000	13263.525000	16.173102	17.783719	33.262864	35.550193	21.165222	15.974178	4.005062	-1.949335	-34.747020	-20.494180	0.045780	1.013303	-0.259155	0.219665	-1.000000	-1.000000	-1.000000	-1.000000	-1.000000	-1.000000	-1.000000	60.344828	0.000000	-1.000000	-1.000000	1003790.000000	1772739405.329717
-8296.695000	-13028.625000	-12445.470000	502.515000	-10852.290000	-8367.075000	-11293.740000	13242.375000	15.636605	9.885474	23.352522	26.187727	16.173715	10.769865	2.369146	5.335170	-38.729880	-18.373040	4.776380	1.026181	-0.270019	0.214416	-1.000000	-1.000000	-1.000000	-1.000000	-1.000000	-1.000000	-1.000000	60.344828	0.000000	-1.000000	-1.000000	1003791.000000	1772739405.334061
-8280.720000	-13004.505000	-12445.110000	499.770000	-10860.300000	-8378.505000	-11296.350000	13235.805000	5.364811	-5.956157	0.654458	5.028335	2.411369	-0.987429	-2.002117	11.386398	-38.729880	-18.373040	4.776380	1.026181	-0.270019	0.214416	-1.000000	-1.000000	-1.000000	-1.000000	-1.000000	-1.000000	-1.000000	60.344828	0.000000	-1.000000	-1.000000	1003792.000000	1772739405.334084
-8277.120000	-12992.895000	-12429.495000	504.585000	-10854.675000	-8378.640000	-11293.785000	13196.430000	-3.841615	-15.905518	-17.595394	-12.385111	-7.662260	-8.044076	-3.316785	11.275746	-38.729880	-18.373040	4.776380	1.026181	-0.270019	0.214416	-1.000000	-1.000000	-1.000000	-1.000000	-1.000000	-1.000000	-1.000000	60.344828	0.000000	-1.000000	-1.000000	1003793.000000	1772739405.337088
-8293.005000	-13017.555000	-12421.215000	491.760000	-10862.865000	-8389.035000	-11283.615000	13217.085000	-6.626430	-14.412852	-22.373878	-19.004770	-8.718181	-6.207060	0.285736	5.304509	-38.729880	-18.373040	4.776380	1.026181	-0.270019	0.214416	-1.000000	-1.000000	-1.000000	-1.000000	-1.000000	-1.000000	-1.000000	60.344828	0.000000	-1.000000	-1.000000	1003794.000000	1772739405.337098
-8340.570000	-13060.485000	-12477.465000	450.360000	-10887.345000	-8404.740000	-11246.580000	13250.430000	-6.125645	-7.653962	-17.169500	-18.469129	-4.687115	0.044588	5.636992	-1.647370	-38.729880	-18.373040	4.776380	1.026181	-0.270019	0.214416	-1.000000	-1.000000	-1.000000	-1.000000	-1.000000	-1.000000	-1.000000	60.344828	0.000000	-1.000000	-1.000000	1003795.000000	1772739405.341032
-8339.310000	-13060.305000	-12504.105000	442.260000	-10877.310000	-8389.665000	-11245.590000	13230.270000	-7.511018	-4.055255	-11.467817	-17.958060	-2.199510	4.159799	9.163304	-4.127077	-38.729880	-18.373040	4.776380	1.026181	-0.270019	0.214416	-1.000000	-1.000000	-1.000000	-1.000000	-1.000000	-1.000000	-1.000000	60.344828	0.000000	-1.000000	-1.000000	1003796.000000	1772739405.341040
-8265.915000	-13033.350000	-12445.245000	460.350000	-10877.490000	-8394.885000	-11273.400000	13228.560000	-9.598707	-3.767601	-9.207802	-18.313013	-2.946614	3.900890	8.832974	-2.222425	-38.729880	-18.373040	4.776380	1.026181	-0.270019	0.214416	-1.000000	-1.000000	-1.000000	-1.000000	-1.000000	-1.000000	-1.000000	60.344828	0.000000	-1.000000	-1.000000	1003797.000000	1772739405.345265
-8267.850000	-13025.115000	-12405.240000	474.930000	-10879.380000	-8391.960000	-11278.530000	13262.490000	-6.057105	-0.750111	-4.725157	-14.033127	-4.154146	0.671792	3.485672	0.266370	-38.729880	-18.373040	4.776380	1.026181	-0.270019	0.214416	-1.000000	-1.000000	-1.000000	-1.000000	-1.000000	-1.000000	-1.000000	60.344828	0.000000	-1.000000	-1.000000	1003798.000000	1772739405.345272
-8290.710000	-13041.180000	-12443.040000	462.780000	-10890.945000	-8398.170000	-11288.880000	13364.055000	3.710042	6.428922	5.480530	-3.865408	-4.968233	-4.709072	-5.711488	3.350160	-38.729880	-18.373040	4.776380	1.026181	-0.270019	0.214416	-1.000000	-1.000000	-1.000000	-1.000000	-1.000000	-1.000000	-1.000000	60.344828	0.000000	-1.000000	-1.000000	1003799.000000	1772739405.349558
-8298.270000	-13006.215000	-12445.425000	483.030000	-10860.210000	-8370.900000	-11284.695000	13351.185000	12.327990	13.148112	15.057197	6.898910	-6.089056	-10.854608	-14.147855	9.417734	-38.729880	-18.373040	4.776380	1.026181	-0.270019	0.214416	-1.000000	-1.000000	-1.000000	-1.000000	-1.000000	-1.000000	-1.000000	60.344828	0.000000	-1.000000	-1.000000	1003800.000000	1772739405.349608
-8263.710000	-12960.315000	-12416.490000	519.480000	-10821.015000	-8336.070000	-11258.640000	13347.945000	14.136590	16.321756	17.424207	14.941477	-4.484879	-12.293834	-15.963253	15.207612	-31.862880	-16.724960	6.760180	1.031858	-0.278075	0.218566	-1.000000	-1.000000	-1.000000	-1.000000	-1.000000	-1.000000	-1.000000	60.344828	0.000000	-1.000000	-1.000000	1003801.000000	1772739405.356908
-8274.645000	-12995.505000	-12451.950000	469.530000	-10883.745000	-8404.695000	-11294.820000	13308.660000	9.892650	15.275529	12.434874	19.852241	2.298881	-5.355368	-9.342842	13.247037	-31.862880	-16.724960	6.760180	1.031858	-0.278075	0.218566	-1.000000	-1.000000	-1.000000	-1.000000	-1.000000	-1.000000	-1.000000	60.344828	0.000000	-1.000000	-1.000000	1003802.000000	1772739405.356917
-8345.655000	-13035.960000	-12458.655000	431.730000	-10939.545000	-8471.070000	-11320.290000	13245.705000	2.300905	8.549457	2.804156	18.907340	8.884425	4.016774	-0.026061	-0.515756	-31.862880	-16.724960	6.760180	1.031858	-0.278075	0.218566	-1.000000	-1.000000	-1.000000	-1.000000	-1.000000	-1.000000	-1.000000	60.344828	0.000000	-1.000000	-1.000000	1003803.000000	1772739405.356988
-8345.475000	-13030.920000	-12430.305000	467.100000	-10897.290000	-8431.065000	-11297.295000	13234.995000	-6.688853	-3.249174	-6.395017	10.717876	8.857502	7.545871	4.622355	-22.322980	-31.862880	-16.724960	6.760180	1.031858	-0.278075	0.218566	-1.000000	-1.000000	-1.000000	-1.000000	-1.000000	-1.000000	-1.000000	60.344828	0.000000	-1.000000	-1.000000	1003804.000000	1772739405.356995
-8325.090000	-13061.160000	-12477.330000	439.335000	-10903.995000	-8422.695000	-11306.340000	13239.945000	-13.811948	-15.148824	-9.944118	-0.173081	4.009994	5.617455	4.152124	-39.851248	-31.862880	-16.724960	6.760180	1.031858	-0.278075	0.218566	-1.000000	-1.000000	-1.000000	-1.000000	-1.000000	-1.000000	-1.000000	60.344828	0.000000	-1.000000	-1.000000	1003805.000000	1772739405.366282
-8285.580000	-13036.635000	-12458.565000	453.105000	-10895.760000	-8414.100000	-11317.545000	13248.450000	-15.142315	-21.597736	-8.829797	-8.358981	0.014336	3.788397	3.087565	-40.313207	-31.862880	-16.724960	6.760180	1.031858	-0.278075	0.218566	-1.000000	-1.000000	-1.000000	-1.000000	-1.000000	-1.000000	-1.000000	60.344828	0.000000	-1.000000	-1.000000	1003806.000000	1772739405.366292
-8261.370000	-13014.945000	-12429.495000	484.605000	-10865.970000	-8379.270000	-11311.515000	13250.250000	-8.849969	-19.333912	-6.780349	-11.553908	-0.503760	4.575332	3.963364	-22.462602	-31.862880	-16.724960	6.760180	1.031858	-0.278075	0.218566	-1.000000	-1.000000	-1.000000	-1.000000	-1.000000	-1.000000	-1.000000	60.344828	0.000000	-1.000000	-1.000000	1003807.000000	1772739405.366458
-8277.930000	-13023.090000	-12437.415000	487.530000	-10852.695000	-8356.590000	-11298.780000	13238.955000	3.117413	-8.731855	-3.559918	-9.398114	1.746729	6.745569	6.199043	2.487747	-31.862880	-16.724960	6.760180	1.031858	-0.278075	0.218566	-1.000000	-1.000000	-1.000000	-1.000000	-1.000000	-1.000000	-1.000000	60.344828	0.000000	-1.000000	-1.000000	1003808.000000	1772739405.366462
-8290.215000	-12969.540000	-12399.885000	520.110000	-10828.440000	-8343.090000	-11284.965000	13214.160000	14.063756	5.050392	2.182712	-3.496318	4.227785	7.764825	8.243813	21.543751	-31.862880	-16.724960	6.760180	1.031858	-0.278075	0.218566	-1.000000	-1.000000	-1.000000	-1.000000	-1.000000	-1.000000	-1.000000	60.344828	0.000000	-1.000000	-1.000000	1003809.000000	1772739405.369274
-8223.615000	-12915.855000	-12359.430000	549.360000	-10808.730000	-8335.440000	-11260.890000	13274.910000	17.306735	15.970054	9.210162	3.337926	4.785238	5.873907	8.733812	30.074680	-31.862880	-16.724960	6.760180	1.031858	-0.278075	0.218566	-1.000000	-1.000000	-1.000000	-1.000000	-1.000000	-1.000000	-1.000000	60.344828	0.000000	-1.000000	-1.000000	1003810.000000	1772739405.369282
-8242.110000	-12958.155000	-12405.690000	491.850000	-10863.180000	-8393.580000	-11283.930000	13274.955000	13.174836	21.145072	14.218504	8.612597	3.503387	1.748825	7.145967	31.737831	-25.896220	-11.902800	8.896580	1.020749	-0.274108	0.217590	-1.000000	-1.000000	-1.000000	-1.000000	-1.000000	-1.000000	-1.000000	60.344828	0.000000	-1.000000	-1.000000	1003811.000000	1772739405.375459
-8300.745000	-13012.290000	-12453.345000	422.505000	-10924.695000	-8452.980000	-11322.180000	13238.370000	6.058988	18.615089	12.448978	8.669836	0.174258	-3.588885	2.652399	29.524248	-25.896220	-11.902800	8.896580	1.020749	-0.274108	0.217590	-1.000000	-1.000000	-1.000000	-1.000000	-1.000000	-1.000000	-1.000000	60.344828	0.000000	-1.000000	-1.000000	1003812.000000	1772739405.375469
-8287.245000	-13027.140000	-12467.520000	436.230000	-10899.630000	-8415.405000	-11289.690000	13279.050000	-2.236627	7.151035	1.656383	0.732543	-6.492095	-10.228245	-5.167346	21.935223	-25.896220	-11.902800	8.896580	1.020749	-0.274108	0.217590	-1.000000	-1.000000	-1.000000	-1.000000	-1.000000	-1.000000	-1.000000	60.344828	0.000000	-1.000000	-1.000000	1003813.000000	1772739405.377060
-8306.730000	-13055.040000	-12488.265000	452.160000	-10888.920000	-8403.165000	-11293.515000	13256.100000	-11.446995	-9.366416	-13.041645	-10.488392	-13.665639	-15.469704	-12.509035	8.455347	-25.896220	-11.902800	8.896580	1.020749	-0.274108	0.217590	-1.000000	-1.000000	-1.000000	-1.000000	-1.000000	-1.000000	-1.000000	60.344828	0.000000	-1.000000	-1.000000	1003814.000000	1772739405.377068
-8317.080000	-13053.645000	-12448.935000	475.425000	-10871.775000	-8382.240000	-11283.975000	13265.145000	-19.870439	-23.072934	-22.541958	-15.720558	-15.155436	-14.588890	-13.893145	-8.010293	-25.896220	-11.902800	8.896580	1.020749	-0.274108	0.217590	-1.000000	-1.000000	-1.000000	-1.000000	-1.000000	-1.000000	-1.000000	60.344828	0.000000	-1.000000	-1.000000	1003815.000000	1772739405.384942
-8303.445000	-13039.515000	-12444.030000	475.110000	-10869.930000	-8371.170000	-11282.490000	13258.755000	-23.609799	-27.207338	-20.821466	-11.352245	-9.137067	-7.212154	-8.553228	-22.814222	-25.896220	-11.902800	8.896580	1.020749	-0.274108	0.217590	-1.000000	-1.000000	-1.000000	-1.000000	-1.000000	-1.000000	-1.000000	60.344828	0.000000	-1.000000	-1.000000	1003816.000000	1772739405.384951
-8326.755000	-13032.990000	-12430.845000	490.140000	-10855.080000	-8365.995000	-11306.520000	13191.480000	-18.353229	-19.391250	-8.420313	-1.359647	0.317020	2.081847	-0.970453	-31.379846	-25.896220	-11.902800	8.896580	1.020749	-0.274108	0.217590	-1.000000	-1.000000	-1.000000	-1.000000	-1.000000	-1.000000	-1.000000	60.344828	0.000000	-1.000000	-1.000000	1003817.000000	1772739405.385149
-8321.445000	-13025.205000	-12426.255000	491.895000	-10856.385000	-8371.485000	-11289.060000	13240.755000	-4.997449	-4.289377	7.418943	7.664182	7.761287	8.265109	3.464712	-30.953760	-25.896220	-11.902800	8.896580	1.020749	-0.274108	0.217590	-1.000000	-1.000000	-1.000000	-1.000000	-1.000000	-1.000000	-1.000000	60.344828	0.000000	-1.000000	-1.000000	1003818.000000	1772739405.385155
-8278.965000	-13034.565000	-12458.790000	455.220000	-10891.125000	-8407.395000	-11277.855000	13293.405000	9.869938	9.351597	17.283609	10.919130	10.054926	9.313768	3.538298	-20.257509	-25.896220	-11.902800	8.896580	1.020749	-0.274108	0.217590	-1.000000	-1.000000	-1.000000	-1.000000	-1.000000	-1.000000	-1.000000	60.344828	0.000000	-1.000000	-1.000000	1003819.000000	1772739405.390446
-8244.855000	-13027.365000	-12475.395000	430.920000	-10917.315000	-8438.490000	-11283.795000	13260.735000	21.686118	17.205634	17.114425	8.567736	8.200130	7.176878	2.672755	-1.274616	-25.896220	-11.902800	8.896580	1.020749	-0.274108	0.217590	-1.000000	-1.000000	-1.000000	-1.000000	-1.000000	-1.000000	-1.000000	60.344828	0.000000	-1.000000	-1.000000	1003820.000000	1772739405.390451
-8267.580000	-13000.275000	-12431.880000	474.840000	-10877.355000	-8402.895000	-11271.645000	13275.630000	29.379023	21.223733	11.134686	5.387837	6.112547	5.474034	3.767299	18.110731	-21.608160	-6.851740	13.108340	1.006955	-0.270568	0.211975	-1.000000	-1.000000	-1.000000	-1.000000	-1.000000	-1.000000	-1.000000	60.344828	0.000000	-1.000000	-1.000000	1003821.000000	1772739405.393352
-8285.715000	-12982.140000	-12389.040000	525.150000	-10826.595000	-8354.520000	-11248.920000	13295.610000	29.133819	23.496233	7.067298	5.878384	6.704570	5.985663	6.084917	28.586403	-21.608160	-6.851740	13.108340	1.006955	-0.270568	0.211975	-1.000000	-1.000000	-1.000000	-1.000000	-1.000000	-1.000000	-1.000000	60.344828	0.000000	-1.000000	-1.000000	1003822.000000	1772739405.393360
-8333.325000	-12999.960000	-12398.175000	524.295000	-10821.645000	-8342.055000	-11257.380000	13228.470000	16.339721	22.089903	7.668635	9.178799	9.043059	7.498762	7.170701	25.527697	-21.608160	-6.851740	13.108340	1.006955	-0.270568	0.211975	-1.000000	-1.000000	-1.000000	-1.000000	-1.000000	-1.000000	-1.000000	60.344828	0.000000	-1.000000	-1.000000	1003823.000000	1772739405.397056
-8258.040000	-12970.080000	-12388.005000	529.380000	-10813.455000	-8321.220000	-11274.255000	13208.310000	-5.194057	13.623046	7.660375	9.431757	8.879421	6.948025	4.900023	9.948464	-21.608160	-6.851740	13.108340	1.006955	-0.270568	0.211975	-1.000000	-1.000000	-1.000000	-1.000000	-1.000000	-1.000000	-1.000000	60.344828	0.000000	-1.000000	-1.000000	1003824.000000	1772739405.397063
-8190.630000	-12984.165000	-12406.050000	507.060000	-10841.220000	-8350.560000	-11302.335000	13278.015000	-21.832379	-1.326924	1.274487	2.330798	2.620439	1.794082	-1.367461	-9.511486	-21.608160	-6.851740	13.108340	1.006955	-0.270568	0.211975	-1.000000	-1.000000	-1.000000	-1.000000	-1.000000	-1.000000	-1.000000	60.344828	0.000000	-1.000000	-1.000000	1003825.000000	1772739405.402195
-8273.295000	-13050.045000	-12470.490000	441.810000	-10909.710000	-8417.970000	-11306.385000	13315.005000	-23.282538	-18.653113	-11.431203	-11.099026	-9.826373	-8.388753	-9.337491	-18.404692	-21.608160	-6.851740	13.108340	1.006955	-0.270568	0.211975	-1.000000	-1.000000	-1.000000	-1.000000	-1.000000	-1.000000	-1.000000	60.344828	0.000000	-1.000000	-1.000000	1003826.000000	1772739405.402203
-8320.635000	-13059.450000	-12494.115000	413.055000	-10938.330000	-8450.595000	-11295.405000	13310.730000	-15.310027	-33.798842	-25.813175	-25.793362	-24.430472	-20.750312	-14.602755	-11.311480	-21.608160	-6.851740	13.108340	1.006955	-0.270568	0.211975	-1.000000	-1.000000	-1.000000	-1.000000	-1.000000	-1.000000	-1.000000	60.344828	0.000000	-1.000000	-1.000000	1003827.000000	1772739405.406398
-8273.070000	-12996.135000	-12447.945000	447.255000	-10906.830000	-8436.465000	-11295.540000	13251.510000	-9.936525	-39.245128	-32.787569	-32.409033	-31.740866	-27.303769	-13.578595	0.798878	-21.608160	-6.851740	13.108340	1.006955	-0.270568	0.211975	-1.000000	-1.000000	-1.000000	-1.000000	-1.000000	-1.000000	-1.000000	60.344828	0.000000	-1.000000	-1.000000	1003828.000000	1772739405.406405
-8281.890000	-12953.880000	-12394.395000	502.560000	-10853.595000	-8393.220000	-11297.115000	13214.880000	-8.620222	-26.903803	-22.863911	-21.630905	-21.913484	-19.304937	-5.980335	4.692902	-21.608160	-6.851740	13.108340	1.006955	-0.270568	0.211975	-1.000000	-1.000000	-1.000000	-1.000000	-1.000000	-1.000000	-1.000000	60.344828	0.000000	-1.000000	-1.000000	1003829.000000	1772739405.409084
-8279.145000	-12972.060000	-12394.395000	512.235000	-10842.030000	-8375.490000	-11283.120000	13274.685000	-5.334565	0.196111	2.071602	4.115333	3.032493	1.899271	4.406418	-1.068257	-21.608160	-6.851740	13.108340	1.006955	-0.270568	0.211975	-1.000000	-1.000000	-1.000000	-1.000000	-1.000000	-1.000000	-1.000000	60.344828	0.000000	-1.000000	-1.000000	1003830.000000	1772739405.409091
-8280.270000	-13051.620000	-12480.255000	430.740000	-10915.920000	-8432.595000	-11308.905000	13306.815000	2.650252	25.364620	25.608301	27.698836	26.375588	22.229502	11.823226	-7.171247	-19.425980	-3.921820	13.688220	0.991453	-0.270995	0.200500	-1.000000	-1.000000	-1.000000	-1.000000	-1.000000	-1.000000	-1.000000	60.344828	0.000000	-1.000000	-1.000000	1003831.000000	1772739405.414710
-8287.830000	-13057.830000	-12481.020000	433.305000	-10909.395000	-8411.625000	-11302.965000	13294.980000	12.401264	32.304839	30.863757	31.951955	31.288885	27.262573	12.696149	-4.544479	-19.425980	-3.921820	13.688220	0.991453	-0.270995	0.200500	-1.000000	-1.000000	-1.000000	-1.000000	-1.000000	-1.000000	-1.000000	60.344828	0.000000	-1.000000	-1.000000	1003832.000000	1772739405.414718
-8260.155000	-13006.935000	-12413.205000	504.585000	-10837.845000	-8343.945000	-11257.155000	13340.160000	17.455659	20.084225	17.466826	17.254753	17.867703	16.776334	9.045758	6.118698	-19.425980	-3.921820	13.688220	0.991453	-0.270995	0.200500	-1.000000	-1.000000	-1.000000	-1.000000	-1.000000	-1.000000	-1.000000	60.344828	0.000000	-1.000000	-1.000000	1003833.000000	1772739405.419188
-8301.960000	-13040.415000	-12447.405000	470.925000	-10873.215000	-8383.365000	-11273.985000	13289.805000	13.275749	1.914850	0.219088	-0.601107	1.037161	3.053881	6.093858	15.294178	-19.425980	-3.921820	13.688220	0.991453	-0.270995	0.200500	-1.000000	-1.000000	-1.000000	-1.000000	-1.000000	-1.000000	-1.000000	60.344828	0.000000	-1.000000	-1.000000	1003834.000000	1772739405.419198
-8313.930000	-13053.465000	-12475.980000	447.570000	-10898.370000	-8414.145000	-11300.580000	13247.640000	2.842985	-9.316647	-8.536009	-9.046994	-7.280423	-4.207589	4.725656	12.730325	-19.425980	-3.921820	13.688220	0.991453	-0.270995	0.200500	-1.000000	-1.000000	-1.000000	-1.000000	-1.000000	-1.000000	-1.000000	60.344828	0.000000	-1.000000	-1.000000	1003835.000000	1772739405.422965
-8287.155000	-13033.035000	-12500.640000	449.640000	-10893.465000	-8412.885000	-11285.010000	13249.890000	-5.843405	-10.095785	-8.226345	-7.465356	-6.468973	-4.557689	1.304539	-2.585039	-19.425980	-3.921820	13.688220	0.991453	-0.270995	0.200500	-1.000000	-1.000000	-1.000000	-1.000000	-1.000000	-1.000000	-1.000000	60.344828	0.000000	-1.000000	-1.000000	1003836.000000	1772739405.422973
-8288.190000	-13021.605000	-12481.965000	460.305000	-10887.165000	-8417.565000	-11295.630000	13236.930000	-7.878671	-4.507913	-4.753511	-1.762151	-1.956880	-2.037272	-4.817760	-18.693860	-19.425980	-3.921820	13.688220	0.991453	-0.270995	0.200500	-1.000000	-1.000000	-1.000000	-1.000000	-1.000000	-1.000000	-1.000000	60.344828	0.000000	-1.000000	-1.000000	1003837.000000	1772739405.425230
-8286.165000	-13014.090000	-12420.945000	474.525000	-10881.135000	-8410.950000	-11290.905000	13270.905000	-4.519127	1.092452	-2.312212	1.619976	0.223822	-1.259106	-10.273797	-21.991761	-19.425980	-3.921820	13.688220	0.991453	-0.270995	0.200500	-1.000000	-1.000000	-1.000000	-1.000000	-1.000000	-1.000000	-1.000000	60.344828	0.000000	-1.000000	-1.000000	1003838.000000	1772739405.425240
-8309.340000	-13027.095000	-12424.140000	451.035000	-10896.210000	-8410.995000	-11284.425000	13255.155000	0.188925	3.590455	0.061817	-0.125951	-2.525751	-4.281206	-12.053203	-11.283872	-19.425980	-3.921820	13.688220	0.991453	-0.270995	0.200500	-1.000000	-1.000000	-1.000000	-1.000000	-1.000000	-1.000000	-1.000000	60.344828	0.000000	-1.000000	-1.000000	1003839.000000	1772739405.429634
-8289.630000	-13015.215000	-12439.755000	458.865000	-10886.085000	-8391.915000	-11285.460000	13275.135000	3.172378	4.694914	4.452011	-4.111408	-6.849448	-7.938060	-9.007215	3.923116	-19.425980	-3.921820	13.688220	0.991453	-0.270995	0.200500	-1.000000	-1.000000	-1.000000	-1.000000	-1.000000	-1.000000	-1.000000	60.344828	0.000000	-1.000000	-1.000000	1003840.000000	1772739405.429669
-8236.395000	-12999.060000	-12420.540000	494.730000	-10853.685000	-8357.895000	-11262.780000	13293.630000	4.214997	6.136004	8.627776	-5.516286	-7.579040	-7.775784	-2.275326	15.045870	-20.692560	-5.341000	11.475520	0.969297	-0.268249	0.194519	-1.000000	-1.000000	-1.000000	-1.000000	-1.000000	-1.000000	-1.000000	60.344828	0.000000	-1.000000	-1.000000	1003841.000000	1772739405.436561
-8275.680000	-13018.410000	-12422.565000	489.690000	-10864.620000	-8376.390000	-11273.445000	13247.595000	3.985209	5.806504	7.920839	-3.237380	-4.022155	-3.840036	4.613085	18.086063	-20.692560	-5.341000	11.475520	0.969297	-0.268249	0.194519	-1.000000	-1.000000	-1.000000	-1.000000	-1.000000	-1.000000	-1.000000	60.344828	0.000000	-1.000000	-1.000000	1003842.000000	1772739405.436574
-8321.715000	-13035.285000	-12449.520000	456.435000	-10899.720000	-8413.515000	-11299.950000	13253.085000	1.618728	1.526326	1.597650	0.294287	0.723158	0.701476	7.938617	12.460118	-20.692560	-5.341000	11.475520	0.969297	-0.268249	0.194519	-1.000000	-1.000000	-1.000000	-1.000000	-1.000000	-1.000000	-1.000000	60.344828	0.000000	-1.000000	-1.000000	1003843.000000	1772739405.439574
-8301.960000	-13047.390000	-12477.330000	446.400000	-10910.340000	-8429.895000	-11288.880000	13313.925000	-2.852855	-4.973215	-6.130141	2.789502	4.069964	3.746793	6.570941	3.492922	-20.692560	-5.341000	11.475520	0.969297	-0.268249	0.194519	-1.000000	-1.000000	-1.000000	-1.000000	-1.000000	-1.000000	-1.000000	60.344828	0.000000	-1.000000	-1.000000	1003844.000000	1772739405.439582
-8303.625000	-13037.670000	-12492.450000	441.360000	-10911.285000	-8437.545000	-11282.265000	13292.145000	-7.012334	-10.492806	-11.150467	3.160954	4.969533	4.707405	2.625646	-1.044590	-20.692560	-5.341000	11.475520	0.969297	-0.268249	0.194519	-1.000000	-1.000000	-1.000000	-1.000000	-1.000000	-1.000000	-1.000000	60.344828	0.000000	-1.000000	-1.000000	1003845.000000	1772739405.441187
-8320.185000	-13033.935000	-12482.370000	454.905000	-10892.745000	-8417.250000	-11288.340000	13217.850000	-8.677454	-12.931075	-12.742481	1.140405	3.432343	3.785458	-0.782506	-0.923492	-20.692560	-5.341000	11.475520	0.969297	-0.268249	0.194519	-1.000000	-1.000000	-1.000000	-1.000000	-1.000000	-1.000000	-1.000000	60.344828	0.000000	-1.000000	-1.000000	1003846.000000	1772739405.441195
-8279.640000	-12988.980000	-12417.255000	486.495000	-10863.315000	-8387.865000	-11295.990000	13164.570000	-6.672006	-10.400432	-11.170966	-1.699409	1.117578	2.327415	-2.460123	-3.986132	-20.692560	-5.341000	11.475520	0.969297	-0.268249	0.194519	-1.000000	-1.000000	-1.000000	-1.000000	-1.000000	-1.000000	-1.000000	60.344828	0.000000	-1.000000	-1.000000	1003847.000000	1772739405.445210
-8224.515000	-12996.495000	-12411.630000	484.380000	-10863.090000	-8373.375000	-11266.830000	13271.220000	0.400862	-1.727789	-4.596872	-1.919595	0.781118	2.253147	-2.622681	-12.531717	-20.692560	-5.341000	11.475520	0.969297	-0.268249	0.194519	-1.000000	-1.000000	-1.000000	-1.000000	-1.000000	-1.000000	-1.000000	60.344828	0.000000	-1.000000	-1.000000	1003848.000000	1772739405.445220
-8276.400000	-13009.320000	-12409.515000	475.605000	-10858.860000	-8355.330000	-11247.705000	13325.715000	10.209710	9.445916	6.826241	1.235420	2.670651	3.530285	-0.853280	-16.379941	-20.692560	-5.341000	11.475520	0.969297	-0.268249	0.194519	-1.000000	-1.000000	-1.000000	-1.000000	-1.000000	-1.000000	-1.000000	60.344828	0.000000	-1.000000	-1.000000	1003849.000000	1772739405.449089
-8305.515000	-13011.615000	-12426.840000	439.110000	-10871.055000	-8365.320000	-11273.760000	13264.830000	13.730856	15.223022	16.346067	2.930224	3.061974	3.265392	1.944438	-8.063186	-20.692560	-5.341000	11.475520	0.969297	-0.268249	0.194519	-1.000000	-1.000000	-1.000000	-1.000000	-1.000000	-1.000000	-1.000000	60.344828	0.000000	-1.000000	-1.000000	1003850.000000	1772739405.449147
-8288.505000	-13028.895000	-12474.585000	414.000000	-10899.000000	-8398.890000	-11303.955000	13258.845000	6.327794	11.742005	16.213517	-0.982031	-0.676921	-0.466451	2.553843	5.705593	-27.300140	-6.287120	9.919000	0.953489	-0.266418	0.189392	-1.000000	-1.000000	-1.000000	-1.000000	-1.000000	-1.000000	-1.000000	60.344828	0.000000	-1.000000	-1.000000	1003851.000000	1772739405.453583
-8265.195000	-13004.055000	-12417.660000	459.360000	-10885.815000	-8404.560000	-11307.690000	13261.545000	-3.832228	3.204706	7.165258	-6.576368	-5.604660	-5.289368	-0.285483	14.131952	-27.300140	-6.287120	9.919000	0.953489	-0.266418	0.189392	-1.000000	-1.000000	-1.000000	-1.000000	-1.000000	-1.000000	-1.000000	60.344828	0.000000	-1.000000	-1.000000	1003852.000000	1772739405.453590
-8266.455000	-12987.135000	-12429.945000	467.550000	-10876.320000	-8405.415000	-11294.370000	13209.705000	-7.366416	-3.368901	-1.781362	-5.922684	-6.502376	-7.090262	-4.027760	12.026358	-27.300140	-6.287120	9.919000	0.953489	-0.266418	0.189392	-1.000000	-1.000000	-1.000000	-1.000000	-1.000000	-1.000000	-1.000000	60.344828	0.000000	-1.000000	-1.000000	1003853.000000	1772739405.467294
-8282.385000	-12978.900000	-12416.985000	492.120000	-10849.995000	-8386.020000	-11276.415000	13237.335000	-4.497166	-4.841693	-4.301337	2.484842	-2.004753	-4.413064	-5.134565	1.909288	-27.300140	-6.287120	9.919000	0.953489	-0.266418	0.189392	-1.000000	-1.000000	-1.000000	-1.000000	-1.000000	-1.000000	-1.000000	60.344828	0.000000	-1.000000	-1.000000	1003854.000000	1772739405.467303
-8277.570000	-12968.370000	-12398.985000	505.080000	-10835.235000	-8368.380000	-11268.225000	13270.860000	-0.578045	-3.240187	-2.790437	11.943517	4.295470	0.566679	-1.920069	-5.940834	-27.300140	-6.287120	9.919000	0.953489	-0.266418	0.189392	-1.000000	-1.000000	-1.000000	-1.000000	-1.000000	-1.000000	-1.000000	60.344828	0.000000	-1.000000	-1.000000	1003855.000000	1772739405.467314
-8320.365000	-12993.165000	-12399.975000	517.905000	-10853.865000	-8378.595000	-11277.315000	13254.615000	-0.117568	-2.350800	-2.720608	15.047500	7.308863	3.974760	3.681317	-3.755132	-27.300140	-6.287120	9.919000	0.953489	-0.266418	0.189392	-1.000000	-1.000000	-1.000000	-1.000000	-1.000000	-1.000000	-1.000000	60.344828	0.000000	-1.000000	-1.000000	1003856.000000	1772739405.467318
-8316.585000	-13028.940000	-12444.030000	486.270000	-10875.555000	-8384.310000	-11281.005000	13268.295000	-4.740640	-4.378589	-6.297268	9.551096	4.190533	2.975122	6.930361	3.064407	-27.300140	-6.287120	9.919000	0.953489	-0.266418	0.189392	-1.000000	-1.000000	-1.000000	-1.000000	-1.000000	-1.000000	-1.000000	60.344828	0.000000	-1.000000	-1.000000	1003857.000000	1772739405.467322
-8240.355000	-13043.295000	-12458.565000	467.820000	-10886.805000	-8392.365000	-11281.140000	13301.775000	-9.427840	-8.525482	-11.780438	-1.940615	-3.832582	-2.218246	4.693281	4.721115	-27.300140	-6.287120	9.919000	0.953489	-0.266418	0.189392	-1.000000	-1.000000	-1.000000	-1.000000	-1.000000	-1.000000	-1.000000	60.344828	0.000000	-1.000000	-1.000000	1003858.000000	1772739405.467325
-8203.365000	-13033.170000	-12449.340000	469.935000	-10882.125000	-8387.100000	-11268.270000	13350.735000	-5.034973	-11.039819	-14.546142	-13.460538	-11.529293	-7.640012	-0.655337	1.850120	-27.300140	-6.287120	9.919000	0.953489	-0.266418	0.189392	-1.000000	-1.000000	-1.000000	-1.000000	-1.000000	-1.000000	-1.000000	60.344828	0.000000	-1.000000	-1.000000	1003859.000000	1772739405.469101
-8283.105000	-13030.830000	-12437.370000	477.135000	-10877.175000	-8390.295000	-11275.290000	13299.120000	8.366823	-7.746009	-9.558588	-17.951835	-12.433431	-7.642017	-3.479180	0.912022	-27.300140	-6.287120	9.919000	0.953489	-0.266418	0.189392	-1.000000	-1.000000	-1.000000	-1.000000	-1.000000	-1.000000	-1.000000	60.344828	0.000000	-1.000000	-1.000000	1003860.000000	1772739405.469105
-8322.840000	-13056.525000	-12484.035000	421.785000	-10937.160000	-8459.730000	-11295.000000	13289.670000	17.452582	0.778525	2.048901	-13.912115	-5.558357	-1.391071	-1.928461	1.409467	-28.719320	-6.622840	10.636220	0.942625	-0.262206	0.191711	-1.000000	-1.000000	-1.000000	-1.000000	-1.000000	-1.000000	-1.000000	60.344828	0.000000	-1.000000	-1.000000	1003861.000000	1772739405.473184
-8305.830000	-13053.915000	-12493.935000	414.045000	-10937.835000	-8461.440000	-11290.050000	13278.105000	12.021711	8.562108	12.066551	-7.182573	2.421561	4.856728	0.304042	-0.740759	-28.719320	-6.622840	10.636220	0.942625	-0.262206	0.191711	-1.000000	-1.000000	-1.000000	-1.000000	-1.000000	-1.000000	-1.000000	60.344828	0.000000	-1.000000	-1.000000	1003862.000000	1772739405.473192
-8257.590000	-12989.340000	-12431.025000	483.345000	-10869.255000	-8394.795000	-11253.555000	13297.680000	-1.777633	11.680176	14.843152	-2.078529	6.117585	6.439937	0.347736	-4.910737	-28.719320	-6.622840	10.636220	0.942625	-0.262206	0.191711	-1.000000	-1.000000	-1.000000	-1.000000	-1.000000	-1.000000	-1.000000	60.344828	0.000000	-1.000000	-1.000000	1003863.000000	1772739405.479306
-8249.130000	-12989.340000	-12459.240000	489.915000	-10853.190000	-8372.610000	-11248.830000	13277.610000	-10.367417	11.903235	11.663223	3.105252	7.450285	5.856244	-0.302783	-7.982760	-28.719320	-6.622840	10.636220	0.942625	-0.262206	0.191711	-1.000000	-1.000000	-1.000000	-1.000000	-1.000000	-1.000000	-1.000000	60.344828	0.000000	-1.000000	-1.000000	1003864.000000	1772739405.479314
-8325.225000	-13057.380000	-12526.560000	421.470000	-10907.370000	-8418.780000	-11304.945000	13174.020000	-9.000904	10.658223	4.875706	8.796904	9.019931	5.954383	-0.439638	-10.096011	-28.719320	-6.622840	10.636220	0.942625	-0.262206	0.191711	-1.000000	-1.000000	-1.000000	-1.000000	-1.000000	-1.000000	-1.000000	60.344828	0.000000	-1.000000	-1.000000	1003865.000000	1772739405.481188
-8320.095000	-13024.755000	-12442.815000	455.760000	-10861.740000	-8371.395000	-11295.315000	13222.530000	-4.272087	6.705864	-2.653834	11.558552	9.399359	5.384289	-1.834095	-13.591802	-28.719320	-6.622840	10.636220	0.942625	-0.262206	0.191711	-1.000000	-1.000000	-1.000000	-1.000000	-1.000000	-1.000000	-1.000000	60.344828	0.000000	-1.000000	-1.000000	1003866.000000	1772739405.481196
-8269.830000	-12972.555000	-12375.045000	478.215000	-10856.880000	-8367.615000	-11292.075000	13272.210000	-2.765707	1.719733	-3.967468	11.089585	7.697724	3.423800	-4.574418	-15.201449	-28.719320	-6.622840	10.636220	0.942625	-0.262206	0.191711	-1.000000	-1.000000	-1.000000	-1.000000	-1.000000	-1.000000	-1.000000	60.344828	0.000000	-1.000000	-1.000000	1003867.000000	1772739405.486531
-8201.430000	-12932.955000	-12362.490000	519.975000	-10842.300000	-8355.915000	-11261.565000	13256.595000	-2.160934	0.139399	4.669267	10.784008	5.141089	1.700178	-5.056695	-8.097018	-28.719320	-6.622840	10.636220	0.942625	-0.262206	0.191711	-1.000000	-1.000000	-1.000000	-1.000000	-1.000000	-1.000000	-1.000000	60.344828	0.000000	-1.000000	-1.000000	1003868.000000	1772739405.486540
-8227.890000	-12967.920000	-12394.890000	511.470000	-10864.800000	-8400.780000	-11302.920000	13229.280000	3.749573	2.055896	15.557488	11.459745	2.155803	0.667859	-1.062309	6.938446	-28.719320	-6.622840	10.636220	0.942625	-0.262206	0.191711	-1.000000	-1.000000	-1.000000	-1.000000	-1.000000	-1.000000	-1.000000	60.344828	0.000000	-1.000000	-1.000000	1003869.000000	1772739405.497308
-8281.440000	-13025.070000	-12462.345000	449.280000	-10913.445000	-8447.265000	-11300.400000	13299.480000	13.100471	1.476323	16.357526	9.565414	-2.063118	-1.243409	4.561844	22.337018	-28.719320	-6.622840	10.636220	0.942625	-0.262206	0.191711	-1.000000	-1.000000	-1.000000	-1.000000	-1.000000	-1.000000	-1.000000	60.344828	0.000000	-1.000000	-1.000000	1003870.000000	1772739405.497316
-8288.190000	-13049.595000	-12510.270000	420.795000	-10924.830000	-8446.140000	-11274.075000	13304.565000	15.687907	-6.978206	1.748256	0.541735	-8.644849	-5.748429	7.478007	31.874584	-29.924860	-7.675780	12.436900	0.928342	-0.251708	0.192321	-1.000000	-1.000000	-1.000000	-1.000000	-1.000000	-1.000000	-1.000000	60.344828	0.000000	-1.000000	-1.000000	1003871.000000	1772739405.497326
-8310.645000	-13069.440000	-12503.340000	425.880000	-10922.445000	-8443.800000	-11294.595000	13279.680000	5.574259	-21.397367	-22.308247	-15.540237	-17.172405	-12.556471	6.006082	31.027938	-29.924860	-7.675780	12.436900	0.928342	-0.251708	0.192321	-1.000000	-1.000000	-1.000000	-1.000000	-1.000000	-1.000000	-1.000000	60.344828	0.000000	-1.000000	-1.000000	1003872.000000	1772739405.497329
-8301.420000	-13055.040000	-12449.160000	461.700000	-10886.355000	-8406.630000	-11284.965000	13262.265000	-11.222309	-31.885885	-39.807671	-29.699149	-22.455935	-17.288505	1.363635	17.963070	-29.924860	-7.675780	12.436900	0.928342	-0.251708	0.192321	-1.000000	-1.000000	-1.000000	-1.000000	-1.000000	-1.000000	-1.000000	60.344828	0.000000	-1.000000	-1.000000	1003873.000000	1772739405.497333
-8294.400000	-13033.035000	-12431.295000	486.180000	-10862.055000	-8378.820000	-11288.250000	13230.720000	-21.468128	-26.878408	-34.986415	-29.130581	-16.787207	-13.314548	-2.666745	-2.202433	-29.924860	-7.675780	12.436900	0.928342	-0.251708	0.192321	-1.000000	-1.000000	-1.000000	-1.000000	-1.000000	-1.000000	-1.000000	60.344828	0.000000	-1.000000	-1.000000	1003874.000000	1772739405.497337
-8260.605000	-13003.110000	-12410.955000	491.805000	-10867.635000	-8387.415000	-11285.865000	13295.070000	-17.232480	-4.781707	-9.121306	-10.991963	0.014654	-0.077975	-3.046024	-20.617028	-29.924860	-7.675780	12.436900	0.928342	-0.251708	0.192321	-1.000000	-1.000000	-1.000000	-1.000000	-1.000000	-1.000000	-1.000000	60.344828	0.000000	-1.000000	-1.000000	1003875.000000	1772739405.512093
-8201.655000	-12954.645000	-12374.100000	508.365000	-10864.845000	-8395.515000	-11275.245000	13346.730000	-2.767798	22.306052	19.743792	12.933260	17.620954	13.859708	-0.850315	-29.530889	-29.924860	-7.675780	12.436900	0.928342	-0.251708	0.192321	-1.000000	-1.000000	-1.000000	-1.000000	-1.000000	-1.000000	-1.000000	60.344828	0.000000	-1.000000	-1.000000	1003876.000000	1772739405.512104
-8271.270000	-13015.215000	-12419.505000	492.930000	-10856.250000	-8381.520000	-11273.130000	13277.070000	11.031022	38.435016	34.665844	27.345435	25.575203	20.012918	1.242457	-25.427932	-29.924860	-7.675780	12.436900	0.928342	-0.251708	0.192321	-1.000000	-1.000000	-1.000000	-1.000000	-1.000000	-1.000000	-1.000000	60.344828	0.000000	-1.000000	-1.000000	1003877.000000	1772739405.512116
-8292.420000	-13056.255000	-12479.625000	449.055000	-10877.805000	-8398.035000	-11282.220000	13254.750000	15.483034	34.843832	30.285295	25.273776	21.847789	17.842023	2.217375	-13.307035	-29.924860	-7.675780	12.436900	0.928342	-0.251708	0.192321	-1.000000	-1.000000	-1.000000	-1.000000	-1.000000	-1.000000	-1.000000	60.344828	0.000000	-1.000000	-1.000000	1003878.000000	1772739405.512120
-8278.020000	-13008.645000	-12459.285000	445.590000	-10878.795000	-8406.315000	-11281.635000	13257.405000	10.408592	16.030463	12.979224	11.155872	11.222034	11.548832	1.937969	-2.813468	-29.924860	-7.675780	12.436900	0.928342	-0.251708	0.192321	-1.000000	-1.000000	-1.000000	-1.000000	-1.000000	-1.000000	-1.000000	60.344828	0.000000	-1.000000	-1.000000	1003879.000000	1772739405.512125
-8252.595000	-12943.665000	-12400.245000	479.160000	-10845.000000	-8374.455000	-11268.135000	13260.105000	2.835325	-3.194943	-3.716376	-4.202112	-0.226780	3.911685	-0.035209	1.614291	-29.924860	-7.675780	12.436900	0.928342	-0.251708	0.192321	-1.000000	-1.000000	-1.000000	-1.000000	-1.000000	-1.000000	-1.000000	60.344828	0.000000	-1.000000	-1.000000	1003880.000000	1772739405.512130
-8279.190000	-12974.490000	-12448.440000	455.310000	-10885.770000	-8408.115000	-11310.165000	13189.815000	-1.498185	-11.448451	-10.664734	-12.730474	-9.058860	-4.439402	-3.394867	2.184895	-28.963480	-8.545600	13.535620	0.917234	-0.248840	0.190734	-1.000000	-1.000000	-1.000000	-1.000000	-1.000000	-1.000000	-1.000000	60.344828	0.000000	-1.000000	-1.000000	1003881.000000	1772739405.513390
-8303.850000	-12989.070000	-12453.885000	494.955000	-10858.860000	-8378.145000	-11287.845000	13195.440000	-2.724436	-10.181890	-10.437382	-13.279183	-14.800890	-12.694688	-6.446048	2.479869	-28.963480	-8.545600	13.535620	0.917234	-0.248840	0.190734	-1.000000	-1.000000	-1.000000	-1.000000	-1.000000	-1.000000	-1.000000	60.344828	0.000000	-1.000000	-1.000000	1003882.000000	1772739405.513398
-8248.680000	-12958.020000	-12360.105000	561.735000	-10799.415000	-8330.940000	-11286.495000	13204.620000	-3.179349	-7.443575	-8.736432	-7.535875	-16.182939	-17.561623	-6.674378	4.686383	-28.963480	-8.545600	13.535620	0.917234	-0.248840	0.190734	-1.000000	-1.000000	-1.000000	-1.000000	-1.000000	-1.000000	-1.000000	60.344828	0.000000	-1.000000	-1.000000	1003883.000000	1772739405.517137
-8246.655000	-13018.095000	-12421.890000	480.555000	-10870.740000	-8393.760000	-11294.280000	13306.320000	-3.717926	-8.795959	-6.829297	1.126598	-11.686795	-15.649007	-3.204376	8.805692	-28.963480	-8.545600	13.535620	0.917234	-0.248840	0.190734	-1.000000	-1.000000	-1.000000	-1.000000	-1.000000	-1.000000	-1.000000	60.344828	0.000000	-1.000000	-1.000000	1003884.000000	1772739405.517146
-8308.980000	-13064.580000	-12452.175000	459.360000	-10890.495000	-8406.855000	-11258.190000	13316.040000	-5.542233	-15.676609	-6.244417	5.263770	-4.984870	-9.025546	1.922560	13.745644	-28.963480	-8.545600	13.535620	0.917234	-0.248840	0.190734	-1.000000	-1.000000	-1.000000	-1.000000	-1.000000	-1.000000	-1.000000	60.344828	0.000000	-1.000000	-1.000000	1003885.000000	1772739405.521096
-8302.455000	-13057.830000	-12465.270000	442.260000	-10911.240000	-8437.140000	-11266.695000	13292.595000	-8.628790	-22.925297	-7.623833	0.719753	-1.404357	-2.759760	6.532740	18.074311	-28.963480	-8.545600	13.535620	0.917234	-0.248840	0.190734	-1.000000	-1.000000	-1.000000	-1.000000	-1.000000	-1.000000	-1.000000	60.344828	0.000000	-1.000000	-1.000000	1003886.000000	1772739405.521106
-8300.520000	-13061.655000	-12492.720000	429.705000	-10911.555000	-8440.875000	-11263.680000	13318.020000	-8.430127	-20.434437	-6.524625	-6.595930	-0.502297	1.492749	9.244675	18.531133	-28.963480	-8.545600	13.535620	0.917234	-0.248840	0.190734	-1.000000	-1.000000	-1.000000	-1.000000	-1.000000	-1.000000	-1.000000	60.344828	0.000000	-1.000000	-1.000000	1003887.000000	1772739405.526318
-8270.865000	-13044.195000	-12492.360000	440.910000	-10891.215000	-8417.205000	-11261.340000	13326.705000	-1.725579	-5.482252	-0.598990	-8.513118	1.559771	5.154398	8.425853	12.136824	-28.963480	-8.545600	13.535620	0.917234	-0.248840	0.190734	-1.000000	-1.000000	-1.000000	-1.000000	-1.000000	-1.000000	-1.000000	60.344828	0.000000	-1.000000	-1.000000	1003888.000000	1772739405.526326
-8305.020000	-13020.570000	-12442.815000	475.470000	-10867.680000	-8392.005000	-11254.275000	13283.145000	7.796438	13.434933	6.757000	-3.139200	6.223543	9.161542	3.920333	-0.205603	-28.963480	-8.545600	13.535620	0.917234	-0.248840	0.190734	-1.000000	-1.000000	-1.000000	-1.000000	-1.000000	-1.000000	-1.000000	60.344828	0.000000	-1.000000	-1.000000	1003889.000000	1772739405.531792
-8312.535000	-13027.995000	-12426.615000	477.180000	-10870.515000	-8390.205000	-11263.860000	13272.795000	13.649382	26.889166	13.046418	6.086149	11.795421	12.738984	-1.624680	-13.670871	-28.963480	-8.545600	13.535620	0.917234	-0.248840	0.190734	-1.000000	-1.000000	-1.000000	-1.000000	-1.000000	-1.000000	-1.000000	60.344828	0.000000	-1.000000	-1.000000	1003890.000000	1772739405.531801
-8273.430000	-13018.680000	-12457.845000	479.880000	-10864.080000	-8385.165000	-11294.550000	13249.755000	13.207569	30.471294	16.510440	12.946772	14.347579	13.170002	-5.942172	-22.575935	-22.188040	-10.544660	14.054460	0.915220	-0.249572	0.191589	-1.000000	-1.000000	-1.000000	-1.000000	-1.000000	-1.000000	-1.000000	60.344828	0.000000	-1.000000	-1.000000	1003891.000000	1772739405.533168
-8235.720000	-13014.630000	-12483.540000	461.610000	-10880.505000	-8400.600000	-11296.485000	13270.590000	8.408583	23.613845	12.126862	11.752477	10.156273	7.827707	-9.084125	-24.905161	-22.188040	-10.544660	14.054460	0.915220	-0.249572	0.191589	-1.000000	-1.000000	-1.000000	-1.000000	-1.000000	-1.000000	-1.000000	60.344828	0.000000	-1.000000	-1.000000	1003892.000000	1772739405.533176
-8225.055000	-12997.890000	-12419.145000	487.485000	-10866.465000	-8393.310000	-11279.970000	13299.120000	2.463821	10.242875	-0.010267	3.940896	1.164332	-1.023897	-10.470446	-22.327578	-22.188040	-10.544660	14.054460	0.915220	-0.249572	0.191589	-1.000000	-1.000000	-1.000000	-1.000000	-1.000000	-1.000000	-1.000000	60.344828	0.000000	-1.000000	-1.000000	1003893.000000	1772739405.537030
-8265.420000	-13001.895000	-12376.755000	493.155000	-10863.585000	-8397.315000	-11270.655000	13261.950000	-1.964771	-2.172004	-8.826760	-2.492043	-5.646902	-7.156478	-8.353825	-15.681950	-22.188040	-10.544660	14.054460	0.915220	-0.249572	0.191589	-1.000000	-1.000000	-1.000000	-1.000000	-1.000000	-1.000000	-1.000000	60.344828	0.000000	-1.000000	-1.000000	1003894.000000	1772739405.537038
-8260.605000	-13003.920000	-12411.540000	479.880000	-10864.170000	-8394.300000	-11238.750000	13253.805000	-4.229719	-8.729249	-5.545316	-2.533235	-6.044817	-6.939240	-2.088983	-4.994264	-22.188040	-10.544660	14.054460	0.915220	-0.249572	0.191589	-1.000000	-1.000000	-1.000000	-1.000000	-1.000000	-1.000000	-1.000000	60.344828	0.000000	-1.000000	-1.000000	1003895.000000	1772739405.563866
-8247.870000	-12981.330000	-12402.405000	493.605000	-10853.955000	-8386.470000	-11256.165000	13233.870000	-5.576333	-10.226867	4.975154	1.569822	-2.005271	-2.092796	6.442948	6.722343	-22.188040	-10.544660	14.054460	0.915220	-0.249572	0.191589	-1.000000	-1.000000	-1.000000	-1.000000	-1.000000	-1.000000	-1.000000	60.344828	0.000000	-1.000000	-1.000000	1003896.000000	1772739405.563878
-8215.155000	-12960.945000	-12391.515000	497.925000	-10859.625000	-8396.505000	-11292.660000	13261.185000	-6.366735	-9.930652	11.269394	4.308830	1.172120	2.067712	11.969644	15.285758	-22.188040	-10.544660	14.054460	0.915220	-0.249572	0.191589	-1.000000	-1.000000	-1.000000	-1.000000	-1.000000	-1.000000	-1.000000	60.344828	0.000000	-1.000000	-1.000000	1003897.000000	1772739405.563890
-8257.095000	-13028.535000	-12458.340000	448.470000	-10892.250000	-8413.290000	-11290.140000	13304.835000	-5.549940	-10.641286	5.959620	1.240856	-0.689188	0.837030	9.933524	20.865591	-22.188040	-10.544660	14.054460	0.915220	-0.249572	0.191589	-1.000000	-1.000000	-1.000000	-1.000000	-1.000000	-1.000000	-1.000000	60.344828	0.000000	-1.000000	-1.000000	1003898.000000	1772739405.563895
-8318.790000	-13069.080000	-12493.575000	418.455000	-10910.565000	-8416.440000	-11292.570000	13269.870000	-4.341785	-13.985668	-10.226160	-8.404730	-7.478273	-5.536820	2.382357	25.193718	-22.188040	-10.544660	14.054460	0.915220	-0.249572	0.191589	-1.000000	-1.000000	-1.000000	-1.000000	-1.000000	-1.000000	-1.000000	60.344828	0.000000	-1.000000	-1.000000	1003899.000000	1772739405.563900
-8302.230000	-13000.545000	-12432.330000	468.225000	-10867.635000	-8383.680000	-11286.675000	13175.460000	-6.496132	-17.562658	-27.101020	-19.177102	-14.226451	-11.697801	-4.119891	23.526635	-22.188040	-10.544660	14.054460	0.915220	-0.249572	0.191589	-1.000000	-1.000000	-1.000000	-1.000000	-1.000000	-1.000000	-1.000000	60.344828	0.000000	-1.000000	-1.000000	1003900.000000	1772739405.563903
-8278.605000	-12985.605000	-12415.365000	470.205000	-10844.415000	-8361.315000	-11279.745000	13191.705000	-11.489758	-14.500270	-30.481191	-21.295540	-13.548169	-10.936010	-5.287773	8.768839	-13.840820	-8.133580	13.184640	0.914060	-0.252502	0.182434	-1.000000	-1.000000	-1.000000	-1.000000	-1.000000	-1.000000	-1.000000	60.344828	0.000000	-1.000000	-1.000000	1003901.000000	1772739405.563908
-8279.640000	-13047.165000	-12455.055000	423.945000	-10897.425000	-8410.275000	-11283.615000	13274.010000	-12.466625	-2.488643	-16.712728	-11.074576	-3.369683	-1.917802	-2.296259	-13.879159	-13.840820	-8.133580	13.184640	0.914060	-0.252502	0.182434	-1.000000	-1.000000	-1.000000	-1.000000	-1.000000	-1.000000	-1.000000	60.344828	0.000000	-1.000000	-1.000000	1003902.000000	1772739405.563912
-8273.520000	-13027.725000	-12437.415000	457.560000	-10890.135000	-8413.605000	-11249.910000	13271.400000	-3.979886	11.438705	3.628821	4.631986	9.000289	8.523394	1.037834	-27.089655	-13.840820	-8.133580	13.184640	0.914060	-0.252502	0.182434	-1.000000	-1.000000	-1.000000	-1.000000	-1.000000	-1.000000	-1.000000	60.344828	0.000000	-1.000000	-1.000000	1003903.000000	1772739405.563917
-8221.365000	-13029.930000	-12479.355000	433.305000	-10899.405000	-8424.630000	-11254.230000	13376.655000	11.668727	19.513613	18.918339	17.312483	15.274005	12.886311	2.632766	-19.724233	-13.840820	-8.133580	13.184640	0.914060	-0.252502	0.182434	-1.000000	-1.000000	-1.000000	-1.000000	-1.000000	-1.000000	-1.000000	60.344828	0.000000	-1.000000	-1.000000	1003904.000000	1772739405.563920
-8225.145000	-13025.745000	-12481.065000	388.710000	-10923.120000	-8446.590000	-11290.230000	13306.995000	25.780108	19.015763	23.839709	21.374469	12.969027	9.282884	2.149477	2.060304	-13.840820	-8.133580	13.184640	0.914060	-0.252502	0.182434	-1.000000	-1.000000	-1.000000	-1.000000	-1.000000	-1.000000	-1.000000	60.344828	0.000000	-1.000000	-1.000000	1003905.000000	1772739405.563925
-8246.925000	-13010.490000	-12445.740000	415.620000	-10908.990000	-8425.395000	-11273.265000	13289.940000	29.022401	11.591114	18.878269	14.870420	4.638477	0.959516	0.111522	19.951843	-13.840820	-8.133580	13.184640	0.914060	-0.252502	0.182434	-1.000000	-1.000000	-1.000000	-1.000000	-1.000000	-1.000000	-1.000000	60.344828	0.000000	-1.000000	-1.000000	1003906.000000	1772739405.563928
-8300.115000	-13045.545000	-12453.930000	463.320000	-10893.915000	-8407.215000	-11277.270000	13271.400000	18.359793	2.834418	10.486128	4.236431	-3.152069	-5.523308	-1.597940	19.353156	-13.840820	-8.133580	13.184640	0.914060	-0.252502	0.182434	-1.000000	-1.000000	-1.000000	-1.000000	-1.000000	-1.000000	-1.000000	60.344828	0.000000	-1.000000	-1.000000	1003907.000000	1772739405.565112
-8265.015000	-12981.330000	-12399.165000	532.890000	-10839.645000	-8371.170000	-11280.870000	13265.145000	-0.066707	-1.763053	5.483533	-0.115706	-4.196244	-5.157621	-1.631062	2.970129	-13.840820	-8.133580	13.184640	0.914060	-0.252502	0.182434	-1.000000	-1.000000	-1.000000	-1.000000	-1.000000	-1.000000	-1.000000	60.344828	0.000000	-1.000000	-1.000000	1003908.000000	1772739405.565119
-8234.010000	-12990.060000	-12414.150000	510.885000	-10850.310000	-8378.370000	-11283.570000	13261.095000	-15.800593	-1.872350	4.033586	3.719979	1.065706	0.638896	-0.735326	-14.129659	-13.840820	-8.133580	13.184640	0.914060	-0.252502	0.182434	-1.000000	-1.000000	-1.000000	-1.000000	-1.000000	-1.000000	-1.000000	60.344828	0.000000	-1.000000	-1.000000	1003909.000000	1772739405.570926
-8249.715000	-13025.565000	-12444.840000	477.585000	-10864.305000	-8384.220000	-11269.170000	13280.535000	-22.015617	-1.624694	0.916700	7.382855	6.142440	6.016409	-0.170413	-20.905493	-13.840820	-8.133580	13.184640	0.914060	-0.252502	0.182434	-1.000000	-1.000000	-1.000000	-1.000000	-1.000000	-1.000000	-1.000000	60.344828	0.000000	-1.000000	-1.000000	1003910.000000	1772739405.570935
-8258.310000	-13004.460000	-12410.730000	514.035000	-10835.100000	-8368.245000	-11244.960000	13275.450000	-18.773468	-3.548641	-6.390744	3.787853	6.344498	7.318303	0.014158	-17.404897	-6.867000	-3.479280	12.421640	0.910703	-0.253722	0.171447	-1.000000	-1.000000	-1.000000	-1.000000	-1.000000	-1.000000	-1.000000	60.344828	0.000000	-1.000000	-1.000000	1003911.000000	1772739405.573795
-8259.930000	-12974.130000	-12387.780000	526.905000	-10829.790000	-8371.440000	-11238.075000	13263.525000	-10.531339	-5.272906	-12.924790	-4.893088	3.012566	5.436154	0.315328	-9.494629	-6.867000	-3.479280	12.421640	0.910703	-0.253722	0.171447	-1.000000	-1.000000	-1.000000	-1.000000	-1.000000	-1.000000	-1.000000	60.344828	0.000000	-1.000000	-1.000000	1003912.000000	1772739405.573804
-8274.600000	-12972.915000	-12393.990000	500.085000	-10851.930000	-8382.420000	-11236.005000	13251.195000	-2.938903	-4.148625	-12.397538	-12.224888	-1.153436	1.993193	0.821113	-2.781244	-6.867000	-3.479280	12.421640	0.910703	-0.253722	0.171447	-1.000000	-1.000000	-1.000000	-1.000000	-1.000000	-1.000000	-1.000000	60.344828	0.000000	-1.000000	-1.000000	1003913.000000	1772739405.579760
-8256.870000	-12988.890000	-12424.455000	441.090000	-10897.965000	-8418.915000	-11267.865000	13256.010000	0.882221	-1.767112	-6.103453	-15.553371	-6.076165	-2.966458	1.401755	1.569992	-6.867000	-3.479280	12.421640	0.910703	-0.253722	0.171447	-1.000000	-1.000000	-1.000000	-1.000000	-1.000000	-1.000000	-1.000000	60.344828	0.000000	-1.000000	-1.000000	1003914.000000	1772739405.579769
-8258.355000	-13047.885000	-12508.290000	389.700000	-10915.965000	-8423.955000	-11290.725000	13272.345000	3.297275	-1.798729	-2.143089	-17.282871	-12.218924	-9.399709	0.781205	6.673456	-6.867000	-3.479280	12.421640	0.910703	-0.253722	0.171447	-1.000000	-1.000000	-1.000000	-1.000000	-1.000000	-1.000000	-1.000000	60.344828	0.000000	-1.000000	-1.000000	1003915.000000	1772739405.582545
-8248.410000	-13069.980000	-12495.915000	436.005000	-10877.580000	-8382.105000	-11274.390000	13282.470000	8.209583	-5.549737	-5.674895	-19.184729	-17.125929	-14.765921	-2.051542	14.002211	-6.867000	-3.479280	12.421640	0.910703	-0.253722	0.171447	-1.000000	-1.000000	-1.000000	-1.000000	-1.000000	-1.000000	-1.000000	60.344828	0.000000	-1.000000	-1.000000	1003916.000000	1772739405.582552
-8268.660000	-13041.540000	-12424.905000	497.250000	-10853.820000	-8375.670000	-11291.265000	13182.030000	13.679195	-10.669233	-11.820732	-17.224909	-16.214436	-14.752774	-5.013475	19.447438	-6.867000	-3.479280	12.421640	0.910703	-0.253722	0.171447	-1.000000	-1.000000	-1.000000	-1.000000	-1.000000	-1.000000	-1.000000	60.344828	0.000000	-1.000000	-1.000000	1003917.000000	1772739405.585264
-8243.505000	-12979.350000	-12400.245000	533.430000	-10822.230000	-8356.545000	-11269.395000	13232.880000	13.455141	-11.328577	-10.234790	-5.158607	-7.025070	-7.579594	-5.271810	16.608563	-6.867000	-3.479280	12.421640	0.910703	-0.253722	0.171447	-1.000000	-1.000000	-1.000000	-1.000000	-1.000000	-1.000000	-1.000000	60.344828	0.000000	-1.000000	-1.000000	1003918.000000	1772739405.585272
-8279.730000	-12988.530000	-12468.645000	475.650000	-10867.455000	-8400.960000	-11285.505000	13289.670000	5.994716	-2.054829	1.973995	15.355696	7.374366	3.521926	-2.692906	5.974174	-6.867000	-3.479280	12.421640	0.910703	-0.253722	0.171447	-1.000000	-1.000000	-1.000000	-1.000000	-1.000000	-1.000000	-1.000000	60.344828	0.000000	-1.000000	-1.000000	1003919.000000	1772739405.592052
-8352.675000	-13044.420000	-12525.570000	421.020000	-10914.210000	-8442.270000	-11285.100000	13236.930000	-5.019030	12.754701	14.345270	30.771948	17.848821	11.408540	0.180156	-4.761996	-6.867000	-3.479280	12.421640	0.910703	-0.253722	0.171447	-1.000000	-1.000000	-1.000000	-1.000000	-1.000000	-1.000000	-1.000000	60.344828	0.000000	-1.000000	-1.000000	1003920.000000	1772739405.592059
-8277.525000	-13043.790000	-12480.570000	442.620000	-10900.485000	-8428.905000	-11264.580000	13242.105000	-14.772256	20.145812	15.831471	28.692351	16.757529	11.000559	1.391733	-11.050237	-4.150720	-3.647140	9.461200	0.901304	-0.250182	0.162780	-1.000000	-1.000000	-1.000000	-1.000000	-1.000000	-1.000000	-1.000000	60.344828	0.000000	-1.000000	-1.000000	1003921.000000	1772739405.593197
-8253.225000	-13056.075000	-12506.895000	431.415000	-10901.790000	-8421.705000	-11262.735000	13277.385000	-16.639476	13.824563	8.298302	12.788759	7.264565	5.315730	2.394237	-12.334823	-4.150720	-3.647140	9.461200	0.901304	-0.250182	0.162780	-1.000000	-1.000000	-1.000000	-1.000000	-1.000000	-1.000000	-1.000000	60.344828	0.000000	-1.000000	-1.000000	1003922.000000	1772739405.593204
-8271.675000	-13017.960000	-12490.740000	456.030000	-10876.365000	-8395.515000	-11266.425000	13210.875000	-7.523246	0.874746	1.168000	-2.447338	-0.460428	1.803492	5.286120	-8.784961	-4.150720	-3.647140	9.461200	0.901304	-0.250182	0.162780	-1.000000	-1.000000	-1.000000	-1.000000	-1.000000	-1.000000	-1.000000	60.344828	0.000000	-1.000000	-1.000000	1003923.000000	1772739405.598497
-8237.115000	-12989.970000	-12394.395000	497.025000	-10852.560000	-8368.920000	-11253.465000	13226.445000	6.865222	-6.073553	2.129881	-6.860371	-0.430692	3.799820	9.071332	-3.966985	-4.150720	-3.647140	9.461200	0.901304	-0.250182	0.162780	-1.000000	-1.000000	-1.000000	-1.000000	-1.000000	-1.000000	-1.000000	60.344828	0.000000	-1.000000	-1.000000	1003924.000000	1772739405.598506
-8184.240000	-12976.020000	-12348.540000	490.455000	-10875.195000	-8396.550000	-11269.215000	13340.430000	18.623285	-1.511130	12.127437	-2.480383	3.829558	7.231368	10.434003	0.732290	-4.150720	-3.647140	9.461200	0.901304	-0.250182	0.162780	-1.000000	-1.000000	-1.000000	-1.000000	-1.000000	-1.000000	-1.000000	60.344828	0.000000	-1.000000	-1.000000	1003925.000000	1772739405.601091
-8238.195000	-12994.290000	-12391.560000	487.170000	-10871.100000	-8402.670000	-11284.290000	13279.140000	22.350548	6.956559	20.869965	0.325218	4.065647	5.379909	6.626941	8.945345	-4.150720	-3.647140	9.461200	0.901304	-0.250182	0.162780	-1.000000	-1.000000	-1.000000	-1.000000	-1.000000	-1.000000	-1.000000	60.344828	0.000000	-1.000000	-1.000000	1003926.000000	1772739405.601098
-8248.095000	-13009.005000	-12438.090000	463.095000	-10876.545000	-8405.730000	-11276.235000	13287.105000	14.535200	7.632279	15.107579	-4.582166	-2.455774	-2.742309	-1.894940	16.721809	-4.150720	-3.647140	9.461200	0.901304	-0.250182	0.162780	-1.000000	-1.000000	-1.000000	-1.000000	-1.000000	-1.000000	-1.000000	60.344828	0.000000	-1.000000	-1.000000	1003927.000000	1772739405.606942
-8267.850000	-13047.840000	-12479.040000	425.160000	-10911.105000	-8435.610000	-11266.020000	13295.430000	-1.865333	-2.314153	-5.567895	-13.065633	-10.387636	-11.031175	-10.633705	14.080711	-4.150720	-3.647140	9.461200	0.901304	-0.250182	0.162780	-1.000000	-1.000000	-1.000000	-1.000000	-1.000000	-1.000000	-1.000000	60.344828	0.000000	-1.000000	-1.000000	1003928.000000	1772739405.606948
-8305.920000	-13075.335000	-12487.365000	423.765000	-10915.245000	-8442.270000	-11265.210000	13275.540000	-17.380141	-15.690567	-28.159421	-17.313275	-13.438944	-13.394854	-14.414813	0.968395	-4.150720	-3.647140	9.461200	0.901304	-0.250182	0.162780	-1.000000	-1.000000	-1.000000	-1.000000	-1.000000	-1.000000	-1.000000	60.344828	0.000000	-1.000000	-1.000000	1003929.000000	1772739405.609114
-8245.395000	-13026.645000	-12442.095000	461.655000	-10885.185000	-8419.140000	-11273.490000	13257.540000	-24.806362	-22.588183	-38.504022	-12.920705	-9.453587	-8.771642	-11.949172	-13.748571	-4.150720	-3.647140	9.461200	0.901304	-0.250182	0.162780	-1.000000	-1.000000	-1.000000	-1.000000	-1.000000	-1.000000	-1.000000	60.344828	0.000000	-1.000000	-1.000000	1003930.000000	1772739405.609118
-8221.365000	-12986.865000	-12417.120000	488.250000	-10860.615000	-8396.685000	-11275.290000	13256.100000	-21.613265	-16.630986	-29.874825	-0.329813	0.103657	0.137444	-5.618366	-22.361439	-8.805020	-5.005280	2.548420	0.889036	-0.244872	0.151672	-1.000000	-1.000000	-1.000000	-1.000000	-1.000000	-1.000000	-1.000000	60.344828	0.000000	-1.000000	-1.000000	1003931.000000	1772739405.620764
-8247.375000	-13025.655000	-12445.920000	467.505000	-10872.045000	-8388.405000	-11261.070000	13318.785000	-9.090457	-0.294018	-7.060087	14.444598	10.489451	8.842964	1.728246	-19.884293	-8.805020	-5.005280	2.548420	0.889036	-0.244872	0.151672	-1.000000	-1.000000	-1.000000	-1.000000	-1.000000	-1.000000	-1.000000	60.344828	0.000000	-1.000000	-1.000000	1003932.000000	1772739405.620771
-8217.945000	-12990.105000	-12405.330000	500.535000	-10845.855000	-8362.620000	-11257.965000	13300.470000	5.727713	15.516674	15.021401	21.840595	15.261971	12.780117	7.884176	-6.501376	-8.805020	-5.005280	2.548420	0.889036	-0.244872	0.151672	-1.000000	-1.000000	-1.000000	-1.000000	-1.000000	-1.000000	-1.000000	60.344828	0.000000	-1.000000	-1.000000	1003933.000000	1772739405.620781
-8227.620000	-12973.005000	-12388.500000	511.695000	-10834.560000	-8359.470000	-11273.445000	13204.755000	14.524871	21.730391	23.754833	17.177473	11.991326	10.737903	10.955097	7.577404	-8.805020	-5.005280	2.548420	0.889036	-0.244872	0.151672	-1.000000	-1.000000	-1.000000	-1.000000	-1.000000	-1.000000	-1.000000	60.344828	0.000000	-1.000000	-1.000000	1003934.000000	1772739405.620784
-8246.655000	-12990.375000	-12402.765000	504.045000	-10840.455000	-8373.195000	-11289.240000	13191.570000	14.628037	17.447614	19.223378	4.732332	3.829744	4.942477	9.578634	10.517977	-8.805020	-5.005280	2.548420	0.889036	-0.244872	0.151672	-1.000000	-1.000000	-1.000000	-1.000000	-1.000000	-1.000000	-1.000000	60.344828	0.000000	-1.000000	-1.000000	1003935.000000	1772739405.634392
-8254.980000	-13032.630000	-12454.020000	454.860000	-10883.385000	-8414.955000	-11272.770000	13261.320000	9.051958	6.457116	9.524032	-7.777724	-4.984777	-2.310618	4.068351	3.183739	-8.805020	-5.005280	2.548420	0.889036	-0.244872	0.151672	-1.000000	-1.000000	-1.000000	-1.000000	-1.000000	-1.000000	-1.000000	60.344828	0.000000	-1.000000	-1.000000	1003936.000000	1772739405.634401
-8227.125000	-13015.530000	-12444.255000	457.830000	-10884.780000	-8416.440000	-11239.155000	13316.805000	3.360019	-5.450257	1.494198	-14.724412	-11.219769	-8.853358	-2.262881	-2.152870	-8.805020	-5.005280	2.548420	0.889036	-0.244872	0.151672	-1.000000	-1.000000	-1.000000	-1.000000	-1.000000	-1.000000	-1.000000	60.344828	0.000000	-1.000000	-1.000000	1003937.000000	1772739405.634411
-8196.840000	-12991.770000	-12416.535000	484.470000	-10859.580000	-8391.240000	-11231.010000	13319.550000	1.885633	-11.696428	-2.112476	-13.927820	-12.302672	-11.580521	-5.030127	3.399178	-8.805020	-5.005280	2.548420	0.889036	-0.244872	0.151672	-1.000000	-1.000000	-1.000000	-1.000000	-1.000000	-1.000000	-1.000000	60.344828	0.000000	-1.000000	-1.000000	1003938.000000	1772739405.634414
-8212.680000	-13016.205000	-12435.975000	474.930000	-10861.020000	-8388.000000	-11259.855000	13279.680000	2.947453	-10.554000	-2.521189	-7.313735	-8.052903	-8.911841	-3.412576	15.144692	-8.805020	-5.005280	2.548420	0.889036	-0.244872	0.151672	-1.000000	-1.000000	-1.000000	-1.000000	-1.000000	-1.000000	-1.000000	60.344828	0.000000	-1.000000	-1.000000	1003939.000000	1772739405.634419
-8261.955000	-13000.815000	-12411.810000	503.325000	-10832.715000	-8357.535000	-11275.830000	13215.555000	0.495740	-6.633307	-2.790289	0.395245	-1.379413	-2.827261	-1.035269	19.705516	-8.805020	-5.005280	2.548420	0.889036	-0.244872	0.151672	-1.000000	-1.000000	-1.000000	-1.000000	-1.000000	-1.000000	-1.000000	60.344828	0.000000	-1.000000	-1.000000	1003940.000000	1772739405.634422
-8285.940000	-12964.410000	-12382.695000	529.920000	-10809.630000	-8335.080000	-11278.845000	13173.030000	-7.898738	-3.031319	-3.477955	5.972790	4.695822	3.318426	-1.510143	8.169904	-13.123600	-5.279960	-2.243220	0.884885	-0.246703	0.144836	-1.000000	-1.000000	-1.000000	-1.000000	-1.000000	-1.000000	-1.000000	60.344828	0.000000	-1.000000	-1.000000	1003941.000000	1772739405.634426
-8260.290000	-12992.310000	-12410.280000	499.635000	-10840.230000	-8361.225000	-11257.065000	13261.365000	-17.623192	0.422812	-4.120112	7.914080	7.894604	6.666188	-4.051188	-13.069424	-13.123600	-5.279960	-2.243220	0.884885	-0.246703	0.144836	-1.000000	-1.000000	-1.000000	-1.000000	-1.000000	-1.000000	-1.000000	60.344828	0.000000	-1.000000	-1.000000	1003942.000000	1772739405.634430
-8246.295000	-13093.380000	-12513.060000	396.450000	-10942.290000	-8456.535000	-11286.540000	13348.440000	-20.292994	0.882396	-7.160381	3.406938	4.688580	4.205598	-4.807598	-23.670656	-13.123600	-5.279960	-2.243220	0.884885	-0.246703	0.144836	-1.000000	-1.000000	-1.000000	-1.000000	-1.000000	-1.000000	-1.000000	60.344828	0.000000	-1.000000	-1.000000	1003943.000000	1772739405.641561
-8296.920000	-13095.225000	-12498.570000	409.680000	-10928.160000	-8448.840000	-11283.615000	13283.010000	-11.491122	-4.479128	-13.030003	-7.456236	-5.646589	-4.339868	-2.314761	-11.920208	-13.123600	-5.279960	-2.243220	0.884885	-0.246703	0.144836	-1.000000	-1.000000	-1.000000	-1.000000	-1.000000	-1.000000	-1.000000	60.344828	0.000000	-1.000000	-1.000000	1003944.000000	1772739405.641571
-8317.485000	-13086.270000	-12494.475000	394.830000	-10937.070000	-8462.115000	-11275.020000	13270.545000	3.413386	-10.272042	-14.642844	-16.081844	-15.032083	-12.155299	1.183692	8.140089	-13.123600	-5.279960	-2.243220	0.884885	-0.246703	0.144836	-1.000000	-1.000000	-1.000000	-1.000000	-1.000000	-1.000000	-1.000000	60.344828	0.000000	-1.000000	-1.000000	1003945.000000	1772739405.647130
-8293.005000	-13056.750000	-12490.650000	401.940000	-10927.395000	-8450.640000	-11266.380000	13273.650000	14.793182	-7.833887	-5.777035	-13.480284	-13.776292	-11.193913	3.096979	15.338342	-13.123600	-5.279960	-2.243220	0.884885	-0.246703	0.144836	-1.000000	-1.000000	-1.000000	-1.000000	-1.000000	-1.000000	-1.000000	60.344828	0.000000	-1.000000	-1.000000	1003946.000000	1772739405.647139
-8274.105000	-13035.690000	-12486.870000	440.955000	-10899.990000	-8427.195000	-11266.830000	13257.180000	17.858965	3.810513	9.227314	-0.534732	-1.736209	-1.293667	3.015906	5.915394	-13.123600	-5.279960	-2.243220	0.884885	-0.246703	0.144836	-1.000000	-1.000000	-1.000000	-1.000000	-1.000000	-1.000000	-1.000000	60.344828	0.000000	-1.000000	-1.000000	1003947.000000	1772739405.647148
-8255.205000	-13037.670000	-12458.970000	464.265000	-10877.760000	-8404.110000	-11268.270000	13234.455000	14.575275	17.405502	21.009550	15.114601	13.394224	11.179888	2.691247	-8.489600	-13.123600	-5.279960	-2.243220	0.884885	-0.246703	0.144836	-1.000000	-1.000000	-1.000000	-1.000000	-1.000000	-1.000000	-1.000000	60.344828	0.000000	-1.000000	-1.000000	1003948.000000	1772739405.647151
-8226.720000	-12997.935000	-12432.510000	479.295000	-10862.955000	-8388.405000	-11277.900000	13229.100000	10.603424	24.545497	24.325949	25.349297	23.169303	19.135674	3.393827	-15.370056	-13.123600	-5.279960	-2.243220	0.884885	-0.246703	0.144836	-1.000000	-1.000000	-1.000000	-1.000000	-1.000000	-1.000000	-1.000000	60.344828	0.000000	-1.000000	-1.000000	1003949.000000	1772739405.649072
-8239.185000	-12996.765000	-12419.640000	489.420000	-10852.155000	-8376.300000	-11271.195000	13250.430000	9.001145	21.315649	18.820731	24.690209	22.673641	18.507046	3.981111	-10.580610	-13.123600	-5.279960	-2.243220	0.884885	-0.246703	0.144836	-1.000000	-1.000000	-1.000000	-1.000000	-1.000000	-1.000000	-1.000000	60.344828	0.000000	-1.000000	-1.000000	1003950.000000	1772739405.649078
-8223.615000	-13014.630000	-12432.330000	466.875000	-10874.205000	-8394.255000	-11267.280000	13283.325000	6.680037	9.849954	7.765558	13.913625	13.293659	10.838412	3.000957	0.772460	-9.598540	-1.602300	-4.562740	0.886106	-0.258666	0.136535	-1.000000	-1.000000	-1.000000	-1.000000	-1.000000	-1.000000	-1.000000	60.344828	0.000000	-1.000000	-1.000000	1003951.000000	1772739405.656596
-8246.430000	-13018.950000	-12425.220000	479.970000	-10862.775000	-8391.420000	-11257.965000	13275.045000	0.219308	-3.119057	-2.512300	0.228948	1.660979	1.982797	1.184025	10.115206	-9.598540	-1.602300	-4.562740	0.886106	-0.258666	0.136535	-1.000000	-1.000000	-1.000000	-1.000000	-1.000000	-1.000000	-1.000000	60.344828	0.000000	-1.000000	-1.000000	1003952.000000	1772739405.656604
-8256.510000	-13019.265000	-12437.460000	470.385000	-10867.365000	-8399.475000	-11244.420000	13256.370000	-8.468536	-11.208529	-7.444200	-8.981353	-6.185085	-3.495542	0.089424	12.314361	-9.598540	-1.602300	-4.562740	0.886106	-0.258666	0.136535	-1.000000	-1.000000	-1.000000	-1.000000	-1.000000	-1.000000	-1.000000	60.344828	0.000000	-1.000000	-1.000000	1003953.000000	1772739405.657126
-8243.550000	-13021.200000	-12447.405000	455.850000	-10884.690000	-8417.745000	-11252.115000	13258.620000	-14.600419	-13.455558	-8.490436	-12.152384	-9.470046	-5.916571	-0.607730	7.772477	-9.598540	-1.602300	-4.562740	0.886106	-0.258666	0.136535	-1.000000	-1.000000	-1.000000	-1.000000	-1.000000	-1.000000	-1.000000	60.344828	0.000000	-1.000000	-1.000000	1003954.000000	1772739405.657130
-8259.570000	-13051.980000	-12476.475000	429.255000	-10907.010000	-8433.990000	-11264.490000	13274.460000	-15.987331	-13.607186	-10.056725	-12.954500	-11.520404	-8.544189	-2.623185	0.534869	-9.598540	-1.602300	-4.562740	0.886106	-0.258666	0.136535	-1.000000	-1.000000	-1.000000	-1.000000	-1.000000	-1.000000	-1.000000	60.344828	0.000000	-1.000000	-1.000000	1003955.000000	1772739405.662507
-8249.355000	-13025.520000	-12454.380000	450.720000	-10887.165000	-8409.510000	-11252.205000	13285.530000	-14.151945	-14.486808	-13.611684	-14.835926	-14.689283	-12.821570	-5.775143	-4.001166	-9.598540	-1.602300	-4.562740	0.886106	-0.258666	0.136535	-1.000000	-1.000000	-1.000000	-1.000000	-1.000000	-1.000000	-1.000000	60.344828	0.000000	-1.000000	-1.000000	1003956.000000	1772739405.662515
-8225.505000	-12977.145000	-12387.915000	525.375000	-10813.140000	-8336.115000	-11233.890000	13226.355000	-10.143798	-13.605941	-15.362817	-15.734460	-16.158965	-15.201285	-6.913278	-3.238890	-9.598540	-1.602300	-4.562740	0.886106	-0.258666	0.136535	-1.000000	-1.000000	-1.000000	-1.000000	-1.000000	-1.000000	-1.000000	60.344828	0.000000	-1.000000	-1.000000	1003957.000000	1772739405.665154
-8237.970000	-12996.315000	-12415.095000	519.255000	-10814.895000	-8334.180000	-11257.470000	13155.930000	-3.566536	-7.604020	-11.186837	-10.692844	-11.069997	-10.839765	-3.968344	-1.332887	-9.598540	-1.602300	-4.562740	0.886106	-0.258666	0.136535	-1.000000	-1.000000	-1.000000	-1.000000	-1.000000	-1.000000	-1.000000	60.344828	0.000000	-1.000000	-1.000000	1003958.000000	1772739405.665160
-8250.300000	-13036.185000	-12496.320000	464.265000	-10866.375000	-8384.400000	-11278.170000	13185.585000	3.772434	0.929170	-3.851811	-0.667362	-0.683746	-1.203798	0.362482	-4.306947	-9.598540	-1.602300	-4.562740	0.886106	-0.258666	0.136535	-1.000000	-1.000000	-1.000000	-1.000000	-1.000000	-1.000000	-1.000000	60.344828	0.000000	-1.000000	-1.000000	1003959.000000	1772739405.687114
-8246.835000	-13029.075000	-12472.155000	465.345000	-10876.455000	-8403.795000	-11277.090000	13231.260000	8.516389	7.254165	0.971521	7.900173	8.139914	6.808326	2.012583	-10.434827	-9.598540	-1.602300	-4.562740	0.886106	-0.258666	0.136535	-1.000000	-1.000000	-1.000000	-1.000000	-1.000000	-1.000000	-1.000000	60.344828	0.000000	-1.000000	-1.000000	1003960.000000	1772739405.687124
-8241.480000	-13013.370000	-12419.820000	453.420000	-10894.455000	-8424.135000	-11264.535000	13311.630000	10.078311	10.786537	4.231439	11.231597	10.867553	8.765073	0.749934	-10.310189	-1.327620	-0.045780	-10.971940	0.888425	-0.271728	0.133789	-1.000000	-1.000000	-1.000000	-1.000000	-1.000000	-1.000000	-1.000000	60.344828	0.000000	-1.000000	-1.000000	1003961.000000	1772739405.687136
-8244.630000	-13001.940000	-12432.105000	439.470000	-10908.360000	-8436.735000	-11255.445000	13309.110000	10.244669	12.896598	10.219695	9.922447	7.928383	5.565029	-0.683202	1.808547	-1.327620	-0.045780	-10.971940	0.888425	-0.271728	0.133789	-1.000000	-1.000000	-1.000000	-1.000000	-1.000000	-1.000000	-1.000000	60.344828	0.000000	-1.000000	-1.000000	1003962.000000	1772739405.687139
-8195.625000	-12989.700000	-12432.870000	471.555000	-10875.465000	-8406.090000	-11244.060000	13305.555000	9.811408	13.318369	17.404200	6.714442	3.214620	1.479614	-0.036781	18.803137	-1.327620	-0.045780	-10.971940	0.888425	-0.271728	0.133789	-1.000000	-1.000000	-1.000000	-1.000000	-1.000000	-1.000000	-1.000000	60.344828	0.000000	-1.000000	-1.000000	1003963.000000	1772739405.687144
-8151.480000	-12978.765000	-12390.390000	518.220000	-10830.555000	-8360.280000	-11212.875000	13303.935000	9.093439	11.050563	20.437036	5.266308	1.825471	1.213048	3.312271	26.817203	-1.327620	-0.045780	-10.971940	0.888425	-0.271728	0.133789	-1.000000	-1.000000	-1.000000	-1.000000	-1.000000	-1.000000	-1.000000	60.344828	0.000000	-1.000000	-1.000000	1003964.000000	1772739405.687148
-8195.625000	-12977.280000	-12384.990000	520.560000	-10819.755000	-8340.345000	-11204.190000	13289.355000	7.478070	5.421878	16.347489	6.237721	4.838891	5.243872	7.952808	19.464712	-1.327620	-0.045780	-10.971940	0.888425	-0.271728	0.133789	-1.000000	-1.000000	-1.000000	-1.000000	-1.000000	-1.000000	-1.000000	60.344828	0.000000	-1.000000	-1.000000	1003965.000000	1772739405.687152
-8270.730000	-13040.190000	-12447.090000	464.580000	-10872.135000	-8385.570000	-11262.330000	13244.310000	0.896320	-4.434241	4.065167	4.330652	6.203486	7.512070	9.742834	2.252606	-1.327620	-0.045780	-10.971940	0.888425	-0.271728	0.133789	-1.000000	-1.000000	-1.000000	-1.000000	-1.000000	-1.000000	-1.000000	60.344828	0.000000	-1.000000	-1.000000	1003966.000000	1772739405.687155
-8272.575000	-13076.775000	-12482.145000	431.640000	-10907.820000	-8424.630000	-11292.120000	13259.205000	-12.502129	-17.329046	-14.184300	-5.071843	-0.342783	1.770501	4.568058	-14.256272	-1.327620	-0.045780	-10.971940	0.888425	-0.271728	0.133789	-1.000000	-1.000000	-1.000000	-1.000000	-1.000000	-1.000000	-1.000000	60.344828	0.000000	-1.000000	-1.000000	1003967.000000	1772739405.687159
-8204.040000	-13029.615000	-12440.250000	471.645000	-10869.390000	-8391.195000	-11253.285000	13282.605000	-24.511670	-25.905224	-28.317579	-16.380261	-10.930182	-8.712449	-5.468161	-22.702403	-1.327620	-0.045780	-10.971940	0.888425	-0.271728	0.133789	-1.000000	-1.000000	-1.000000	-1.000000	-1.000000	-1.000000	-1.000000	60.344828	0.000000	-1.000000	-1.000000	1003968.000000	1772739405.687162
-8251.740000	-13040.325000	-12446.595000	463.905000	-10878.480000	-8404.020000	-11250.630000	13246.785000	-23.998873	-21.424186	-27.620155	-18.453813	-14.729049	-13.484201	-12.425820	-22.879948	-1.327620	-0.045780	-10.971940	0.888425	-0.271728	0.133789	-1.000000	-1.000000	-1.000000	-1.000000	-1.000000	-1.000000	-1.000000	60.344828	0.000000	-1.000000	-1.000000	1003969.000000	1772739405.696485
-8276.445000	-13052.520000	-12465.855000	440.460000	-10905.480000	-8439.075000	-11273.220000	13243.995000	-10.927544	-5.130314	-13.550548	-8.523055	-7.755102	-8.094982	-11.829747	-19.296233	-1.327620	-0.045780	-10.971940	0.888425	-0.271728	0.133789	-1.000000	-1.000000	-1.000000	-1.000000	-1.000000	-1.000000	-1.000000	60.344828	0.000000	-1.000000	-1.000000	1003970.000000	1772739405.696494
-8233.965000	-13027.095000	-12456.585000	447.885000	-10896.345000	-8428.140000	-11261.160000	13293.000000	5.086839	12.424299	3.334678	5.704782	3.709212	1.894468	-6.425147	-13.610897	5.386780	3.235120	-13.321980	0.888548	-0.273498	0.130249	-1.000000	-1.000000	-1.000000	-1.000000	-1.000000	-1.000000	-1.000000	60.344828	0.000000	-1.000000	-1.000000	1003971.000000	1772739405.696673
-8258.490000	-12995.595000	-12437.820000	471.015000	-10855.080000	-8385.030000	-11237.085000	13272.570000	15.384727	22.723236	15.149467	15.165294	11.802794	9.298162	-0.196965	-3.420522	5.386780	3.235120	-13.321980	0.888548	-0.273498	0.130249	-1.000000	-1.000000	-1.000000	-1.000000	-1.000000	-1.000000	-1.000000	60.344828	0.000000	-1.000000	-1.000000	1003972.000000	1772739405.696681
-8243.145000	-12981.915000	-12482.055000	414.180000	-10852.515000	-8366.085000	-11238.390000	13270.905000	16.271556	23.773214	18.401937	14.669973	12.870132	11.032648	4.840368	10.074803	5.386780	3.235120	-13.321980	0.888548	-0.273498	0.130249	-1.000000	-1.000000	-1.000000	-1.000000	-1.000000	-1.000000	-1.000000	60.344828	0.000000	-1.000000	-1.000000	1003973.000000	1772739405.697094
-8242.965000	-12995.910000	-12483.405000	401.085000	-10876.140000	-8378.460000	-11279.070000	13195.710000	10.652999	17.015441	12.098010	4.038228	6.989873	7.182216	6.929189	20.411850	5.386780	3.235120	-13.321980	0.888548	-0.273498	0.130249	-1.000000	-1.000000	-1.000000	-1.000000	-1.000000	-1.000000	-1.000000	60.344828	0.000000	-1.000000	-1.000000	1003974.000000	1772739405.697098
-8210.070000	-12995.145000	-12427.065000	465.570000	-10894.950000	-8411.175000	-11287.215000	13223.880000	6.326930	6.128207	2.064710	-8.605981	-2.386000	0.020315	5.643240	22.616145	5.386780	3.235120	-13.321980	0.888548	-0.273498	0.130249	-1.000000	-1.000000	-1.000000	-1.000000	-1.000000	-1.000000	-1.000000	60.344828	0.000000	-1.000000	-1.000000	1003975.000000	1772739405.702215
-8185.140000	-13005.495000	-12408.345000	497.340000	-10877.535000	-8404.380000	-11256.390000	13326.210000	7.394328	-3.755634	-1.160927	-10.643815	-9.061322	-6.219246	3.629144	18.412370	5.386780	3.235120	-13.321980	0.888548	-0.273498	0.130249	-1.000000	-1.000000	-1.000000	-1.000000	-1.000000	-1.000000	-1.000000	60.344828	0.000000	-1.000000	-1.000000	1003976.000000	1772739405.702222
-8198.055000	-13003.605000	-12407.400000	497.205000	-10870.695000	-8404.245000	-11262.015000	13292.595000	9.595641	-10.050420	4.651967	0.715497	-8.786243	-7.998299	3.151471	12.732206	5.386780	3.235120	-13.321980	0.888548	-0.273498	0.130249	-1.000000	-1.000000	-1.000000	-1.000000	-1.000000	-1.000000	-1.000000	60.344828	0.000000	-1.000000	-1.000000	1003977.000000	1772739405.705106
-8204.625000	-12984.615000	-12432.825000	472.275000	-10876.725000	-8409.195000	-11245.770000	13325.310000	6.938037	-12.881859	10.442119	14.553619	-2.778345	-4.906179	3.262047	6.837590	5.386780	3.235120	-13.321980	0.888548	-0.273498	0.130249	-1.000000	-1.000000	-1.000000	-1.000000	-1.000000	-1.000000	-1.000000	60.344828	0.000000	-1.000000	-1.000000	1003978.000000	1772739405.705113
-8228.925000	-13011.570000	-12447.630000	486.945000	-10860.120000	-8394.435000	-11246.490000	13308.030000	-1.285306	-12.402525	7.711845	19.149202	4.780288	1.237289	2.573572	-0.638144	5.386780	3.235120	-13.321980	0.888548	-0.273498	0.130249	-1.000000	-1.000000	-1.000000	-1.000000	-1.000000	-1.000000	-1.000000	60.344828	0.000000	-1.000000	-1.000000	1003979.000000	1772739405.709830
-8263.620000	-13067.145000	-12461.805000	458.910000	-10890.900000	-8428.140000	-11295.180000	13240.485000	-12.620484	-10.848008	-3.476746	11.388935	9.170536	6.565306	0.056467	-10.696383	5.386780	3.235120	-13.321980	0.888548	-0.273498	0.130249	-1.000000	-1.000000	-1.000000	-1.000000	-1.000000	-1.000000	-1.000000	60.344828	0.000000	-1.000000	-1.000000	1003980.000000	1772739405.709838
-8237.475000	-13052.340000	-12461.220000	460.170000	-10884.240000	-8410.770000	-11259.450000	13260.555000	-23.033595	-11.533916	-16.578544	-4.518436	6.130479	5.823954	-5.259137	-21.940202	7.401100	8.560860	-14.680120	0.887754	-0.269103	0.128784	-1.000000	-1.000000	-1.000000	-1.000000	-1.000000	-1.000000	-1.000000	60.344828	0.000000	-1.000000	-1.000000	1003981.000000	1772739405.720524
-8234.730000	-13042.395000	-12462.300000	457.785000	-10884.015000	-8397.765000	-11245.815000	13272.975000	-25.887363	-12.568065	-23.409200	-19.583383	-3.496741	-1.614548	-10.274581	-27.169722	7.401100	8.560860	-14.680120	0.887754	-0.269103	0.128784	-1.000000	-1.000000	-1.000000	-1.000000	-1.000000	-1.000000	-1.000000	60.344828	0.000000	-1.000000	-1.000000	1003982.000000	1772739405.720535
-8231.895000	-13008.420000	-12433.680000	486.495000	-10856.880000	-8375.715000	-11262.555000	13245.435000	-17.118228	-7.664642	-19.053860	-24.512452	-11.746317	-8.764485	-9.160388	-19.074857	7.401100	8.560860	-14.680120	0.887754	-0.269103	0.128784	-1.000000	-1.000000	-1.000000	-1.000000	-1.000000	-1.000000	-1.000000	60.344828	0.000000	-1.000000	-1.000000	1003983.000000	1772739405.720692
-8208.090000	-12984.840000	-12414.420000	501.480000	-10846.530000	-8372.070000	-11256.930000	13245.390000	-0.462136	6.025399	-5.406768	-17.060973	-10.599757	-7.879498	-1.261249	-1.589822	7.401100	8.560860	-14.680120	0.887754	-0.269103	0.128784	-1.000000	-1.000000	-1.000000	-1.000000	-1.000000	-1.000000	-1.000000	60.344828	0.000000	-1.000000	-1.000000	1003984.000000	1772739405.720696
-8211.735000	-13005.630000	-12419.055000	493.245000	-10855.980000	-8382.780000	-11250.585000	13251.060000	15.158729	22.713737	9.883612	-3.468167	-0.732858	0.873480	7.448454	12.238713	7.401100	8.560860	-14.680120	0.887754	-0.269103	0.128784	-1.000000	-1.000000	-1.000000	-1.000000	-1.000000	-1.000000	-1.000000	60.344828	0.000000	-1.000000	-1.000000	1003985.000000	1772739405.723891
-8279.865000	-13024.665000	-12419.235000	492.885000	-10853.190000	-8383.995000	-11249.910000	13200.210000	21.660578	30.938003	18.756418	7.938469	9.384280	9.830735	10.764285	14.117777	7.401100	8.560860	-14.680120	0.887754	-0.269103	0.128784	-1.000000	-1.000000	-1.000000	-1.000000	-1.000000	-1.000000	-1.000000	60.344828	0.000000	-1.000000	-1.000000	1003986.000000	1772739405.723902
-8303.355000	-13026.420000	-12436.380000	475.335000	-10871.955000	-8406.360000	-11247.120000	13230.495000	16.287995	23.772586	18.167598	12.973976	12.538042	12.105799	7.345270	6.561608	7.401100	8.560860	-14.680120	0.887754	-0.269103	0.128784	-1.000000	-1.000000	-1.000000	-1.000000	-1.000000	-1.000000	-1.000000	60.344828	0.000000	-1.000000	-1.000000	1003987.000000	1772739405.725102
-8226.000000	-13003.695000	-12430.935000	482.535000	-10863.765000	-8391.960000	-11217.105000	13327.110000	4.682319	6.082743	10.717215	11.818576	7.795606	6.763197	0.961632	-0.220132	7.401100	8.560860	-14.680120	0.887754	-0.269103	0.128784	-1.000000	-1.000000	-1.000000	-1.000000	-1.000000	-1.000000	-1.000000	60.344828	0.000000	-1.000000	-1.000000	1003988.000000	1772739405.725110
-8230.500000	-13049.865000	-12472.965000	444.105000	-10898.910000	-8420.040000	-11244.420000	13300.740000	-2.556080	-10.770746	0.752317	6.391918	-1.301839	-2.421218	-3.375693	3.348844	7.401100	8.560860	-14.680120	0.887754	-0.269103	0.128784	-1.000000	-1.000000	-1.000000	-1.000000	-1.000000	-1.000000	-1.000000	60.344828	0.000000	-1.000000	-1.000000	1003989.000000	1772739405.747262
-8259.615000	-13086.405000	-12506.940000	417.420000	-10919.835000	-8431.830000	-11276.415000	13261.635000	-1.747891	-20.586210	-8.853343	-1.066134	-10.475969	-11.166413	-5.299593	13.915983	7.401100	8.560860	-14.680120	0.887754	-0.269103	0.128784	-1.000000	-1.000000	-1.000000	-1.000000	-1.000000	-1.000000	-1.000000	60.344828	0.000000	-1.000000	-1.000000	1003990.000000	1772739405.747272
-8217.630000	-13039.470000	-12497.175000	452.565000	-10878.345000	-8391.645000	-11273.355000	13276.845000	1.634283	-23.363213	-15.785011	-7.410153	-15.646254	-16.047146	-7.512346	18.770306	1.434440	10.147900	-17.442180	0.888853	-0.265014	0.131347	-1.000000	-1.000000	-1.000000	-1.000000	-1.000000	-1.000000	-1.000000	60.344828	0.000000	-1.000000	-1.000000	1003991.000000	1772739405.747283
-8197.650000	-13012.470000	-12479.580000	470.520000	-10863.675000	-8382.375000	-11270.565000	13237.605000	3.263156	-18.545048	-17.021052	-8.863657	-12.818365	-13.489021	-8.865652	11.977517	1.434440	10.147900	-17.442180	0.888853	-0.265014	0.131347	-1.000000	-1.000000	-1.000000	-1.000000	-1.000000	-1.000000	-1.000000	60.344828	0.000000	-1.000000	-1.000000	1003992.000000	1772739405.747286
-8227.305000	-13018.905000	-12426.750000	478.575000	-10865.835000	-8385.480000	-11254.050000	13222.665000	2.127635	-6.499116	-10.547580	-4.490741	-2.228359	-3.253278	-6.093658	-3.396893	1.434440	10.147900	-17.442180	0.888853	-0.265014	0.131347	-1.000000	-1.000000	-1.000000	-1.000000	-1.000000	-1.000000	-1.000000	60.344828	0.000000	-1.000000	-1.000000	1003993.000000	1772739405.747290
-8216.190000	-12999.420000	-12399.480000	464.985000	-10886.220000	-8411.715000	-11243.205000	13299.435000	-1.974578	7.933510	2.692539	2.512904	9.656089	8.807814	0.584060	-19.034884	1.434440	10.147900	-17.442180	0.888853	-0.265014	0.131347	-1.000000	-1.000000	-1.000000	-1.000000	-1.000000	-1.000000	-1.000000	60.344828	0.000000	-1.000000	-1.000000	1003994.000000	1772739405.747294
-8183.070000	-12952.440000	-12383.100000	495.585000	-10858.545000	-8395.425000	-11227.320000	13289.310000	-5.212736	19.257184	17.790252	8.315746	15.995044	15.685802	7.900850	-23.872326	1.434440	10.147900	-17.442180	0.888853	-0.265014	0.131347	-1.000000	-1.000000	-1.000000	-1.000000	-1.000000	-1.000000	-1.000000	60.344828	0.000000	-1.000000	-1.000000	1003995.000000	1772739405.747298
-8148.465000	-12913.965000	-12346.380000	548.550000	-10809.810000	-8351.640000	-11213.415000	13306.140000	-2.621103	24.681256	27.684912	11.945301	15.861074	15.737174	12.358666	-15.251880	1.434440	10.147900	-17.442180	0.888853	-0.265014	0.131347	-1.000000	-1.000000	-1.000000	-1.000000	-1.000000	-1.000000	-1.000000	60.344828	0.000000	-1.000000	-1.000000	1003996.000000	1772739405.747301
-8215.245000	-12998.745000	-12412.755000	493.245000	-10856.700000	-8392.995000	-11254.860000	13259.970000	2.711416	21.912715	26.658166	13.227297	11.987668	11.463389	11.392627	-2.860384	1.434440	10.147900	-17.442180	0.888853	-0.265014	0.131347	-1.000000	-1.000000	-1.000000	-1.000000	-1.000000	-1.000000	-1.000000	60.344828	0.000000	-1.000000	-1.000000	1003997.000000	1772739405.747305
-8277.345000	-13081.680000	-12497.085000	416.025000	-10918.080000	-8439.795000	-11289.465000	13236.975000	1.550500	8.245179	12.124046	8.939012	4.600775	3.773685	4.229093	3.450505	1.434440	10.147900	-17.442180	0.888853	-0.265014	0.131347	-1.000000	-1.000000	-1.000000	-1.000000	-1.000000	-1.000000	-1.000000	60.344828	0.000000	-1.000000	-1.000000	1003998.000000	1772739405.747308
-8239.680000	-13052.340000	-12463.875000	445.455000	-10894.860000	-8412.795000	-11267.640000	13298.445000	-8.346868	-13.356374	-11.349871	-2.647879	-6.587549	-6.851514	-5.842673	3.777880	1.434440	10.147900	-17.442180	0.888853	-0.265014	0.131347	-1.000000	-1.000000	-1.000000	-1.000000	-1.000000	-1.000000	-1.000000	60.344828	0.000000	-1.000000	-1.000000	1003999.000000	1772739405.754119
-8221.005000	-13018.590000	-12431.115000	479.205000	-10861.740000	-8382.645000	-11257.065000	13281.030000	-17.982451	-31.275735	-30.655806	-15.614722	-16.901314	-15.821705	-11.945965	4.722191	1.434440	10.147900	-17.442180	0.888853	-0.265014	0.131347	-1.000000	-1.000000	-1.000000	-1.000000	-1.000000	-1.000000	-1.000000	60.344828	0.000000	-1.000000	-1.000000	1004000.000000	1772739405.754128
-8229.915000	-13040.055000	-12448.395000	472.725000	-10859.985000	-8379.945000	-11262.195000	13253.670000	-18.106145	-34.624716	-34.761409	-21.477307	-19.714055	-17.238584	-10.094076	8.532649	-2.212700	13.413540	-18.464600	0.903013	-0.265258	0.135986	-1.000000	-1.000000	-1.000000	-1.000000	-1.000000	-1.000000	-1.000000	60.344828	0.000000	-1.000000	-1.000000	1004001.000000	1772739405.761348
-8201.655000	-13024.170000	-12441.780000	472.230000	-10865.205000	-8391.825000	-11258.370000	13260.780000	-7.560651	-22.353635	-24.594047	-17.406337	-13.209755	-10.062186	-3.229558	10.499857	-2.212700	13.413540	-18.464600	0.903013	-0.265258	0.135986	-1.000000	-1.000000	-1.000000	-1.000000	-1.000000	-1.000000	-1.000000	60.344828	0.000000	-1.000000	-1.000000	1004002.000000	1772739405.761358
-8255.700000	-13032.495000	-12449.025000	458.730000	-10882.395000	-8414.145000	-11251.080000	13236.975000	7.841877	-1.989349	-8.627592	-6.751260	-1.682486	0.910395	3.039000	6.198744	-2.212700	13.413540	-18.464600	0.903013	-0.265258	0.135986	-1.000000	-1.000000	-1.000000	-1.000000	-1.000000	-1.000000	-1.000000	60.344828	0.000000	-1.000000	-1.000000	1004003.000000	1772739405.761366
-8307.495000	-13046.490000	-12438.495000	470.250000	-10874.025000	-8408.745000	-11250.720000	13209.120000	17.807800	15.356058	5.733773	4.268808	7.812440	8.830389	5.472069	-3.779999	-2.212700	13.413540	-18.464600	0.903013	-0.265258	0.135986	-1.000000	-1.000000	-1.000000	-1.000000	-1.000000	-1.000000	-1.000000	60.344828	0.000000	-1.000000	-1.000000	1004004.000000	1772739405.761370
-8278.065000	-13051.440000	-12447.450000	466.605000	-10872.090000	-8400.330000	-11244.330000	13261.365000	15.220345	21.665556	14.898534	10.407757	10.552459	9.853750	4.181349	-13.665189	-2.212700	13.413540	-18.464600	0.903013	-0.265258	0.135986	-1.000000	-1.000000	-1.000000	-1.000000	-1.000000	-1.000000	-1.000000	60.344828	0.000000	-1.000000	-1.000000	1004005.000000	1772739405.768281
-8174.655000	-13002.840000	-12442.140000	464.445000	-10875.510000	-8400.780000	-11259.450000	13319.550000	6.810913	19.532453	19.465465	11.673656	8.186184	6.318277	1.973361	-14.189969	-2.212700	13.413540	-18.464600	0.903013	-0.265258	0.135986	-1.000000	-1.000000	-1.000000	-1.000000	-1.000000	-1.000000	-1.000000	60.344828	0.000000	-1.000000	-1.000000	1004006.000000	1772739405.768288
-8147.250000	-12977.145000	-12432.195000	471.015000	-10869.570000	-8391.555000	-11279.250000	13289.670000	6.555740	18.424574	22.350259	12.186375	6.169224	3.608484	1.341449	-1.506283	-2.212700	13.413540	-18.464600	0.903013	-0.265258	0.135986	-1.000000	-1.000000	-1.000000	-1.000000	-1.000000	-1.000000	-1.000000	60.344828	0.000000	-1.000000	-1.000000	1004007.000000	1772739405.769958
-8183.340000	-13023.090000	-12440.250000	476.775000	-10858.050000	-8376.570000	-11263.860000	13287.600000	15.038813	19.584811	22.661849	12.764194	6.252271	3.336819	1.604514	14.659898	-2.212700	13.413540	-18.464600	0.903013	-0.265258	0.135986	-1.000000	-1.000000	-1.000000	-1.000000	-1.000000	-1.000000	-1.000000	60.344828	0.000000	-1.000000	-1.000000	1004008.000000	1772739405.769966
-8226.090000	-13044.690000	-12443.490000	477.990000	-10856.205000	-8372.790000	-11241.270000	13299.885000	17.570075	13.602378	15.393228	9.364536	5.059115	2.633583	1.336665	21.263560	-2.212700	13.413540	-18.464600	0.903013	-0.265258	0.135986	-1.000000	-1.000000	-1.000000	-1.000000	-1.000000	-1.000000	-1.000000	60.344828	0.000000	-1.000000	-1.000000	1004009.000000	1772739405.770179
-8269.740000	-13018.365000	-12424.140000	489.420000	-10849.905000	-8371.170000	-11236.995000	13241.790000	4.009841	-3.165958	0.215598	0.610317	0.426551	-0.368836	0.895783	15.007911	-2.212700	13.413540	-18.464600	0.903013	-0.265258	0.135986	-1.000000	-1.000000	-1.000000	-1.000000	-1.000000	-1.000000	-1.000000	60.344828	0.000000	-1.000000	-1.000000	1004010.000000	1772739405.770186
-8222.220000	-12985.605000	-12426.840000	472.635000	-10873.080000	-8402.220000	-11259.540000	13204.620000	-18.838569	-20.869689	-15.577518	-9.043852	-5.434357	-4.240866	0.256756	-0.389711	-2.853620	15.000580	-19.090260	0.918760	-0.265197	0.139709	-1.000000	-1.000000	-1.000000	-1.000000	-1.000000	-1.000000	-1.000000	60.344828	0.000000	-1.000000	-1.000000	1004011.000000	1772739405.773239
-8191.215000	-12980.070000	-12428.055000	469.755000	-10881.900000	-8419.680000	-11276.010000	13237.065000	-33.091300	-27.664107	-24.155178	-14.617305	-9.443199	-7.098951	-2.134615	-17.321045	-2.853620	15.000580	-19.090260	0.918760	-0.265197	0.139709	-1.000000	-1.000000	-1.000000	-1.000000	-1.000000	-1.000000	-1.000000	60.344828	0.000000	-1.000000	-1.000000	1004012.000000	1772739405.773245
-8232.570000	-12992.580000	-12421.890000	483.300000	-10867.995000	-8405.100000	-11276.235000	13258.125000	-27.274215	-21.135820	-22.815766	-14.552742	-10.395119	-8.318586	-6.461721	-25.086603	-2.853620	15.000580	-19.090260	0.918760	-0.265197	0.139709	-1.000000	-1.000000	-1.000000	-1.000000	-1.000000	-1.000000	-1.000000	60.344828	0.000000	-1.000000	-1.000000	1004013.000000	1772739405.782054
-8252.145000	-13009.095000	-12425.490000	486.045000	-10858.680000	-8388.630000	-11276.820000	13223.250000	-8.575088	-7.844739	-13.460039	-9.421983	-7.766589	-6.985139	-9.604938	-19.467213	-2.853620	15.000580	-19.090260	0.918760	-0.265197	0.139709	-1.000000	-1.000000	-1.000000	-1.000000	-1.000000	-1.000000	-1.000000	60.344828	0.000000	-1.000000	-1.000000	1004014.000000	1772739405.782061
-8183.790000	-12994.830000	-12421.485000	490.320000	-10852.245000	-8376.255000	-11276.955000	13265.370000	7.375281	3.845596	-0.232123	-0.599536	-1.293056	-1.849534	-7.617293	-6.536572	-2.853620	15.000580	-19.090260	0.918760	-0.265197	0.139709	-1.000000	-1.000000	-1.000000	-1.000000	-1.000000	-1.000000	-1.000000	60.344828	0.000000	-1.000000	-1.000000	1004015.000000	1772739405.782069
-8149.995000	-12998.070000	-12432.105000	479.160000	-10861.965000	-8377.155000	-11261.970000	13324.005000	14.177537	9.420520	11.250483	8.282508	6.508054	5.444665	0.063786	7.356813	-2.853620	15.000580	-19.090260	0.918760	-0.265197	0.139709	-1.000000	-1.000000	-1.000000	-1.000000	-1.000000	-1.000000	-1.000000	60.344828	0.000000	-1.000000	-1.000000	1004016.000000	1772739405.782073
-8217.405000	-13014.090000	-12439.305000	466.155000	-10873.125000	-8384.355000	-11251.170000	13276.800000	14.519782	9.145948	15.548508	11.740981	10.267818	9.839274	9.264121	18.957608	-2.853620	15.000580	-19.090260	0.918760	-0.265197	0.139709	-1.000000	-1.000000	-1.000000	-1.000000	-1.000000	-1.000000	-1.000000	60.344828	0.000000	-1.000000	-1.000000	1004017.000000	1772739405.785148
-8267.220000	-12996.180000	-12423.195000	457.785000	-10886.580000	-8401.095000	-11259.990000	13211.910000	10.371862	6.030021	11.437875	7.251605	6.784953	7.642556	13.968574	22.584365	-2.853620	15.000580	-19.090260	0.918760	-0.265197	0.139709	-1.000000	-1.000000	-1.000000	-1.000000	-1.000000	-1.000000	-1.000000	60.344828	0.000000	-1.000000	-1.000000	1004018.000000	1772739405.785156
-8250.570000	-12985.155000	-12429.225000	473.220000	-10870.020000	-8394.030000	-11245.770000	13269.375000	2.666164	2.903693	2.810243	-1.493902	-1.033024	0.671901	11.268035	15.177082	-2.853620	15.000580	-19.090260	0.918760	-0.265197	0.139709	-1.000000	-1.000000	-1.000000	-1.000000	-1.000000	-1.000000	-1.000000	60.344828	0.000000	-1.000000	-1.000000	1004019.000000	1772739405.795184
-8194.590000	-13024.845000	-12462.120000	478.755000	-10858.050000	-8384.220000	-11223.135000	13314.645000	-4.437216	-0.071522	-5.488550	-7.423008	-6.273987	-4.863075	4.206197	3.970014	-2.853620	15.000580	-19.090260	0.918760	-0.265197	0.139709	-1.000000	-1.000000	-1.000000	-1.000000	-1.000000	-1.000000	-1.000000	60.344828	0.000000	-1.000000	-1.000000	1004020.000000	1772739405.795192
-8215.515000	-13032.675000	-12433.950000	488.205000	-10857.105000	-8386.875000	-11247.930000	13204.080000	-6.008820	-4.123698	-10.273890	-6.419310	-4.727677	-4.430007	-1.916926	-3.713399	-1.938020	14.786940	-19.532800	0.931943	-0.269225	0.144165	-1.000000	-1.000000	-1.000000	-1.000000	-1.000000	-1.000000	-1.000000	60.344828	0.000000	-1.000000	-1.000000	1004021.000000	1772739405.797693
-8216.955000	-13011.030000	-12432.915000	485.505000	-10859.445000	-8389.215000	-11269.215000	13193.730000	-1.710544	-7.379657	-9.413179	-0.532142	1.001471	0.030563	-5.600549	-10.520801	-1.938020	14.786940	-19.532800	0.931943	-0.269225	0.144165	-1.000000	-1.000000	-1.000000	-1.000000	-1.000000	-1.000000	-1.000000	60.344828	0.000000	-1.000000	-1.000000	1004022.000000	1772739405.797700
-8185.545000	-13023.045000	-12472.110000	451.710000	-10893.555000	-8418.555000	-11280.465000	13310.730000	4.133650	-5.872007	-3.441987	4.827028	4.901671	2.851887	-8.243997	-17.213637	-1.938020	14.786940	-19.532800	0.931943	-0.269225	0.144165	-1.000000	-1.000000	-1.000000	-1.000000	-1.000000	-1.000000	-1.000000	60.344828	0.000000	-1.000000	-1.000000	1004023.000000	1772739405.797708
-8189.415000	-13017.780000	-12479.130000	463.275000	-10875.960000	-8392.725000	-11256.480000	13342.545000	6.089496	0.186982	3.121816	5.714075	3.645512	1.052024	-9.465988	-15.945406	-1.938020	14.786940	-19.532800	0.931943	-0.269225	0.144165	-1.000000	-1.000000	-1.000000	-1.000000	-1.000000	-1.000000	-1.000000	60.344828	0.000000	-1.000000	-1.000000	1004024.000000	1772739405.797713
-8212.185000	-13021.380000	-12461.220000	470.070000	-10868.940000	-8387.505000	-11277.630000	13266.765000	1.531268	6.491355	6.397047	2.691819	-0.696163	-2.944324	-7.843749	-5.287517	-1.938020	14.786940	-19.532800	0.931943	-0.269225	0.144165	-1.000000	-1.000000	-1.000000	-1.000000	-1.000000	-1.000000	-1.000000	60.344828	0.000000	-1.000000	-1.000000	1004025.000000	1772739405.801272
-8217.900000	-13023.945000	-12429.360000	471.420000	-10869.705000	-8384.805000	-11249.955000	13287.555000	-5.597747	9.711021	7.076071	-0.556142	-3.549837	-4.658679	-3.923579	5.838547	-1.938020	14.786940	-19.532800	0.931943	-0.269225	0.144165	-1.000000	-1.000000	-1.000000	-1.000000	-1.000000	-1.000000	-1.000000	60.344828	0.000000	-1.000000	-1.000000	1004026.000000	1772739405.801280
-8205.615000	-13012.380000	-12420.360000	473.040000	-10869.930000	-8389.620000	-11239.470000	13264.920000	-7.694244	8.691219	7.325065	-1.594573	-2.831963	-2.374855	1.038466	11.480888	-1.938020	14.786940	-19.532800	0.931943	-0.269225	0.144165	-1.000000	-1.000000	-1.000000	-1.000000	-1.000000	-1.000000	-1.000000	60.344828	0.000000	-1.000000	-1.000000	1004027.000000	1772739405.805596
-8218.980000	-13018.500000	-12437.550000	465.210000	-10881.135000	-8411.760000	-11258.865000	13215.870000	-3.080954	3.962738	6.994035	-1.026833	-0.217802	1.732089	5.620887	10.186224	-1.938020	14.786940	-19.532800	0.931943	-0.269225	0.144165	-1.000000	-1.000000	-1.000000	-1.000000	-1.000000	-1.000000	-1.000000	60.344828	0.000000	-1.000000	-1.000000	1004028.000000	1772739405.805604
-8238.555000	-13037.220000	-12459.465000	446.130000	-10899.045000	-8432.190000	-11289.780000	13226.130000	1.712610	-1.980546	4.363230	-0.948229	1.148376	3.799870	6.922557	1.657677	-1.938020	14.786940	-19.532800	0.931943	-0.269225	0.144165	-1.000000	-1.000000	-1.000000	-1.000000	-1.000000	-1.000000	-1.000000	60.344828	0.000000	-1.000000	-1.000000	1004029.000000	1772739405.814300
-8232.300000	-13037.805000	-12459.015000	449.910000	-10892.565000	-8417.790000	-11269.485000	13249.755000	1.593700	-6.238623	-1.460499	-2.562844	-0.206547	2.102768	3.998246	-7.485212	-1.938020	14.786940	-19.532800	0.931943	-0.269225	0.144165	-1.000000	-1.000000	-1.000000	-1.000000	-1.000000	-1.000000	-1.000000	60.344828	0.000000	-1.000000	-1.000000	1004030.000000	1772739405.814307
-8235.270000	-13021.875000	-12454.020000	474.030000	-10861.560000	-8379.765000	-11248.695000	13247.775000	-1.379531	-7.235314	-8.234520	-4.030528	-1.968509	-0.464154	0.927215	-8.417995	2.273740	15.778840	-21.333480	0.948057	-0.274596	0.146118	-1.000000	-1.000000	-1.000000	-1.000000	-1.000000	-1.000000	-1.000000	60.344828	0.000000	-1.000000	-1.000000	1004031.000000	1772739405.817828
-8193.195000	-12998.790000	-12480.615000	490.635000	-10832.580000	-8347.455000	-11253.465000	13288.680000	-3.253480	-4.510448	-11.351361	-1.689888	0.038188	0.780374	1.670158	-2.565965	2.273740	15.778840	-21.333480	0.948057	-0.274596	0.146118	-1.000000	-1.000000	-1.000000	-1.000000	-1.000000	-1.000000	-1.000000	60.344828	0.000000	-1.000000	-1.000000	1004032.000000	1772739405.817835
-8176.005000	-13026.645000	-12492.720000	475.020000	-10846.080000	-8355.375000	-11257.695000	13320.135000	-1.887439	0.546681	-9.111263	4.357140	5.867228	5.815500	4.442073	3.117920	2.273740	15.778840	-21.333480	0.948057	-0.274596	0.146118	-1.000000	-1.000000	-1.000000	-1.000000	-1.000000	-1.000000	-1.000000	60.344828	0.000000	-1.000000	-1.000000	1004033.000000	1772739405.817843
-8178.210000	-13016.880000	-12402.585000	492.030000	-10852.965000	-8371.215000	-11268.315000	13270.365000	3.343532	4.478744	-3.282229	9.094084	9.862868	8.827840	4.612631	6.531639	2.273740	15.778840	-21.333480	0.948057	-0.274596	0.146118	-1.000000	-1.000000	-1.000000	-1.000000	-1.000000	-1.000000	-1.000000	60.344828	0.000000	-1.000000	-1.000000	1004034.000000	1772739405.817847
-8221.770000	-13016.745000	-12382.650000	485.145000	-10862.415000	-8385.120000	-11262.915000	13256.910000	9.609897	4.873789	4.662675	8.604034	7.237384	5.074763	0.324843	7.643527	2.273740	15.778840	-21.333480	0.948057	-0.274596	0.146118	-1.000000	-1.000000	-1.000000	-1.000000	-1.000000	-1.000000	-1.000000	60.344828	0.000000	-1.000000	-1.000000	1004035.000000	1772739405.832992
-8228.340000	-13033.845000	-12442.995000	458.460000	-10885.995000	-8414.280000	-11254.590000	13289.130000	10.936109	1.768437	11.338359	2.945232	-1.163522	-4.132131	-5.977867	5.966533	2.273740	15.778840	-21.333480	0.948057	-0.274596	0.146118	-1.000000	-1.000000	-1.000000	-1.000000	-1.000000	-1.000000	-1.000000	60.344828	0.000000	-1.000000	-1.000000	1004036.000000	1772739405.833002
-8240.265000	-13030.290000	-12449.250000	447.435000	-10903.590000	-8437.365000	-11262.645000	13257.540000	4.421349	-2.960114	11.250509	-5.344486	-10.673266	-13.341320	-9.602179	2.974410	2.273740	15.778840	-21.333480	0.948057	-0.274596	0.146118	-1.000000	-1.000000	-1.000000	-1.000000	-1.000000	-1.000000	-1.000000	60.344828	0.000000	-1.000000	-1.000000	1004037.000000	1772739405.833013
-8212.635000	-12990.330000	-12419.685000	479.070000	-10863.180000	-8389.530000	-11241.630000	13233.240000	-5.446841	-5.287792	4.244659	-11.591562	-15.517419	-16.549441	-7.352781	-0.435011	2.273740	15.778840	-21.333480	0.948057	-0.274596	0.146118	-1.000000	-1.000000	-1.000000	-1.000000	-1.000000	-1.000000	-1.000000	60.344828	0.000000	-1.000000	-1.000000	1004038.000000	1772739405.833017
-8151.570000	-12961.980000	-12393.810000	506.970000	-10836.180000	-8361.045000	-11228.490000	13272.930000	-10.211011	-1.846060	-3.254882	-11.000515	-11.586887	-10.409117	-0.167605	-4.462443	2.273740	15.778840	-21.333480	0.948057	-0.274596	0.146118	-1.000000	-1.000000	-1.000000	-1.000000	-1.000000	-1.000000	-1.000000	60.344828	0.000000	-1.000000	-1.000000	1004039.000000	1772739405.833021
-8140.950000	-12955.230000	-12373.245000	533.475000	-10807.380000	-8328.240000	-11215.755000	13314.510000	-5.706481	5.403911	-5.278239	-3.089098	-0.280496	2.416660	7.492058	-7.200977	2.273740	15.778840	-21.333480	0.948057	-0.274596	0.146118	-1.000000	-1.000000	-1.000000	-1.000000	-1.000000	-1.000000	-1.000000	60.344828	0.000000	-1.000000	-1.000000	1004040.000000	1772739405.833025
-8114.535000	-12939.705000	-12359.745000	547.785000	-10794.330000	-8313.435000	-11217.420000	13278.420000	3.262688	10.465091	-0.918374	7.382809	11.667076	14.355452	11.007670	-7.506688	3.860780	15.519420	-21.013020	0.960508	-0.276244	0.149536	-1.000000	-1.000000	-1.000000	-1.000000	-1.000000	-1.000000	-1.000000	60.344828	0.000000	-1.000000	-1.000000	1004041.000000	1772739405.833354
-8163.315000	-13017.285000	-12449.565000	453.285000	-10890.000000	-8407.305000	-11281.815000	13266.900000	8.063627	8.581558	4.002900	12.852990	16.237780	17.634340	7.856274	-7.192036	3.860780	15.519420	-21.013020	0.960508	-0.276244	0.149536	-1.000000	-1.000000	-1.000000	-1.000000	-1.000000	-1.000000	-1.000000	60.344828	0.000000	-1.000000	-1.000000	1004042.000000	1772739405.833361
-8246.430000	-13058.595000	-12467.880000	435.150000	-10911.150000	-8429.445000	-11302.245000	13221.450000	3.634108	-1.643342	-0.241153	7.157629	8.738476	8.665478	-1.911729	-6.660654	3.860780	15.519420	-21.013020	0.960508	-0.276244	0.149536	-1.000000	-1.000000	-1.000000	-1.000000	-1.000000	-1.000000	-1.000000	60.344828	0.000000	-1.000000	-1.000000	1004043.000000	1772739405.847400
-8270.055000	-13035.060000	-12447.315000	452.745000	-10895.580000	-8423.370000	-11277.090000	13209.210000	-8.349451	-15.990500	-14.478973	-6.935187	-6.460421	-7.244971	-13.637232	-4.665510	3.860780	15.519420	-21.013020	0.960508	-0.276244	0.149536	-1.000000	-1.000000	-1.000000	-1.000000	-1.000000	-1.000000	-1.000000	60.344828	0.000000	-1.000000	-1.000000	1004044.000000	1772739405.847408
-8258.895000	-13027.950000	-12452.895000	451.665000	-10893.510000	-8427.420000	-11265.210000	13218.570000	-19.477093	-24.175519	-25.171011	-17.497838	-17.243164	-17.977276	-18.906205	-1.149123	3.860780	15.519420	-21.013020	0.960508	-0.276244	0.149536	-1.000000	-1.000000	-1.000000	-1.000000	-1.000000	-1.000000	-1.000000	60.344828	0.000000	-1.000000	-1.000000	1004045.000000	1772739405.847417
-8218.350000	-13064.895000	-12493.260000	413.550000	-10922.220000	-8444.880000	-11256.300000	13327.470000	-19.956499	-19.318533	-20.609285	-16.199709	-15.753381	-16.041555	-12.684358	5.347903	3.860780	15.519420	-21.013020	0.960508	-0.276244	0.149536	-1.000000	-1.000000	-1.000000	-1.000000	-1.000000	-1.000000	-1.000000	60.344828	0.000000	-1.000000	-1.000000	1004046.000000	1772739405.847422
-8238.465000	-13078.125000	-12498.885000	414.405000	-10915.470000	-8432.145000	-11256.615000	13295.070000	-7.740951	-5.973139	-4.558034	-6.377267	-5.614206	-5.192828	1.388546	16.155885	3.860780	15.519420	-21.013020	0.960508	-0.276244	0.149536	-1.000000	-1.000000	-1.000000	-1.000000	-1.000000	-1.000000	-1.000000	60.344828	0.000000	-1.000000	-1.000000	1004047.000000	1772739405.847428
-8211.285000	-13031.235000	-12460.185000	449.055000	-10885.680000	-8404.515000	-11258.775000	13282.380000	8.664427	6.795414	11.798205	3.981977	4.706852	5.718912	14.015010	24.153572	3.860780	15.519420	-21.013020	0.960508	-0.276244	0.149536	-1.000000	-1.000000	-1.000000	-1.000000	-1.000000	-1.000000	-1.000000	60.344828	0.000000	-1.000000	-1.000000	1004048.000000	1772739405.847432
-8186.220000	-13021.785000	-12444.705000	466.740000	-10868.355000	-8383.770000	-11259.405000	13286.610000	19.092156	15.073886	22.095412	10.845973	10.549679	11.341134	17.935492	18.755424	3.860780	15.519420	-21.013020	0.960508	-0.276244	0.149536	-1.000000	-1.000000	-1.000000	-1.000000	-1.000000	-1.000000	-1.000000	60.344828	0.000000	-1.000000	-1.000000	1004049.000000	1772739405.849488
-8187.840000	-13006.935000	-12421.170000	490.095000	-10848.465000	-8367.795000	-11258.325000	13262.265000	20.226593	19.407072	25.839550	14.584698	12.396836	11.996192	13.029063	0.595034	3.860780	15.519420	-21.013020	0.960508	-0.276244	0.149536	-1.000000	-1.000000	-1.000000	-1.000000	-1.000000	-1.000000	-1.000000	60.344828	0.000000	-1.000000	-1.000000	1004050.000000	1772739405.849494
-8163.720000	-12963.105000	-12383.190000	518.760000	-10827.765000	-8357.400000	-11259.945000	13252.095000	15.634996	21.703964	25.033865	17.536269	13.693935	11.668284	5.164053	-18.302433	5.447820	15.778840	-18.373040	0.971067	-0.276611	0.155090	-1.000000	-1.000000	-1.000000	-1.000000	-1.000000	-1.000000	-1.000000	60.344828	0.000000	-1.000000	-1.000000	1004051.000000	1772739405.858529
-8194.095000	-12995.910000	-12409.875000	497.430000	-10842.075000	-8371.350000	-11259.630000	13262.355000	11.207613	22.414126	20.466544	19.713064	15.724242	12.516760	-0.204331	-25.877789	5.447820	15.778840	-18.373040	0.971067	-0.276611	0.155090	-1.000000	-1.000000	-1.000000	-1.000000	-1.000000	-1.000000	-1.000000	60.344828	0.000000	-1.000000	-1.000000	1004052.000000	1772739405.858536
-8192.295000	-13001.715000	-12433.140000	470.025000	-10871.370000	-8409.105000	-11271.600000	13257.315000	8.430717	17.304929	9.889515	16.001957	13.820819	10.854316	-2.979891	-18.709152	5.447820	15.778840	-18.373040	0.971067	-0.276611	0.155090	-1.000000	-1.000000	-1.000000	-1.000000	-1.000000	-1.000000	-1.000000	60.344828	0.000000	-1.000000	-1.000000	1004053.000000	1772739405.858544
-8187.210000	-12994.875000	-12435.480000	464.445000	-10879.155000	-8422.155000	-11270.295000	13255.155000	3.627837	3.400799	-6.437552	3.010125	3.618175	2.463930	-5.750356	-3.944550	5.447820	15.778840	-18.373040	0.971067	-0.276611	0.155090	-1.000000	-1.000000	-1.000000	-1.000000	-1.000000	-1.000000	-1.000000	60.344828	0.000000	-1.000000	-1.000000	1004054.000000	1772739405.858548
-8203.680000	-13021.335000	-12447.945000	461.790000	-10873.575000	-8401.770000	-11246.130000	13268.475000	-5.730693	-14.183496	-21.862042	-14.011755	-11.373254	-10.231498	-8.479971	7.240257	5.447820	15.778840	-18.373040	0.971067	-0.276611	0.155090	-1.000000	-1.000000	-1.000000	-1.000000	-1.000000	-1.000000	-1.000000	60.344828	0.000000	-1.000000	-1.000000	1004055.000000	1772739405.871375
-8229.690000	-13048.290000	-12459.105000	452.385000	-10876.860000	-8395.470000	-11241.720000	13264.110000	-17.747652	-27.656755	-29.401332	-26.167299	-23.070087	-20.123203	-8.613519	9.638786	5.447820	15.778840	-18.373040	0.971067	-0.276611	0.155090	-1.000000	-1.000000	-1.000000	-1.000000	-1.000000	-1.000000	-1.000000	60.344828	0.000000	-1.000000	-1.000000	1004056.000000	1772739405.871384
-8198.550000	-13022.325000	-12427.110000	468.990000	-10856.655000	-8368.875000	-11245.995000	13286.070000	-27.179477	-32.885780	-27.296981	-28.877492	-26.313547	-22.248179	-5.196213	6.224194	5.447820	15.778840	-18.373040	0.971067	-0.276611	0.155090	-1.000000	-1.000000	-1.000000	-1.000000	-1.000000	-1.000000	-1.000000	60.344828	0.000000	-1.000000	-1.000000	1004057.000000	1772739405.871394
-8208.765000	-12992.850000	-12410.145000	498.960000	-10827.765000	-8341.920000	-11248.965000	13269.285000	-28.286836	-27.911872	-17.270656	-22.136452	-20.329153	-16.099830	-0.331811	2.237678	5.447820	15.778840	-18.373040	0.971067	-0.276611	0.155090	-1.000000	-1.000000	-1.000000	-1.000000	-1.000000	-1.000000	-1.000000	60.344828	0.000000	-1.000000	-1.000000	1004058.000000	1772739405.871398
-8212.410000	-13007.070000	-12434.805000	502.965000	-10839.150000	-8363.925000	-11266.695000	13228.830000	-18.975367	-13.122874	-3.204550	-8.201777	-7.334314	-4.425021	3.268478	0.180509	5.447820	15.778840	-18.373040	0.971067	-0.276611	0.155090	-1.000000	-1.000000	-1.000000	-1.000000	-1.000000	-1.000000	-1.000000	60.344828	0.000000	-1.000000	-1.000000	1004059.000000	1772739405.871403
-8174.295000	-13022.865000	-12431.970000	479.790000	-10864.035000	-8395.065000	-11264.715000	13276.035000	-1.780554	5.411755	8.750218	7.561651	7.017128	7.174839	4.393887	0.238370	5.447820	15.778840	-18.373040	0.971067	-0.276611	0.155090	-1.000000	-1.000000	-1.000000	-1.000000	-1.000000	-1.000000	-1.000000	60.344828	0.000000	-1.000000	-1.000000	1004060.000000	1772739405.871406
-8123.355000	-12981.330000	-12415.545000	483.435000	-10855.530000	-8395.020000	-11236.680000	13313.160000	18.749761	19.712412	14.780576	18.270251	16.163581	13.190121	3.761489	3.074675	5.112100	16.190860	-17.274320	0.981870	-0.272887	0.160278	-1.000000	-1.000000	-1.000000	-1.000000	-1.000000	-1.000000	-1.000000	60.344828	0.000000	-1.000000	-1.000000	1004061.000000	1772739405.875136
-8139.960000	-12969.990000	-12411.090000	494.910000	-10842.840000	-8385.525000	-11235.690000	13255.335000	35.537178	26.355879	16.306071	20.973786	18.155577	13.206198	3.218414	7.421821	5.112100	16.190860	-17.274320	0.981870	-0.272887	0.160278	-1.000000	-1.000000	-1.000000	-1.000000	-1.000000	-1.000000	-1.000000	60.344828	0.000000	-1.000000	-1.000000	1004062.000000	1772739405.875143
-8191.845000	-13004.820000	-12426.075000	491.400000	-10842.975000	-8383.005000	-11261.880000	13197.960000	38.421586	24.959244	15.429758	17.480921	15.392398	10.591678	2.878275	6.728206	5.112100	16.190860	-17.274320	0.981870	-0.272887	0.160278	-1.000000	-1.000000	-1.000000	-1.000000	-1.000000	-1.000000	-1.000000	60.344828	0.000000	-1.000000	-1.000000	1004063.000000	1772739405.877236
-8237.475000	-13017.015000	-12441.240000	505.530000	-10819.755000	-8351.955000	-11255.490000	13160.610000	21.881905	15.738298	11.664778	10.591108	10.167570	7.276570	0.557559	-3.910700	5.112100	16.190860	-17.274320	0.981870	-0.272887	0.160278	-1.000000	-1.000000	-1.000000	-1.000000	-1.000000	-1.000000	-1.000000	60.344828	0.000000	-1.000000	-1.000000	1004064.000000	1772739405.877243
-8251.965000	-13061.160000	-12509.595000	446.400000	-10871.280000	-8388.090000	-11271.555000	13260.285000	-7.224608	1.065504	3.309479	1.643182	2.911168	2.648872	-4.119222	-17.876030	5.112100	16.190860	-17.274320	0.981870	-0.272887	0.160278	-1.000000	-1.000000	-1.000000	-1.000000	-1.000000	-1.000000	-1.000000	60.344828	0.000000	-1.000000	-1.000000	1004065.000000	1772739405.881464
-8208.045000	-13057.605000	-12480.480000	438.705000	-10891.080000	-8403.255000	-11271.690000	13297.770000	-32.977099	-14.664554	-9.381064	-9.353218	-7.152644	-4.797826	-8.233747	-20.979530	5.112100	16.190860	-17.274320	0.981870	-0.272887	0.160278	-1.000000	-1.000000	-1.000000	-1.000000	-1.000000	-1.000000	-1.000000	60.344828	0.000000	-1.000000	-1.000000	1004066.000000	1772739405.881473
-8200.620000	-13020.525000	-12406.770000	463.995000	-10876.545000	-8397.450000	-11274.120000	13209.795000	-40.685509	-25.143312	-19.550000	-19.753318	-18.067095	-13.835066	-8.480450	-8.097159	5.112100	16.190860	-17.274320	0.981870	-0.272887	0.160278	-1.000000	-1.000000	-1.000000	-1.000000	-1.000000	-1.000000	-1.000000	60.344828	0.000000	-1.000000	-1.000000	1004067.000000	1772739405.886664
-8162.145000	-13008.780000	-12425.130000	454.995000	-10881.765000	-8404.965000	-11266.290000	13298.085000	-26.396906	-23.600792	-17.774227	-23.015293	-22.951611	-18.404095	-3.648585	11.273560	5.112100	16.190860	-17.274320	0.981870	-0.272887	0.160278	-1.000000	-1.000000	-1.000000	-1.000000	-1.000000	-1.000000	-1.000000	60.344828	0.000000	-1.000000	-1.000000	1004068.000000	1772739405.886683
-8158.275000	-13008.060000	-12454.515000	437.265000	-10878.255000	-8404.470000	-11238.750000	13330.485000	0.355754	-9.527048	-4.764676	-15.510841	-16.435623	-13.219443	4.389282	25.378102	5.112100	16.190860	-17.274320	0.981870	-0.272887	0.160278	-1.000000	-1.000000	-1.000000	-1.000000	-1.000000	-1.000000	-1.000000	60.344828	0.000000	-1.000000	-1.000000	1004069.000000	1772739405.891087
-8167.545000	-12974.670000	-12421.440000	475.965000	-10830.960000	-8368.155000	-11212.245000	13289.895000	23.137414	8.740447	9.026457	-0.591745	-0.506058	0.433646	11.676808	27.708129	5.112100	16.190860	-17.274320	0.981870	-0.272887	0.160278	-1.000000	-1.000000	-1.000000	-1.000000	-1.000000	-1.000000	-1.000000	60.344828	0.000000	-1.000000	-1.000000	1004070.000000	1772739405.891094
-8240.895000	-13028.130000	-12446.820000	475.785000	-10858.905000	-8392.230000	-11252.250000	13240.575000	29.429364	20.479943	15.607013	14.908167	16.888979	15.457884	14.263498	16.601822	3.937080	15.382080	-15.198960	0.981687	-0.262634	0.163818	-1.000000	-1.000000	-1.000000	-1.000000	-1.000000	-1.000000	-1.000000	60.344828	0.000000	-1.000000	-1.000000	1004071.000000	1772739405.907776
-8261.190000	-13071.780000	-12462.345000	449.055000	-10898.325000	-8429.715000	-11291.625000	13188.420000	18.246405	19.552239	13.543569	23.781115	25.451673	22.266710	9.385330	-3.202068	3.937080	15.382080	-15.198960	0.981687	-0.262634	0.163818	-1.000000	-1.000000	-1.000000	-1.000000	-1.000000	-1.000000	-1.000000	60.344828	0.000000	-1.000000	-1.000000	1004072.000000	1772739405.907785
-8172.315000	-13005.945000	-12416.625000	478.980000	-10866.780000	-8398.620000	-11278.665000	13233.825000	1.059593	8.761797	6.520249	21.833167	19.684991	15.646860	-1.924613	-21.883138	3.937080	15.382080	-15.198960	0.981687	-0.262634	0.163818	-1.000000	-1.000000	-1.000000	-1.000000	-1.000000	-1.000000	-1.000000	60.344828	0.000000	-1.000000	-1.000000	1004073.000000	1772739405.907795
-8142.390000	-12979.755000	-12402.945000	494.595000	-10850.625000	-8379.315000	-11270.430000	13297.500000	-7.480029	-1.350853	1.256763	12.322409	5.578924	1.421925	-12.849520	-30.119416	3.937080	15.382080	-15.198960	0.981687	-0.262634	0.163818	-1.000000	-1.000000	-1.000000	-1.000000	-1.000000	-1.000000	-1.000000	60.344828	0.000000	-1.000000	-1.000000	1004074.000000	1772739405.907799
-8170.965000	-13022.955000	-12444.525000	460.440000	-10879.020000	-8400.195000	-11271.780000	13292.955000	-4.284611	-4.248547	-0.507321	1.626152	-6.222249	-9.589106	-15.944488	-23.819089	3.937080	15.382080	-15.198960	0.981687	-0.262634	0.163818	-1.000000	-1.000000	-1.000000	-1.000000	-1.000000	-1.000000	-1.000000	60.344828	0.000000	-1.000000	-1.000000	1004075.000000	1772739405.907803
-8204.715000	-13063.995000	-12470.895000	443.835000	-10885.230000	-8401.995000	-11251.980000	13307.670000	0.810721	-4.689543	-4.568666	-8.202099	-11.638212	-12.604537	-9.688622	-5.918014	3.937080	15.382080	-15.198960	0.981687	-0.262634	0.163818	-1.000000	-1.000000	-1.000000	-1.000000	-1.000000	-1.000000	-1.000000	60.344828	0.000000	-1.000000	-1.000000	1004076.000000	1772739405.907807
-8200.440000	-13035.555000	-12443.535000	466.740000	-10867.050000	-8390.610000	-11232.405000	13285.755000	-1.350702	-8.468521	-12.727297	-16.047802	-11.783866	-9.013362	1.629566	12.998852	3.937080	15.382080	-15.198960	0.981687	-0.262634	0.163818	-1.000000	-1.000000	-1.000000	-1.000000	-1.000000	-1.000000	-1.000000	60.344828	0.000000	-1.000000	-1.000000	1004077.000000	1772739405.907811
-8192.070000	-13009.590000	-12425.850000	479.205000	-10857.420000	-8391.510000	-11237.175000	13259.880000	-9.684433	-12.693222	-17.360863	-17.754419	-7.911659	-2.126181	10.976933	20.042092	3.937080	15.382080	-15.198960	0.981687	-0.262634	0.163818	-1.000000	-1.000000	-1.000000	-1.000000	-1.000000	-1.000000	-1.000000	60.344828	0.000000	-1.000000	-1.000000	1004078.000000	1772739405.907815
-8164.620000	-13007.295000	-12441.015000	457.740000	-10882.035000	-8420.220000	-11269.215000	13240.170000	-15.185226	-11.357814	-12.424795	-12.077462	-2.636443	3.389182	12.272459	12.411599	3.937080	15.382080	-15.198960	0.981687	-0.262634	0.163818	-1.000000	-1.000000	-1.000000	-1.000000	-1.000000	-1.000000	-1.000000	60.344828	0.000000	-1.000000	-1.000000	1004079.000000	1772739405.909754
-8149.005000	-13003.875000	-12441.375000	458.325000	-10883.205000	-8418.870000	-11270.340000	13282.470000	-9.471136	-2.740484	-0.800693	-3.530894	0.822211	4.141047	5.502878	0.753534	3.937080	15.382080	-15.198960	0.981687	-0.262634	0.163818	-1.000000	-1.000000	-1.000000	-1.000000	-1.000000	-1.000000	-1.000000	60.344828	0.000000	-1.000000	-1.000000	1004080.000000	1772739405.909760
-8204.670000	-13002.570000	-12417.345000	490.500000	-10847.970000	-8379.720000	-11259.585000	13271.940000	5.561831	9.720932	10.900473	3.775839	2.615256	1.891461	-2.778103	-2.998304	-1.648080	13.138860	-10.971940	0.980039	-0.257568	0.163818	-1.000000	-1.000000	-1.000000	-1.000000	-1.000000	-1.000000	-1.000000	60.344828	0.000000	-1.000000	-1.000000	1004081.000000	1772739405.923070
-8224.740000	-13017.645000	-12421.665000	488.385000	-10845.720000	-8364.690000	-11258.190000	13258.395000	16.241338	18.080316	17.323208	8.774395	4.614845	0.800310	-6.396735	0.686786	-1.648080	13.138860	-10.971940	0.980039	-0.257568	0.163818	-1.000000	-1.000000	-1.000000	-1.000000	-1.000000	-1.000000	-1.000000	60.344828	0.000000	-1.000000	-1.000000	1004082.000000	1772739405.923080
-8229.150000	-13046.535000	-12451.410000	461.745000	-10867.725000	-8377.965000	-11245.230000	13259.610000	11.636211	15.078989	15.231452	10.249236	6.024838	1.711777	-4.643107	1.779874	-1.648080	13.138860	-10.971940	0.980039	-0.257568	0.163818	-1.000000	-1.000000	-1.000000	-1.000000	-1.000000	-1.000000	-1.000000	60.344828	0.000000	-1.000000	-1.000000	1004083.000000	1772739405.923091
-8197.515000	-13036.050000	-12459.960000	447.480000	-10887.795000	-8404.695000	-11247.930000	13267.485000	-2.846587	2.441229	5.442548	7.020396	4.490526	2.074647	-0.431697	-3.470927	-1.648080	13.138860	-10.971940	0.980039	-0.257568	0.163818	-1.000000	-1.000000	-1.000000	-1.000000	-1.000000	-1.000000	-1.000000	60.344828	0.000000	-1.000000	-1.000000	1004084.000000	1772739405.923095
-8178.255000	-13011.255000	-12450.330000	460.665000	-10872.135000	-8395.065000	-11254.185000	13266.270000	-12.351268	-9.605581	-6.089972	0.959068	0.114218	0.101235	2.535257	-9.190375	-1.648080	13.138860	-10.971940	0.980039	-0.257568	0.163818	-1.000000	-1.000000	-1.000000	-1.000000	-1.000000	-1.000000	-1.000000	60.344828	0.000000	-1.000000	-1.000000	1004085.000000	1772739405.923100
-8184.105000	-13013.640000	-12467.340000	449.460000	-10881.765000	-8412.705000	-11252.790000	13260.510000	-9.354072	-12.995668	-12.858436	-4.183203	-4.432590	-3.268587	1.642791	-9.967207	-1.648080	13.138860	-10.971940	0.980039	-0.257568	0.163818	-1.000000	-1.000000	-1.000000	-1.000000	-1.000000	-1.000000	-1.000000	60.344828	0.000000	-1.000000	-1.000000	1004086.000000	1772739405.923103
-8191.035000	-13007.565000	-12454.245000	465.120000	-10868.805000	-8406.630000	-11253.465000	13243.545000	0.951283	-8.820461	-12.921425	-6.263184	-6.798360	-5.861652	-2.243544	-5.079398	-1.648080	13.138860	-10.971940	0.980039	-0.257568	0.163818	-1.000000	-1.000000	-1.000000	-1.000000	-1.000000	-1.000000	-1.000000	60.344828	0.000000	-1.000000	-1.000000	1004087.000000	1772739405.927433
-8193.195000	-13005.990000	-12417.165000	484.380000	-10854.855000	-8392.140000	-11255.490000	13238.460000	9.127025	-2.382965	-7.079440	-4.559660	-5.455560	-5.340680	-4.948278	3.010162	-1.648080	13.138860	-10.971940	0.980039	-0.257568	0.163818	-1.000000	-1.000000	-1.000000	-1.000000	-1.000000	-1.000000	-1.000000	60.344828	0.000000	-1.000000	-1.000000	1004088.000000	1772739405.927442
-8189.820000	-13004.280000	-12415.050000	471.285000	-10864.620000	-8394.390000	-11244.690000	13243.230000	10.750614	3.224487	3.022506	0.306914	-0.386294	-0.890961	-3.160078	9.965968	-1.648080	13.138860	-10.971940	0.980039	-0.257568	0.163818	-1.000000	-1.000000	-1.000000	-1.000000	-1.000000	-1.000000	-1.000000	60.344828	0.000000	-1.000000	-1.000000	1004089.000000	1772739405.930909
-8185.185000	-12987.180000	-12406.095000	479.610000	-10848.330000	-8364.645000	-11224.350000	13231.080000	7.669067	6.794607	12.424099	4.688942	4.896926	4.516454	2.301197	12.035005	-1.648080	13.138860	-10.971940	0.980039	-0.257568	0.163818	-1.000000	-1.000000	-1.000000	-1.000000	-1.000000	-1.000000	-1.000000	60.344828	0.000000	-1.000000	-1.000000	1004090.000000	1772739405.930918
