Channel1	Channel2	Channel3	Channel4	Channel5	Channel6	Channel7	Channel8	FilteredChannel1	FilteredChannel2	FilteredChannel3	FilteredChannel4	FilteredChannel5	FilteredChannel6	FilteredChannel7	FilteredChannel8	GyroX	GyroY	GyroZ	AccX	AccY	AccZ	PPG1	PPG2	rawPPG1	rawPPG2	rawPPG3	Hr	Hrv	Battery	Trigger	PhysicalTrigger	AutoTrigger	NumMeasurements	Timestamp
-6948.405000	30613.995000	34853.220000	5471.730000	-11189.970000	16865.685000	-10024.200000	-27659.835000	-7.867224	-8.494334	-9.526405	-10.489834	-11.045082	-7.382007	-4.551667	-3.159945	-2.762060	4.043900	-2.456860	0.816587	0.540099	0.162231	-1.000000	-1.000000	-1.000000	-1.000000	-1.000000	-1.000000	-1.000000	73.931034	0.000000	-1.000000	-1.000000	707995.000000	1773688972.738908
-6944.310000	30621.240000	34860.780000	5482.125000	-11177.640000	16877.925000	-10015.515000	-27671.310000	-5.359016	-6.944725	-8.253770	-9.017037	-9.564313	-8.656823	-4.745016	-2.683212	-2.762060	4.043900	-2.456860	0.816587	0.540099	0.162231	-1.000000	-1.000000	-1.000000	-1.000000	-1.000000	-1.000000	-1.000000	73.931034	0.000000	-1.000000	-1.000000	707996.000000	1773688972.738922
-6943.545000	30617.055000	34854.975000	5471.955000	-11189.565000	16868.970000	-10015.155000	-27627.750000	-1.769754	-3.853458	-4.686543	-4.422735	-4.099477	-6.145896	-2.667323	-6.720074	-2.762060	4.043900	-2.456860	0.816587	0.540099	0.162231	-1.000000	-1.000000	-1.000000	-1.000000	-1.000000	-1.000000	-1.000000	73.931034	0.000000	-1.000000	-1.000000	707997.000000	1773688972.738938
-6937.065000	30624.480000	34863.525000	5480.325000	-11184.840000	16874.955000	-10020.285000	-27620.010000	1.804674	-0.005312	0.051508	1.377543	2.785279	-1.434118	0.211507	-11.098956	-2.762060	4.043900	-2.456860	0.816587	0.540099	0.162231	-1.000000	-1.000000	-1.000000	-1.000000	-1.000000	-1.000000	-1.000000	73.931034	0.000000	-1.000000	-1.000000	707998.000000	1773688972.738943
-6943.455000	30619.305000	34858.980000	5476.365000	-11188.080000	16870.410000	-10032.660000	-27639.315000	5.068163	4.379735	5.213806	6.800049	8.527755	3.815796	2.308455	-9.932186	-2.762060	4.043900	-2.456860	0.816587	0.540099	0.162231	-1.000000	-1.000000	-1.000000	-1.000000	-1.000000	-1.000000	-1.000000	73.931034	0.000000	-1.000000	-1.000000	707999.000000	1773688972.738949
-6955.290000	30608.595000	34850.835000	5467.995000	-11195.955000	16859.655000	-10037.070000	-27654.390000	6.843170	7.809996	9.030653	10.105256	11.256666	7.754281	2.756434	-2.576723	-2.762060	4.043900	-2.456860	0.816587	0.540099	0.162231	-1.000000	-1.000000	-1.000000	-1.000000	-1.000000	-1.000000	-1.000000	73.931034	0.000000	-1.000000	-1.000000	708000.000000	1773688972.738955
-6953.805000	30608.280000	34849.665000	5465.430000	-11197.845000	16859.520000	-10032.885000	-27658.215000	5.551987	7.793621	8.975067	9.325179	9.677886	8.462080	1.876738	5.503854	-1.938020	4.165980	-1.831200	0.817686	0.539244	0.161132	-1.000000	-1.000000	-1.000000	-1.000000	-1.000000	-1.000000	-1.000000	73.931034	0.000000	-1.000000	-1.000000	708001.000000	1773688972.738961
-6949.665000	30612.285000	34853.760000	5470.245000	-11190.915000	16871.130000	-10021.005000	-27653.625000	1.883091	4.327789	5.149803	4.930041	4.790900	6.306817	1.251798	8.315609	-1.938020	4.165980	-1.831200	0.817686	0.539244	0.161132	-1.000000	-1.000000	-1.000000	-1.000000	-1.000000	-1.000000	-1.000000	73.931034	0.000000	-1.000000	-1.000000	708002.000000	1773688972.738966
-6948.135000	30619.620000	34863.030000	5481.135000	-11178.675000	16881.885000	-10018.080000	-27652.320000	-1.311546	0.540389	0.912330	0.296549	-0.048092	3.936149	2.282887	5.737380	-1.938020	4.165980	-1.831200	0.817686	0.539244	0.161132	-1.000000	-1.000000	-1.000000	-1.000000	-1.000000	-1.000000	-1.000000	73.931034	0.000000	-1.000000	-1.000000	708003.000000	1773688972.738971
-6941.295000	30627.855000	34868.340000	5485.410000	-11176.695000	16880.805000	-10020.060000	-27632.430000	-2.002652	-0.901118	-0.913072	-1.844937	-2.390128	2.651254	4.123267	2.880658	-1.938020	4.165980	-1.831200	0.817686	0.539244	0.161132	-1.000000	-1.000000	-1.000000	-1.000000	-1.000000	-1.000000	-1.000000	73.931034	0.000000	-1.000000	-1.000000	708004.000000	1773688972.738976
-6924.420000	30650.400000	34891.290000	5506.155000	-11160.180000	16877.835000	-10001.115000	-27628.785000	-0.597996	-0.239180	-0.641628	-1.793696	-2.723302	0.760802	4.401595	3.122966	-1.938020	4.165980	-1.831200	0.817686	0.539244	0.161132	-1.000000	-1.000000	-1.000000	-1.000000	-1.000000	-1.000000	-1.000000	73.931034	0.000000	-1.000000	-1.000000	708005.000000	1773688972.742773
-6929.955000	30645.135000	34888.140000	5506.605000	-11156.850000	16881.300000	-9989.730000	-27661.275000	1.248964	0.915344	0.140699	-0.919644	-2.243299	-2.924784	2.448004	3.678854	-1.938020	4.165980	-1.831200	0.817686	0.539244	0.161132	-1.000000	-1.000000	-1.000000	-1.000000	-1.000000	-1.000000	-1.000000	73.931034	0.000000	-1.000000	-1.000000	708006.000000	1773688972.742786
-6955.020000	30608.910000	34850.205000	5470.650000	-11188.980000	16870.365000	-10012.545000	-27658.755000	1.681781	0.750475	-0.165991	-0.576760	-1.752626	-6.757088	-0.451339	0.361799	-1.938020	4.165980	-1.831200	0.817686	0.539244	0.161132	-1.000000	-1.000000	-1.000000	-1.000000	-1.000000	-1.000000	-1.000000	73.931034	0.000000	-1.000000	-1.000000	708007.000000	1773688972.745234
-6954.255000	30605.625000	34845.435000	5463.135000	-11196.630000	16870.365000	-10024.515000	-27655.965000	-0.407258	-2.182671	-3.014025	-2.400935	-2.590921	-8.475462	-3.473092	-4.938237	-1.938020	4.165980	-1.831200	0.817686	0.539244	0.161132	-1.000000	-1.000000	-1.000000	-1.000000	-1.000000	-1.000000	-1.000000	73.931034	0.000000	-1.000000	-1.000000	708008.000000	1773688972.745245
-6944.220000	30618.000000	34858.575000	5473.440000	-11187.045000	16879.590000	-10024.920000	-27661.005000	-3.538051	-6.395786	-7.104402	-5.766029	-4.654363	-6.940001	-6.206942	-6.859369	-1.938020	4.165980	-1.831200	0.817686	0.539244	0.161132	-1.000000	-1.000000	-1.000000	-1.000000	-1.000000	-1.000000	-1.000000	73.931034	0.000000	-1.000000	-1.000000	708009.000000	1773688972.750505
-6939.540000	30622.905000	34863.345000	5479.020000	-11183.535000	16879.275000	-10037.745000	-27663.570000	-4.718408	-7.962436	-8.496925	-7.232130	-5.441278	-2.472904	-7.719689	-4.229523	-1.938020	4.165980	-1.831200	0.817686	0.539244	0.161132	-1.000000	-1.000000	-1.000000	-1.000000	-1.000000	-1.000000	-1.000000	73.931034	0.000000	-1.000000	-1.000000	708010.000000	1773688972.750518
-6930.765000	30634.380000	34873.560000	5486.220000	-11175.120000	16884.495000	-10030.680000	-27665.505000	-2.722231	-4.823769	-4.993568	-4.519380	-3.198280	2.772915	-7.218578	-0.084187	-3.357200	0.030520	-2.029580	0.817320	0.540465	0.160827	-1.000000	-1.000000	-1.000000	-1.000000	-1.000000	-1.000000	-1.000000	73.931034	0.000000	-1.000000	-1.000000	708011.000000	1773688972.753155
-6929.055000	30648.285000	34888.230000	5502.105000	-11159.550000	16895.610000	-10008.135000	-27674.595000	1.131420	1.483772	1.810919	1.205819	1.222987	6.151467	-4.137874	2.740417	-3.357200	0.030520	-2.029580	0.817320	0.540465	0.160827	-1.000000	-1.000000	-1.000000	-1.000000	-1.000000	-1.000000	-1.000000	73.931034	0.000000	-1.000000	-1.000000	708012.000000	1773688972.753165
-6929.955000	30656.745000	34897.275000	5513.310000	-11149.425000	16906.140000	-10005.615000	-27689.580000	4.125049	7.251515	8.037510	6.692066	5.475792	6.532445	1.333012	2.834141	-3.357200	0.030520	-2.029580	0.817320	0.540465	0.160827	-1.000000	-1.000000	-1.000000	-1.000000	-1.000000	-1.000000	-1.000000	73.931034	0.000000	-1.000000	-1.000000	708013.000000	1773688972.757506
-6908.805000	30671.460000	34910.640000	5525.910000	-11139.930000	16916.760000	-10004.490000	-27652.995000	4.269034	9.153443	10.209547	9.008448	7.370925	4.682225	6.676821	0.676907	-3.357200	0.030520	-2.029580	0.817320	0.540465	0.160827	-1.000000	-1.000000	-1.000000	-1.000000	-1.000000	-1.000000	-1.000000	73.931034	0.000000	-1.000000	-1.000000	708014.000000	1773688972.757516
-6905.700000	30653.595000	34891.470000	5505.030000	-11162.340000	16897.185000	-10016.595000	-27546.345000	2.457106	6.681363	7.619572	7.278261	6.029042	1.885530	8.530918	0.798456	-3.357200	0.030520	-2.029580	0.817320	0.540465	0.160827	-1.000000	-1.000000	-1.000000	-1.000000	-1.000000	-1.000000	-1.000000	73.931034	0.000000	-1.000000	-1.000000	708015.000000	1773688972.761244
-6933.240000	30632.040000	34872.435000	5488.920000	-11172.915000	16885.170000	-10019.835000	-27594.180000	0.727163	1.718213	2.150438	2.675808	2.171901	-1.410052	6.264024	7.114306	-3.357200	0.030520	-2.029580	0.817320	0.540465	0.160827	-1.000000	-1.000000	-1.000000	-1.000000	-1.000000	-1.000000	-1.000000	73.931034	0.000000	-1.000000	-1.000000	708016.000000	1773688972.761256
-6934.095000	30639.285000	34879.455000	5495.895000	-11165.355000	16893.855000	-9991.845000	-27650.115000	-0.847972	-3.504290	-3.603783	-2.573508	-2.215431	-4.678329	2.625812	13.645734	-3.357200	0.030520	-2.029580	0.817320	0.540465	0.160827	-1.000000	-1.000000	-1.000000	-1.000000	-1.000000	-1.000000	-1.000000	73.931034	0.000000	-1.000000	-1.000000	708017.000000	1773688972.775002
-6933.555000	30630.105000	34865.685000	5478.345000	-11183.895000	16875.720000	-10008.855000	-27655.020000	-2.991472	-7.223559	-7.641994	-6.461340	-5.261189	-6.622778	0.560143	10.108872	-3.357200	0.030520	-2.029580	0.817320	0.540465	0.160827	-1.000000	-1.000000	-1.000000	-1.000000	-1.000000	-1.000000	-1.000000	73.931034	0.000000	-1.000000	-1.000000	708018.000000	1773688972.775037
-6955.335000	30607.965000	34843.725000	5459.085000	-11200.455000	16859.385000	-10026.225000	-27662.715000	-5.307105	-8.766848	-9.394934	-8.462793	-6.776291	-6.774115	-0.180440	-3.834352	-3.357200	0.030520	-2.029580	0.817320	0.540465	0.160827	-1.000000	-1.000000	-1.000000	-1.000000	-1.000000	-1.000000	-1.000000	73.931034	0.000000	-1.000000	-1.000000	708019.000000	1773688972.775052
-6952.365000	30614.490000	34852.635000	5471.820000	-11186.550000	16867.710000	-10017.765000	-27660.825000	-6.823585	-8.464968	-9.178992	-8.763161	-7.200965	-5.622041	-1.807904	-18.354563	-3.357200	0.030520	-2.029580	0.817320	0.540465	0.160827	-1.000000	-1.000000	-1.000000	-1.000000	-1.000000	-1.000000	-1.000000	73.931034	0.000000	-1.000000	-1.000000	708020.000000	1773688972.775057
-6946.425000	30626.505000	34867.305000	5487.525000	-11172.555000	16879.455000	-10013.220000	-27673.920000	-6.264776	-6.241171	-6.678582	-6.688145	-5.810672	-3.117538	-4.694679	-23.812272	-3.250380	4.333840	-1.251320	0.816648	0.541014	0.161010	-1.000000	-1.000000	-1.000000	-1.000000	-1.000000	-1.000000	-1.000000	73.931034	0.000000	-1.000000	-1.000000	708021.000000	1773688972.775063
-6931.035000	30642.705000	34881.480000	5498.820000	-11164.770000	16859.520000	-10015.380000	-27666.090000	-2.706355	-1.726144	-1.528591	-1.790686	-1.901011	0.538073	-6.998958	-17.720513	-3.250380	4.333840	-1.251320	0.816648	0.541014	0.161010	-1.000000	-1.000000	-1.000000	-1.000000	-1.000000	-1.000000	-1.000000	73.931034	0.000000	-1.000000	-1.000000	708022.000000	1773688972.775068
-6902.955000	30661.965000	34899.345000	5514.750000	-11150.955000	16871.355000	-10000.035000	-27598.095000	3.175488	4.537071	5.294544	4.724392	3.665376	3.964429	-6.690860	-4.398987	-3.250380	4.333840	-1.251320	0.816648	0.541014	0.161010	-1.000000	-1.000000	-1.000000	-1.000000	-1.000000	-1.000000	-1.000000	73.931034	0.000000	-1.000000	-1.000000	708023.000000	1773688972.789558
-6904.305000	30656.070000	34896.690000	5509.350000	-11158.335000	16894.980000	-10004.805000	-27565.920000	9.430202	11.047008	11.898231	10.854922	9.160561	6.789022	-2.830583	9.677048	-3.250380	4.333840	-1.251320	0.816648	0.541014	0.161010	-1.000000	-1.000000	-1.000000	-1.000000	-1.000000	-1.000000	-1.000000	73.931034	0.000000	-1.000000	-1.000000	708024.000000	1773688972.789579
-6943.230000	30622.365000	34864.830000	5479.020000	-11184.930000	16883.685000	-10022.040000	-27656.595000	13.054899	14.871718	15.421898	13.949611	12.079440	9.577455	2.870945	18.803234	-3.250380	4.333840	-1.251320	0.816648	0.541014	0.161010	-1.000000	-1.000000	-1.000000	-1.000000	-1.000000	-1.000000	-1.000000	73.931034	0.000000	-1.000000	-1.000000	708025.000000	1773688972.789602
-6948.720000	30627.495000	34871.085000	5488.830000	-11172.015000	16897.635000	-10004.400000	-27710.235000	10.701855	12.475450	12.663786	11.289026	9.890284	10.922215	6.597255	18.341411	-3.250380	4.333840	-1.251320	0.816648	0.541014	0.161010	-1.000000	-1.000000	-1.000000	-1.000000	-1.000000	-1.000000	-1.000000	73.931034	0.000000	-1.000000	-1.000000	708026.000000	1773688972.789611
-6926.355000	30651.390000	34895.115000	5515.785000	-11144.835000	16912.035000	-9991.080000	-27680.130000	2.738031	4.429148	4.446780	4.069525	3.847767	9.172783	6.973735	8.220071	-3.250380	4.333840	-1.251320	0.816648	0.541014	0.161010	-1.000000	-1.000000	-1.000000	-1.000000	-1.000000	-1.000000	-1.000000	73.931034	0.000000	-1.000000	-1.000000	708027.000000	1773688972.789623
-6907.860000	30661.650000	34902.360000	5520.555000	-11141.145000	16910.190000	-9981.630000	-27632.295000	-5.140082	-3.601352	-3.623493	-2.511713	-1.392657	4.973606	6.019904	-3.594702	-3.250380	4.333840	-1.251320	0.816648	0.541014	0.161010	-1.000000	-1.000000	-1.000000	-1.000000	-1.000000	-1.000000	-1.000000	73.931034	0.000000	-1.000000	-1.000000	708028.000000	1773688972.789632
-6939.495000	30621.195000	34859.205000	5474.520000	-11187.090000	16870.725000	-10008.270000	-27637.650000	-8.139130	-7.800803	-8.113205	-6.161263	-4.367570	-1.204124	4.416592	-7.743877	-3.250380	4.333840	-1.251320	0.816648	0.541014	0.161010	-1.000000	-1.000000	-1.000000	-1.000000	-1.000000	-1.000000	-1.000000	73.931034	0.000000	-1.000000	-1.000000	708029.000000	1773688972.789642
-6968.970000	30596.760000	34836.210000	5453.190000	-11208.645000	16856.955000	-10030.545000	-27675.090000	-7.792143	-10.167662	-11.165736	-9.720299	-8.172613	-9.643896	0.232217	-3.647367	-3.250380	4.333840	-1.251320	0.816648	0.541014	0.161010	-1.000000	-1.000000	-1.000000	-1.000000	-1.000000	-1.000000	-1.000000	73.931034	0.000000	-1.000000	-1.000000	708030.000000	1773688972.789651
-6964.020000	30609.495000	34850.745000	5472.360000	-11185.965000	16880.220000	-10020.870000	-27665.055000	-8.120097	-13.025225	-14.559222	-14.351303	-13.465126	-17.304546	-6.570121	1.074944	-2.716280	4.700080	-1.205540	0.816709	0.540831	0.161377	-1.000000	-1.000000	-1.000000	-1.000000	-1.000000	-1.000000	-1.000000	73.931034	0.000000	-1.000000	-1.000000	708031.000000	1773688972.793204
-6937.065000	30632.715000	34873.020000	5493.285000	-11165.310000	16896.870000	-10013.445000	-27653.490000	-9.049519	-13.749659	-15.022377	-15.593510	-15.157726	-18.290668	-11.868098	-0.360673	-2.716280	4.700080	-1.205540	0.816709	0.540831	0.161377	-1.000000	-1.000000	-1.000000	-1.000000	-1.000000	-1.000000	-1.000000	73.931034	0.000000	-1.000000	-1.000000	708032.000000	1773688972.793217
-6914.790000	30653.865000	34897.005000	5514.255000	-11148.300000	16911.810000	-10006.515000	-27623.790000	-6.242470	-7.651534	-7.945809	-8.456391	-8.245143	-10.279572	-11.062827	-6.392425	-2.716280	4.700080	-1.205540	0.816709	0.540831	0.161377	-1.000000	-1.000000	-1.000000	-1.000000	-1.000000	-1.000000	-1.000000	73.931034	0.000000	-1.000000	-1.000000	708033.000000	1773688972.806814
-6918.255000	30637.665000	34877.250000	5494.185000	-11168.415000	16891.110000	-10011.015000	-27564.930000	2.861727	5.173839	5.889319	5.695617	5.396247	2.443926	-3.855765	-6.985946	-2.716280	4.700080	-1.205540	0.816709	0.540831	0.161377	-1.000000	-1.000000	-1.000000	-1.000000	-1.000000	-1.000000	-1.000000	73.931034	0.000000	-1.000000	-1.000000	708034.000000	1773688972.806828
-6936.300000	30623.670000	34863.390000	5484.960000	-11172.600000	16883.550000	-10008.810000	-27630.540000	13.801152	17.291220	18.437596	18.284497	17.112552	12.158351	5.100449	3.762924	-2.716280	4.700080	-1.205540	0.816709	0.540831	0.161377	-1.000000	-1.000000	-1.000000	-1.000000	-1.000000	-1.000000	-1.000000	73.931034	0.000000	-1.000000	-1.000000	708035.000000	1773688972.806842
-6964.695000	30592.395000	34832.160000	5453.190000	-11205.720000	16850.880000	-10030.095000	-27643.545000	17.752069	19.620438	20.557167	20.247709	18.497583	13.276918	10.024912	16.041315	-2.716280	4.700080	-1.205540	0.816709	0.540831	0.161377	-1.000000	-1.000000	-1.000000	-1.000000	-1.000000	-1.000000	-1.000000	73.931034	0.000000	-1.000000	-1.000000	708036.000000	1773688972.806848
-6972.120000	30589.290000	34827.615000	5445.495000	-11215.665000	16842.240000	-10040.580000	-27660.915000	10.361728	10.021720	10.505787	10.098933	8.538037	6.247973	8.245720	15.420746	-2.716280	4.700080	-1.205540	0.816709	0.540831	0.161377	-1.000000	-1.000000	-1.000000	-1.000000	-1.000000	-1.000000	-1.000000	73.931034	0.000000	-1.000000	-1.000000	708037.000000	1773688972.806854
-6959.205000	30607.785000	34846.695000	5463.630000	-11197.440000	16863.030000	-10030.860000	-27662.580000	-2.937438	-3.946147	-3.794967	-4.205894	-5.006265	-2.479900	2.224380	0.966289	-2.716280	4.700080	-1.205540	0.816709	0.540831	0.161377	-1.000000	-1.000000	-1.000000	-1.000000	-1.000000	-1.000000	-1.000000	73.931034	0.000000	-1.000000	-1.000000	708038.000000	1773688972.806859
-6947.280000	30624.255000	34863.120000	5478.885000	-11185.290000	16873.695000	-10021.500000	-27659.340000	-11.817185	-11.661765	-11.650076	-12.055195	-11.986142	-5.504987	-2.384174	-15.272279	-2.716280	4.700080	-1.205540	0.816709	0.540831	0.161377	-1.000000	-1.000000	-1.000000	-1.000000	-1.000000	-1.000000	-1.000000	73.931034	0.000000	-1.000000	-1.000000	708039.000000	1773688972.809111
-6946.245000	30620.070000	34858.035000	5471.865000	-11195.865000	16858.530000	-10024.605000	-27652.545000	-11.248787	-9.455210	-9.501758	-9.949128	-9.354798	-1.784831	-2.499822	-22.107767	-2.716280	4.700080	-1.205540	0.816709	0.540831	0.161377	-1.000000	-1.000000	-1.000000	-1.000000	-1.000000	-1.000000	-1.000000	73.931034	0.000000	-1.000000	-1.000000	708040.000000	1773688972.809122
-6951.645000	30605.175000	34843.365000	5463.270000	-11196.990000	16856.010000	-10030.230000	-27654.840000	-4.893975	-2.591133	-2.740657	-3.099329	-2.420860	2.959268	-0.079970	-17.823485	-2.258480	4.120200	-1.419180	0.815428	0.541686	0.161071	-1.000000	-1.000000	-1.000000	-1.000000	-1.000000	-1.000000	-1.000000	73.931034	0.000000	-1.000000	-1.000000	708041.000000	1773688972.813077
-6950.160000	30607.110000	34846.470000	5468.670000	-11190.150000	16861.995000	-10030.500000	-27657.765000	0.966935	2.083830	1.782420	2.050117	2.855899	3.891764	1.545511	-7.324910	-2.258480	4.120200	-1.419180	0.815428	0.541686	0.161071	-1.000000	-1.000000	-1.000000	-1.000000	-1.000000	-1.000000	-1.000000	73.931034	0.000000	-1.000000	-1.000000	708042.000000	1773688972.813086
-6941.745000	30622.950000	34864.020000	5485.995000	-11175.660000	16881.210000	-10018.980000	-27653.535000	3.725694	2.929700	2.613840	3.948792	5.135016	1.970739	1.273433	3.968141	-2.258480	4.120200	-1.419180	0.815428	0.541686	0.161071	-1.000000	-1.000000	-1.000000	-1.000000	-1.000000	-1.000000	-1.000000	73.931034	0.000000	-1.000000	-1.000000	708043.000000	1773688972.817097
-6943.680000	30621.195000	34858.620000	5475.780000	-11184.750000	16880.265000	-10018.080000	-27656.370000	4.509477	2.638502	2.564997	4.473705	5.726762	0.890706	0.210120	13.031265	-2.258480	4.120200	-1.419180	0.815428	0.541686	0.161071	-1.000000	-1.000000	-1.000000	-1.000000	-1.000000	-1.000000	-1.000000	73.931034	0.000000	-1.000000	-1.000000	708044.000000	1773688972.817113
-6938.415000	30629.385000	34866.090000	5483.070000	-11178.180000	16883.145000	-10011.285000	-27651.465000	4.870284	3.343180	3.534584	4.770175	5.399954	2.190426	-0.125908	18.293229	-2.258480	4.120200	-1.419180	0.815428	0.541686	0.161071	-1.000000	-1.000000	-1.000000	-1.000000	-1.000000	-1.000000	-1.000000	73.931034	0.000000	-1.000000	-1.000000	708045.000000	1773688972.821127
-6929.640000	30641.715000	34879.770000	5497.155000	-11164.680000	16895.205000	-9996.165000	-27637.290000	5.074435	4.717243	4.958489	4.712263	4.413227	4.426084	0.943724	18.410250	-2.258480	4.120200	-1.419180	0.815428	0.541686	0.161071	-1.000000	-1.000000	-1.000000	-1.000000	-1.000000	-1.000000	-1.000000	73.931034	0.000000	-1.000000	-1.000000	708046.000000	1773688972.821139
-6927.390000	30643.875000	34881.750000	5498.730000	-11161.125000	16896.960000	-9995.625000	-27627.480000	4.362442	4.963374	5.110070	3.693655	2.774458	4.976040	2.681521	13.646682	-2.258480	4.120200	-1.419180	0.815428	0.541686	0.161071	-1.000000	-1.000000	-1.000000	-1.000000	-1.000000	-1.000000	-1.000000	73.931034	0.000000	-1.000000	-1.000000	708047.000000	1773688972.825160
-6921.990000	30646.395000	34881.930000	5496.885000	-11164.410000	16878.960000	-10017.810000	-27645.255000	1.799364	2.346602	2.353826	0.707267	-0.184073	1.814006	2.789130	5.493876	-2.258480	4.120200	-1.419180	0.815428	0.541686	0.161071	-1.000000	-1.000000	-1.000000	-1.000000	-1.000000	-1.000000	-1.000000	73.931034	0.000000	-1.000000	-1.000000	708048.000000	1773688972.825173
-6930.045000	30640.860000	34876.935000	5493.735000	-11167.695000	16865.190000	-10049.940000	-27699.975000	-2.568720	-2.861145	-3.036242	-4.120575	-4.492068	-4.804969	-0.931770	-5.499626	-2.258480	4.120200	-1.419180	0.815428	0.541686	0.161071	-1.000000	-1.000000	-1.000000	-1.000000	-1.000000	-1.000000	-1.000000	73.931034	0.000000	-1.000000	-1.000000	708049.000000	1773688972.829253
-6930.180000	30643.740000	34883.460000	5502.960000	-11157.075000	16891.335000	-10047.330000	-27693.540000	-7.158236	-7.911888	-8.205464	-8.408235	-8.314148	-11.384609	-7.489057	-17.643665	-2.258480	4.120200	-1.419180	0.815428	0.541686	0.161071	-1.000000	-1.000000	-1.000000	-1.000000	-1.000000	-1.000000	-1.000000	73.931034	0.000000	-1.000000	-1.000000	708050.000000	1773688972.829286
-6925.050000	30646.395000	34886.610000	5501.925000	-11162.880000	16895.250000	-10020.915000	-27606.015000	-9.574776	-9.799799	-9.970838	-9.471490	-9.404506	-13.187934	-12.009400	-24.049589	-3.540320	4.532220	-1.388660	0.815611	0.541503	0.161682	-1.000000	-1.000000	-1.000000	-1.000000	-1.000000	-1.000000	-1.000000	73.931034	0.000000	-1.000000	-1.000000	708051.000000	1773688972.833055
-6931.305000	30639.870000	34882.020000	5495.805000	-11172.105000	16887.690000	-10006.740000	-27603.900000	-8.318703	-7.796006	-7.601783	-6.956930	-7.426235	-8.797762	-9.796030	-17.035698	-3.540320	4.532220	-1.388660	0.815611	0.541503	0.161682	-1.000000	-1.000000	-1.000000	-1.000000	-1.000000	-1.000000	-1.000000	73.931034	0.000000	-1.000000	-1.000000	708052.000000	1773688972.833064
-6939.630000	30629.475000	34867.935000	5480.685000	-11183.715000	16879.905000	-9997.470000	-27665.865000	-4.095177	-3.615318	-3.036439	-2.745202	-3.832734	-1.340283	-1.031388	0.347263	-3.540320	4.532220	-1.388660	0.815611	0.541503	0.161682	-1.000000	-1.000000	-1.000000	-1.000000	-1.000000	-1.000000	-1.000000	73.931034	0.000000	-1.000000	-1.000000	708053.000000	1773688972.836942
-6941.295000	30641.040000	34881.975000	5498.100000	-11166.615000	16892.325000	-10004.670000	-27670.905000	0.774478	0.529793	1.228588	1.181939	0.064325	5.201377	9.052409	14.451957	-3.540320	4.532220	-1.388660	0.815611	0.541503	0.161682	-1.000000	-1.000000	-1.000000	-1.000000	-1.000000	-1.000000	-1.000000	73.931034	0.000000	-1.000000	-1.000000	708054.000000	1773688972.836962
-6941.700000	30636.360000	34877.070000	5496.255000	-11165.625000	16892.730000	-10000.125000	-27639.495000	4.103733	3.342202	3.783336	3.887285	3.623922	8.623807	14.164984	16.167477	-3.540320	4.532220	-1.388660	0.815611	0.541503	0.161682	-1.000000	-1.000000	-1.000000	-1.000000	-1.000000	-1.000000	-1.000000	73.931034	0.000000	-1.000000	-1.000000	708055.000000	1773688972.841159
-6927.975000	30633.750000	34869.600000	5487.525000	-11173.320000	16885.710000	-10016.595000	-27645.525000	5.174918	4.250556	4.134072	4.840807	5.906264	8.332448	11.553951	8.547876	-3.540320	4.532220	-1.388660	0.815611	0.541503	0.161682	-1.000000	-1.000000	-1.000000	-1.000000	-1.000000	-1.000000	-1.000000	73.931034	0.000000	-1.000000	-1.000000	708056.000000	1773688972.841170
-6914.610000	30641.130000	34875.270000	5490.945000	-11173.140000	16879.545000	-10013.130000	-27592.245000	4.911089	3.498647	2.678485	3.878162	5.964342	5.246393	3.770478	0.378407	-3.540320	4.532220	-1.388660	0.815611	0.541503	0.161682	-1.000000	-1.000000	-1.000000	-1.000000	-1.000000	-1.000000	-1.000000	73.931034	0.000000	-1.000000	-1.000000	708057.000000	1773688972.845580
-6924.555000	30646.890000	34887.015000	5505.795000	-11156.265000	16892.820000	-10001.610000	-27644.040000	4.471135	2.508687	1.188662	2.192367	4.324711	1.517210	-3.429540	-2.036134	-3.540320	4.532220	-1.388660	0.815611	0.541503	0.161682	-1.000000	-1.000000	-1.000000	-1.000000	-1.000000	-1.000000	-1.000000	73.931034	0.000000	-1.000000	-1.000000	708058.000000	1773688972.845592
-6940.890000	30633.975000	34877.385000	5499.180000	-11158.650000	16896.600000	-10008.855000	-27665.190000	3.483654	2.295612	1.148202	1.308558	2.511256	-1.157329	-6.122747	-0.761707	-3.540320	4.532220	-1.388660	0.815611	0.541503	0.161682	-1.000000	-1.000000	-1.000000	-1.000000	-1.000000	-1.000000	-1.000000	73.931034	0.000000	-1.000000	-1.000000	708059.000000	1773688972.901730
-6942.600000	30632.580000	34878.510000	5500.710000	-11154.150000	16905.780000	-9994.455000	-27646.155000	0.840485	2.082623	1.864770	1.195501	1.293237	-2.394127	-5.322442	-2.800491	-3.540320	4.532220	-1.388660	0.815611	0.541503	0.161682	-1.000000	-1.000000	-1.000000	-1.000000	-1.000000	-1.000000	-1.000000	73.931034	0.000000	-1.000000	-1.000000	708060.000000	1773688972.901743
-6932.520000	30645.135000	34888.680000	5509.935000	-11147.355000	16912.485000	-9982.305000	-27642.195000	-2.569231	1.250035	2.198019	1.270783	0.802890	-2.087722	-3.782619	-8.466598	-2.334780	4.837420	-2.197440	0.816038	0.541686	0.161438	-1.000000	-1.000000	-1.000000	-1.000000	-1.000000	-1.000000	-1.000000	73.931034	0.000000	-1.000000	-1.000000	708061.000000	1773688972.901758
-6933.780000	30638.160000	34878.960000	5499.360000	-11161.395000	16896.420000	-9995.220000	-27638.280000	-4.105437	0.567687	2.156071	1.472544	0.788018	-0.573251	-2.573419	-10.459944	-2.334780	4.837420	-2.197440	0.816038	0.541686	0.161438	-1.000000	-1.000000	-1.000000	-1.000000	-1.000000	-1.000000	-1.000000	73.931034	0.000000	-1.000000	-1.000000	708062.000000	1773688972.901764
-6953.490000	30609.045000	34847.370000	5466.645000	-11193.570000	16865.640000	-10025.010000	-27640.530000	-2.985115	-0.211933	1.003627	0.568407	-0.520058	-0.048090	-2.240680	-4.826816	-2.334780	4.837420	-2.197440	0.816038	0.541686	0.161438	-1.000000	-1.000000	-1.000000	-1.000000	-1.000000	-1.000000	-1.000000	73.931034	0.000000	-1.000000	-1.000000	708063.000000	1773688972.901771
-6968.610000	30593.880000	34831.305000	5449.725000	-11211.570000	16846.830000	-10038.060000	-27661.590000	-1.482271	-2.637285	-2.630275	-3.173059	-4.846894	-2.769430	-3.395013	3.705469	-2.334780	4.837420	-2.197440	0.816038	0.541686	0.161438	-1.000000	-1.000000	-1.000000	-1.000000	-1.000000	-1.000000	-1.000000	73.931034	0.000000	-1.000000	-1.000000	708064.000000	1773688972.901776
-6948.630000	30624.525000	34864.065000	5480.370000	-11186.820000	16846.020000	-10024.290000	-27670.950000	-1.608145	-5.851581	-6.994271	-7.848498	-9.884072	-7.190150	-4.567272	7.684213	-2.334780	4.837420	-2.197440	0.816038	0.541686	0.161438	-1.000000	-1.000000	-1.000000	-1.000000	-1.000000	-1.000000	-1.000000	73.931034	0.000000	-1.000000	-1.000000	708065.000000	1773688972.901782
-6930.135000	30652.650000	34894.170000	5508.405000	-11159.235000	16850.025000	-10011.645000	-27672.975000	-2.121144	-5.925154	-7.265578	-8.232351	-10.107569	-8.723858	-2.619041	4.860489	-2.334780	4.837420	-2.197440	0.816038	0.541686	0.161438	-1.000000	-1.000000	-1.000000	-1.000000	-1.000000	-1.000000	-1.000000	73.931034	0.000000	-1.000000	-1.000000	708066.000000	1773688972.901786
-6915.330000	30657.960000	34897.320000	5510.970000	-11159.190000	16883.595000	-10007.145000	-27619.695000	-0.146365	-0.646879	-1.307745	-2.071272	-3.253111	-4.548170	3.128669	0.452208	-2.334780	4.837420	-2.197440	0.816038	0.541686	0.161438	-1.000000	-1.000000	-1.000000	-1.000000	-1.000000	-1.000000	-1.000000	73.931034	0.000000	-1.000000	-1.000000	708067.000000	1773688972.901792
-6904.260000	30663.585000	34899.525000	5512.410000	-11158.875000	16904.970000	-10015.155000	-27616.905000	4.915500	7.183313	7.159700	6.771170	6.537095	4.139341	9.138091	0.970390	-2.334780	4.837420	-2.197440	0.816038	0.541686	0.161438	-1.000000	-1.000000	-1.000000	-1.000000	-1.000000	-1.000000	-1.000000	73.931034	0.000000	-1.000000	-1.000000	708068.000000	1773688972.901797
-6929.730000	30635.460000	34870.995000	5486.760000	-11179.080000	16892.910000	-10029.510000	-27698.265000	9.685811	11.854550	11.799852	11.945806	12.679762	12.842926	10.531594	4.592039	-2.334780	4.837420	-2.197440	0.816038	0.541686	0.161438	-1.000000	-1.000000	-1.000000	-1.000000	-1.000000	-1.000000	-1.000000	73.931034	0.000000	-1.000000	-1.000000	708069.000000	1773688972.901803
-6940.845000	30615.930000	34854.795000	5472.495000	-11189.655000	16881.210000	-10018.485000	-27619.560000	9.234343	8.980210	8.609053	9.566215	11.376085	15.993477	5.667454	4.689536	-2.334780	4.837420	-2.197440	0.816038	0.541686	0.161438	-1.000000	-1.000000	-1.000000	-1.000000	-1.000000	-1.000000	-1.000000	73.931034	0.000000	-1.000000	-1.000000	708070.000000	1773688972.901807
-6927.165000	30632.130000	34872.210000	5490.720000	-11170.170000	16893.810000	-9996.255000	-27586.440000	2.568064	-0.286356	-0.424924	1.465623	4.420953	11.557929	-1.343695	1.950237	-2.639980	4.608520	-2.624720	0.815244	0.542235	0.161804	-1.000000	-1.000000	-1.000000	-1.000000	-1.000000	-1.000000	-1.000000	73.931034	0.000000	-1.000000	-1.000000	708071.000000	1773688972.901813
-6946.380000	30614.850000	34852.860000	5477.535000	-11180.655000	16874.595000	-10009.755000	-27643.905000	-5.661270	-9.180349	-8.380206	-5.890076	-2.294376	2.986293	-4.455516	0.746499	-2.639980	4.608520	-2.624720	0.815244	0.542235	0.161804	-1.000000	-1.000000	-1.000000	-1.000000	-1.000000	-1.000000	-1.000000	73.931034	0.000000	-1.000000	-1.000000	708072.000000	1773688972.901818
-6972.120000	30581.820000	34820.055000	5448.150000	-11207.925000	16841.655000	-10039.680000	-27671.445000	-10.790076	-12.423044	-10.691446	-8.204248	-5.050631	-5.248966	-2.713644	-0.531440	-2.639980	4.608520	-2.624720	0.815244	0.542235	0.161804	-1.000000	-1.000000	-1.000000	-1.000000	-1.000000	-1.000000	-1.000000	73.931034	0.000000	-1.000000	-1.000000	708073.000000	1773688972.901824
-6952.590000	30608.685000	34848.000000	5470.920000	-11191.320000	16856.595000	-10031.670000	-27664.290000	-11.991222	-10.676714	-8.777581	-6.934519	-5.297690	-10.914030	-0.428647	-4.742706	-2.639980	4.608520	-2.624720	0.815244	0.542235	0.161804	-1.000000	-1.000000	-1.000000	-1.000000	-1.000000	-1.000000	-1.000000	73.931034	0.000000	-1.000000	-1.000000	708074.000000	1773688972.901828
-6955.020000	30610.710000	34851.285000	5470.335000	-11196.810000	16859.070000	-10037.565000	-27650.880000	-9.803351	-6.454628	-5.325002	-4.892906	-5.490178	-12.760880	-0.865714	-9.403393	-2.639980	4.608520	-2.624720	0.815244	0.542235	0.161804	-1.000000	-1.000000	-1.000000	-1.000000	-1.000000	-1.000000	-1.000000	73.931034	0.000000	-1.000000	-1.000000	708075.000000	1773688972.901834
-6956.595000	30602.970000	34840.170000	5458.995000	-11206.395000	16861.860000	-10033.830000	-27655.785000	-4.818188	-1.093243	-1.273487	-2.870042	-5.799976	-10.766749	-3.238251	-10.576546	-2.639980	4.608520	-2.624720	0.815244	0.542235	0.161804	-1.000000	-1.000000	-1.000000	-1.000000	-1.000000	-1.000000	-1.000000	73.931034	0.000000	-1.000000	-1.000000	708076.000000	1773688972.901839
-6948.180000	30617.730000	34853.670000	5469.660000	-11196.945000	16867.935000	-10022.805000	-27659.295000	1.548704	4.380237	2.973175	-0.461734	-4.842217	-6.512374	-4.604292	-7.344479	-2.639980	4.608520	-2.624720	0.815244	0.542235	0.161804	-1.000000	-1.000000	-1.000000	-1.000000	-1.000000	-1.000000	-1.000000	73.931034	0.000000	-1.000000	-1.000000	708077.000000	1773688972.901845
-6953.580000	30615.525000	34854.480000	5476.005000	-11186.235000	16873.920000	-10022.760000	-27663.255000	7.728321	9.274224	7.274797	3.172801	-1.071617	-1.082426	-2.868257	-0.677795	-2.639980	4.608520	-2.624720	0.815244	0.542235	0.161804	-1.000000	-1.000000	-1.000000	-1.000000	-1.000000	-1.000000	-1.000000	73.931034	0.000000	-1.000000	-1.000000	708078.000000	1773688972.901850
-6953.670000	30617.910000	34859.610000	5486.895000	-11170.170000	16888.005000	-10018.215000	-27662.400000	11.972226	12.606301	10.945829	7.896871	5.345081	5.155487	1.063545	6.173506	-2.639980	4.608520	-2.624720	0.815244	0.542235	0.161804	-1.000000	-1.000000	-1.000000	-1.000000	-1.000000	-1.000000	-1.000000	73.931034	0.000000	-1.000000	-1.000000	708079.000000	1773688972.903785
-6942.690000	30632.130000	34872.885000	5494.725000	-11166.120000	16891.245000	-10023.615000	-27647.865000	12.519008	12.698173	12.131701	11.454800	11.437891	10.825771	4.299073	8.855397	-2.639980	4.608520	-2.624720	0.815244	0.542235	0.161804	-1.000000	-1.000000	-1.000000	-1.000000	-1.000000	-1.000000	-1.000000	73.931034	0.000000	-1.000000	-1.000000	708080.000000	1773688972.903796
-6936.165000	30631.005000	34869.285000	5491.215000	-11170.215000	16884.810000	-10031.130000	-27632.430000	9.631663	9.309920	9.948869	11.503301	13.591669	13.757560	5.142038	8.046504	-1.587040	4.928980	-2.792580	0.815000	0.542662	0.162475	-1.000000	-1.000000	-1.000000	-1.000000	-1.000000	-1.000000	-1.000000	73.931034	0.000000	-1.000000	-1.000000	708081.000000	1773688972.918082
-6937.380000	30625.470000	34861.095000	5480.325000	-11182.905000	16870.950000	-10031.670000	-27660.600000	5.177459	3.786403	5.012971	7.375093	10.166579	12.390371	4.121659	7.549489	-1.587040	4.928980	-2.792580	0.815000	0.542662	0.162475	-1.000000	-1.000000	-1.000000	-1.000000	-1.000000	-1.000000	-1.000000	73.931034	0.000000	-1.000000	-1.000000	708082.000000	1773688972.918095
-6924.195000	30642.840000	34878.960000	5498.820000	-11163.690000	16890.480000	-10005.390000	-27651.015000	0.110282	-2.912329	-2.045678	-0.216339	2.045820	6.517143	2.553536	6.963481	-1.587040	4.928980	-2.792580	0.815000	0.542662	0.162475	-1.000000	-1.000000	-1.000000	-1.000000	-1.000000	-1.000000	-1.000000	73.931034	0.000000	-1.000000	-1.000000	708083.000000	1773688972.918110
-6933.690000	30635.685000	34875.630000	5497.785000	-11163.330000	16893.000000	-10006.830000	-27630.675000	-5.172470	-9.470662	-9.498339	-8.529269	-7.158722	-1.984258	1.374413	3.726361	-1.587040	4.928980	-2.792580	0.815000	0.542662	0.162475	-1.000000	-1.000000	-1.000000	-1.000000	-1.000000	-1.000000	-1.000000	73.931034	0.000000	-1.000000	-1.000000	708084.000000	1773688972.918115
-6939.000000	30632.130000	34871.670000	5491.260000	-11170.440000	16887.330000	-10014.300000	-27652.815000	-9.615892	-13.542429	-14.109689	-13.572691	-12.882696	-9.820709	0.335082	-1.836030	-1.587040	4.928980	-2.792580	0.815000	0.542662	0.162475	-1.000000	-1.000000	-1.000000	-1.000000	-1.000000	-1.000000	-1.000000	73.931034	0.000000	-1.000000	-1.000000	708085.000000	1773688972.918122
-6929.730000	30641.310000	34878.060000	5495.445000	-11171.385000	16882.245000	-10013.355000	-27682.650000	-11.685828	-13.389281	-13.735820	-13.299971	-13.205644	-14.293603	-1.641352	-7.530768	-1.587040	4.928980	-2.792580	0.815000	0.542662	0.162475	-1.000000	-1.000000	-1.000000	-1.000000	-1.000000	-1.000000	-1.000000	73.931034	0.000000	-1.000000	-1.000000	708086.000000	1773688972.918127
-6929.190000	30643.830000	34880.085000	5497.920000	-11167.605000	16885.170000	-9996.885000	-27652.590000	-9.924837	-8.787982	-8.660695	-8.557901	-9.359322	-14.096029	-4.250365	-11.183753	-1.587040	4.928980	-2.792580	0.815000	0.542662	0.162475	-1.000000	-1.000000	-1.000000	-1.000000	-1.000000	-1.000000	-1.000000	73.931034	0.000000	-1.000000	-1.000000	708087.000000	1773688972.918132
-6938.190000	30638.970000	34879.230000	5501.880000	-11157.390000	16899.570000	-9978.345000	-27602.910000	-4.777639	-1.598477	-1.333804	-1.926938	-3.706763	-9.344581	-5.332995	-10.339523	-1.587040	4.928980	-2.792580	0.815000	0.542662	0.162475	-1.000000	-1.000000	-1.000000	-1.000000	-1.000000	-1.000000	-1.000000	73.931034	0.000000	-1.000000	-1.000000	708088.000000	1773688972.918137
-6927.390000	30646.395000	34884.855000	5506.920000	-11155.185000	16900.695000	-9980.370000	-27587.520000	1.015928	4.762220	4.901244	3.833342	1.818091	-1.523044	-3.276183	-3.548825	-1.587040	4.928980	-2.792580	0.815000	0.542662	0.162475	-1.000000	-1.000000	-1.000000	-1.000000	-1.000000	-1.000000	-1.000000	73.931034	0.000000	-1.000000	-1.000000	708089.000000	1773688972.918143
-6915.645000	30658.455000	34899.210000	5521.545000	-11141.280000	16914.015000	-9994.005000	-27632.925000	5.259969	8.237823	8.373014	7.541819	6.364288	7.039330	0.836687	5.967268	-1.587040	4.928980	-2.792580	0.815000	0.542662	0.162475	-1.000000	-1.000000	-1.000000	-1.000000	-1.000000	-1.000000	-1.000000	73.931034	0.000000	-1.000000	-1.000000	708090.000000	1773688972.918147
-6902.640000	30672.405000	34914.600000	5537.295000	-11124.180000	16924.995000	-10002.420000	-27638.865000	7.449457	8.960990	9.357357	9.309126	9.525099	13.581411	3.583627	11.194991	-2.960440	4.425400	-2.319520	0.813597	0.542540	0.163818	-1.000000	-1.000000	-1.000000	-1.000000	-1.000000	-1.000000	-1.000000	73.931034	0.000000	-1.000000	-1.000000	708091.000000	1773688972.918153
-6920.820000	30646.395000	34885.485000	5507.100000	-11156.175000	16877.430000	-10007.820000	-27648.945000	7.172281	6.953276	7.597410	8.347950	9.775477	14.500121	2.161168	8.029336	-2.960440	4.425400	-2.319520	0.813597	0.542540	0.163818	-1.000000	-1.000000	-1.000000	-1.000000	-1.000000	-1.000000	-1.000000	73.931034	0.000000	-1.000000	-1.000000	708092.000000	1773688972.918158
-6934.905000	30633.750000	34873.830000	5494.680000	-11170.530000	16870.860000	-10025.865000	-27699.030000	3.907712	1.905660	2.322988	3.358846	5.197414	7.215053	-2.753275	-1.868479	-2.960440	4.425400	-2.319520	0.813597	0.542540	0.163818	-1.000000	-1.000000	-1.000000	-1.000000	-1.000000	-1.000000	-1.000000	73.931034	0.000000	-1.000000	-1.000000	708093.000000	1773688972.918163
-6927.075000	30647.880000	34887.150000	5506.560000	-11159.010000	16897.905000	-10027.215000	-27702.270000	-1.260847	-4.394006	-4.677281	-4.027016	-2.767730	-4.750066	-7.509050	-12.719791	-2.960440	4.425400	-2.319520	0.813597	0.542540	0.163818	-1.000000	-1.000000	-1.000000	-1.000000	-1.000000	-1.000000	-1.000000	73.931034	0.000000	-1.000000	-1.000000	708094.000000	1773688972.918168
-6927.525000	30645.810000	34884.585000	5505.075000	-11159.955000	16905.510000	-9998.640000	-27610.335000	-5.438479	-8.223477	-9.151946	-9.228454	-9.052853	-12.719163	-8.195359	-15.894827	-2.960440	4.425400	-2.319520	0.813597	0.542540	0.163818	-1.000000	-1.000000	-1.000000	-1.000000	-1.000000	-1.000000	-1.000000	73.931034	0.000000	-1.000000	-1.000000	708095.000000	1773688972.926625
-6958.845000	30601.935000	34837.560000	5459.130000	-11203.920000	16859.880000	-10015.515000	-27585.630000	-6.655340	-7.967351	-9.130959	-9.849679	-10.586862	-12.234878	-3.702074	-6.192258	-2.960440	4.425400	-2.319520	0.813597	0.542540	0.163818	-1.000000	-1.000000	-1.000000	-1.000000	-1.000000	-1.000000	-1.000000	73.931034	0.000000	-1.000000	-1.000000	708096.000000	1773688972.926637
-6956.415000	30619.845000	34856.100000	5475.780000	-11187.315000	16872.435000	-10007.010000	-27656.955000	-5.491623	-5.376445	-6.447896	-7.521682	-8.683275	-6.790971	2.924598	9.267045	-2.960440	4.425400	-2.319520	0.813597	0.542540	0.163818	-1.000000	-1.000000	-1.000000	-1.000000	-1.000000	-1.000000	-1.000000	73.931034	0.000000	-1.000000	-1.000000	708097.000000	1773688972.933724
-6949.530000	30621.690000	34858.305000	5475.735000	-11187.495000	16870.545000	-10012.410000	-27625.995000	-3.097207	-1.907214	-2.639804	-3.775042	-4.827422	-1.007037	7.847028	17.016035	-2.960440	4.425400	-2.319520	0.813597	0.542540	0.163818	-1.000000	-1.000000	-1.000000	-1.000000	-1.000000	-1.000000	-1.000000	73.931034	0.000000	-1.000000	-1.000000	708098.000000	1773688972.933737
-6955.380000	30598.785000	34834.005000	5451.030000	-11211.390000	16845.660000	-10035.630000	-27599.310000	-0.110532	1.771170	1.630032	0.705786	0.231151	3.173719	9.387395	13.811029	-2.960440	4.425400	-2.319520	0.813597	0.542540	0.163818	-1.000000	-1.000000	-1.000000	-1.000000	-1.000000	-1.000000	-1.000000	73.931034	0.000000	-1.000000	-1.000000	708099.000000	1773688972.933751
-6944.985000	30610.305000	34847.640000	5465.835000	-11197.125000	16859.925000	-10025.190000	-27614.745000	2.629530	4.100728	4.629683	4.223553	4.529552	4.937249	7.345010	6.735030	-2.960440	4.425400	-2.319520	0.813597	0.542540	0.163818	-1.000000	-1.000000	-1.000000	-1.000000	-1.000000	-1.000000	-1.000000	73.931034	0.000000	-1.000000	-1.000000	708100.000000	1773688972.933757
-6932.970000	30634.560000	34873.740000	5492.655000	-11170.800000	16883.595000	-10013.355000	-27658.080000	5.036346	5.296546	6.383443	6.769886	7.654574	5.760627	3.348010	0.289329	-3.204600	4.501700	-2.289000	0.813719	0.544127	0.163818	-1.000000	-1.000000	-1.000000	-1.000000	-1.000000	-1.000000	-1.000000	73.931034	0.000000	-1.000000	-1.000000	708101.000000	1773688972.933764
-6921.765000	30653.280000	34891.110000	5509.980000	-11154.195000	16897.455000	-10012.500000	-27673.200000	7.719552	7.599638	9.018025	10.237203	11.232149	8.070004	0.400562	-5.499337	-3.204600	4.501700	-2.289000	0.813719	0.544127	0.163818	-1.000000	-1.000000	-1.000000	-1.000000	-1.000000	-1.000000	-1.000000	73.931034	0.000000	-1.000000	-1.000000	708102.000000	1773688972.933769
-6917.760000	30668.625000	34907.535000	5525.865000	-11139.795000	16912.845000	-9997.065000	-27677.295000	9.687553	10.710813	12.076646	13.799754	14.437879	10.645685	-0.260843	-10.126428	-3.204600	4.501700	-2.289000	0.813719	0.544127	0.163818	-1.000000	-1.000000	-1.000000	-1.000000	-1.000000	-1.000000	-1.000000	73.931034	0.000000	-1.000000	-1.000000	708103.000000	1773688972.945741
-6929.325000	30658.005000	34897.500000	5515.605000	-11149.965000	16902.630000	-9995.130000	-27651.465000	8.674425	11.481534	12.395673	13.961904	13.937443	10.001064	-0.096897	-13.010413	-3.204600	4.501700	-2.289000	0.813719	0.544127	0.163818	-1.000000	-1.000000	-1.000000	-1.000000	-1.000000	-1.000000	-1.000000	73.931034	0.000000	-1.000000	-1.000000	708104.000000	1773688972.945754
-6938.865000	30641.355000	34879.680000	5496.030000	-11169.540000	16884.225000	-10001.025000	-27628.380000	3.960035	7.628616	7.882933	8.561490	7.803447	4.803030	-0.965011	-13.060644	-3.204600	4.501700	-2.289000	0.813719	0.544127	0.163818	-1.000000	-1.000000	-1.000000	-1.000000	-1.000000	-1.000000	-1.000000	73.931034	0.000000	-1.000000	-1.000000	708105.000000	1773688972.945991
-6939.495000	30629.475000	34865.460000	5480.505000	-11186.280000	16869.735000	-10006.290000	-27624.465000	-2.869456	-0.785882	-1.243041	-1.802530	-3.046019	-3.631762	-3.229640	-7.398670	-3.204600	4.501700	-2.289000	0.813719	0.544127	0.163818	-1.000000	-1.000000	-1.000000	-1.000000	-1.000000	-1.000000	-1.000000	73.931034	0.000000	-1.000000	-1.000000	708106.000000	1773688972.945997
-6941.880000	30622.950000	34857.720000	5473.485000	-11190.015000	16871.805000	-10015.470000	-27653.535000	-9.230387	-11.116619	-12.244991	-13.707890	-14.865126	-12.124124	-5.599042	3.157212	-3.204600	4.501700	-2.289000	0.813719	0.544127	0.163818	-1.000000	-1.000000	-1.000000	-1.000000	-1.000000	-1.000000	-1.000000	73.931034	0.000000	-1.000000	-1.000000	708107.000000	1773688972.946006
-6932.655000	30637.710000	34873.920000	5493.105000	-11165.715000	16887.465000	-10022.895000	-27681.795000	-12.556573	-18.219374	-19.768935	-21.260155	-21.616847	-16.118145	-6.274280	11.316334	-3.204600	4.501700	-2.289000	0.813719	0.544127	0.163818	-1.000000	-1.000000	-1.000000	-1.000000	-1.000000	-1.000000	-1.000000	73.931034	0.000000	-1.000000	-1.000000	708108.000000	1773688972.946011
-6928.605000	30643.110000	34880.760000	5504.445000	-11153.205000	16888.005000	-10039.500000	-27670.500000	-11.275417	-17.700425	-19.146897	-19.744197	-18.823666	-12.888481	-4.994421	11.729964	-3.204600	4.501700	-2.289000	0.813719	0.544127	0.163818	-1.000000	-1.000000	-1.000000	-1.000000	-1.000000	-1.000000	-1.000000	73.931034	0.000000	-1.000000	-1.000000	708109.000000	1773688972.967690
-6929.595000	30640.905000	34878.600000	5499.585000	-11163.645000	16846.965000	-10034.370000	-27666.270000	-6.044914	-10.068743	-10.851329	-10.169065	-8.229185	-5.254682	-3.037082	7.589057	-3.204600	4.501700	-2.289000	0.813719	0.544127	0.163818	-1.000000	-1.000000	-1.000000	-1.000000	-1.000000	-1.000000	-1.000000	73.931034	0.000000	-1.000000	-1.000000	708110.000000	1773688972.967705
-6925.410000	30646.350000	34885.710000	5507.280000	-11154.105000	16862.895000	-9988.155000	-27618.615000	0.363618	-0.305550	-0.136725	1.362453	3.280086	0.705463	-0.439799	5.546478	-2.899400	4.669560	-1.281840	0.813902	0.545409	0.163879	-1.000000	-1.000000	-1.000000	-1.000000	-1.000000	-1.000000	-1.000000	73.931034	0.000000	-1.000000	-1.000000	708111.000000	1773688972.967719
-6940.620000	30618.135000	34853.760000	5475.780000	-11181.060000	16878.735000	-9992.790000	-27587.340000	4.956622	6.358560	7.327543	8.677843	9.575048	2.684762	3.667802	7.559616	-2.899400	4.669560	-1.281840	0.813902	0.545409	0.163879	-1.000000	-1.000000	-1.000000	-1.000000	-1.000000	-1.000000	-1.000000	73.931034	0.000000	-1.000000	-1.000000	708112.000000	1773688972.967724
-6957.450000	30603.780000	34838.505000	5459.265000	-11200.140000	16872.300000	-10018.350000	-27612.270000	6.298273	7.844784	9.025806	9.437205	9.084103	3.635023	7.420192	8.850656	-2.899400	4.669560	-1.281840	0.813902	0.545409	0.163879	-1.000000	-1.000000	-1.000000	-1.000000	-1.000000	-1.000000	-1.000000	73.931034	0.000000	-1.000000	-1.000000	708113.000000	1773688972.967730
-6952.860000	30614.670000	34852.905000	5474.970000	-11185.380000	16884.945000	-10014.345000	-27638.505000	4.954315	5.984976	6.778965	6.070682	4.795621	6.340942	7.445416	3.307791	-2.899400	4.669560	-1.281840	0.813902	0.545409	0.163879	-1.000000	-1.000000	-1.000000	-1.000000	-1.000000	-1.000000	-1.000000	73.931034	0.000000	-1.000000	-1.000000	708114.000000	1773688972.967735
-6947.325000	30621.060000	34859.205000	5479.200000	-11183.085000	16882.650000	-10012.545000	-27644.265000	2.760557	4.376138	4.706295	3.329770	1.593446	10.077181	3.704297	-8.801274	-2.899400	4.669560	-1.281840	0.813902	0.545409	0.163879	-1.000000	-1.000000	-1.000000	-1.000000	-1.000000	-1.000000	-1.000000	73.931034	0.000000	-1.000000	-1.000000	708115.000000	1773688972.967741
-6950.970000	30613.320000	34850.655000	5470.605000	-11188.935000	16877.610000	-10017.855000	-27651.330000	1.237311	4.667046	4.831617	3.453992	1.712481	11.673944	-0.549231	-19.871596	-2.899400	4.669560	-1.281840	0.813902	0.545409	0.163879	-1.000000	-1.000000	-1.000000	-1.000000	-1.000000	-1.000000	-1.000000	73.931034	0.000000	-1.000000	-1.000000	708116.000000	1773688972.967746
-6944.895000	30620.115000	34858.530000	5479.155000	-11180.340000	16880.220000	-10022.130000	-27651.915000	0.509635	5.246079	5.382202	4.401603	3.059872	8.381196	-2.718292	-21.924893	-2.899400	4.669560	-1.281840	0.813902	0.545409	0.163879	-1.000000	-1.000000	-1.000000	-1.000000	-1.000000	-1.000000	-1.000000	73.931034	0.000000	-1.000000	-1.000000	708117.000000	1773688972.970617
-6936.930000	30632.085000	34869.645000	5488.785000	-11172.060000	16889.310000	-10025.640000	-27647.145000	0.134181	4.074202	4.024556	3.478414	2.857470	1.084055	-2.623592	-13.256794	-2.899400	4.669560	-1.281840	0.813902	0.545409	0.163879	-1.000000	-1.000000	-1.000000	-1.000000	-1.000000	-1.000000	-1.000000	73.931034	0.000000	-1.000000	-1.000000	708118.000000	1773688972.970631
-6933.915000	30636.000000	34871.985000	5488.920000	-11173.950000	16888.545000	-10032.705000	-27647.775000	0.052196	1.247615	0.794691	0.577753	0.850768	-5.850857	-1.874523	0.910166	-2.899400	4.669560	-1.281840	0.813902	0.545409	0.163879	-1.000000	-1.000000	-1.000000	-1.000000	-1.000000	-1.000000	-1.000000	73.931034	0.000000	-1.000000	-1.000000	708119.000000	1773688972.970645
-6929.595000	30643.695000	34879.410000	5493.330000	-11173.770000	16887.690000	-10022.445000	-27646.065000	0.234514	-1.742626	-2.629550	-2.612887	-1.639049	-9.246598	-2.469674	12.086350	-2.899400	4.669560	-1.281840	0.813902	0.545409	0.163879	-1.000000	-1.000000	-1.000000	-1.000000	-1.000000	-1.000000	-1.000000	73.931034	0.000000	-1.000000	-1.000000	708120.000000	1773688972.970651
-6924.645000	30648.555000	34884.675000	5496.660000	-11173.995000	16881.210000	-10010.430000	-27634.950000	0.791025	-3.069653	-4.078688	-3.936745	-2.954534	-9.450870	-3.983183	14.317530	-3.433500	4.227020	-1.800680	0.812681	0.544676	0.163879	-1.000000	-1.000000	-1.000000	-1.000000	-1.000000	-1.000000	-1.000000	73.931034	0.000000	-1.000000	-1.000000	708121.000000	1773688972.978258
-6912.990000	30655.170000	34891.380000	5505.030000	-11166.975000	16879.860000	-10001.835000	-27617.310000	2.083402	-1.703844	-2.308396	-2.078405	-1.799493	-7.705786	-3.233407	9.252188	-3.433500	4.227020	-1.800680	0.812681	0.544676	0.163879	-1.000000	-1.000000	-1.000000	-1.000000	-1.000000	-1.000000	-1.000000	73.931034	0.000000	-1.000000	-1.000000	708122.000000	1773688972.978269
-6904.935000	30676.860000	34916.085000	5530.590000	-11139.525000	16905.195000	-9990.315000	-27628.110000	3.538282	1.132897	1.279924	1.778309	1.364624	-4.255466	1.245655	3.577884	-3.433500	4.227020	-1.800680	0.812681	0.544676	0.163879	-1.000000	-1.000000	-1.000000	-1.000000	-1.000000	-1.000000	-1.000000	73.931034	0.000000	-1.000000	-1.000000	708123.000000	1773688972.978281
-6927.030000	30655.845000	34894.845000	5509.710000	-11152.710000	16895.070000	-10010.565000	-27682.290000	3.197044	2.759195	3.623943	4.636237	4.367229	0.676024	6.622784	0.563800	-3.433500	4.227020	-1.800680	0.812681	0.544676	0.163879	-1.000000	-1.000000	-1.000000	-1.000000	-1.000000	-1.000000	-1.000000	73.931034	0.000000	-1.000000	-1.000000	708124.000000	1773688972.978286
-6921.225000	30659.535000	34899.210000	5515.290000	-11146.590000	16907.985000	-10001.475000	-27666.495000	-0.363274	1.155097	2.386103	3.871196	4.679706	5.474478	8.746707	-1.485222	-3.433500	4.227020	-1.800680	0.812681	0.544676	0.163879	-1.000000	-1.000000	-1.000000	-1.000000	-1.000000	-1.000000	-1.000000	73.931034	0.000000	-1.000000	-1.000000	708125.000000	1773688972.981746
-6892.155000	30681.855000	34924.815000	5544.585000	-11112.570000	16944.840000	-9947.655000	-27555.030000	-5.408795	-3.070137	-1.964902	-0.413903	1.644623	8.317706	7.031771	-1.867026	-3.433500	4.227020	-1.800680	0.812681	0.544676	0.163879	-1.000000	-1.000000	-1.000000	-1.000000	-1.000000	-1.000000	-1.000000	73.931034	0.000000	-1.000000	-1.000000	708126.000000	1773688972.981757
-6912.945000	30650.355000	34893.585000	5518.080000	-11131.830000	16927.740000	-9956.340000	-27576.270000	-8.320554	-7.256385	-6.620049	-5.400112	-2.673485	8.723202	4.434193	2.771160	-3.433500	4.227020	-1.800680	0.812681	0.544676	0.163879	-1.000000	-1.000000	-1.000000	-1.000000	-1.000000	-1.000000	-1.000000	73.931034	0.000000	-1.000000	-1.000000	708127.000000	1773688972.988877
-6945.255000	30612.870000	34850.835000	5470.875000	-11183.085000	16879.635000	-10018.890000	-27642.555000	-8.262544	-10.197614	-10.166736	-9.421026	-6.862039	5.606173	1.148306	8.562131	-3.433500	4.227020	-1.800680	0.812681	0.544676	0.163879	-1.000000	-1.000000	-1.000000	-1.000000	-1.000000	-1.000000	-1.000000	73.931034	0.000000	-1.000000	-1.000000	708128.000000	1773688972.988887
-6969.465000	30596.805000	34832.205000	5449.230000	-11208.015000	16853.175000	-10052.460000	-27673.290000	-7.405733	-12.066537	-12.767037	-12.674433	-11.276182	-2.453491	-6.311063	5.569330	-3.433500	4.227020	-1.800680	0.812681	0.544676	0.163879	-1.000000	-1.000000	-1.000000	-1.000000	-1.000000	-1.000000	-1.000000	73.931034	0.000000	-1.000000	-1.000000	708129.000000	1773688972.989246
-6964.110000	30617.595000	34857.990000	5476.320000	-11182.905000	16872.840000	-10030.905000	-27691.965000	-6.554608	-11.072815	-12.445357	-13.296069	-13.960664	-12.308555	-16.804189	-8.394901	-3.433500	4.227020	-1.800680	0.812681	0.544676	0.163879	-1.000000	-1.000000	-1.000000	-1.000000	-1.000000	-1.000000	-1.000000	73.931034	0.000000	-1.000000	-1.000000	708130.000000	1773688972.989254
-6935.850000	30641.400000	34884.630000	5502.555000	-11158.740000	16894.260000	-9992.025000	-27650.205000	-3.759773	-4.533919	-5.988935	-7.773154	-10.644568	-16.506683	-21.874962	-23.083366	-2.517900	3.937080	-1.236060	0.814146	0.544432	0.162963	-1.000000	-1.000000	-1.000000	-1.000000	-1.000000	-1.000000	-1.000000	73.931034	0.000000	-1.000000	-1.000000	708131.000000	1773688972.994358
-6949.890000	30615.120000	34854.300000	5468.670000	-11194.245000	16858.935000	-10017.540000	-27626.265000	2.388801	6.263142	5.472017	3.191602	-1.097147	-11.440812	-15.073890	-24.876710	-2.517900	3.937080	-1.236060	0.814146	0.544432	0.162963	-1.000000	-1.000000	-1.000000	-1.000000	-1.000000	-1.000000	-1.000000	73.931034	0.000000	-1.000000	-1.000000	708132.000000	1773688972.994370
-6958.575000	30601.035000	34838.685000	5451.660000	-11208.195000	16847.730000	-10040.445000	-27651.690000	9.735664	15.417862	15.462506	13.260905	8.835991	-1.429291	0.052670	-9.400321	-2.517900	3.937080	-1.236060	0.814146	0.544432	0.162963	-1.000000	-1.000000	-1.000000	-1.000000	-1.000000	-1.000000	-1.000000	73.931034	0.000000	-1.000000	-1.000000	708133.000000	1773688972.996998
-6950.790000	30617.775000	34859.475000	5475.960000	-11183.265000	16870.635000	-10031.895000	-27656.145000	13.922674	17.755202	18.243303	16.644902	13.420877	6.924745	13.637769	12.673278	-2.517900	3.937080	-1.236060	0.814146	0.544432	0.162963	-1.000000	-1.000000	-1.000000	-1.000000	-1.000000	-1.000000	-1.000000	73.931034	0.000000	-1.000000	-1.000000	708134.000000	1773688972.997028
-6953.985000	30610.395000	34851.060000	5471.010000	-11183.040000	16869.960000	-10029.330000	-27646.560000	12.251293	12.959514	13.486400	12.948074	11.930450	10.581220	18.377421	24.731414	-2.517900	3.937080	-1.236060	0.814146	0.544432	0.162963	-1.000000	-1.000000	-1.000000	-1.000000	-1.000000	-1.000000	-1.000000	73.931034	0.000000	-1.000000	-1.000000	708135.000000	1773688973.001523
-6968.520000	30592.485000	34831.035000	5450.895000	-11203.380000	16845.480000	-10034.910000	-27657.900000	5.903745	4.675920	5.067000	5.838657	7.282259	10.086561	14.294511	20.456870	-2.517900	3.937080	-1.236060	0.814146	0.544432	0.162963	-1.000000	-1.000000	-1.000000	-1.000000	-1.000000	-1.000000	-1.000000	73.931034	0.000000	-1.000000	-1.000000	708136.000000	1773688973.001545
-6959.295000	30610.530000	34849.755000	5465.880000	-11193.840000	16841.160000	-10025.820000	-27653.580000	-0.845822	-2.172206	-1.867785	0.029141	3.270591	7.608844	7.364625	7.708271	-2.517900	3.937080	-1.236060	0.814146	0.544432	0.162963	-1.000000	-1.000000	-1.000000	-1.000000	-1.000000	-1.000000	-1.000000	73.931034	0.000000	-1.000000	-1.000000	708137.000000	1773688973.005554
-6952.365000	30620.610000	34859.205000	5474.295000	-11187.135000	16863.165000	-10020.105000	-27652.635000	-3.845237	-4.165781	-3.759462	-1.399905	2.324323	5.535026	3.412151	-2.367187	-2.517900	3.937080	-1.236060	0.814146	0.544432	0.162963	-1.000000	-1.000000	-1.000000	-1.000000	-1.000000	-1.000000	-1.000000	73.931034	0.000000	-1.000000	-1.000000	708138.000000	1773688973.005617
-6946.245000	30625.515000	34864.110000	5482.305000	-11178.270000	16879.230000	-10022.085000	-27644.715000	-2.693020	-2.210449	-1.715060	0.252034	3.160564	4.709397	2.456118	-5.295721	-2.517900	3.937080	-1.236060	0.814146	0.544432	0.162963	-1.000000	-1.000000	-1.000000	-1.000000	-1.000000	-1.000000	-1.000000	73.931034	0.000000	-1.000000	-1.000000	708139.000000	1773688973.011981
-6946.605000	30620.565000	34859.835000	5480.955000	-11176.335000	16878.690000	-10027.170000	-27633.825000	-0.750849	-0.545597	-0.292619	0.763811	2.248167	3.719017	0.335024	-3.777562	-2.517900	3.937080	-1.236060	0.814146	0.544432	0.162963	-1.000000	-1.000000	-1.000000	-1.000000	-1.000000	-1.000000	-1.000000	73.931034	0.000000	-1.000000	-1.000000	708140.000000	1773688973.011992
-6939.990000	30625.695000	34863.390000	5482.350000	-11175.480000	16881.795000	-10026.765000	-27638.820000	-0.631186	-1.400247	-1.602560	-1.388768	-1.195179	1.380255	-4.264789	-2.068127	-3.143560	4.501700	-1.297100	0.815794	0.543639	0.163024	-1.000000	-1.000000	-1.000000	-1.000000	-1.000000	-1.000000	-1.000000	73.931034	0.000000	-1.000000	-1.000000	708141.000000	1773688973.013307
-6930.495000	30644.100000	34883.145000	5501.160000	-11158.065000	16898.715000	-10019.430000	-27664.065000	-1.663721	-2.981309	-3.466100	-3.824061	-4.582777	-1.561510	-7.966692	-1.963420	-3.143560	4.501700	-1.297100	0.815794	0.543639	0.163024	-1.000000	-1.000000	-1.000000	-1.000000	-1.000000	-1.000000	-1.000000	73.931034	0.000000	-1.000000	-1.000000	708142.000000	1773688973.013318
-6908.130000	30671.055000	34911.540000	5529.060000	-11130.480000	16923.780000	-10012.095000	-27670.725000	-2.215834	-2.987456	-3.447225	-4.355515	-5.878467	-4.078153	-8.082794	-3.973377	-3.143560	4.501700	-1.297100	0.815794	0.543639	0.163024	-1.000000	-1.000000	-1.000000	-1.000000	-1.000000	-1.000000	-1.000000	73.931034	0.000000	-1.000000	-1.000000	708143.000000	1773688973.017104
-6914.205000	30676.230000	34915.905000	5533.650000	-11127.510000	16925.985000	-10021.050000	-27727.335000	-1.634046	-0.890862	-1.119123	-2.691375	-4.827730	-5.475492	-5.518472	-8.235074	-3.143560	4.501700	-1.297100	0.815794	0.543639	0.163024	-1.000000	-1.000000	-1.000000	-1.000000	-1.000000	-1.000000	-1.000000	73.931034	0.000000	-1.000000	-1.000000	708144.000000	1773688973.017125
-6947.865000	30640.770000	34879.005000	5497.290000	-11163.825000	16893.360000	-10012.545000	-27687.555000	-0.693467	1.804952	1.895637	-0.081964	-2.407852	-5.320754	-2.151254	-12.029845	-3.143560	4.501700	-1.297100	0.815794	0.543639	0.163024	-1.000000	-1.000000	-1.000000	-1.000000	-1.000000	-1.000000	-1.000000	73.931034	0.000000	-1.000000	-1.000000	708145.000000	1773688973.021791
-6952.950000	30611.430000	34844.895000	5460.570000	-11200.905000	16852.950000	-10004.220000	-27578.880000	-1.263880	1.511646	1.808541	0.219887	-1.418716	-5.103762	1.206718	-8.616313	-3.143560	4.501700	-1.297100	0.815794	0.543639	0.163024	-1.000000	-1.000000	-1.000000	-1.000000	-1.000000	-1.000000	-1.000000	73.931034	0.000000	-1.000000	-1.000000	708146.000000	1773688973.021801
-6958.440000	30610.710000	34849.395000	5468.760000	-11191.590000	16860.735000	-10007.730000	-27622.665000	-3.885507	-3.857394	-3.649650	-4.050385	-4.087824	-7.117239	3.748784	5.257577	-3.143560	4.501700	-1.297100	0.815794	0.543639	0.163024	-1.000000	-1.000000	-1.000000	-1.000000	-1.000000	-1.000000	-1.000000	73.931034	0.000000	-1.000000	-1.000000	708147.000000	1773688973.026978
-6948.405000	30625.830000	34867.530000	5489.505000	-11169.270000	16883.550000	-9999.855000	-27640.170000	-6.535613	-10.810177	-10.792860	-9.800161	-8.047784	-10.060555	4.160251	20.400701	-3.143560	4.501700	-1.297100	0.815794	0.543639	0.163024	-1.000000	-1.000000	-1.000000	-1.000000	-1.000000	-1.000000	-1.000000	73.931034	0.000000	-1.000000	-1.000000	708148.000000	1773688973.026990
-6930.090000	30640.725000	34881.570000	5500.260000	-11160.630000	16890.480000	-10000.530000	-27627.750000	-6.207894	-12.666067	-12.588568	-10.715761	-8.003322	-9.157017	2.426059	23.550948	-3.143560	4.501700	-1.297100	0.815794	0.543639	0.163024	-1.000000	-1.000000	-1.000000	-1.000000	-1.000000	-1.000000	-1.000000	73.931034	0.000000	-1.000000	-1.000000	708149.000000	1773688973.037286
-6935.715000	30622.905000	34861.860000	5478.705000	-11182.770000	16869.195000	-10014.345000	-27609.120000	-1.627490	-6.517794	-6.183972	-4.389606	-2.118364	-2.419007	0.018734	13.130266	-3.143560	4.501700	-1.297100	0.815794	0.543639	0.163024	-1.000000	-1.000000	-1.000000	-1.000000	-1.000000	-1.000000	-1.000000	73.931034	0.000000	-1.000000	-1.000000	708150.000000	1773688973.037297
-6948.225000	30613.680000	34851.510000	5471.460000	-11186.145000	16867.170000	-10020.510000	-27629.415000	4.400252	3.094567	3.454821	4.345087	5.142747	5.818676	-2.316990	-1.833528	-2.517900	2.929920	-1.297100	0.814817	0.542113	0.163086	-1.000000	-1.000000	-1.000000	-1.000000	-1.000000	-1.000000	-1.000000	73.931034	0.000000	-1.000000	-1.000000	708151.000000	1773688973.037519
-6950.565000	30611.115000	34847.235000	5468.670000	-11187.495000	16872.255000	-10021.320000	-27640.350000	7.168067	8.998141	8.889681	8.702429	8.028739	9.830753	-4.500733	-13.006136	-2.517900	2.929920	-1.297100	0.814817	0.542113	0.163086	-1.000000	-1.000000	-1.000000	-1.000000	-1.000000	-1.000000	-1.000000	73.931034	0.000000	-1.000000	-1.000000	708152.000000	1773688973.037525
-6946.740000	30620.520000	34859.160000	5479.605000	-11178.225000	16881.525000	-10016.190000	-27640.215000	5.645623	9.115780	8.353613	7.514078	6.142249	9.034132	-5.302839	-16.724210	-2.517900	2.929920	-1.297100	0.814817	0.542113	0.163086	-1.000000	-1.000000	-1.000000	-1.000000	-1.000000	-1.000000	-1.000000	73.931034	0.000000	-1.000000	-1.000000	708153.000000	1773688973.037534
-6941.835000	30628.890000	34869.195000	5487.885000	-11173.095000	16876.395000	-10010.970000	-27635.265000	3.277373	7.268285	6.362448	5.438622	4.159229	7.386961	-3.314685	-13.888792	-2.517900	2.929920	-1.297100	0.814817	0.542113	0.163086	-1.000000	-1.000000	-1.000000	-1.000000	-1.000000	-1.000000	-1.000000	73.931034	0.000000	-1.000000	-1.000000	708154.000000	1773688973.037539
-6941.070000	30633.705000	34872.660000	5490.180000	-11172.735000	16839.945000	-10015.695000	-27653.580000	2.930948	7.230297	6.987250	6.342090	5.495461	7.063173	0.711305	-9.552838	-2.517900	2.929920	-1.297100	0.814817	0.542113	0.163086	-1.000000	-1.000000	-1.000000	-1.000000	-1.000000	-1.000000	-1.000000	73.931034	0.000000	-1.000000	-1.000000	708155.000000	1773688973.042456
-6942.780000	30627.630000	34864.560000	5484.780000	-11176.470000	16844.625000	-10022.580000	-27654.615000	3.686854	8.110984	8.719731	8.396599	7.918594	5.494644	4.145618	-6.875840	-2.517900	2.929920	-1.297100	0.814817	0.542113	0.163086	-1.000000	-1.000000	-1.000000	-1.000000	-1.000000	-1.000000	-1.000000	73.931034	0.000000	-1.000000	-1.000000	708156.000000	1773688973.042462
-6935.715000	30628.485000	34865.685000	5485.950000	-11175.030000	16880.940000	-10020.105000	-27645.390000	2.921326	6.160518	6.932800	6.790849	6.541424	0.684166	4.934713	-3.607954	-2.517900	2.929920	-1.297100	0.814817	0.542113	0.163086	-1.000000	-1.000000	-1.000000	-1.000000	-1.000000	-1.000000	-1.000000	73.931034	0.000000	-1.000000	-1.000000	708157.000000	1773688973.047680
-6939.405000	30625.290000	34864.020000	5482.035000	-11181.150000	16883.235000	-10024.200000	-27648.540000	-0.365471	0.019991	0.228351	0.205110	0.154278	-4.371802	3.375929	2.313273	-2.517900	2.929920	-1.297100	0.814817	0.542113	0.163086	-1.000000	-1.000000	-1.000000	-1.000000	-1.000000	-1.000000	-1.000000	73.931034	0.000000	-1.000000	-1.000000	708158.000000	1773688973.047692
-6934.860000	30632.625000	34872.030000	5488.650000	-11173.725000	16889.445000	-10022.400000	-27644.535000	-4.602968	-7.275745	-7.630622	-7.513836	-7.369372	-5.812806	1.377841	8.998307	-2.517900	2.929920	-1.297100	0.814817	0.542113	0.163086	-1.000000	-1.000000	-1.000000	-1.000000	-1.000000	-1.000000	-1.000000	73.931034	0.000000	-1.000000	-1.000000	708159.000000	1773688973.051715
-6939.675000	30628.845000	34869.060000	5486.985000	-11171.115000	16889.445000	-10022.805000	-27650.880000	-7.174285	-11.421150	-11.797509	-11.626526	-11.321810	-3.735234	0.329909	13.400501	-2.517900	2.929920	-1.297100	0.814817	0.542113	0.163086	-1.000000	-1.000000	-1.000000	-1.000000	-1.000000	-1.000000	-1.000000	73.931034	0.000000	-1.000000	-1.000000	708160.000000	1773688973.051727
-6943.995000	30623.535000	34863.165000	5484.735000	-11171.565000	16889.535000	-10018.845000	-27652.995000	-6.703278	-10.731803	-10.667294	-10.544977	-10.048484	-1.101322	0.281975	14.104639	-3.647140	4.074420	-1.281840	0.814878	0.542723	0.163269	-1.000000	-1.000000	-1.000000	-1.000000	-1.000000	-1.000000	-1.000000	73.931034	0.000000	-1.000000	-1.000000	708161.000000	1773688973.053151
-6939.855000	30631.005000	34869.510000	5489.955000	-11167.065000	16891.605000	-10014.570000	-27641.385000	-3.687045	-6.465148	-5.975807	-5.782267	-4.990440	-0.050262	0.570481	11.125413	-3.647140	4.074420	-1.281840	0.814878	0.542723	0.163269	-1.000000	-1.000000	-1.000000	-1.000000	-1.000000	-1.000000	-1.000000	73.931034	0.000000	-1.000000	-1.000000	708162.000000	1773688973.053162
-6945.480000	30623.265000	34860.960000	5478.975000	-11178.630000	16879.140000	-10020.330000	-27655.200000	0.326134	-0.928505	-0.450862	0.002721	1.073469	-0.221208	0.394961	4.780001	-3.647140	4.074420	-1.281840	0.814878	0.542723	0.163269	-1.000000	-1.000000	-1.000000	-1.000000	-1.000000	-1.000000	-1.000000	73.931034	0.000000	-1.000000	-1.000000	708163.000000	1773688973.057297
-6944.805000	30625.335000	34863.120000	5479.110000	-11178.495000	16878.555000	-10019.835000	-27674.415000	3.452879	3.569178	3.613245	4.190107	5.248990	-0.260484	-0.594858	-3.667389	-3.647140	4.074420	-1.281840	0.814878	0.542723	0.163269	-1.000000	-1.000000	-1.000000	-1.000000	-1.000000	-1.000000	-1.000000	73.931034	0.000000	-1.000000	-1.000000	708164.000000	1773688973.057306
-6934.500000	30638.970000	34878.240000	5495.400000	-11162.610000	16890.345000	-10014.795000	-27644.040000	4.529719	5.701969	5.269187	5.496317	6.040646	-0.041365	-1.774599	-10.638495	-3.647140	4.074420	-1.281840	0.814878	0.542723	0.163269	-1.000000	-1.000000	-1.000000	-1.000000	-1.000000	-1.000000	-1.000000	73.931034	0.000000	-1.000000	-1.000000	708165.000000	1773688973.064756
-6938.820000	30630.420000	34871.085000	5490.495000	-11166.570000	16888.905000	-10015.380000	-27657.495000	3.659329	5.621479	5.046349	4.657866	4.299131	-0.667223	-2.154541	-12.375155	-3.647140	4.074420	-1.281840	0.814878	0.542723	0.163269	-1.000000	-1.000000	-1.000000	-1.000000	-1.000000	-1.000000	-1.000000	73.931034	0.000000	-1.000000	-1.000000	708166.000000	1773688973.064767
-6937.920000	30635.055000	34877.250000	5495.580000	-11163.465000	16893.675000	-10011.330000	-27676.710000	1.594875	3.975787	3.688599	3.033864	1.845041	-2.364002	-1.364219	-9.020300	-3.647140	4.074420	-1.281840	0.814878	0.542723	0.163269	-1.000000	-1.000000	-1.000000	-1.000000	-1.000000	-1.000000	-1.000000	73.931034	0.000000	-1.000000	-1.000000	708167.000000	1773688973.065251
-6905.340000	30677.130000	34918.110000	5534.910000	-11129.670000	16918.740000	-9994.140000	-27633.240000	-0.194444	2.046690	2.231500	1.871919	0.211451	-3.349410	0.353191	-3.397910	-3.647140	4.074420	-1.281840	0.814878	0.542723	0.163269	-1.000000	-1.000000	-1.000000	-1.000000	-1.000000	-1.000000	-1.000000	73.931034	0.000000	-1.000000	-1.000000	708168.000000	1773688973.065263
-6831.495000	30753.675000	34992.090000	5607.360000	-11060.415000	16983.135000	-9964.845000	-27554.715000	1.023151	2.698309	3.129384	3.165117	1.218277	-0.921073	2.744202	4.104491	-3.647140	4.074420	-1.281840	0.814878	0.542723	0.163269	-1.000000	-1.000000	-1.000000	-1.000000	-1.000000	-1.000000	-1.000000	73.931034	0.000000	-1.000000	-1.000000	708169.000000	1773688973.069610
-6831.990000	30746.025000	34981.605000	5593.410000	-11074.995000	16971.210000	-9992.475000	-27628.605000	6.518492	7.253904	7.446176	7.444757	5.359688	5.450784	4.795189	12.741448	-3.647140	4.074420	-1.281840	0.814878	0.542723	0.163269	-1.000000	-1.000000	-1.000000	-1.000000	-1.000000	-1.000000	-1.000000	73.931034	0.000000	-1.000000	-1.000000	708170.000000	1773688973.069620
-6940.305000	30628.800000	34864.560000	5476.680000	-11190.870000	16862.130000	-10041.030000	-27689.895000	10.632151	9.733359	9.347208	8.904593	7.290517	10.117371	3.440018	14.958672	-3.753960	3.860780	-1.358140	0.813841	0.542540	0.164245	-1.000000	-1.000000	-1.000000	-1.000000	-1.000000	-1.000000	-1.000000	73.931034	0.000000	-1.000000	-1.000000	708171.000000	1773688973.075348
-7012.215000	30545.820000	34779.150000	5394.060000	-11269.710000	16791.570000	-10043.415000	-27615.690000	3.671974	0.474600	-0.374519	-1.041242	-1.201164	4.592341	-3.170227	5.589642	-3.753960	3.860780	-1.358140	0.813841	0.542540	0.164245	-1.000000	-1.000000	-1.000000	-1.000000	-1.000000	-1.000000	-1.000000	73.931034	0.000000	-1.000000	-1.000000	708172.000000	1773688973.075360
-7004.475000	30543.840000	34775.505000	5390.730000	-11267.640000	16798.140000	-10044.405000	-27626.445000	-14.780622	-20.120464	-21.012379	-21.186470	-19.213717	-11.049903	-11.231345	-7.423203	-3.753960	3.860780	-1.358140	0.813841	0.542540	0.164245	-1.000000	-1.000000	-1.000000	-1.000000	-1.000000	-1.000000	-1.000000	73.931034	0.000000	-1.000000	-1.000000	708173.000000	1773688973.079598
-6975.180000	30585.870000	34824.375000	5442.660000	-11215.170000	16841.025000	-10031.310000	-27644.040000	-31.214209	-37.109858	-37.594050	-36.802706	-32.953149	-24.784612	-14.168025	-14.056363	-3.753960	3.860780	-1.358140	0.813841	0.542540	0.164245	-1.000000	-1.000000	-1.000000	-1.000000	-1.000000	-1.000000	-1.000000	73.931034	0.000000	-1.000000	-1.000000	708174.000000	1773688973.079610
-6957.180000	30603.150000	34842.060000	5467.095000	-11185.830000	16864.380000	-10019.295000	-27651.780000	-30.827135	-34.373045	-34.047719	-32.400666	-27.918462	-23.562126	-8.791117	-13.066101	-3.753960	3.860780	-1.358140	0.813841	0.542540	0.164245	-1.000000	-1.000000	-1.000000	-1.000000	-1.000000	-1.000000	-1.000000	73.931034	0.000000	-1.000000	-1.000000	708175.000000	1773688973.083827
-6948.720000	30612.150000	34847.820000	5471.010000	-11182.185000	16868.385000	-9994.680000	-27643.050000	-11.597230	-10.462826	-9.280073	-7.242520	-3.700854	-5.890902	2.613777	-7.419939	-3.753960	3.860780	-1.358140	0.813841	0.542540	0.164245	-1.000000	-1.000000	-1.000000	-1.000000	-1.000000	-1.000000	-1.000000	73.931034	0.000000	-1.000000	-1.000000	708176.000000	1773688973.083839
-6942.465000	30626.595000	34864.650000	5485.905000	-11170.080000	16880.490000	-9994.095000	-27641.565000	14.344144	19.866258	21.386795	23.080767	24.519036	16.688505	13.800953	-0.824783	-3.753960	3.860780	-1.358140	0.813841	0.542540	0.164245	-1.000000	-1.000000	-1.000000	-1.000000	-1.000000	-1.000000	-1.000000	73.931034	0.000000	-1.000000	-1.000000	708177.000000	1773688973.085137
-6943.230000	30629.745000	34868.205000	5487.435000	-11172.555000	16883.730000	-10020.735000	-27647.955000	30.898584	38.361465	39.606773	40.090769	38.959511	29.690468	17.909910	2.860998	-3.753960	3.860780	-1.358140	0.813841	0.542540	0.164245	-1.000000	-1.000000	-1.000000	-1.000000	-1.000000	-1.000000	-1.000000	73.931034	0.000000	-1.000000	-1.000000	708178.000000	1773688973.085144
-6952.905000	30620.745000	34859.070000	5476.860000	-11185.740000	16877.970000	-10045.800000	-27634.590000	30.709706	37.429546	38.141480	36.968073	33.554923	27.516286	12.303897	3.961120	-3.753960	3.860780	-1.358140	0.813841	0.542540	0.164245	-1.000000	-1.000000	-1.000000	-1.000000	-1.000000	-1.000000	-1.000000	73.931034	0.000000	-1.000000	-1.000000	708179.000000	1773688973.089125
-6954.030000	30617.370000	34852.815000	5467.230000	-11193.525000	16864.515000	-10044.315000	-27632.340000	19.693239	23.946103	24.080452	21.568017	16.917878	16.404643	1.299375	6.332421	-3.753960	3.860780	-1.358140	0.813841	0.542540	0.164245	-1.000000	-1.000000	-1.000000	-1.000000	-1.000000	-1.000000	-1.000000	73.931034	0.000000	-1.000000	-1.000000	708180.000000	1773688973.089136
-6944.850000	30626.910000	34863.660000	5478.795000	-11181.555000	16869.465000	-10015.020000	-27653.175000	8.700941	9.977015	9.530544	6.526803	2.153521	5.897065	-7.305782	9.455728	-2.807840	4.440660	-1.938020	0.815061	0.543334	0.164001	-1.000000	-1.000000	-1.000000	-1.000000	-1.000000	-1.000000	-1.000000	73.931034	0.000000	-1.000000	-1.000000	708181.000000	1773688973.097049
-6941.295000	30629.430000	34868.925000	5488.380000	-11169.945000	16879.680000	-10005.930000	-27654.570000	2.101369	0.774429	-0.104248	-2.557947	-5.308211	-0.867988	-8.673339	8.535606	-2.807840	4.440660	-1.938020	0.815061	0.543334	0.164001	-1.000000	-1.000000	-1.000000	-1.000000	-1.000000	-1.000000	-1.000000	73.931034	0.000000	-1.000000	-1.000000	708182.000000	1773688973.097061
-6941.520000	30625.380000	34864.380000	5489.865000	-11160.855000	16894.530000	-10005.615000	-27649.125000	-3.203815	-6.574076	-7.625378	-8.569928	-8.962397	-6.673157	-4.174098	2.929310	-2.807840	4.440660	-1.938020	0.815061	0.543334	0.164001	-1.000000	-1.000000	-1.000000	-1.000000	-1.000000	-1.000000	-1.000000	73.931034	0.000000	-1.000000	-1.000000	708183.000000	1773688973.100363
-6942.465000	30624.030000	34862.985000	5487.885000	-11164.590000	16892.595000	-10006.965000	-27649.665000	-10.225094	-15.148128	-16.187615	-15.222874	-13.263981	-13.316838	0.792575	-2.894258	-2.807840	4.440660	-1.938020	0.815061	0.543334	0.164001	-1.000000	-1.000000	-1.000000	-1.000000	-1.000000	-1.000000	-1.000000	73.931034	0.000000	-1.000000	-1.000000	708184.000000	1773688973.100374
-6942.465000	30625.695000	34863.840000	5486.715000	-11169.855000	16885.305000	-10012.995000	-27651.690000	-17.537701	-23.164771	-24.021591	-21.658859	-18.246407	-19.013260	1.694423	-5.731963	-2.807840	4.440660	-1.938020	0.815061	0.543334	0.164001	-1.000000	-1.000000	-1.000000	-1.000000	-1.000000	-1.000000	-1.000000	73.931034	0.000000	-1.000000	-1.000000	708185.000000	1773688973.101158
-6939.540000	30629.610000	34867.485000	5487.345000	-11172.870000	16880.355000	-10013.625000	-27649.305000	-21.461007	-26.492259	-26.967347	-24.376073	-21.048079	-21.144945	-1.747511	-6.077295	-2.807840	4.440660	-1.938020	0.815061	0.543334	0.164001	-1.000000	-1.000000	-1.000000	-1.000000	-1.000000	-1.000000	-1.000000	73.931034	0.000000	-1.000000	-1.000000	708186.000000	1773688973.101164
-6933.870000	30638.025000	34875.045000	5493.015000	-11170.845000	16873.650000	-10010.115000	-27644.535000	-19.154744	-22.267320	-22.279332	-20.614283	-18.713946	-18.211859	-5.428999	-4.917881	-2.807840	4.440660	-1.938020	0.815061	0.543334	0.164001	-1.000000	-1.000000	-1.000000	-1.000000	-1.000000	-1.000000	-1.000000	73.931034	0.000000	-1.000000	-1.000000	708187.000000	1773688973.107171
-6934.770000	30639.240000	34875.405000	5492.475000	-11171.340000	16863.885000	-10010.745000	-27646.560000	-9.771481	-9.985312	-9.606655	-9.396971	-9.394419	-9.614465	-4.648445	-2.133469	-2.807840	4.440660	-1.938020	0.815061	0.543334	0.164001	-1.000000	-1.000000	-1.000000	-1.000000	-1.000000	-1.000000	-1.000000	73.931034	0.000000	-1.000000	-1.000000	708188.000000	1773688973.107182
-6932.565000	30643.380000	34881.480000	5500.755000	-11161.305000	16885.575000	-10003.905000	-27644.445000	4.280208	7.254200	7.922733	6.991359	5.567340	3.718424	0.794215	1.460069	-2.807840	4.440660	-1.938020	0.815061	0.543334	0.164001	-1.000000	-1.000000	-1.000000	-1.000000	-1.000000	-1.000000	-1.000000	73.931034	0.000000	-1.000000	-1.000000	708189.000000	1773688973.109228
-6927.840000	30646.710000	34886.115000	5508.495000	-11152.305000	16898.670000	-9999.720000	-27640.530000	16.869270	22.222724	23.107614	21.893591	20.046757	17.692795	6.283751	4.099434	-2.807840	4.440660	-1.938020	0.815061	0.543334	0.164001	-1.000000	-1.000000	-1.000000	-1.000000	-1.000000	-1.000000	-1.000000	73.931034	0.000000	-1.000000	-1.000000	708190.000000	1773688973.109265
-6933.240000	30637.305000	34875.630000	5496.705000	-11162.025000	16891.830000	-10008.450000	-27643.995000	21.460617	27.227173	28.109546	27.310081	25.968460	25.411737	7.243599	4.911719	-3.540320	3.265640	-2.273740	0.814390	0.541075	0.163452	-1.000000	-1.000000	-1.000000	-1.000000	-1.000000	-1.000000	-1.000000	73.931034	0.000000	-1.000000	-1.000000	708191.000000	1773688973.113132
-6928.155000	30638.655000	34875.090000	5493.780000	-11167.155000	16887.420000	-10016.955000	-27640.890000	15.998598	19.804931	20.249246	19.826616	19.333017	21.660584	2.950744	3.878331	-3.540320	3.265640	-2.273740	0.814390	0.541075	0.163452	-1.000000	-1.000000	-1.000000	-1.000000	-1.000000	-1.000000	-1.000000	73.931034	0.000000	-1.000000	-1.000000	708192.000000	1773688973.113142
-6924.690000	30639.330000	34873.605000	5489.415000	-11173.320000	16878.150000	-10029.195000	-27644.805000	4.361245	4.672193	4.339867	3.776703	3.880367	7.964291	-3.819107	1.394312	-3.540320	3.265640	-2.273740	0.814390	0.541075	0.163452	-1.000000	-1.000000	-1.000000	-1.000000	-1.000000	-1.000000	-1.000000	73.931034	0.000000	-1.000000	-1.000000	708193.000000	1773688973.117887
-6938.865000	30628.530000	34864.830000	5482.935000	-11176.290000	16875.900000	-10027.305000	-27651.825000	-7.144579	-10.230517	-11.224698	-12.080645	-11.637402	-8.089641	-9.058675	-1.845331	-3.540320	3.265640	-2.273740	0.814390	0.541075	0.163452	-1.000000	-1.000000	-1.000000	-1.000000	-1.000000	-1.000000	-1.000000	73.931034	0.000000	-1.000000	-1.000000	708194.000000	1773688973.117898
-6946.740000	30626.730000	34866.585000	5487.480000	-11170.170000	16883.280000	-10017.990000	-27654.300000	-14.181895	-18.943948	-19.972775	-20.506632	-19.548734	-18.247134	-9.433273	-4.899132	-3.540320	3.265640	-2.273740	0.814390	0.541075	0.163452	-1.000000	-1.000000	-1.000000	-1.000000	-1.000000	-1.000000	-1.000000	73.931034	0.000000	-1.000000	-1.000000	708195.000000	1773688973.121265
-6943.680000	30632.265000	34872.615000	5492.610000	-11166.120000	16888.860000	-10014.525000	-27652.005000	-15.036378	-18.962389	-19.228348	-18.598557	-16.893803	-17.943547	-4.000031	-6.320410	-3.540320	3.265640	-2.273740	0.814390	0.541075	0.163452	-1.000000	-1.000000	-1.000000	-1.000000	-1.000000	-1.000000	-1.000000	73.931034	0.000000	-1.000000	-1.000000	708196.000000	1773688973.121275
-6934.005000	30637.305000	34872.930000	5492.520000	-11163.465000	16893.540000	-10018.485000	-27651.915000	-9.539950	-10.825604	-10.035918	-8.098922	-6.002084	-8.190712	4.470655	-5.017647	-3.540320	3.265640	-2.273740	0.814390	0.541075	0.163452	-1.000000	-1.000000	-1.000000	-1.000000	-1.000000	-1.000000	-1.000000	73.931034	0.000000	-1.000000	-1.000000	708197.000000	1773688973.126945
-6934.050000	30646.935000	34885.845000	5507.640000	-11147.985000	16905.330000	-10015.560000	-27675.945000	0.085490	1.605345	2.893121	5.291524	6.856087	4.750719	10.729708	-1.836153	-3.540320	3.265640	-2.273740	0.814390	0.541075	0.163452	-1.000000	-1.000000	-1.000000	-1.000000	-1.000000	-1.000000	-1.000000	73.931034	0.000000	-1.000000	-1.000000	708198.000000	1773688973.126974
-6922.080000	30668.490000	34910.820000	5531.265000	-11129.220000	16918.200000	-9990.090000	-27677.340000	9.120136	12.570638	13.507387	15.104086	15.177376	13.318192	11.387655	0.947865	-3.540320	3.265640	-2.273740	0.814390	0.541075	0.163452	-1.000000	-1.000000	-1.000000	-1.000000	-1.000000	-1.000000	-1.000000	73.931034	0.000000	-1.000000	-1.000000	708199.000000	1773688973.132188
-6867.855000	30740.580000	34985.430000	5604.480000	-11057.760000	16985.835000	-9946.800000	-27702.135000	14.040037	18.605089	18.847235	18.751412	16.826647	14.628899	8.155301	1.830499	-3.540320	3.265640	-2.273740	0.814390	0.541075	0.163452	-1.000000	-1.000000	-1.000000	-1.000000	-1.000000	-1.000000	-1.000000	73.931034	0.000000	-1.000000	-1.000000	708200.000000	1773688973.132199
-6824.025000	30792.015000	35040.285000	5660.685000	-11000.610000	17041.950000	-9922.140000	-27666.990000	15.170762	20.307291	20.173620	18.423604	14.924662	12.188813	5.376934	1.411848	-3.662400	4.135460	-2.029580	0.814634	0.542113	0.163391	-1.000000	-1.000000	-1.000000	-1.000000	-1.000000	-1.000000	-1.000000	73.931034	0.000000	-1.000000	-1.000000	708201.000000	1773688973.136097
-6878.475000	30694.590000	34935.885000	5555.385000	-11106.630000	16922.610000	-9988.425000	-27540.405000	13.000752	17.113420	17.036616	14.630414	11.019617	8.395187	3.700739	3.552133	-3.662400	4.135460	-2.029580	0.814634	0.542113	0.163391	-1.000000	-1.000000	-1.000000	-1.000000	-1.000000	-1.000000	-1.000000	73.931034	0.000000	-1.000000	-1.000000	708202.000000	1773688973.136107
-6979.095000	30549.960000	34781.130000	5399.190000	-11257.965000	16748.955000	-10094.715000	-27494.595000	4.311141	3.370121	3.090977	1.249031	-0.757897	-2.657311	-2.239584	12.410288	-3.662400	4.135460	-2.029580	0.814634	0.542113	0.163391	-1.000000	-1.000000	-1.000000	-1.000000	-1.000000	-1.000000	-1.000000	73.931034	0.000000	-1.000000	-1.000000	708203.000000	1773688973.140518
-6998.040000	30541.410000	34770.555000	5390.775000	-11264.265000	16773.885000	-10081.080000	-27572.040000	-12.425155	-22.172409	-23.560977	-24.201684	-23.621653	-24.494574	-15.581792	23.039349	-3.662400	4.135460	-2.029580	0.814634	0.542113	0.163391	-1.000000	-1.000000	-1.000000	-1.000000	-1.000000	-1.000000	-1.000000	73.931034	0.000000	-1.000000	-1.000000	708204.000000	1773688973.140533
-7004.880000	30544.470000	34774.830000	5395.725000	-11256.615000	16811.145000	-10038.555000	-27660.690000	-29.549177	-45.967399	-48.743372	-48.190792	-45.223680	-43.544862	-27.879199	21.166492	-3.662400	4.135460	-2.029580	0.814634	0.542113	0.163391	-1.000000	-1.000000	-1.000000	-1.000000	-1.000000	-1.000000	-1.000000	73.931034	0.000000	-1.000000	-1.000000	708205.000000	1773688973.141026
-6983.415000	30566.385000	34802.595000	5424.120000	-11230.245000	16841.655000	-10024.245000	-27651.825000	-34.700613	-49.338417	-52.245936	-50.889792	-46.885060	-40.384801	-26.159666	0.141236	-3.662400	4.135460	-2.029580	0.814634	0.542113	0.163391	-1.000000	-1.000000	-1.000000	-1.000000	-1.000000	-1.000000	-1.000000	73.931034	0.000000	-1.000000	-1.000000	708206.000000	1773688973.141037
-6980.220000	30580.605000	34818.660000	5438.475000	-11219.355000	16848.360000	-10030.005000	-27675.450000	-22.297247	-26.709279	-27.799809	-26.321276	-23.213392	-12.365984	-8.555936	-27.942899	-3.662400	4.135460	-2.029580	0.814634	0.542113	0.163391	-1.000000	-1.000000	-1.000000	-1.000000	-1.000000	-1.000000	-1.000000	73.931034	0.000000	-1.000000	-1.000000	708207.000000	1773688973.145033
-6979.185000	30586.005000	34822.980000	5441.220000	-11215.215000	16851.690000	-10030.455000	-27669.420000	1.334930	9.697567	11.341907	12.186330	12.975319	23.759230	13.425866	-43.787161	-3.662400	4.135460	-2.029580	0.814634	0.542113	0.163391	-1.000000	-1.000000	-1.000000	-1.000000	-1.000000	-1.000000	-1.000000	73.931034	0.000000	-1.000000	-1.000000	708208.000000	1773688973.145043
-6963.120000	30599.910000	34836.120000	5454.180000	-11203.515000	16859.115000	-10021.500000	-27647.190000	22.642807	39.380893	42.888206	42.715681	41.133172	46.426798	26.209343	-37.392084	-3.662400	4.135460	-2.029580	0.814634	0.542113	0.163391	-1.000000	-1.000000	-1.000000	-1.000000	-1.000000	-1.000000	-1.000000	73.931034	0.000000	-1.000000	-1.000000	708209.000000	1773688973.154645
-6955.380000	30613.320000	34849.710000	5466.915000	-11192.715000	16867.260000	-10020.870000	-27639.900000	31.288655	48.480316	51.998697	51.039994	48.199193	45.170250	24.856116	-13.722388	-3.662400	4.135460	-2.029580	0.814634	0.542113	0.163391	-1.000000	-1.000000	-1.000000	-1.000000	-1.000000	-1.000000	-1.000000	73.931034	0.000000	-1.000000	-1.000000	708210.000000	1773688973.154655
-6951.060000	30620.745000	34859.610000	5478.885000	-11178.180000	16880.805000	-10018.395000	-27643.725000	27.585257	39.419037	41.597873	40.518248	37.822498	27.989189	15.245319	11.215255	-0.289940	5.157880	-1.678600	0.815489	0.540587	0.163147	-1.000000	-1.000000	-1.000000	-1.000000	-1.000000	-1.000000	-1.000000	73.931034	0.000000	-1.000000	-1.000000	708211.000000	1773688973.154877
-6950.655000	30619.980000	34858.305000	5479.560000	-11176.200000	16880.130000	-10017.270000	-27648.630000	19.376914	24.874768	25.634740	25.151789	23.603196	11.750116	7.037438	23.553316	-0.289940	5.157880	-1.678600	0.815489	0.540587	0.163147	-1.000000	-1.000000	-1.000000	-1.000000	-1.000000	-1.000000	-1.000000	73.931034	0.000000	-1.000000	-1.000000	708212.000000	1773688973.154887
-6948.315000	30622.590000	34859.925000	5478.930000	-11179.260000	16871.535000	-10019.520000	-27647.685000	12.158624	12.578149	12.530221	12.959322	12.823462	3.287228	3.427801	23.278492	-0.289940	5.157880	-1.678600	0.815489	0.540587	0.163147	-1.000000	-1.000000	-1.000000	-1.000000	-1.000000	-1.000000	-1.000000	73.931034	0.000000	-1.000000	-1.000000	708213.000000	1773688973.159039
-6951.240000	30620.880000	34859.655000	5479.965000	-11176.920000	16872.345000	-10021.725000	-27651.240000	4.958203	0.824950	0.320882	1.325615	2.154337	-3.930032	-0.212896	19.374370	-0.289940	5.157880	-1.678600	0.815489	0.540587	0.163147	-1.000000	-1.000000	-1.000000	-1.000000	-1.000000	-1.000000	-1.000000	73.931034	0.000000	-1.000000	-1.000000	708214.000000	1773688973.159051
-6954.165000	30618.405000	34857.630000	5478.030000	-11177.370000	16874.370000	-10023.120000	-27655.560000	-4.846530	-13.283153	-14.356540	-13.453582	-12.304271	-15.662149	-7.576035	16.709041	-0.289940	5.157880	-1.678600	0.815489	0.540587	0.163147	-1.000000	-1.000000	-1.000000	-1.000000	-1.000000	-1.000000	-1.000000	73.931034	0.000000	-1.000000	-1.000000	708215.000000	1773688973.161153
-6946.695000	30623.805000	34862.310000	5482.215000	-11175.840000	16874.055000	-10020.015000	-27650.970000	-16.174457	-27.560871	-29.383967	-29.055392	-27.926163	-28.516405	-15.987226	13.311090	-0.289940	5.157880	-1.678600	0.815489	0.540587	0.163147	-1.000000	-1.000000	-1.000000	-1.000000	-1.000000	-1.000000	-1.000000	73.931034	0.000000	-1.000000	-1.000000	708216.000000	1773688973.161165
-6942.015000	30628.620000	34867.485000	5485.410000	-11175.435000	16874.190000	-10016.415000	-27646.605000	-24.448833	-36.260291	-38.622230	-38.918520	-37.989451	-34.954877	-20.090165	6.646165	-0.289940	5.157880	-1.678600	0.815489	0.540587	0.163147	-1.000000	-1.000000	-1.000000	-1.000000	-1.000000	-1.000000	-1.000000	73.931034	0.000000	-1.000000	-1.000000	708217.000000	1773688973.165399
-6942.375000	30628.035000	34867.305000	5487.570000	-11168.235000	16884.180000	-10007.145000	-27644.715000	-25.931127	-35.159117	-37.355223	-38.010274	-37.459017	-30.690811	-17.151879	-3.143211	-0.289940	5.157880	-1.678600	0.815489	0.540587	0.163147	-1.000000	-1.000000	-1.000000	-1.000000	-1.000000	-1.000000	-1.000000	73.931034	0.000000	-1.000000	-1.000000	708218.000000	1773688973.165409
-6945.165000	30626.010000	34865.505000	5487.795000	-11166.570000	16884.495000	-10005.480000	-27646.830000	-20.003362	-24.044515	-25.248126	-25.822643	-25.552450	-16.410591	-8.013063	-13.981908	-0.289940	5.157880	-1.678600	0.815489	0.540587	0.163147	-1.000000	-1.000000	-1.000000	-1.000000	-1.000000	-1.000000	-1.000000	73.931034	0.000000	-1.000000	-1.000000	708219.000000	1773688973.170910
-6942.510000	30631.680000	34870.095000	5490.135000	-11166.570000	16887.195000	-10007.280000	-27645.165000	-8.139630	-5.679172	-5.445254	-5.600619	-5.394090	3.744915	4.210534	-22.270623	-0.289940	5.157880	-1.678600	0.815489	0.540587	0.163147	-1.000000	-1.000000	-1.000000	-1.000000	-1.000000	-1.000000	-1.000000	73.931034	0.000000	-1.000000	-1.000000	708220.000000	1773688973.170921
-6936.345000	30640.455000	34878.330000	5497.020000	-11162.655000	16892.055000	-10017.675000	-27646.155000	6.288628	14.483614	15.965822	16.127659	16.108626	22.711467	14.546779	-23.458136	-2.273740	3.479280	-0.564620	0.814634	0.540648	0.164245	-1.000000	-1.000000	-1.000000	-1.000000	-1.000000	-1.000000	-1.000000	73.931034	0.000000	-1.000000	-1.000000	708221.000000	1773688973.176766
-6932.655000	30646.080000	34884.810000	5501.655000	-11160.270000	16891.245000	-10024.920000	-27654.480000	18.008709	28.874861	30.919957	30.973814	30.320160	32.428131	17.737833	-15.277092	-2.273740	3.479280	-0.564620	0.814634	0.540648	0.164245	-1.000000	-1.000000	-1.000000	-1.000000	-1.000000	-1.000000	-1.000000	73.931034	0.000000	-1.000000	-1.000000	708222.000000	1773688973.176779
-6918.750000	30658.365000	34897.635000	5512.905000	-11150.145000	16898.310000	-10011.825000	-27653.805000	22.434812	31.781598	33.562366	33.187373	31.775611	28.682791	12.389464	-1.003759	-2.273740	3.479280	-0.564620	0.814634	0.540648	0.164245	-1.000000	-1.000000	-1.000000	-1.000000	-1.000000	-1.000000	-1.000000	73.931034	0.000000	-1.000000	-1.000000	708223.000000	1773688973.180376
-6911.955000	30658.770000	34897.005000	5513.310000	-11148.705000	16897.410000	-9994.320000	-27657.990000	18.591014	23.000945	23.870363	23.105739	21.370718	14.186729	2.877016	12.286683	-2.273740	3.479280	-0.564620	0.814634	0.540648	0.164245	-1.000000	-1.000000	-1.000000	-1.000000	-1.000000	-1.000000	-1.000000	73.931034	0.000000	-1.000000	-1.000000	708224.000000	1773688973.180385
-6906.330000	30673.980000	34914.870000	5533.515000	-11126.340000	16917.030000	-9979.245000	-27673.065000	9.031397	7.402903	7.183027	6.502587	5.346538	-3.218635	-4.499067	18.384476	-2.273740	3.479280	-0.564620	0.814634	0.540648	0.164245	-1.000000	-1.000000	-1.000000	-1.000000	-1.000000	-1.000000	-1.000000	73.931034	0.000000	-1.000000	-1.000000	708225.000000	1773688973.195594
-6914.880000	30665.655000	34905.465000	5523.300000	-11138.670000	16906.455000	-10002.060000	-27664.515000	-2.354501	-8.218959	-9.138894	-9.094320	-8.861911	-15.657851	-7.063634	15.194407	-2.273740	3.479280	-0.564620	0.814634	0.540648	0.164245	-1.000000	-1.000000	-1.000000	-1.000000	-1.000000	-1.000000	-1.000000	73.931034	0.000000	-1.000000	-1.000000	708226.000000	1773688973.195609
-6935.580000	30638.295000	34876.620000	5490.450000	-11173.095000	16874.550000	-10039.455000	-27648.855000	-12.028381	-18.699556	-19.717421	-18.802822	-17.241747	-20.021667	-7.139281	5.867062	-2.273740	3.479280	-0.564620	0.814634	0.540648	0.164245	-1.000000	-1.000000	-1.000000	-1.000000	-1.000000	-1.000000	-1.000000	73.931034	0.000000	-1.000000	-1.000000	708227.000000	1773688973.195624
-6953.895000	30610.755000	34846.020000	5458.410000	-11205.360000	16832.655000	-10048.365000	-27603.630000	-17.314732	-22.089045	-22.847532	-21.709000	-19.808999	-18.157756	-7.715928	-2.949431	-2.273740	3.479280	-0.564620	0.814634	0.540648	0.164245	-1.000000	-1.000000	-1.000000	-1.000000	-1.000000	-1.000000	-1.000000	73.931034	0.000000	-1.000000	-1.000000	708228.000000	1773688973.195629
-6963.570000	30594.960000	34827.885000	5443.965000	-11216.160000	16813.260000	-10058.760000	-27638.955000	-16.817792	-18.963438	-19.438989	-18.848698	-17.607590	-13.267391	-8.228384	-6.200199	-2.273740	3.479280	-0.564620	0.814634	0.540648	0.164245	-1.000000	-1.000000	-1.000000	-1.000000	-1.000000	-1.000000	-1.000000	73.931034	0.000000	-1.000000	-1.000000	708229.000000	1773688973.195635
-6945.570000	30619.755000	34854.255000	5476.275000	-11178.990000	16868.880000	-10027.215000	-27639.090000	-10.794346	-10.990851	-11.260505	-11.220355	-10.753555	-6.418162	-5.757884	-4.484142	-2.273740	3.479280	-0.564620	0.814634	0.540648	0.164245	-1.000000	-1.000000	-1.000000	-1.000000	-1.000000	-1.000000	-1.000000	73.931034	0.000000	-1.000000	-1.000000	708230.000000	1773688973.195641
-6955.740000	30615.075000	34853.895000	5477.085000	-11177.055000	16877.295000	-10009.710000	-27598.995000	-1.310415	-0.229876	-0.209086	0.007725	0.331255	3.347725	1.257474	-0.957747	-4.379620	3.631880	-0.747740	0.813597	0.541197	0.163635	-1.000000	-1.000000	-1.000000	-1.000000	-1.000000	-1.000000	-1.000000	73.931034	0.000000	-1.000000	-1.000000	708231.000000	1773688973.199012
-6930.405000	30648.240000	34891.560000	5512.905000	-11144.565000	16907.400000	-9997.785000	-27599.085000	7.987475	10.398621	10.981044	11.870638	12.473109	14.662344	10.385584	2.887550	-4.379620	3.631880	-0.747740	0.813597	0.541197	0.163635	-1.000000	-1.000000	-1.000000	-1.000000	-1.000000	-1.000000	-1.000000	73.931034	0.000000	-1.000000	-1.000000	708232.000000	1773688973.199023
-6894.990000	30677.490000	34919.010000	5539.005000	-11118.870000	16929.270000	-9994.365000	-27542.430000	14.158616	17.969310	19.244647	20.381789	20.881856	22.761479	16.041644	6.346944	-4.379620	3.631880	-0.747740	0.813597	0.541197	0.163635	-1.000000	-1.000000	-1.000000	-1.000000	-1.000000	-1.000000	-1.000000	73.931034	0.000000	-1.000000	-1.000000	708233.000000	1773688973.199035
-6897.465000	30676.095000	34915.860000	5535.135000	-11124.675000	16929.045000	-9980.640000	-27559.800000	16.270504	20.441473	21.977776	22.373944	22.013288	23.209246	14.377898	8.227197	-4.379620	3.631880	-0.747740	0.813597	0.541197	0.163635	-1.000000	-1.000000	-1.000000	-1.000000	-1.000000	-1.000000	-1.000000	73.931034	0.000000	-1.000000	-1.000000	708234.000000	1773688973.199041
-6913.440000	30664.260000	34905.555000	5523.930000	-11138.040000	16918.920000	-9976.545000	-27647.415000	13.735679	16.497125	17.460436	16.490290	14.922369	14.861969	7.060991	5.071666	-4.379620	3.631880	-0.747740	0.813597	0.541197	0.163635	-1.000000	-1.000000	-1.000000	-1.000000	-1.000000	-1.000000	-1.000000	73.931034	0.000000	-1.000000	-1.000000	708235.000000	1773688973.209691
-6942.375000	30624.345000	34860.690000	5475.285000	-11181.645000	16878.285000	-9988.920000	-27680.940000	6.466553	6.853681	6.696108	4.607926	2.291803	0.953979	-0.845708	-7.162554	-4.379620	3.631880	-0.747740	0.813597	0.541197	0.163635	-1.000000	-1.000000	-1.000000	-1.000000	-1.000000	-1.000000	-1.000000	73.931034	0.000000	-1.000000	-1.000000	708236.000000	1773688973.209705
-6980.670000	30573.045000	34806.330000	5421.735000	-11236.140000	16820.505000	-10041.345000	-27673.200000	-3.708328	-5.513522	-6.742908	-9.088759	-11.092190	-13.070302	-6.576064	-24.500774	-4.379620	3.631880	-0.747740	0.813597	0.541197	0.163635	-1.000000	-1.000000	-1.000000	-1.000000	-1.000000	-1.000000	-1.000000	73.931034	0.000000	-1.000000	-1.000000	708237.000000	1773688973.209720
-6999.345000	30551.130000	34785.810000	5408.100000	-11245.230000	16809.345000	-10066.095000	-27668.655000	-13.594757	-16.995230	-18.776160	-20.416169	-21.172384	-23.101395	-11.348309	-33.685956	-4.379620	3.631880	-0.747740	0.813597	0.541197	0.163635	-1.000000	-1.000000	-1.000000	-1.000000	-1.000000	-1.000000	-1.000000	73.931034	0.000000	-1.000000	-1.000000	708238.000000	1773688973.209725
-6973.110000	30591.855000	34829.280000	5452.380000	-11199.015000	16847.235000	-10045.980000	-27663.480000	-19.158802	-23.197147	-24.753014	-25.005949	-24.293327	-26.365568	-15.754089	-24.875738	-4.379620	3.631880	-0.747740	0.813597	0.541197	0.163635	-1.000000	-1.000000	-1.000000	-1.000000	-1.000000	-1.000000	-1.000000	73.931034	0.000000	-1.000000	-1.000000	708239.000000	1773688973.209732
-6964.695000	30601.125000	34837.965000	5456.790000	-11194.920000	16852.005000	-10041.390000	-27667.890000	-16.666028	-19.787586	-20.522503	-19.381526	-17.665032	-20.715691	-16.834269	-2.091764	-4.379620	3.631880	-0.747740	0.813597	0.541197	0.163635	-1.000000	-1.000000	-1.000000	-1.000000	-1.000000	-1.000000	-1.000000	73.931034	0.000000	-1.000000	-1.000000	708240.000000	1773688973.209736
-6965.730000	30601.530000	34843.140000	5464.800000	-11188.080000	16862.400000	-10030.005000	-27685.530000	-6.771630	-7.577812	-7.396512	-5.563975	-3.648885	-7.490478	-11.669099	20.830464	-3.616620	3.174080	-1.709120	0.816648	0.543150	0.163086	-1.000000	-1.000000	-1.000000	-1.000000	-1.000000	-1.000000	-1.000000	73.931034	0.000000	-1.000000	-1.000000	708241.000000	1773688973.216048
-6955.470000	30613.860000	34856.460000	5477.310000	-11175.345000	16873.695000	-10022.985000	-27675.180000	4.573464	6.361366	7.282787	8.967627	10.316623	7.508389	-1.275772	31.656308	-3.616620	3.174080	-1.709120	0.816648	0.543150	0.163086	-1.000000	-1.000000	-1.000000	-1.000000	-1.000000	-1.000000	-1.000000	73.931034	0.000000	-1.000000	-1.000000	708242.000000	1773688973.216060
-6948.945000	30618.765000	34859.160000	5477.490000	-11175.255000	16874.370000	-10019.925000	-27628.245000	11.953514	15.383733	16.784419	17.786045	18.178698	18.218452	9.956616	28.799794	-3.616620	3.174080	-1.709120	0.816648	0.543150	0.163086	-1.000000	-1.000000	-1.000000	-1.000000	-1.000000	-1.000000	-1.000000	73.931034	0.000000	-1.000000	-1.000000	708243.000000	1773688973.219952
-6948.630000	30616.335000	34855.245000	5476.815000	-11175.030000	16873.695000	-10022.400000	-27633.825000	14.489153	17.911436	19.302395	19.481440	19.016443	22.018954	17.349332	20.508390	-3.616620	3.174080	-1.709120	0.816648	0.543150	0.163086	-1.000000	-1.000000	-1.000000	-1.000000	-1.000000	-1.000000	-1.000000	73.931034	0.000000	-1.000000	-1.000000	708244.000000	1773688973.219966
-6948.540000	30619.755000	34858.350000	5480.235000	-11172.510000	16876.485000	-10021.860000	-27645.480000	13.947861	16.152872	17.009024	16.698771	15.722901	20.250163	18.842900	13.156007	-3.616620	3.174080	-1.709120	0.816648	0.543150	0.163086	-1.000000	-1.000000	-1.000000	-1.000000	-1.000000	-1.000000	-1.000000	73.931034	0.000000	-1.000000	-1.000000	708245.000000	1773688973.232479
-6951.420000	30622.770000	34862.535000	5483.205000	-11173.590000	16878.735000	-10019.025000	-27647.775000	11.816756	12.987143	13.177860	12.832284	11.588144	15.954403	15.738533	5.458620	-3.616620	3.174080	-1.709120	0.816648	0.543150	0.163086	-1.000000	-1.000000	-1.000000	-1.000000	-1.000000	-1.000000	-1.000000	73.931034	0.000000	-1.000000	-1.000000	708246.000000	1773688973.232495
-6944.670000	30625.695000	34865.010000	5487.165000	-11168.730000	16879.545000	-10018.530000	-27641.790000	7.999603	8.899722	8.619878	8.223492	6.761710	9.864690	10.156942	-4.639764	-3.616620	3.174080	-1.709120	0.816648	0.543150	0.163086	-1.000000	-1.000000	-1.000000	-1.000000	-1.000000	-1.000000	-1.000000	73.931034	0.000000	-1.000000	-1.000000	708247.000000	1773688973.232514
-6941.745000	30627.585000	34865.775000	5486.040000	-11171.880000	16876.305000	-10019.970000	-27647.910000	1.562361	1.842240	1.196949	0.431435	-1.130862	0.155014	2.463197	-15.131187	-3.616620	3.174080	-1.709120	0.816648	0.543150	0.163086	-1.000000	-1.000000	-1.000000	-1.000000	-1.000000	-1.000000	-1.000000	73.931034	0.000000	-1.000000	-1.000000	708248.000000	1773688973.232520
-6938.865000	30634.020000	34873.110000	5489.595000	-11170.215000	16856.190000	-10012.455000	-27649.710000	-6.972365	-8.560484	-9.624291	-10.792535	-12.040768	-12.925348	-6.966450	-22.022963	-3.616620	3.174080	-1.709120	0.816648	0.543150	0.163086	-1.000000	-1.000000	-1.000000	-1.000000	-1.000000	-1.000000	-1.000000	73.931034	0.000000	-1.000000	-1.000000	708249.000000	1773688973.232528
-6938.730000	30631.995000	34872.165000	5489.820000	-11171.790000	16830.585000	-10018.800000	-27642.600000	-14.758450	-18.532667	-19.926954	-21.161312	-21.561131	-25.186035	-15.400758	-22.274693	-3.616620	3.174080	-1.709120	0.816648	0.543150	0.163086	-1.000000	-1.000000	-1.000000	-1.000000	-1.000000	-1.000000	-1.000000	73.931034	0.000000	-1.000000	-1.000000	708250.000000	1773688973.232533
-6942.150000	30626.820000	34868.520000	5488.965000	-11171.430000	16864.155000	-10024.245000	-27640.170000	-18.471848	-23.222596	-24.516726	-25.278515	-24.533698	-30.647914	-19.478138	-15.954233	-3.097780	3.341940	-2.212700	0.813536	0.547118	0.160888	-1.000000	-1.000000	-1.000000	-1.000000	-1.000000	-1.000000	-1.000000	73.931034	0.000000	-1.000000	-1.000000	708251.000000	1773688973.233176
-6943.140000	30625.560000	34865.190000	5485.860000	-11172.105000	16888.770000	-10020.150000	-27643.770000	-16.357142	-20.254062	-20.837978	-20.570506	-18.755319	-24.133377	-17.464909	-6.296775	-3.097780	3.341940	-2.212700	0.813536	0.547118	0.160888	-1.000000	-1.000000	-1.000000	-1.000000	-1.000000	-1.000000	-1.000000	73.931034	0.000000	-1.000000	-1.000000	708252.000000	1773688973.233186
-6948.270000	30620.700000	34860.555000	5482.620000	-11172.105000	16893.945000	-10017.720000	-27647.775000	-8.912486	-10.424717	-9.933195	-8.492589	-5.994757	-5.782657	-9.647900	2.997132	-3.097780	3.341940	-2.212700	0.813536	0.547118	0.160888	-1.000000	-1.000000	-1.000000	-1.000000	-1.000000	-1.000000	-1.000000	73.931034	0.000000	-1.000000	-1.000000	708253.000000	1773688973.237173
-6951.060000	30619.800000	34859.340000	5480.820000	-11174.265000	16887.510000	-10017.045000	-27653.130000	1.249312	2.738735	4.157418	6.238622	8.812085	16.275240	1.511081	9.608628	-3.097780	3.341940	-2.212700	0.813536	0.547118	0.160888	-1.000000	-1.000000	-1.000000	-1.000000	-1.000000	-1.000000	-1.000000	73.931034	0.000000	-1.000000	-1.000000	708254.000000	1773688973.237184
-6947.505000	30623.310000	34861.005000	5480.055000	-11175.390000	16883.280000	-10020.915000	-27655.740000	10.313324	14.135619	15.856497	17.594182	19.539863	30.517149	11.675860	12.313547	-3.097780	3.341940	-2.212700	0.813536	0.547118	0.160888	-1.000000	-1.000000	-1.000000	-1.000000	-1.000000	-1.000000	-1.000000	73.931034	0.000000	-1.000000	-1.000000	708255.000000	1773688973.241199
-6942.015000	30630.960000	34868.925000	5489.190000	-11164.995000	16890.930000	-10016.910000	-27659.070000	14.815442	19.284942	20.488317	20.978462	21.689893	29.847644	16.437416	10.810203	-3.097780	3.341940	-2.212700	0.813536	0.547118	0.160888	-1.000000	-1.000000	-1.000000	-1.000000	-1.000000	-1.000000	-1.000000	73.931034	0.000000	-1.000000	-1.000000	708256.000000	1773688973.241209
-6941.070000	30633.030000	34870.095000	5490.900000	-11163.465000	16891.335000	-10017.135000	-27653.355000	13.271046	16.589590	16.740333	15.831257	15.120189	16.095159	13.981568	6.352167	-3.097780	3.341940	-2.212700	0.813536	0.547118	0.160888	-1.000000	-1.000000	-1.000000	-1.000000	-1.000000	-1.000000	-1.000000	73.931034	0.000000	-1.000000	-1.000000	708257.000000	1773688973.245273
-6939.945000	30625.830000	34865.145000	5485.770000	-11168.235000	16884.135000	-10022.445000	-27642.915000	6.988283	7.987089	7.136511	5.592014	3.877320	-2.032373	6.133028	1.647344	-3.097780	3.341940	-2.212700	0.813536	0.547118	0.160888	-1.000000	-1.000000	-1.000000	-1.000000	-1.000000	-1.000000	-1.000000	73.931034	0.000000	-1.000000	-1.000000	708258.000000	1773688973.245283
-6932.340000	30644.550000	34885.890000	5505.570000	-11151.180000	16898.445000	-10014.930000	-27693.990000	-0.642094	-2.080122	-3.373306	-4.595942	-6.575713	-15.354514	-2.878680	-1.888110	-3.097780	3.341940	-2.212700	0.813536	0.547118	0.160888	-1.000000	-1.000000	-1.000000	-1.000000	-1.000000	-1.000000	-1.000000	73.931034	0.000000	-1.000000	-1.000000	708259.000000	1773688973.249116
-6921.765000	30670.560000	34912.530000	5530.410000	-11130.705000	16915.860000	-10000.980000	-27681.255000	-5.833627	-8.285155	-9.265428	-9.781024	-11.535320	-19.342406	-8.423580	-5.223521	-3.097780	3.341940	-2.212700	0.813536	0.547118	0.160888	-1.000000	-1.000000	-1.000000	-1.000000	-1.000000	-1.000000	-1.000000	73.931034	0.000000	-1.000000	-1.000000	708260.000000	1773688973.249126
-6908.580000	30678.165000	34917.390000	5532.030000	-11131.875000	16910.010000	-9990.585000	-27627.480000	-6.286154	-7.463628	-7.617613	-7.698073	-9.254466	-15.120424	-8.007637	-7.064623	-2.289000	3.509800	-2.639980	0.811704	0.542418	0.162597	-1.000000	-1.000000	-1.000000	-1.000000	-1.000000	-1.000000	-1.000000	73.931034	0.000000	-1.000000	-1.000000	708261.000000	1773688973.254153
-6918.345000	30651.255000	34885.620000	5501.205000	-11159.190000	16887.555000	-9997.470000	-27607.140000	-2.638009	-1.756995	-1.195836	-1.324562	-2.826658	-7.240720	-3.040700	-3.314610	-2.289000	3.509800	-2.639980	0.811704	0.542418	0.162597	-1.000000	-1.000000	-1.000000	-1.000000	-1.000000	-1.000000	-1.000000	73.931034	0.000000	-1.000000	-1.000000	708262.000000	1773688973.254164
-6925.095000	30637.395000	34870.905000	5487.975000	-11170.260000	16883.595000	-10005.030000	-27621.990000	1.708653	2.789934	3.403302	3.094447	2.018263	-0.276401	2.310031	5.492863	-2.289000	3.509800	-2.639980	0.811704	0.542418	0.162597	-1.000000	-1.000000	-1.000000	-1.000000	-1.000000	-1.000000	-1.000000	73.931034	0.000000	-1.000000	-1.000000	708263.000000	1773688973.257116
-6952.005000	30606.885000	34842.330000	5460.570000	-11195.415000	16860.690000	-10020.465000	-27611.640000	2.787071	1.547063	1.645575	1.524638	1.656843	3.282574	4.201362	12.540826	-2.289000	3.509800	-2.639980	0.811704	0.542418	0.162597	-1.000000	-1.000000	-1.000000	-1.000000	-1.000000	-1.000000	-1.000000	73.931034	0.000000	-1.000000	-1.000000	708264.000000	1773688973.257126
-6961.725000	30602.925000	34840.845000	5460.210000	-11195.055000	16853.895000	-10037.295000	-27651.645000	-1.033680	-5.089734	-5.419850	-4.908638	-3.172773	3.038299	1.366118	11.629016	-2.289000	3.509800	-2.639980	0.811704	0.542418	0.162597	-1.000000	-1.000000	-1.000000	-1.000000	-1.000000	-1.000000	-1.000000	73.931034	0.000000	-1.000000	-1.000000	708265.000000	1773688973.261207
-6948.090000	30612.555000	34849.935000	5468.580000	-11187.540000	16857.225000	-10037.700000	-27636.165000	-7.072508	-11.880863	-12.103323	-10.904868	-8.050601	0.834919	-4.216331	2.280704	-2.289000	3.509800	-2.639980	0.811704	0.542418	0.162597	-1.000000	-1.000000	-1.000000	-1.000000	-1.000000	-1.000000	-1.000000	73.931034	0.000000	-1.000000	-1.000000	708266.000000	1773688973.261229
-6954.615000	30606.660000	34845.660000	5463.720000	-11193.795000	16850.430000	-10045.980000	-27604.170000	-10.157536	-12.821067	-12.598153	-11.147684	-8.314096	-0.137491	-8.469900	-9.270809	-2.289000	3.509800	-2.639980	0.811704	0.542418	0.162597	-1.000000	-1.000000	-1.000000	-1.000000	-1.000000	-1.000000	-1.000000	73.931034	0.000000	-1.000000	-1.000000	708267.000000	1773688973.265064
-6938.370000	30626.370000	34863.885000	5481.720000	-11174.985000	16872.210000	-10046.160000	-27600.525000	-7.433352	-6.433600	-5.930021	-4.882388	-3.167428	1.509953	-8.373525	-14.175435	-2.289000	3.509800	-2.639980	0.811704	0.542418	0.162597	-1.000000	-1.000000	-1.000000	-1.000000	-1.000000	-1.000000	-1.000000	73.931034	0.000000	-1.000000	-1.000000	708268.000000	1773688973.265076
-6941.385000	30636.135000	34876.395000	5496.345000	-11157.210000	16890.705000	-10033.200000	-27651.600000	-0.345620	3.737342	4.149259	4.400298	4.634034	4.683888	-3.935455	-10.484013	-2.289000	3.509800	-2.639980	0.811704	0.542418	0.162597	-1.000000	-1.000000	-1.000000	-1.000000	-1.000000	-1.000000	-1.000000	73.931034	0.000000	-1.000000	-1.000000	708269.000000	1773688973.270198
-6963.255000	30617.235000	34859.385000	5479.515000	-11175.615000	16871.265000	-10019.520000	-27685.215000	6.819724	12.514739	12.763983	12.349866	11.509473	7.599148	2.894080	-5.747282	-2.289000	3.509800	-2.639980	0.811704	0.542418	0.162597	-1.000000	-1.000000	-1.000000	-1.000000	-1.000000	-1.000000	-1.000000	73.931034	0.000000	-1.000000	-1.000000	708270.000000	1773688973.270208
-6951.240000	30620.430000	34861.095000	5477.850000	-11181.015000	16857.405000	-10012.185000	-27645.030000	10.201276	16.190267	16.561994	15.832206	14.408107	8.361772	9.707795	-5.669804	-1.739640	4.669560	-2.639980	0.817076	0.543578	0.163696	-1.000000	-1.000000	-1.000000	-1.000000	-1.000000	-1.000000	-1.000000	73.931034	0.000000	-1.000000	-1.000000	708271.000000	1773688973.273321
-6936.480000	30622.275000	34858.305000	5475.735000	-11181.645000	16838.415000	-10018.305000	-27582.345000	9.698894	14.354113	14.910245	14.001420	12.153029	5.637006	13.929402	-5.444762	-1.739640	4.669560	-2.639980	0.817076	0.543578	0.163696	-1.000000	-1.000000	-1.000000	-1.000000	-1.000000	-1.000000	-1.000000	73.931034	0.000000	-1.000000	-1.000000	708272.000000	1773688973.273332
-6942.555000	30621.600000	34856.685000	5474.745000	-11182.770000	16848.675000	-10014.660000	-27609.930000	7.754522	9.087964	9.291963	8.219130	6.120435	0.292679	13.513156	1.642116	-1.739640	4.669560	-2.639980	0.817076	0.543578	0.163696	-1.000000	-1.000000	-1.000000	-1.000000	-1.000000	-1.000000	-1.000000	73.931034	0.000000	-1.000000	-1.000000	708273.000000	1773688973.280124
-6956.415000	30613.005000	34850.205000	5469.210000	-11186.820000	16864.605000	-10017.855000	-27702.495000	5.191904	2.400220	1.646079	0.618554	-1.199903	-4.410049	8.408757	11.757080	-1.739640	4.669560	-2.639980	0.817076	0.543578	0.163696	-1.000000	-1.000000	-1.000000	-1.000000	-1.000000	-1.000000	-1.000000	73.931034	0.000000	-1.000000	-1.000000	708274.000000	1773688973.280137
-6960.150000	30611.430000	34852.410000	5472.360000	-11180.610000	16879.320000	-10018.305000	-27684.900000	0.862212	-4.563847	-6.146004	-6.721988	-7.510943	-5.368814	0.656544	14.336270	-1.739640	4.669560	-2.639980	0.817076	0.543578	0.163696	-1.000000	-1.000000	-1.000000	-1.000000	-1.000000	-1.000000	-1.000000	73.931034	0.000000	-1.000000	-1.000000	708275.000000	1773688973.281188
-6967.440000	30602.970000	34844.760000	5466.015000	-11182.545000	16876.530000	-10024.830000	-27677.430000	-5.145902	-10.479858	-12.003412	-11.786701	-10.960532	-2.694423	-6.888460	6.495705	-1.739640	4.669560	-2.639980	0.817076	0.543578	0.163696	-1.000000	-1.000000	-1.000000	-1.000000	-1.000000	-1.000000	-1.000000	73.931034	0.000000	-1.000000	-1.000000	708276.000000	1773688973.281198
-6949.305000	30617.550000	34857.180000	5476.365000	-11175.165000	16880.535000	-10016.640000	-27634.095000	-10.253149	-13.708982	-14.314942	-13.332997	-10.967424	0.099459	-11.753237	-3.323379	-1.739640	4.669560	-2.639980	0.817076	0.543578	0.163696	-1.000000	-1.000000	-1.000000	-1.000000	-1.000000	-1.000000	-1.000000	73.931034	0.000000	-1.000000	-1.000000	708277.000000	1773688973.285289
-6935.535000	30627.315000	34865.190000	5483.880000	-11167.605000	16885.125000	-10013.220000	-27623.205000	-10.992610	-12.697990	-12.266891	-11.032354	-8.155606	-0.029250	-12.696148	-5.194550	-1.739640	4.669560	-2.639980	0.817076	0.543578	0.163696	-1.000000	-1.000000	-1.000000	-1.000000	-1.000000	-1.000000	-1.000000	73.931034	0.000000	-1.000000	-1.000000	708278.000000	1773688973.285300
-6925.635000	30643.830000	34881.840000	5500.980000	-11153.475000	16896.510000	-10013.985000	-27622.170000	-5.719431	-6.491407	-5.580719	-4.761658	-2.840946	-1.892274	-10.036540	2.191719	-1.739640	4.669560	-2.639980	0.817076	0.543578	0.163696	-1.000000	-1.000000	-1.000000	-1.000000	-1.000000	-1.000000	-1.000000	73.931034	0.000000	-1.000000	-1.000000	708279.000000	1773688973.294734
-6924.150000	30662.370000	34903.755000	5521.995000	-11134.800000	16913.925000	-10005.615000	-27647.505000	2.923681	3.520617	4.386974	4.482805	4.498529	-1.795219	-5.048418	10.045812	-1.739640	4.669560	-2.639980	0.817076	0.543578	0.163696	-1.000000	-1.000000	-1.000000	-1.000000	-1.000000	-1.000000	-1.000000	73.931034	0.000000	-1.000000	-1.000000	708280.000000	1773688973.294747
-6925.005000	30657.240000	34899.210000	5516.730000	-11140.515000	16907.985000	-10000.890000	-27638.820000	9.345680	12.808621	13.619094	13.126886	11.274926	1.541517	0.940257	8.597773	-2.365300	4.822160	-2.227960	0.815061	0.542479	0.163696	-1.000000	-1.000000	-1.000000	-1.000000	-1.000000	-1.000000	-1.000000	73.931034	0.000000	-1.000000	-1.000000	708281.000000	1773688973.294761
-6934.995000	30624.030000	34861.680000	5480.730000	-11175.075000	16873.020000	-10013.895000	-27613.575000	9.797794	15.745154	16.612156	15.849475	13.038443	4.613025	6.214625	-0.945722	-2.365300	4.822160	-2.227960	0.815061	0.542479	0.163696	-1.000000	-1.000000	-1.000000	-1.000000	-1.000000	-1.000000	-1.000000	73.931034	0.000000	-1.000000	-1.000000	708282.000000	1773688973.294766
-6947.055000	30617.370000	34855.155000	5475.465000	-11180.025000	16866.270000	-10030.320000	-27671.805000	4.711038	9.587247	10.155703	9.484223	7.029166	2.486874	8.358807	-8.606778	-2.365300	4.822160	-2.227960	0.815061	0.542479	0.163696	-1.000000	-1.000000	-1.000000	-1.000000	-1.000000	-1.000000	-1.000000	73.931034	0.000000	-1.000000	-1.000000	708283.000000	1773688973.298596
-6936.480000	30647.430000	34886.250000	5503.320000	-11156.760000	16884.765000	-10017.810000	-27703.800000	-2.490969	-1.924297	-2.244575	-2.562295	-3.721157	-4.614143	6.380150	-10.340433	-2.365300	4.822160	-2.227960	0.815061	0.542479	0.163696	-1.000000	-1.000000	-1.000000	-1.000000	-1.000000	-1.000000	-1.000000	73.931034	0.000000	-1.000000	-1.000000	708284.000000	1773688973.298607
-6928.515000	30654.900000	34893.630000	5509.395000	-11150.640000	16893.360000	-9989.055000	-27608.850000	-7.545211	-10.782421	-12.084419	-12.096560	-11.927100	-10.636549	2.716165	-9.042236	-2.365300	4.822160	-2.227960	0.815061	0.542479	0.163696	-1.000000	-1.000000	-1.000000	-1.000000	-1.000000	-1.000000	-1.000000	73.931034	0.000000	-1.000000	-1.000000	708285.000000	1773688973.301180
-6939.675000	30631.095000	34869.780000	5489.190000	-11164.320000	16885.980000	-9995.580000	-27589.860000	-8.377237	-12.600555	-14.243484	-14.136660	-13.085298	-10.592801	0.593814	-4.687626	-2.365300	4.822160	-2.227960	0.815061	0.542479	0.163696	-1.000000	-1.000000	-1.000000	-1.000000	-1.000000	-1.000000	-1.000000	73.931034	0.000000	-1.000000	-1.000000	708286.000000	1773688973.301191
-6948.315000	30618.315000	34855.785000	5476.680000	-11176.110000	16873.515000	-10016.280000	-27642.375000	-6.321093	-9.604386	-10.686569	-10.410124	-8.693421	-5.102688	-0.121511	2.494430	-2.365300	4.822160	-2.227960	0.815061	0.542479	0.163696	-1.000000	-1.000000	-1.000000	-1.000000	-1.000000	-1.000000	-1.000000	73.931034	0.000000	-1.000000	-1.000000	708287.000000	1773688973.305104
-6953.940000	30613.950000	34849.485000	5468.985000	-11185.965000	16864.290000	-10025.460000	-27646.290000	-3.668067	-5.770061	-5.813896	-5.195786	-2.931027	1.662554	-1.789739	7.018714	-2.365300	4.822160	-2.227960	0.815061	0.542479	0.163696	-1.000000	-1.000000	-1.000000	-1.000000	-1.000000	-1.000000	-1.000000	73.931034	0.000000	-1.000000	-1.000000	708288.000000	1773688973.305111
-6965.055000	30606.345000	34842.510000	5461.290000	-11192.850000	16858.845000	-10028.070000	-27655.875000	-1.534093	-2.810790	-2.038107	-1.185474	1.126753	5.977117	-4.868365	4.983956	-2.365300	4.822160	-2.227960	0.815061	0.542479	0.163696	-1.000000	-1.000000	-1.000000	-1.000000	-1.000000	-1.000000	-1.000000	73.931034	0.000000	-1.000000	-1.000000	708289.000000	1773688973.309273
-6949.395000	30622.860000	34860.555000	5480.280000	-11171.295000	16880.580000	-10020.780000	-27649.755000	0.447159	0.150726	1.198096	1.882454	3.473368	7.348342	-7.025855	-1.173294	-2.365300	4.822160	-2.227960	0.815061	0.542479	0.163696	-1.000000	-1.000000	-1.000000	-1.000000	-1.000000	-1.000000	-1.000000	73.931034	0.000000	-1.000000	-1.000000	708290.000000	1773688973.309283
-6931.980000	30639.150000	34876.080000	5493.330000	-11162.295000	16883.910000	-10022.535000	-27662.355000	3.708286	5.184917	6.156650	6.261016	6.530083	8.064271	-5.560679	-5.847114	-0.656180	4.303320	-1.159760	0.814207	0.541380	0.163330	-1.000000	-1.000000	-1.000000	-1.000000	-1.000000	-1.000000	-1.000000	73.931034	0.000000	-1.000000	-1.000000	708291.000000	1773688973.313241
-6928.695000	30643.200000	34879.005000	5493.015000	-11167.560000	16875.855000	-10020.690000	-27645.705000	8.530601	11.942773	12.671752	11.970445	10.662810	8.935381	-0.257475	-4.454353	-0.656180	4.303320	-1.159760	0.814207	0.541380	0.163330	-1.000000	-1.000000	-1.000000	-1.000000	-1.000000	-1.000000	-1.000000	73.931034	0.000000	-1.000000	-1.000000	708292.000000	1773688973.313251
-6946.380000	30622.095000	34860.645000	5477.985000	-11178.765000	16868.295000	-10017.540000	-27614.295000	11.871775	15.601404	15.912789	14.582018	11.990700	7.426317	5.759032	3.070245	-0.656180	4.303320	-1.159760	0.814207	0.541380	0.163330	-1.000000	-1.000000	-1.000000	-1.000000	-1.000000	-1.000000	-1.000000	73.931034	0.000000	-1.000000	-1.000000	708293.000000	1773688973.320242
-6959.475000	30604.770000	34843.320000	5466.870000	-11180.520000	16869.060000	-10018.755000	-27631.620000	9.582380	11.272601	11.137601	9.950738	7.201976	1.738661	8.337916	10.271560	-0.656180	4.303320	-1.159760	0.814207	0.541380	0.163330	-1.000000	-1.000000	-1.000000	-1.000000	-1.000000	-1.000000	-1.000000	73.931034	0.000000	-1.000000	-1.000000	708294.000000	1773688973.320252
-6947.820000	30622.185000	34861.230000	5484.825000	-11163.870000	16865.370000	-10008.990000	-27640.080000	1.667466	0.577318	0.224609	0.104861	-1.354610	-5.679848	6.207346	9.560668	-0.656180	4.303320	-1.159760	0.814207	0.541380	0.163330	-1.000000	-1.000000	-1.000000	-1.000000	-1.000000	-1.000000	-1.000000	73.931034	0.000000	-1.000000	-1.000000	708295.000000	1773688973.321200
-6934.365000	30639.645000	34877.835000	5499.405000	-11154.420000	16847.730000	-10003.590000	-27632.295000	-6.528724	-8.789217	-9.074631	-7.952508	-7.567808	-10.448831	2.196724	1.607704	-0.656180	4.303320	-1.159760	0.814207	0.541380	0.163330	-1.000000	-1.000000	-1.000000	-1.000000	-1.000000	-1.000000	-1.000000	73.931034	0.000000	-1.000000	-1.000000	708296.000000	1773688973.321210
-6933.825000	30642.480000	34880.310000	5501.250000	-11157.030000	16878.735000	-10005.705000	-27634.905000	-9.549720	-10.780398	-10.879951	-9.284769	-7.841985	-9.985851	-0.340303	-6.013319	-0.656180	4.303320	-1.159760	0.814207	0.541380	0.163330	-1.000000	-1.000000	-1.000000	-1.000000	-1.000000	-1.000000	-1.000000	73.931034	0.000000	-1.000000	-1.000000	708297.000000	1773688973.326277
-6941.115000	30634.785000	34873.470000	5492.655000	-11164.680000	16899.345000	-10013.040000	-27658.890000	-6.782665	-6.173637	-6.188203	-5.154196	-3.994362	-4.172871	-1.058125	-8.590868	-0.656180	4.303320	-1.159760	0.814207	0.541380	0.163330	-1.000000	-1.000000	-1.000000	-1.000000	-1.000000	-1.000000	-1.000000	73.931034	0.000000	-1.000000	-1.000000	708298.000000	1773688973.326288
-6937.245000	30644.370000	34883.055000	5500.035000	-11153.835000	16914.690000	-10004.445000	-27673.830000	-1.882195	-0.089778	-0.193536	-0.357408	-0.241864	4.460247	-1.473350	-7.270396	-0.656180	4.303320	-1.159760	0.814207	0.541380	0.163330	-1.000000	-1.000000	-1.000000	-1.000000	-1.000000	-1.000000	-1.000000	73.931034	0.000000	-1.000000	-1.000000	708299.000000	1773688973.330777
-6916.950000	30670.740000	34911.900000	5531.040000	-11122.785000	16937.820000	-9979.200000	-27631.080000	1.532080	3.513738	3.292891	2.021232	1.454907	11.464937	-1.771439	-3.845711	-0.656180	4.303320	-1.159760	0.814207	0.541380	0.163330	-1.000000	-1.000000	-1.000000	-1.000000	-1.000000	-1.000000	-1.000000	73.931034	0.000000	-1.000000	-1.000000	708300.000000	1773688973.330790
-6895.845000	30681.945000	34922.160000	5541.525000	-11113.605000	16942.185000	-9980.640000	-27588.915000	3.010473	4.243225	4.041279	2.480808	2.211984	13.428736	-0.993117	2.101609	-2.121140	4.806900	-0.427280	0.814634	0.543089	0.163513	-1.000000	-1.000000	-1.000000	-1.000000	-1.000000	-1.000000	-1.000000	73.931034	0.000000	-1.000000	-1.000000	708301.000000	1773688973.333256
-6876.315000	30702.420000	34939.755000	5558.130000	-11097.540000	16955.145000	-9993.555000	-27597.600000	4.261548	3.779623	3.625732	2.689486	3.202453	9.607735	0.037728	8.884204	-2.121140	4.806900	-0.427280	0.814634	0.543089	0.163513	-1.000000	-1.000000	-1.000000	-1.000000	-1.000000	-1.000000	-1.000000	73.931034	0.000000	-1.000000	-1.000000	708302.000000	1773688973.333267
-6896.430000	30679.110000	34913.520000	5531.490000	-11123.640000	16924.455000	-10010.970000	-27615.285000	5.627948	3.165818	2.831343	2.729899	3.489141	1.378438	-0.974425	11.199048	-2.121140	4.806900	-0.427280	0.814634	0.543089	0.163513	-1.000000	-1.000000	-1.000000	-1.000000	-1.000000	-1.000000	-1.000000	73.931034	0.000000	-1.000000	-1.000000	708303.000000	1773688973.337220
-6964.380000	30597.840000	34828.830000	5448.105000	-11205.855000	16842.555000	-10040.580000	-27613.710000	3.877766	0.152515	-0.597108	-0.276543	-0.094410	-9.451939	-4.741412	6.476849	-2.121140	4.806900	-0.427280	0.814634	0.543089	0.163513	-1.000000	-1.000000	-1.000000	-1.000000	-1.000000	-1.000000	-1.000000	73.931034	0.000000	-1.000000	-1.000000	708304.000000	1773688973.337231
-6966.315000	30586.860000	34812.855000	5430.195000	-11226.735000	16822.260000	-10042.155000	-27621.675000	-4.056311	-8.272432	-9.398813	-9.007490	-9.488289	-20.711353	-9.207491	-2.017982	-2.121140	4.806900	-0.427280	0.814634	0.543089	0.163513	-1.000000	-1.000000	-1.000000	-1.000000	-1.000000	-1.000000	-1.000000	73.931034	0.000000	-1.000000	-1.000000	708305.000000	1773688973.341102
-6951.420000	30616.110000	34849.395000	5468.220000	-11188.170000	16862.355000	-10011.240000	-27651.060000	-14.198673	-18.120814	-19.198634	-18.756559	-19.278545	-27.257512	-10.187842	-9.409039	-2.121140	4.806900	-0.427280	0.814634	0.543089	0.163513	-1.000000	-1.000000	-1.000000	-1.000000	-1.000000	-1.000000	-1.000000	73.931034	0.000000	-1.000000	-1.000000	708306.000000	1773688973.341114
-6955.290000	30610.980000	34849.710000	5470.155000	-11187.630000	16860.420000	-10014.075000	-27651.960000	-17.812036	-19.858657	-20.055114	-19.412252	-19.469042	-22.959014	-4.525974	-12.520218	-2.121140	4.806900	-0.427280	0.814634	0.543089	0.163513	-1.000000	-1.000000	-1.000000	-1.000000	-1.000000	-1.000000	-1.000000	73.931034	0.000000	-1.000000	-1.000000	708307.000000	1773688973.349950
