Channel1	Channel2	Channel3	Channel4	Channel5	Channel6	Channel7	Channel8	FilteredChannel1	FilteredChannel2	FilteredChannel3	FilteredChannel4	FilteredChannel5	FilteredChannel6	FilteredChannel7	FilteredChannel8	GyroX	GyroY	GyroZ	AccX	AccY	AccZ	PPG1	PPG2	rawPPG1	rawPPG2	rawPPG3	Hr	Hrv	Battery	Trigger	PhysicalTrigger	AutoTrigger	NumMeasurements	Timestamp
-7228.395000	30113.370000	35093.700000	4830.030000	-12255.885000	16845.210000	-10046.655000	-27721.665000	29.047344	35.454804	36.447310	35.236708	38.738006	30.952893	-11.746796	-24.294145	-3.387720	4.715340	-1.815940	0.821165	0.535521	0.158691	-1.000000	-1.000000	-1.000000	-1.000000	-1.000000	-1.000000	-1.000000	74.206897	0.000000	-1.000000	-1.000000	660486.000000	1773688877.711651
-7230.915000	30111.705000	35092.980000	4839.930000	-12238.695000	16859.790000	-10033.830000	-27731.745000	82.691160	100.407714	103.011594	100.320020	93.170751	85.764320	28.786162	14.101813	-3.387720	4.715340	-1.815940	0.821165	0.535521	0.158691	-1.000000	-1.000000	-1.000000	-1.000000	-1.000000	-1.000000	-1.000000	74.206897	0.000000	-1.000000	-1.000000	660487.000000	1773688877.711927
-7221.150000	30132.855000	35113.905000	4851.810000	-12226.770000	16876.035000	-10025.010000	-27725.535000	87.569440	106.192914	109.141392	107.877912	94.194191	90.121040	47.815247	38.507226	-3.387720	4.715340	-1.815940	0.821165	0.535521	0.158691	-1.000000	-1.000000	-1.000000	-1.000000	-1.000000	-1.000000	-1.000000	74.206897	0.000000	-1.000000	-1.000000	660488.000000	1773688877.711937
-7212.600000	30126.060000	35111.790000	4851.270000	-12225.015000	16882.065000	-10019.880000	-27716.040000	58.204871	70.075646	72.307829	73.256436	59.530818	60.012410	41.095049	38.936643	-3.387720	4.715340	-1.815940	0.821165	0.535521	0.158691	-1.000000	-1.000000	-1.000000	-1.000000	-1.000000	-1.000000	-1.000000	74.206897	0.000000	-1.000000	-1.000000	660489.000000	1773688877.715724
-7208.730000	30123.135000	35110.755000	4851.225000	-12225.420000	16883.235000	-10018.485000	-27712.395000	28.719010	33.545700	34.872531	36.143127	26.603778	30.668125	25.529149	26.984611	-3.387720	4.715340	-1.815940	0.821165	0.535521	0.158691	-1.000000	-1.000000	-1.000000	-1.000000	-1.000000	-1.000000	-1.000000	74.206897	0.000000	-1.000000	-1.000000	660490.000000	1773688877.715735
-7196.580000	30145.320000	35131.995000	4868.055000	-12213.045000	16893.945000	-10012.680000	-27703.800000	12.816257	13.559125	14.241194	13.690349	9.240874	14.825726	15.670469	17.595776	-1.587040	5.676720	-2.533160	0.823911	0.538817	0.156616	-1.000000	-1.000000	-1.000000	-1.000000	-1.000000	-1.000000	-1.000000	74.206897	0.000000	-1.000000	-1.000000	660491.000000	1773688877.719834
-7192.845000	30152.295000	35137.620000	4870.800000	-12211.740000	16897.815000	-10011.195000	-27703.890000	-0.904008	-3.346672	-3.444204	-6.154881	-6.255492	-0.688040	8.593696	12.400526	-1.587040	5.676720	-2.533160	0.823911	0.538817	0.156616	-1.000000	-1.000000	-1.000000	-1.000000	-1.000000	-1.000000	-1.000000	74.206897	0.000000	-1.000000	-1.000000	660492.000000	1773688877.719858
-7192.215000	30155.040000	35138.430000	4870.350000	-12212.460000	16896.510000	-10012.005000	-27709.605000	-21.588777	-28.086050	-29.397561	-32.861378	-29.611129	-24.842265	-2.939186	5.438051	-1.587040	5.676720	-2.533160	0.823911	0.538817	0.156616	-1.000000	-1.000000	-1.000000	-1.000000	-1.000000	-1.000000	-1.000000	74.206897	0.000000	-1.000000	-1.000000	660493.000000	1773688877.723766
-7199.280000	30147.120000	35128.845000	4860.225000	-12222.540000	16887.780000	-10012.680000	-27710.820000	-43.562902	-53.782188	-56.307750	-58.840092	-53.045854	-49.794422	-17.262923	-5.878006	-1.587040	5.676720	-2.533160	0.823911	0.538817	0.156616	-1.000000	-1.000000	-1.000000	-1.000000	-1.000000	-1.000000	-1.000000	74.206897	0.000000	-1.000000	-1.000000	660494.000000	1773688877.723776
-7198.245000	30149.055000	35131.545000	4862.475000	-12220.920000	16888.275000	-10014.615000	-27710.820000	-56.319814	-67.779956	-70.806275	-71.777879	-64.194299	-63.109011	-27.696184	-18.605786	-1.587040	5.676720	-2.533160	0.823911	0.538817	0.156616	-1.000000	-1.000000	-1.000000	-1.000000	-1.000000	-1.000000	-1.000000	74.206897	0.000000	-1.000000	-1.000000	660495.000000	1773688877.729368
-7190.100000	30155.670000	35138.790000	4870.395000	-12212.910000	16893.675000	-10011.420000	-27704.880000	-53.908567	-63.528169	-65.997217	-65.796680	-57.704019	-58.908401	-30.685816	-27.601906	-1.587040	5.676720	-2.533160	0.823911	0.538817	0.156616	-1.000000	-1.000000	-1.000000	-1.000000	-1.000000	-1.000000	-1.000000	74.206897	0.000000	-1.000000	-1.000000	660496.000000	1773688877.729380
-7187.040000	30158.280000	35141.805000	4874.085000	-12214.035000	16872.345000	-10010.295000	-27704.070000	-35.023050	-40.357685	-41.404185	-40.421587	-33.999878	-37.491811	-26.239811	-29.023339	-1.587040	5.676720	-2.533160	0.823911	0.538817	0.156616	-1.000000	-1.000000	-1.000000	-1.000000	-1.000000	-1.000000	-1.000000	74.206897	0.000000	-1.000000	-1.000000	660497.000000	1773688877.740979
-7168.680000	30182.895000	35166.645000	4893.390000	-12202.515000	16876.890000	-10006.425000	-27709.155000	-2.550757	-1.434081	-0.782045	0.859814	3.077024	-3.042342	-13.998003	-21.090920	-1.587040	5.676720	-2.533160	0.823911	0.538817	0.156616	-1.000000	-1.000000	-1.000000	-1.000000	-1.000000	-1.000000	-1.000000	74.206897	0.000000	-1.000000	-1.000000	660498.000000	1773688877.740992
-7117.605000	30243.420000	35226.360000	4936.095000	-12175.875000	16946.010000	-9982.305000	-27716.580000	33.083984	41.716707	43.617628	45.328510	41.819458	34.147307	4.683648	-5.552871	-1.587040	5.676720	-2.533160	0.823911	0.538817	0.156616	-1.000000	-1.000000	-1.000000	-1.000000	-1.000000	-1.000000	-1.000000	74.206897	0.000000	-1.000000	-1.000000	660499.000000	1773688877.741006
-7117.605000	30222.630000	35188.560000	4876.920000	-12248.100000	16923.600000	-10004.760000	-27657.810000	55.717382	69.044342	71.059837	71.563960	63.046174	58.622341	22.104721	11.539526	-1.587040	5.676720	-2.533160	0.823911	0.538817	0.156616	-1.000000	-1.000000	-1.000000	-1.000000	-1.000000	-1.000000	-1.000000	74.206897	0.000000	-1.000000	-1.000000	660500.000000	1773688877.741011
-7175.970000	30143.385000	35096.850000	4793.535000	-12344.805000	16874.370000	-10031.580000	-27595.485000	53.151310	64.096499	64.660838	63.168238	52.573743	57.798091	28.182004	24.723554	-3.113040	4.715340	-2.151660	0.821958	0.532347	0.156982	-1.000000	-1.000000	-1.000000	-1.000000	-1.000000	-1.000000	-1.000000	74.206897	0.000000	-1.000000	-1.000000	660501.000000	1773688877.744660
-7217.955000	30120.840000	35086.320000	4781.025000	-12348.630000	16870.185000	-10002.690000	-27693.900000	25.569880	27.633841	25.973833	23.527865	14.923105	31.542047	20.142349	29.931193	-3.113040	4.715340	-2.151660	0.821958	0.532347	0.156982	-1.000000	-1.000000	-1.000000	-1.000000	-1.000000	-1.000000	-1.000000	74.206897	0.000000	-1.000000	-1.000000	660502.000000	1773688877.744671
-7221.060000	30130.290000	35117.235000	4817.880000	-12255.525000	16876.350000	-10003.905000	-27727.020000	-13.218914	-20.234384	-22.519848	-23.634504	-25.691699	-5.507844	5.196325	21.619288	-3.113040	4.715340	-2.151660	0.821958	0.532347	0.156982	-1.000000	-1.000000	-1.000000	-1.000000	-1.000000	-1.000000	-1.000000	74.206897	0.000000	-1.000000	-1.000000	660503.000000	1773688877.744683
-7205.940000	30144.555000	35135.910000	4879.035000	-12179.160000	16888.635000	-10019.430000	-27697.320000	-42.980269	-53.194252	-52.908009	-50.578877	-42.268414	-33.891020	-7.640237	0.486409	-3.113040	4.715340	-2.151660	0.821958	0.532347	0.156982	-1.000000	-1.000000	-1.000000	-1.000000	-1.000000	-1.000000	-1.000000	74.206897	0.000000	-1.000000	-1.000000	660504.000000	1773688877.744688
-7191.675000	30159.585000	35151.975000	4919.220000	-12158.370000	16904.205000	-10021.050000	-27717.165000	-48.903550	-55.786024	-51.296426	-44.051624	-26.294921	-41.382478	-14.509521	-21.574362	-3.113040	4.715340	-2.151660	0.821958	0.532347	0.156982	-1.000000	-1.000000	-1.000000	-1.000000	-1.000000	-1.000000	-1.000000	74.206897	0.000000	-1.000000	-1.000000	660505.000000	1773688877.751150
-7188.255000	30152.475000	35138.565000	4885.965000	-12187.665000	16894.080000	-10016.640000	-27729.000000	-29.517647	-30.017663	-23.168482	-11.822896	7.534931	-27.085969	-14.663251	-31.881580	-3.113040	4.715340	-2.151660	0.821958	0.532347	0.156982	-1.000000	-1.000000	-1.000000	-1.000000	-1.000000	-1.000000	-1.000000	74.206897	0.000000	-1.000000	-1.000000	660506.000000	1773688877.751161
-7191.315000	30138.570000	35119.620000	4866.750000	-12182.940000	16886.835000	-10011.420000	-27716.715000	2.690014	7.313021	12.445885	23.122499	34.509234	-1.464643	-8.405826	-25.951786	-3.113040	4.715340	-2.151660	0.821958	0.532347	0.156982	-1.000000	-1.000000	-1.000000	-1.000000	-1.000000	-1.000000	-1.000000	74.206897	0.000000	-1.000000	-1.000000	660507.000000	1773688877.751854
-7212.690000	30129.795000	35113.410000	4858.560000	-12199.725000	16887.150000	-10015.695000	-27720.945000	28.193146	33.956767	34.143298	38.320245	37.584470	18.635801	0.851516	-8.237692	-3.113040	4.715340	-2.151660	0.821958	0.532347	0.156982	-1.000000	-1.000000	-1.000000	-1.000000	-1.000000	-1.000000	-1.000000	74.206897	0.000000	-1.000000	-1.000000	660508.000000	1773688877.751865
-7232.715000	30110.580000	35096.310000	4839.345000	-12228.210000	16877.880000	-10028.475000	-27723.735000	33.853689	37.635534	33.036694	28.490986	17.924857	22.838810	7.963728	10.095734	-3.113040	4.715340	-2.151660	0.821958	0.532347	0.156982	-1.000000	-1.000000	-1.000000	-1.000000	-1.000000	-1.000000	-1.000000	74.206897	0.000000	-1.000000	-1.000000	660509.000000	1773688877.758038
-7225.200000	30121.920000	35107.245000	4845.645000	-12224.475000	16882.110000	-10020.420000	-27724.365000	22.194483	23.775918	17.597108	6.413440	-8.753185	14.333254	10.246865	18.951488	-3.113040	4.715340	-2.151660	0.821958	0.532347	0.156982	-1.000000	-1.000000	-1.000000	-1.000000	-1.000000	-1.000000	-1.000000	74.206897	0.000000	-1.000000	-1.000000	660510.000000	1773688877.758077
-7210.080000	30139.245000	35122.770000	4852.485000	-12218.985000	16889.715000	-10014.750000	-27714.420000	6.196355	6.514389	1.883648	-11.905958	-26.836767	2.776056	8.030552	18.175926	-2.945180	4.349100	-2.426340	0.820249	0.537108	0.156860	-1.000000	-1.000000	-1.000000	-1.000000	-1.000000	-1.000000	-1.000000	74.206897	0.000000	-1.000000	-1.000000	660511.000000	1773688877.761343
-7200.360000	30146.760000	35128.170000	4861.080000	-12215.925000	16889.535000	-10017.090000	-27710.055000	-3.757642	-4.673367	-7.155241	-19.782548	-32.112733	-5.248501	3.160930	14.342926	-2.945180	4.349100	-2.426340	0.820249	0.537108	0.156860	-1.000000	-1.000000	-1.000000	-1.000000	-1.000000	-1.000000	-1.000000	74.206897	0.000000	-1.000000	-1.000000	660512.000000	1773688877.761361
-7190.055000	30156.570000	35139.105000	4880.160000	-12203.100000	16895.205000	-10011.330000	-27702.585000	-6.180013	-8.793589	-10.325220	-19.480512	-28.840316	-8.430864	-1.753766	10.504658	-2.945180	4.349100	-2.426340	0.820249	0.537108	0.156860	-1.000000	-1.000000	-1.000000	-1.000000	-1.000000	-1.000000	-1.000000	74.206897	0.000000	-1.000000	-1.000000	660513.000000	1773688877.765052
-7190.955000	30153.870000	35136.090000	4873.815000	-12209.175000	16892.010000	-10014.300000	-27705.780000	-4.760492	-8.585644	-9.905802	-14.598825	-20.013995	-7.652409	-4.457419	5.564399	-2.945180	4.349100	-2.426340	0.820249	0.537108	0.156860	-1.000000	-1.000000	-1.000000	-1.000000	-1.000000	-1.000000	-1.000000	74.206897	0.000000	-1.000000	-1.000000	660514.000000	1773688877.765068
-7190.325000	30152.520000	35135.730000	4874.175000	-12207.330000	16896.060000	-10012.905000	-27705.465000	-3.063346	-6.331369	-6.814389	-6.344860	-5.802257	-3.801167	-4.337590	-0.449581	-2.945180	4.349100	-2.426340	0.820249	0.537108	0.156860	-1.000000	-1.000000	-1.000000	-1.000000	-1.000000	-1.000000	-1.000000	74.206897	0.000000	-1.000000	-1.000000	660515.000000	1773688877.772063
-7186.455000	30158.595000	35143.425000	4881.555000	-12201.210000	16902.000000	-10007.865000	-27702.225000	-2.868296	-3.794139	-2.323533	3.809334	10.948955	1.189580	-2.538693	-6.035006	-2.945180	4.349100	-2.426340	0.820249	0.537108	0.156860	-1.000000	-1.000000	-1.000000	-1.000000	-1.000000	-1.000000	-1.000000	74.206897	0.000000	-1.000000	-1.000000	660516.000000	1773688877.772074
-7189.290000	30158.505000	35142.840000	4878.045000	-12206.790000	16898.220000	-10010.880000	-27707.175000	-3.930130	-2.195874	1.545901	12.436641	24.286812	4.415875	-0.535908	-10.149585	-2.945180	4.349100	-2.426340	0.820249	0.537108	0.156860	-1.000000	-1.000000	-1.000000	-1.000000	-1.000000	-1.000000	-1.000000	74.206897	0.000000	-1.000000	-1.000000	660517.000000	1773688877.772628
-7191.225000	30156.705000	35138.745000	4871.205000	-12214.170000	16893.675000	-10013.715000	-27713.970000	-4.411195	-1.200643	3.789287	16.436677	29.797717	4.529278	1.024057	-12.490601	-2.945180	4.349100	-2.426340	0.820249	0.537108	0.156860	-1.000000	-1.000000	-1.000000	-1.000000	-1.000000	-1.000000	-1.000000	74.206897	0.000000	-1.000000	-1.000000	660518.000000	1773688877.772685
-7188.390000	30161.835000	35142.705000	4876.335000	-12207.960000	16897.995000	-10009.890000	-27710.730000	-3.101423	-0.158722	4.157080	14.558926	26.137766	2.314720	1.653570	-12.312348	-2.945180	4.349100	-2.426340	0.820249	0.537108	0.156860	-1.000000	-1.000000	-1.000000	-1.000000	-1.000000	-1.000000	-1.000000	74.206897	0.000000	-1.000000	-1.000000	660519.000000	1773688877.775951
-7186.005000	30163.005000	35144.370000	4878.405000	-12204.945000	16899.930000	-10004.940000	-27699.120000	-0.949867	0.227058	2.056492	7.266935	14.160214	-0.781967	0.905497	-8.287498	-2.945180	4.349100	-2.426340	0.820249	0.537108	0.156860	-1.000000	-1.000000	-1.000000	-1.000000	-1.000000	-1.000000	-1.000000	74.206897	0.000000	-1.000000	-1.000000	660520.000000	1773688877.775962
-7183.845000	30164.985000	35146.620000	4879.305000	-12204.135000	16902.360000	-10005.480000	-27697.950000	0.187742	-0.939023	-2.267008	-3.219412	-2.695590	-3.428650	-0.605425	-1.115578	-5.447820	2.929920	-1.785420	0.820127	0.535277	0.156921	-1.000000	-1.000000	-1.000000	-1.000000	-1.000000	-1.000000	-1.000000	74.206897	0.000000	-1.000000	-1.000000	660521.000000	1773688877.795003
-7180.785000	30164.985000	35146.215000	4879.755000	-12202.290000	16906.545000	-10005.750000	-27698.220000	-0.303581	-2.989650	-6.624558	-13.051330	-18.160648	-4.514244	-1.717706	5.758041	-5.447820	2.929920	-1.785420	0.820127	0.535277	0.156921	-1.000000	-1.000000	-1.000000	-1.000000	-1.000000	-1.000000	-1.000000	74.206897	0.000000	-1.000000	-1.000000	660522.000000	1773688877.795019
-7171.470000	30171.960000	35152.020000	4880.430000	-12208.590000	16900.605000	-10010.205000	-27695.880000	-1.121570	-3.825764	-7.961457	-17.509681	-25.376154	-3.402861	-1.861500	9.343710	-5.447820	2.929920	-1.785420	0.820127	0.535277	0.156921	-1.000000	-1.000000	-1.000000	-1.000000	-1.000000	-1.000000	-1.000000	74.206897	0.000000	-1.000000	-1.000000	660523.000000	1773688877.795374
-7141.590000	30212.280000	35194.050000	4918.365000	-12179.610000	16917.255000	-9991.980000	-27697.545000	-0.294679	-1.456887	-4.324798	-13.392359	-21.137908	-0.570386	-1.018181	8.997915	-5.447820	2.929920	-1.785420	0.820127	0.535277	0.156921	-1.000000	-1.000000	-1.000000	-1.000000	-1.000000	-1.000000	-1.000000	74.206897	0.000000	-1.000000	-1.000000	660524.000000	1773688877.795386
-7106.445000	30269.295000	35256.015000	4976.505000	-12127.815000	16947.630000	-9973.125000	-27714.690000	3.195236	4.673571	4.090796	-1.305490	-7.418495	2.858493	0.846147	5.352324	-5.447820	2.929920	-1.785420	0.820127	0.535277	0.156921	-1.000000	-1.000000	-1.000000	-1.000000	-1.000000	-1.000000	-1.000000	74.206897	0.000000	-1.000000	-1.000000	660525.000000	1773688877.795398
-7130.160000	30236.445000	35217.360000	4937.265000	-12170.745000	16928.415000	-10001.385000	-27690.930000	7.966320	12.140089	13.815118	13.458854	9.655193	5.853644	3.185593	0.057403	-5.447820	2.929920	-1.785420	0.820127	0.535277	0.156921	-1.000000	-1.000000	-1.000000	-1.000000	-1.000000	-1.000000	-1.000000	74.206897	0.000000	-1.000000	-1.000000	660526.000000	1773688877.795403
-7119.090000	30237.480000	35216.820000	4950.360000	-12169.890000	16967.610000	-9943.155000	-27687.600000	10.127596	15.071418	17.920482	22.110328	20.931917	7.201318	4.695538	-3.752261	-5.447820	2.929920	-1.785420	0.820127	0.535277	0.156921	-1.000000	-1.000000	-1.000000	-1.000000	-1.000000	-1.000000	-1.000000	74.206897	0.000000	-1.000000	-1.000000	660527.000000	1773688877.795409
-7087.545000	30284.505000	35268.705000	5000.040000	-12090.690000	17031.960000	-9884.025000	-27642.600000	7.227581	9.776463	12.259197	19.322631	20.740967	7.061270	5.814848	-3.299539	-5.447820	2.929920	-1.785420	0.820127	0.535277	0.156921	-1.000000	-1.000000	-1.000000	-1.000000	-1.000000	-1.000000	-1.000000	74.206897	0.000000	-1.000000	-1.000000	660528.000000	1773688877.795414
-7142.130000	30181.815000	35161.335000	4890.510000	-12198.780000	16902.090000	-9994.410000	-27469.980000	0.312359	-1.753092	-0.700596	6.671653	10.727790	5.149243	6.308068	3.299156	-5.447820	2.929920	-1.785420	0.820127	0.535277	0.156921	-1.000000	-1.000000	-1.000000	-1.000000	-1.000000	-1.000000	-1.000000	74.206897	0.000000	-1.000000	-1.000000	660529.000000	1773688877.796970
-7233.705000	30047.985000	35018.010000	4745.970000	-12337.515000	16778.250000	-10112.715000	-27564.255000	-9.890208	-17.569741	-18.322031	-13.658594	-7.237435	-3.906874	0.156607	14.481774	-5.447820	2.929920	-1.785420	0.820127	0.535277	0.156921	-1.000000	-1.000000	-1.000000	-1.000000	-1.000000	-1.000000	-1.000000	74.206897	0.000000	-1.000000	-1.000000	660530.000000	1773688877.796979
-7218.090000	30102.435000	35081.550000	4809.150000	-12260.385000	16865.685000	-10047.735000	-27750.285000	-21.829203	-34.047458	-36.332738	-36.296529	-28.846116	-20.875323	-15.019397	17.775169	-3.570840	3.799740	-1.617560	0.819029	0.536498	0.158325	-1.000000	-1.000000	-1.000000	-1.000000	-1.000000	-1.000000	-1.000000	74.206897	0.000000	-1.000000	-1.000000	660531.000000	1773688877.810978
-7233.345000	30093.480000	35073.720000	4800.600000	-12255.255000	16855.830000	-10017.315000	-27764.010000	-28.678246	-39.846377	-42.436923	-46.464654	-39.751293	-32.199525	-27.286935	-0.100247	-3.570840	3.799740	-1.617560	0.819029	0.536498	0.158325	-1.000000	-1.000000	-1.000000	-1.000000	-1.000000	-1.000000	-1.000000	74.206897	0.000000	-1.000000	-1.000000	660532.000000	1773688877.810991
-7259.265000	30071.610000	35052.525000	4787.910000	-12272.490000	16831.845000	-10029.915000	-27764.415000	-24.292632	-27.172404	-28.466359	-33.823018	-29.251410	-25.825791	-23.494511	-30.897033	-3.570840	3.799740	-1.617560	0.819029	0.536498	0.158325	-1.000000	-1.000000	-1.000000	-1.000000	-1.000000	-1.000000	-1.000000	74.206897	0.000000	-1.000000	-1.000000	660533.000000	1773688877.811007
-7262.460000	30069.720000	35053.605000	4800.285000	-12279.465000	16833.555000	-10036.215000	-27744.075000	-10.178847	-2.391846	-1.678455	-5.012623	-3.996580	-5.856641	-5.369353	-49.751075	-3.570840	3.799740	-1.617560	0.819029	0.536498	0.158325	-1.000000	-1.000000	-1.000000	-1.000000	-1.000000	-1.000000	-1.000000	74.206897	0.000000	-1.000000	-1.000000	660534.000000	1773688877.811013
-7234.155000	30098.880000	35085.195000	4834.305000	-12241.665000	16861.680000	-10027.350000	-27734.265000	8.341692	22.948360	25.289168	25.973197	22.139595	16.132143	15.230680	-40.817426	-3.570840	3.799740	-1.617560	0.819029	0.536498	0.158325	-1.000000	-1.000000	-1.000000	-1.000000	-1.000000	-1.000000	-1.000000	74.206897	0.000000	-1.000000	-1.000000	660535.000000	1773688877.811018
-7232.580000	30102.480000	35087.085000	4831.470000	-12242.700000	16858.035000	-10036.215000	-27733.950000	25.683622	40.592510	43.572458	47.356692	39.011759	30.585849	26.777051	-9.237912	-3.570840	3.799740	-1.617560	0.819029	0.536498	0.158325	-1.000000	-1.000000	-1.000000	-1.000000	-1.000000	-1.000000	-1.000000	74.206897	0.000000	-1.000000	-1.000000	660536.000000	1773688877.811023
-7231.005000	30112.965000	35094.375000	4830.795000	-12250.080000	16855.110000	-10036.080000	-27727.965000	35.352205	45.168411	47.405673	50.955891	40.306265	31.992319	23.991838	25.032174	-3.570840	3.799740	-1.617560	0.819029	0.536498	0.158325	-1.000000	-1.000000	-1.000000	-1.000000	-1.000000	-1.000000	-1.000000	74.206897	0.000000	-1.000000	-1.000000	660537.000000	1773688877.811854
-7213.680000	30130.875000	35112.330000	4847.760000	-12231.495000	16874.190000	-10022.355000	-27717.255000	34.192695	37.480610	37.820513	37.952343	27.748361	23.603221	12.890144	42.009235	-3.570840	3.799740	-1.617560	0.819029	0.536498	0.158325	-1.000000	-1.000000	-1.000000	-1.000000	-1.000000	-1.000000	-1.000000	74.206897	0.000000	-1.000000	-1.000000	660538.000000	1773688877.811872
-7205.895000	30134.430000	35117.010000	4853.835000	-12223.800000	16880.535000	-10022.715000	-27716.130000	25.600490	24.696753	23.132066	19.156290	12.044278	14.860568	5.194579	38.112190	-3.570840	3.799740	-1.617560	0.819029	0.536498	0.158325	-1.000000	-1.000000	-1.000000	-1.000000	-1.000000	-1.000000	-1.000000	74.206897	0.000000	-1.000000	-1.000000	660539.000000	1773688877.815905
-7197.570000	30142.260000	35124.840000	4859.505000	-12220.110000	16883.550000	-10024.965000	-27711.720000	13.791738	10.761864	8.287361	2.321763	0.131951	8.473625	3.598363	26.698968	-3.570840	3.799740	-1.617560	0.819029	0.536498	0.158325	-1.000000	-1.000000	-1.000000	-1.000000	-1.000000	-1.000000	-1.000000	74.206897	0.000000	-1.000000	-1.000000	660540.000000	1773688877.815915
-7188.165000	30154.545000	35137.170000	4869.540000	-12212.145000	16891.155000	-10017.450000	-27705.465000	0.234444	-5.372854	-7.705908	-12.473827	-9.722703	-0.053420	1.163930	18.826221	-1.922760	6.226080	-1.724380	0.825132	0.535948	0.155151	-1.000000	-1.000000	-1.000000	-1.000000	-1.000000	-1.000000	-1.000000	74.206897	0.000000	-1.000000	-1.000000	660541.000000	1773688877.819896
-7185.645000	30158.955000	35140.185000	4869.495000	-12214.125000	16888.005000	-10015.065000	-27704.520000	-13.038330	-21.897067	-23.490213	-25.066760	-18.761954	-11.449219	-5.736643	12.527482	-1.922760	6.226080	-1.724380	0.825132	0.535948	0.155151	-1.000000	-1.000000	-1.000000	-1.000000	-1.000000	-1.000000	-1.000000	74.206897	0.000000	-1.000000	-1.000000	660542.000000	1773688877.819906
-7191.720000	30154.635000	35136.405000	4868.145000	-12215.790000	16885.080000	-10016.415000	-27708.390000	-22.758149	-33.348911	-34.046562	-32.573841	-24.299252	-21.353304	-13.307437	1.639320	-1.922760	6.226080	-1.724380	0.825132	0.535948	0.155151	-1.000000	-1.000000	-1.000000	-1.000000	-1.000000	-1.000000	-1.000000	74.206897	0.000000	-1.000000	-1.000000	660543.000000	1773688877.824968
-7200.225000	30146.805000	35128.215000	4864.185000	-12215.880000	16890.615000	-10014.300000	-27712.350000	-27.157145	-36.092191	-35.986499	-32.862445	-24.171110	-26.004243	-16.876204	-14.274860	-1.922760	6.226080	-1.724380	0.825132	0.535948	0.155151	-1.000000	-1.000000	-1.000000	-1.000000	-1.000000	-1.000000	-1.000000	74.206897	0.000000	-1.000000	-1.000000	660544.000000	1773688877.824980
-7197.615000	30147.975000	35128.305000	4863.645000	-12217.590000	16891.020000	-10013.670000	-27711.495000	-26.209622	-30.467167	-29.736123	-26.173380	-19.035195	-24.150059	-15.248686	-29.271300	-1.922760	6.226080	-1.724380	0.825132	0.535948	0.155151	-1.000000	-1.000000	-1.000000	-1.000000	-1.000000	-1.000000	-1.000000	74.206897	0.000000	-1.000000	-1.000000	660545.000000	1773688877.828136
-7193.700000	30150.945000	35130.960000	4865.445000	-12216.330000	16890.345000	-10016.145000	-27709.875000	-19.871497	-18.573344	-17.419812	-13.959953	-10.387645	-15.870756	-9.323438	-36.779079	-1.922760	6.226080	-1.724380	0.825132	0.535948	0.155151	-1.000000	-1.000000	-1.000000	-1.000000	-1.000000	-1.000000	-1.000000	74.206897	0.000000	-1.000000	-1.000000	660546.000000	1773688877.828142
-7194.690000	30148.650000	35129.520000	4866.165000	-12215.160000	16888.410000	-10020.915000	-27712.350000	-8.580771	-2.775252	-1.380043	1.631115	0.723989	-2.722046	-0.563399	-33.499086	-1.922760	6.226080	-1.724380	0.825132	0.535948	0.155151	-1.000000	-1.000000	-1.000000	-1.000000	-1.000000	-1.000000	-1.000000	74.206897	0.000000	-1.000000	-1.000000	660547.000000	1773688877.831911
-7190.685000	30151.620000	35134.245000	4869.585000	-12213.090000	16891.335000	-10020.240000	-27711.405000	4.607066	12.693505	14.110761	16.158689	11.485643	10.563551	7.949036	-18.945824	-1.922760	6.226080	-1.724380	0.825132	0.535948	0.155151	-1.000000	-1.000000	-1.000000	-1.000000	-1.000000	-1.000000	-1.000000	74.206897	0.000000	-1.000000	-1.000000	660548.000000	1773688877.831922
-7181.505000	30163.185000	35145.810000	4878.180000	-12208.815000	16896.195000	-10016.505000	-27707.895000	14.803315	22.210507	23.315569	23.888474	17.302751	18.011155	12.151123	2.914955	-1.922760	6.226080	-1.724380	0.825132	0.535948	0.155151	-1.000000	-1.000000	-1.000000	-1.000000	-1.000000	-1.000000	-1.000000	74.206897	0.000000	-1.000000	-1.000000	660549.000000	1773688877.839018
-7170.660000	30179.385000	35161.290000	4890.060000	-12200.715000	16902.135000	-10019.385000	-27716.850000	18.779650	22.988867	23.446639	22.330221	16.043308	17.379111	10.347582	22.620915	-1.922760	6.226080	-1.724380	0.825132	0.535948	0.155151	-1.000000	-1.000000	-1.000000	-1.000000	-1.000000	-1.000000	-1.000000	74.206897	0.000000	-1.000000	-1.000000	660550.000000	1773688877.839031
-7159.545000	30199.050000	35179.335000	4907.385000	-12185.820000	16899.030000	-10013.400000	-27732.105000	16.726447	17.037497	16.682114	14.101712	10.051438	11.082766	4.615018	30.700312	-1.892240	4.440660	-1.022420	0.822630	0.529906	0.154907	-1.000000	-1.000000	-1.000000	-1.000000	-1.000000	-1.000000	-1.000000	74.206897	0.000000	-1.000000	-1.000000	660551.000000	1773688877.840168
-7160.490000	30197.070000	35177.220000	4903.470000	-12195.495000	16872.210000	-9995.175000	-27719.190000	10.930100	8.590831	7.513265	4.093278	3.254058	2.619122	-0.986556	24.595263	-1.892240	4.440660	-1.022420	0.822630	0.529906	0.154907	-1.000000	-1.000000	-1.000000	-1.000000	-1.000000	-1.000000	-1.000000	74.206897	0.000000	-1.000000	-1.000000	660552.000000	1773688877.840178
-7162.695000	30187.305000	35167.095000	4895.010000	-12201.120000	16902.540000	-9982.935000	-27705.285000	3.703934	0.540681	-0.888912	-4.254773	-2.380260	-5.265364	-3.326567	10.194443	-1.892240	4.440660	-1.022420	0.822630	0.529906	0.154907	-1.000000	-1.000000	-1.000000	-1.000000	-1.000000	-1.000000	-1.000000	74.206897	0.000000	-1.000000	-1.000000	660553.000000	1773688877.843973
-7160.040000	30192.345000	35173.575000	4905.810000	-12181.995000	16936.830000	-9972.225000	-27684.180000	-3.170239	-6.072261	-7.276148	-9.456308	-6.200535	-8.947201	-1.955208	-3.427650	-1.892240	4.440660	-1.022420	0.822630	0.529906	0.154907	-1.000000	-1.000000	-1.000000	-1.000000	-1.000000	-1.000000	-1.000000	74.206897	0.000000	-1.000000	-1.000000	660554.000000	1773688877.843984
-7182.270000	30165.660000	35147.160000	4884.345000	-12197.340000	16914.015000	-9997.425000	-27681.885000	-8.262062	-10.416418	-10.839986	-10.741396	-7.061900	-5.832146	1.105497	-10.553508	-1.892240	4.440660	-1.022420	0.822630	0.529906	0.154907	-1.000000	-1.000000	-1.000000	-1.000000	-1.000000	-1.000000	-1.000000	74.206897	0.000000	-1.000000	-1.000000	660555.000000	1773688877.848024
-7208.280000	30128.940000	35107.785000	4843.260000	-12240.720000	16876.935000	-10023.660000	-27684.900000	-11.151991	-12.350495	-11.866924	-9.249345	-5.661653	0.520648	2.334932	-10.406390	-1.892240	4.440660	-1.022420	0.822630	0.529906	0.154907	-1.000000	-1.000000	-1.000000	-1.000000	-1.000000	-1.000000	-1.000000	74.206897	0.000000	-1.000000	-1.000000	660556.000000	1773688877.848034
-7192.485000	30147.705000	35124.030000	4854.870000	-12234.330000	16889.310000	-10010.385000	-27690.120000	-11.920206	-12.480704	-11.627513	-7.645071	-4.953856	3.299689	-0.471314	-5.661366	-1.892240	4.440660	-1.022420	0.822630	0.529906	0.154907	-1.000000	-1.000000	-1.000000	-1.000000	-1.000000	-1.000000	-1.000000	74.206897	0.000000	-1.000000	-1.000000	660557.000000	1773688877.852142
-7167.015000	30180.105000	35158.860000	4886.910000	-12219.795000	16897.185000	-10037.565000	-27695.745000	-9.436072	-9.753694	-9.287538	-5.912633	-5.317959	0.816307	-5.633944	-0.651105	-1.892240	4.440660	-1.022420	0.822630	0.529906	0.154907	-1.000000	-1.000000	-1.000000	-1.000000	-1.000000	-1.000000	-1.000000	74.206897	0.000000	-1.000000	-1.000000	660558.000000	1773688877.852152
-7117.425000	30204.360000	35182.620000	4903.650000	-12195.540000	16931.205000	-10019.925000	-27531.180000	-2.253107	-2.571257	-2.725157	-1.567896	-3.765554	-2.574356	-9.320827	3.674938	-1.892240	4.440660	-1.022420	0.822630	0.529906	0.154907	-1.000000	-1.000000	-1.000000	-1.000000	-1.000000	-1.000000	-1.000000	74.206897	0.000000	-1.000000	-1.000000	660559.000000	1773688877.856152
-7018.155000	30316.680000	35299.530000	5023.935000	-12049.695000	17060.985000	-9935.370000	-27407.880000	9.490671	8.659292	8.334231	6.845511	3.167008	-0.574263	-7.512854	12.254598	-1.892240	4.440660	-1.022420	0.822630	0.529906	0.154907	-1.000000	-1.000000	-1.000000	-1.000000	-1.000000	-1.000000	-1.000000	74.206897	0.000000	-1.000000	-1.000000	660560.000000	1773688877.856162
-7114.545000	30242.160000	35226.135000	4963.095000	-12104.820000	17000.280000	-9938.295000	-27665.595000	21.252356	20.329643	20.505137	17.471359	15.549328	8.854439	1.391001	21.922003	-5.249440	4.501700	-1.953280	0.821897	0.536437	0.155578	-1.000000	-1.000000	-1.000000	-1.000000	-1.000000	-1.000000	-1.000000	74.206897	0.000000	-1.000000	-1.000000	660561.000000	1773688877.860105
-7272.090000	30058.290000	35037.810000	4770.045000	-12304.170000	16819.605000	-10010.250000	-27835.965000	21.209647	22.049525	22.952154	20.444501	22.359445	14.641697	11.283672	13.000516	-5.249440	4.501700	-1.953280	0.821897	0.536437	0.155578	-1.000000	-1.000000	-1.000000	-1.000000	-1.000000	-1.000000	-1.000000	74.206897	0.000000	-1.000000	-1.000000	660562.000000	1773688877.860116
-7306.650000	30008.745000	34987.005000	4718.610000	-12350.250000	16764.480000	-10052.505000	-27796.005000	0.924421	3.983471	5.042981	4.393479	8.616542	1.441682	11.883145	-22.947725	-5.249440	4.501700	-1.953280	0.821897	0.536437	0.155578	-1.000000	-1.000000	-1.000000	-1.000000	-1.000000	-1.000000	-1.000000	74.206897	0.000000	-1.000000	-1.000000	660563.000000	1773688877.863936
-7285.320000	30050.730000	35031.960000	4778.865000	-12295.170000	16801.695000	-10059.570000	-27745.740000	-28.293183	-24.812247	-24.429772	-23.406431	-20.537931	-25.719478	1.362715	-60.248662	-5.249440	4.501700	-1.953280	0.821897	0.536437	0.155578	-1.000000	-1.000000	-1.000000	-1.000000	-1.000000	-1.000000	-1.000000	74.206897	0.000000	-1.000000	-1.000000	660564.000000	1773688877.863942
-7264.170000	30068.235000	35049.960000	4798.485000	-12276.405000	16825.725000	-10056.915000	-27742.860000	-42.628665	-39.987045	-40.500696	-38.461264	-39.564137	-41.992265	-10.959512	-64.738667	-5.249440	4.501700	-1.953280	0.821897	0.536437	0.155578	-1.000000	-1.000000	-1.000000	-1.000000	-1.000000	-1.000000	-1.000000	74.206897	0.000000	-1.000000	-1.000000	660565.000000	1773688877.868036
-7241.355000	30091.770000	35073.045000	4814.505000	-12261.465000	16843.860000	-10045.710000	-27741.240000	-29.785001	-27.978982	-28.902040	-26.437058	-31.216998	-30.682650	-15.020724	-29.510427	-5.249440	4.501700	-1.953280	0.821897	0.536437	0.155578	-1.000000	-1.000000	-1.000000	-1.000000	-1.000000	-1.000000	-1.000000	74.206897	0.000000	-1.000000	-1.000000	660566.000000	1773688877.868047
-7229.295000	30109.095000	35089.875000	4827.735000	-12252.015000	16855.335000	-10033.650000	-27729.855000	1.313087	2.233238	1.461921	3.374117	-2.262942	1.387856	-8.068184	22.567447	-5.249440	4.501700	-1.953280	0.821897	0.536437	0.155578	-1.000000	-1.000000	-1.000000	-1.000000	-1.000000	-1.000000	-1.000000	74.206897	0.000000	-1.000000	-1.000000	660567.000000	1773688877.875784
-7222.815000	30118.455000	35100.360000	4837.995000	-12240.855000	16866.315000	-10029.915000	-27726.390000	30.150600	30.206728	29.793326	30.081048	26.496170	32.928643	4.585749	58.931518	-5.249440	4.501700	-1.953280	0.821897	0.536437	0.155578	-1.000000	-1.000000	-1.000000	-1.000000	-1.000000	-1.000000	-1.000000	74.206897	0.000000	-1.000000	-1.000000	660568.000000	1773688877.875794
-7218.495000	30126.600000	35108.280000	4843.170000	-12238.650000	16866.135000	-10027.710000	-27725.085000	40.415715	39.824432	39.659526	37.873525	37.012872	45.022581	13.281848	61.101420	-5.249440	4.501700	-1.953280	0.821897	0.536437	0.155578	-1.000000	-1.000000	-1.000000	-1.000000	-1.000000	-1.000000	-1.000000	74.206897	0.000000	-1.000000	-1.000000	660569.000000	1773688877.876089
-7208.865000	30138.120000	35119.440000	4853.205000	-12230.190000	16873.065000	-10022.625000	-27718.290000	32.123369	30.713583	30.601702	27.021914	27.559501	35.016264	12.686705	39.367881	-5.249440	4.501700	-1.953280	0.821897	0.536437	0.155578	-1.000000	-1.000000	-1.000000	-1.000000	-1.000000	-1.000000	-1.000000	74.206897	0.000000	-1.000000	-1.000000	660570.000000	1773688877.876099
-7206.435000	30140.055000	35122.095000	4854.420000	-12228.345000	16876.665000	-10023.615000	-27718.965000	18.708897	16.653116	16.587694	12.240493	12.881849	16.957198	6.962859	18.157700	-3.311420	4.318580	-2.289000	0.826414	0.534178	0.152954	-1.000000	-1.000000	-1.000000	-1.000000	-1.000000	-1.000000	-1.000000	74.206897	0.000000	-1.000000	-1.000000	660571.000000	1773688877.880124
-7196.265000	30151.170000	35134.920000	4865.895000	-12217.230000	16887.195000	-10019.925000	-27712.440000	10.141398	8.568248	8.767172	5.193634	5.779557	4.797732	3.308534	7.011242	-3.311420	4.318580	-2.289000	0.826414	0.534178	0.152954	-1.000000	-1.000000	-1.000000	-1.000000	-1.000000	-1.000000	-1.000000	74.206897	0.000000	-1.000000	-1.000000	660572.000000	1773688877.880136
-7188.615000	30158.010000	35141.760000	4873.455000	-12209.850000	16895.790000	-10017.540000	-27707.355000	4.480562	4.099070	4.679231	2.996852	4.092558	-0.661360	3.570904	-1.758324	-3.311420	4.318580	-2.289000	0.826414	0.534178	0.152954	-1.000000	-1.000000	-1.000000	-1.000000	-1.000000	-1.000000	-1.000000	74.206897	0.000000	-1.000000	-1.000000	660573.000000	1773688877.884011
-7189.290000	30154.140000	35135.910000	4867.785000	-12213.720000	16892.505000	-10019.160000	-27707.490000	-4.329292	-4.231571	-3.503798	-3.027632	-0.848122	-6.313112	4.121415	-14.249690	-3.311420	4.318580	-2.289000	0.826414	0.534178	0.152954	-1.000000	-1.000000	-1.000000	-1.000000	-1.000000	-1.000000	-1.000000	74.206897	0.000000	-1.000000	-1.000000	660574.000000	1773688877.884024
-7191.225000	30151.485000	35132.085000	4863.420000	-12217.410000	16888.950000	-10021.635000	-27709.290000	-17.530479	-18.197470	-17.774998	-15.257158	-11.850234	-15.696029	1.130436	-27.225469	-3.311420	4.318580	-2.289000	0.826414	0.534178	0.152954	-1.000000	-1.000000	-1.000000	-1.000000	-1.000000	-1.000000	-1.000000	74.206897	0.000000	-1.000000	-1.000000	660575.000000	1773688877.896613
-7182.000000	30166.155000	35149.815000	4878.720000	-12208.230000	16895.295000	-10018.215000	-27703.305000	-30.254974	-32.120737	-32.284022	-28.128512	-24.131620	-25.759040	-5.505781	-34.736768	-3.311420	4.318580	-2.289000	0.826414	0.534178	0.152954	-1.000000	-1.000000	-1.000000	-1.000000	-1.000000	-1.000000	-1.000000	74.206897	0.000000	-1.000000	-1.000000	660576.000000	1773688877.896626
-7180.470000	30171.105000	35156.655000	4884.795000	-12205.305000	16900.200000	-10013.625000	-27701.775000	-35.728525	-37.974671	-38.547345	-33.824096	-30.844660	-30.784180	-12.651113	-34.011595	-3.311420	4.318580	-2.289000	0.826414	0.534178	0.152954	-1.000000	-1.000000	-1.000000	-1.000000	-1.000000	-1.000000	-1.000000	74.206897	0.000000	-1.000000	-1.000000	660577.000000	1773688877.896640
-7192.710000	30152.160000	35134.650000	4872.060000	-12207.690000	16900.830000	-10013.040000	-27708.030000	-30.009813	-31.518066	-32.074337	-28.247025	-27.879430	-26.771732	-16.466656	-24.173951	-3.311420	4.318580	-2.289000	0.826414	0.534178	0.152954	-1.000000	-1.000000	-1.000000	-1.000000	-1.000000	-1.000000	-1.000000	74.206897	0.000000	-1.000000	-1.000000	660578.000000	1773688877.896646
-7196.130000	30143.655000	35123.130000	4863.600000	-12212.820000	16885.935000	-10010.925000	-27707.580000	-13.839579	-14.245315	-14.575465	-12.526240	-14.691520	-13.226386	-14.175767	-5.684964	-3.311420	4.318580	-2.289000	0.826414	0.534178	0.152954	-1.000000	-1.000000	-1.000000	-1.000000	-1.000000	-1.000000	-1.000000	74.206897	0.000000	-1.000000	-1.000000	660579.000000	1773688877.896652
-7191.765000	30148.470000	35129.430000	4864.185000	-12220.245000	16858.485000	-10006.470000	-27703.755000	7.264254	7.825573	7.621080	7.857198	4.710340	5.210170	-5.628596	15.615479	-3.311420	4.318580	-2.289000	0.826414	0.534178	0.152954	-1.000000	-1.000000	-1.000000	-1.000000	-1.000000	-1.000000	-1.000000	74.206897	0.000000	-1.000000	-1.000000	660580.000000	1773688877.896657
-7193.340000	30146.760000	35128.215000	4863.555000	-12220.290000	16861.590000	-10009.260000	-27706.995000	24.522511	25.903974	25.706718	24.268864	21.468943	19.774289	5.640294	29.479345	-2.044840	3.952340	-3.036740	0.820860	0.534178	0.155090	-1.000000	-1.000000	-1.000000	-1.000000	-1.000000	-1.000000	-1.000000	74.206897	0.000000	-1.000000	-1.000000	660581.000000	1773688877.899808
-7193.610000	30146.130000	35128.800000	4863.285000	-12233.205000	16878.780000	-10013.940000	-27709.245000	30.465178	32.410532	32.300450	29.342544	27.251998	24.225684	13.924289	29.275406	-2.044840	3.952340	-3.036740	0.820860	0.534178	0.155090	-1.000000	-1.000000	-1.000000	-1.000000	-1.000000	-1.000000	-1.000000	74.206897	0.000000	-1.000000	-1.000000	660582.000000	1773688877.899822
-7190.730000	30149.280000	35131.680000	4864.410000	-12230.325000	16898.490000	-10010.835000	-27707.040000	23.683687	25.801066	26.007960	22.186160	20.563711	19.575960	15.211786	17.044198	-2.044840	3.952340	-3.036740	0.820860	0.534178	0.155090	-1.000000	-1.000000	-1.000000	-1.000000	-1.000000	-1.000000	-1.000000	74.206897	0.000000	-1.000000	-1.000000	660583.000000	1773688877.904404
-7190.370000	30154.455000	35137.260000	4869.720000	-12208.545000	16899.300000	-10011.465000	-27710.505000	9.190368	11.098468	11.747122	8.264550	7.279019	11.032300	9.844204	0.630524	-2.044840	3.952340	-3.036740	0.820860	0.534178	0.155090	-1.000000	-1.000000	-1.000000	-1.000000	-1.000000	-1.000000	-1.000000	74.206897	0.000000	-1.000000	-1.000000	660584.000000	1773688877.904416
-7187.220000	30157.920000	35140.005000	4874.040000	-12204.045000	16899.255000	-10000.980000	-27703.980000	-5.569961	-4.222345	-3.371915	-5.292110	-4.507916	2.486248	1.447090	-12.458750	-2.044840	3.952340	-3.036740	0.820860	0.534178	0.155090	-1.000000	-1.000000	-1.000000	-1.000000	-1.000000	-1.000000	-1.000000	74.206897	0.000000	-1.000000	-1.000000	660585.000000	1773688877.907886
-7189.830000	30155.715000	35136.855000	4868.415000	-12214.620000	16900.695000	-10005.660000	-27716.085000	-14.642287	-14.221666	-13.692735	-13.527385	-10.349564	-4.592635	-5.881209	-17.916336	-2.044840	3.952340	-3.036740	0.820860	0.534178	0.155090	-1.000000	-1.000000	-1.000000	-1.000000	-1.000000	-1.000000	-1.000000	74.206897	0.000000	-1.000000	-1.000000	660586.000000	1773688877.907897
-7172.145000	30186.225000	35169.030000	4895.775000	-12185.235000	16927.335000	-10011.285000	-27758.340000	-14.866889	-15.301219	-15.394092	-13.863436	-9.720948	-8.446949	-9.489969	-15.080428	-2.044840	3.952340	-3.036740	0.820860	0.534178	0.155090	-1.000000	-1.000000	-1.000000	-1.000000	-1.000000	-1.000000	-1.000000	74.206897	0.000000	-1.000000	-1.000000	660587.000000	1773688877.914594
-7151.265000	30223.305000	35210.295000	4934.430000	-12149.820000	16957.035000	-10003.095000	-27776.520000	-6.611417	-6.715128	-7.109638	-5.721556	-3.125828	-6.406195	-8.617314	-7.533819	-2.044840	3.952340	-3.036740	0.820860	0.534178	0.155090	-1.000000	-1.000000	-1.000000	-1.000000	-1.000000	-1.000000	-1.000000	74.206897	0.000000	-1.000000	-1.000000	660588.000000	1773688877.914608
-7170.930000	30178.170000	35163.405000	4889.610000	-12194.685000	16915.815000	-9998.775000	-27691.605000	4.947378	6.279297	6.172688	6.500072	6.114972	0.684122	-4.087433	0.690738	-2.044840	3.952340	-3.036740	0.820860	0.534178	0.155090	-1.000000	-1.000000	-1.000000	-1.000000	-1.000000	-1.000000	-1.000000	74.206897	0.000000	-1.000000	-1.000000	660589.000000	1773688877.919805
-7209.765000	30107.205000	35089.605000	4827.375000	-12261.015000	16856.730000	-10020.105000	-27609.480000	11.425683	12.643123	12.923926	12.705024	9.893544	5.323859	1.593994	10.095151	-2.044840	3.952340	-3.036740	0.820860	0.534178	0.155090	-1.000000	-1.000000	-1.000000	-1.000000	-1.000000	-1.000000	-1.000000	74.206897	0.000000	-1.000000	-1.000000	660590.000000	1773688877.919817
-7196.085000	30135.105000	35119.305000	4857.480000	-12239.775000	16882.020000	-10025.280000	-27656.955000	7.881185	5.651578	5.839677	6.470071	2.982530	0.628721	4.999287	20.373267	-4.913720	4.700080	-1.907500	0.820249	0.538329	0.158569	-1.000000	-1.000000	-1.000000	-1.000000	-1.000000	-1.000000	-1.000000	74.206897	0.000000	-1.000000	-1.000000	660591.000000	1773688877.919829
-7203.420000	30133.215000	35116.110000	4845.420000	-12234.825000	16875.765000	-10027.260000	-27704.070000	-2.270100	-8.628478	-8.948703	-6.751660	-9.234426	-10.250936	4.446191	23.577161	-4.913720	4.700080	-1.907500	0.820249	0.538329	0.158569	-1.000000	-1.000000	-1.000000	-1.000000	-1.000000	-1.000000	-1.000000	74.206897	0.000000	-1.000000	-1.000000	660592.000000	1773688877.919835
-7194.375000	30144.285000	35125.155000	4854.015000	-12213.990000	16882.335000	-10027.215000	-27676.260000	-11.105273	-18.225126	-19.049900	-16.249692	-16.618377	-17.722532	1.232581	12.754480	-4.913720	4.700080	-1.907500	0.820249	0.538329	0.158569	-1.000000	-1.000000	-1.000000	-1.000000	-1.000000	-1.000000	-1.000000	74.206897	0.000000	-1.000000	-1.000000	660593.000000	1773688877.923905
-7140.960000	30199.590000	35178.480000	4912.335000	-12159.990000	16926.390000	-10010.340000	-27649.080000	-12.386280	-16.030586	-17.113183	-15.427127	-13.359441	-15.098827	-1.901683	-6.441111	-4.913720	4.700080	-1.907500	0.820249	0.538329	0.158569	-1.000000	-1.000000	-1.000000	-1.000000	-1.000000	-1.000000	-1.000000	74.206897	0.000000	-1.000000	-1.000000	660594.000000	1773688877.923918
-7134.345000	30217.860000	35202.015000	4940.820000	-12142.755000	16951.185000	-9975.330000	-27737.595000	-4.403008	-2.499195	-3.424218	-3.625111	-0.218783	-2.227523	-2.100016	-21.600404	-4.913720	4.700080	-1.907500	0.820249	0.538329	0.158569	-1.000000	-1.000000	-1.000000	-1.000000	-1.000000	-1.000000	-1.000000	74.206897	0.000000	-1.000000	-1.000000	660595.000000	1773688877.927856
-7189.245000	30160.170000	35150.895000	4892.715000	-12186.540000	16914.060000	-9986.940000	-27735.705000	7.229295	13.722471	13.594385	12.178362	14.641805	13.673935	1.670207	-26.050087	-4.913720	4.700080	-1.907500	0.820249	0.538329	0.158569	-1.000000	-1.000000	-1.000000	-1.000000	-1.000000	-1.000000	-1.000000	74.206897	0.000000	-1.000000	-1.000000	660596.000000	1773688877.927868
-7257.825000	30062.835000	35046.180000	4782.420000	-12297.465000	16812.135000	-10045.980000	-27677.385000	11.618984	19.018476	20.061360	18.619242	18.520350	20.628953	5.526702	-19.675339	-4.913720	4.700080	-1.907500	0.820249	0.538329	0.158569	-1.000000	-1.000000	-1.000000	-1.000000	-1.000000	-1.000000	-1.000000	74.206897	0.000000	-1.000000	-1.000000	660597.000000	1773688877.932219
-7244.775000	30086.955000	35067.735000	4794.030000	-12292.965000	16821.405000	-10045.125000	-27683.730000	4.082437	8.345930	9.993752	8.837430	6.436781	12.672508	3.816696	-6.613985	-4.913720	4.700080	-1.907500	0.820249	0.538329	0.158569	-1.000000	-1.000000	-1.000000	-1.000000	-1.000000	-1.000000	-1.000000	74.206897	0.000000	-1.000000	-1.000000	660598.000000	1773688877.932230
-7215.885000	30121.695000	35105.895000	4827.600000	-12267.945000	16844.805000	-10044.090000	-27719.055000	-7.097807	-6.710780	-5.539758	-7.348300	-10.613156	-2.096223	-2.824325	4.550127	-4.913720	4.700080	-1.907500	0.820249	0.538329	0.158569	-1.000000	-1.000000	-1.000000	-1.000000	-1.000000	-1.000000	-1.000000	74.206897	0.000000	-1.000000	-1.000000	660599.000000	1773688877.935941
-7184.565000	30155.940000	35138.565000	4861.665000	-12236.355000	16877.295000	-10035.090000	-27690.750000	-10.169262	-11.262515	-11.127476	-14.302944	-17.016181	-10.367917	-7.961231	8.594608	-4.913720	4.700080	-1.907500	0.820249	0.538329	0.158569	-1.000000	-1.000000	-1.000000	-1.000000	-1.000000	-1.000000	-1.000000	74.206897	0.000000	-1.000000	-1.000000	660600.000000	1773688877.935953
-7176.510000	30165.345000	35147.970000	4877.685000	-12204.000000	16869.105000	-10019.520000	-27686.700000	-2.259378	-2.909367	-3.605620	-6.996353	-8.419826	-7.310701	-7.018434	9.221494	-2.960440	4.394880	-3.525060	0.823118	0.535216	0.159729	-1.000000	-1.000000	-1.000000	-1.000000	-1.000000	-1.000000	-1.000000	74.206897	0.000000	-1.000000	-1.000000	660601.000000	1773688877.941472
-7184.790000	30154.815000	35137.530000	4867.065000	-12218.940000	16828.785000	-10002.195000	-27700.515000	9.329127	9.031587	8.096967	6.877227	6.852751	1.079587	-0.675347	10.119867	-2.960440	4.394880	-3.525060	0.823118	0.535216	0.159729	-1.000000	-1.000000	-1.000000	-1.000000	-1.000000	-1.000000	-1.000000	74.206897	0.000000	-1.000000	-1.000000	660602.000000	1773688877.941478
-7148.565000	30194.865000	35175.330000	4910.625000	-12182.490000	16923.285000	-9941.760000	-27689.355000	14.884668	13.909804	13.286374	15.566279	16.727504	6.330436	7.261896	9.862759	-2.960440	4.394880	-3.525060	0.823118	0.535216	0.159729	-1.000000	-1.000000	-1.000000	-1.000000	-1.000000	-1.000000	-1.000000	74.206897	0.000000	-1.000000	-1.000000	660603.000000	1773688877.943886
-7172.640000	30175.335000	35159.850000	4897.305000	-12205.170000	16943.175000	-9967.275000	-27699.030000	11.101998	8.807802	8.624377	13.536140	15.339810	7.125462	12.514121	8.419718	-2.960440	4.394880	-3.525060	0.823118	0.535216	0.159729	-1.000000	-1.000000	-1.000000	-1.000000	-1.000000	-1.000000	-1.000000	74.206897	0.000000	-1.000000	-1.000000	660604.000000	1773688877.943902
-7225.875000	30114.180000	35098.785000	4826.385000	-12266.235000	16873.740000	-10046.925000	-27741.240000	1.770401	-1.403644	-1.385537	3.794151	5.522520	6.731434	10.830326	6.541449	-2.960440	4.394880	-3.525060	0.823118	0.535216	0.159729	-1.000000	-1.000000	-1.000000	-1.000000	-1.000000	-1.000000	-1.000000	74.206897	0.000000	-1.000000	-1.000000	660605.000000	1773688877.948139
-7194.870000	30139.785000	35123.895000	4853.295000	-12222.810000	16892.280000	-10041.030000	-27709.920000	-6.947282	-9.562635	-9.477581	-6.427319	-4.797838	5.977102	1.132004	1.288474	-2.960440	4.394880	-3.525060	0.823118	0.535216	0.159729	-1.000000	-1.000000	-1.000000	-1.000000	-1.000000	-1.000000	-1.000000	74.206897	0.000000	-1.000000	-1.000000	660606.000000	1773688877.948149
-7187.310000	30149.010000	35134.785000	4879.305000	-12190.140000	16902.360000	-10031.490000	-27676.665000	-10.003896	-10.612502	-10.295821	-10.129182	-7.510666	4.400512	-10.554167	-7.292639	-2.960440	4.394880	-3.525060	0.823118	0.535216	0.159729	-1.000000	-1.000000	-1.000000	-1.000000	-1.000000	-1.000000	-1.000000	74.206897	0.000000	-1.000000	-1.000000	660607.000000	1773688877.952007
-7182.945000	30156.300000	35136.630000	4879.530000	-12193.020000	16894.755000	-10036.215000	-27741.195000	-7.290086	-5.693874	-5.101318	-6.468136	-2.026445	1.005138	-16.050345	-13.305710	-2.960440	4.394880	-3.525060	0.823118	0.535216	0.159729	-1.000000	-1.000000	-1.000000	-1.000000	-1.000000	-1.000000	-1.000000	74.206897	0.000000	-1.000000	-1.000000	660608.000000	1773688877.952015
-7149.915000	30203.955000	35185.860000	4920.660000	-12161.070000	16931.655000	-10022.040000	-27688.365000	-2.923267	-0.155681	0.328028	-0.952272	3.892874	-5.097517	-12.758697	-12.989903	-2.960440	4.394880	-3.525060	0.823118	0.535216	0.159729	-1.000000	-1.000000	-1.000000	-1.000000	-1.000000	-1.000000	-1.000000	74.206897	0.000000	-1.000000	-1.000000	660609.000000	1773688877.956039
-7161.840000	30200.760000	35191.890000	4930.650000	-12153.960000	16954.245000	-9965.655000	-27707.940000	0.173592	3.116206	3.226010	2.181474	3.806013	-10.568171	-3.283808	-7.173967	-2.960440	4.394880	-3.525060	0.823118	0.535216	0.159729	-1.000000	-1.000000	-1.000000	-1.000000	-1.000000	-1.000000	-1.000000	74.206897	0.000000	-1.000000	-1.000000	660610.000000	1773688877.956045
-7185.465000	30154.860000	35136.945000	4873.230000	-12200.130000	16909.155000	-9975.780000	-27683.595000	0.674075	3.051848	3.054399	1.462229	-2.679680	-11.492158	7.482015	1.163105	-2.777320	5.585160	-3.982860	0.822447	0.534300	0.159301	-1.000000	-1.000000	-1.000000	-1.000000	-1.000000	-1.000000	-1.000000	74.206897	0.000000	-1.000000	-1.000000	660611.000000	1773688877.959827
-7152.840000	30168.900000	35148.375000	4885.065000	-12188.070000	16917.705000	-9979.785000	-27621.540000	-1.831665	-1.667250	-1.657780	-4.244724	-12.448015	-10.507284	12.963579	9.463203	-2.777320	5.585160	-3.982860	0.822447	0.534300	0.159301	-1.000000	-1.000000	-1.000000	-1.000000	-1.000000	-1.000000	-1.000000	74.206897	0.000000	-1.000000	-1.000000	660612.000000	1773688877.959834
-7194.195000	30131.730000	35113.725000	4850.820000	-12228.120000	16879.905000	-10000.395000	-27653.805000	-4.308997	-8.171902	-8.594401	-11.742928	-19.404436	-11.259781	9.932075	16.497963	-2.777320	5.585160	-3.982860	0.822447	0.534300	0.159301	-1.000000	-1.000000	-1.000000	-1.000000	-1.000000	-1.000000	-1.000000	74.206897	0.000000	-1.000000	-1.000000	660613.000000	1773688877.963952
-7286.715000	30027.465000	35007.210000	4745.925000	-12331.890000	16778.430000	-10074.060000	-27750.240000	-4.016016	-11.081214	-12.200583	-14.578519	-18.377722	-11.847688	2.057086	17.347213	-2.777320	5.585160	-3.982860	0.822447	0.534300	0.159301	-1.000000	-1.000000	-1.000000	-1.000000	-1.000000	-1.000000	-1.000000	74.206897	0.000000	-1.000000	-1.000000	660614.000000	1773688877.963969
-7271.865000	30052.125000	35035.245000	4777.470000	-12298.455000	16804.800000	-10068.840000	-27724.410000	-3.172943	-9.560772	-10.905981	-11.100203	-10.968061	-9.426890	-5.744227	5.667654	-2.777320	5.585160	-3.982860	0.822447	0.534300	0.159301	-1.000000	-1.000000	-1.000000	-1.000000	-1.000000	-1.000000	-1.000000	74.206897	0.000000	-1.000000	-1.000000	660615.000000	1773688877.967860
-7228.530000	30102.435000	35086.230000	4827.510000	-12250.890000	16854.660000	-10034.730000	-27713.160000	-2.996863	-4.583366	-5.270468	-3.113816	-0.898830	-2.405763	-10.094444	-13.793305	-2.777320	5.585160	-3.982860	0.822447	0.534300	0.159301	-1.000000	-1.000000	-1.000000	-1.000000	-1.000000	-1.000000	-1.000000	74.206897	0.000000	-1.000000	-1.000000	660616.000000	1773688877.967869
-7225.875000	30110.715000	35093.565000	4832.145000	-12251.745000	16851.015000	-10031.985000	-27737.640000	-0.513369	4.136231	4.721480	7.955939	10.500352	9.434353	-8.106083	-26.586356	-2.777320	5.585160	-3.982860	0.822447	0.534300	0.159301	-1.000000	-1.000000	-1.000000	-1.000000	-1.000000	-1.000000	-1.000000	74.206897	0.000000	-1.000000	-1.000000	660617.000000	1773688877.972063
-7218.720000	30116.790000	35099.145000	4836.015000	-12250.620000	16855.380000	-10026.630000	-27718.875000	4.927643	13.496079	15.149023	17.869345	19.837979	21.030897	-1.003612	-24.416502	-2.777320	5.585160	-3.982860	0.822447	0.534300	0.159301	-1.000000	-1.000000	-1.000000	-1.000000	-1.000000	-1.000000	-1.000000	74.206897	0.000000	-1.000000	-1.000000	660618.000000	1773688877.972069
-7207.470000	30131.775000	35113.095000	4846.680000	-12247.335000	16869.780000	-10012.905000	-27712.890000	10.334323	18.388700	20.101470	21.284274	22.342991	25.414565	5.425384	-10.342998	-2.777320	5.585160	-3.982860	0.822447	0.534300	0.159301	-1.000000	-1.000000	-1.000000	-1.000000	-1.000000	-1.000000	-1.000000	74.206897	0.000000	-1.000000	-1.000000	660619.000000	1773688877.975914
-7209.450000	30129.570000	35111.340000	4849.965000	-12229.785000	16879.455000	-10011.330000	-27713.565000	12.907292	17.269339	18.098885	17.550831	17.795256	20.929460	6.977974	6.912342	-2.777320	5.585160	-3.982860	0.822447	0.534300	0.159301	-1.000000	-1.000000	-1.000000	-1.000000	-1.000000	-1.000000	-1.000000	74.206897	0.000000	-1.000000	-1.000000	660620.000000	1773688877.975920
-7203.060000	30136.635000	35120.970000	4862.970000	-12212.280000	16883.910000	-10017.090000	-27708.570000	11.141063	11.601618	11.461637	9.925504	10.266933	10.759368	4.412811	18.245198	-0.991900	5.295220	-1.342880	0.821714	0.533019	0.156372	-1.000000	-1.000000	-1.000000	-1.000000	-1.000000	-1.000000	-1.000000	74.206897	0.000000	-1.000000	-1.000000	660621.000000	1773688877.982372
-7200.945000	30138.660000	35122.725000	4860.855000	-12220.065000	16879.950000	-10037.295000	-27713.070000	6.736037	4.854598	4.267279	2.971811	4.597709	0.448766	1.614615	20.314397	-0.991900	5.295220	-1.342880	0.821714	0.533019	0.156372	-1.000000	-1.000000	-1.000000	-1.000000	-1.000000	-1.000000	-1.000000	74.206897	0.000000	-1.000000	-1.000000	660622.000000	1773688877.982386
-7198.065000	30137.940000	35120.610000	4854.420000	-12228.030000	16874.100000	-10039.095000	-27713.475000	3.919142	1.271198	0.707515	0.323585	3.069806	-4.585730	1.900160	16.632708	-0.991900	5.295220	-1.342880	0.821714	0.533019	0.156372	-1.000000	-1.000000	-1.000000	-1.000000	-1.000000	-1.000000	-1.000000	74.206897	0.000000	-1.000000	-1.000000	660623.000000	1773688877.983892
-7195.095000	30141.360000	35123.085000	4853.745000	-12234.105000	16870.725000	-10028.970000	-27712.800000	2.918615	0.156127	-0.294296	-0.213813	1.897598	-4.997112	4.481541	10.494555	-0.991900	5.295220	-1.342880	0.821714	0.533019	0.156372	-1.000000	-1.000000	-1.000000	-1.000000	-1.000000	-1.000000	-1.000000	74.206897	0.000000	-1.000000	-1.000000	660624.000000	1773688877.983903
-7197.480000	30142.305000	35125.020000	4858.335000	-12228.750000	16874.775000	-10026.315000	-27715.950000	-0.850938	-4.003813	-4.495297	-4.781323	-4.925895	-6.821703	5.217058	2.536741	-0.991900	5.295220	-1.342880	0.821714	0.533019	0.156372	-1.000000	-1.000000	-1.000000	-1.000000	-1.000000	-1.000000	-1.000000	74.206897	0.000000	-1.000000	-1.000000	660625.000000	1773688877.987888
-7201.170000	30143.790000	35128.980000	4866.705000	-12214.080000	16886.205000	-10018.350000	-27716.490000	-9.407589	-13.164578	-13.667513	-14.290698	-16.546696	-12.386041	1.631356	-5.668588	-0.991900	5.295220	-1.342880	0.821714	0.533019	0.156372	-1.000000	-1.000000	-1.000000	-1.000000	-1.000000	-1.000000	-1.000000	74.206897	0.000000	-1.000000	-1.000000	660626.000000	1773688877.987895
-7198.965000	30148.605000	35133.705000	4873.725000	-12204.270000	16895.610000	-10010.880000	-27709.065000	-18.597458	-22.287459	-22.523611	-22.507046	-25.024363	-17.413240	-4.699139	-11.546798	-0.991900	5.295220	-1.342880	0.821714	0.533019	0.156372	-1.000000	-1.000000	-1.000000	-1.000000	-1.000000	-1.000000	-1.000000	74.206897	0.000000	-1.000000	-1.000000	660627.000000	1773688877.993273
-7188.750000	30150.270000	35131.455000	4868.685000	-12211.695000	16896.195000	-10012.995000	-27704.430000	-22.002473	-24.413465	-24.235397	-22.866331	-23.808862	-16.958610	-10.321137	-13.440789	-0.991900	5.295220	-1.342880	0.821714	0.533019	0.156372	-1.000000	-1.000000	-1.000000	-1.000000	-1.000000	-1.000000	-1.000000	74.206897	0.000000	-1.000000	-1.000000	660628.000000	1773688877.993284
-7181.010000	30152.295000	35133.255000	4868.280000	-12213.090000	16886.205000	-10032.165000	-27690.480000	-16.444698	-16.845363	-16.462317	-14.313626	-13.607879	-10.583446	-12.602067	-11.150920	-0.991900	5.295220	-1.342880	0.821714	0.533019	0.156372	-1.000000	-1.000000	-1.000000	-1.000000	-1.000000	-1.000000	-1.000000	74.206897	0.000000	-1.000000	-1.000000	660629.000000	1773688877.995886
-7184.160000	30152.025000	35132.355000	4864.455000	-12213.540000	16891.335000	-10021.590000	-27681.615000	-4.039856	-2.630976	-2.455779	-1.042631	-0.118176	-1.372242	-10.220370	-5.607108	-0.991900	5.295220	-1.342880	0.821714	0.533019	0.156372	-1.000000	-1.000000	-1.000000	-1.000000	-1.000000	-1.000000	-1.000000	74.206897	0.000000	-1.000000	-1.000000	660630.000000	1773688877.995895
-7193.295000	30153.960000	35136.135000	4865.220000	-12215.385000	16890.795000	-10014.165000	-27731.115000	9.694690	12.467662	12.229380	11.810560	11.802553	8.031314	-2.620894	1.098212	-1.251320	5.524120	-1.175020	0.822019	0.531066	0.156860	-1.000000	-1.000000	-1.000000	-1.000000	-1.000000	-1.000000	-1.000000	74.206897	0.000000	-1.000000	-1.000000	660631.000000	1773688877.999821
-7181.820000	30163.230000	35145.405000	4877.955000	-12204.090000	16892.505000	-10009.890000	-27724.140000	18.781296	22.717593	22.328195	20.341065	19.374643	15.442938	8.013468	5.303807	-1.251320	5.524120	-1.175020	0.822019	0.531066	0.156860	-1.000000	-1.000000	-1.000000	-1.000000	-1.000000	-1.000000	-1.000000	74.206897	0.000000	-1.000000	-1.000000	660632.000000	1773688877.999829
-7179.030000	30157.695000	35139.600000	4879.125000	-12208.140000	16885.800000	-10010.790000	-27708.750000	19.490680	23.750008	23.658750	21.542753	20.237894	17.511588	15.640391	5.106481	-1.251320	5.524120	-1.175020	0.822019	0.531066	0.156860	-1.000000	-1.000000	-1.000000	-1.000000	-1.000000	-1.000000	-1.000000	74.206897	0.000000	-1.000000	-1.000000	660633.000000	1773688878.004518
-7194.735000	30132.000000	35110.485000	4852.575000	-12233.880000	16868.025000	-10025.910000	-27707.040000	12.097879	14.564709	14.897763	14.249179	13.223553	12.002964	14.855551	2.960742	-1.251320	5.524120	-1.175020	0.822019	0.531066	0.156860	-1.000000	-1.000000	-1.000000	-1.000000	-1.000000	-1.000000	-1.000000	74.206897	0.000000	-1.000000	-1.000000	660634.000000	1773688878.004528
-7195.365000	30142.485000	35120.835000	4860.630000	-12225.105000	16884.135000	-10021.680000	-27709.290000	0.474070	-0.779744	-0.380899	0.923008	0.467964	0.958226	5.676121	1.653848	-1.251320	5.524120	-1.175020	0.822019	0.531066	0.156860	-1.000000	-1.000000	-1.000000	-1.000000	-1.000000	-1.000000	-1.000000	74.206897	0.000000	-1.000000	-1.000000	660635.000000	1773688878.011216
-7201.350000	30145.635000	35129.160000	4871.475000	-12213.180000	16895.160000	-10015.965000	-27709.830000	-9.903740	-14.289735	-14.180286	-11.913440	-11.758979	-9.516477	-6.462127	1.137215	-1.251320	5.524120	-1.175020	0.822019	0.531066	0.156860	-1.000000	-1.000000	-1.000000	-1.000000	-1.000000	-1.000000	-1.000000	74.206897	0.000000	-1.000000	-1.000000	660636.000000	1773688878.011227
-7196.895000	30151.170000	35135.145000	4875.210000	-12209.625000	16896.870000	-10014.120000	-27704.565000	-14.739793	-18.979317	-18.925540	-17.198418	-16.494699	-13.494573	-14.361697	0.315117	-1.251320	5.524120	-1.175020	0.822019	0.531066	0.156860	-1.000000	-1.000000	-1.000000	-1.000000	-1.000000	-1.000000	-1.000000	74.206897	0.000000	-1.000000	-1.000000	660637.000000	1773688878.014691
-7196.355000	30149.505000	35131.815000	4867.515000	-12212.280000	16895.475000	-10014.300000	-27704.880000	-12.761983	-13.607822	-13.139493	-12.950844	-11.849543	-9.698811	-13.730783	-1.125498	-1.251320	5.524120	-1.175020	0.822019	0.531066	0.156860	-1.000000	-1.000000	-1.000000	-1.000000	-1.000000	-1.000000	-1.000000	74.206897	0.000000	-1.000000	-1.000000	660638.000000	1773688878.014704
-7188.885000	30154.275000	35136.765000	4871.745000	-12210.570000	16890.930000	-10014.570000	-27705.195000	-5.312251	-2.345636	-1.520740	-2.989053	-1.713737	-1.476016	-5.724729	-2.185088	-1.251320	5.524120	-1.175020	0.822019	0.531066	0.156860	-1.000000	-1.000000	-1.000000	-1.000000	-1.000000	-1.000000	-1.000000	74.206897	0.000000	-1.000000	-1.000000	660639.000000	1773688878.015841
-7178.715000	30156.165000	35136.990000	4876.920000	-12201.660000	16901.325000	-10006.695000	-27693.675000	4.490379	8.651582	9.254703	6.967580	8.166735	6.379156	4.421740	-0.951988	-1.251320	5.524120	-1.175020	0.822019	0.531066	0.156860	-1.000000	-1.000000	-1.000000	-1.000000	-1.000000	-1.000000	-1.000000	74.206897	0.000000	-1.000000	-1.000000	660640.000000	1773688878.015853
-7186.950000	30150.135000	35132.985000	4874.535000	-12201.480000	16900.560000	-10013.580000	-27701.055000	11.988273	14.017894	13.882327	12.096713	13.109315	10.276925	10.992339	2.538393	-3.753960	4.318580	0.579880	0.819578	0.538695	0.157837	-1.000000	-1.000000	-1.000000	-1.000000	-1.000000	-1.000000	-1.000000	74.206897	0.000000	-1.000000	-1.000000	660641.000000	1773688878.019879
-7207.110000	30131.055000	35114.265000	4852.080000	-12227.715000	16876.665000	-10027.845000	-27713.790000	12.837083	11.497287	10.648225	10.104814	10.973712	8.764990	10.827405	4.834488	-3.753960	4.318580	0.579880	0.819578	0.538695	0.157837	-1.000000	-1.000000	-1.000000	-1.000000	-1.000000	-1.000000	-1.000000	74.206897	0.000000	-1.000000	-1.000000	660642.000000	1773688878.019890
-7200.045000	30142.305000	35124.615000	4859.910000	-12240.045000	16885.035000	-10014.885000	-27706.815000	6.717936	3.510166	2.483560	2.798601	3.037612	2.797854	4.982315	3.057385	-3.753960	4.318580	0.579880	0.819578	0.538695	0.157837	-1.000000	-1.000000	-1.000000	-1.000000	-1.000000	-1.000000	-1.000000	74.206897	0.000000	-1.000000	-1.000000	660643.000000	1773688878.024451
-7191.720000	30152.025000	35132.535000	4865.310000	-12235.320000	16893.585000	-10012.365000	-27706.140000	-1.746911	-4.488939	-5.199421	-4.921673	-6.538251	-4.355000	-2.225538	-1.494080	-3.753960	4.318580	0.579880	0.819578	0.538695	0.157837	-1.000000	-1.000000	-1.000000	-1.000000	-1.000000	-1.000000	-1.000000	74.206897	0.000000	-1.000000	-1.000000	660644.000000	1773688878.024463
-7199.280000	30139.920000	35119.935000	4855.230000	-12231.315000	16881.570000	-10018.665000	-27710.190000	-7.219518	-8.350903	-8.712485	-8.923206	-12.691444	-9.079202	-6.852356	-5.378736	-3.753960	4.318580	0.579880	0.819578	0.538695	0.157837	-1.000000	-1.000000	-1.000000	-1.000000	-1.000000	-1.000000	-1.000000	74.206897	0.000000	-1.000000	-1.000000	660645.000000	1773688878.027742
-7198.155000	30142.215000	35124.750000	4859.460000	-12230.145000	16877.385000	-10015.470000	-27705.690000	-7.910439	-7.667225	-7.875533	-8.210616	-12.257003	-9.725958	-7.476428	-6.544759	-3.753960	4.318580	0.579880	0.819578	0.538695	0.157837	-1.000000	-1.000000	-1.000000	-1.000000	-1.000000	-1.000000	-1.000000	74.206897	0.000000	-1.000000	-1.000000	660646.000000	1773688878.027754
-7184.025000	30156.705000	35138.565000	4860.855000	-12236.040000	16901.190000	-9998.730000	-27701.190000	-4.982434	-3.990784	-4.034585	-3.866129	-5.837962	-6.226892	-4.357210	-4.764607	-3.753960	4.318580	0.579880	0.819578	0.538695	0.157837	-1.000000	-1.000000	-1.000000	-1.000000	-1.000000	-1.000000	-1.000000	74.206897	0.000000	-1.000000	-1.000000	660647.000000	1773688878.031832
-7173.540000	30163.635000	35143.245000	4855.770000	-12229.110000	16906.815000	-9992.655000	-27706.770000	-0.190400	1.121667	1.387301	1.948630	2.886786	0.638769	1.137385	-0.783975	-3.753960	4.318580	0.579880	0.819578	0.538695	0.157837	-1.000000	-1.000000	-1.000000	-1.000000	-1.000000	-1.000000	-1.000000	74.206897	0.000000	-1.000000	-1.000000	660648.000000	1773688878.031846
-7114.860000	30241.800000	35226.270000	4955.085000	-12110.040000	16978.635000	-9967.950000	-27741.330000	5.024238	6.609298	7.188792	7.449799	11.019546	8.868810	6.484640	3.031757	-3.753960	4.318580	0.579880	0.819578	0.538695	0.157837	-1.000000	-1.000000	-1.000000	-1.000000	-1.000000	-1.000000	-1.000000	74.206897	0.000000	-1.000000	-1.000000	660649.000000	1773688878.035764
-6949.620000	30447.675000	35442.720000	5192.235000	-11886.975000	17167.320000	-9880.245000	-27671.670000	11.801415	14.580877	15.513327	15.767987	21.195960	18.285575	10.443468	4.637267	-3.753960	4.318580	0.579880	0.819578	0.538695	0.157837	-1.000000	-1.000000	-1.000000	-1.000000	-1.000000	-1.000000	-1.000000	74.206897	0.000000	-1.000000	-1.000000	660650.000000	1773688878.035775
-6966.945000	30403.755000	35396.775000	5144.535000	-11943.315000	17129.745000	-9890.820000	-27482.220000	21.485918	26.464085	27.921009	29.687398	35.075864	29.015670	13.513002	8.042731	-5.463080	3.647140	0.289940	0.817991	0.538817	0.159973	-1.000000	-1.000000	-1.000000	-1.000000	-1.000000	-1.000000	-1.000000	74.206897	0.000000	-1.000000	-1.000000	660651.000000	1773688878.041480
-7241.715000	30065.760000	35044.740000	4781.250000	-12304.035000	16794.180000	-10075.770000	-27513.315000	23.622215	28.234235	29.823198	33.602999	36.532406	28.287772	10.904245	18.011649	-5.463080	3.647140	0.289940	0.817991	0.538817	0.159973	-1.000000	-1.000000	-1.000000	-1.000000	-1.000000	-1.000000	-1.000000	74.206897	0.000000	-1.000000	-1.000000	660652.000000	1773688878.041494
-7329.150000	29978.910000	34950.870000	4683.690000	-12398.175000	16716.870000	-10098.045000	-27738.405000	1.027883	-0.981451	-0.635203	3.187126	2.552501	-2.445071	-5.364263	24.167927	-5.463080	3.647140	0.289940	0.817991	0.538817	0.159973	-1.000000	-1.000000	-1.000000	-1.000000	-1.000000	-1.000000	-1.000000	74.206897	0.000000	-1.000000	-1.000000	660653.000000	1773688878.045941
-7255.620000	30052.845000	35025.165000	4763.565000	-12319.065000	16784.955000	-10031.175000	-27774.225000	-40.435132	-52.070665	-54.175416	-53.081180	-56.729097	-53.022636	-28.996347	8.265549	-5.463080	3.647140	0.289940	0.817991	0.538817	0.159973	-1.000000	-1.000000	-1.000000	-1.000000	-1.000000	-1.000000	-1.000000	74.206897	0.000000	-1.000000	-1.000000	660654.000000	1773688878.045952
-7260.345000	30054.195000	35032.455000	4770.000000	-12306.195000	16795.215000	-10064.205000	-27718.560000	-68.283277	-84.562452	-88.598095	-91.131460	-96.229213	-83.715375	-40.240951	-26.296016	-5.463080	3.647140	0.289940	0.817991	0.538817	0.159973	-1.000000	-1.000000	-1.000000	-1.000000	-1.000000	-1.000000	-1.000000	74.206897	0.000000	-1.000000	-1.000000	660655.000000	1773688878.047856
-7255.620000	30073.770000	35060.535000	4796.370000	-12275.145000	16829.235000	-10073.430000	-27682.470000	-58.534289	-70.016170	-73.640582	-78.123895	-82.476583	-67.373277	-29.298108	-51.955959	-5.463080	3.647140	0.289940	0.817991	0.538817	0.159973	-1.000000	-1.000000	-1.000000	-1.000000	-1.000000	-1.000000	-1.000000	74.206897	0.000000	-1.000000	-1.000000	660656.000000	1773688878.047868
-7201.800000	30129.210000	35113.365000	4847.670000	-12232.800000	16869.960000	-10046.520000	-27732.555000	-16.636739	-16.189945	-16.889301	-20.719195	-22.811515	-12.767467	-3.966133	-47.536866	-5.463080	3.647140	0.289940	0.817991	0.538817	0.159973	-1.000000	-1.000000	-1.000000	-1.000000	-1.000000	-1.000000	-1.000000	74.206897	0.000000	-1.000000	-1.000000	660657.000000	1773688878.051845
-7171.065000	30171.105000	35156.655000	4895.460000	-12188.565000	16901.415000	-10010.970000	-27747.000000	32.623146	45.052782	47.841018	45.932793	45.528261	47.367503	21.826606	-17.787593	-5.463080	3.647140	0.289940	0.817991	0.538817	0.159973	-1.000000	-1.000000	-1.000000	-1.000000	-1.000000	-1.000000	-1.000000	74.206897	0.000000	-1.000000	-1.000000	660658.000000	1773688878.051856
-7168.815000	30177.585000	35163.270000	4902.570000	-12179.205000	16913.880000	-9973.755000	-27730.395000	62.536075	80.111696	84.503303	83.843282	83.730545	79.625077	36.943436	15.363635	-5.463080	3.647140	0.289940	0.817991	0.538817	0.159973	-1.000000	-1.000000	-1.000000	-1.000000	-1.000000	-1.000000	-1.000000	74.206897	0.000000	-1.000000	-1.000000	660659.000000	1773688878.055717
-7201.530000	30123.045000	35103.420000	4847.085000	-12227.085000	16868.250000	-10005.480000	-27678.465000	61.550155	75.883002	79.239619	78.807033	79.098917	72.719874	37.606337	32.474001	-5.463080	3.647140	0.289940	0.817991	0.538817	0.159973	-1.000000	-1.000000	-1.000000	-1.000000	-1.000000	-1.000000	-1.000000	74.206897	0.000000	-1.000000	-1.000000	660660.000000	1773688878.055727
-7255.395000	30063.825000	35042.085000	4786.875000	-12285.810000	16816.905000	-10045.485000	-27688.950000	40.335216	46.914566	47.854910	47.886243	49.856286	42.921745	27.993361	31.504036	-1.327620	5.234180	-0.228900	0.819761	0.538878	0.159179	-1.000000	-1.000000	-1.000000	-1.000000	-1.000000	-1.000000	-1.000000	74.206897	0.000000	-1.000000	-1.000000	660661.000000	1773688878.059801
-7255.395000	30074.535000	35054.460000	4799.790000	-12275.460000	16833.105000	-10036.530000	-27739.800000	16.208584	15.398172	14.365307	15.821956	19.642270	12.628498	13.693185	24.974099	-1.327620	5.234180	-0.228900	0.819761	0.538878	0.159179	-1.000000	-1.000000	-1.000000	-1.000000	-1.000000	-1.000000	-1.000000	74.206897	0.000000	-1.000000	-1.000000	660662.000000	1773688878.059812
-7226.865000	30108.735000	35090.055000	4830.120000	-12253.590000	16861.095000	-10025.865000	-27724.950000	-3.584014	-8.803865	-10.470405	-7.605894	-3.749155	-9.375492	-2.593429	21.095962	-1.327620	5.234180	-0.228900	0.819761	0.538878	0.159179	-1.000000	-1.000000	-1.000000	-1.000000	-1.000000	-1.000000	-1.000000	74.206897	0.000000	-1.000000	-1.000000	660663.000000	1773688878.065319
-7212.870000	30123.180000	35104.905000	4843.350000	-12234.465000	16867.485000	-10027.440000	-27719.640000	-18.389011	-24.972988	-26.325819	-23.407829	-21.891991	-24.183919	-17.408977	15.884763	-1.327620	5.234180	-0.228900	0.819761	0.538878	0.159179	-1.000000	-1.000000	-1.000000	-1.000000	-1.000000	-1.000000	-1.000000	74.206897	0.000000	-1.000000	-1.000000	660664.000000	1773688878.065327
-7201.305000	30134.655000	35117.730000	4859.055000	-12219.030000	16872.840000	-10025.685000	-27712.980000	-26.840117	-33.136100	-34.074155	-32.468387	-34.201051	-33.160097	-25.619560	4.373990	-1.327620	5.234180	-0.228900	0.819761	0.538878	0.159179	-1.000000	-1.000000	-1.000000	-1.000000	-1.000000	-1.000000	-1.000000	74.206897	0.000000	-1.000000	-1.000000	660665.000000	1773688878.067792
-7191.945000	30144.825000	35125.155000	4859.910000	-12226.545000	16877.160000	-10022.580000	-27708.390000	-28.758502	-34.442205	-35.243880	-35.425314	-39.329321	-36.572307	-25.365891	-9.877978	-1.327620	5.234180	-0.228900	0.819761	0.538878	0.159179	-1.000000	-1.000000	-1.000000	-1.000000	-1.000000	-1.000000	-1.000000	74.206897	0.000000	-1.000000	-1.000000	660666.000000	1773688878.067803
-7187.715000	30151.890000	35132.130000	4859.595000	-12227.445000	16872.120000	-10012.500000	-27703.080000	-26.595060	-31.850248	-32.716203	-34.756397	-38.826255	-35.066747	-19.661070	-19.338377	-1.327620	5.234180	-0.228900	0.819761	0.538878	0.159179	-1.000000	-1.000000	-1.000000	-1.000000	-1.000000	-1.000000	-1.000000	74.206897	0.000000	-1.000000	-1.000000	660667.000000	1773688878.071894
-7184.970000	30158.325000	35139.645000	4868.280000	-12220.155000	16860.915000	-9997.875000	-27699.480000	-21.467873	-25.866216	-26.719551	-30.453038	-32.898390	-28.428623	-11.939958	-22.107569	-1.327620	5.234180	-0.228900	0.819761	0.538878	0.159179	-1.000000	-1.000000	-1.000000	-1.000000	-1.000000	-1.000000	-1.000000	74.206897	0.000000	-1.000000	-1.000000	660668.000000	1773688878.071906
-7182.765000	30159.630000	35137.980000	4873.950000	-12208.680000	16879.140000	-9996.975000	-27699.795000	-10.325642	-11.850646	-12.185577	-16.374399	-16.329133	-13.084949	-1.777772	-21.313103	-1.327620	5.234180	-0.228900	0.819761	0.538878	0.159179	-1.000000	-1.000000	-1.000000	-1.000000	-1.000000	-1.000000	-1.000000	74.206897	0.000000	-1.000000	-1.000000	660669.000000	1773688878.075712
-7186.725000	30155.580000	35135.010000	4873.950000	-12206.790000	16895.025000	-10013.085000	-27715.095000	8.522882	12.028440	12.808205	10.444219	12.728910	12.603177	11.425487	-16.805932	-1.327620	5.234180	-0.228900	0.819761	0.538878	0.159179	-1.000000	-1.000000	-1.000000	-1.000000	-1.000000	-1.000000	-1.000000	74.206897	0.000000	-1.000000	-1.000000	660670.000000	1773688878.075723
-7180.830000	30171.330000	35155.440000	4890.285000	-12194.415000	16911.720000	-10022.355000	-27750.645000	27.439111	35.346423	37.296048	38.418276	41.915838	38.844523	21.939058	-6.249231	-1.800680	4.700080	-1.342880	0.821043	0.531920	0.159973	-1.000000	-1.000000	-1.000000	-1.000000	-1.000000	-1.000000	-1.000000	74.206897	0.000000	-1.000000	-1.000000	660671.000000	1773688878.079799
-7110.090000	30251.835000	35238.645000	4971.915000	-12116.070000	16960.050000	-9963.990000	-27677.115000	34.769969	43.586311	46.078089	50.312225	53.638637	49.865396	22.911601	7.556243	-1.800680	4.700080	-1.342880	0.821043	0.531920	0.159973	-1.000000	-1.000000	-1.000000	-1.000000	-1.000000	-1.000000	-1.000000	74.206897	0.000000	-1.000000	-1.000000	660672.000000	1773688878.079808
-7087.590000	30260.610000	35244.810000	4979.970000	-12103.605000	16953.030000	-9936.990000	-27592.245000	27.350096	33.110036	35.110127	40.437498	42.292110	39.052810	15.725711	19.604937	-1.800680	4.700080	-1.342880	0.821043	0.531920	0.159973	-1.000000	-1.000000	-1.000000	-1.000000	-1.000000	-1.000000	-1.000000	74.206897	0.000000	-1.000000	-1.000000	660673.000000	1773688878.084053
-7181.145000	30154.005000	35134.200000	4867.290000	-12213.540000	16880.580000	-10003.050000	-27685.665000	9.257737	9.181865	9.656843	13.794468	13.694989	11.385805	5.445612	26.065118	-1.800680	4.700080	-1.342880	0.821043	0.531920	0.159973	-1.000000	-1.000000	-1.000000	-1.000000	-1.000000	-1.000000	-1.000000	74.206897	0.000000	-1.000000	-1.000000	660674.000000	1773688878.084065
-7219.935000	30118.050000	35096.625000	4826.520000	-12252.195000	16862.040000	-10029.690000	-27747.855000	-15.383020	-21.887837	-23.406536	-21.948536	-23.200817	-22.657093	-7.090308	20.817406	-1.800680	4.700080	-1.342880	0.821043	0.531920	0.159973	-1.000000	-1.000000	-1.000000	-1.000000	-1.000000	-1.000000	-1.000000	74.206897	0.000000	-1.000000	-1.000000	660675.000000	1773688878.087946
-7243.155000	30089.745000	35067.420000	4797.270000	-12280.590000	16838.640000	-10054.305000	-27731.475000	-39.129342	-49.719150	-52.742852	-54.153623	-55.151224	-49.244511	-21.166076	1.537290	-1.800680	4.700080	-1.342880	0.821043	0.531920	0.159973	-1.000000	-1.000000	-1.000000	-1.000000	-1.000000	-1.000000	-1.000000	74.206897	0.000000	-1.000000	-1.000000	660676.000000	1773688878.087956
-7244.100000	30091.635000	35074.890000	4805.685000	-12275.550000	16845.255000	-10058.220000	-27732.780000	-49.185845	-59.198745	-62.350609	-65.631313	-65.704055	-54.933234	-30.681195	-21.939905	-1.800680	4.700080	-1.342880	0.821043	0.531920	0.159973	-1.000000	-1.000000	-1.000000	-1.000000	-1.000000	-1.000000	-1.000000	74.206897	0.000000	-1.000000	-1.000000	660677.000000	1773688878.092219
-7238.700000	30092.535000	35073.495000	4807.755000	-12287.250000	16843.635000	-10059.795000	-27719.505000	-36.462526	-41.151880	-42.754355	-46.415996	-46.398936	-35.335580	-27.873089	-34.181878	-1.800680	4.700080	-1.342880	0.821043	0.531920	0.159973	-1.000000	-1.000000	-1.000000	-1.000000	-1.000000	-1.000000	-1.000000	74.206897	0.000000	-1.000000	-1.000000	660678.000000	1773688878.092230
-7220.565000	30114.630000	35096.400000	4837.995000	-12258.090000	16870.635000	-10034.505000	-27706.905000	-4.908666	-2.238393	-1.442474	-4.082360	-5.578732	-0.216606	-10.970388	-26.196249	-1.800680	4.700080	-1.342880	0.821043	0.531920	0.159973	-1.000000	-1.000000	-1.000000	-1.000000	-1.000000	-1.000000	-1.000000	74.206897	0.000000	-1.000000	-1.000000	660679.000000	1773688878.103860
-7220.520000	30114.675000	35096.355000	4831.560000	-12246.345000	16874.145000	-10023.570000	-27706.500000	29.086944	37.178611	39.664978	39.029835	35.836039	31.970099	12.634594	-2.299259	-1.800680	4.700080	-1.342880	0.821043	0.531920	0.159973	-1.000000	-1.000000	-1.000000	-1.000000	-1.000000	-1.000000	-1.000000	74.206897	0.000000	-1.000000	-1.000000	660680.000000	1773688878.103873
-7211.745000	30122.910000	35105.175000	4839.255000	-12224.565000	16871.175000	-10030.140000	-27714.690000	47.082131	56.182419	58.699788	60.063259	57.539020	45.697728	30.139675	20.946381	-0.610400	1.892240	-1.938020	0.819029	0.531737	0.160461	-1.000000	-1.000000	-1.000000	-1.000000	-1.000000	-1.000000	-1.000000	74.206897	0.000000	-1.000000	-1.000000	660681.000000	1773688878.103888
-7198.830000	30139.155000	35123.805000	4868.325000	-12203.145000	16882.695000	-10027.125000	-27707.805000	41.856932	48.194805	49.470003	51.834946	52.665035	37.714671	32.275878	27.933473	-0.610400	1.892240	-1.938020	0.819029	0.531737	0.160461	-1.000000	-1.000000	-1.000000	-1.000000	-1.000000	-1.000000	-1.000000	74.206897	0.000000	-1.000000	-1.000000	660682.000000	1773688878.103893
-7191.405000	30149.370000	35136.945000	4883.670000	-12192.705000	16897.500000	-10014.615000	-27700.740000	22.134189	24.667230	24.652990	27.023253	31.102506	18.010879	21.031988	18.979720	-0.610400	1.892240	-1.938020	0.819029	0.531737	0.160461	-1.000000	-1.000000	-1.000000	-1.000000	-1.000000	-1.000000	-1.000000	74.206897	0.000000	-1.000000	-1.000000	660683.000000	1773688878.105284
-7198.065000	30144.555000	35133.705000	4875.030000	-12204.765000	16892.055000	-10016.955000	-27709.065000	2.458142	2.232409	1.791686	3.624518	8.057721	-0.092406	6.163806	6.377284	-0.610400	1.892240	-1.938020	0.819029	0.531737	0.160461	-1.000000	-1.000000	-1.000000	-1.000000	-1.000000	-1.000000	-1.000000	74.206897	0.000000	-1.000000	-1.000000	660684.000000	1773688878.105293
-7212.330000	30128.760000	35114.760000	4854.510000	-12225.285000	16874.820000	-10028.475000	-27719.730000	-9.441277	-11.041920	-11.195117	-10.451508	-8.695006	-10.244227	-4.973559	-2.062423	-0.610400	1.892240	-1.938020	0.819029	0.531737	0.160461	-1.000000	-1.000000	-1.000000	-1.000000	-1.000000	-1.000000	-1.000000	74.206897	0.000000	-1.000000	-1.000000	660685.000000	1773688878.111726
-7212.015000	30127.545000	35112.195000	4854.105000	-12222.630000	16878.195000	-10028.655000	-27721.755000	-13.866587	-15.928137	-15.907053	-16.812587	-18.574943	-13.246548	-10.667671	-6.936095	-0.610400	1.892240	-1.938020	0.819029	0.531737	0.160461	-1.000000	-1.000000	-1.000000	-1.000000	-1.000000	-1.000000	-1.000000	74.206897	0.000000	-1.000000	-1.000000	660686.000000	1773688878.111736
-7203.285000	30137.850000	35121.465000	4858.695000	-12219.795000	16883.235000	-10026.270000	-27717.480000	-13.769519	-15.876013	-16.270989	-18.887230	-22.484980	-12.285577	-11.970009	-9.644700	-0.610400	1.892240	-1.938020	0.819029	0.531737	0.160461	-1.000000	-1.000000	-1.000000	-1.000000	-1.000000	-1.000000	-1.000000	74.206897	0.000000	-1.000000	-1.000000	660687.000000	1773688878.111963
-7201.395000	30139.695000	35124.570000	4859.370000	-12222.765000	16876.035000	-10027.890000	-27714.825000	-11.824434	-13.938842	-15.052925	-18.780689	-21.768450	-10.513090	-10.886848	-9.519486	-0.610400	1.892240	-1.938020	0.819029	0.531737	0.160461	-1.000000	-1.000000	-1.000000	-1.000000	-1.000000	-1.000000	-1.000000	74.206897	0.000000	-1.000000	-1.000000	660688.000000	1773688878.111973
-7192.215000	30148.515000	35134.200000	4867.110000	-12219.210000	16875.585000	-10026.900000	-27705.465000	-9.922889	-12.194469	-13.742308	-17.362475	-18.825266	-9.900545	-9.439404	-6.560585	-0.610400	1.892240	-1.938020	0.819029	0.531737	0.160461	-1.000000	-1.000000	-1.000000	-1.000000	-1.000000	-1.000000	-1.000000	74.206897	0.000000	-1.000000	-1.000000	660689.000000	1773688878.118023
-7195.320000	30146.085000	35130.690000	4864.365000	-12227.040000	16876.170000	-10024.335000	-27717.615000	-8.710551	-11.056074	-12.409387	-14.474455	-15.410026	-9.807785	-8.118537	-2.865619	-0.610400	1.892240	-1.938020	0.819029	0.531737	0.160461	-1.000000	-1.000000	-1.000000	-1.000000	-1.000000	-1.000000	-1.000000	74.206897	0.000000	-1.000000	-1.000000	660690.000000	1773688878.118038
-7195.815000	30147.030000	35133.390000	4864.815000	-12235.860000	16890.975000	-10022.220000	-27735.615000	-7.262852	-9.085576	-9.705174	-9.514121	-11.069495	-7.606833	-5.670707	-0.690965	-5.432560	1.815940	-1.754900	0.821409	0.534117	0.160156	-1.000000	-1.000000	-1.000000	-1.000000	-1.000000	-1.000000	-1.000000	74.206897	0.000000	-1.000000	-1.000000	660691.000000	1773688878.122963
-7178.760000	30168.945000	35153.685000	4871.430000	-12227.040000	16900.695000	-10029.105000	-27716.985000	-3.723304	-4.273689	-3.998845	-2.176954	-4.069975	-1.643244	-1.268669	0.216223	-5.432560	1.815940	-1.754900	0.821409	0.534117	0.160156	-1.000000	-1.000000	-1.000000	-1.000000	-1.000000	-1.000000	-1.000000	74.206897	0.000000	-1.000000	-1.000000	660692.000000	1773688878.122975
-7176.150000	30179.115000	35158.905000	4871.790000	-12225.825000	16899.030000	-10013.085000	-27688.140000	2.785321	3.935561	4.796306	6.828565	6.139191	6.739815	4.154562	2.250619	-5.432560	1.815940	-1.754900	0.821409	0.534117	0.160156	-1.000000	-1.000000	-1.000000	-1.000000	-1.000000	-1.000000	-1.000000	74.206897	0.000000	-1.000000	-1.000000	660693.000000	1773688878.125573
-7173.810000	30169.170000	35153.955000	4889.115000	-12196.845000	16904.655000	-10001.700000	-27675.720000	10.445315	13.088808	14.029381	15.500133	17.536321	14.068317	9.253318	6.605878	-5.432560	1.815940	-1.754900	0.821409	0.534117	0.160156	-1.000000	-1.000000	-1.000000	-1.000000	-1.000000	-1.000000	-1.000000	74.206897	0.000000	-1.000000	-1.000000	660694.000000	1773688878.125585
-7164.630000	30163.095000	35154.135000	4912.245000	-12164.940000	16912.890000	-10000.170000	-27658.170000	15.407103	18.190564	19.127384	21.086433	26.304330	16.882745	12.617351	11.257310	-5.432560	1.815940	-1.754900	0.821409	0.534117	0.160156	-1.000000	-1.000000	-1.000000	-1.000000	-1.000000	-1.000000	-1.000000	74.206897	0.000000	-1.000000	-1.000000	660695.000000	1773688878.127800
-7207.785000	30124.485000	35111.610000	4861.845000	-12206.520000	16883.010000	-10005.795000	-27673.875000	13.865525	14.748520	15.997580	20.144880	27.617015	13.009129	12.065808	12.375816	-5.432560	1.815940	-1.754900	0.821409	0.534117	0.160156	-1.000000	-1.000000	-1.000000	-1.000000	-1.000000	-1.000000	-1.000000	74.206897	0.000000	-1.000000	-1.000000	660696.000000	1773688878.127810
-7222.455000	30111.120000	35097.480000	4840.470000	-12229.560000	16863.570000	-10019.475000	-27704.205000	4.364376	2.518197	3.949218	9.852766	17.351807	2.598786	6.213015	6.884195	-5.432560	1.815940	-1.754900	0.821409	0.534117	0.160156	-1.000000	-1.000000	-1.000000	-1.000000	-1.000000	-1.000000	-1.000000	74.206897	0.000000	-1.000000	-1.000000	660697.000000	1773688878.134303
-7205.175000	30125.385000	35111.655000	4851.495000	-12222.270000	16877.430000	-10022.355000	-27702.990000	-9.228086	-12.537297	-11.692780	-7.115489	-2.579594	-10.150720	-3.336377	-4.713459	-5.432560	1.815940	-1.754900	0.821409	0.534117	0.160156	-1.000000	-1.000000	-1.000000	-1.000000	-1.000000	-1.000000	-1.000000	74.206897	0.000000	-1.000000	-1.000000	660698.000000	1773688878.134315
-7191.765000	30137.175000	35121.645000	4861.845000	-12208.950000	16888.590000	-10020.420000	-27683.145000	-18.358892	-21.010810	-21.401019	-21.353035	-21.970205	-18.051375	-12.064568	-16.167588	-5.432560	1.815940	-1.754900	0.821409	0.534117	0.160156	-1.000000	-1.000000	-1.000000	-1.000000	-1.000000	-1.000000	-1.000000	74.206897	0.000000	-1.000000	-1.000000	660699.000000	1773688878.140802
-7183.755000	30144.420000	35128.530000	4864.230000	-12219.165000	16882.605000	-10018.170000	-27691.380000	-16.674761	-17.298905	-18.915623	-24.129768	-29.760152	-16.684166	-15.232930	-19.397126	-5.432560	1.815940	-1.754900	0.821409	0.534117	0.160156	-1.000000	-1.000000	-1.000000	-1.000000	-1.000000	-1.000000	-1.000000	74.206897	0.000000	-1.000000	-1.000000	660700.000000	1773688878.140818
-7200.315000	30133.305000	35115.885000	4849.110000	-12242.340000	16869.825000	-10024.560000	-27719.010000	-5.906312	-4.466558	-6.657614	-14.812695	-23.431047	-8.175007	-11.364342	-13.100594	-5.112100	0.686700	-2.273740	0.820066	0.532408	0.159301	-1.000000	-1.000000	-1.000000	-1.000000	-1.000000	-1.000000	-1.000000	74.206897	0.000000	-1.000000	-1.000000	660701.000000	1773688878.140833
-7194.240000	30148.380000	35130.780000	4866.930000	-12222.855000	16882.290000	-10009.350000	-27725.310000	6.402880	9.205521	7.421236	0.082388	-9.008201	2.060924	-3.086249	-3.787669	-5.112100	0.686700	-2.273740	0.820066	0.532408	0.159301	-1.000000	-1.000000	-1.000000	-1.000000	-1.000000	-1.000000	-1.000000	74.206897	0.000000	-1.000000	-1.000000	660702.000000	1773688878.140839
-7158.825000	30198.060000	35186.850000	4926.420000	-12153.960000	16933.545000	-9974.205000	-27721.620000	14.180086	18.065031	17.470140	13.471934	6.356905	10.494789	5.758989	2.479002	-5.112100	0.686700	-2.273740	0.820066	0.532408	0.159301	-1.000000	-1.000000	-1.000000	-1.000000	-1.000000	-1.000000	-1.000000	74.206897	0.000000	-1.000000	-1.000000	660703.000000	1773688878.145494
-7085.340000	30286.935000	35279.595000	5020.065000	-12062.070000	17019.270000	-9932.400000	-27699.750000	17.068640	22.432746	23.268597	22.629630	19.435859	17.122522	12.955949	5.285192	-5.112100	0.686700	-2.273740	0.820066	0.532408	0.159301	-1.000000	-1.000000	-1.000000	-1.000000	-1.000000	-1.000000	-1.000000	74.206897	0.000000	-1.000000	-1.000000	660704.000000	1773688878.145504
-7059.915000	30299.175000	35285.445000	5019.975000	-12063.465000	17029.665000	-9918.720000	-27685.170000	18.148421	24.449757	26.348851	27.797681	29.064224	22.650851	17.319210	7.715170	-5.112100	0.686700	-2.273740	0.820066	0.532408	0.159301	-1.000000	-1.000000	-1.000000	-1.000000	-1.000000	-1.000000	-1.000000	74.206897	0.000000	-1.000000	-1.000000	660705.000000	1773688878.149840
-7175.475000	30157.515000	35140.410000	4873.140000	-12206.655000	16896.465000	-10007.820000	-27715.680000	16.073388	20.154792	22.123439	24.712582	29.370570	22.233465	15.802951	11.139816	-5.112100	0.686700	-2.273740	0.820066	0.532408	0.159301	-1.000000	-1.000000	-1.000000	-1.000000	-1.000000	-1.000000	-1.000000	74.413793	0.000000	-1.000000	-1.000000	660706.000000	1773688878.149857
-7280.055000	30039.795000	35022.780000	4763.385000	-12309.345000	16788.105000	-10087.065000	-27680.355000	2.857036	0.422396	1.304026	4.686230	11.043761	6.354452	3.921175	13.028139	-5.112100	0.686700	-2.273740	0.820066	0.532408	0.159301	-1.000000	-1.000000	-1.000000	-1.000000	-1.000000	-1.000000	-1.000000	74.413793	0.000000	-1.000000	-1.000000	660707.000000	1773688878.151949
-7255.980000	30068.685000	35051.130000	4794.120000	-12283.920000	16809.750000	-10077.660000	-27667.530000	-22.469623	-32.727587	-33.376939	-29.362797	-22.814352	-24.042742	-16.446688	11.152088	-5.112100	0.686700	-2.273740	0.820066	0.532408	0.159301	-1.000000	-1.000000	-1.000000	-1.000000	-1.000000	-1.000000	-1.000000	74.413793	0.000000	-1.000000	-1.000000	660708.000000	1773688878.151955
-7217.865000	30109.950000	35092.845000	4831.245000	-12251.385000	16843.995000	-10052.235000	-27641.070000	-43.988371	-58.186184	-59.801100	-55.567298	-50.175860	-49.495885	-32.612797	6.759074	-5.112100	0.686700	-2.273740	0.820066	0.532408	0.159301	-1.000000	-1.000000	-1.000000	-1.000000	-1.000000	-1.000000	-1.000000	74.413793	0.000000	-1.000000	-1.000000	660709.000000	1773688878.155905
-7225.020000	30102.120000	35082.945000	4819.050000	-12260.970000	16841.250000	-10019.610000	-27667.260000	-43.215730	-54.725417	-56.235285	-52.753054	-49.654115	-49.172559	-31.148626	1.916083	-5.112100	0.686700	-2.273740	0.820066	0.532408	0.159301	-1.000000	-1.000000	-1.000000	-1.000000	-1.000000	-1.000000	-1.000000	74.413793	0.000000	-1.000000	-1.000000	660710.000000	1773688878.155912
-7230.690000	30090.420000	35071.695000	4808.295000	-12272.220000	16833.510000	-10035.360000	-27742.860000	-18.852511	-22.880731	-23.502255	-22.165903	-22.000614	-22.091134	-11.551929	-4.232177	-4.684820	1.068200	-2.975700	0.821470	0.533995	0.158813	-1.000000	-1.000000	-1.000000	-1.000000	-1.000000	-1.000000	-1.000000	74.413793	0.000000	-1.000000	-1.000000	660711.000000	1773688878.160044
-7211.115000	30115.845000	35099.505000	4833.045000	-12251.205000	16854.300000	-10042.065000	-27722.385000	13.139057	17.048974	17.311625	15.388851	12.495343	13.444872	12.728520	-13.350055	-4.684820	1.068200	-2.975700	0.821470	0.533995	0.158813	-1.000000	-1.000000	-1.000000	-1.000000	-1.000000	-1.000000	-1.000000	74.413793	0.000000	-1.000000	-1.000000	660712.000000	1773688878.160052
-7201.845000	30135.870000	35122.410000	4856.670000	-12227.940000	16878.600000	-10024.650000	-27714.420000	34.521858	43.498560	44.170122	39.212470	33.842840	37.209401	26.640386	-21.737987	-4.684820	1.068200	-2.975700	0.821470	0.533995	0.158813	-1.000000	-1.000000	-1.000000	-1.000000	-1.000000	-1.000000	-1.000000	74.413793	0.000000	-1.000000	-1.000000	660713.000000	1773688878.174670
-7204.950000	30129.930000	35114.265000	4852.935000	-12227.130000	16868.925000	-10027.935000	-27720.090000	37.650851	48.221725	49.045949	43.210189	37.059259	41.617756	25.813347	-22.216703	-4.684820	1.068200	-2.975700	0.821470	0.533995	0.158813	-1.000000	-1.000000	-1.000000	-1.000000	-1.000000	-1.000000	-1.000000	74.413793	0.000000	-1.000000	-1.000000	660714.000000	1773688878.174684
-7195.545000	30131.685000	35114.805000	4853.070000	-12229.290000	16865.685000	-10021.140000	-27707.130000	28.292425	38.014794	38.992979	35.289412	30.657624	33.060346	17.241926	-12.185371	-4.684820	1.068200	-2.975700	0.821470	0.533995	0.158813	-1.000000	-1.000000	-1.000000	-1.000000	-1.000000	-1.000000	-1.000000	74.413793	0.000000	-1.000000	-1.000000	660715.000000	1773688878.174697
-7192.665000	30135.150000	35118.045000	4854.960000	-12226.410000	16873.830000	-10013.355000	-27700.290000	17.287799	24.483945	25.450383	25.461008	23.886511	21.852747	10.113382	3.596175	-4.684820	1.068200	-2.975700	0.821470	0.533995	0.158813	-1.000000	-1.000000	-1.000000	-1.000000	-1.000000	-1.000000	-1.000000	74.413793	0.000000	-1.000000	-1.000000	660716.000000	1773688878.174702
-7190.460000	30141.405000	35124.885000	4860.450000	-12215.745000	16882.065000	-10012.140000	-27705.240000	8.600524	11.852524	12.440997	15.347710	17.080921	11.578643	6.597870	16.597148	-4.684820	1.068200	-2.975700	0.821470	0.533995	0.158813	-1.000000	-1.000000	-1.000000	-1.000000	-1.000000	-1.000000	-1.000000	74.413793	0.000000	-1.000000	-1.000000	660717.000000	1773688878.174708
-7188.525000	30151.890000	35139.195000	4872.780000	-12222.540000	16888.545000	-10017.540000	-27715.905000	-1.102434	-2.453779	-2.427972	1.354311	5.530512	-0.273363	2.033917	20.505602	-4.684820	1.068200	-2.975700	0.821470	0.533995	0.158813	-1.000000	-1.000000	-1.000000	-1.000000	-1.000000	-1.000000	-1.000000	74.413793	0.000000	-1.000000	-1.000000	660718.000000	1773688878.174712
-7185.600000	30159.630000	35145.855000	4876.155000	-12229.290000	16889.040000	-10016.865000	-27717.165000	-12.873037	-17.912144	-18.242426	-15.377348	-11.011497	-13.975904	-7.014845	15.680481	-4.684820	1.068200	-2.975700	0.821470	0.533995	0.158813	-1.000000	-1.000000	-1.000000	-1.000000	-1.000000	-1.000000	-1.000000	74.413793	0.000000	-1.000000	-1.000000	660719.000000	1773688878.175764
-7191.720000	30151.260000	35136.405000	4869.360000	-12219.075000	16888.050000	-10007.280000	-27706.995000	-22.685739	-29.223949	-29.678165	-28.750379	-26.745080	-25.415216	-17.503588	8.089038	-4.684820	1.068200	-2.975700	0.821470	0.533995	0.158813	-1.000000	-1.000000	-1.000000	-1.000000	-1.000000	-1.000000	-1.000000	74.413793	0.000000	-1.000000	-1.000000	660720.000000	1773688878.175784
-7190.415000	30150.900000	35137.260000	4872.735000	-12196.080000	16900.470000	-10001.970000	-27703.170000	-26.820392	-32.946386	-33.638408	-34.592830	-35.073069	-30.685637	-23.008825	2.530490	-4.501700	1.113980	-4.288060	0.824217	0.532103	0.159607	-1.000000	-1.000000	-1.000000	-1.000000	-1.000000	-1.000000	-1.000000	74.413793	0.000000	-1.000000	-1.000000	660721.000000	1773688878.181251
-7188.615000	30151.755000	35139.150000	4880.925000	-12188.205000	16899.705000	-10006.965000	-27689.805000	-24.240597	-29.237386	-30.295096	-31.967967	-32.444311	-28.288902	-20.276308	-0.955416	-4.501700	1.113980	-4.288060	0.824217	0.532103	0.159607	-1.000000	-1.000000	-1.000000	-1.000000	-1.000000	-1.000000	-1.000000	74.413793	0.000000	-1.000000	-1.000000	660722.000000	1773688878.181262
-7179.525000	30155.985000	35141.535000	4889.925000	-12187.620000	16903.980000	-10009.890000	-27697.905000	-14.878368	-18.419988	-19.538967	-20.385031	-19.025529	-17.904686	-10.832660	-3.657271	-4.501700	1.113980	-4.288060	0.824217	0.532103	0.159607	-1.000000	-1.000000	-1.000000	-1.000000	-1.000000	-1.000000	-1.000000	74.413793	0.000000	-1.000000	-1.000000	660723.000000	1773688878.186796
-7175.025000	30160.395000	35147.295000	4893.300000	-12183.840000	16906.815000	-10016.505000	-27716.220000	-0.073423	-1.415802	-2.039680	-1.261019	1.001873	-1.113174	1.489727	-6.406552	-4.501700	1.113980	-4.288060	0.824217	0.532103	0.159607	-1.000000	-1.000000	-1.000000	-1.000000	-1.000000	-1.000000	-1.000000	74.413793	0.000000	-1.000000	-1.000000	660724.000000	1773688878.186808
-7198.605000	30131.685000	35118.180000	4863.330000	-12212.955000	16881.390000	-10023.615000	-27708.165000	14.764247	16.092126	16.298541	18.123629	19.042385	15.727230	11.761616	-9.645492	-4.501700	1.113980	-4.288060	0.824217	0.532103	0.159607	-1.000000	-1.000000	-1.000000	-1.000000	-1.000000	-1.000000	-1.000000	74.413793	0.000000	-1.000000	-1.000000	660725.000000	1773688878.189248
-7194.420000	30137.175000	35123.805000	4867.245000	-12212.145000	16886.925000	-10013.490000	-27702.405000	21.928034	25.095666	25.982209	27.446764	25.859448	23.759469	15.791518	-11.590531	-4.501700	1.113980	-4.288060	0.824217	0.532103	0.159607	-1.000000	-1.000000	-1.000000	-1.000000	-1.000000	-1.000000	-1.000000	74.413793	0.000000	-1.000000	-1.000000	660726.000000	1773688878.189259
-7198.245000	30134.565000	35119.035000	4857.975000	-12226.725000	16870.230000	-10024.020000	-27713.835000	18.277531	21.489825	22.484270	22.467750	19.163645	19.395772	12.898831	-9.445348	-4.501700	1.113980	-4.288060	0.824217	0.532103	0.159607	-1.000000	-1.000000	-1.000000	-1.000000	-1.000000	-1.000000	-1.000000	74.413793	0.000000	-1.000000	-1.000000	660727.000000	1773688878.191808
-7205.445000	30122.505000	35104.680000	4844.250000	-12241.170000	16854.930000	-10033.290000	-27704.970000	7.661661	9.456950	9.917228	8.170737	4.953699	6.852351	5.561159	-2.923287	-4.501700	1.113980	-4.288060	0.824217	0.532103	0.159607	-1.000000	-1.000000	-1.000000	-1.000000	-1.000000	-1.000000	-1.000000	74.413793	0.000000	-1.000000	-1.000000	660728.000000	1773688878.191814
-7202.205000	30136.860000	35124.435000	4863.285000	-12220.515000	16876.125000	-10024.155000	-27706.455000	-3.459027	-3.272318	-3.583977	-6.460354	-8.528660	-6.185977	-2.519540	5.022507	-4.501700	1.113980	-4.288060	0.824217	0.532103	0.159607	-1.000000	-1.000000	-1.000000	-1.000000	-1.000000	-1.000000	-1.000000	74.413793	0.000000	-1.000000	-1.000000	660729.000000	1773688878.197132
-7194.330000	30148.020000	35137.845000	4876.965000	-12205.980000	16890.975000	-10014.930000	-27710.955000	-10.080945	-10.385327	-11.052161	-13.984878	-15.251400	-12.949411	-7.574943	9.969533	-4.501700	1.113980	-4.288060	0.824217	0.532103	0.159607	-1.000000	-1.000000	-1.000000	-1.000000	-1.000000	-1.000000	-1.000000	74.413793	0.000000	-1.000000	-1.000000	660730.000000	1773688878.197143
-7175.295000	30164.625000	35152.920000	4890.105000	-12195.405000	16899.075000	-10008.540000	-27722.880000	-9.914484	-9.279296	-9.584444	-11.647171	-12.756240	-10.502785	-7.241215	9.165367	-3.189340	0.106820	-2.929920	0.822019	0.532713	0.159484	-1.000000	-1.000000	-1.000000	-1.000000	-1.000000	-1.000000	-1.000000	74.413793	0.000000	-1.000000	-1.000000	660731.000000	1773688878.199901
-7186.860000	30146.715000	35132.355000	4869.405000	-12221.280000	16890.030000	-10010.565000	-27706.635000	-4.007549	-1.992931	-1.610878	-2.445653	-3.221891	-1.215241	-2.024887	4.035335	-3.189340	0.106820	-2.929920	0.822019	0.532713	0.159484	-1.000000	-1.000000	-1.000000	-1.000000	-1.000000	-1.000000	-1.000000	74.413793	0.000000	-1.000000	-1.000000	660732.000000	1773688878.199913
-7206.120000	30120.975000	35105.895000	4837.410000	-12268.125000	16873.245000	-10017.405000	-27684.765000	3.166252	5.557971	6.292748	6.588830	6.645291	8.479093	4.572136	-0.779451	-3.189340	0.106820	-2.929920	0.822019	0.532713	0.159484	-1.000000	-1.000000	-1.000000	-1.000000	-1.000000	-1.000000	-1.000000	74.413793	0.000000	-1.000000	-1.000000	660733.000000	1773688878.205725
-7184.610000	30154.410000	35140.095000	4874.850000	-12222.225000	16893.855000	-10017.945000	-27725.715000	7.003643	8.247188	8.730621	9.951218	10.824698	12.714952	8.128317	-2.376875	-3.189340	0.106820	-2.929920	0.822019	0.532713	0.159484	-1.000000	-1.000000	-1.000000	-1.000000	-1.000000	-1.000000	-1.000000	74.413793	0.000000	-1.000000	-1.000000	660734.000000	1773688878.205735
-7151.355000	30201.165000	35188.920000	4930.650000	-12144.915000	16936.785000	-9995.085000	-27744.390000	7.009910	6.650907	6.591818	8.739236	10.725389	10.950114	6.763124	-2.655017	-3.189340	0.106820	-2.929920	0.822019	0.532713	0.159484	-1.000000	-1.000000	-1.000000	-1.000000	-1.000000	-1.000000	-1.000000	74.413793	0.000000	-1.000000	-1.000000	660735.000000	1773688878.210464
-7161.120000	30189.105000	35177.805000	4922.280000	-12142.980000	16929.585000	-9980.055000	-27704.295000	5.451601	4.401017	4.048861	7.293794	11.703320	6.774187	2.660367	-3.380682	-3.189340	0.106820	-2.929920	0.822019	0.532713	0.159484	-1.000000	-1.000000	-1.000000	-1.000000	-1.000000	-1.000000	-1.000000	74.413793	0.000000	-1.000000	-1.000000	660736.000000	1773688878.210475
-7192.890000	30149.280000	35134.560000	4872.060000	-12209.220000	16877.970000	-10008.045000	-27663.075000	2.739245	1.796487	1.576841	5.481981	12.510049	1.735548	-1.152864	-2.061098	-3.189340	0.106820	-2.929920	0.822019	0.532713	0.159484	-1.000000	-1.000000	-1.000000	-1.000000	-1.000000	-1.000000	-1.000000	74.413793	0.000000	-1.000000	-1.000000	660737.000000	1773688878.211801
-7155.675000	30191.535000	35177.805000	4913.145000	-12173.805000	16917.930000	-9982.440000	-27613.170000	-1.925801	-3.130322	-3.205009	-0.186988	6.317259	-5.469698	-4.097024	3.731838	-3.189340	0.106820	-2.929920	0.822019	0.532713	0.159484	-1.000000	-1.000000	-1.000000	-1.000000	-1.000000	-1.000000	-1.000000	74.413793	0.000000	-1.000000	-1.000000	660738.000000	1773688878.211810
-7086.645000	30255.660000	35244.720000	4983.615000	-12097.575000	16992.630000	-9923.085000	-27563.130000	-5.803420	-8.005130	-8.251499	-7.777138	-6.211177	-12.068116	-5.376136	12.334041	-3.189340	0.106820	-2.929920	0.822019	0.532713	0.159484	-1.000000	-1.000000	-1.000000	-1.000000	-1.000000	-1.000000	-1.000000	74.413793	0.000000	-1.000000	-1.000000	660739.000000	1773688878.215894
-7153.695000	30168.225000	35153.955000	4894.290000	-12180.465000	16913.835000	-9990.540000	-27638.280000	-5.435906	-8.681364	-9.142701	-11.493863	-16.210999	-12.591402	-3.688009	17.714528	-3.189340	0.106820	-2.929920	0.822019	0.532713	0.159484	-1.000000	-1.000000	-1.000000	-1.000000	-1.000000	-1.000000	-1.000000	74.413793	0.000000	-1.000000	-1.000000	660740.000000	1773688878.215919
-7251.345000	30062.610000	35046.585000	4784.985000	-12296.025000	16771.365000	-10079.460000	-27716.265000	-4.252200	-7.964278	-8.360457	-12.233498	-20.318115	-9.846983	-2.653448	11.190346	-5.249440	0.961380	-2.716280	0.821165	0.535887	0.158325	-1.000000	-1.000000	-1.000000	-1.000000	-1.000000	-1.000000	-1.000000	74.413793	0.000000	-1.000000	-1.000000	660741.000000	1773688878.221771
-7222.995000	30098.610000	35080.110000	4816.980000	-12271.095000	16764.030000	-10049.625000	-27721.575000	-7.578461	-10.660816	-10.809166	-14.338056	-21.430413	-11.694422	-6.705826	-9.330814	-5.249440	0.961380	-2.716280	0.821165	0.535887	0.158325	-1.000000	-1.000000	-1.000000	-1.000000	-1.000000	-1.000000	-1.000000	74.413793	0.000000	-1.000000	-1.000000	660742.000000	1773688878.221790
-7234.695000	30099.465000	35081.550000	4818.285000	-12264.795000	16825.635000	-10033.695000	-27751.590000	-12.830921	-13.741776	-13.720712	-15.655059	-19.219028	-16.285081	-11.871839	-31.879106	-5.249440	0.961380	-2.716280	0.821165	0.535887	0.158325	-1.000000	-1.000000	-1.000000	-1.000000	-1.000000	-1.000000	-1.000000	74.413793	0.000000	-1.000000	-1.000000	660743.000000	1773688878.223696
-7223.220000	30109.275000	35093.475000	4832.460000	-12249.045000	16873.650000	-10025.505000	-27722.025000	-13.408662	-11.175511	-11.113713	-11.329542	-11.582847	-12.941736	-10.645677	-39.897864	-5.249440	0.961380	-2.716280	0.821165	0.535887	0.158325	-1.000000	-1.000000	-1.000000	-1.000000	-1.000000	-1.000000	-1.000000	74.413793	0.000000	-1.000000	-1.000000	660744.000000	1773688878.223706
-7209.090000	30129.255000	35116.155000	4858.065000	-12221.415000	16894.755000	-10024.245000	-27726.615000	-6.089522	-1.153938	-0.946689	-0.005129	1.411073	3.710108	-1.728645	-27.520412	-5.249440	0.961380	-2.716280	0.821165	0.535887	0.158325	-1.000000	-1.000000	-1.000000	-1.000000	-1.000000	-1.000000	-1.000000	74.413793	0.000000	-1.000000	-1.000000	660745.000000	1773688878.229681
-7214.580000	30124.530000	35113.500000	4855.230000	-12226.005000	16882.515000	-10026.990000	-27702.990000	7.324925	13.469854	14.119067	15.716620	17.602217	26.516698	10.008296	-3.038274	-5.249440	0.961380	-2.716280	0.821165	0.535887	0.158325	-1.000000	-1.000000	-1.000000	-1.000000	-1.000000	-1.000000	-1.000000	74.413793	0.000000	-1.000000	-1.000000	660746.000000	1773688878.229694
-7215.885000	30117.330000	35105.400000	4844.745000	-12231.045000	16880.310000	-10022.220000	-27703.935000	19.346721	24.673535	25.804975	27.688014	29.892963	40.036154	17.631053	19.364987	-5.249440	0.961380	-2.716280	0.821165	0.535887	0.158325	-1.000000	-1.000000	-1.000000	-1.000000	-1.000000	-1.000000	-1.000000	74.413793	0.000000	-1.000000	-1.000000	660747.000000	1773688878.231871
-7197.840000	30140.280000	35127.630000	4865.625000	-12216.960000	16892.010000	-10012.455000	-27695.070000	21.850488	24.562717	25.684151	27.204791	29.710714	33.404962	16.635614	29.980965	-5.249440	0.961380	-2.716280	0.821165	0.535887	0.158325	-1.000000	-1.000000	-1.000000	-1.000000	-1.000000	-1.000000	-1.000000	74.413793	0.000000	-1.000000	-1.000000	660748.000000	1773688878.231881
-7184.115000	30153.240000	35138.205000	4869.855000	-12208.680000	16895.295000	-10016.865000	-27687.555000	15.707395	15.644970	16.107229	16.427456	18.593160	12.242977	9.735147	29.048324	-5.249440	0.961380	-2.716280	0.821165	0.535887	0.158325	-1.000000	-1.000000	-1.000000	-1.000000	-1.000000	-1.000000	-1.000000	74.413793	0.000000	-1.000000	-1.000000	660749.000000	1773688878.235757
-7133.580000	30193.110000	35174.160000	4904.055000	-12174.570000	16928.055000	-9994.545000	-27664.245000	9.891534	8.324754	7.829402	6.582834	7.841600	-6.089114	4.341852	23.387849	-5.249440	0.961380	-2.716280	0.821165	0.535887	0.158325	-1.000000	-1.000000	-1.000000	-1.000000	-1.000000	-1.000000	-1.000000	74.413793	0.000000	-1.000000	-1.000000	660750.000000	1773688878.235778
-7125.435000	30214.350000	35195.940000	4927.815000	-12164.535000	16947.495000	-9974.160000	-27654.075000	9.131953	6.884929	5.595265	3.378205	3.740268	-11.052337	3.511254	17.741571	-4.089680	1.480220	-2.746800	0.821226	0.536376	0.155273	-1.000000	-1.000000	-1.000000	-1.000000	-1.000000	-1.000000	-1.000000	74.413793	0.000000	-1.000000	-1.000000	660751.000000	1773688878.239850
-7207.155000	30140.955000	35123.985000	4861.125000	-12221.865000	16887.285000	-10010.070000	-27733.095000	7.430176	4.511487	2.949170	1.087754	0.441770	-9.085868	2.832093	10.432615	-4.089680	1.480220	-2.746800	0.821226	0.536376	0.155273	-1.000000	-1.000000	-1.000000	-1.000000	-1.000000	-1.000000	-1.000000	74.413793	0.000000	-1.000000	-1.000000	660752.000000	1773688878.239856
-7245.090000	30077.730000	35066.565000	4815.360000	-12259.395000	16835.580000	-10035.135000	-27737.100000	-3.778757	-7.402683	-8.532107	-8.714632	-10.416462	-13.372924	-3.318364	-3.028588	-4.089680	1.480220	-2.746800	0.821226	0.536376	0.155273	-1.000000	-1.000000	-1.000000	-1.000000	-1.000000	-1.000000	-1.000000	74.413793	0.000000	-1.000000	-1.000000	660753.000000	1773688878.248035
-7206.570000	30119.895000	35107.965000	4850.010000	-12246.120000	16862.985000	-10016.685000	-27701.415000	-22.413615	-26.755720	-26.888324	-24.891575	-27.060197	-25.794410	-13.951043	-20.881755	-4.089680	1.480220	-2.746800	0.821226	0.536376	0.155273	-1.000000	-1.000000	-1.000000	-1.000000	-1.000000	-1.000000	-1.000000	74.413793	0.000000	-1.000000	-1.000000	660754.000000	1773688878.248048
-7184.340000	30149.145000	35137.170000	4872.285000	-12227.940000	16881.210000	-10004.580000	-27725.535000	-34.960957	-39.406288	-38.540826	-35.352652	-37.543560	-33.974284	-21.339671	-33.688873	-4.089680	1.480220	-2.746800	0.821226	0.536376	0.155273	-1.000000	-1.000000	-1.000000	-1.000000	-1.000000	-1.000000	-1.000000	74.413793	0.000000	-1.000000	-1.000000	660755.000000	1773688878.251254
-7204.770000	30122.595000	35109.810000	4849.470000	-12233.295000	16865.820000	-10029.465000	-27741.240000	-31.322852	-34.058101	-32.805826	-30.410361	-32.384096	-27.075592	-19.838477	-34.568223	-4.089680	1.480220	-2.746800	0.821226	0.536376	0.155273	-1.000000	-1.000000	-1.000000	-1.000000	-1.000000	-1.000000	-1.000000	74.413793	0.000000	-1.000000	-1.000000	660756.000000	1773688878.251264
-7201.530000	30125.520000	35114.490000	4855.410000	-12225.240000	16869.915000	-10051.605000	-27674.865000	-14.446521	-13.786358	-12.830408	-12.511129	-13.200985	-7.106968	-11.225802	-23.002727	-4.089680	1.480220	-2.746800	0.821226	0.536376	0.155273	-1.000000	-1.000000	-1.000000	-1.000000	-1.000000	-1.000000	-1.000000	74.413793	0.000000	-1.000000	-1.000000	660757.000000	1773688878.254685
-7187.355000	30142.530000	35130.375000	4868.910000	-12205.620000	16883.280000	-10032.075000	-27684.450000	5.994506	10.232263	10.666499	9.239621	11.154628	16.412840	-0.053624	-1.972508	-4.089680	1.480220	-2.746800	0.821226	0.536376	0.155273	-1.000000	-1.000000	-1.000000	-1.000000	-1.000000	-1.000000	-1.000000	74.413793	0.000000	-1.000000	-1.000000	660758.000000	1773688878.254695
-7188.615000	30142.170000	35125.965000	4857.930000	-12213.945000	16877.520000	-10013.445000	-27705.690000	21.053640	27.557396	27.617220	25.580047	30.198774	33.533154	10.418569	19.809175	-4.089680	1.480220	-2.746800	0.821226	0.536376	0.155273	-1.000000	-1.000000	-1.000000	-1.000000	-1.000000	-1.000000	-1.000000	74.413793	0.000000	-1.000000	-1.000000	660759.000000	1773688878.264998
-7181.190000	30152.295000	35134.245000	4866.120000	-12212.505000	16888.140000	-10004.940000	-27717.705000	25.662165	31.923489	31.661960	29.754081	35.534685	36.837843	17.305824	31.031398	-4.089680	1.480220	-2.746800	0.821226	0.536376	0.155273	-1.000000	-1.000000	-1.000000	-1.000000	-1.000000	-1.000000	-1.000000	74.413793	0.000000	-1.000000	-1.000000	660760.000000	1773688878.265009
-7177.815000	30162.510000	35146.755000	4877.010000	-12201.615000	16908.615000	-9990.405000	-27713.340000	21.709517	25.133946	24.402668	22.663431	26.795668	26.675983	18.980237	28.194215	-4.654300	1.312360	-1.617560	0.821592	0.536376	0.154480	-1.000000	-1.000000	-1.000000	-1.000000	-1.000000	-1.000000	-1.000000	74.413793	0.000000	-1.000000	-1.000000	660761.000000	1773688878.265021
-7173.855000	30175.245000	35163.585000	4887.495000	-12183.570000	16929.315000	-9986.040000	-27715.590000	14.685684	14.744171	13.584768	11.747982	11.788419	11.381622	16.188064	16.094552	-4.654300	1.312360	-1.617560	0.821592	0.536376	0.154480	-1.000000	-1.000000	-1.000000	-1.000000	-1.000000	-1.000000	-1.000000	74.413793	0.000000	-1.000000	-1.000000	660762.000000	1773688878.265026
-7151.355000	30198.555000	35186.175000	4918.185000	-12159.765000	16941.105000	-10001.970000	-27717.480000	6.876490	5.251595	4.137983	2.407328	-1.469960	-1.518925	9.591122	0.660313	-4.654300	1.312360	-1.617560	0.821592	0.536376	0.154480	-1.000000	-1.000000	-1.000000	-1.000000	-1.000000	-1.000000	-1.000000	74.413793	0.000000	-1.000000	-1.000000	660763.000000	1773688878.265032
-7186.995000	30143.610000	35128.980000	4877.235000	-12206.340000	16885.845000	-10025.235000	-27667.350000	-2.365622	-4.328343	-4.836191	-5.084571	-10.503038	-11.086059	-0.876105	-12.067407	-4.654300	1.312360	-1.617560	0.821592	0.536376	0.154480	-1.000000	-1.000000	-1.000000	-1.000000	-1.000000	-1.000000	-1.000000	74.413793	0.000000	-1.000000	-1.000000	660764.000000	1773688878.265037
-7192.710000	30133.170000	35119.665000	4872.060000	-12210.480000	16877.610000	-10020.825000	-27670.455000	-12.426851	-15.116192	-14.839519	-11.936488	-16.866866	-19.273628	-12.421871	-16.310457	-4.654300	1.312360	-1.617560	0.821592	0.536376	0.154480	-1.000000	-1.000000	-1.000000	-1.000000	-1.000000	-1.000000	-1.000000	74.413793	0.000000	-1.000000	-1.000000	660765.000000	1773688878.268000
-7197.525000	30120.075000	35104.095000	4845.870000	-12234.690000	16860.690000	-10023.345000	-27673.470000	-19.823380	-23.994749	-23.172406	-17.342888	-20.968944	-24.870216	-18.888260	-12.378505	-4.654300	1.312360	-1.617560	0.821592	0.536376	0.154480	-1.000000	-1.000000	-1.000000	-1.000000	-1.000000	-1.000000	-1.000000	74.413793	0.000000	-1.000000	-1.000000	660766.000000	1773688878.268012
-7210.305000	30109.860000	35091.180000	4829.310000	-12250.845000	16841.835000	-10041.165000	-27727.695000	-21.055280	-26.202259	-25.262894	-19.275188	-21.190813	-24.464550	-17.070995	-6.721012	-4.654300	1.312360	-1.617560	0.821592	0.536376	0.154480	-1.000000	-1.000000	-1.000000	-1.000000	-1.000000	-1.000000	-1.000000	74.413793	0.000000	-1.000000	-1.000000	660767.000000	1773688878.276549
-7196.220000	30140.865000	35125.965000	4866.390000	-12213.585000	16880.760000	-10015.830000	-27727.830000	-15.704154	-19.856271	-19.095965	-16.197975	-16.028611	-16.736896	-9.916812	-4.195393	-4.654300	1.312360	-1.617560	0.821592	0.536376	0.154480	-1.000000	-1.000000	-1.000000	-1.000000	-1.000000	-1.000000	-1.000000	74.413793	0.000000	-1.000000	-1.000000	660768.000000	1773688878.276561
-7185.195000	30160.260000	35147.430000	4884.030000	-12199.500000	16898.355000	-9998.595000	-27695.340000	-5.221706	-5.975981	-5.341830	-6.908872	-4.634233	-2.884462	-1.328092	-3.212024	-4.654300	1.312360	-1.617560	0.821592	0.536376	0.154480	-1.000000	-1.000000	-1.000000	-1.000000	-1.000000	-1.000000	-1.000000	74.413793	0.000000	-1.000000	-1.000000	660769.000000	1773688878.276574
-7135.245000	30224.745000	35213.850000	4950.900000	-12138.660000	16959.870000	-9959.265000	-27708.705000	8.310277	12.212422	12.837782	7.745547	11.226757	13.703955	7.210145	0.302419	-4.654300	1.312360	-1.617560	0.821592	0.536376	0.154480	-1.000000	-1.000000	-1.000000	-1.000000	-1.000000	-1.000000	-1.000000	74.413793	0.000000	-1.000000	-1.000000	660770.000000	1773688878.276579
-7072.245000	30293.010000	35280.585000	5014.035000	-12079.035000	17018.640000	-9921.465000	-27673.470000	21.404233	29.038190	29.434782	23.180949	26.222434	27.814962	14.796212	6.204786	-4.745860	0.900340	-1.632820	0.822080	0.537596	0.153991	-1.000000	-1.000000	-1.000000	-1.000000	-1.000000	-1.000000	-1.000000	74.413793	0.000000	-1.000000	-1.000000	660771.000000	1773688878.280028
-7112.700000	30215.295000	35198.145000	4938.615000	-12144.645000	16954.155000	-9948.735000	-27606.195000	28.456984	36.457647	36.175232	31.247557	32.881599	33.245439	19.121054	11.706618	-4.745860	0.900340	-1.632820	0.822080	0.537596	0.153991	-1.000000	-1.000000	-1.000000	-1.000000	-1.000000	-1.000000	-1.000000	74.413793	0.000000	-1.000000	-1.000000	660772.000000	1773688878.280039
-7261.110000	30031.965000	35012.205000	4752.945000	-12337.695000	16782.705000	-10066.860000	-27664.695000	22.115643	25.539662	24.322395	22.093146	22.766050	23.111293	15.327996	14.039541	-4.745860	0.900340	-1.632820	0.822080	0.537596	0.153991	-1.000000	-1.000000	-1.000000	-1.000000	-1.000000	-1.000000	-1.000000	74.413793	0.000000	-1.000000	-1.000000	660773.000000	1773688878.287745
-7279.965000	30031.515000	35015.670000	4755.600000	-12338.820000	16783.155000	-10089.585000	-27733.095000	-0.292522	-4.612213	-6.461126	-6.045751	-5.706264	-3.551076	0.075597	8.501965	-4.745860	0.900340	-1.632820	0.822080	0.537596	0.153991	-1.000000	-1.000000	-1.000000	-1.000000	-1.000000	-1.000000	-1.000000	74.413793	0.000000	-1.000000	-1.000000	660774.000000	1773688878.287755
-7230.375000	30095.325000	35080.920000	4820.580000	-12264.255000	16838.190000	-10064.430000	-27718.965000	-27.433922	-37.103459	-38.635141	-36.281498	-36.333289	-32.327233	-19.927757	-5.753254	-4.745860	0.900340	-1.632820	0.822080	0.537596	0.153991	-1.000000	-1.000000	-1.000000	-1.000000	-1.000000	-1.000000	-1.000000	74.413793	0.000000	-1.000000	-1.000000	660775.000000	1773688878.288134
-7214.760000	30113.865000	35099.505000	4836.780000	-12253.950000	16855.470000	-10043.280000	-27710.595000	-39.695752	-48.061091	-48.223206	-44.679361	-45.215924	-42.065366	-30.301088	-18.955431	-4.745860	0.900340	-1.632820	0.822080	0.537596	0.153991	-1.000000	-1.000000	-1.000000	-1.000000	-1.000000	-1.000000	-1.000000	74.413793	0.000000	-1.000000	-1.000000	660776.000000	1773688878.288144
-7201.710000	30129.030000	35113.365000	4849.830000	-12247.650000	16871.580000	-10026.180000	-27710.640000	-28.048798	-30.075293	-28.653965	-24.898018	-25.784613	-26.321875	-23.079822	-20.076946	-4.745860	0.900340	-1.632820	0.822080	0.537596	0.153991	-1.000000	-1.000000	-1.000000	-1.000000	-1.000000	-1.000000	-1.000000	74.413793	0.000000	-1.000000	-1.000000	660777.000000	1773688878.292423
-7194.465000	30140.280000	35123.085000	4860.180000	-12226.950000	16870.410000	-10022.985000	-27721.125000	-1.314220	2.918906	4.963180	7.761552	6.739511	1.988004	-3.612662	-9.261171	-4.745860	0.900340	-1.632820	0.822080	0.537596	0.153991	-1.000000	-1.000000	-1.000000	-1.000000	-1.000000	-1.000000	-1.000000	74.413793	0.000000	-1.000000	-1.000000	660778.000000	1773688878.292433
-7188.390000	30146.265000	35131.095000	4872.645000	-12199.320000	16874.910000	-10022.580000	-27709.920000	22.891564	29.587351	30.871632	32.053467	31.714552	23.808947	15.258169	4.687237	-4.745860	0.900340	-1.632820	0.822080	0.537596	0.153991	-1.000000	-1.000000	-1.000000	-1.000000	-1.000000	-1.000000	-1.000000	74.413793	0.000000	-1.000000	-1.000000	660779.000000	1773688878.295880
-7175.970000	30157.200000	35143.560000	4878.720000	-12200.265000	16880.085000	-10023.120000	-27716.670000	31.152538	36.218949	36.105602	35.791805	37.251928	27.998859	23.236594	13.088728	-4.745860	0.900340	-1.632820	0.822080	0.537596	0.153991	-1.000000	-1.000000	-1.000000	-1.000000	-1.000000	-1.000000	-1.000000	74.413793	0.000000	-1.000000	-1.000000	660780.000000	1773688878.295890
-7151.310000	30189.105000	35179.335000	4910.760000	-12179.790000	16910.640000	-10012.905000	-27669.330000	24.087264	26.379727	25.476567	23.860391	26.680284	19.249377	19.993685	12.528675	-5.432560	0.808780	-1.831200	0.822630	0.537291	0.153625	-1.000000	-1.000000	-1.000000	-1.000000	-1.000000	-1.000000	-1.000000	74.413793	0.000000	-1.000000	-1.000000	660781.000000	1773688878.299832
-7128.855000	30228.975000	35221.095000	4953.465000	-12135.420000	16958.205000	-9984.510000	-27661.590000	14.177794	16.121573	15.634644	12.734959	14.624885	12.590495	13.966936	7.508797	-5.432560	0.808780	-1.831200	0.822630	0.537291	0.153625	-1.000000	-1.000000	-1.000000	-1.000000	-1.000000	-1.000000	-1.000000	74.413793	0.000000	-1.000000	-1.000000	660782.000000	1773688878.299842
-7138.710000	30217.185000	35203.770000	4943.880000	-12132.900000	16957.710000	-9992.835000	-27750.780000	9.787274	13.741038	14.226783	10.830220	10.088847	14.878419	11.467559	4.264663	-5.432560	0.808780	-1.831200	0.822630	0.537291	0.153625	-1.000000	-1.000000	-1.000000	-1.000000	-1.000000	-1.000000	-1.000000	74.413793	0.000000	-1.000000	-1.000000	660783.000000	1773688878.303952
-7186.455000	30146.085000	35129.340000	4869.180000	-12211.470000	16883.910000	-10001.700000	-27693.090000	5.653561	9.871335	10.653622	8.563887	5.665282	15.730114	9.129196	2.636513	-5.432560	0.808780	-1.831200	0.822630	0.537291	0.153625	-1.000000	-1.000000	-1.000000	-1.000000	-1.000000	-1.000000	-1.000000	74.413793	0.000000	-1.000000	-1.000000	660784.000000	1773688878.303963
-7238.475000	30081.600000	35063.145000	4803.120000	-12271.905000	16823.880000	-10021.095000	-27654.120000	-6.983274	-7.565660	-7.649992	-7.018701	-10.258971	1.456805	0.339277	1.264720	-5.432560	0.808780	-1.831200	0.822630	0.537291	0.153625	-1.000000	-1.000000	-1.000000	-1.000000	-1.000000	-1.000000	-1.000000	74.413793	0.000000	-1.000000	-1.000000	660785.000000	1773688878.310042
-7228.980000	30099.825000	35083.170000	4825.935000	-12247.470000	16851.780000	-10016.730000	-27692.910000	-26.396942	-35.049327	-36.456058	-33.327089	-35.087136	-26.018867	-14.705994	0.979048	-5.432560	0.808780	-1.831200	0.822630	0.537291	0.153625	-1.000000	-1.000000	-1.000000	-1.000000	-1.000000	-1.000000	-1.000000	74.413793	0.000000	-1.000000	-1.000000	660786.000000	1773688878.310055
-7222.230000	30107.970000	35091.225000	4833.135000	-12247.830000	16857.180000	-10018.890000	-27700.965000	-40.345659	-54.673090	-56.752881	-52.765297	-52.504332	-48.665388	-28.190834	-0.068450	-5.432560	0.808780	-1.831200	0.822630	0.537291	0.153625	-1.000000	-1.000000	-1.000000	-1.000000	-1.000000	-1.000000	-1.000000	74.413793	0.000000	-1.000000	-1.000000	660787.000000	1773688878.312445
-7218.720000	30114.810000	35099.190000	4844.610000	-12239.055000	16860.690000	-10029.465000	-27708.615000	-38.189721	-51.492068	-53.095608	-50.194685	-49.260477	-50.064457	-31.906756	-4.340362	-5.432560	0.808780	-1.831200	0.822630	0.537291	0.153625	-1.000000	-1.000000	-1.000000	-1.000000	-1.000000	-1.000000	-1.000000	74.413793	0.000000	-1.000000	-1.000000	660788.000000	1773688878.312455
-7208.505000	30122.730000	35108.055000	4851.180000	-12232.755000	16866.495000	-10027.350000	-27708.345000	-19.749230	-25.500530	-25.803446	-25.124673	-25.215145	-28.673633	-23.376449	-10.723829	-5.432560	0.808780	-1.831200	0.822630	0.537291	0.153625	-1.000000	-1.000000	-1.000000	-1.000000	-1.000000	-1.000000	-1.000000	74.413793	0.000000	-1.000000	-1.000000	660789.000000	1773688878.320151
-7193.655000	30133.710000	35120.475000	4860.855000	-12224.790000	16870.140000	-10022.220000	-27705.015000	6.880625	11.252185	12.348725	10.829772	9.643012	4.547302	-5.964064	-15.635937	-5.432560	0.808780	-1.831200	0.822630	0.537291	0.153625	-1.000000	-1.000000	-1.000000	-1.000000	-1.000000	-1.000000	-1.000000	74.413793	0.000000	-1.000000	-1.000000	660790.000000	1773688878.320165
-7189.875000	30141.450000	35127.495000	4868.505000	-12215.295000	16874.370000	-10021.635000	-27706.815000	30.724032	42.465565	44.396100	41.440630	40.434088	33.813089	13.215022	-14.563931	-3.753960	1.907500	-1.831200	0.823423	0.534667	0.153930	-1.000000	-1.000000	-1.000000	-1.000000	-1.000000	-1.000000	-1.000000	74.413793	0.000000	-1.000000	-1.000000	660791.000000	1773688878.320179
-7193.340000	30138.345000	35123.355000	4869.585000	-12210.255000	16885.170000	-10016.055000	-27701.820000	42.084496	55.236033	57.194751	53.910010	54.059849	46.770437	26.122705	-4.848058	-3.753960	1.907500	-1.831200	0.823423	0.534667	0.153930	-1.000000	-1.000000	-1.000000	-1.000000	-1.000000	-1.000000	-1.000000	74.413793	0.000000	-1.000000	-1.000000	660792.000000	1773688878.320184
-7183.215000	30150.180000	35134.200000	4876.560000	-12205.575000	16894.035000	-10005.705000	-27693.720000	37.737174	47.307678	48.697665	46.267476	47.572666	41.840932	28.276510	9.264425	-3.753960	1.907500	-1.831200	0.823423	0.534667	0.153930	-1.000000	-1.000000	-1.000000	-1.000000	-1.000000	-1.000000	-1.000000	74.413793	0.000000	-1.000000	-1.000000	660793.000000	1773688878.323753
-7183.485000	30156.885000	35140.860000	4882.635000	-12205.575000	16900.155000	-9996.480000	-27697.680000	22.410313	26.665471	27.211752	26.363118	28.128817	26.183270	20.840592	18.468847	-3.753960	1.907500	-1.831200	0.823423	0.534667	0.153930	-1.000000	-1.000000	-1.000000	-1.000000	-1.000000	-1.000000	-1.000000	74.413793	0.000000	-1.000000	-1.000000	660794.000000	1773688878.323765
-7164.045000	30189.690000	35173.800000	4910.355000	-12180.465000	16926.525000	-9981.855000	-27697.320000	3.603280	3.360502	3.028501	3.587300	4.786985	7.293351	8.529946	17.898019	-3.753960	1.907500	-1.831200	0.823423	0.534667	0.153930	-1.000000	-1.000000	-1.000000	-1.000000	-1.000000	-1.000000	-1.000000	74.413793	0.000000	-1.000000	-1.000000	660795.000000	1773688878.327840
-7139.835000	30214.485000	35196.930000	4927.365000	-12161.565000	16930.305000	-9991.530000	-27678.870000	-12.565585	-15.553259	-16.616096	-15.590518	-15.598825	-10.001309	-3.587865	10.576268	-3.753960	1.907500	-1.831200	0.823423	0.534667	0.153930	-1.000000	-1.000000	-1.000000	-1.000000	-1.000000	-1.000000	-1.000000	74.413793	0.000000	-1.000000	-1.000000	660796.000000	1773688878.327853
