Channel1	Channel2	Channel3	Channel4	Channel5	Channel6	Channel7	Channel8	FilteredChannel1	FilteredChannel2	FilteredChannel3	FilteredChannel4	FilteredChannel5	FilteredChannel6	FilteredChannel7	FilteredChannel8	GyroX	GyroY	GyroZ	AccX	AccY	AccZ	PPG1	PPG2	rawPPG1	rawPPG2	rawPPG3	Hr	Hrv	Battery	Trigger	PhysicalTrigger	AutoTrigger	NumMeasurements	Timestamp
-8640.090000	-13740.930000	4664.070000	-1566.180000	-23119.830000	-16927.515000	-306.990000	-8564.580000	13.512159	-1.089666	-8.310670	-9.888392	-11.393799	-12.581343	-15.194594	7.712587	-1.495480	5.707240	2.456860	0.744749	-0.046448	0.634703	-1.000000	-1.000000	-1.000000	-1.000000	-1.000000	-1.000000	-1.000000	83.103448	0.000000	-1.000000	-1.000000	898171.000000	1772895508.124616
-8636.895000	-13746.330000	4661.415000	-1569.240000	-23121.090000	-16925.130000	-307.980000	-8573.490000	3.440594	1.389427	-4.228850	-3.694827	-5.737206	-6.619403	-8.979338	-1.475067	-1.495480	5.707240	2.456860	0.744749	-0.046448	0.634703	-1.000000	-1.000000	-1.000000	-1.000000	-1.000000	-1.000000	-1.000000	83.103448	0.000000	-1.000000	-1.000000	898172.000000	1772895508.124626
-8636.940000	-13753.530000	4647.960000	-1570.950000	-23119.695000	-16919.820000	-303.480000	-8549.190000	-9.157123	1.494717	-0.020491	2.454122	0.664504	0.451065	-1.431091	-11.042113	-1.495480	5.707240	2.456860	0.744749	-0.046448	0.634703	-1.000000	-1.000000	-1.000000	-1.000000	-1.000000	-1.000000	-1.000000	83.103448	0.000000	-1.000000	-1.000000	898173.000000	1772895508.128630
-8651.790000	-13759.965000	4643.640000	-1575.630000	-23122.665000	-16921.350000	-299.790000	-8538.345000	-19.081931	-0.668025	2.339984	5.913969	5.413650	6.210327	5.888734	-15.592174	-1.495480	5.707240	2.456860	0.744749	-0.046448	0.634703	-1.000000	-1.000000	-1.000000	-1.000000	-1.000000	-1.000000	-1.000000	83.103448	0.000000	-1.000000	-1.000000	898174.000000	1772895508.128639
-8695.620000	-13775.130000	4640.670000	-1584.540000	-23129.775000	-16929.180000	-307.620000	-8556.840000	-22.704018	-2.875114	2.715902	6.201125	7.605092	9.461647	12.218182	-12.598181	-1.495480	5.707240	2.456860	0.744749	-0.046448	0.634703	-1.000000	-1.000000	-1.000000	-1.000000	-1.000000	-1.000000	-1.000000	83.103448	0.000000	-1.000000	-1.000000	898175.000000	1772895508.132615
-8672.760000	-13779.405000	4636.350000	-1596.105000	-23143.005000	-16947.765000	-318.015000	-8545.140000	-19.273804	-3.049192	2.681259	4.624134	7.529171	9.730104	15.630461	-4.672098	-1.495480	5.707240	2.456860	0.744749	-0.046448	0.634703	-1.000000	-1.000000	-1.000000	-1.000000	-1.000000	-1.000000	-1.000000	83.103448	0.000000	-1.000000	-1.000000	898176.000000	1772895508.132624
-8639.280000	-13758.705000	4653.135000	-1587.555000	-23135.580000	-16940.520000	-296.280000	-8520.975000	-9.473715	-1.067108	3.235903	2.357212	5.356332	6.574477	13.597609	3.708216	-1.495480	5.707240	2.456860	0.744749	-0.046448	0.634703	-1.000000	-1.000000	-1.000000	-1.000000	-1.000000	-1.000000	-1.000000	83.103448	0.000000	-1.000000	-1.000000	898177.000000	1772895508.139526
-8631.000000	-13746.015000	4648.095000	-1589.490000	-23132.610000	-16933.230000	-288.270000	-8531.370000	4.693603	2.112216	4.021798	0.013634	1.722248	1.161536	6.904370	9.664821	-1.495480	5.707240	2.456860	0.744749	-0.046448	0.634703	-1.000000	-1.000000	-1.000000	-1.000000	-1.000000	-1.000000	-1.000000	83.103448	0.000000	-1.000000	-1.000000	898178.000000	1772895508.139535
-8633.790000	-13743.765000	4639.410000	-1591.920000	-23136.795000	-16938.495000	-313.380000	-8551.215000	18.550237	5.239659	3.903082	-1.883788	-1.699754	-3.413602	-0.827828	11.356816	-1.495480	5.707240	2.456860	0.744749	-0.046448	0.634703	-1.000000	-1.000000	-1.000000	-1.000000	-1.000000	-1.000000	-1.000000	83.103448	0.000000	-1.000000	-1.000000	898179.000000	1772895508.141360
-8618.310000	-13727.835000	4676.625000	-1553.490000	-23106.915000	-16916.580000	-320.310000	-8548.245000	26.192001	6.741688	2.343361	-2.571252	-3.338595	-4.939099	-7.450668	8.378429	-1.495480	5.707240	2.456860	0.744749	-0.046448	0.634703	-1.000000	-1.000000	-1.000000	-1.000000	-1.000000	-1.000000	-1.000000	83.103448	0.000000	-1.000000	-1.000000	898180.000000	1772895508.141368
-8622.495000	-13737.915000	4683.555000	-1549.215000	-23102.235000	-16913.700000	-319.680000	-8551.125000	23.810435	5.570343	0.731769	-1.039567	-2.486479	-3.527887	-12.255162	2.540839	-7.446880	2.746800	0.747740	0.746641	-0.045959	0.637389	-1.000000	-1.000000	-1.000000	-1.000000	-1.000000	-1.000000	-1.000000	83.103448	0.000000	-1.000000	-1.000000	898181.000000	1772895508.144622
-8627.445000	-13739.940000	4680.945000	-1562.760000	-23115.555000	-16922.565000	-305.415000	-8550.495000	12.036296	1.963693	0.515957	2.063310	-0.063316	-0.919349	-13.441357	-3.896813	-7.446880	2.746800	0.747740	0.746641	-0.045959	0.637389	-1.000000	-1.000000	-1.000000	-1.000000	-1.000000	-1.000000	-1.000000	83.103448	0.000000	-1.000000	-1.000000	898182.000000	1772895508.144629
-8652.420000	-13757.040000	4661.280000	-1579.455000	-23128.020000	-16928.370000	-281.115000	-8553.645000	-3.809727	-2.615886	0.701552	3.800832	1.474552	0.796348	-8.888810	-8.875546	-7.446880	2.746800	0.747740	0.746641	-0.045959	0.637389	-1.000000	-1.000000	-1.000000	-1.000000	-1.000000	-1.000000	-1.000000	83.103448	0.000000	-1.000000	-1.000000	898183.000000	1772895508.148595
-8665.065000	-13762.170000	4653.405000	-1587.375000	-23133.780000	-16933.320000	-275.625000	-8552.565000	-16.568160	-6.112173	-0.715270	2.272496	0.762906	0.976465	0.880429	-10.154127	-7.446880	2.746800	0.747740	0.746641	-0.045959	0.637389	-1.000000	-1.000000	-1.000000	-1.000000	-1.000000	-1.000000	-1.000000	83.103448	0.000000	-1.000000	-1.000000	898184.000000	1772895508.148627
-8632.530000	-13744.620000	4663.755000	-1577.340000	-23123.205000	-16925.940000	-287.055000	-8527.050000	-21.486172	-6.970142	-3.795243	-1.203316	-1.048864	0.566184	10.903394	-6.822569	-7.446880	2.746800	0.747740	0.746641	-0.045959	0.637389	-1.000000	-1.000000	-1.000000	-1.000000	-1.000000	-1.000000	-1.000000	83.103448	0.000000	-1.000000	-1.000000	898185.000000	1772895508.158335
-8618.715000	-13755.015000	4662.585000	-1573.335000	-23116.545000	-16919.865000	-289.620000	-8533.710000	-17.909069	-5.298013	-6.541284	-3.912469	-2.067932	0.395232	14.401868	-0.604923	-7.446880	2.746800	0.747740	0.746641	-0.045959	0.637389	-1.000000	-1.000000	-1.000000	-1.000000	-1.000000	-1.000000	-1.000000	83.103448	0.000000	-1.000000	-1.000000	898186.000000	1772895508.158344
-8618.265000	-13774.860000	4651.605000	-1576.440000	-23116.995000	-16913.925000	-271.530000	-8549.145000	-8.366794	-3.136250	-7.081543	-4.315136	-1.559869	0.508463	9.304873	5.107349	-7.446880	2.746800	0.747740	0.746641	-0.045959	0.637389	-1.000000	-1.000000	-1.000000	-1.000000	-1.000000	-1.000000	-1.000000	83.103448	0.000000	-1.000000	-1.000000	898187.000000	1772895508.158352
-8627.670000	-13781.340000	4641.435000	-1583.775000	-23124.420000	-16921.935000	-273.465000	-8548.920000	2.527216	-2.497304	-5.365802	-3.060798	-0.417301	0.468164	0.470404	7.784116	-7.446880	2.746800	0.747740	0.746641	-0.045959	0.637389	-1.000000	-1.000000	-1.000000	-1.000000	-1.000000	-1.000000	-1.000000	83.103448	0.000000	-1.000000	-1.000000	898188.000000	1772895508.158356
-8664.840000	-13768.425000	4644.090000	-1588.905000	-23133.465000	-16934.715000	-291.330000	-8543.340000	9.184330	-2.891058	-3.043265	-2.256908	-0.528659	-0.763558	-6.292681	7.188277	-7.446880	2.746800	0.747740	0.746641	-0.045959	0.637389	-1.000000	-1.000000	-1.000000	-1.000000	-1.000000	-1.000000	-1.000000	83.103448	0.000000	-1.000000	-1.000000	898189.000000	1772895508.160665
-8635.635000	-13753.530000	4648.545000	-1590.975000	-23139.855000	-16942.860000	-314.775000	-8523.000000	8.667611	-1.560571	-1.130255	-2.792413	-2.565825	-3.614051	-9.564488	4.584628	-7.446880	2.746800	0.747740	0.746641	-0.045959	0.637389	-1.000000	-1.000000	-1.000000	-1.000000	-1.000000	-1.000000	-1.000000	83.103448	0.000000	-1.000000	-1.000000	898190.000000	1772895508.160675
-8634.285000	-13751.730000	4654.215000	-1582.830000	-23131.035000	-16936.380000	-309.420000	-8532.855000	4.276333	3.269254	1.372606	-2.675598	-4.280871	-6.079933	-10.602997	1.472162	-4.928980	2.090620	0.885080	0.747923	-0.053161	0.640806	-1.000000	-1.000000	-1.000000	-1.000000	-1.000000	-1.000000	-1.000000	83.103448	0.000000	-1.000000	-1.000000	898191.000000	1772895508.164599
-8648.730000	-13755.870000	4653.360000	-1583.865000	-23131.395000	-16936.920000	-301.230000	-8547.165000	1.768693	9.791871	5.435678	0.507839	-2.607739	-5.153313	-9.588483	-1.474420	-4.928980	2.090620	0.885080	0.747923	-0.053161	0.640806	-1.000000	-1.000000	-1.000000	-1.000000	-1.000000	-1.000000	-1.000000	83.103448	0.000000	-1.000000	-1.000000	898192.000000	1772895508.164606
-8673.840000	-13763.295000	4650.480000	-1586.070000	-23130.945000	-16934.175000	-287.685000	-8553.555000	2.167355	13.631241	9.669169	6.004568	2.505406	-0.275776	-5.384967	-4.493181	-4.928980	2.090620	0.885080	0.747923	-0.053161	0.640806	-1.000000	-1.000000	-1.000000	-1.000000	-1.000000	-1.000000	-1.000000	83.103448	0.000000	-1.000000	-1.000000	898193.000000	1772895508.168768
-8664.345000	-13765.905000	4643.820000	-1593.315000	-23135.445000	-16938.405000	-290.430000	-8555.490000	1.670619	11.135822	10.809837	9.828186	7.431265	5.592630	1.857552	-7.528201	-4.928980	2.090620	0.885080	0.747923	-0.053161	0.640806	-1.000000	-1.000000	-1.000000	-1.000000	-1.000000	-1.000000	-1.000000	83.103448	0.000000	-1.000000	-1.000000	898194.000000	1772895508.168775
-8640.180000	-13755.150000	4657.095000	-1579.770000	-23122.710000	-16926.750000	-289.665000	-8557.380000	-1.485308	2.977147	7.207793	8.779323	8.487715	8.611042	9.113281	-9.021560	-4.928980	2.090620	0.885080	0.747923	-0.053161	0.640806	-1.000000	-1.000000	-1.000000	-1.000000	-1.000000	-1.000000	-1.000000	83.103448	0.000000	-1.000000	-1.000000	898195.000000	1772895508.172630
-8609.580000	-13750.920000	4661.100000	-1574.640000	-23119.830000	-16920.675000	-286.155000	-8535.150000	-3.705553	-5.591151	1.248126	3.843445	5.508391	7.529675	12.493369	-6.377023	-4.928980	2.090620	0.885080	0.747923	-0.053161	0.640806	-1.000000	-1.000000	-1.000000	-1.000000	-1.000000	-1.000000	-1.000000	83.103448	0.000000	-1.000000	-1.000000	898196.000000	1772895508.172638
-8633.070000	-13748.670000	4663.845000	-1570.905000	-23120.640000	-16919.100000	-288.315000	-8529.975000	-1.445325	-9.722698	-3.450990	-1.547057	0.947893	3.950493	10.663979	1.005503	-4.928980	2.090620	0.885080	0.747923	-0.053161	0.640806	-1.000000	-1.000000	-1.000000	-1.000000	-1.000000	-1.000000	-1.000000	83.103448	0.000000	-1.000000	-1.000000	898197.000000	1772895508.178075
-8685.090000	-13746.195000	4669.155000	-1564.020000	-23110.695000	-16914.375000	-297.360000	-8554.500000	2.795152	-8.950253	-5.576853	-4.895401	-2.765466	0.196994	5.508450	8.962703	-4.928980	2.090620	0.885080	0.747923	-0.053161	0.640806	-1.000000	-1.000000	-1.000000	-1.000000	-1.000000	-1.000000	-1.000000	83.103448	0.000000	-1.000000	-1.000000	898198.000000	1772895508.178083
-8678.520000	-13765.320000	4650.120000	-1583.775000	-23128.380000	-16931.295000	-304.200000	-8554.905000	3.150501	-6.003299	-5.936367	-5.699222	-4.399544	-2.379950	-0.103451	11.311690	-4.928980	2.090620	0.885080	0.747923	-0.053161	0.640806	-1.000000	-1.000000	-1.000000	-1.000000	-1.000000	-1.000000	-1.000000	83.103448	0.000000	-1.000000	-1.000000	898199.000000	1772895508.185538
-8652.465000	-13764.285000	4651.335000	-1582.380000	-23129.595000	-16933.950000	-303.165000	-8556.885000	-1.031850	-3.484734	-5.738938	-5.041041	-4.417676	-3.978177	-4.461853	6.576881	-4.928980	2.090620	0.885080	0.747923	-0.053161	0.640806	-1.000000	-1.000000	-1.000000	-1.000000	-1.000000	-1.000000	-1.000000	83.103448	0.000000	-1.000000	-1.000000	898200.000000	1772895508.185547
-8666.370000	-13766.805000	4649.850000	-1584.180000	-23133.825000	-16938.630000	-308.655000	-8576.415000	-4.105382	-1.712717	-5.097320	-3.901585	-3.891388	-5.093950	-7.167889	-0.932914	0.061040	1.922760	1.510740	0.748350	-0.060730	0.642027	-1.000000	-1.000000	-1.000000	-1.000000	-1.000000	-1.000000	-1.000000	83.103448	0.000000	-1.000000	-1.000000	898201.000000	1772895508.185557
-8656.965000	-13748.400000	4668.435000	-1566.180000	-23114.745000	-16919.145000	-288.180000	-8549.865000	-2.450501	0.478051	-3.053236	-2.043129	-2.837057	-5.109063	-7.839289	-6.214325	0.061040	1.922760	1.510740	0.748350	-0.060730	0.642027	-1.000000	-1.000000	-1.000000	-1.000000	-1.000000	-1.000000	-1.000000	83.103448	0.000000	-1.000000	-1.000000	898202.000000	1772895508.185562
-8610.705000	-13729.635000	4688.730000	-1546.290000	-23093.010000	-16894.080000	-264.780000	-8528.400000	2.214875	3.735070	0.945348	1.045509	-0.494920	-2.824124	-5.399829	-6.298339	0.061040	1.922760	1.510740	0.748350	-0.060730	0.642027	-1.000000	-1.000000	-1.000000	-1.000000	-1.000000	-1.000000	-1.000000	83.103448	0.000000	-1.000000	-1.000000	898203.000000	1772895508.188718
-8595.990000	-13739.760000	4668.255000	-1565.820000	-23111.055000	-16908.750000	-283.635000	-8559.405000	6.606079	7.037129	5.471011	4.346216	2.676090	1.340103	-0.126034	-1.623407	0.061040	1.922760	1.510740	0.748350	-0.060730	0.642027	-1.000000	-1.000000	-1.000000	-1.000000	-1.000000	-1.000000	-1.000000	83.103448	0.000000	-1.000000	-1.000000	898204.000000	1772895508.188726
-8643.555000	-13755.330000	4647.285000	-1585.035000	-23128.920000	-16924.950000	-295.605000	-8565.930000	7.319626	7.703271	6.987730	4.904918	4.034297	4.220916	4.508011	3.006507	0.061040	1.922760	1.510740	0.748350	-0.060730	0.642027	-1.000000	-1.000000	-1.000000	-1.000000	-1.000000	-1.000000	-1.000000	83.103448	0.000000	-1.000000	-1.000000	898205.000000	1772895508.192720
-8673.165000	-13758.705000	4638.510000	-1595.790000	-23142.105000	-16937.505000	-296.100000	-8524.305000	2.251746	3.877354	3.179773	0.923594	1.480613	2.928604	5.197334	3.794370	0.061040	1.922760	1.510740	0.748350	-0.060730	0.642027	-1.000000	-1.000000	-1.000000	-1.000000	-1.000000	-1.000000	-1.000000	83.103448	0.000000	-1.000000	-1.000000	898206.000000	1772895508.192729
-8653.140000	-13735.530000	4661.145000	-1579.095000	-23129.100000	-16923.600000	-276.930000	-8506.215000	-5.602379	-2.386785	-3.396258	-4.986792	-3.312207	-1.359563	2.908120	2.813464	0.061040	1.922760	1.510740	0.748350	-0.060730	0.642027	-1.000000	-1.000000	-1.000000	-1.000000	-1.000000	-1.000000	-1.000000	83.103448	0.000000	-1.000000	-1.000000	898207.000000	1772895508.196716
-8633.070000	-13751.865000	4663.440000	-1573.965000	-23122.530000	-16921.530000	-292.140000	-8509.725000	-9.938159	-6.434589	-6.955741	-7.472523	-5.847379	-4.263366	0.792981	3.180031	0.061040	1.922760	1.510740	0.748350	-0.060730	0.642027	-1.000000	-1.000000	-1.000000	-1.000000	-1.000000	-1.000000	-1.000000	83.103448	0.000000	-1.000000	-1.000000	898208.000000	1772895508.196723
-8643.870000	-13755.690000	4661.685000	-1571.580000	-23118.300000	-16921.530000	-301.095000	-8500.590000	-7.863359	-6.013974	-4.484736	-3.868408	-3.284369	-2.895598	-0.321466	4.230477	0.061040	1.922760	1.510740	0.748350	-0.060730	0.642027	-1.000000	-1.000000	-1.000000	-1.000000	-1.000000	-1.000000	-1.000000	83.103448	0.000000	-1.000000	-1.000000	898209.000000	1772895508.200776
-8644.770000	-13735.620000	4675.185000	-1559.655000	-23107.590000	-16913.070000	-296.145000	-8527.500000	-1.880902	-2.589692	1.603275	3.256627	2.745612	1.482971	-1.566212	3.468326	0.061040	1.922760	1.510740	0.748350	-0.060730	0.642027	-1.000000	-1.000000	-1.000000	-1.000000	-1.000000	-1.000000	-1.000000	83.103448	0.000000	-1.000000	-1.000000	898210.000000	1772895508.200783
-8627.490000	-13739.220000	4676.445000	-1560.870000	-23111.055000	-16914.150000	-295.380000	-8569.890000	3.535816	1.228282	6.576089	8.788629	7.698841	5.145666	-3.262616	-1.543118	1.938020	2.121140	1.785420	0.748777	-0.060181	0.639952	-1.000000	-1.000000	-1.000000	-1.000000	-1.000000	-1.000000	-1.000000	83.103448	0.000000	-1.000000	-1.000000	898211.000000	1772895508.205961
-8599.365000	-13735.305000	4678.605000	-1561.725000	-23113.800000	-16916.445000	-300.060000	-8541.270000	5.358347	3.150975	7.178896	8.991768	7.735551	5.023494	-4.698367	-10.273681	1.938020	2.121140	1.785420	0.748777	-0.060181	0.639952	-1.000000	-1.000000	-1.000000	-1.000000	-1.000000	-1.000000	-1.000000	83.103448	0.000000	-1.000000	-1.000000	898212.000000	1772895508.205969
-8619.255000	-13737.240000	4672.350000	-1567.755000	-23119.110000	-16918.515000	-302.580000	-8546.265000	3.479403	2.584122	3.703271	4.162916	2.968272	1.334032	-4.660025	-16.336335	1.938020	2.121140	1.785420	0.748777	-0.060181	0.639952	-1.000000	-1.000000	-1.000000	-1.000000	-1.000000	-1.000000	-1.000000	83.103448	0.000000	-1.000000	-1.000000	898213.000000	1772895508.208608
-8644.905000	-13758.435000	4648.860000	-1588.500000	-23137.020000	-16934.625000	-314.865000	-8575.515000	0.234013	0.781225	-1.055667	-2.159014	-2.931469	-2.790261	-2.271336	-14.213101	1.938020	2.121140	1.785420	0.748777	-0.060181	0.639952	-1.000000	-1.000000	-1.000000	-1.000000	-1.000000	-1.000000	-1.000000	83.103448	0.000000	-1.000000	-1.000000	898214.000000	1772895508.208615
-8638.425000	-13778.280000	4628.385000	-1608.750000	-23155.695000	-16953.480000	-320.130000	-8561.565000	-1.517327	-1.559656	-5.209400	-7.019497	-6.817416	-4.971692	1.434231	-6.200665	1.938020	2.121140	1.785420	0.748777	-0.060181	0.639952	-1.000000	-1.000000	-1.000000	-1.000000	-1.000000	-1.000000	-1.000000	83.103448	0.000000	-1.000000	-1.000000	898215.000000	1772895508.212668
-8645.895000	-13788.630000	4623.120000	-1613.520000	-23161.725000	-16961.580000	-322.695000	-8548.290000	-1.055999	-4.480322	-8.379528	-9.532650	-8.080600	-5.317262	4.132344	2.503872	1.938020	2.121140	1.785420	0.748777	-0.060181	0.639952	-1.000000	-1.000000	-1.000000	-1.000000	-1.000000	-1.000000	-1.000000	83.103448	0.000000	-1.000000	-1.000000	898216.000000	1772895508.212676
-8622.000000	-13774.635000	4636.305000	-1598.760000	-23147.145000	-16946.415000	-306.405000	-8546.085000	-0.052593	-6.261721	-9.337361	-9.038363	-6.842020	-4.260898	4.966501	9.435191	1.938020	2.121140	1.785420	0.748777	-0.060181	0.639952	-1.000000	-1.000000	-1.000000	-1.000000	-1.000000	-1.000000	-1.000000	83.103448	0.000000	-1.000000	-1.000000	898217.000000	1772895508.216524
-8619.390000	-13746.015000	4664.970000	-1572.750000	-23122.980000	-16925.220000	-291.555000	-8548.605000	0.753153	-3.882802	-5.853977	-4.477117	-2.655606	-1.070352	5.234169	13.649826	1.938020	2.121140	1.785420	0.748777	-0.060181	0.639952	-1.000000	-1.000000	-1.000000	-1.000000	-1.000000	-1.000000	-1.000000	83.103448	0.000000	-1.000000	-1.000000	898218.000000	1772895508.216528
-8635.815000	-13742.640000	4664.610000	-1578.105000	-23128.920000	-16932.735000	-299.160000	-8546.805000	1.548812	2.796945	1.931871	3.215411	3.691971	3.954190	5.534749	14.531286	1.938020	2.121140	1.785420	0.748777	-0.060181	0.639952	-1.000000	-1.000000	-1.000000	-1.000000	-1.000000	-1.000000	-1.000000	83.103448	0.000000	-1.000000	-1.000000	898219.000000	1772895508.220658
-8645.895000	-13752.540000	4654.845000	-1586.340000	-23134.005000	-16933.095000	-293.940000	-8536.905000	0.570129	9.410903	9.622845	9.811000	8.816423	7.837451	4.404956	12.372777	1.938020	2.121140	1.785420	0.748777	-0.060181	0.639952	-1.000000	-1.000000	-1.000000	-1.000000	-1.000000	-1.000000	-1.000000	83.103448	0.000000	-1.000000	-1.000000	898220.000000	1772895508.220666
-8657.055000	-13752.630000	4661.685000	-1583.775000	-23128.920000	-16924.320000	-289.890000	-8542.440000	-3.742749	11.063112	12.305677	11.271817	9.620512	7.943091	1.174262	7.668069	-0.824040	2.182180	0.991900	0.750181	-0.054626	0.639586	-1.000000	-1.000000	-1.000000	-1.000000	-1.000000	-1.000000	-1.000000	83.103448	0.000000	-1.000000	-1.000000	898221.000000	1772895508.224715
-8635.320000	-13735.170000	4679.910000	-1561.230000	-23110.560000	-16911.765000	-302.580000	-8558.505000	-8.132404	7.237275	9.648486	8.032907	6.763425	5.106376	-2.601380	0.811427	-0.824040	2.182180	0.991900	0.750181	-0.054626	0.639586	-1.000000	-1.000000	-1.000000	-1.000000	-1.000000	-1.000000	-1.000000	83.103448	0.000000	-1.000000	-1.000000	898222.000000	1772895508.224723
-8640.945000	-13736.205000	4676.580000	-1553.220000	-23100.615000	-16904.295000	-310.500000	-8580.915000	-6.613958	1.772392	5.255545	4.105076	3.614687	2.268033	-5.257573	-6.950173	-0.824040	2.182180	0.991900	0.750181	-0.054626	0.639586	-1.000000	-1.000000	-1.000000	-1.000000	-1.000000	-1.000000	-1.000000	83.103448	0.000000	-1.000000	-1.000000	898223.000000	1772895508.228710
-8661.600000	-13758.660000	4655.295000	-1570.455000	-23117.805000	-16921.080000	-315.585000	-8587.440000	1.282148	-2.042013	1.521665	1.973824	2.018544	0.904642	-6.277848	-13.726781	-0.824040	2.182180	0.991900	0.750181	-0.054626	0.639586	-1.000000	-1.000000	-1.000000	-1.000000	-1.000000	-1.000000	-1.000000	83.103448	0.000000	-1.000000	-1.000000	898224.000000	1772895508.228723
-8670.555000	-13751.595000	4667.490000	-1560.285000	-23108.715000	-16915.140000	-304.065000	-8555.085000	8.769843	-4.141734	-2.055341	0.347291	0.574016	-0.211354	-5.631540	-16.897724	-0.824040	2.182180	0.991900	0.750181	-0.054626	0.639586	-1.000000	-1.000000	-1.000000	-1.000000	-1.000000	-1.000000	-1.000000	83.103448	0.000000	-1.000000	-1.000000	898225.000000	1772895508.232519
-8667.720000	-13743.585000	4674.600000	-1558.170000	-23108.310000	-16913.205000	-288.495000	-8536.860000	9.768480	-5.448999	-5.872091	-2.746748	-2.581417	-2.696775	-3.317127	-13.305571	-0.824040	2.182180	0.991900	0.750181	-0.054626	0.639586	-1.000000	-1.000000	-1.000000	-1.000000	-1.000000	-1.000000	-1.000000	83.103448	0.000000	-1.000000	-1.000000	898226.000000	1772895508.232524
-8645.895000	-13775.625000	4634.550000	-1596.780000	-23143.230000	-16941.465000	-279.495000	-8528.490000	5.025176	-6.756292	-9.536977	-7.725372	-7.684052	-6.737757	0.163798	-2.749371	-0.824040	2.182180	0.991900	0.750181	-0.054626	0.639586	-1.000000	-1.000000	-1.000000	-1.000000	-1.000000	-1.000000	-1.000000	83.103448	0.000000	-1.000000	-1.000000	898227.000000	1772895508.236652
-8628.795000	-13767.165000	4641.255000	-1590.615000	-23136.930000	-16940.385000	-286.920000	-8524.080000	0.056586	-8.480779	-12.566419	-13.188707	-13.080857	-10.972264	3.394000	9.822625	-0.824040	2.182180	0.991900	0.750181	-0.054626	0.639586	-1.000000	-1.000000	-1.000000	-1.000000	-1.000000	-1.000000	-1.000000	83.103448	0.000000	-1.000000	-1.000000	898228.000000	1772895508.236657
-8603.595000	-13747.905000	4659.210000	-1576.125000	-23125.365000	-16929.090000	-284.535000	-8517.555000	-0.884861	-8.534457	-12.562965	-15.171102	-14.867619	-12.380614	4.669610	17.493769	-0.824040	2.182180	0.991900	0.750181	-0.054626	0.639586	-1.000000	-1.000000	-1.000000	-1.000000	-1.000000	-1.000000	-1.000000	83.103448	0.000000	-1.000000	-1.000000	898229.000000	1772895508.241077
-8620.740000	-13756.995000	4659.345000	-1572.570000	-23121.540000	-16923.690000	-284.760000	-8534.565000	1.690283	-4.284056	-6.923903	-10.171973	-9.911322	-8.437940	3.503228	16.313562	-0.824040	2.182180	0.991900	0.750181	-0.054626	0.639586	-1.000000	-1.000000	-1.000000	-1.000000	-1.000000	-1.000000	-1.000000	83.103448	0.000000	-1.000000	-1.000000	898230.000000	1772895508.241084
-8656.965000	-13767.165000	4650.300000	-1579.275000	-23126.400000	-16929.630000	-293.040000	-8553.375000	3.323095	2.715221	2.533643	-0.001866	-0.039859	-0.312107	1.163529	7.509070	-4.578000	1.556520	-0.030520	0.744871	-0.049805	0.644530	-1.000000	-1.000000	-1.000000	-1.000000	-1.000000	-1.000000	-1.000000	83.103448	0.000000	-1.000000	-1.000000	898231.000000	1772895508.244712
-8656.020000	-13774.590000	4637.655000	-1594.170000	-23140.980000	-16944.930000	-315.945000	-8566.290000	0.302632	8.182433	10.664911	9.460104	9.231583	7.689855	-1.007625	-4.045779	-4.578000	1.556520	-0.030520	0.744871	-0.049805	0.644530	-1.000000	-1.000000	-1.000000	-1.000000	-1.000000	-1.000000	-1.000000	83.103448	0.000000	-1.000000	-1.000000	898232.000000	1772895508.244720
-8615.655000	-13764.240000	4639.635000	-1595.070000	-23142.015000	-16942.545000	-324.090000	-8550.990000	-5.094653	10.032323	13.807355	13.619819	13.481395	11.782376	-2.917518	-12.927165	-4.578000	1.556520	-0.030520	0.744871	-0.049805	0.644530	-1.000000	-1.000000	-1.000000	-1.000000	-1.000000	-1.000000	-1.000000	83.103448	0.000000	-1.000000	-1.000000	898233.000000	1772895508.248530
-8625.420000	-13740.570000	4663.440000	-1568.790000	-23113.530000	-16913.520000	-300.465000	-8537.445000	-7.172893	9.134811	11.762404	12.042627	12.186136	11.359873	-4.401410	-15.632904	-4.578000	1.556520	-0.030520	0.744871	-0.049805	0.644530	-1.000000	-1.000000	-1.000000	-1.000000	-1.000000	-1.000000	-1.000000	83.103448	0.000000	-1.000000	-1.000000	898234.000000	1772895508.248536
-8614.035000	-13725.765000	4670.190000	-1555.110000	-23100.165000	-16898.940000	-266.445000	-8516.520000	-4.455866	7.061313	6.894757	7.697321	8.166931	8.593318	-3.908710	-11.613746	-4.578000	1.556520	-0.030520	0.744871	-0.049805	0.644530	-1.000000	-1.000000	-1.000000	-1.000000	-1.000000	-1.000000	-1.000000	83.103448	0.000000	-1.000000	-1.000000	898235.000000	1772895508.252609
-8630.595000	-13734.180000	4662.045000	-1554.930000	-23099.670000	-16896.780000	-250.650000	-8533.170000	-0.631710	4.632084	2.109995	4.075218	4.673474	5.864726	-0.062567	-3.265811	-4.578000	1.556520	-0.030520	0.744871	-0.049805	0.644530	-1.000000	-1.000000	-1.000000	-1.000000	-1.000000	-1.000000	-1.000000	83.103448	0.000000	-1.000000	-1.000000	898236.000000	1772895508.252614
-8621.280000	-13728.285000	4681.035000	-1542.330000	-23088.915000	-16890.885000	-262.755000	-8546.040000	0.428925	1.493092	-1.179302	2.186142	2.500855	3.519453	5.609463	4.616580	-4.578000	1.556520	-0.030520	0.744871	-0.049805	0.644530	-1.000000	-1.000000	-1.000000	-1.000000	-1.000000	-1.000000	-1.000000	83.103448	0.000000	-1.000000	-1.000000	898237.000000	1772895508.256697
-8628.795000	-13751.235000	4662.630000	-1573.470000	-23120.370000	-16921.755000	-297.045000	-8543.025000	-1.690055	-3.191803	-3.509918	0.059911	-0.219156	-0.171517	8.499934	7.913630	-4.578000	1.556520	-0.030520	0.744871	-0.049805	0.644530	-1.000000	-1.000000	-1.000000	-1.000000	-1.000000	-1.000000	-1.000000	83.103448	0.000000	-1.000000	-1.000000	898238.000000	1772895508.256706
-8653.905000	-13762.125000	4652.145000	-1592.235000	-23137.785000	-16935.480000	-291.915000	-8558.055000	-4.215921	-8.966893	-6.074197	-4.697842	-5.492041	-6.581611	5.252634	6.731498	-4.578000	1.556520	-0.030520	0.744871	-0.049805	0.644530	-1.000000	-1.000000	-1.000000	-1.000000	-1.000000	-1.000000	-1.000000	83.103448	0.000000	-1.000000	-1.000000	898239.000000	1772895508.260775
-8682.885000	-13761.945000	4654.440000	-1589.715000	-23136.165000	-16933.500000	-294.075000	-8580.465000	-4.483176	-13.089894	-8.481525	-11.087952	-12.006652	-13.533776	-1.769578	3.876527	-4.578000	1.556520	-0.030520	0.744871	-0.049805	0.644530	-1.000000	-1.000000	-1.000000	-1.000000	-1.000000	-1.000000	-1.000000	83.103448	0.000000	-1.000000	-1.000000	898240.000000	1772895508.260786
-8662.905000	-13762.800000	4653.405000	-1588.320000	-23136.120000	-16936.605000	-306.765000	-8559.000000	-2.163107	-12.315140	-8.427027	-14.301105	-14.982235	-15.968380	-6.914793	1.480190	-7.004340	1.510740	0.686700	0.742125	-0.050903	0.644530	-1.000000	-1.000000	-1.000000	-1.000000	-1.000000	-1.000000	-1.000000	83.103448	0.000000	-1.000000	-1.000000	898241.000000	1772895508.264824
-8635.095000	-13767.570000	4656.195000	-1579.590000	-23124.240000	-16922.880000	-289.755000	-8545.095000	1.838848	-6.508684	-4.930488	-10.872297	-11.137276	-11.191908	-7.139333	0.462410	-7.004340	1.510740	0.686700	0.742125	-0.050903	0.644530	-1.000000	-1.000000	-1.000000	-1.000000	-1.000000	-1.000000	-1.000000	83.103448	0.000000	-1.000000	-1.000000	898242.000000	1772895508.264831
-8629.155000	-13769.145000	4651.920000	-1582.515000	-23124.780000	-16922.475000	-284.130000	-8535.285000	6.584448	0.570323	-0.287395	-2.788922	-2.525883	-1.911629	-3.740291	0.537060	-7.004340	1.510740	0.686700	0.742125	-0.050903	0.644530	-1.000000	-1.000000	-1.000000	-1.000000	-1.000000	-1.000000	-1.000000	83.103448	0.000000	-1.000000	-1.000000	898243.000000	1772895508.268855
-8668.170000	-13771.350000	4639.590000	-1598.670000	-23144.220000	-16947.045000	-309.735000	-8551.665000	9.748101	5.114827	2.572804	4.753037	5.524296	6.250414	-0.610678	0.334587	-7.004340	1.510740	0.686700	0.742125	-0.050903	0.644530	-1.000000	-1.000000	-1.000000	-1.000000	-1.000000	-1.000000	-1.000000	83.103448	0.000000	-1.000000	-1.000000	898244.000000	1772895508.268861
-8668.800000	-13773.555000	4637.520000	-1600.110000	-23146.695000	-16953.795000	-327.780000	-8560.665000	8.097316	6.450570	2.922678	8.042502	8.952551	9.150234	-0.927051	-1.048315	-7.004340	1.510740	0.686700	0.742125	-0.050903	0.644530	-1.000000	-1.000000	-1.000000	-1.000000	-1.000000	-1.000000	-1.000000	83.103448	0.000000	-1.000000	-1.000000	898245.000000	1772895508.272748
-8646.030000	-13761.045000	4658.805000	-1577.205000	-23122.845000	-16931.115000	-316.440000	-8557.515000	1.957761	6.098755	2.092804	7.286634	7.836481	7.187274	-3.372385	-2.832470	-7.004340	1.510740	0.686700	0.742125	-0.050903	0.644530	-1.000000	-1.000000	-1.000000	-1.000000	-1.000000	-1.000000	-1.000000	83.103448	0.000000	-1.000000	-1.000000	898246.000000	1772895508.272756
-8648.955000	-13755.330000	4662.990000	-1572.300000	-23116.905000	-16918.290000	-293.805000	-8541.990000	-3.798927	5.941614	2.246554	5.822163	5.852693	4.778687	-2.840664	-3.092664	-7.004340	1.510740	0.686700	0.742125	-0.050903	0.644530	-1.000000	-1.000000	-1.000000	-1.000000	-1.000000	-1.000000	-1.000000	83.103448	0.000000	-1.000000	-1.000000	898247.000000	1772895508.278068
-8676.225000	-13758.930000	4651.875000	-1585.305000	-23128.965000	-16922.970000	-278.505000	-8519.805000	-4.963321	6.696968	4.212350	5.976048	5.704590	5.247436	3.462305	-0.090423	-7.004340	1.510740	0.686700	0.742125	-0.050903	0.644530	-1.000000	-1.000000	-1.000000	-1.000000	-1.000000	-1.000000	-1.000000	83.103448	0.000000	-1.000000	-1.000000	898248.000000	1772895508.278076
-8642.115000	-13743.900000	4665.465000	-1566.855000	-23111.370000	-16908.345000	-266.040000	-8505.630000	-1.585784	7.137013	6.261768	6.506795	6.230243	7.295562	12.446883	5.854354	-7.004340	1.510740	0.686700	0.742125	-0.050903	0.644530	-1.000000	-1.000000	-1.000000	-1.000000	-1.000000	-1.000000	-1.000000	83.103448	0.000000	-1.000000	-1.000000	898249.000000	1772895508.280580
-8605.125000	-13720.680000	4684.680000	-1548.000000	-23094.900000	-16897.275000	-267.210000	-8529.615000	3.563278	5.985501	6.553175	5.500262	5.338829	7.723963	18.031498	10.419544	-7.004340	1.510740	0.686700	0.742125	-0.050903	0.644530	-1.000000	-1.000000	-1.000000	-1.000000	-1.000000	-1.000000	-1.000000	83.103448	0.000000	-1.000000	-1.000000	898250.000000	1772895508.280588
-8614.215000	-13737.735000	4673.340000	-1561.095000	-23108.580000	-16912.485000	-281.565000	-8544.735000	6.871374	2.975107	4.581619	2.361965	2.143605	4.408727	15.243580	7.684804	-5.463080	4.486440	3.311420	0.744078	-0.052429	0.644408	-1.000000	-1.000000	-1.000000	-1.000000	-1.000000	-1.000000	-1.000000	83.103448	0.000000	-1.000000	-1.000000	898251.000000	1772895508.284612
-8644.140000	-13781.340000	4630.365000	-1605.105000	-23153.040000	-16957.305000	-330.390000	-8563.545000	5.115541	-2.601556	-0.138269	-3.326003	-3.858920	-3.252704	2.901341	-3.174120	-5.463080	4.486440	3.311420	0.744078	-0.052429	0.644408	-1.000000	-1.000000	-1.000000	-1.000000	-1.000000	-1.000000	-1.000000	83.103448	0.000000	-1.000000	-1.000000	898252.000000	1772895508.284620
-8646.930000	-13765.770000	4641.705000	-1595.970000	-23146.155000	-16954.020000	-329.355000	-8559.090000	-1.568658	-10.335394	-6.931797	-10.525776	-11.327034	-12.764710	-14.037776	-15.382491	-5.463080	4.486440	3.311420	0.744078	-0.052429	0.644408	-1.000000	-1.000000	-1.000000	-1.000000	-1.000000	-1.000000	-1.000000	83.103448	0.000000	-1.000000	-1.000000	898253.000000	1772895508.288586
-8659.305000	-13748.310000	4657.050000	-1581.165000	-23133.195000	-16942.140000	-325.260000	-8574.480000	-9.186778	-15.885371	-12.081734	-15.138993	-15.838233	-18.379231	-25.675537	-20.270018	-5.463080	4.486440	3.311420	0.744078	-0.052429	0.644408	-1.000000	-1.000000	-1.000000	-1.000000	-1.000000	-1.000000	-1.000000	83.103448	0.000000	-1.000000	-1.000000	898254.000000	1772895508.288593
-8660.430000	-13748.985000	4663.215000	-1571.940000	-23122.170000	-16928.595000	-315.630000	-8574.615000	-13.707140	-14.493540	-11.774939	-13.285955	-13.509965	-15.701455	-24.504637	-14.886595	-5.463080	4.486440	3.311420	0.744078	-0.052429	0.644408	-1.000000	-1.000000	-1.000000	-1.000000	-1.000000	-1.000000	-1.000000	83.103448	0.000000	-1.000000	-1.000000	898255.000000	1772895508.292867
-8641.305000	-13770.585000	4648.095000	-1583.775000	-23130.990000	-16936.920000	-313.785000	-8541.720000	-12.513339	-6.666313	-6.088506	-5.349160	-4.901700	-5.811481	-11.761447	-2.801125	-5.463080	4.486440	3.311420	0.744078	-0.052429	0.644408	-1.000000	-1.000000	-1.000000	-1.000000	-1.000000	-1.000000	-1.000000	83.103448	0.000000	-1.000000	-1.000000	898256.000000	1772895508.292876
-8626.230000	-13785.615000	4634.460000	-1594.170000	-23139.045000	-16944.120000	-315.540000	-8528.445000	-4.382111	2.298390	1.274107	4.232100	5.367491	5.686857	4.418615	10.342382	-5.463080	4.486440	3.311420	0.744078	-0.052429	0.644408	-1.000000	-1.000000	-1.000000	-1.000000	-1.000000	-1.000000	-1.000000	83.103448	0.000000	-1.000000	-1.000000	898257.000000	1772895508.296646
-8636.400000	-13780.980000	4629.375000	-1603.080000	-23150.205000	-16951.185000	-315.270000	-8551.260000	6.947580	7.316286	5.955575	10.024740	11.626817	12.680440	15.716002	18.896743	-5.463080	4.486440	3.311420	0.744078	-0.052429	0.644408	-1.000000	-1.000000	-1.000000	-1.000000	-1.000000	-1.000000	-1.000000	83.103448	0.000000	-1.000000	-1.000000	898258.000000	1772895508.296655
-8678.070000	-13763.070000	4644.900000	-1590.210000	-23138.955000	-16942.455000	-310.770000	-8579.160000	12.774083	7.444062	6.168854	9.438457	10.961547	12.489664	18.436282	18.464348	-5.463080	4.486440	3.311420	0.744078	-0.052429	0.644408	-1.000000	-1.000000	-1.000000	-1.000000	-1.000000	-1.000000	-1.000000	83.103448	0.000000	-1.000000	-1.000000	898259.000000	1772895508.300822
-8665.065000	-13759.155000	4646.745000	-1588.365000	-23135.265000	-16937.865000	-299.115000	-8556.570000	8.445847	5.869024	4.156078	5.031502	5.804797	7.593699	14.316507	9.669786	-5.463080	4.486440	3.311420	0.744078	-0.052429	0.644408	-1.000000	-1.000000	-1.000000	-1.000000	-1.000000	-1.000000	-1.000000	83.103448	0.000000	-1.000000	-1.000000	898260.000000	1772895508.300831
-8651.520000	-13769.370000	4635.945000	-1599.255000	-23145.930000	-16944.885000	-295.470000	-8554.140000	-0.332082	5.867513	3.445494	1.751556	1.480572	3.094081	8.228452	-1.051878	-3.052000	4.715340	3.036740	0.740782	-0.054077	0.642699	-1.000000	-1.000000	-1.000000	-1.000000	-1.000000	-1.000000	-1.000000	83.103448	0.000000	-1.000000	-1.000000	898261.000000	1772895508.304700
-8655.030000	-13767.480000	4640.490000	-1592.055000	-23138.640000	-16940.385000	-302.175000	-8561.880000	-4.587232	6.737855	4.359472	1.388753	0.395125	1.455312	3.572983	-7.309167	-3.052000	4.715340	3.036740	0.740782	-0.054077	0.642699	-1.000000	-1.000000	-1.000000	-1.000000	-1.000000	-1.000000	-1.000000	83.103448	0.000000	-1.000000	-1.000000	898262.000000	1772895508.304708
-8641.710000	-13748.760000	4653.765000	-1578.825000	-23127.255000	-16934.355000	-314.865000	-8546.490000	-1.882317	5.519757	4.303536	1.866015	0.746426	0.960091	-0.321974	-7.534551	-3.052000	4.715340	3.036740	0.740782	-0.054077	0.642699	-1.000000	-1.000000	-1.000000	-1.000000	-1.000000	-1.000000	-1.000000	83.103448	0.000000	-1.000000	-1.000000	898263.000000	1772895508.308722
-8653.995000	-13744.755000	4651.605000	-1581.210000	-23129.955000	-16937.100000	-325.530000	-8568.045000	3.720902	1.869890	1.981271	1.207672	0.300410	-0.736399	-5.451457	-4.288218	-3.052000	4.715340	3.036740	0.740782	-0.054077	0.642699	-1.000000	-1.000000	-1.000000	-1.000000	-1.000000	-1.000000	-1.000000	83.103448	0.000000	-1.000000	-1.000000	898264.000000	1772895508.308730
-8668.665000	-13752.585000	4649.850000	-1583.685000	-23132.205000	-16939.215000	-322.020000	-8590.590000	6.656106	-1.794895	-1.201860	-0.452167	-1.214271	-3.641689	-11.266407	-2.326648	-3.052000	4.715340	3.036740	0.740782	-0.054077	0.642699	-1.000000	-1.000000	-1.000000	-1.000000	-1.000000	-1.000000	-1.000000	83.103448	0.000000	-1.000000	-1.000000	898265.000000	1772895508.312689
-8665.560000	-13777.515000	4637.295000	-1597.230000	-23146.695000	-16951.275000	-317.475000	-8592.030000	3.903256	-4.151347	-3.412405	-2.164768	-2.931609	-6.081632	-14.439343	-4.543124	-3.052000	4.715340	3.036740	0.740782	-0.054077	0.642699	-1.000000	-1.000000	-1.000000	-1.000000	-1.000000	-1.000000	-1.000000	83.103448	0.000000	-1.000000	-1.000000	898266.000000	1772895508.312697
-8635.770000	-13751.190000	4659.840000	-1574.730000	-23123.115000	-16926.615000	-306.630000	-8581.095000	-2.189911	-5.883308	-4.132593	-3.358530	-3.997485	-6.537103	-12.060609	-7.725236	-3.052000	4.715340	3.036740	0.740782	-0.054077	0.642699	-1.000000	-1.000000	-1.000000	-1.000000	-1.000000	-1.000000	-1.000000	83.103448	0.000000	-1.000000	-1.000000	898267.000000	1772895508.316552
-8606.250000	-13715.370000	4694.355000	-1540.845000	-23090.940000	-16896.240000	-288.900000	-8559.945000	-5.308656	-6.493546	-3.145232	-3.095510	-3.237949	-3.976352	-4.422713	-5.882547	-3.052000	4.715340	3.036740	0.740782	-0.054077	0.642699	-1.000000	-1.000000	-1.000000	-1.000000	-1.000000	-1.000000	-1.000000	83.103448	0.000000	-1.000000	-1.000000	898268.000000	1772895508.316558
-8636.220000	-13730.715000	4685.355000	-1551.420000	-23099.670000	-16905.240000	-285.480000	-8558.550000	-2.404578	-4.114018	-0.079760	-0.408593	0.142314	1.438026	5.206876	2.072150	-3.052000	4.715340	3.036740	0.740782	-0.054077	0.642699	-1.000000	-1.000000	-1.000000	-1.000000	-1.000000	-1.000000	-1.000000	83.103448	0.000000	-1.000000	-1.000000	898269.000000	1772895508.320615
-8663.715000	-13756.140000	4658.670000	-1578.825000	-23126.220000	-16929.540000	-296.865000	-8548.110000	1.904281	0.177911	3.238250	2.933997	4.029058	6.564483	12.304097	11.032543	-3.052000	4.715340	3.036740	0.740782	-0.054077	0.642699	-1.000000	-1.000000	-1.000000	-1.000000	-1.000000	-1.000000	-1.000000	83.103448	0.000000	-1.000000	-1.000000	898270.000000	1772895508.320624
-8644.365000	-13763.430000	4636.935000	-1600.965000	-23148.315000	-16949.880000	-317.385000	-8528.355000	1.861670	2.175291	2.773492	2.655245	3.972646	6.689231	13.158295	15.525041	-4.104940	3.692920	2.105880	0.737364	-0.052246	0.637755	-1.000000	-1.000000	-1.000000	-1.000000	-1.000000	-1.000000	-1.000000	83.103448	0.000000	-1.000000	-1.000000	898271.000000	1772895508.324756
-8648.145000	-13779.045000	4620.870000	-1617.660000	-23163.615000	-16961.445000	-310.590000	-8556.840000	-2.067915	-0.401148	-3.131009	-3.102476	-1.908607	0.354862	7.523323	13.322760	-4.104940	3.692920	2.105880	0.737364	-0.052246	0.637755	-1.000000	-1.000000	-1.000000	-1.000000	-1.000000	-1.000000	-1.000000	83.103448	0.000000	-1.000000	-1.000000	898272.000000	1772895508.324764
-8668.980000	-13788.090000	4621.635000	-1610.370000	-23159.700000	-16957.755000	-306.765000	-8584.605000	-5.726290	-5.306916	-10.646143	-10.473596	-9.759549	-8.219517	-0.652224	4.699990	-4.104940	3.692920	2.105880	0.737364	-0.052246	0.637755	-1.000000	-1.000000	-1.000000	-1.000000	-1.000000	-1.000000	-1.000000	83.103448	0.000000	-1.000000	-1.000000	898273.000000	1772895508.329354
-8676.810000	-13804.380000	4606.245000	-1622.070000	-23169.600000	-16968.105000	-316.215000	-8552.745000	-6.667369	-7.980666	-13.505984	-12.960537	-13.046250	-12.522862	-6.676092	-6.734338	-4.104940	3.692920	2.105880	0.737364	-0.052246	0.637755	-1.000000	-1.000000	-1.000000	-1.000000	-1.000000	-1.000000	-1.000000	83.103448	0.000000	-1.000000	-1.000000	898274.000000	1772895508.329362
-8656.065000	-13788.990000	4622.805000	-1610.505000	-23161.095000	-16963.155000	-316.215000	-8526.510000	-4.808283	-5.416308	-8.704157	-7.628030	-8.562031	-9.423755	-8.703784	-13.945353	-4.104940	3.692920	2.105880	0.737364	-0.052246	0.637755	-1.000000	-1.000000	-1.000000	-1.000000	-1.000000	-1.000000	-1.000000	83.103448	0.000000	-1.000000	-1.000000	898275.000000	1772895508.332623
-8625.240000	-13768.155000	4642.425000	-1589.895000	-23140.800000	-16946.505000	-321.615000	-8538.975000	-0.730812	1.454191	1.384615	2.595282	1.150371	-1.208496	-7.580351	-12.539580	-4.104940	3.692920	2.105880	0.737364	-0.052246	0.637755	-1.000000	-1.000000	-1.000000	-1.000000	-1.000000	-1.000000	-1.000000	83.103448	0.000000	-1.000000	-1.000000	898276.000000	1772895508.332632
-8627.490000	-13760.865000	4650.390000	-1581.480000	-23128.020000	-16934.220000	-319.140000	-8536.905000	4.496877	8.718580	11.328703	11.968869	10.613451	7.277532	-4.960469	-5.595424	-4.104940	3.692920	2.105880	0.737364	-0.052246	0.637755	-1.000000	-1.000000	-1.000000	-1.000000	-1.000000	-1.000000	-1.000000	83.103448	0.000000	-1.000000	-1.000000	898277.000000	1772895508.336632
-8660.655000	-13760.820000	4649.895000	-1586.835000	-23133.330000	-16942.590000	-306.540000	-8539.515000	8.552443	12.960009	16.685878	16.338239	15.715252	12.496360	-1.641601	0.645598	-4.104940	3.692920	2.105880	0.737364	-0.052246	0.637755	-1.000000	-1.000000	-1.000000	-1.000000	-1.000000	-1.000000	-1.000000	83.103448	0.000000	-1.000000	-1.000000	898278.000000	1772895508.336641
-8649.585000	-13751.055000	4662.000000	-1574.460000	-23121.720000	-16933.995000	-292.410000	-8550.495000	9.036780	13.272982	16.450910	15.137027	15.519566	13.469560	2.826968	2.747429	-4.104940	3.692920	2.105880	0.737364	-0.052246	0.637755	-1.000000	-1.000000	-1.000000	-1.000000	-1.000000	-1.000000	-1.000000	83.103448	0.000000	-1.000000	-1.000000	898279.000000	1772895508.340677
-8640.360000	-13761.135000	4657.230000	-1574.910000	-23119.515000	-16932.960000	-302.355000	-8540.505000	5.736627	10.047086	12.040546	10.244572	11.332512	10.908548	8.082495	1.090485	-4.104940	3.692920	2.105880	0.737364	-0.052246	0.637755	-1.000000	-1.000000	-1.000000	-1.000000	-1.000000	-1.000000	-1.000000	83.103448	0.000000	-1.000000	-1.000000	898280.000000	1772895508.340685
-8640.540000	-13770.405000	4640.895000	-1591.245000	-23139.765000	-16943.220000	-316.755000	-8532.090000	0.863995	3.845881	4.954880	3.522664	4.703800	5.857973	11.085897	-0.820238	-5.768280	4.883200	-0.274680	0.740416	-0.052002	0.631041	-1.000000	-1.000000	-1.000000	-1.000000	-1.000000	-1.000000	-1.000000	83.103448	0.000000	-1.000000	-1.000000	898281.000000	1772895508.346445
-8637.795000	-13783.770000	4618.755000	-1616.445000	-23162.175000	-16956.090000	-311.580000	-8541.045000	-2.650843	-3.779087	-3.746135	-4.291441	-3.582831	-0.911912	8.723842	0.449382	-5.768280	4.883200	-0.274680	0.740416	-0.052002	0.631041	-1.000000	-1.000000	-1.000000	-1.000000	-1.000000	-1.000000	-1.000000	83.103448	0.000000	-1.000000	-1.000000	898282.000000	1772895508.346453
-8643.105000	-13785.120000	4617.495000	-1618.155000	-23160.555000	-16955.010000	-313.830000	-8551.845000	-3.565622	-10.060874	-12.055453	-11.965482	-11.891842	-7.840031	1.937896	3.481824	-5.768280	4.883200	-0.274680	0.740416	-0.052002	0.631041	-1.000000	-1.000000	-1.000000	-1.000000	-1.000000	-1.000000	-1.000000	83.103448	0.000000	-1.000000	-1.000000	898283.000000	1772895508.349332
-8714.160000	-13775.445000	4638.960000	-1598.130000	-23139.270000	-16938.180000	-316.170000	-8562.105000	-4.477621	-12.821958	-16.781704	-16.536946	-16.729949	-12.218256	-5.186805	3.809384	-5.768280	4.883200	-0.274680	0.740416	-0.052002	0.631041	-1.000000	-1.000000	-1.000000	-1.000000	-1.000000	-1.000000	-1.000000	83.103448	0.000000	-1.000000	-1.000000	898284.000000	1772895508.349339
-8711.730000	-13755.735000	4657.410000	-1577.880000	-23120.010000	-16921.575000	-303.615000	-8568.450000	-9.090318	-11.700658	-15.587046	-15.301644	-15.318616	-12.097926	-9.089827	0.198069	-5.768280	4.883200	-0.274680	0.740416	-0.052002	0.631041	-1.000000	-1.000000	-1.000000	-1.000000	-1.000000	-1.000000	-1.000000	83.103448	0.000000	-1.000000	-1.000000	898285.000000	1772895508.352729
-8672.895000	-13755.780000	4643.280000	-1587.420000	-23130.045000	-16932.285000	-302.265000	-8587.485000	-14.375834	-7.299458	-8.939112	-8.355804	-8.254682	-7.846515	-8.426268	-4.507524	-5.768280	4.883200	-0.274680	0.740416	-0.052002	0.631041	-1.000000	-1.000000	-1.000000	-1.000000	-1.000000	-1.000000	-1.000000	83.103448	0.000000	-1.000000	-1.000000	898286.000000	1772895508.352736
-8630.955000	-13779.090000	4612.995000	-1616.490000	-23160.150000	-16960.815000	-314.370000	-8572.815000	-11.155097	-1.216247	-0.521769	0.742167	0.493421	-2.091687	-4.623411	-6.803441	-5.768280	4.883200	-0.274680	0.740416	-0.052002	0.631041	-1.000000	-1.000000	-1.000000	-1.000000	-1.000000	-1.000000	-1.000000	83.103448	0.000000	-1.000000	-1.000000	898287.000000	1772895508.356800
-8626.545000	-13790.295000	4616.595000	-1620.045000	-23166.270000	-16968.195000	-320.805000	-8564.445000	3.351780	3.502574	5.151498	7.006612	6.085138	1.829754	-0.770660	-4.575154	-5.768280	4.883200	-0.274680	0.740416	-0.052002	0.631041	-1.000000	-1.000000	-1.000000	-1.000000	-1.000000	-1.000000	-1.000000	83.103448	0.000000	-1.000000	-1.000000	898288.000000	1772895508.356807
-8663.715000	-13784.175000	4633.830000	-1602.495000	-23148.495000	-16954.380000	-326.250000	-8565.210000	19.423656	5.038954	7.046093	8.499156	7.034699	2.914226	1.340421	1.473543	-5.768280	4.883200	-0.274680	0.740416	-0.052002	0.631041	-1.000000	-1.000000	-1.000000	-1.000000	-1.000000	-1.000000	-1.000000	83.103448	0.000000	-1.000000	-1.000000	898289.000000	1772895508.360706
-8663.580000	-13783.185000	4651.110000	-1579.005000	-23123.565000	-16934.715000	-335.340000	-8572.410000	24.625588	4.846715	8.007291	8.001161	6.584227	3.526793	2.021912	7.755932	-5.768280	4.883200	-0.274680	0.740416	-0.052002	0.631041	-1.000000	-1.000000	-1.000000	-1.000000	-1.000000	-1.000000	-1.000000	83.103448	0.000000	-1.000000	-1.000000	898290.000000	1772895508.360720
-8646.030000	-13777.020000	4663.260000	-1563.030000	-23108.625000	-16921.170000	-327.240000	-8559.225000	16.128393	5.201513	10.320248	8.978958	8.331067	6.141353	2.120323	10.698754	-5.096840	5.615680	-0.854560	0.740110	-0.054382	0.628660	-1.000000	-1.000000	-1.000000	-1.000000	-1.000000	-1.000000	-1.000000	83.103448	0.000000	-1.000000	-1.000000	898291.000000	1772895508.364805
-8647.695000	-13760.820000	4664.205000	-1566.585000	-23112.675000	-16919.145000	-300.735000	-8539.605000	1.504130	6.376987	12.346910	10.805985	11.185016	9.715721	2.635407	9.578757	-5.096840	5.615680	-0.854560	0.740110	-0.054382	0.628660	-1.000000	-1.000000	-1.000000	-1.000000	-1.000000	-1.000000	-1.000000	83.103448	0.000000	-1.000000	-1.000000	898292.000000	1772895508.364814
-8645.175000	-13745.970000	4664.295000	-1575.225000	-23121.675000	-16920.315000	-271.305000	-8536.680000	-9.528915	6.672152	9.859267	8.907112	9.969058	10.127627	4.637841	6.182629	-5.096840	5.615680	-0.854560	0.740110	-0.054382	0.628660	-1.000000	-1.000000	-1.000000	-1.000000	-1.000000	-1.000000	-1.000000	83.103448	0.000000	-1.000000	-1.000000	898293.000000	1772895508.368784
-8643.105000	-13762.215000	4651.290000	-1586.925000	-23131.035000	-16928.010000	-283.860000	-8552.385000	-12.641043	4.088327	0.974018	0.348186	1.576931	4.596228	7.255750	2.067848	-5.096840	5.615680	-0.854560	0.740110	-0.054382	0.628660	-1.000000	-1.000000	-1.000000	-1.000000	-1.000000	-1.000000	-1.000000	83.103448	0.000000	-1.000000	-1.000000	898294.000000	1772895508.368791
-8649.450000	-13782.870000	4628.205000	-1608.615000	-23152.410000	-16953.480000	-314.190000	-8545.680000	-10.405579	-1.721311	-10.696390	-11.557757	-10.470814	-4.799108	6.919286	-2.391251	-5.096840	5.615680	-0.854560	0.740110	-0.054382	0.628660	-1.000000	-1.000000	-1.000000	-1.000000	-1.000000	-1.000000	-1.000000	83.103448	0.000000	-1.000000	-1.000000	898295.000000	1772895508.372607
-8712.135000	-13800.285000	4608.450000	-1629.585000	-23176.035000	-16978.995000	-332.595000	-8568.945000	-8.662019	-8.428405	-18.801037	-19.814721	-18.976145	-12.890107	1.104766	-6.921809	-5.096840	5.615680	-0.854560	0.740110	-0.054382	0.628660	-1.000000	-1.000000	-1.000000	-1.000000	-1.000000	-1.000000	-1.000000	83.103448	0.000000	-1.000000	-1.000000	898296.000000	1772895508.372614
-8719.560000	-13784.355000	4632.435000	-1602.900000	-23149.665000	-16956.405000	-321.165000	-8572.725000	-10.672593	-12.088847	-19.059059	-19.502006	-19.014561	-15.390950	-7.555779	-10.972331	-5.096840	5.615680	-0.854560	0.740110	-0.054382	0.628660	-1.000000	-1.000000	-1.000000	-1.000000	-1.000000	-1.000000	-1.000000	83.103448	0.000000	-1.000000	-1.000000	898297.000000	1772895508.377015
-8719.920000	-13790.250000	4629.645000	-1601.055000	-23145.615000	-16949.025000	-317.160000	-8581.140000	-12.802262	-10.011781	-11.381833	-10.550004	-10.496628	-10.888681	-12.820055	-13.083011	-5.096840	5.615680	-0.854560	0.740110	-0.054382	0.628660	-1.000000	-1.000000	-1.000000	-1.000000	-1.000000	-1.000000	-1.000000	83.103448	0.000000	-1.000000	-1.000000	898298.000000	1772895508.377023
-8680.905000	-13777.605000	4628.745000	-1595.745000	-23141.340000	-16943.310000	-318.915000	-8597.340000	-8.409925	-3.054872	0.194082	2.350462	2.038284	-1.693249	-10.827774	-11.472228	-5.096840	5.615680	-0.854560	0.740110	-0.054382	0.628660	-1.000000	-1.000000	-1.000000	-1.000000	-1.000000	-1.000000	-1.000000	83.103448	0.000000	-1.000000	-1.000000	898299.000000	1772895508.382929
-8638.965000	-13744.665000	4658.310000	-1564.920000	-23112.090000	-16917.030000	-303.975000	-8597.655000	4.225539	5.430147	10.244947	13.029246	12.475895	7.566794	-3.386119	-6.439130	-5.096840	5.615680	-0.854560	0.740110	-0.054382	0.628660	-1.000000	-1.000000	-1.000000	-1.000000	-1.000000	-1.000000	-1.000000	83.103448	0.000000	-1.000000	-1.000000	898300.000000	1772895508.382938
-8604.360000	-13730.220000	4670.055000	-1564.245000	-23111.505000	-16914.420000	-287.325000	-8547.165000	20.408318	11.846832	15.606292	17.924055	17.210718	13.163304	4.494452	0.483761	-3.372460	4.822160	0.152600	0.736998	-0.056946	0.630492	-1.000000	-1.000000	-1.000000	-1.000000	-1.000000	-1.000000	-1.000000	83.103448	0.000000	-1.000000	-1.000000	898301.000000	1772895508.384705
-8612.145000	-13742.910000	4661.145000	-1577.790000	-23124.555000	-16926.930000	-297.135000	-8543.205000	31.855602	13.031861	15.385180	16.111846	15.365706	13.154288	8.470150	8.599558	-3.372460	4.822160	0.152600	0.736998	-0.056946	0.630492	-1.000000	-1.000000	-1.000000	-1.000000	-1.000000	-1.000000	-1.000000	83.103448	0.000000	-1.000000	-1.000000	898302.000000	1772895508.384713
-8641.170000	-13765.230000	4647.060000	-1590.435000	-23133.645000	-16933.590000	-304.515000	-8553.555000	30.261448	7.746736	10.013884	8.533097	7.985975	7.687677	7.221678	15.892478	-3.372460	4.822160	0.152600	0.736998	-0.056946	0.630492	-1.000000	-1.000000	-1.000000	-1.000000	-1.000000	-1.000000	-1.000000	83.103448	0.000000	-1.000000	-1.000000	898303.000000	1772895508.388701
-8666.190000	-13770.180000	4643.730000	-1596.195000	-23143.230000	-16946.190000	-320.400000	-8567.865000	13.442248	-1.295721	2.101598	-1.145861	-1.259802	0.014545	2.976249	17.957446	-3.372460	4.822160	0.152600	0.736998	-0.056946	0.630492	-1.000000	-1.000000	-1.000000	-1.000000	-1.000000	-1.000000	-1.000000	83.103448	0.000000	-1.000000	-1.000000	898304.000000	1772895508.388708
-8652.195000	-13756.365000	4648.185000	-1594.440000	-23143.140000	-16943.760000	-313.605000	-8560.755000	-10.247431	-8.653367	-4.534154	-8.200661	-7.864633	-5.577028	-0.796122	12.455618	-3.372460	4.822160	0.152600	0.736998	-0.056946	0.630492	-1.000000	-1.000000	-1.000000	-1.000000	-1.000000	-1.000000	-1.000000	83.103448	0.000000	-1.000000	-1.000000	898305.000000	1772895508.400334
-8629.605000	-13750.245000	4652.820000	-1588.365000	-23137.200000	-16940.745000	-315.180000	-8563.230000	-26.816486	-10.346964	-7.852426	-10.489612	-9.974252	-7.406558	-2.297620	2.280516	-3.372460	4.822160	0.152600	0.736998	-0.056946	0.630492	-1.000000	-1.000000	-1.000000	-1.000000	-1.000000	-1.000000	-1.000000	83.103448	0.000000	-1.000000	-1.000000	898306.000000	1772895508.400342
-8629.740000	-13753.080000	4655.385000	-1581.795000	-23128.920000	-16934.085000	-304.470000	-8573.040000	-28.106381	-6.669694	-8.122029	-8.906274	-8.534662	-6.564588	-1.761205	-7.208343	-3.372460	4.822160	0.152600	0.736998	-0.056946	0.630492	-1.000000	-1.000000	-1.000000	-1.000000	-1.000000	-1.000000	-1.000000	83.103448	0.000000	-1.000000	-1.000000	898307.000000	1772895508.400350
-8640.495000	-13761.720000	4651.020000	-1582.965000	-23128.200000	-16931.565000	-294.615000	-8553.240000	-17.951617	-1.438323	-6.503358	-5.436232	-5.280409	-4.649372	-0.145509	-11.979432	-3.372460	4.822160	0.152600	0.736998	-0.056946	0.630492	-1.000000	-1.000000	-1.000000	-1.000000	-1.000000	-1.000000	-1.000000	83.103448	0.000000	-1.000000	-1.000000	898308.000000	1772895508.400354
-8643.420000	-13766.715000	4643.820000	-1591.290000	-23136.255000	-16938.720000	-291.600000	-8510.445000	-6.549095	0.917386	-4.751610	-2.360823	-2.198200	-2.956871	1.201782	-10.548420	-3.372460	4.822160	0.152600	0.736998	-0.056946	0.630492	-1.000000	-1.000000	-1.000000	-1.000000	-1.000000	-1.000000	-1.000000	83.103448	0.000000	-1.000000	-1.000000	898309.000000	1772895508.400649
-8633.970000	-13776.480000	4629.510000	-1607.895000	-23154.930000	-16954.875000	-298.215000	-8500.500000	-0.220732	-1.096561	-4.308745	-1.206205	-0.855960	-2.324184	0.667533	-4.620107	-3.372460	4.822160	0.152600	0.736998	-0.056946	0.630492	-1.000000	-1.000000	-1.000000	-1.000000	-1.000000	-1.000000	-1.000000	83.103448	0.000000	-1.000000	-1.000000	898310.000000	1772895508.400656
-8640.540000	-13775.670000	4633.920000	-1604.115000	-23153.490000	-16955.325000	-309.240000	-8520.030000	2.032641	-4.407634	-4.280203	-1.111942	-0.801988	-2.166613	-1.923539	1.391712	-1.800680	4.715340	-1.571780	0.736937	-0.058410	0.628599	-1.000000	-1.000000	-1.000000	-1.000000	-1.000000	-1.000000	-1.000000	83.103448	0.000000	-1.000000	-1.000000	898311.000000	1772895508.404681
-8653.545000	-13751.370000	4662.900000	-1575.000000	-23125.140000	-16928.955000	-296.415000	-8546.715000	4.074249	-3.819992	-1.573270	0.790775	0.563032	-0.264504	-4.175824	3.379948	-1.800680	4.715340	-1.571780	0.736937	-0.058410	0.628599	-1.000000	-1.000000	-1.000000	-1.000000	-1.000000	-1.000000	-1.000000	83.103448	0.000000	-1.000000	-1.000000	898312.000000	1772895508.404691
-8641.350000	-13744.170000	4665.015000	-1571.760000	-23120.190000	-16922.655000	-285.525000	-8564.085000	7.856512	2.834126	5.354093	6.138816	5.253457	5.005332	-3.031889	0.405800	-1.800680	4.715340	-1.571780	0.736937	-0.058410	0.628599	-1.000000	-1.000000	-1.000000	-1.000000	-1.000000	-1.000000	-1.000000	83.103448	0.000000	-1.000000	-1.000000	898313.000000	1772895508.408781
-8630.325000	-13740.660000	4660.695000	-1573.965000	-23120.280000	-16921.530000	-283.365000	-8558.505000	12.242260	11.560869	12.917032	12.037132	11.100713	11.371953	1.616333	-4.798079	-1.800680	4.715340	-1.571780	0.736937	-0.058410	0.628599	-1.000000	-1.000000	-1.000000	-1.000000	-1.000000	-1.000000	-1.000000	83.103448	0.000000	-1.000000	-1.000000	898314.000000	1772895508.408790
-8630.325000	-13727.475000	4675.635000	-1559.745000	-23108.085000	-16914.465000	-302.175000	-8537.805000	14.061726	15.800546	15.274843	13.275910	13.053284	13.725778	5.975982	-7.418452	-1.800680	4.715340	-1.571780	0.736937	-0.058410	0.628599	-1.000000	-1.000000	-1.000000	-1.000000	-1.000000	-1.000000	-1.000000	83.103448	0.000000	-1.000000	-1.000000	898315.000000	1772895508.412812
-8618.895000	-13736.745000	4674.780000	-1557.045000	-23108.850000	-16920.180000	-331.650000	-8549.730000	10.914758	12.560021	10.510707	8.019090	8.579838	9.234543	5.513688	-4.329560	-1.800680	4.715340	-1.571780	0.736937	-0.058410	0.628599	-1.000000	-1.000000	-1.000000	-1.000000	-1.000000	-1.000000	-1.000000	83.103448	0.000000	-1.000000	-1.000000	898316.000000	1772895508.412819
-8642.520000	-13776.165000	4635.360000	-1596.960000	-23146.605000	-16952.535000	-349.920000	-8571.645000	3.362625	3.023440	0.920386	-1.537026	-0.844557	-0.747689	-1.078579	1.845215	-1.800680	4.715340	-1.571780	0.736937	-0.058410	0.628599	-1.000000	-1.000000	-1.000000	-1.000000	-1.000000	-1.000000	-1.000000	83.103448	0.000000	-1.000000	-1.000000	898317.000000	1772895508.417493
-8658.000000	-13776.705000	4638.240000	-1595.115000	-23143.095000	-16942.635000	-313.155000	-8559.000000	-6.122476	-9.338802	-9.826568	-11.648851	-11.382510	-11.814483	-9.594068	4.897861	-1.800680	4.715340	-1.571780	0.736937	-0.058410	0.628599	-1.000000	-1.000000	-1.000000	-1.000000	-1.000000	-1.000000	-1.000000	83.103448	0.000000	-1.000000	-1.000000	898318.000000	1772895508.417503
-8677.620000	-13786.290000	4623.525000	-1610.460000	-23156.415000	-16955.820000	-308.835000	-8557.830000	-14.478287	-18.804681	-17.034231	-17.625614	-17.684631	-17.959079	-12.506097	2.793095	-1.800680	4.715340	-1.571780	0.736937	-0.058410	0.628599	-1.000000	-1.000000	-1.000000	-1.000000	-1.000000	-1.000000	-1.000000	83.103448	0.000000	-1.000000	-1.000000	898319.000000	1772895508.422424
-8673.075000	-13777.650000	4635.225000	-1599.030000	-23142.780000	-16944.120000	-297.315000	-8557.020000	-17.952892	-19.960616	-16.923886	-16.120469	-15.992956	-15.554495	-6.047128	-0.206882	-1.800680	4.715340	-1.571780	0.736937	-0.058410	0.628599	-1.000000	-1.000000	-1.000000	-1.000000	-1.000000	-1.000000	-1.000000	83.103448	0.000000	-1.000000	-1.000000	898320.000000	1772895508.422432
-8645.850000	-13769.640000	4641.120000	-1595.880000	-23140.800000	-16943.265000	-297.945000	-8547.525000	-13.254410	-12.065690	-9.707122	-8.041274	-7.403220	-6.393236	5.776881	0.721581	-2.258480	3.219860	-1.968540	0.736387	-0.056640	0.629088	-1.000000	-1.000000	-1.000000	-1.000000	-1.000000	-1.000000	-1.000000	83.103448	0.000000	-1.000000	-1.000000	898321.000000	1772895508.424616
-8636.355000	-13767.120000	4643.730000	-1591.920000	-23137.920000	-16941.780000	-296.145000	-8547.480000	-1.068613	0.480823	0.858081	2.451386	3.346330	4.247756	14.948227	5.823876	-2.258480	3.219860	-1.968540	0.736387	-0.056640	0.629088	-1.000000	-1.000000	-1.000000	-1.000000	-1.000000	-1.000000	-1.000000	83.103448	0.000000	-1.000000	-1.000000	898322.000000	1772895508.424624
-8636.625000	-13773.015000	4639.860000	-1595.115000	-23142.330000	-16945.740000	-291.960000	-8545.230000	12.207286	11.209822	9.860797	10.656214	11.113582	11.250603	16.092468	10.654070	-2.258480	3.219860	-1.968540	0.736387	-0.056640	0.629088	-1.000000	-1.000000	-1.000000	-1.000000	-1.000000	-1.000000	-1.000000	83.103448	0.000000	-1.000000	-1.000000	898323.000000	1772895508.428738
-8643.105000	-13783.680000	4633.335000	-1598.805000	-23145.210000	-16949.025000	-302.850000	-8556.525000	18.687140	15.222062	13.381355	13.242026	12.754968	12.081326	9.797263	10.237817	-2.258480	3.219860	-1.968540	0.736387	-0.056640	0.629088	-1.000000	-1.000000	-1.000000	-1.000000	-1.000000	-1.000000	-1.000000	83.103448	0.000000	-1.000000	-1.000000	898324.000000	1772895508.428748
-8626.815000	-13786.605000	4640.580000	-1586.115000	-23129.505000	-16936.020000	-304.380000	-8557.065000	15.376831	12.013273	10.808599	10.155708	8.939170	7.995283	0.654775	3.746683	-2.258480	3.219860	-1.968540	0.736387	-0.056640	0.629088	-1.000000	-1.000000	-1.000000	-1.000000	-1.000000	-1.000000	-1.000000	83.103448	0.000000	-1.000000	-1.000000	898325.000000	1772895508.432881
-8638.740000	-13783.140000	4651.695000	-1569.465000	-23109.615000	-16911.450000	-283.005000	-8541.540000	5.906717	5.543761	5.631384	5.248661	4.089000	3.340816	-6.591498	-4.932657	-2.258480	3.219860	-1.968540	0.736387	-0.056640	0.629088	-1.000000	-1.000000	-1.000000	-1.000000	-1.000000	-1.000000	-1.000000	83.103448	0.000000	-1.000000	-1.000000	898326.000000	1772895508.432888
-8664.930000	-13759.830000	4654.485000	-1575.585000	-23118.705000	-16918.695000	-277.200000	-8536.770000	-3.906853	0.759276	2.009755	2.519195	2.064152	1.579698	-9.616747	-10.886731	-2.258480	3.219860	-1.968540	0.736387	-0.056640	0.629088	-1.000000	-1.000000	-1.000000	-1.000000	-1.000000	-1.000000	-1.000000	83.103448	0.000000	-1.000000	-1.000000	898327.000000	1772895508.436744
-8716.050000	-13738.635000	4668.930000	-1569.690000	-23116.905000	-16925.490000	-294.120000	-8576.190000	-11.034266	0.081067	1.025095	2.038882	2.193660	1.817703	-9.120805	-12.129316	-2.258480	3.219860	-1.968540	0.736387	-0.056640	0.629088	-1.000000	-1.000000	-1.000000	-1.000000	-1.000000	-1.000000	-1.000000	83.103448	0.000000	-1.000000	-1.000000	898328.000000	1772895508.436752
-8674.830000	-13733.730000	4680.765000	-1556.955000	-23107.680000	-16921.440000	-303.075000	-8577.990000	-14.527708	2.179723	1.061722	1.330399	1.367865	0.831378	-7.359939	-9.985134	-2.258480	3.219860	-1.968540	0.736387	-0.056640	0.629088	-1.000000	-1.000000	-1.000000	-1.000000	-1.000000	-1.000000	-1.000000	83.103448	0.000000	-1.000000	-1.000000	898329.000000	1772895508.440682
-8640.540000	-13725.405000	4691.745000	-1542.555000	-23093.145000	-16908.795000	-300.555000	-8566.380000	-12.484185	3.290366	0.201271	-0.938871	-1.588664	-2.458007	-5.720987	-5.981167	-2.258480	3.219860	-1.968540	0.736387	-0.056640	0.629088	-1.000000	-1.000000	-1.000000	-1.000000	-1.000000	-1.000000	-1.000000	83.103448	0.000000	-1.000000	-1.000000	898330.000000	1772895508.440690
-8646.660000	-13742.955000	4671.135000	-1562.715000	-23112.045000	-16925.805000	-312.930000	-8561.565000	-4.325837	0.641916	-2.375424	-4.243154	-5.344343	-6.263278	-3.945656	-0.468394	-2.472120	3.494540	-2.624720	0.734617	-0.054321	0.630064	-1.000000	-1.000000	-1.000000	-1.000000	-1.000000	-1.000000	-1.000000	83.103448	0.000000	-1.000000	-1.000000	898331.000000	1772895508.446624
-8653.770000	-13760.955000	4648.770000	-1587.465000	-23137.425000	-16951.320000	-327.060000	-8562.105000	5.718086	-5.504277	-6.565475	-7.981638	-8.680500	-8.937741	-1.620752	5.457034	-2.472120	3.494540	-2.624720	0.734617	-0.054321	0.630064	-1.000000	-1.000000	-1.000000	-1.000000	-1.000000	-1.000000	-1.000000	83.103448	0.000000	-1.000000	-1.000000	898332.000000	1772895508.446631
-8645.490000	-13774.455000	4630.005000	-1606.320000	-23153.265000	-16960.770000	-322.380000	-8556.660000	11.745588	-12.212782	-11.275597	-11.685756	-11.254639	-10.156273	1.282096	9.686899	-2.472120	3.494540	-2.624720	0.734617	-0.054321	0.630064	-1.000000	-1.000000	-1.000000	-1.000000	-1.000000	-1.000000	-1.000000	83.103448	0.000000	-1.000000	-1.000000	898333.000000	1772895508.448739
-8647.110000	-13783.590000	4619.385000	-1615.185000	-23156.415000	-16956.945000	-305.190000	-8562.240000	11.289116	-15.466728	-14.075117	-13.753083	-12.091855	-9.400775	4.865079	10.591203	-2.472120	3.494540	-2.624720	0.734617	-0.054321	0.630064	-1.000000	-1.000000	-1.000000	-1.000000	-1.000000	-1.000000	-1.000000	83.103448	0.000000	-1.000000	-1.000000	898334.000000	1772895508.448747
-8644.140000	-13778.235000	4625.910000	-1612.620000	-23154.255000	-16957.395000	-301.140000	-8551.530000	6.314443	-12.875906	-12.410849	-11.887564	-9.522191	-5.896001	8.193279	7.525513	-2.472120	3.494540	-2.624720	0.734617	-0.054321	0.630064	-1.000000	-1.000000	-1.000000	-1.000000	-1.000000	-1.000000	-1.000000	83.103448	0.000000	-1.000000	-1.000000	898335.000000	1772895508.452711
-8648.640000	-13771.980000	4639.320000	-1600.965000	-23151.150000	-16957.755000	-303.255000	-8556.975000	1.193121	-5.420803	-5.403987	-4.859083	-2.767318	0.177662	9.198649	1.789742	-2.472120	3.494540	-2.624720	0.734617	-0.054321	0.630064	-1.000000	-1.000000	-1.000000	-1.000000	-1.000000	-1.000000	-1.000000	83.103448	0.000000	-1.000000	-1.000000	898336.000000	1772895508.452719
-8643.240000	-13766.625000	4644.315000	-1588.140000	-23139.090000	-16948.215000	-303.525000	-8565.930000	-0.819724	3.428552	4.863964	5.820721	6.583069	7.307374	7.107885	-3.283089	-2.472120	3.494540	-2.624720	0.734617	-0.054321	0.630064	-1.000000	-1.000000	-1.000000	-1.000000	-1.000000	-1.000000	-1.000000	83.103448	0.000000	-1.000000	-1.000000	898337.000000	1772895508.456645
-8628.885000	-13762.395000	4649.130000	-1584.720000	-23133.285000	-16941.870000	-310.680000	-8545.185000	-0.646805	10.033951	13.676730	15.537847	14.599173	12.873292	3.107657	-5.040969	-2.472120	3.494540	-2.624720	0.734617	-0.054321	0.630064	-1.000000	-1.000000	-1.000000	-1.000000	-1.000000	-1.000000	-1.000000	83.103448	0.000000	-1.000000	-1.000000	898338.000000	1772895508.456652
-8660.115000	-13768.290000	4639.545000	-1594.350000	-23138.955000	-16942.815000	-311.580000	-8538.210000	-2.146082	12.398091	16.757172	19.205539	17.303665	14.278191	-1.260204	-3.477426	-2.472120	3.494540	-2.624720	0.734617	-0.054321	0.630064	-1.000000	-1.000000	-1.000000	-1.000000	-1.000000	-1.000000	-1.000000	83.103448	0.000000	-1.000000	-1.000000	898339.000000	1772895508.460665
-8673.345000	-13784.220000	4626.000000	-1604.565000	-23147.055000	-16946.820000	-303.165000	-8544.330000	-7.084534	10.589795	13.302014	15.177073	13.602562	10.944890	-4.417029	-0.749410	-2.472120	3.494540	-2.624720	0.734617	-0.054321	0.630064	-1.000000	-1.000000	-1.000000	-1.000000	-1.000000	-1.000000	-1.000000	83.103448	0.000000	-1.000000	-1.000000	898340.000000	1772895508.460672
-8675.865000	-13780.170000	4631.535000	-1598.490000	-23143.590000	-16942.995000	-294.390000	-8545.770000	-12.467796	6.375390	6.185925	6.530950	6.122561	4.991338	-4.715226	0.605811	-1.526000	1.648080	-1.388660	0.734678	-0.052490	0.630797	-1.000000	-1.000000	-1.000000	-1.000000	-1.000000	-1.000000	-1.000000	83.103448	0.000000	-1.000000	-1.000000	898341.000000	1772895508.464646
-8678.880000	-13769.775000	4641.480000	-1591.380000	-23137.605000	-16942.005000	-309.780000	-8562.330000	-13.627577	2.472433	-0.156049	-1.504148	-0.991509	-0.714347	-2.447619	-0.466047	-1.526000	1.648080	-1.388660	0.734678	-0.052490	0.630797	-1.000000	-1.000000	-1.000000	-1.000000	-1.000000	-1.000000	-1.000000	83.103448	0.000000	-1.000000	-1.000000	898342.000000	1772895508.464656
-8645.760000	-13756.230000	4651.785000	-1584.675000	-23134.905000	-16947.360000	-336.240000	-8564.805000	-8.219435	0.853258	-2.861237	-5.530701	-5.198632	-4.908344	-1.009139	-3.291492	-1.526000	1.648080	-1.388660	0.734678	-0.052490	0.630797	-1.000000	-1.000000	-1.000000	-1.000000	-1.000000	-1.000000	-1.000000	83.103448	0.000000	-1.000000	-1.000000	898343.000000	1772895508.469396
-8602.425000	-13737.375000	4665.330000	-1571.940000	-23125.410000	-16941.915000	-340.965000	-8558.055000	3.280386	1.183732	-2.402802	-5.615072	-6.398728	-7.590882	-3.270940	-5.946892	-1.526000	1.648080	-1.388660	0.734678	-0.052490	0.630797	-1.000000	-1.000000	-1.000000	-1.000000	-1.000000	-1.000000	-1.000000	83.103448	0.000000	-1.000000	-1.000000	898344.000000	1772895508.469403
-8609.985000	-13748.490000	4652.370000	-1584.675000	-23134.140000	-16943.895000	-319.770000	-8555.535000	17.086181	1.199494	-1.591366	-4.191284	-5.832823	-8.451778	-7.007262	-5.757794	-1.526000	1.648080	-1.388660	0.734678	-0.052490	0.630797	-1.000000	-1.000000	-1.000000	-1.000000	-1.000000	-1.000000	-1.000000	83.103448	0.000000	-1.000000	-1.000000	898345.000000	1772895508.472749
-8651.205000	-13772.745000	4637.700000	-1594.845000	-23139.720000	-16941.735000	-292.590000	-8551.890000	24.867698	-1.608015	-3.233652	-4.227411	-5.311364	-7.340464	-6.650697	-1.528448	-1.526000	1.648080	-1.388660	0.734678	-0.052490	0.630797	-1.000000	-1.000000	-1.000000	-1.000000	-1.000000	-1.000000	-1.000000	83.103448	0.000000	-1.000000	-1.000000	898346.000000	1772895508.472757
-8668.575000	-13778.505000	4640.670000	-1595.745000	-23139.315000	-16942.950000	-302.715000	-8561.475000	18.812807	-7.556652	-7.435015	-6.600288	-5.837088	-5.009105	-0.005120	4.186219	-1.526000	1.648080	-1.388660	0.734678	-0.052490	0.630797	-1.000000	-1.000000	-1.000000	-1.000000	-1.000000	-1.000000	-1.000000	83.103448	0.000000	-1.000000	-1.000000	898347.000000	1772895508.477290
-8644.770000	-13762.305000	4655.070000	-1582.065000	-23126.400000	-16933.950000	-306.270000	-8559.180000	1.445166	-12.867906	-10.463235	-8.480209	-5.973198	-2.092540	8.649262	7.167748	-1.526000	1.648080	-1.388660	0.734678	-0.052490	0.630797	-1.000000	-1.000000	-1.000000	-1.000000	-1.000000	-1.000000	-1.000000	83.103448	0.000000	-1.000000	-1.000000	898348.000000	1772895508.477297
-8621.505000	-13747.230000	4663.935000	-1566.990000	-23112.675000	-16922.745000	-303.390000	-8551.980000	-14.576704	-12.052386	-8.006145	-5.960091	-3.148303	1.527739	12.950306	6.085935	-1.526000	1.648080	-1.388660	0.734678	-0.052490	0.630797	-1.000000	-1.000000	-1.000000	-1.000000	-1.000000	-1.000000	-1.000000	83.103448	0.000000	-1.000000	-1.000000	898349.000000	1772895508.480656
-8615.925000	-13735.395000	4668.570000	-1559.610000	-23105.970000	-16920.540000	-300.285000	-8543.565000	-18.874826	-3.688782	-0.136287	1.329750	2.846581	5.474659	10.394711	3.214111	-1.526000	1.648080	-1.388660	0.734678	-0.052490	0.630797	-1.000000	-1.000000	-1.000000	-1.000000	-1.000000	-1.000000	-1.000000	83.103448	0.000000	-1.000000	-1.000000	898350.000000	1772895508.480663
-8611.470000	-13742.145000	4667.985000	-1560.285000	-23105.880000	-16922.565000	-310.095000	-8541.495000	-11.768077	7.280614	8.214955	9.152006	8.691203	7.915280	3.322812	1.278582	0.000000	0.305200	-2.029580	0.734861	-0.053894	0.631651	-1.000000	-1.000000	-1.000000	-1.000000	-1.000000	-1.000000	-1.000000	83.103448	0.000000	-1.000000	-1.000000	898351.000000	1772895508.484718
-8622.540000	-13741.965000	4671.405000	-1559.970000	-23105.790000	-16920.225000	-297.135000	-8545.905000	-1.465394	13.481862	11.611442	12.262830	10.348371	7.079335	-3.766630	0.750258	0.000000	0.305200	-2.029580	0.734861	-0.053894	0.631651	-1.000000	-1.000000	-1.000000	-1.000000	-1.000000	-1.000000	-1.000000	83.103448	0.000000	-1.000000	-1.000000	898352.000000	1772895508.484726
-8641.845000	-13727.115000	4690.575000	-1542.555000	-23090.760000	-16902.765000	-282.780000	-8556.075000	3.612551	11.308956	8.548946	8.890942	6.764923	3.419177	-7.146267	0.029322	0.000000	0.305200	-2.029580	0.734861	-0.053894	0.631651	-1.000000	-1.000000	-1.000000	-1.000000	-1.000000	-1.000000	-1.000000	83.103448	0.000000	-1.000000	-1.000000	898353.000000	1772895508.488693
-8639.280000	-13744.440000	4672.980000	-1560.105000	-23111.910000	-16916.265000	-294.975000	-8540.370000	1.560450	3.446553	1.983659	1.697566	0.317131	-0.930375	-6.483577	-1.791700	0.000000	0.305200	-2.029580	0.734861	-0.053894	0.631651	-1.000000	-1.000000	-1.000000	-1.000000	-1.000000	-1.000000	-1.000000	83.103448	0.000000	-1.000000	-1.000000	898354.000000	1772895508.488701
-8612.235000	-13744.665000	4672.170000	-1560.915000	-23107.815000	-16910.280000	-279.045000	-8514.990000	-2.091331	-4.482830	-4.115005	-5.301686	-5.840200	-4.402393	-4.474257	-3.212380	0.000000	0.305200	-2.029580	0.734861	-0.053894	0.631651	-1.000000	-1.000000	-1.000000	-1.000000	-1.000000	-1.000000	-1.000000	83.103448	0.000000	-1.000000	-1.000000	898355.000000	1772895508.492777
-8604.405000	-13762.170000	4660.515000	-1569.195000	-23114.610000	-16917.030000	-285.030000	-8530.695000	-1.038403	-8.648215	-7.621357	-9.435851	-9.431304	-6.354243	-2.846658	-2.541059	0.000000	0.305200	-2.029580	0.734861	-0.053894	0.631651	-1.000000	-1.000000	-1.000000	-1.000000	-1.000000	-1.000000	-1.000000	83.103448	0.000000	-1.000000	-1.000000	898356.000000	1772895508.492784
-8619.660000	-13788.360000	4635.270000	-1591.695000	-23137.290000	-16939.035000	-300.915000	-8537.940000	4.347751	-9.042006	-8.579304	-10.156314	-9.742621	-6.790020	-1.540143	-0.814342	0.000000	0.305200	-2.029580	0.734861	-0.053894	0.631651	-1.000000	-1.000000	-1.000000	-1.000000	-1.000000	-1.000000	-1.000000	83.103448	0.000000	-1.000000	-1.000000	898357.000000	1772895508.496810
-8651.430000	-13789.035000	4613.670000	-1621.755000	-23170.770000	-16972.830000	-310.725000	-8545.590000	7.579741	-7.809394	-8.285609	-8.999051	-8.243780	-6.814407	-0.967396	-0.514261	0.000000	0.305200	-2.029580	0.734861	-0.053894	0.631651	-1.000000	-1.000000	-1.000000	-1.000000	-1.000000	-1.000000	-1.000000	83.103448	0.000000	-1.000000	-1.000000	898358.000000	1772895508.496818
-8661.645000	-13756.275000	4632.930000	-1610.640000	-23161.590000	-16967.970000	-302.850000	-8546.895000	3.905406	-5.377347	-7.041280	-7.294854	-6.479495	-7.035041	-1.215525	-2.229534	0.000000	0.305200	-2.029580	0.734861	-0.053894	0.631651	-1.000000	-1.000000	-1.000000	-1.000000	-1.000000	-1.000000	-1.000000	83.103448	0.000000	-1.000000	-1.000000	898359.000000	1772895508.500808
-8656.290000	-13722.615000	4654.170000	-1582.020000	-23129.100000	-16936.380000	-302.580000	-8567.865000	-4.307284	0.185045	-3.125158	-3.685929	-3.164345	-5.309787	-0.800629	-4.397930	0.000000	0.305200	-2.029580	0.734861	-0.053894	0.631651	-1.000000	-1.000000	-1.000000	-1.000000	-1.000000	-1.000000	-1.000000	83.103448	0.000000	-1.000000	-1.000000	898360.000000	1772895508.500818
-8697.150000	-13739.355000	4636.440000	-1585.845000	-23128.650000	-16934.715000	-312.300000	-8574.615000	-10.818720	8.440669	3.745021	3.287453	3.577882	0.750961	1.008567	-5.316908	2.258480	1.144500	-1.602300	0.734068	-0.052856	0.630492	-1.000000	-1.000000	-1.000000	-1.000000	-1.000000	-1.000000	-1.000000	83.103448	0.000000	-1.000000	-1.000000	898361.000000	1772895508.504789
-8688.960000	-13771.395000	4623.615000	-1597.815000	-23143.275000	-16952.580000	-325.305000	-8554.140000	-11.491008	13.875363	9.773235	10.962758	11.491254	8.915607	2.518877	-3.733809	2.258480	1.144500	-1.602300	0.734068	-0.052856	0.630492	-1.000000	-1.000000	-1.000000	-1.000000	-1.000000	-1.000000	-1.000000	83.103448	0.000000	-1.000000	-1.000000	898362.000000	1772895508.504797
-8668.170000	-13792.230000	4628.430000	-1606.590000	-23155.785000	-16962.255000	-319.860000	-8553.645000	-5.612284	11.327391	11.248748	14.585589	15.452981	13.591613	2.105614	0.539838	2.258480	1.144500	-1.602300	0.734068	-0.052856	0.630492	-1.000000	-1.000000	-1.000000	-1.000000	-1.000000	-1.000000	-1.000000	83.103448	0.000000	-1.000000	-1.000000	898363.000000	1772895508.508730
-8673.390000	-13791.285000	4632.030000	-1608.570000	-23159.250000	-16961.940000	-306.945000	-8579.340000	4.291316	2.205033	8.670862	12.253772	12.750020	11.750714	0.700472	5.001964	2.258480	1.144500	-1.602300	0.734068	-0.052856	0.630492	-1.000000	-1.000000	-1.000000	-1.000000	-1.000000	-1.000000	-1.000000	83.103448	0.000000	-1.000000	-1.000000	898364.000000	1772895508.508736
-8689.995000	-13809.870000	4621.140000	-1616.220000	-23165.685000	-16967.655000	-309.420000	-8587.575000	12.603427	-7.025301	4.731893	5.853800	5.136910	5.283286	0.551588	6.363764	2.258480	1.144500	-1.602300	0.734068	-0.052856	0.630492	-1.000000	-1.000000	-1.000000	-1.000000	-1.000000	-1.000000	-1.000000	83.103448	0.000000	-1.000000	-1.000000	898365.000000	1772895508.512696
-8673.390000	-13791.105000	4636.620000	-1595.430000	-23144.220000	-16948.395000	-306.855000	-8563.635000	14.844504	-10.548435	1.634686	-0.591717	-2.475123	-1.011050	2.485679	4.713571	2.258480	1.144500	-1.602300	0.734068	-0.052856	0.630492	-1.000000	-1.000000	-1.000000	-1.000000	-1.000000	-1.000000	-1.000000	83.103448	0.000000	-1.000000	-1.000000	898366.000000	1772895508.512704
-8657.505000	-13769.685000	4653.090000	-1579.680000	-23129.280000	-16938.405000	-305.235000	-8532.630000	11.907813	-6.775116	0.647314	-3.212423	-5.207880	-2.885644	5.073645	3.446648	2.258480	1.144500	-1.602300	0.734068	-0.052856	0.630492	-1.000000	-1.000000	-1.000000	-1.000000	-1.000000	-1.000000	-1.000000	83.103448	0.000000	-1.000000	-1.000000	898367.000000	1772895508.516776
-8677.080000	-13745.880000	4675.500000	-1557.450000	-23107.635000	-16917.210000	-285.930000	-8542.395000	7.092930	1.150118	1.263344	-1.475200	-2.413237	-0.165771	6.246441	4.762433	2.258480	1.144500	-1.602300	0.734068	-0.052856	0.630492	-1.000000	-1.000000	-1.000000	-1.000000	-1.000000	-1.000000	-1.000000	83.103448	0.000000	-1.000000	-1.000000	898368.000000	1772895508.516785
-8641.890000	-13733.730000	4684.410000	-1548.855000	-23098.635000	-16907.580000	-278.865000	-8549.640000	2.043984	7.819705	1.386396	1.246668	1.724369	3.141813	5.220137	6.761813	2.258480	1.144500	-1.602300	0.734068	-0.052856	0.630492	-1.000000	-1.000000	-1.000000	-1.000000	-1.000000	-1.000000	-1.000000	83.103448	0.000000	-1.000000	-1.000000	898369.000000	1772895508.520775
-8614.125000	-13749.165000	4662.360000	-1573.965000	-23125.545000	-16938.945000	-322.605000	-8562.195000	-1.363233	9.627456	-0.589572	1.065598	2.390527	2.706104	1.952344	5.750289	2.258480	1.144500	-1.602300	0.734068	-0.052856	0.630492	-1.000000	-1.000000	-1.000000	-1.000000	-1.000000	-1.000000	-1.000000	83.103448	0.000000	-1.000000	-1.000000	898370.000000	1772895508.520781
-8616.645000	-13761.855000	4645.575000	-1593.945000	-23145.840000	-16961.580000	-353.115000	-8567.820000	-1.721643	6.569683	-4.724195	-3.227604	-1.911423	-2.679569	-4.011730	-0.001101	1.693860	0.961380	-1.083460	0.738279	-0.051147	0.628599	-1.000000	-1.000000	-1.000000	-1.000000	-1.000000	-1.000000	-1.000000	83.103448	0.000000	-1.000000	-1.000000	898371.000000	1772895508.524748
-8602.830000	-13762.980000	4639.995000	-1598.265000	-23147.010000	-16958.250000	-338.130000	-8548.920000	-1.508739	1.051465	-9.592763	-9.317229	-8.455364	-10.065079	-11.382240	-8.119281	1.693860	0.961380	-1.083460	0.738279	-0.051147	0.628599	-1.000000	-1.000000	-1.000000	-1.000000	-1.000000	-1.000000	-1.000000	83.103448	0.000000	-1.000000	-1.000000	898372.000000	1772895508.524756
-8606.340000	-13773.555000	4627.665000	-1609.830000	-23154.165000	-16955.190000	-305.145000	-8533.620000	-3.665088	-4.154913	-12.664382	-13.054065	-12.508187	-14.200061	-15.227413	-12.683962	1.693860	0.961380	-1.083460	0.738279	-0.051147	0.628599	-1.000000	-1.000000	-1.000000	-1.000000	-1.000000	-1.000000	-1.000000	83.103448	0.000000	-1.000000	-1.000000	898373.000000	1772895508.528580
-8664.345000	-13780.620000	4635.135000	-1599.615000	-23144.805000	-16938.270000	-278.730000	-8559.495000	-8.290963	-7.254684	-11.514987	-11.533178	-10.981947	-11.483724	-10.580054	-10.047684	1.693860	0.961380	-1.083460	0.738279	-0.051147	0.628599	-1.000000	-1.000000	-1.000000	-1.000000	-1.000000	-1.000000	-1.000000	83.103448	0.000000	-1.000000	-1.000000	898374.000000	1772895508.528589
-8690.040000	-13781.610000	4643.955000	-1576.980000	-23124.195000	-16923.690000	-283.815000	-8558.820000	-14.476636	-8.018318	-5.572896	-4.707924	-4.168002	-2.604813	1.591004	-3.631465	1.693860	0.961380	-1.083460	0.738279	-0.051147	0.628599	-1.000000	-1.000000	-1.000000	-1.000000	-1.000000	-1.000000	-1.000000	83.103448	0.000000	-1.000000	-1.000000	898375.000000	1772895508.534335
-8684.550000	-13795.065000	4623.750000	-1587.645000	-23133.780000	-16937.280000	-302.580000	-8525.925000	-19.490660	-7.744669	2.333991	4.313735	4.472680	7.511747	13.400675	1.155509	1.693860	0.961380	-1.083460	0.738279	-0.051147	0.628599	-1.000000	-1.000000	-1.000000	-1.000000	-1.000000	-1.000000	-1.000000	83.103448	0.000000	-1.000000	-1.000000	898376.000000	1772895508.534345
-8661.915000	-13770.765000	4639.320000	-1579.185000	-23126.445000	-16929.720000	-289.845000	-8530.965000	-17.976557	-7.447915	7.485033	10.406379	9.885889	12.563814	16.603981	3.530979	1.693860	0.961380	-1.083460	0.738279	-0.051147	0.628599	-1.000000	-1.000000	-1.000000	-1.000000	-1.000000	-1.000000	-1.000000	83.103448	0.000000	-1.000000	-1.000000	898377.000000	1772895508.538402
-8602.020000	-13752.990000	4654.215000	-1574.865000	-23123.655000	-16923.915000	-275.265000	-8547.255000	-6.651721	-5.591308	8.288410	10.671315	9.476947	10.160132	10.405705	4.972212	1.693860	0.961380	-1.083460	0.738279	-0.051147	0.628599	-1.000000	-1.000000	-1.000000	-1.000000	-1.000000	-1.000000	-1.000000	83.103448	0.000000	-1.000000	-1.000000	898378.000000	1772895508.538412
-8602.065000	-13765.905000	4654.125000	-1581.660000	-23129.730000	-16930.215000	-270.495000	-8524.530000	11.089260	0.080563	7.533800	7.089740	5.545088	3.998137	1.569980	5.506496	1.693860	0.961380	-1.083460	0.738279	-0.051147	0.628599	-1.000000	-1.000000	-1.000000	-1.000000	-1.000000	-1.000000	-1.000000	83.103448	0.000000	-1.000000	-1.000000	898379.000000	1772895508.542067
-8641.665000	-13768.740000	4656.105000	-1583.370000	-23132.520000	-16934.805000	-283.140000	-8524.710000	25.382747	8.252793	7.655288	3.402359	2.070203	-0.711858	-3.491534	4.824321	1.693860	0.961380	-1.083460	0.738279	-0.051147	0.628599	-1.000000	-1.000000	-1.000000	-1.000000	-1.000000	-1.000000	-1.000000	83.103448	0.000000	-1.000000	-1.000000	898380.000000	1772895508.542078
-8647.830000	-13768.380000	4644.270000	-1595.835000	-23145.750000	-16947.765000	-298.800000	-8536.005000	26.544413	14.338106	7.725532	1.165600	0.465716	-2.434298	-5.000679	2.687016	0.259420	2.929920	-1.358140	0.740049	-0.051086	0.630308	-1.000000	-1.000000	-1.000000	-1.000000	-1.000000	-1.000000	-1.000000	83.103448	0.000000	-1.000000	-1.000000	898381.000000	1772895508.544586
-8644.770000	-13759.785000	4649.715000	-1590.210000	-23139.000000	-16941.870000	-297.405000	-8542.485000	14.492749	15.010876	5.639495	-0.243657	-0.332991	-2.850148	-6.949828	-1.085793	0.259420	2.929920	-1.358140	0.740049	-0.051086	0.630308	-1.000000	-1.000000	-1.000000	-1.000000	-1.000000	-1.000000	-1.000000	83.103448	0.000000	-1.000000	-1.000000	898382.000000	1772895508.544591
-8651.205000	-13754.700000	4653.585000	-1585.125000	-23132.295000	-16933.365000	-289.890000	-8550.090000	-0.906248	10.496497	1.041625	-1.688798	-1.353013	-3.346870	-10.235122	-5.101077	0.259420	2.929920	-1.358140	0.740049	-0.051086	0.630308	-1.000000	-1.000000	-1.000000	-1.000000	-1.000000	-1.000000	-1.000000	83.103448	0.000000	-1.000000	-1.000000	898383.000000	1772895508.548671
-8665.065000	-13752.315000	4663.125000	-1573.605000	-23122.215000	-16924.275000	-283.185000	-8557.245000	-10.123879	3.054476	-4.366752	-3.342303	-2.607423	-3.609091	-11.323610	-7.449394	0.259420	2.929920	-1.358140	0.740049	-0.051086	0.630308	-1.000000	-1.000000	-1.000000	-1.000000	-1.000000	-1.000000	-1.000000	83.103448	0.000000	-1.000000	-1.000000	898384.000000	1772895508.548680
-8642.790000	-13737.870000	4674.825000	-1562.220000	-23112.630000	-16916.220000	-276.930000	-8545.320000	-11.106770	-4.661340	-8.043367	-4.439089	-3.373478	-2.646398	-6.993452	-7.541684	0.259420	2.929920	-1.358140	0.740049	-0.051086	0.630308	-1.000000	-1.000000	-1.000000	-1.000000	-1.000000	-1.000000	-1.000000	83.103448	0.000000	-1.000000	-1.000000	898385.000000	1772895508.552742
-8622.765000	-13732.515000	4683.195000	-1550.790000	-23101.470000	-16907.490000	-276.480000	-8550.315000	-7.209865	-10.376145	-8.463577	-3.935176	-2.876049	-0.356528	1.356465	-5.044324	0.259420	2.929920	-1.358140	0.740049	-0.051086	0.630308	-1.000000	-1.000000	-1.000000	-1.000000	-1.000000	-1.000000	-1.000000	83.103448	0.000000	-1.000000	-1.000000	898386.000000	1772895508.552749
-8614.800000	-13730.130000	4688.010000	-1546.695000	-23099.580000	-16911.720000	-293.850000	-8562.465000	-3.038292	-12.659673	-6.135825	-1.669033	-1.015966	2.178644	8.695445	-0.133037	0.259420	2.929920	-1.358140	0.740049	-0.051086	0.630308	-1.000000	-1.000000	-1.000000	-1.000000	-1.000000	-1.000000	-1.000000	83.103448	0.000000	-1.000000	-1.000000	898387.000000	1772895508.556843
-8644.995000	-13746.105000	4667.985000	-1569.465000	-23122.350000	-16931.115000	-311.805000	-8577.630000	-1.543489	-10.927622	-2.777250	1.224530	1.283733	3.596074	10.859156	4.571661	0.259420	2.929920	-1.358140	0.740049	-0.051086	0.630308	-1.000000	-1.000000	-1.000000	-1.000000	-1.000000	-1.000000	-1.000000	83.103448	0.000000	-1.000000	-1.000000	898388.000000	1772895508.556850
-8650.935000	-13749.120000	4660.020000	-1579.905000	-23131.395000	-16934.760000	-302.310000	-8541.090000	-2.365806	-6.099699	-0.307580	2.675630	2.260275	2.980930	7.713965	6.492858	0.259420	2.929920	-1.358140	0.740049	-0.051086	0.630308	-1.000000	-1.000000	-1.000000	-1.000000	-1.000000	-1.000000	-1.000000	83.103448	0.000000	-1.000000	-1.000000	898389.000000	1772895508.560690
-8627.805000	-13735.305000	4674.960000	-1568.565000	-23114.160000	-16917.840000	-284.940000	-8518.680000	-2.734064	-0.318563	0.719771	1.796271	1.325257	0.934928	2.811927	6.878159	0.259420	2.929920	-1.358140	0.740049	-0.051086	0.630308	-1.000000	-1.000000	-1.000000	-1.000000	-1.000000	-1.000000	-1.000000	83.103448	0.000000	-1.000000	-1.000000	898390.000000	1772895508.560700
-8631.810000	-13738.590000	4685.040000	-1556.505000	-23100.615000	-16902.495000	-275.490000	-8537.895000	-0.174705	4.521083	1.608417	0.128727	0.115500	-0.555399	-0.149994	7.822932	0.778260	4.425400	-1.648080	0.741575	-0.052185	0.629637	-1.000000	-1.000000	-1.000000	-1.000000	-1.000000	-1.000000	-1.000000	83.103448	0.000000	-1.000000	-1.000000	898391.000000	1772895508.564774
-8617.230000	-13737.420000	4696.020000	-1544.130000	-23093.730000	-16898.130000	-278.415000	-8536.230000	5.059442	6.931033	3.163217	-0.599340	-0.035292	-0.526514	-0.541901	7.962994	0.778260	4.425400	-1.648080	0.741575	-0.052185	0.629637	-1.000000	-1.000000	-1.000000	-1.000000	-1.000000	-1.000000	-1.000000	83.103448	0.000000	-1.000000	-1.000000	898392.000000	1772895508.564782
-8598.780000	-13735.980000	4671.405000	-1564.380000	-23118.750000	-16932.465000	-306.225000	-8509.140000	10.225871	6.141196	4.101521	-0.640069	-0.080456	-0.443945	-0.538910	5.138548	0.778260	4.425400	-1.648080	0.741575	-0.052185	0.629637	-1.000000	-1.000000	-1.000000	-1.000000	-1.000000	-1.000000	-1.000000	83.103448	0.000000	-1.000000	-1.000000	898393.000000	1772895508.568770
-8645.985000	-13746.690000	4654.800000	-1580.265000	-23139.000000	-16955.055000	-324.990000	-8568.630000	11.111768	2.608144	2.136019	-1.778687	-2.081331	-2.747069	-2.644001	-0.660989	0.778260	4.425400	-1.648080	0.741575	-0.052185	0.629637	-1.000000	-1.000000	-1.000000	-1.000000	-1.000000	-1.000000	-1.000000	83.103448	0.000000	-1.000000	-1.000000	898394.000000	1772895508.568777
-8643.870000	-13758.705000	4645.260000	-1590.120000	-23145.030000	-16955.595000	-319.770000	-8595.990000	3.972607	-2.384184	-3.149511	-4.800637	-6.231492	-7.363185	-6.589845	-8.563011	0.778260	4.425400	-1.648080	0.741575	-0.052185	0.629637	-1.000000	-1.000000	-1.000000	-1.000000	-1.000000	-1.000000	-1.000000	83.103448	0.000000	-1.000000	-1.000000	898395.000000	1772895508.572588
-8640.495000	-13764.690000	4647.960000	-1584.270000	-23135.310000	-16941.780000	-298.665000	-8550.090000	-8.725623	-6.503249	-8.385967	-7.364812	-9.116224	-9.996202	-8.241709	-15.299797	0.778260	4.425400	-1.648080	0.741575	-0.052185	0.629637	-1.000000	-1.000000	-1.000000	-1.000000	-1.000000	-1.000000	-1.000000	83.103448	0.000000	-1.000000	-1.000000	898396.000000	1772895508.572595
-8622.270000	-13751.820000	4666.230000	-1562.580000	-23108.490000	-16912.980000	-281.205000	-8528.625000	-17.399746	-6.710335	-8.537850	-5.407277	-6.090145	-5.724772	-3.632766	-14.881825	0.778260	4.425400	-1.648080	0.741575	-0.052185	0.629637	-1.000000	-1.000000	-1.000000	-1.000000	-1.000000	-1.000000	-1.000000	83.103448	0.000000	-1.000000	-1.000000	898397.000000	1772895508.576741
-8621.280000	-13728.420000	4688.460000	-1541.250000	-23086.305000	-16887.915000	-265.590000	-8525.295000	-14.729574	-1.627877	-1.458775	2.611643	3.797859	5.501509	5.773133	-5.881461	0.778260	4.425400	-1.648080	0.741575	-0.052185	0.629637	-1.000000	-1.000000	-1.000000	-1.000000	-1.000000	-1.000000	-1.000000	83.103448	0.000000	-1.000000	-1.000000	898398.000000	1772895508.576750
-8673.705000	-13721.895000	4695.255000	-1537.380000	-23083.830000	-16885.620000	-281.970000	-8559.315000	-3.822512	6.421150	9.295530	12.759535	15.217474	17.303361	13.301204	5.118737	0.778260	4.425400	-1.648080	0.741575	-0.052185	0.629637	-1.000000	-1.000000	-1.000000	-1.000000	-1.000000	-1.000000	-1.000000	83.103448	0.000000	-1.000000	-1.000000	898399.000000	1772895508.580692
-8664.660000	-13722.345000	4695.660000	-1538.640000	-23087.385000	-16894.260000	-309.240000	-8585.055000	5.900318	12.435628	16.481871	17.801112	19.923032	21.125523	12.456782	10.296314	0.778260	4.425400	-1.648080	0.741575	-0.052185	0.629637	-1.000000	-1.000000	-1.000000	-1.000000	-1.000000	-1.000000	-1.000000	83.103448	0.000000	-1.000000	-1.000000	898400.000000	1772895508.580697
-8613.495000	-13739.580000	4673.610000	-1561.455000	-23110.065000	-16913.745000	-304.515000	-8548.470000	9.662335	12.157817	14.777120	13.124331	13.634966	13.248205	2.925917	7.831189	-1.464960	6.058220	-1.159760	0.745298	-0.047302	0.628416	-1.000000	-1.000000	-1.000000	-1.000000	-1.000000	-1.000000	-1.000000	83.103448	0.000000	-1.000000	-1.000000	898401.000000	1772895508.586107
-8613.990000	-13756.590000	4655.925000	-1578.555000	-23124.150000	-16927.020000	-298.710000	-8532.090000	9.824992	4.819853	4.759269	0.612797	-0.415659	-1.891497	-8.210336	2.529915	-1.464960	6.058220	-1.159760	0.745298	-0.047302	0.628416	-1.000000	-1.000000	-1.000000	-1.000000	-1.000000	-1.000000	-1.000000	83.103448	0.000000	-1.000000	-1.000000	898402.000000	1772895508.586116
-8618.760000	-13740.570000	4667.625000	-1569.285000	-23120.100000	-16931.250000	-301.680000	-8537.445000	9.124758	-5.771735	-7.561675	-12.506480	-14.002900	-15.407736	-12.959893	0.678648	-1.464960	6.058220	-1.159760	0.745298	-0.047302	0.628416	-1.000000	-1.000000	-1.000000	-1.000000	-1.000000	-1.000000	-1.000000	83.103448	0.000000	-1.000000	-1.000000	898403.000000	1772895508.590106
-8612.550000	-13718.295000	4688.280000	-1549.530000	-23101.155000	-16914.780000	-292.185000	-8553.690000	7.189673	-12.618763	-14.633238	-18.333667	-19.477050	-20.378936	-9.443243	3.474306	-1.464960	6.058220	-1.159760	0.745298	-0.047302	0.628416	-1.000000	-1.000000	-1.000000	-1.000000	-1.000000	-1.000000	-1.000000	83.103448	0.000000	-1.000000	-1.000000	898404.000000	1772895508.590114
-8633.835000	-13731.480000	4682.160000	-1553.535000	-23100.840000	-16909.245000	-281.160000	-8567.595000	2.843782	-11.126900	-12.770933	-13.865290	-14.626744	-15.461669	-1.588164	5.531298	-1.464960	6.058220	-1.159760	0.745298	-0.047302	0.628416	-1.000000	-1.000000	-1.000000	-1.000000	-1.000000	-1.000000	-1.000000	83.103448	0.000000	-1.000000	-1.000000	898405.000000	1772895508.592745
-8643.645000	-13748.265000	4667.535000	-1568.610000	-23111.955000	-16912.440000	-274.095000	-8559.045000	-3.762177	-4.048714	-5.215930	-3.537395	-4.102339	-5.029143	5.265290	1.628538	-1.464960	6.058220	-1.159760	0.745298	-0.047302	0.628416	-1.000000	-1.000000	-1.000000	-1.000000	-1.000000	-1.000000	-1.000000	83.103448	0.000000	-1.000000	-1.000000	898406.000000	1772895508.592753
-8675.955000	-13792.365000	4624.875000	-1607.805000	-23148.315000	-16944.975000	-292.500000	-8570.205000	-10.627769	1.118129	0.733435	4.331269	4.069163	3.670267	7.383038	-6.513631	-1.464960	6.058220	-1.159760	0.745298	-0.047302	0.628416	-1.000000	-1.000000	-1.000000	-1.000000	-1.000000	-1.000000	-1.000000	83.103448	0.000000	-1.000000	-1.000000	898407.000000	1772895508.596593
-8677.530000	-13799.835000	4612.635000	-1618.380000	-23162.220000	-16963.560000	-284.760000	-8562.150000	-14.158984	-0.212871	0.306092	4.549535	4.812150	5.590882	4.475926	-11.953539	-1.464960	6.058220	-1.159760	0.745298	-0.047302	0.628416	-1.000000	-1.000000	-1.000000	-1.000000	-1.000000	-1.000000	-1.000000	83.103448	0.000000	-1.000000	-1.000000	898408.000000	1772895508.596598
-8660.115000	-13790.790000	4616.055000	-1615.005000	-23161.815000	-16964.820000	-283.995000	-8534.115000	-11.706590	-5.084628	-4.297086	-0.647665	0.072094	1.848191	0.001297	-9.345636	-1.464960	6.058220	-1.159760	0.745298	-0.047302	0.628416	-1.000000	-1.000000	-1.000000	-1.000000	-1.000000	-1.000000	-1.000000	83.103448	0.000000	-1.000000	-1.000000	898409.000000	1772895508.600708
-8645.220000	-13772.070000	4630.770000	-1602.990000	-23149.080000	-16952.220000	-282.600000	-8526.645000	-4.509572	-6.218101	-6.016675	-4.021574	-3.246614	-1.399776	-2.294719	-0.191945	-1.464960	6.058220	-1.159760	0.745298	-0.047302	0.628416	-1.000000	-1.000000	-1.000000	-1.000000	-1.000000	-1.000000	-1.000000	83.103448	0.000000	-1.000000	-1.000000	898410.000000	1772895508.600715
-8680.995000	-13767.660000	4641.435000	-1591.245000	-23137.740000	-16945.605000	-295.290000	-8557.695000	3.289641	0.182799	-0.174445	-0.435929	0.022704	1.005261	-1.910458	8.343410	-4.043900	4.181240	-2.868880	0.746397	-0.050537	0.632628	-1.000000	-1.000000	-1.000000	-1.000000	-1.000000	-1.000000	-1.000000	83.103448	0.000000	-1.000000	-1.000000	898411.000000	1772895508.606052
-8693.190000	-13751.955000	4666.320000	-1564.470000	-23112.945000	-16926.030000	-298.305000	-8594.190000	7.660659	10.524579	10.689763	8.499165	8.583637	8.290356	-0.805413	9.977501	-4.043900	4.181240	-2.868880	0.746397	-0.050537	0.632628	-1.000000	-1.000000	-1.000000	-1.000000	-1.000000	-1.000000	-1.000000	83.103448	0.000000	-1.000000	-1.000000	898412.000000	1772895508.606060
-8643.870000	-13739.310000	4688.415000	-1541.070000	-23090.940000	-16906.725000	-290.520000	-8589.240000	7.895526	17.745872	19.560500	16.664038	16.480240	15.041476	-0.614728	4.181525	-4.043900	4.181240	-2.868880	0.746397	-0.050537	0.632628	-1.000000	-1.000000	-1.000000	-1.000000	-1.000000	-1.000000	-1.000000	83.103448	0.000000	-1.000000	-1.000000	898413.000000	1772895508.610282
-8619.030000	-13744.170000	4675.635000	-1556.190000	-23102.955000	-16910.640000	-281.790000	-8568.045000	7.734050	17.573885	20.823967	18.502125	18.053177	15.972729	-1.312978	-3.826201	-4.043900	4.181240	-2.868880	0.746397	-0.050537	0.632628	-1.000000	-1.000000	-1.000000	-1.000000	-1.000000	-1.000000	-1.000000	83.103448	0.000000	-1.000000	-1.000000	898414.000000	1772895508.610289
-8634.240000	-13771.350000	4639.545000	-1594.530000	-23139.945000	-16939.980000	-279.495000	-8522.370000	9.881854	10.222798	12.878113	11.652666	10.928601	9.069059	-1.793637	-7.149486	-4.043900	4.181240	-2.868880	0.746397	-0.050537	0.632628	-1.000000	-1.000000	-1.000000	-1.000000	-1.000000	-1.000000	-1.000000	83.103448	0.000000	-1.000000	-1.000000	898415.000000	1772895508.612827
-8616.465000	-13761.180000	4641.660000	-1595.115000	-23143.545000	-16947.540000	-293.895000	-8529.030000	12.130743	-0.771448	-1.213845	-1.641279	-2.469133	-3.153175	-1.210587	-2.725222	-4.043900	4.181240	-2.868880	0.746397	-0.050537	0.632628	-1.000000	-1.000000	-1.000000	-1.000000	-1.000000	-1.000000	-1.000000	83.103448	0.000000	-1.000000	-1.000000	898416.000000	1772895508.612834
-8601.795000	-13741.965000	4649.895000	-1585.485000	-23131.980000	-16936.470000	-294.120000	-8534.880000	11.074373	-9.920925	-14.396857	-14.594182	-15.152670	-14.255226	0.135917	5.560155	-4.043900	4.181240	-2.868880	0.746397	-0.050537	0.632628	-1.000000	-1.000000	-1.000000	-1.000000	-1.000000	-1.000000	-1.000000	83.103448	0.000000	-1.000000	-1.000000	898417.000000	1772895508.616880
-8626.005000	-13737.780000	4651.785000	-1582.515000	-23128.740000	-16931.700000	-282.960000	-8517.015000	4.545968	-13.238401	-20.194552	-20.354638	-20.163366	-18.065713	1.482928	10.051283	-4.043900	4.181240	-2.868880	0.746397	-0.050537	0.632628	-1.000000	-1.000000	-1.000000	-1.000000	-1.000000	-1.000000	-1.000000	83.103448	0.000000	-1.000000	-1.000000	898418.000000	1772895508.616886
-8626.230000	-13759.695000	4644.360000	-1588.725000	-23135.670000	-16942.185000	-290.340000	-8509.860000	-7.192687	-11.405914	-17.339643	-17.128955	-15.983452	-13.564958	2.558352	7.133977	-4.043900	4.181240	-2.868880	0.746397	-0.050537	0.632628	-1.000000	-1.000000	-1.000000	-1.000000	-1.000000	-1.000000	-1.000000	83.103448	0.000000	-1.000000	-1.000000	898419.000000	1772895508.620715
-8618.805000	-13777.380000	4644.540000	-1591.200000	-23141.205000	-16950.870000	-292.770000	-8507.835000	-18.527299	-8.406171	-9.568044	-8.638702	-6.968330	-5.183104	3.142418	0.460748	-4.043900	4.181240	-2.868880	0.746397	-0.050537	0.632628	-1.000000	-1.000000	-1.000000	-1.000000	-1.000000	-1.000000	-1.000000	83.103448	0.000000	-1.000000	-1.000000	898420.000000	1772895508.620720
-8604.180000	-13777.965000	4655.835000	-1577.295000	-23128.110000	-16936.065000	-274.005000	-8497.215000	-22.015921	-7.155376	-1.891643	-0.401321	0.966145	1.586384	2.985327	-3.971726	1.861720	3.174080	-2.426340	0.746092	-0.058594	0.639891	-1.000000	-1.000000	-1.000000	-1.000000	-1.000000	-1.000000	-1.000000	83.103448	0.000000	-1.000000	-1.000000	898421.000000	1772895508.626266
-8588.160000	-13752.585000	4670.820000	-1556.505000	-23102.280000	-16912.845000	-260.235000	-8488.845000	-16.061080	-6.519272	3.120059	4.699536	5.152524	4.637294	2.290392	-4.053952	1.861720	3.174080	-2.426340	0.746092	-0.058594	0.639891	-1.000000	-1.000000	-1.000000	-1.000000	-1.000000	-1.000000	-1.000000	83.103448	0.000000	-1.000000	-1.000000	898422.000000	1772895508.626275
-8595.090000	-13726.845000	4697.685000	-1531.170000	-23073.030000	-16887.555000	-258.030000	-8495.775000	-5.307521	-2.549275	6.602304	7.970852	7.514279	5.920259	1.216775	-2.752983	1.861720	3.174080	-2.426340	0.746092	-0.058594	0.639891	-1.000000	-1.000000	-1.000000	-1.000000	-1.000000	-1.000000	-1.000000	83.103448	0.000000	-1.000000	-1.000000	898423.000000	1772895508.628843
-8686.845000	-13753.710000	4677.435000	-1557.315000	-23104.665000	-16921.440000	-307.350000	-8567.055000	3.498642	6.108329	10.506691	11.435363	10.488042	7.691993	-0.918532	-4.889034	1.861720	3.174080	-2.426340	0.746092	-0.058594	0.639891	-1.000000	-1.000000	-1.000000	-1.000000	-1.000000	-1.000000	-1.000000	83.103448	0.000000	-1.000000	-1.000000	898424.000000	1772895508.628848
-8680.545000	-13768.875000	4654.935000	-1577.745000	-23125.500000	-16942.725000	-327.735000	-8604.135000	5.114119	14.331400	12.978138	13.061684	11.982280	8.452049	-4.931151	-12.161599	1.861720	3.174080	-2.426340	0.746092	-0.058594	0.639891	-1.000000	-1.000000	-1.000000	-1.000000	-1.000000	-1.000000	-1.000000	83.103448	0.000000	-1.000000	-1.000000	898425.000000	1772895508.632765
-8640.540000	-13752.270000	4669.650000	-1564.605000	-23115.735000	-16924.095000	-302.130000	-8590.590000	1.053190	15.312377	10.059897	9.044953	8.004868	5.306577	-9.190280	-19.744302	1.861720	3.174080	-2.426340	0.746092	-0.058594	0.639891	-1.000000	-1.000000	-1.000000	-1.000000	-1.000000	-1.000000	-1.000000	83.103448	0.000000	-1.000000	-1.000000	898426.000000	1772895508.632770
-8653.140000	-13751.505000	4658.400000	-1579.545000	-23130.360000	-16932.330000	-286.785000	-8551.440000	-1.142828	8.483853	1.932031	0.016227	-0.879434	-0.847592	-9.487556	-19.284967	1.861720	3.174080	-2.426340	0.746092	-0.058594	0.639891	-1.000000	-1.000000	-1.000000	-1.000000	-1.000000	-1.000000	-1.000000	83.103448	0.000000	-1.000000	-1.000000	898427.000000	1772895508.636940
-8649.945000	-13763.025000	4637.880000	-1604.565000	-23153.265000	-16951.185000	-285.435000	-8528.715000	2.766650	-0.766453	-7.194231	-9.530970	-10.074163	-6.424004	-3.569297	-6.385654	1.861720	3.174080	-2.426340	0.746092	-0.058594	0.639891	-1.000000	-1.000000	-1.000000	-1.000000	-1.000000	-1.000000	-1.000000	83.103448	0.000000	-1.000000	-1.000000	898428.000000	1772895508.636947
-8644.320000	-13770.315000	4638.645000	-1601.460000	-23149.035000	-16948.935000	-289.890000	-8534.205000	9.803900	-7.255050	-13.496019	-15.625814	-15.419758	-9.128574	5.526404	14.390414	1.861720	3.174080	-2.426340	0.746092	-0.058594	0.639891	-1.000000	-1.000000	-1.000000	-1.000000	-1.000000	-1.000000	-1.000000	83.103448	0.000000	-1.000000	-1.000000	898429.000000	1772895508.640885
-8643.195000	-13761.540000	4649.130000	-1584.450000	-23132.565000	-16935.390000	-289.440000	-8545.995000	14.101079	-9.264727	-14.854054	-15.997442	-14.828895	-8.581561	11.637702	31.272149	1.861720	3.174080	-2.426340	0.746092	-0.058594	0.639891	-1.000000	-1.000000	-1.000000	-1.000000	-1.000000	-1.000000	-1.000000	83.103448	0.000000	-1.000000	-1.000000	898430.000000	1772895508.640893
-8630.730000	-13749.930000	4655.160000	-1566.540000	-23114.565000	-16922.115000	-295.155000	-8559.090000	11.987986	-7.676585	-10.756550	-10.131372	-8.504031	-5.404721	10.622194	33.621074	3.906560	3.280900	-1.358140	0.749815	-0.058777	0.642699	-1.000000	-1.000000	-1.000000	-1.000000	-1.000000	-1.000000	-1.000000	83.103448	0.000000	-1.000000	-1.000000	898431.000000	1772895508.644834
-8596.215000	-13749.255000	4665.960000	-1556.910000	-23106.645000	-16919.910000	-306.180000	-8550.135000	5.810286	-4.010923	-2.571115	0.212279	1.264702	-0.565858	3.705971	20.539043	3.906560	3.280900	-1.358140	0.749815	-0.058777	0.642699	-1.000000	-1.000000	-1.000000	-1.000000	-1.000000	-1.000000	-1.000000	83.103448	0.000000	-1.000000	-1.000000	898432.000000	1772895508.644841
-8596.395000	-13732.290000	4693.860000	-1538.145000	-23090.085000	-16907.490000	-303.840000	-8533.620000	2.047676	0.902905	7.462298	11.685846	11.492364	5.298539	-3.416898	2.045590	3.906560	3.280900	-1.358140	0.749815	-0.058777	0.642699	-1.000000	-1.000000	-1.000000	-1.000000	-1.000000	-1.000000	-1.000000	83.103448	0.000000	-1.000000	-1.000000	898433.000000	1772895508.648710
-8641.170000	-13703.805000	4714.470000	-1528.515000	-23082.795000	-16899.930000	-290.070000	-8546.220000	1.821926	6.475079	16.759447	20.245732	19.023725	11.073706	-5.442330	-10.164363	3.906560	3.280900	-1.358140	0.749815	-0.058777	0.642699	-1.000000	-1.000000	-1.000000	-1.000000	-1.000000	-1.000000	-1.000000	83.103448	0.000000	-1.000000	-1.000000	898434.000000	1772895508.648719
-8657.235000	-13726.620000	4695.615000	-1548.945000	-23100.165000	-16908.345000	-286.380000	-8560.305000	-1.338364	10.330991	21.165044	21.488951	20.079375	13.667831	-2.376798	-13.645040	3.906560	3.280900	-1.358140	0.749815	-0.058777	0.642699	-1.000000	-1.000000	-1.000000	-1.000000	-1.000000	-1.000000	-1.000000	83.103448	0.000000	-1.000000	-1.000000	898435.000000	1772895508.652836
-8661.690000	-13762.800000	4661.190000	-1575.135000	-23120.145000	-16921.125000	-285.030000	-8546.535000	-10.288961	8.610801	16.398767	13.106421	12.491178	10.163084	1.438394	-13.677289	3.906560	3.280900	-1.358140	0.749815	-0.058777	0.642699	-1.000000	-1.000000	-1.000000	-1.000000	-1.000000	-1.000000	-1.000000	83.103448	0.000000	-1.000000	-1.000000	898436.000000	1772895508.652841
-8662.905000	-13768.425000	4658.580000	-1572.255000	-23115.375000	-16918.830000	-286.560000	-8518.140000	-19.086129	0.494078	2.925992	-1.680692	-0.867960	1.670717	2.569804	-13.225636	3.906560	3.280900	-1.358140	0.749815	-0.058777	0.642699	-1.000000	-1.000000	-1.000000	-1.000000	-1.000000	-1.000000	-1.000000	83.103448	0.000000	-1.000000	-1.000000	898437.000000	1772895508.656736
-8651.115000	-13740.885000	4674.645000	-1558.665000	-23102.685000	-16909.965000	-292.320000	-8534.970000	-20.565216	-8.928298	-12.475086	-15.286421	-13.257869	-7.284722	0.734785	-10.563351	3.906560	3.280900	-1.358140	0.749815	-0.058777	0.642699	-1.000000	-1.000000	-1.000000	-1.000000	-1.000000	-1.000000	-1.000000	83.103448	0.000000	-1.000000	-1.000000	898438.000000	1772895508.656744
-8677.755000	-13729.950000	4673.430000	-1561.680000	-23106.375000	-16917.480000	-313.830000	-8600.670000	-13.370533	-12.863581	-21.619670	-21.468571	-19.328249	-12.877693	-2.830893	-5.737019	3.906560	3.280900	-1.358140	0.749815	-0.058777	0.642699	-1.000000	-1.000000	-1.000000	-1.000000	-1.000000	-1.000000	-1.000000	83.103448	0.000000	-1.000000	-1.000000	898439.000000	1772895508.660681
-8618.040000	-13728.690000	4677.930000	-1555.155000	-23103.045000	-16915.680000	-313.920000	-8615.475000	-1.397320	-9.273352	-20.834070	-19.036216	-18.145470	-13.995305	-6.389234	-2.442111	3.906560	3.280900	-1.358140	0.749815	-0.058777	0.642699	-1.000000	-1.000000	-1.000000	-1.000000	-1.000000	-1.000000	-1.000000	83.103448	0.000000	-1.000000	-1.000000	898440.000000	1772895508.660690
-8595.945000	-13749.480000	4675.635000	-1566.990000	-23113.665000	-16920.945000	-287.730000	-8557.425000	11.286780	-1.813119	-12.167134	-10.720422	-11.756032	-10.952039	-6.982526	-1.239928	-0.198380	2.868880	-1.587040	0.751158	-0.052368	0.645140	-1.000000	-1.000000	-1.000000	-1.000000	-1.000000	-1.000000	-1.000000	83.103448	0.000000	-1.000000	-1.000000	898441.000000	1772895508.664687
-8629.155000	-13750.830000	4663.485000	-1586.070000	-23133.015000	-16935.480000	-273.780000	-8532.000000	21.103428	3.980889	-1.151200	-1.055833	-3.453600	-4.963944	-2.188827	2.640136	-0.198380	2.868880	-1.587040	0.751158	-0.052368	0.645140	-1.000000	-1.000000	-1.000000	-1.000000	-1.000000	-1.000000	-1.000000	83.103448	0.000000	-1.000000	-1.000000	898442.000000	1772895508.664692
-8641.395000	-13758.795000	4648.185000	-1593.540000	-23140.980000	-16939.710000	-280.980000	-8527.365000	23.270851	4.822071	6.450945	5.652259	3.264502	1.336882	5.674800	11.257733	-0.198380	2.868880	-1.587040	0.751158	-0.052368	0.645140	-1.000000	-1.000000	-1.000000	-1.000000	-1.000000	-1.000000	-1.000000	83.103448	0.000000	-1.000000	-1.000000	898443.000000	1772895508.668593
-8619.570000	-13757.175000	4649.085000	-1584.450000	-23132.520000	-16934.895000	-288.090000	-8525.835000	16.174064	2.149486	8.698005	8.505395	7.209200	5.841946	10.427497	19.247950	-0.198380	2.868880	-1.587040	0.751158	-0.052368	0.645140	-1.000000	-1.000000	-1.000000	-1.000000	-1.000000	-1.000000	-1.000000	83.103448	0.000000	-1.000000	-1.000000	898444.000000	1772895508.668602
-8607.600000	-13752.405000	4661.145000	-1571.895000	-23120.370000	-16927.155000	-301.905000	-8529.255000	4.380096	0.625437	8.532711	10.128137	10.018949	8.690126	8.203647	19.187509	-0.198380	2.868880	-1.587040	0.751158	-0.052368	0.645140	-1.000000	-1.000000	-1.000000	-1.000000	-1.000000	-1.000000	-1.000000	83.103448	0.000000	-1.000000	-1.000000	898445.000000	1772895508.672643
-8638.110000	-13753.620000	4670.955000	-1561.005000	-23108.895000	-16918.380000	-297.945000	-8531.415000	-6.500668	2.680841	9.111440	12.072868	12.554067	10.383442	0.746885	8.851058	-0.198380	2.868880	-1.587040	0.751158	-0.052368	0.645140	-1.000000	-1.000000	-1.000000	-1.000000	-1.000000	-1.000000	-1.000000	83.103448	0.000000	-1.000000	-1.000000	898446.000000	1772895508.672652
-8649.270000	-13743.405000	4677.795000	-1555.290000	-23102.640000	-16909.245000	-273.600000	-8543.295000	-14.275463	5.700301	9.744318	12.373914	12.931454	10.119169	-6.261457	-6.214834	-0.198380	2.868880	-1.587040	0.751158	-0.052368	0.645140	-1.000000	-1.000000	-1.000000	-1.000000	-1.000000	-1.000000	-1.000000	83.103448	0.000000	-1.000000	-1.000000	898447.000000	1772895508.676625
-8629.425000	-13727.880000	4681.755000	-1550.745000	-23097.555000	-16903.800000	-279.855000	-8591.040000	-18.009677	5.996539	7.944267	8.626913	9.191940	7.153253	-7.629449	-17.148020	-0.198380	2.868880	-1.587040	0.751158	-0.052368	0.645140	-1.000000	-1.000000	-1.000000	-1.000000	-1.000000	-1.000000	-1.000000	83.103448	0.000000	-1.000000	-1.000000	898448.000000	1772895508.676633
-8625.015000	-13746.690000	4656.285000	-1575.585000	-23121.225000	-16923.420000	-287.145000	-8564.310000	-16.703888	3.055132	2.727667	1.003308	1.776668	1.962126	-3.376665	-19.295445	-0.198380	2.868880	-1.587040	0.751158	-0.052368	0.645140	-1.000000	-1.000000	-1.000000	-1.000000	-1.000000	-1.000000	-1.000000	83.103448	0.000000	-1.000000	-1.000000	898449.000000	1772895508.680708
-8623.035000	-13752.450000	4657.095000	-1577.565000	-23122.935000	-16924.995000	-274.050000	-8516.205000	-10.883745	-1.320322	-4.716950	-7.801779	-6.684997	-4.045483	1.790830	-13.601746	-0.198380	2.868880	-1.587040	0.751158	-0.052368	0.645140	-1.000000	-1.000000	-1.000000	-1.000000	-1.000000	-1.000000	-1.000000	83.103448	0.000000	-1.000000	-1.000000	898450.000000	1772895508.680714
-8632.125000	-13756.095000	4652.010000	-1582.335000	-23127.705000	-16930.890000	-274.680000	-8504.550000	-2.002425	-5.234383	-11.133535	-13.732335	-12.438375	-8.671182	3.840788	-3.314209	-4.120200	3.830260	-1.892240	0.750059	-0.050598	0.646422	-1.000000	-1.000000	-1.000000	-1.000000	-1.000000	-1.000000	-1.000000	83.103448	0.000000	-1.000000	-1.000000	898451.000000	1772895508.688443
-8662.680000	-13754.790000	4661.820000	-1569.240000	-23114.790000	-16920.945000	-267.570000	-8525.880000	7.246612	-7.131514	-12.697980	-13.599485	-12.564432	-9.797148	2.465074	6.828451	-4.120200	3.830260	-1.892240	0.750059	-0.050598	0.646422	-1.000000	-1.000000	-1.000000	-1.000000	-1.000000	-1.000000	-1.000000	83.103448	0.000000	-1.000000	-1.000000	898452.000000	1772895508.688453
-8606.655000	-13747.860000	4671.585000	-1562.535000	-23109.480000	-16915.815000	-259.605000	-8512.425000	12.984374	-5.839961	-7.935767	-7.412008	-7.122674	-6.869781	0.091191	11.750151	-4.120200	3.830260	-1.892240	0.750059	-0.050598	0.646422	-1.000000	-1.000000	-1.000000	-1.000000	-1.000000	-1.000000	-1.000000	83.103448	0.000000	-1.000000	-1.000000	898453.000000	1772895508.690277
-8570.970000	-13770.765000	4644.810000	-1588.815000	-23136.435000	-16940.925000	-284.715000	-8502.795000	14.490701	-1.946609	0.194617	0.885517	0.145193	-1.912847	-1.150100	9.978790	-4.120200	3.830260	-1.892240	0.750059	-0.050598	0.646422	-1.000000	-1.000000	-1.000000	-1.000000	-1.000000	-1.000000	-1.000000	83.103448	0.000000	-1.000000	-1.000000	898454.000000	1772895508.690286
-8595.765000	-13770.090000	4637.430000	-1595.565000	-23141.205000	-16946.325000	-295.515000	-8523.540000	13.873117	1.611123	5.689051	5.571244	3.975774	1.293582	-1.832945	4.285967	-4.120200	3.830260	-1.892240	0.750059	-0.050598	0.646422	-1.000000	-1.000000	-1.000000	-1.000000	-1.000000	-1.000000	-1.000000	83.103448	0.000000	-1.000000	-1.000000	898455.000000	1772895508.692766
-8652.870000	-13743.090000	4666.320000	-1570.005000	-23116.140000	-16922.340000	-284.040000	-8534.880000	10.114826	2.601600	5.441515	4.526630	2.732371	1.168371	-3.229654	-1.326315	-4.120200	3.830260	-1.892240	0.750059	-0.050598	0.646422	-1.000000	-1.000000	-1.000000	-1.000000	-1.000000	-1.000000	-1.000000	83.103448	0.000000	-1.000000	-1.000000	898456.000000	1772895508.692772
-8637.525000	-13732.380000	4684.005000	-1553.175000	-23100.615000	-16909.740000	-281.655000	-8534.565000	0.328857	2.106485	2.586160	1.499167	0.244854	0.369826	-4.103656	-3.737788	-4.120200	3.830260	-1.892240	0.750059	-0.050598	0.646422	-1.000000	-1.000000	-1.000000	-1.000000	-1.000000	-1.000000	-1.000000	83.103448	0.000000	-1.000000	-1.000000	898457.000000	1772895508.697530
-8616.870000	-13755.420000	4663.800000	-1571.760000	-23119.245000	-16927.020000	-278.775000	-8529.615000	-12.534609	2.190686	1.545547	1.014302	0.663170	1.804041	-2.493082	-3.086624	-4.120200	3.830260	-1.892240	0.750059	-0.050598	0.646422	-1.000000	-1.000000	-1.000000	-1.000000	-1.000000	-1.000000	-1.000000	83.103448	0.000000	-1.000000	-1.000000	898458.000000	1772895508.697537
-8652.285000	-13756.905000	4651.695000	-1584.045000	-23134.455000	-16941.330000	-284.490000	-8552.970000	-20.325593	2.699955	2.334888	3.012094	3.435878	4.520941	0.865535	-3.152568	-4.120200	3.830260	-1.892240	0.750059	-0.050598	0.646422	-1.000000	-1.000000	-1.000000	-1.000000	-1.000000	-1.000000	-1.000000	83.103448	0.000000	-1.000000	-1.000000	898459.000000	1772895508.700705
-8653.365000	-13739.220000	4674.060000	-1561.365000	-23110.740000	-16921.800000	-293.175000	-8573.130000	-18.263839	2.493884	2.514896	4.538876	5.319734	5.689192	3.293122	-6.379371	-4.120200	3.830260	-1.892240	0.750059	-0.050598	0.646422	-1.000000	-1.000000	-1.000000	-1.000000	-1.000000	-1.000000	-1.000000	83.103448	0.000000	-1.000000	-1.000000	898460.000000	1772895508.700713
-8636.085000	-13726.125000	4693.185000	-1543.140000	-23091.840000	-16904.790000	-293.490000	-8559.765000	-8.025290	1.921465	1.758237	4.318701	5.096655	4.666005	3.177246	-9.922578	-4.745860	3.418240	-0.930860	0.747923	-0.050537	0.649046	-1.000000	-1.000000	-1.000000	-1.000000	-1.000000	-1.000000	-1.000000	83.103448	0.000000	-1.000000	-1.000000	898461.000000	1772895508.704717
-8631.675000	-13727.115000	4688.505000	-1550.070000	-23098.680000	-16909.020000	-280.305000	-8543.925000	4.348532	1.790308	1.156163	2.921806	3.591635	2.745934	1.527056	-8.717387	-4.745860	3.418240	-0.930860	0.747923	-0.050537	0.649046	-1.000000	-1.000000	-1.000000	-1.000000	-1.000000	-1.000000	-1.000000	83.103448	0.000000	-1.000000	-1.000000	898462.000000	1772895508.704723
-8637.255000	-13733.820000	4678.200000	-1558.620000	-23105.835000	-16912.845000	-262.305000	-8545.365000	12.005711	1.689638	0.638734	0.727273	1.329693	0.801903	1.188658	-1.298107	-4.745860	3.418240	-0.930860	0.747923	-0.050537	0.649046	-1.000000	-1.000000	-1.000000	-1.000000	-1.000000	-1.000000	-1.000000	83.103448	0.000000	-1.000000	-1.000000	898463.000000	1772895508.708602
-8644.410000	-13743.855000	4667.760000	-1568.295000	-23115.105000	-16923.105000	-280.305000	-8564.940000	12.789795	0.210312	-0.949386	-2.379562	-1.850459	-1.407041	3.269387	8.799438	-4.745860	3.418240	-0.930860	0.747923	-0.050537	0.649046	-1.000000	-1.000000	-1.000000	-1.000000	-1.000000	-1.000000	-1.000000	83.103448	0.000000	-1.000000	-1.000000	898464.000000	1772895508.708607
-8642.025000	-13752.810000	4659.705000	-1572.660000	-23117.085000	-16924.095000	-289.125000	-8539.515000	9.854543	-3.847138	-4.548024	-6.430389	-6.042168	-4.578883	4.853278	16.612750	-4.745860	3.418240	-0.930860	0.747923	-0.050537	0.649046	-1.000000	-1.000000	-1.000000	-1.000000	-1.000000	-1.000000	-1.000000	83.103448	0.000000	-1.000000	-1.000000	898465.000000	1772895508.714594
-8635.635000	-13773.645000	4647.015000	-1584.630000	-23127.345000	-16929.000000	-283.320000	-8511.345000	6.098724	-9.379431	-9.160721	-10.237474	-9.984047	-8.047333	2.864337	19.254053	-4.745860	3.418240	-0.930860	0.747923	-0.050537	0.649046	-1.000000	-1.000000	-1.000000	-1.000000	-1.000000	-1.000000	-1.000000	83.103448	0.000000	-1.000000	-1.000000	898466.000000	1772895508.714607
-8642.385000	-13787.145000	4642.155000	-1585.620000	-23128.020000	-16929.495000	-288.630000	-8532.495000	1.896978	-12.663176	-11.350947	-10.960822	-10.761614	-9.088446	-1.900019	15.617512	-4.745860	3.418240	-0.930860	0.747923	-0.050537	0.649046	-1.000000	-1.000000	-1.000000	-1.000000	-1.000000	-1.000000	-1.000000	83.103448	0.000000	-1.000000	-1.000000	898467.000000	1772895508.716774
-8627.175000	-13770.360000	4652.010000	-1578.645000	-23125.050000	-16932.645000	-295.605000	-8541.585000	-1.807498	-10.434167	-8.092195	-6.518801	-6.422660	-5.750355	-6.325760	5.938773	-4.745860	3.418240	-0.930860	0.747923	-0.050537	0.649046	-1.000000	-1.000000	-1.000000	-1.000000	-1.000000	-1.000000	-1.000000	83.103448	0.000000	-1.000000	-1.000000	898468.000000	1772895508.716780
-8647.380000	-13765.410000	4647.420000	-1589.220000	-23138.505000	-16949.205000	-305.190000	-8543.430000	-3.346170	-2.809329	-0.376983	1.222413	0.893241	0.003797	-8.026650	-6.355104	-4.745860	3.418240	-0.930860	0.747923	-0.050537	0.649046	-1.000000	-1.000000	-1.000000	-1.000000	-1.000000	-1.000000	-1.000000	83.103448	0.000000	-1.000000	-1.000000	898469.000000	1772895508.721266
-8650.080000	-13760.325000	4651.875000	-1581.075000	-23125.635000	-16934.940000	-297.315000	-8546.220000	-3.799757	6.628230	7.222508	7.514472	6.475319	4.110643	-6.459128	-16.007923	-4.745860	3.418240	-0.930860	0.747923	-0.050537	0.649046	-1.000000	-1.000000	-1.000000	-1.000000	-1.000000	-1.000000	-1.000000	83.103448	0.000000	-1.000000	-1.000000	898470.000000	1772895508.721286
-8611.605000	-13738.545000	4677.705000	-1557.270000	-23102.190000	-16911.180000	-275.985000	-8525.880000	-4.994649	13.738457	11.405584	9.994202	8.523202	5.575333	-2.332940	-19.488856	-6.317640	3.433500	0.350980	0.747374	-0.051269	0.647764	-1.000000	-1.000000	-1.000000	-1.000000	-1.000000	-1.000000	-1.000000	83.103448	0.000000	-1.000000	-1.000000	898471.000000	1772895508.730908
-8580.015000	-13717.800000	4697.415000	-1540.980000	-23095.530000	-16906.545000	-265.905000	-8510.895000	-4.771276	16.745762	12.735846	10.331574	8.999044	6.613593	3.145382	-15.343857	-6.317640	3.433500	0.350980	0.747374	-0.051269	0.647764	-1.000000	-1.000000	-1.000000	-1.000000	-1.000000	-1.000000	-1.000000	83.103448	0.000000	-1.000000	-1.000000	898472.000000	1772895508.730928
-8639.235000	-13729.545000	4679.595000	-1555.425000	-23112.315000	-16925.940000	-279.135000	-8531.865000	-0.942027	15.311346	12.092502	9.770895	8.705561	7.610977	7.970381	-4.938431	-6.317640	3.433500	0.350980	0.747374	-0.051269	0.647764	-1.000000	-1.000000	-1.000000	-1.000000	-1.000000	-1.000000	-1.000000	83.103448	0.000000	-1.000000	-1.000000	898473.000000	1772895508.730938
-8664.930000	-13768.155000	4641.255000	-1597.140000	-23153.715000	-16970.850000	-328.095000	-8562.240000	2.499336	8.686347	7.733095	6.381489	5.414159	5.628148	8.960231	5.378559	-6.317640	3.433500	0.350980	0.747374	-0.051269	0.647764	-1.000000	-1.000000	-1.000000	-1.000000	-1.000000	-1.000000	-1.000000	83.103448	0.000000	-1.000000	-1.000000	898474.000000	1772895508.730943
-8642.430000	-13772.655000	4638.420000	-1597.050000	-23148.585000	-16961.985000	-327.960000	-8562.645000	0.810392	-2.196759	-1.213460	-1.205577	-1.844615	-0.867033	3.881024	8.343533	-6.317640	3.433500	0.350980	0.747374	-0.051269	0.647764	-1.000000	-1.000000	-1.000000	-1.000000	-1.000000	-1.000000	-1.000000	83.103448	0.000000	-1.000000	-1.000000	898475.000000	1772895508.732877
-8633.025000	-13751.145000	4653.180000	-1581.705000	-23126.940000	-16930.800000	-285.210000	-8539.605000	-3.549891	-12.384655	-10.772623	-9.555404	-9.075975	-7.732640	-4.083060	4.183284	-6.317640	3.433500	0.350980	0.747374	-0.051269	0.647764	-1.000000	-1.000000	-1.000000	-1.000000	-1.000000	-1.000000	-1.000000	83.103448	0.000000	-1.000000	-1.000000	898476.000000	1772895508.732892
-8660.430000	-13759.920000	4642.695000	-1591.740000	-23134.320000	-16933.230000	-269.145000	-8539.335000	-5.185439	-16.520712	-15.322787	-13.319359	-10.950507	-8.895216	-7.449362	0.042174	-6.317640	3.433500	0.350980	0.747374	-0.051269	0.647764	-1.000000	-1.000000	-1.000000	-1.000000	-1.000000	-1.000000	-1.000000	83.103448	0.000000	-1.000000	-1.000000	898477.000000	1772895508.736696
-8677.530000	-13763.835000	4644.315000	-1585.800000	-23128.920000	-16927.380000	-271.890000	-8547.165000	-3.259082	-13.931985	-13.180149	-10.836753	-6.770138	-3.548280	-2.958734	0.485199	-6.317640	3.433500	0.350980	0.747374	-0.051269	0.647764	-1.000000	-1.000000	-1.000000	-1.000000	-1.000000	-1.000000	-1.000000	83.103448	0.000000	-1.000000	-1.000000	898478.000000	1772895508.736807
-8673.975000	-13765.320000	4659.885000	-1569.285000	-23114.475000	-16924.410000	-300.015000	-8561.115000	-0.550580	-7.803199	-6.558533	-4.306662	-0.130208	3.476974	4.197126	3.253314	-6.317640	3.433500	0.350980	0.747374	-0.051269	0.647764	-1.000000	-1.000000	-1.000000	-1.000000	-1.000000	-1.000000	-1.000000	83.103448	0.000000	-1.000000	-1.000000	898479.000000	1772895508.741020
-8647.875000	-13751.055000	4682.250000	-1550.340000	-23099.490000	-16918.470000	-315.765000	-8577.045000	0.990202	-1.424198	1.419489	3.029677	5.174669	6.952591	6.026343	3.669074	-6.317640	3.433500	0.350980	0.747374	-0.051269	0.647764	-1.000000	-1.000000	-1.000000	-1.000000	-1.000000	-1.000000	-1.000000	83.103448	0.000000	-1.000000	-1.000000	898480.000000	1772895508.741028
-8622.900000	-13743.000000	4672.755000	-1564.830000	-23113.395000	-16932.690000	-324.585000	-8582.400000	2.368776	3.539526	7.810049	8.107282	7.112512	5.157837	0.139854	0.238359	-4.394880	2.777320	0.305200	0.747252	-0.052063	0.648070	-1.000000	-1.000000	-1.000000	-1.000000	-1.000000	-1.000000	-1.000000	83.103448	0.000000	-1.000000	-1.000000	898481.000000	1772895508.744826
-8640.045000	-13763.565000	4648.815000	-1587.690000	-23131.395000	-16938.315000	-309.645000	-8563.995000	5.914170	6.774289	10.262895	8.814484	5.444870	0.327017	-7.692769	-3.615084	-4.394880	2.777320	0.305200	0.747252	-0.052063	0.648070	-1.000000	-1.000000	-1.000000	-1.000000	-1.000000	-1.000000	-1.000000	83.103448	0.000000	-1.000000	-1.000000	898482.000000	1772895508.744834
-8653.455000	-13764.420000	4656.060000	-1575.450000	-23118.120000	-16920.540000	-289.125000	-8547.255000	10.476833	8.496352	8.570540	5.783465	1.982199	-3.187668	-9.092982	-3.160281	-4.394880	2.777320	0.305200	0.747252	-0.052063	0.648070	-1.000000	-1.000000	-1.000000	-1.000000	-1.000000	-1.000000	-1.000000	83.103448	0.000000	-1.000000	-1.000000	898483.000000	1772895508.748695
-8671.410000	-13774.995000	4644.360000	-1584.855000	-23127.255000	-16929.945000	-296.910000	-8582.580000	10.825353	8.576380	4.642049	1.839235	-0.777427	-2.890010	-1.926599	1.613362	-4.394880	2.777320	0.305200	0.747252	-0.052063	0.648070	-1.000000	-1.000000	-1.000000	-1.000000	-1.000000	-1.000000	-1.000000	83.103448	0.000000	-1.000000	-1.000000	898484.000000	1772895508.748702
