Channel1	Channel2	Channel3	Channel4	Channel5	Channel6	Channel7	Channel8	FilteredChannel1	FilteredChannel2	FilteredChannel3	FilteredChannel4	FilteredChannel5	FilteredChannel6	FilteredChannel7	FilteredChannel8	GyroX	GyroY	GyroZ	AccX	AccY	AccZ	PPG1	PPG2	rawPPG1	rawPPG2	rawPPG3	Hr	Hrv	Battery	Trigger	PhysicalTrigger	AutoTrigger	NumMeasurements	Timestamp
-6819.120000	-7993.170000	4228.020000	27849.960000	-15538.905000	-23278.725000	11794.095000	21543.210000	-2.538804	7.823486	12.153167	9.104042	8.307462	3.408181	4.211512	-8.476223	-3.189340	4.394880	-0.366240	0.617003	0.473815	0.585692	-1.000000	-1.000000	-1.000000	-1.000000	-1.000000	-1.000000	-1.000000	79.310345	0.000000	-1.000000	-1.000000	1102682.000000	1773866448.632744
-6807.645000	-7992.495000	4232.385000	27833.310000	-15569.550000	-23290.830000	11802.150000	21552.840000	-4.252553	3.793113	13.039864	7.095005	6.522105	3.204474	4.819247	-6.684709	-3.189340	4.394880	-0.366240	0.617003	0.473815	0.585692	-1.000000	-1.000000	-1.000000	-1.000000	-1.000000	-1.000000	-1.000000	79.310345	0.000000	-1.000000	-1.000000	1102683.000000	1773866448.636706
-6817.860000	-7998.435000	4214.430000	27819.495000	-15582.195000	-23330.520000	11803.635000	21540.150000	-2.178772	1.516670	12.654148	3.694010	2.244486	0.974595	4.148334	-2.902255	-3.189340	4.394880	-0.366240	0.617003	0.473815	0.585692	-1.000000	-1.000000	-1.000000	-1.000000	-1.000000	-1.000000	-1.000000	79.310345	0.000000	-1.000000	-1.000000	1102684.000000	1773866448.636714
-6839.595000	-8020.800000	4185.495000	27781.245000	-15605.370000	-23326.875000	11811.015000	21538.665000	0.359064	-0.499201	8.237797	-0.858521	-3.267222	-2.456923	1.508466	-0.668198	-3.189340	4.394880	-0.366240	0.617003	0.473815	0.585692	-1.000000	-1.000000	-1.000000	-1.000000	-1.000000	-1.000000	-1.000000	79.310345	0.000000	-1.000000	-1.000000	1102685.000000	1773866448.640654
-6848.640000	-8030.655000	4175.730000	27769.140000	-15608.970000	-23305.770000	11813.310000	21538.395000	-0.140296	-4.565558	-0.813534	-6.567533	-8.245661	-4.781157	-3.230150	-1.620256	-3.189340	4.394880	-0.366240	0.617003	0.473815	0.585692	-1.000000	-1.000000	-1.000000	-1.000000	-1.000000	-1.000000	-1.000000	79.310345	0.000000	-1.000000	-1.000000	1102686.000000	1773866448.640661
-6847.695000	-8026.470000	4182.120000	27780.525000	-15599.700000	-23324.490000	11804.670000	21532.275000	-3.719506	-10.400678	-11.280425	-12.201252	-11.110033	-4.462982	-7.880856	-3.199026	-3.189340	4.394880	-0.366240	0.617003	0.473815	0.585692	-1.000000	-1.000000	-1.000000	-1.000000	-1.000000	-1.000000	-1.000000	79.310345	0.000000	-1.000000	-1.000000	1102687.000000	1773866448.645735
-6838.155000	-8013.645000	4194.585000	27800.775000	-15588.180000	-23337.990000	11801.115000	21526.695000	-6.941295	-14.141278	-18.259773	-14.273233	-10.072403	-2.674394	-9.217640	-2.116995	-3.189340	4.394880	-0.366240	0.617003	0.473815	0.585692	-1.000000	-1.000000	-1.000000	-1.000000	-1.000000	-1.000000	-1.000000	79.310345	0.000000	-1.000000	-1.000000	1102688.000000	1773866448.645747
-6834.330000	-8008.920000	4196.655000	27820.035000	-15569.370000	-23294.880000	11781.270000	21516.255000	-6.010952	-12.004623	-18.296033	-10.565095	-5.285928	-1.478363	-6.099885	2.240898	-3.189340	4.394880	-0.366240	0.617003	0.473815	0.585692	-1.000000	-1.000000	-1.000000	-1.000000	-1.000000	-1.000000	-1.000000	79.310345	0.000000	-1.000000	-1.000000	1102689.000000	1773866448.648650
-6821.145000	-7978.365000	4219.785000	27838.665000	-15556.860000	-23282.730000	11778.210000	21525.030000	-0.346201	-4.120257	-11.817852	-3.023156	0.399733	-0.847647	-0.743290	7.725962	-3.189340	4.394880	-0.366240	0.617003	0.473815	0.585692	-1.000000	-1.000000	-1.000000	-1.000000	-1.000000	-1.000000	-1.000000	79.310345	0.000000	-1.000000	-1.000000	1102690.000000	1773866448.648661
-6826.230000	-7990.425000	4214.115000	27838.980000	-15549.570000	-23289.165000	11792.385000	21528.135000	6.512005	5.503415	-3.171720	4.613510	4.818332	0.283846	3.691008	11.147995	-6.714400	4.578000	1.724380	0.618040	0.475096	0.583800	-1.000000	-1.000000	-1.000000	-1.000000	-1.000000	-1.000000	-1.000000	79.310345	0.000000	-1.000000	-1.000000	1102691.000000	1773866448.652654
-6844.590000	-8022.780000	4193.955000	27824.220000	-15554.700000	-23284.575000	11807.685000	21528.720000	9.585715	11.357430	2.830856	9.743317	8.019434	2.076547	5.950351	10.164101	-6.714400	4.578000	1.724380	0.618040	0.475096	0.583800	-1.000000	-1.000000	-1.000000	-1.000000	-1.000000	-1.000000	-1.000000	79.310345	0.000000	-1.000000	-1.000000	1102692.000000	1773866448.652664
-6848.910000	-8023.815000	4185.900000	27788.850000	-15586.200000	-23289.705000	11825.145000	21538.080000	6.830697	10.303681	5.028088	11.113832	9.855777	4.588435	6.448097	4.954846	-6.714400	4.578000	1.724380	0.618040	0.475096	0.583800	-1.000000	-1.000000	-1.000000	-1.000000	-1.000000	-1.000000	-1.000000	79.310345	0.000000	-1.000000	-1.000000	1102693.000000	1773866448.658524
-6830.190000	-8006.805000	4204.665000	27795.645000	-15589.710000	-23313.825000	11819.835000	21531.870000	1.257763	4.711914	6.140199	8.763008	8.687806	6.525347	5.393272	-1.782037	-6.714400	4.578000	1.724380	0.618040	0.475096	0.583800	-1.000000	-1.000000	-1.000000	-1.000000	-1.000000	-1.000000	-1.000000	79.310345	0.000000	-1.000000	-1.000000	1102694.000000	1773866448.658536
-6813.990000	-8001.090000	4208.670000	27806.085000	-15578.460000	-23307.795000	11811.465000	21540.240000	-2.104324	-0.098123	8.654518	4.481411	3.926082	4.800679	2.478898	-6.848889	-6.714400	4.578000	1.724380	0.618040	0.475096	0.583800	-1.000000	-1.000000	-1.000000	-1.000000	-1.000000	-1.000000	-1.000000	79.310345	0.000000	-1.000000	-1.000000	1102695.000000	1773866448.660702
-6838.020000	-8031.960000	4169.880000	27771.120000	-15612.345000	-23333.130000	11807.640000	21553.830000	-1.696936	-1.943731	10.602202	-0.164453	-2.740344	-0.860870	-1.572065	-7.939271	-6.714400	4.578000	1.724380	0.618040	0.475096	0.583800	-1.000000	-1.000000	-1.000000	-1.000000	-1.000000	-1.000000	-1.000000	79.310345	0.000000	-1.000000	-1.000000	1102696.000000	1773866448.660712
-6831.720000	-8017.875000	4180.725000	27799.335000	-15586.020000	-23316.840000	11791.530000	21530.520000	-0.370296	-2.730072	7.717673	-5.279582	-9.152227	-6.951489	-4.749827	-4.809252	-6.714400	4.578000	1.724380	0.618040	0.475096	0.583800	-1.000000	-1.000000	-1.000000	-1.000000	-1.000000	-1.000000	-1.000000	79.310345	0.000000	-1.000000	-1.000000	1102697.000000	1773866448.667904
-6822.000000	-7999.965000	4193.055000	27831.645000	-15558.165000	-23299.515000	11789.910000	21530.430000	-0.623462	-3.683534	0.102810	-9.578186	-12.655108	-10.172291	-5.491591	-0.154333	-6.714400	4.578000	1.724380	0.618040	0.475096	0.583800	-1.000000	-1.000000	-1.000000	-1.000000	-1.000000	-1.000000	-1.000000	79.310345	0.000000	-1.000000	-1.000000	1102698.000000	1773866448.667916
-6829.020000	-8001.000000	4192.605000	27828.855000	-15554.970000	-23295.465000	11810.880000	21546.135000	-2.156810	-3.897857	-7.650119	-9.970730	-10.620367	-9.109084	-3.542291	2.767360	-6.714400	4.578000	1.724380	0.618040	0.475096	0.583800	-1.000000	-1.000000	-1.000000	-1.000000	-1.000000	-1.000000	-1.000000	79.310345	0.000000	-1.000000	-1.000000	1102699.000000	1773866448.668615
-6816.465000	-7987.725000	4208.985000	27829.665000	-15551.550000	-23275.755000	11815.560000	21541.320000	-3.502252	-2.376824	-11.204157	-5.581024	-3.415356	-3.791683	0.036120	2.857318	-6.714400	4.578000	1.724380	0.618040	0.475096	0.583800	-1.000000	-1.000000	-1.000000	-1.000000	-1.000000	-1.000000	-1.000000	79.310345	0.000000	-1.000000	-1.000000	1102700.000000	1773866448.668625
-6812.685000	-7960.410000	4243.185000	27827.910000	-15546.600000	-23265.540000	11801.340000	21520.980000	-2.937172	1.770398	-7.797918	1.696246	5.695526	4.398051	2.674483	0.477583	-2.823100	3.708180	2.044840	0.613829	0.471862	0.581358	-1.000000	-1.000000	-1.000000	-1.000000	-1.000000	-1.000000	-1.000000	79.310345	0.000000	-1.000000	-1.000000	1102701.000000	1773866448.672612
-6815.430000	-7970.265000	4237.200000	27799.155000	-15585.660000	-23297.445000	11813.400000	21501.810000	0.021989	7.674000	1.978432	8.785320	12.628455	11.948696	2.058683	-3.688581	-2.823100	3.708180	2.044840	0.613829	0.471862	0.581358	-1.000000	-1.000000	-1.000000	-1.000000	-1.000000	-1.000000	-1.000000	79.310345	0.000000	-1.000000	-1.000000	1102702.000000	1773866448.672623
-6817.005000	-7970.355000	4265.820000	27836.370000	-15542.010000	-23263.290000	11822.220000	21484.980000	3.053250	10.903459	12.254998	12.237119	14.015052	14.468113	-0.763163	-8.013315	-2.823100	3.708180	2.044840	0.613829	0.471862	0.581358	-1.000000	-1.000000	-1.000000	-1.000000	-1.000000	-1.000000	-1.000000	79.310345	0.000000	-1.000000	-1.000000	1102703.000000	1773866448.678348
-6832.665000	-7993.440000	4249.665000	27821.340000	-15564.690000	-23278.140000	11820.105000	21528.450000	3.179052	7.467162	16.175277	10.496037	9.600067	10.828153	-2.292794	-9.360295	-2.823100	3.708180	2.044840	0.613829	0.471862	0.581358	-1.000000	-1.000000	-1.000000	-1.000000	-1.000000	-1.000000	-1.000000	79.310345	0.000000	-1.000000	-1.000000	1102704.000000	1773866448.678359
-6849.540000	-8016.165000	4209.705000	27814.365000	-15578.865000	-23320.800000	11806.245000	21565.980000	-0.013010	-1.736750	10.874952	4.574715	1.746374	2.968579	-0.919408	-4.283538	-2.823100	3.708180	2.044840	0.613829	0.471862	0.581358	-1.000000	-1.000000	-1.000000	-1.000000	-1.000000	-1.000000	-1.000000	79.310345	0.000000	-1.000000	-1.000000	1102705.000000	1773866448.682053
-6823.260000	-8016.480000	4165.470000	27818.505000	-15574.680000	-23312.745000	11807.010000	21556.845000	-3.962406	-12.042446	-2.418725	-3.779950	-7.236520	-7.205113	1.958845	7.019792	-2.823100	3.708180	2.044840	0.613829	0.471862	0.581358	-1.000000	-1.000000	-1.000000	-1.000000	-1.000000	-1.000000	-1.000000	79.310345	0.000000	-1.000000	-1.000000	1102706.000000	1773866448.682061
-6802.065000	-8009.640000	4180.095000	27828.630000	-15563.430000	-23292.270000	11787.255000	21564.180000	-5.020570	-18.221769	-18.430452	-12.029990	-14.636646	-16.248680	3.849928	18.028467	-2.823100	3.708180	2.044840	0.613829	0.471862	0.581358	-1.000000	-1.000000	-1.000000	-1.000000	-1.000000	-1.000000	-1.000000	79.310345	0.000000	-1.000000	-1.000000	1102707.000000	1773866448.684660
-6810.705000	-8010.495000	4199.805000	27837.900000	-15541.740000	-23271.120000	11780.235000	21549.870000	-1.710376	-16.810205	-27.965496	-16.062159	-16.509927	-18.575611	2.481572	20.411721	-2.823100	3.708180	2.044840	0.613829	0.471862	0.581358	-1.000000	-1.000000	-1.000000	-1.000000	-1.000000	-1.000000	-1.000000	79.310345	0.000000	-1.000000	-1.000000	1102708.000000	1773866448.684668
-6823.170000	-8033.490000	4176.855000	27798.975000	-15583.230000	-23308.290000	11794.005000	21534.030000	3.211419	-8.410942	-24.244812	-13.147970	-11.058047	-12.224574	-1.928645	11.426444	-2.823100	3.708180	2.044840	0.613829	0.471862	0.581358	-1.000000	-1.000000	-1.000000	-1.000000	-1.000000	-1.000000	-1.000000	79.310345	0.000000	-1.000000	-1.000000	1102709.000000	1773866448.689861
-6855.390000	-8051.670000	4151.205000	27758.565000	-15624.855000	-23346.045000	11795.580000	21509.010000	5.164976	1.937669	-9.994759	-5.505182	-1.970772	-2.165341	-5.716827	-4.098407	-2.823100	3.708180	2.044840	0.613829	0.471862	0.581358	-1.000000	-1.000000	-1.000000	-1.000000	-1.000000	-1.000000	-1.000000	79.310345	0.000000	-1.000000	-1.000000	1102710.000000	1773866448.689867
-6877.620000	-8049.870000	4153.545000	27768.555000	-15607.305000	-23330.520000	11815.245000	21512.610000	1.909909	9.013206	5.784013	2.132912	5.305677	5.428623	-5.509560	-17.483204	-2.456860	1.922760	1.556520	0.616515	0.471801	0.581664	-1.000000	-1.000000	-1.000000	-1.000000	-1.000000	-1.000000	-1.000000	79.310345	0.000000	-1.000000	-1.000000	1102711.000000	1773866448.692707
-6858.720000	-8041.050000	4165.155000	27772.695000	-15606.945000	-23336.055000	11809.080000	21538.755000	-4.176544	11.738407	16.337250	7.045371	8.717661	8.780645	-1.375375	-21.493267	-2.456860	1.922760	1.556520	0.616515	0.471801	0.581664	-1.000000	-1.000000	-1.000000	-1.000000	-1.000000	-1.000000	-1.000000	79.310345	0.000000	-1.000000	-1.000000	1102712.000000	1773866448.692716
-6859.890000	-8046.090000	4159.755000	27772.155000	-15610.860000	-23337.315000	11792.295000	21557.295000	-7.305506	12.242864	20.424859	9.234771	9.239264	9.441621	3.742321	-14.883450	-2.456860	1.922760	1.556520	0.616515	0.471801	0.581664	-1.000000	-1.000000	-1.000000	-1.000000	-1.000000	-1.000000	-1.000000	79.310345	0.000000	-1.000000	-1.000000	1102713.000000	1773866448.697630
-6850.620000	-8041.725000	4162.590000	27791.415000	-15601.050000	-23324.490000	11779.470000	21551.040000	-3.852897	12.068793	20.160753	9.807543	8.469117	9.599907	6.428013	-2.930273	-2.456860	1.922760	1.556520	0.616515	0.471801	0.581664	-1.000000	-1.000000	-1.000000	-1.000000	-1.000000	-1.000000	-1.000000	79.310345	0.000000	-1.000000	-1.000000	1102714.000000	1773866448.697641
-6837.165000	-8022.645000	4180.455000	27811.710000	-15577.650000	-23298.795000	11787.255000	21535.110000	3.619090	10.619376	17.566139	9.326873	7.134844	9.900092	5.539490	7.159596	-2.456860	1.922760	1.556520	0.616515	0.471801	0.581664	-1.000000	-1.000000	-1.000000	-1.000000	-1.000000	-1.000000	-1.000000	79.310345	0.000000	-1.000000	-1.000000	1102715.000000	1773866448.701930
-6823.035000	-8011.755000	4191.705000	27827.235000	-15550.470000	-23281.830000	11785.725000	21537.135000	9.576972	6.950567	12.694083	7.626730	5.319327	8.883867	2.712684	10.971305	-2.456860	1.922760	1.556520	0.616515	0.471801	0.581664	-1.000000	-1.000000	-1.000000	-1.000000	-1.000000	-1.000000	-1.000000	79.310345	0.000000	-1.000000	-1.000000	1102716.000000	1773866448.701941
-6822.405000	-8003.160000	4192.830000	27821.295000	-15553.845000	-23277.465000	11789.685000	21522.240000	10.897080	1.675644	4.734573	4.699674	3.214444	5.233297	0.032685	8.642752	-2.456860	1.922760	1.556520	0.616515	0.471801	0.581664	-1.000000	-1.000000	-1.000000	-1.000000	-1.000000	-1.000000	-1.000000	79.310345	0.000000	-1.000000	-1.000000	1102717.000000	1773866448.704688
-6843.870000	-8012.700000	4185.045000	27791.460000	-15587.415000	-23310.090000	11809.305000	21513.105000	7.783017	-3.460713	-5.162550	1.088517	0.906706	-0.394322	-1.538313	3.651803	-2.456860	1.922760	1.556520	0.616515	0.471801	0.581664	-1.000000	-1.000000	-1.000000	-1.000000	-1.000000	-1.000000	-1.000000	79.310345	0.000000	-1.000000	-1.000000	1102718.000000	1773866448.704698
-6836.400000	-8018.865000	4178.070000	27768.015000	-15622.155000	-23362.380000	11834.325000	21555.900000	2.281705	-7.230045	-13.538140	-2.639871	-2.041609	-6.604010	-1.575642	0.421197	-2.456860	1.922760	1.556520	0.616515	0.471801	0.581664	-1.000000	-1.000000	-1.000000	-1.000000	-1.000000	-1.000000	-1.000000	79.310345	0.000000	-1.000000	-1.000000	1102719.000000	1773866448.710081
-6824.025000	-8016.390000	4185.405000	27782.055000	-15598.215000	-23309.685000	11809.260000	21567.780000	-2.641284	-9.460088	-17.507160	-6.383868	-6.109021	-12.067746	-0.644802	1.662594	-2.456860	1.922760	1.556520	0.616515	0.471801	0.581664	-1.000000	-1.000000	-1.000000	-1.000000	-1.000000	-1.000000	-1.000000	79.310345	0.000000	-1.000000	-1.000000	1102720.000000	1773866448.710092
-6812.550000	-7996.320000	4208.670000	27809.010000	-15575.265000	-23298.930000	11803.635000	21551.940000	-4.917837	-9.806778	-16.097425	-9.013598	-9.479419	-13.550253	-0.613114	4.848239	-4.654300	1.327620	-2.121140	0.619566	0.473204	0.578856	-1.000000	-1.000000	-1.000000	-1.000000	-1.000000	-1.000000	-1.000000	79.310345	0.000000	-1.000000	-1.000000	1102721.000000	1773866448.715110
-6810.615000	-7985.835000	4218.750000	27835.020000	-15555.690000	-23295.690000	11793.330000	21529.935000	-4.682073	-7.209409	-9.427809	-7.959578	-8.461760	-8.319301	-2.036146	3.834387	-4.654300	1.327620	-2.121140	0.619566	0.473204	0.578856	-1.000000	-1.000000	-1.000000	-1.000000	-1.000000	-1.000000	-1.000000	79.310345	0.000000	-1.000000	-1.000000	1102722.000000	1773866448.715121
-6826.365000	-8004.465000	4202.820000	27840.780000	-15539.670000	-23257.350000	11782.935000	21530.295000	-3.901385	-2.381929	0.073160	-3.012353	-2.541177	1.145935	-3.435410	-3.154603	-4.654300	1.327620	-2.121140	0.619566	0.473204	0.578856	-1.000000	-1.000000	-1.000000	-1.000000	-1.000000	-1.000000	-1.000000	79.310345	0.000000	-1.000000	-1.000000	1102723.000000	1773866448.716652
-6831.315000	-8012.970000	4188.960000	27824.265000	-15556.005000	-23257.845000	11787.030000	21528.270000	-4.951623	0.945317	6.828094	1.721099	3.639875	8.953348	-3.637603	-10.851207	-4.654300	1.327620	-2.121140	0.619566	0.473204	0.578856	-1.000000	-1.000000	-1.000000	-1.000000	-1.000000	-1.000000	-1.000000	79.310345	0.000000	-1.000000	-1.000000	1102724.000000	1773866448.716660
-6833.385000	-7994.925000	4213.260000	27836.505000	-15558.705000	-23273.730000	11799.540000	21523.050000	-7.829595	0.401750	6.835874	2.231989	4.649576	10.166329	-2.291795	-13.157612	-4.654300	1.327620	-2.121140	0.619566	0.473204	0.578856	-1.000000	-1.000000	-1.000000	-1.000000	-1.000000	-1.000000	-1.000000	79.310345	0.000000	-1.000000	-1.000000	1102725.000000	1773866448.722413
-6850.620000	-8011.215000	4205.025000	27810.585000	-15566.265000	-23307.570000	11805.480000	21524.805000	-9.545380	-1.904973	2.212079	-0.690319	0.243325	3.823683	0.392036	-8.353175	-4.654300	1.327620	-2.121140	0.619566	0.473204	0.578856	-1.000000	-1.000000	-1.000000	-1.000000	-1.000000	-1.000000	-1.000000	79.310345	0.000000	-1.000000	-1.000000	1102726.000000	1773866448.722424
-6857.955000	-8030.790000	4197.195000	27763.515000	-15610.095000	-23336.370000	11795.310000	21525.570000	-7.226828	-2.857717	-1.924495	-3.419580	-4.495752	-5.565834	2.695951	0.808765	-4.654300	1.327620	-2.121140	0.619566	0.473204	0.578856	-1.000000	-1.000000	-1.000000	-1.000000	-1.000000	-1.000000	-1.000000	79.310345	0.000000	-1.000000	-1.000000	1102727.000000	1773866448.724697
-6854.085000	-8051.535000	4198.950000	27738.405000	-15633.405000	-23347.935000	11785.185000	21535.155000	-0.884636	-1.897782	-2.809348	-4.428788	-5.823470	-11.489693	2.287074	8.912677	-4.654300	1.327620	-2.121140	0.619566	0.473204	0.578856	-1.000000	-1.000000	-1.000000	-1.000000	-1.000000	-1.000000	-1.000000	79.310345	0.000000	-1.000000	-1.000000	1102728.000000	1773866448.724708
-6844.725000	-8029.575000	4215.375000	27753.705000	-15622.020000	-23346.585000	11790.855000	21536.865000	6.571095	-0.016856	-0.917321	-4.412802	-4.557317	-11.357578	-0.435882	11.442223	-4.654300	1.327620	-2.121140	0.619566	0.473204	0.578856	-1.000000	-1.000000	-1.000000	-1.000000	-1.000000	-1.000000	-1.000000	79.310345	0.000000	-1.000000	-1.000000	1102729.000000	1773866448.733027
-6842.115000	-8021.475000	4170.780000	27777.015000	-15596.640000	-23318.685000	11790.450000	21529.305000	11.588567	2.416112	1.221461	-3.156324	-2.118363	-6.398332	-2.036831	8.097627	-4.654300	1.327620	-2.121140	0.619566	0.473204	0.578856	-1.000000	-1.000000	-1.000000	-1.000000	-1.000000	-1.000000	-1.000000	79.310345	0.000000	-1.000000	-1.000000	1102730.000000	1773866448.733037
-6840.585000	-8036.505000	4085.460000	27821.340000	-15551.100000	-23278.230000	11791.080000	21518.010000	12.311981	5.050942	-0.215576	0.680268	1.996464	1.970557	-0.185353	2.066099	-3.647140	2.960440	-1.251320	0.618956	0.473937	0.579039	-1.000000	-1.000000	-1.000000	-1.000000	-1.000000	-1.000000	-1.000000	79.310345	0.000000	-1.000000	-1.000000	1102731.000000	1773866448.736298
-6836.265000	-8024.310000	4125.465000	27835.695000	-15548.895000	-23279.940000	11788.020000	21513.465000	9.195917	6.719701	-5.999572	7.184648	7.725219	11.002294	3.811665	-3.144795	-3.647140	2.960440	-1.251320	0.618956	0.473937	0.579039	-1.000000	-1.000000	-1.000000	-1.000000	-1.000000	-1.000000	-1.000000	79.310345	0.000000	-1.000000	-1.000000	1102732.000000	1773866448.736309
-6820.470000	-7999.740000	4212.090000	27837.090000	-15553.845000	-23286.015000	11782.800000	21518.730000	4.309649	6.985323	-9.034171	13.595574	12.217695	15.664932	6.465425	-5.528018	-3.647140	2.960440	-1.251320	0.618956	0.473937	0.579039	-1.000000	-1.000000	-1.000000	-1.000000	-1.000000	-1.000000	-1.000000	79.310345	0.000000	-1.000000	-1.000000	1102733.000000	1773866448.736880
-6820.740000	-8010.720000	4199.535000	27812.295000	-15579.900000	-23310.900000	11783.925000	21537.270000	0.036578	6.116904	-1.853408	15.295484	11.644373	12.925301	5.107693	-4.302437	-3.647140	2.960440	-1.251320	0.618956	0.473937	0.579039	-1.000000	-1.000000	-1.000000	-1.000000	-1.000000	-1.000000	-1.000000	79.310345	0.000000	-1.000000	-1.000000	1102734.000000	1773866448.736891
-6836.220000	-8029.530000	4170.555000	27769.950000	-15617.790000	-23325.570000	11817.270000	21548.610000	-2.407745	3.708950	11.648800	9.724117	4.980088	4.953519	0.572399	0.119566	-3.647140	2.960440	-1.251320	0.618956	0.473937	0.579039	-1.000000	-1.000000	-1.000000	-1.000000	-1.000000	-1.000000	-1.000000	79.310345	0.000000	-1.000000	-1.000000	1102735.000000	1773866448.743570
-6841.530000	-8027.370000	4172.895000	27771.615000	-15612.165000	-23331.105000	11813.760000	21541.275000	-3.573553	-0.078862	20.239760	-0.355781	-4.013589	-2.851782	-3.339380	4.985891	-3.647140	2.960440	-1.251320	0.618956	0.473937	0.579039	-1.000000	-1.000000	-1.000000	-1.000000	-1.000000	-1.000000	-1.000000	79.310345	0.000000	-1.000000	-1.000000	1102736.000000	1773866448.743580
-6833.745000	-8012.790000	4190.220000	27793.305000	-15583.095000	-23307.930000	11814.705000	21539.115000	-4.638498	-3.400929	17.809561	-8.667806	-9.159029	-6.402172	-4.016377	6.175806	-3.647140	2.960440	-1.251320	0.618956	0.473937	0.579039	-1.000000	-1.000000	-1.000000	-1.000000	-1.000000	-1.000000	-1.000000	79.310345	0.000000	-1.000000	-1.000000	1102737.000000	1773866448.744741
-6808.320000	-7968.645000	4235.895000	27841.140000	-15537.915000	-23267.520000	11825.460000	21534.750000	-5.506068	-4.305684	7.601599	-10.613490	-7.107701	-5.034141	-2.040778	2.194923	-3.647140	2.960440	-1.251320	0.618956	0.473937	0.579039	-1.000000	-1.000000	-1.000000	-1.000000	-1.000000	-1.000000	-1.000000	79.310345	0.000000	-1.000000	-1.000000	1102738.000000	1773866448.744747
-6796.485000	-7954.875000	4249.170000	27870.885000	-15511.815000	-23246.820000	11807.055000	21531.510000	-4.703226	-2.240339	-1.671327	-6.435613	-0.142010	-0.792969	0.402490	-3.992309	-3.647140	2.960440	-1.251320	0.618956	0.473937	0.579039	-1.000000	-1.000000	-1.000000	-1.000000	-1.000000	-1.000000	-1.000000	79.310345	0.000000	-1.000000	-1.000000	1102739.000000	1773866448.748603
-6831.405000	-8029.350000	4174.155000	27808.020000	-15580.710000	-23307.075000	11783.520000	21533.580000	-2.190411	0.407470	-4.709462	-1.507285	4.701941	1.455387	0.882025	-7.799356	-3.647140	2.960440	-1.251320	0.618956	0.473937	0.579039	-1.000000	-1.000000	-1.000000	-1.000000	-1.000000	-1.000000	-1.000000	79.310345	0.000000	-1.000000	-1.000000	1102740.000000	1773866448.748613
-6836.400000	-8022.690000	4185.720000	27821.970000	-15559.740000	-23290.200000	11778.795000	21518.730000	-0.641850	-1.059746	-5.880739	-1.992180	1.455746	-2.553820	-1.662588	-7.090183	-2.289000	3.998120	-1.083460	0.619078	0.472655	0.579649	-1.000000	-1.000000	-1.000000	-1.000000	-1.000000	-1.000000	-1.000000	79.310345	0.000000	-1.000000	-1.000000	1102741.000000	1773866448.752667
-6816.465000	-7992.945000	4215.645000	27845.685000	-15532.290000	-23263.020000	11798.100000	21525.525000	-1.539043	-7.020117	-11.259050	-6.807880	-6.677917	-9.387089	-5.101503	-3.394451	-2.289000	3.998120	-1.083460	0.619078	0.472655	0.579649	-1.000000	-1.000000	-1.000000	-1.000000	-1.000000	-1.000000	-1.000000	79.310345	0.000000	-1.000000	-1.000000	1102742.000000	1773866448.752676
-6816.330000	-7997.490000	4207.140000	27815.670000	-15561.315000	-23282.100000	11816.640000	21527.595000	-2.434384	-11.117435	-17.965733	-8.540719	-10.409165	-10.677308	-5.762216	0.459468	-2.289000	3.998120	-1.083460	0.619078	0.472655	0.579649	-1.000000	-1.000000	-1.000000	-1.000000	-1.000000	-1.000000	-1.000000	79.310345	0.000000	-1.000000	-1.000000	1102743.000000	1773866448.762957
-6833.565000	-7993.980000	4206.465000	27801.720000	-15569.550000	-23276.025000	11815.335000	21467.250000	-0.643664	-7.912677	-18.260503	-3.252079	-5.686363	-3.529461	-2.593003	1.953826	-2.289000	3.998120	-1.083460	0.619078	0.472655	0.579649	-1.000000	-1.000000	-1.000000	-1.000000	-1.000000	-1.000000	-1.000000	79.310345	0.000000	-1.000000	-1.000000	1102744.000000	1773866448.762968
-6837.615000	-7989.120000	4212.720000	27808.470000	-15567.120000	-23303.700000	11795.400000	21479.310000	2.840823	1.250216	-9.686121	5.733933	3.337413	6.726543	1.800693	-0.238439	-2.289000	3.998120	-1.083460	0.619078	0.472655	0.579649	-1.000000	-1.000000	-1.000000	-1.000000	-1.000000	-1.000000	-1.000000	79.310345	0.000000	-1.000000	-1.000000	1102745.000000	1773866448.762979
-6853.770000	-8029.575000	4163.445000	27759.105000	-15625.170000	-23348.970000	11782.485000	21567.420000	4.609120	9.416639	1.980481	11.175320	8.626296	11.200537	4.023342	-2.559167	-2.289000	3.998120	-1.083460	0.619078	0.472655	0.579649	-1.000000	-1.000000	-1.000000	-1.000000	-1.000000	-1.000000	-1.000000	79.310345	0.000000	-1.000000	-1.000000	1102746.000000	1773866448.762984
-6830.640000	-8009.280000	4182.660000	27803.520000	-15587.955000	-23289.885000	11781.360000	21566.655000	2.730777	9.655140	8.489738	7.693243	4.561908	5.410686	2.914331	1.330412	-2.289000	3.998120	-1.083460	0.619078	0.472655	0.579649	-1.000000	-1.000000	-1.000000	-1.000000	-1.000000	-1.000000	-1.000000	79.310345	0.000000	-1.000000	-1.000000	1102747.000000	1773866448.764898
-6821.145000	-7996.095000	4195.170000	27840.375000	-15539.580000	-23265.495000	11771.640000	21523.905000	-0.666903	2.896988	8.753754	-1.444506	-4.736806	-4.552184	0.462632	10.227396	-2.289000	3.998120	-1.083460	0.619078	0.472655	0.579649	-1.000000	-1.000000	-1.000000	-1.000000	-1.000000	-1.000000	-1.000000	79.310345	0.000000	-1.000000	-1.000000	1102748.000000	1773866448.764907
-6834.600000	-8044.830000	4156.110000	27822.240000	-15556.095000	-23283.090000	11762.775000	21511.035000	-1.632012	-3.095744	8.274037	-6.724099	-8.473567	-8.449580	-0.464446	14.876440	-2.289000	3.998120	-1.083460	0.619078	0.472655	0.579649	-1.000000	-1.000000	-1.000000	-1.000000	-1.000000	-1.000000	-1.000000	79.310345	0.000000	-1.000000	-1.000000	1102749.000000	1773866448.772967
-6825.690000	-8037.720000	4176.630000	27823.635000	-15564.015000	-23290.605000	11771.955000	21524.805000	0.625946	-4.317058	8.657831	-4.120037	-2.880135	-3.985525	0.849792	9.931569	-2.289000	3.998120	-1.083460	0.619078	0.472655	0.579649	-1.000000	-1.000000	-1.000000	-1.000000	-1.000000	-1.000000	-1.000000	79.310345	0.000000	-1.000000	-1.000000	1102750.000000	1773866448.772980
-6833.925000	-8017.515000	4192.920000	27805.725000	-15583.185000	-23301.945000	11773.215000	21519.945000	3.208367	-2.626985	7.151838	1.819665	5.386085	2.827472	2.711003	-0.922741	-0.228900	5.005280	-0.091560	0.619871	0.469786	0.578917	-1.000000	-1.000000	-1.000000	-1.000000	-1.000000	-1.000000	-1.000000	79.310345	0.000000	-1.000000	-1.000000	1102751.000000	1773866448.772996
-6817.365000	-8010.495000	4188.960000	27782.640000	-15607.215000	-23326.695000	11779.605000	21535.110000	3.760112	0.488579	3.783117	5.751402	9.343770	6.263229	2.925637	-10.344880	-0.228900	5.005280	-0.091560	0.619871	0.469786	0.578917	-1.000000	-1.000000	-1.000000	-1.000000	-1.000000	-1.000000	-1.000000	79.310345	0.000000	-1.000000	-1.000000	1102752.000000	1773866448.773003
-6813.270000	-8014.005000	4187.205000	27790.335000	-15590.160000	-23315.850000	11791.080000	21556.035000	2.976208	4.394528	0.690267	6.164288	7.941757	5.350457	1.326265	-12.309189	-0.228900	5.005280	-0.091560	0.619871	0.469786	0.578917	-1.000000	-1.000000	-1.000000	-1.000000	-1.000000	-1.000000	-1.000000	79.310345	0.000000	-1.000000	-1.000000	1102753.000000	1773866448.776612
-6847.290000	-8037.135000	4170.420000	27784.890000	-15590.160000	-23304.420000	11796.210000	21541.770000	1.875069	6.795282	-1.567819	4.098100	4.122047	3.005035	0.202831	-6.608654	-0.228900	5.005280	-0.091560	0.619871	0.469786	0.578917	-1.000000	-1.000000	-1.000000	-1.000000	-1.000000	-1.000000	-1.000000	79.310345	0.000000	-1.000000	-1.000000	1102754.000000	1773866448.776623
-6854.265000	-8030.295000	4178.835000	27807.750000	-15576.120000	-23306.490000	11785.050000	21526.740000	-0.696388	5.478177	-3.239992	1.301618	1.075923	2.176327	0.953379	-0.650934	-0.228900	5.005280	-0.091560	0.619871	0.469786	0.578917	-1.000000	-1.000000	-1.000000	-1.000000	-1.000000	-1.000000	-1.000000	79.310345	0.000000	-1.000000	-1.000000	1102755.000000	1773866448.780797
-6837.750000	-8012.700000	4197.285000	27842.670000	-15547.815000	-23277.465000	11781.720000	21519.360000	-5.184248	1.070620	-3.837763	-1.065559	-0.530477	1.914192	2.089040	-0.708374	-0.228900	5.005280	-0.091560	0.619871	0.469786	0.578917	-1.000000	-1.000000	-1.000000	-1.000000	-1.000000	-1.000000	-1.000000	79.310345	0.000000	-1.000000	-1.000000	1102756.000000	1773866448.780807
-6819.840000	-8012.565000	4192.965000	27838.755000	-15549.390000	-23272.020000	11774.385000	21525.525000	-8.441693	-3.010183	-2.492162	-2.693127	-1.993605	0.146300	1.772985	-3.956343	-0.228900	5.005280	-0.091560	0.619871	0.469786	0.578917	-1.000000	-1.000000	-1.000000	-1.000000	-1.000000	-1.000000	-1.000000	79.310345	0.000000	-1.000000	-1.000000	1102757.000000	1773866448.787419
-6813.675000	-8007.030000	4196.160000	27839.475000	-15550.920000	-23281.560000	11775.915000	21520.845000	-6.618187	-3.348197	0.546340	-3.338725	-3.662203	-2.237689	-0.074992	-4.054203	-0.228900	5.005280	-0.091560	0.619871	0.469786	0.578917	-1.000000	-1.000000	-1.000000	-1.000000	-1.000000	-1.000000	-1.000000	79.310345	0.000000	-1.000000	-1.000000	1102758.000000	1773866448.787429
-6821.415000	-8005.590000	4193.505000	27821.835000	-15576.120000	-23309.145000	11777.085000	21500.460000	-0.281514	-0.343779	2.685925	-3.168588	-4.862922	-3.902058	-2.594581	-0.031299	-0.228900	5.005280	-0.091560	0.619871	0.469786	0.578917	-1.000000	-1.000000	-1.000000	-1.000000	-1.000000	-1.000000	-1.000000	79.310345	0.000000	-1.000000	-1.000000	1102759.000000	1773866448.788704
-6843.645000	-8015.670000	4185.450000	27803.340000	-15573.420000	-23279.940000	11784.510000	21481.830000	5.525028	1.880097	1.182814	-2.773517	-4.944806	-4.424638	-4.845698	3.855038	-0.228900	5.005280	-0.091560	0.619871	0.469786	0.578917	-1.000000	-1.000000	-1.000000	-1.000000	-1.000000	-1.000000	-1.000000	79.310345	0.000000	-1.000000	-1.000000	1102760.000000	1773866448.788726
-6822.045000	-7996.680000	4202.055000	27814.320000	-15574.095000	-23306.715000	11807.415000	21528.630000	6.649532	0.594789	-3.009891	-1.898153	-3.042472	-2.862275	-5.574900	4.880762	-2.304260	5.615680	-0.289940	0.620177	0.472289	0.578185	-1.000000	-1.000000	-1.000000	-1.000000	-1.000000	-1.000000	-1.000000	79.310345	0.000000	-1.000000	-1.000000	1102761.000000	1773866448.793825
-6817.545000	-7995.420000	4205.070000	27817.605000	-15564.330000	-23272.650000	11810.925000	21558.555000	3.939341	-2.411449	-5.806583	0.028009	0.500699	0.483751	-3.670740	5.106078	-2.304260	5.615680	-0.289940	0.620177	0.472289	0.578185	-1.000000	-1.000000	-1.000000	-1.000000	-1.000000	-1.000000	-1.000000	79.310345	0.000000	-1.000000	-1.000000	1102762.000000	1773866448.793844
-6815.655000	-7996.905000	4208.715000	27832.185000	-15548.670000	-23261.265000	11805.660000	21549.645000	1.354542	-3.697030	-4.326861	2.494092	3.839911	3.935090	0.227947	6.587451	-2.304260	5.615680	-0.289940	0.620177	0.472289	0.578185	-1.000000	-1.000000	-1.000000	-1.000000	-1.000000	-1.000000	-1.000000	79.310345	0.000000	-1.000000	-1.000000	1102763.000000	1773866448.796598
-6809.490000	-7999.020000	4212.090000	27861.615000	-15528.105000	-23249.385000	11776.590000	21526.425000	0.915350	-2.599377	0.259583	4.021748	5.375129	5.815081	3.444528	7.266979	-2.304260	5.615680	-0.289940	0.620177	0.472289	0.578185	-1.000000	-1.000000	-1.000000	-1.000000	-1.000000	-1.000000	-1.000000	79.310345	0.000000	-1.000000	-1.000000	1102764.000000	1773866448.796606
-6800.490000	-7986.780000	4217.130000	27867.015000	-15519.735000	-23226.525000	11764.845000	21514.725000	1.161296	-1.110876	4.207113	3.189544	4.106292	4.528820	3.465780	4.270660	-2.304260	5.615680	-0.289940	0.620177	0.472289	0.578185	-1.000000	-1.000000	-1.000000	-1.000000	-1.000000	-1.000000	-1.000000	79.310345	0.000000	-1.000000	-1.000000	1102765.000000	1773866448.800580
-6811.965000	-7973.505000	4235.850000	27875.430000	-15521.445000	-23234.580000	11765.205000	21497.040000	-0.058183	-0.020330	5.443900	0.348553	0.475976	0.473307	0.542023	-2.115619	-2.304260	5.615680	-0.289940	0.620177	0.472289	0.578185	-1.000000	-1.000000	-1.000000	-1.000000	-1.000000	-1.000000	-1.000000	79.310345	0.000000	-1.000000	-1.000000	1102766.000000	1773866448.800588
-6830.955000	-7982.775000	4242.600000	27867.015000	-15523.380000	-23234.310000	11790.450000	21509.595000	-3.352459	1.260088	4.640777	-2.368588	-3.183913	-3.659512	-2.276505	-8.576484	-2.304260	5.615680	-0.289940	0.620177	0.472289	0.578185	-1.000000	-1.000000	-1.000000	-1.000000	-1.000000	-1.000000	-1.000000	79.310345	0.000000	-1.000000	-1.000000	1102767.000000	1773866448.808798
-6830.640000	-7994.790000	4237.380000	27827.730000	-15555.645000	-23287.995000	11802.195000	21531.870000	-7.169386	1.863315	2.604616	-3.657450	-4.853326	-6.137692	-2.041317	-10.511638	-2.304260	5.615680	-0.289940	0.620177	0.472289	0.578185	-1.000000	-1.000000	-1.000000	-1.000000	-1.000000	-1.000000	-1.000000	79.310345	0.000000	-1.000000	-1.000000	1102768.000000	1773866448.808808
-6852.870000	-8014.545000	4207.950000	27792.495000	-15584.940000	-23314.950000	11795.220000	21521.295000	-8.733849	0.249121	-0.800762	-4.281055	-4.865310	-7.935355	0.907785	-5.924960	-2.304260	5.615680	-0.289940	0.620177	0.472289	0.578185	-1.000000	-1.000000	-1.000000	-1.000000	-1.000000	-1.000000	-1.000000	79.310345	0.000000	-1.000000	-1.000000	1102769.000000	1773866448.810521
-6854.715000	-8022.465000	4178.565000	27805.410000	-15570.855000	-23296.455000	11805.885000	21523.230000	-7.066097	-3.459841	-5.922547	-5.201399	-4.651488	-9.482822	3.298334	0.990779	-2.304260	5.615680	-0.289940	0.620177	0.472289	0.578185	-1.000000	-1.000000	-1.000000	-1.000000	-1.000000	-1.000000	-1.000000	79.310345	0.000000	-1.000000	-1.000000	1102770.000000	1773866448.810532
-6843.195000	-8036.145000	4147.920000	27812.385000	-15568.695000	-23285.070000	11796.120000	21511.845000	-3.073812	-7.047666	-11.825876	-5.317685	-4.037867	-8.356078	2.861889	3.814482	-4.516960	5.295220	-0.152600	0.617796	0.472045	0.579527	-1.000000	-1.000000	-1.000000	-1.000000	-1.000000	-1.000000	-1.000000	79.310345	0.000000	-1.000000	-1.000000	1102771.000000	1773866448.822289
-6797.385000	-7998.390000	4195.845000	27853.695000	-15536.340000	-23263.650000	11776.185000	21523.455000	3.019996	-7.126155	-14.701630	-2.580149	-1.732031	-2.823479	0.222654	1.443523	-4.516960	5.295220	-0.152600	0.617796	0.472045	0.579527	-1.000000	-1.000000	-1.000000	-1.000000	-1.000000	-1.000000	-1.000000	79.310345	0.000000	-1.000000	-1.000000	1102772.000000	1773866448.822302
-6793.920000	-8002.305000	4197.960000	27860.580000	-15531.345000	-23256.720000	11769.615000	21547.845000	10.422694	-1.898292	-10.075295	2.736093	2.157555	5.154175	-2.470792	-1.056499	-4.516960	5.295220	-0.152600	0.617796	0.472045	0.579527	-1.000000	-1.000000	-1.000000	-1.000000	-1.000000	-1.000000	-1.000000	79.310345	0.000000	-1.000000	-1.000000	1102773.000000	1773866448.822518
-6808.905000	-8014.905000	4192.380000	27853.695000	-15540.525000	-23265.315000	11761.785000	21521.610000	15.238109	5.839828	1.395004	7.551028	5.606416	11.237465	-3.280803	0.704299	-4.516960	5.295220	-0.152600	0.617796	0.472045	0.579527	-1.000000	-1.000000	-1.000000	-1.000000	-1.000000	-1.000000	-1.000000	79.310345	0.000000	-1.000000	-1.000000	1102774.000000	1773866448.822532
-6809.625000	-8004.870000	4202.505000	27861.975000	-15532.830000	-23257.485000	11764.395000	21513.960000	13.382107	10.720901	13.035013	8.958010	6.711152	12.401787	-2.054143	4.876406	-4.516960	5.295220	-0.152600	0.617796	0.472045	0.579527	-1.000000	-1.000000	-1.000000	-1.000000	-1.000000	-1.000000	-1.000000	79.310345	0.000000	-1.000000	-1.000000	1102775.000000	1773866448.822540
-6821.865000	-7996.635000	4204.485000	27845.595000	-15546.195000	-23262.345000	11778.930000	21515.895000	5.347362	10.426881	18.356349	6.877410	5.610216	9.530101	-0.275177	6.479582	-4.516960	5.295220	-0.152600	0.617796	0.472045	0.579527	-1.000000	-1.000000	-1.000000	-1.000000	-1.000000	-1.000000	-1.000000	79.310345	0.000000	-1.000000	-1.000000	1102776.000000	1773866448.822545
-6847.380000	-8015.040000	4190.850000	27825.750000	-15554.115000	-23283.450000	11788.695000	21524.265000	-4.635257	6.682652	15.783271	3.546076	3.909873	5.674461	1.014141	3.604433	-4.516960	5.295220	-0.152600	0.617796	0.472045	0.579527	-1.000000	-1.000000	-1.000000	-1.000000	-1.000000	-1.000000	-1.000000	79.310345	0.000000	-1.000000	-1.000000	1102777.000000	1773866448.824664
-6855.030000	-8034.615000	4165.470000	27800.505000	-15577.020000	-23278.995000	11789.505000	21514.320000	-12.339068	1.603746	7.862650	0.581117	2.429241	2.563990	1.844334	-1.685954	-4.516960	5.295220	-0.152600	0.617796	0.472045	0.579527	-1.000000	-1.000000	-1.000000	-1.000000	-1.000000	-1.000000	-1.000000	79.310345	0.000000	-1.000000	-1.000000	1102778.000000	1773866448.824676
-6831.675000	-8014.230000	4187.430000	27824.355000	-15559.785000	-23274.810000	11780.415000	21510.495000	-14.747500	-3.246609	-0.836284	-2.178736	0.382847	-0.331776	2.036880	-6.459432	-4.516960	5.295220	-0.152600	0.617796	0.472045	0.579527	-1.000000	-1.000000	-1.000000	-1.000000	-1.000000	-1.000000	-1.000000	79.310345	0.000000	-1.000000	-1.000000	1102779.000000	1773866448.830199
-6807.870000	-7992.315000	4216.995000	27859.680000	-15533.190000	-23272.110000	11773.980000	21523.185000	-10.621014	-5.525141	-5.454780	-4.324607	-2.315472	-4.076673	1.290333	-8.438388	-4.516960	5.295220	-0.152600	0.617796	0.472045	0.579527	-1.000000	-1.000000	-1.000000	-1.000000	-1.000000	-1.000000	-1.000000	79.310345	0.000000	-1.000000	-1.000000	1102780.000000	1773866448.830206
-6804.315000	-7976.790000	4251.465000	27889.785000	-15503.445000	-23233.140000	11772.585000	21504.375000	-2.336101	-4.083500	-4.355867	-4.493298	-4.051565	-7.929683	0.430559	-6.628432	-2.472120	5.661460	-1.312360	0.616698	0.472838	0.579039	-1.000000	-1.000000	-1.000000	-1.000000	-1.000000	-1.000000	-1.000000	79.310345	0.000000	-1.000000	-1.000000	1102781.000000	1773866448.842191
-6789.105000	-7954.290000	4286.700000	27916.875000	-15473.160000	-23200.920000	11791.890000	21511.935000	5.350539	-0.441466	0.011740	-2.260540	-3.263909	-8.859576	0.926232	-2.389607	-2.472120	5.661460	-1.312360	0.616698	0.472838	0.579039	-1.000000	-1.000000	-1.000000	-1.000000	-1.000000	-1.000000	-1.000000	79.310345	0.000000	-1.000000	-1.000000	1102782.000000	1773866448.842201
-6779.430000	-7963.875000	4262.040000	27904.455000	-15495.165000	-23237.730000	11787.660000	21543.120000	9.661444	3.030201	3.742170	1.313644	-0.154619	-5.279813	2.946263	2.807643	-2.472120	5.661460	-1.312360	0.616698	0.472838	0.579039	-1.000000	-1.000000	-1.000000	-1.000000	-1.000000	-1.000000	-1.000000	79.310345	0.000000	-1.000000	-1.000000	1102783.000000	1773866448.842212
-6803.235000	-8011.170000	4147.740000	27840.060000	-15556.500000	-23288.625000	11764.035000	21542.535000	10.218775	3.259996	1.401029	2.890906	1.750469	-0.935257	3.988783	8.533977	-2.472120	5.661460	-1.312360	0.616698	0.472838	0.579039	-1.000000	-1.000000	-1.000000	-1.000000	-1.000000	-1.000000	-1.000000	79.310345	0.000000	-1.000000	-1.000000	1102784.000000	1773866448.842217
-6822.315000	-8001.180000	4142.070000	27844.110000	-15539.310000	-23253.615000	11758.905000	21521.205000	6.896929	-1.719115	-10.281528	-0.367906	-0.919801	-0.020629	0.848251	12.059883	-2.472120	5.661460	-1.312360	0.616698	0.472838	0.579039	-1.000000	-1.000000	-1.000000	-1.000000	-1.000000	-1.000000	-1.000000	79.310345	0.000000	-1.000000	-1.000000	1102785.000000	1773866448.842223
-6838.875000	-8002.890000	4186.935000	27836.820000	-15554.970000	-23273.415000	11751.480000	21496.725000	0.693204	-8.356729	-23.560692	-5.507343	-5.580279	-0.693730	-5.993093	9.154243	-2.472120	5.661460	-1.312360	0.616698	0.472838	0.579039	-1.000000	-1.000000	-1.000000	-1.000000	-1.000000	-1.000000	-1.000000	79.310345	0.000000	-1.000000	-1.000000	1102786.000000	1773866448.842228
-6833.430000	-8032.140000	4189.050000	27803.475000	-15587.235000	-23299.065000	11746.485000	21512.880000	-5.549540	-10.786161	-24.366518	-7.414819	-7.493935	-0.107374	-11.962321	0.006247	-2.472120	5.661460	-1.312360	0.616698	0.472838	0.579039	-1.000000	-1.000000	-1.000000	-1.000000	-1.000000	-1.000000	-1.000000	79.310345	0.000000	-1.000000	-1.000000	1102787.000000	1773866448.844772
-6826.680000	-8017.965000	4196.430000	27823.545000	-15563.880000	-23274.270000	11747.700000	21492.945000	-9.174069	-7.820375	-8.975668	-5.714073	-6.032099	0.752698	-12.421778	-9.679982	-2.472120	5.661460	-1.312360	0.616698	0.472838	0.579039	-1.000000	-1.000000	-1.000000	-1.000000	-1.000000	-1.000000	-1.000000	79.310345	0.000000	-1.000000	-1.000000	1102788.000000	1773866448.844782
-6799.455000	-7972.605000	4243.635000	27903.645000	-15485.580000	-23207.085000	11760.885000	21446.820000	-9.109822	-1.799435	12.415865	-2.144694	-2.022980	1.778436	-5.866351	-14.907662	-2.472120	5.661460	-1.312360	0.616698	0.472838	0.579039	-1.000000	-1.000000	-1.000000	-1.000000	-1.000000	-1.000000	-1.000000	79.310345	0.000000	-1.000000	-1.000000	1102789.000000	1773866448.849082
-6789.240000	-7972.245000	4236.705000	27927.990000	-15461.100000	-23183.595000	11784.870000	21488.355000	-5.436485	5.104187	26.726951	3.385017	4.708863	4.620983	5.269775	-14.309611	-2.472120	5.661460	-1.312360	0.616698	0.472838	0.579039	-1.000000	-1.000000	-1.000000	-1.000000	-1.000000	-1.000000	-1.000000	79.310345	0.000000	-1.000000	-1.000000	1102790.000000	1773866448.849093
-6799.455000	-7983.855000	4220.055000	27901.305000	-15504.255000	-23216.715000	11784.510000	21557.160000	0.296888	10.107764	26.672054	9.332892	11.383709	7.672946	15.498825	-6.749664	-2.853620	6.210820	-1.403920	0.618346	0.471740	0.578917	-1.000000	-1.000000	-1.000000	-1.000000	-1.000000	-1.000000	-1.000000	79.310345	0.000000	-1.000000	-1.000000	1102791.000000	1773866448.853147
-6822.495000	-7995.195000	4207.950000	27884.835000	-15512.310000	-23227.605000	11755.170000	21528.720000	4.800224	10.539798	14.228447	11.456964	12.769927	7.273282	18.844548	6.591671	-2.853620	6.210820	-1.403920	0.618346	0.471740	0.578917	-1.000000	-1.000000	-1.000000	-1.000000	-1.000000	-1.000000	-1.000000	79.310345	0.000000	-1.000000	-1.000000	1102792.000000	1773866448.853157
-6831.765000	-8013.195000	4188.960000	27847.710000	-15542.820000	-23253.525000	11759.175000	21515.850000	5.757630	6.689614	-0.719411	7.999339	7.694850	2.839627	12.872571	17.953263	-2.853620	6.210820	-1.403920	0.618346	0.471740	0.578917	-1.000000	-1.000000	-1.000000	-1.000000	-1.000000	-1.000000	-1.000000	79.310345	0.000000	-1.000000	-1.000000	1102793.000000	1773866448.856658
-6824.655000	-8029.215000	4172.085000	27823.095000	-15565.815000	-23277.780000	11762.415000	21520.845000	4.409216	0.879433	-9.698700	0.908248	-0.691231	-3.726461	1.149991	19.657349	-2.853620	6.210820	-1.403920	0.618346	0.471740	0.578917	-1.000000	-1.000000	-1.000000	-1.000000	-1.000000	-1.000000	-1.000000	79.310345	0.000000	-1.000000	-1.000000	1102794.000000	1773866448.856668
-6822.900000	-8033.355000	4171.455000	27823.545000	-15575.580000	-23289.840000	11759.850000	21524.310000	3.566117	-4.469655	-12.283505	-6.421347	-8.524857	-9.993266	-9.518705	12.018291	-2.853620	6.210820	-1.403920	0.618346	0.471740	0.578917	-1.000000	-1.000000	-1.000000	-1.000000	-1.000000	-1.000000	-1.000000	79.310345	0.000000	-1.000000	-1.000000	1102795.000000	1773866448.860697
-6832.800000	-8041.095000	4160.205000	27811.035000	-15592.770000	-23310.900000	11760.435000	21521.430000	3.585289	-7.008503	-11.660659	-10.243843	-12.291462	-12.999700	-14.195870	0.634332	-2.853620	6.210820	-1.403920	0.618346	0.471740	0.578917	-1.000000	-1.000000	-1.000000	-1.000000	-1.000000	-1.000000	-1.000000	79.310345	0.000000	-1.000000	-1.000000	1102796.000000	1773866448.860705
-6820.290000	-8004.465000	4198.635000	27861.255000	-15540.570000	-23246.505000	11752.065000	21510.720000	2.268172	-5.822132	-9.322868	-9.098781	-10.751419	-10.917637	-12.195061	-8.865377	-2.853620	6.210820	-1.403920	0.618346	0.471740	0.578917	-1.000000	-1.000000	-1.000000	-1.000000	-1.000000	-1.000000	-1.000000	79.310345	0.000000	-1.000000	-1.000000	1102797.000000	1773866448.871548
-6794.415000	-7971.120000	4227.075000	27913.995000	-15481.755000	-23213.565000	11744.640000	21509.955000	-1.184172	-1.992500	-5.189844	-4.598791	-5.254144	-4.224727	-6.557250	-12.817219	-2.853620	6.210820	-1.403920	0.618346	0.471740	0.578917	-1.000000	-1.000000	-1.000000	-1.000000	-1.000000	-1.000000	-1.000000	79.310345	0.000000	-1.000000	-1.000000	1102798.000000	1773866448.871560
-6787.260000	-7962.345000	4237.335000	27907.560000	-15503.535000	-23238.315000	11754.765000	21508.650000	-4.452814	2.882309	0.741208	1.061542	2.038959	4.140776	-1.347820	-11.612453	-2.853620	6.210820	-1.403920	0.618346	0.471740	0.578917	-1.000000	-1.000000	-1.000000	-1.000000	-1.000000	-1.000000	-1.000000	79.310345	0.000000	-1.000000	-1.000000	1102799.000000	1773866448.871572
-6820.020000	-7982.595000	4249.035000	27904.545000	-15501.240000	-23217.750000	11740.815000	21480.210000	-5.250853	6.829600	7.502374	6.103934	8.583341	10.577588	1.673215	-9.490961	-2.853620	6.210820	-1.403920	0.618346	0.471740	0.578917	-1.000000	-1.000000	-1.000000	-1.000000	-1.000000	-1.000000	-1.000000	79.310345	0.000000	-1.000000	-1.000000	1102800.000000	1773866448.871577
-6831.270000	-8026.875000	4239.720000	27888.840000	-15496.740000	-23198.940000	11748.960000	21494.385000	-3.889739	7.150939	13.241030	9.261623	12.540628	14.264991	3.482573	-8.621201	0.213640	4.593260	-2.884140	0.619261	0.469420	0.578490	-1.000000	-1.000000	-1.000000	-1.000000	-1.000000	-1.000000	-1.000000	79.310345	0.000000	-1.000000	-1.000000	1102801.000000	1773866448.872586
-6820.470000	-8032.455000	4165.110000	27860.670000	-15518.070000	-23220.450000	11768.220000	21518.505000	-1.523779	2.577582	14.607526	9.716957	13.145813	15.565309	5.495853	-5.686381	0.213640	4.593260	-2.884140	0.619261	0.469420	0.578490	-1.000000	-1.000000	-1.000000	-1.000000	-1.000000	-1.000000	-1.000000	79.310345	0.000000	-1.000000	-1.000000	1102802.000000	1773866448.872597
-6814.170000	-8020.890000	4135.680000	27877.545000	-15511.995000	-23232.195000	11767.905000	21507.030000	1.436945	-4.030179	7.594133	7.106039	9.870091	12.869400	7.610359	2.087604	0.213640	4.593260	-2.884140	0.619261	0.469420	0.578490	-1.000000	-1.000000	-1.000000	-1.000000	-1.000000	-1.000000	-1.000000	79.310345	0.000000	-1.000000	-1.000000	1102803.000000	1773866448.880425
-6822.900000	-8003.475000	4189.500000	27882.720000	-15525.990000	-23247.855000	11748.960000	21476.520000	4.107743	-7.257374	-5.783851	2.693780	3.437450	5.095475	7.959672	10.859148	0.213640	4.593260	-2.884140	0.619261	0.469420	0.578490	-1.000000	-1.000000	-1.000000	-1.000000	-1.000000	-1.000000	-1.000000	79.310345	0.000000	-1.000000	-1.000000	1102804.000000	1773866448.880436
-6813.990000	-7979.310000	4231.440000	27933.930000	-15473.115000	-23203.620000	11732.940000	21470.670000	4.874109	-4.405902	-15.390532	-1.122986	-3.627514	-5.227998	4.628528	14.136949	0.213640	4.593260	-2.884140	0.619261	0.469420	0.578490	-1.000000	-1.000000	-1.000000	-1.000000	-1.000000	-1.000000	-1.000000	79.310345	0.000000	-1.000000	-1.000000	1102805.000000	1773866448.882101
-6796.440000	-7963.740000	4250.070000	27972.900000	-15437.340000	-23147.550000	11741.535000	21485.700000	3.044443	1.515958	-13.970434	-3.474723	-8.967465	-13.476873	-1.612317	10.723228	0.213640	4.593260	-2.884140	0.619261	0.469420	0.578490	-1.000000	-1.000000	-1.000000	-1.000000	-1.000000	-1.000000	-1.000000	79.310345	0.000000	-1.000000	-1.000000	1102806.000000	1773866448.882110
-6779.565000	-7948.890000	4267.620000	27997.740000	-15403.230000	-23128.695000	11757.825000	21499.155000	-0.353085	4.986014	-4.709435	-5.365624	-11.618728	-16.047148	-6.983622	4.890533	0.213640	4.593260	-2.884140	0.619261	0.469420	0.578490	-1.000000	-1.000000	-1.000000	-1.000000	-1.000000	-1.000000	-1.000000	79.310345	0.000000	-1.000000	-1.000000	1102807.000000	1773866448.884844
-6769.755000	-7950.825000	4262.085000	27994.680000	-15393.690000	-23101.920000	11769.030000	21471.705000	-2.971760	3.756169	4.613798	-6.943388	-10.509555	-11.683220	-7.942572	0.000844	0.213640	4.593260	-2.884140	0.619261	0.469420	0.578490	-1.000000	-1.000000	-1.000000	-1.000000	-1.000000	-1.000000	-1.000000	79.310345	0.000000	-1.000000	-1.000000	1102808.000000	1773866448.884851
-6745.905000	-7913.025000	4299.975000	28021.860000	-15387.705000	-23107.095000	11761.830000	21425.445000	-2.115451	0.846587	9.332434	-6.462222	-5.062976	-2.573013	-4.129202	-4.240316	0.213640	4.593260	-2.884140	0.619261	0.469420	0.578490	-1.000000	-1.000000	-1.000000	-1.000000	-1.000000	-1.000000	-1.000000	79.310345	0.000000	-1.000000	-1.000000	1102809.000000	1773866448.888765
-6763.005000	-7951.860000	4249.620000	27952.245000	-15462.090000	-23175.495000	11747.295000	21481.335000	2.420056	0.499234	9.505291	-3.268530	1.300572	4.804571	1.139980	-8.069722	0.213640	4.593260	-2.884140	0.619261	0.469420	0.578490	-1.000000	-1.000000	-1.000000	-1.000000	-1.000000	-1.000000	-1.000000	79.310345	0.000000	-1.000000	-1.000000	1102810.000000	1773866448.888774
-6801.300000	-8016.795000	4180.770000	27885.510000	-15525.090000	-23240.790000	11728.035000	21555.360000	5.881469	1.358588	6.146380	-0.987869	2.258277	3.750989	3.094519	-7.885670	-2.395820	5.264700	-1.419180	0.619322	0.471129	0.579649	-1.000000	-1.000000	-1.000000	-1.000000	-1.000000	-1.000000	-1.000000	79.310345	0.000000	-1.000000	-1.000000	1102811.000000	1773866448.893688
-6793.965000	-7996.365000	4205.610000	27912.960000	-15501.555000	-23218.740000	11727.720000	21535.380000	3.042940	-1.700574	-0.524834	-3.437487	-3.779145	-4.912372	0.194162	-0.422108	-2.395820	5.264700	-1.419180	0.619322	0.471129	0.579649	-1.000000	-1.000000	-1.000000	-1.000000	-1.000000	-1.000000	-1.000000	79.310345	0.000000	-1.000000	-1.000000	1102812.000000	1773866448.893697
-6773.490000	-7973.370000	4227.075000	27938.070000	-15478.875000	-23198.130000	11734.875000	21527.010000	-4.443387	-8.086450	-8.202660	-7.709757	-9.890191	-11.975096	-3.797147	10.143709	-2.395820	5.264700	-1.419180	0.619322	0.471129	0.579649	-1.000000	-1.000000	-1.000000	-1.000000	-1.000000	-1.000000	-1.000000	79.310345	0.000000	-1.000000	-1.000000	1102813.000000	1773866448.899774
-6762.915000	-7956.675000	4246.605000	27975.105000	-15440.220000	-23182.695000	11715.120000	21512.700000	-9.945348	-11.789852	-12.965137	-7.908476	-8.821016	-10.328188	-4.296673	15.068157	-2.395820	5.264700	-1.419180	0.619322	0.471129	0.579649	-1.000000	-1.000000	-1.000000	-1.000000	-1.000000	-1.000000	-1.000000	79.310345	0.000000	-1.000000	-1.000000	1102814.000000	1773866448.899783
-6755.445000	-7942.680000	4253.355000	27986.580000	-15435.270000	-23167.440000	11720.880000	21518.235000	-9.823866	-9.465061	-12.619693	-3.055509	-1.318827	-2.317441	-1.158235	9.739259	-2.395820	5.264700	-1.419180	0.619322	0.471129	0.579649	-1.000000	-1.000000	-1.000000	-1.000000	-1.000000	-1.000000	-1.000000	79.310345	0.000000	-1.000000	-1.000000	1102815.000000	1773866448.902104
-6761.790000	-7950.735000	4249.800000	27990.045000	-15426.405000	-23148.675000	11720.070000	21502.080000	-5.644166	-2.717435	-7.575585	3.594666	6.855717	6.130104	2.364738	-3.068759	-2.395820	5.264700	-1.419180	0.619322	0.471129	0.579649	-1.000000	-1.000000	-1.000000	-1.000000	-1.000000	-1.000000	-1.000000	79.310345	0.000000	-1.000000	-1.000000	1102816.000000	1773866448.902114
-6780.555000	-7974.765000	4232.295000	27975.420000	-15437.430000	-23150.565000	11732.220000	21497.445000	-0.937846	4.198890	-0.480956	8.709595	11.417711	11.829255	4.066906	-15.425547	-2.395820	5.264700	-1.419180	0.619322	0.471129	0.579649	-1.000000	-1.000000	-1.000000	-1.000000	-1.000000	-1.000000	-1.000000	79.310345	0.000000	-1.000000	-1.000000	1102817.000000	1773866448.904696
-6760.755000	-7966.620000	4242.780000	27963.270000	-15442.380000	-23150.025000	11760.705000	21522.915000	2.133269	7.677252	5.448267	10.483936	11.651831	14.008378	4.753914	-19.315555	-2.395820	5.264700	-1.419180	0.619322	0.471129	0.579649	-1.000000	-1.000000	-1.000000	-1.000000	-1.000000	-1.000000	-1.000000	79.310345	0.000000	-1.000000	-1.000000	1102818.000000	1773866448.904706
-6746.715000	-7966.170000	4235.715000	27940.500000	-15470.235000	-23161.995000	11775.870000	21524.670000	4.534864	8.344728	9.983212	9.828157	9.843693	13.881382	6.322270	-13.467746	-2.395820	5.264700	-1.419180	0.619322	0.471129	0.579649	-1.000000	-1.000000	-1.000000	-1.000000	-1.000000	-1.000000	-1.000000	79.310345	0.000000	-1.000000	-1.000000	1102819.000000	1773866448.908666
-6758.370000	-7965.045000	4244.670000	27941.625000	-15474.465000	-23170.005000	11771.775000	21513.465000	7.952939	9.372634	14.877759	9.068987	8.388895	13.026514	8.450084	-4.448306	-2.395820	5.264700	-1.419180	0.619322	0.471129	0.579649	-1.000000	-1.000000	-1.000000	-1.000000	-1.000000	-1.000000	-1.000000	79.310345	0.000000	-1.000000	-1.000000	1102820.000000	1773866448.908676
-6777.135000	-7956.630000	4277.205000	27966.105000	-15435.405000	-23165.415000	11762.235000	21522.735000	10.426850	10.571183	18.377166	8.101700	6.942087	10.156587	8.170314	1.878794	-0.991900	5.218920	-2.212700	0.618040	0.475157	0.582884	-1.000000	-1.000000	-1.000000	-1.000000	-1.000000	-1.000000	-1.000000	79.310345	0.000000	-1.000000	-1.000000	1102821.000000	1773866448.915773
-6779.340000	-7956.495000	4276.035000	27971.145000	-15445.980000	-23162.085000	11736.045000	21511.935000	7.851598	8.187631	15.593577	4.456707	3.331046	2.644085	2.976543	5.610277	-0.991900	5.218920	-2.212700	0.618040	0.475157	0.582884	-1.000000	-1.000000	-1.000000	-1.000000	-1.000000	-1.000000	-1.000000	79.310345	0.000000	-1.000000	-1.000000	1102822.000000	1773866448.915785
-6796.080000	-7980.165000	4229.820000	27967.275000	-15444.000000	-23160.960000	11738.790000	21495.420000	-0.447125	0.076700	3.865056	-3.370579	-4.205570	-9.105148	-5.964890	8.046002	-0.991900	5.218920	-2.212700	0.618040	0.475157	0.582884	-1.000000	-1.000000	-1.000000	-1.000000	-1.000000	-1.000000	-1.000000	79.310345	0.000000	-1.000000	-1.000000	1102823.000000	1773866448.916708
-6778.260000	-7978.725000	4198.905000	27964.170000	-15452.370000	-23160.375000	11740.365000	21493.260000	-10.041521	-11.202316	-14.079873	-13.291911	-14.176578	-20.517907	-14.007832	8.284307	-0.991900	5.218920	-2.212700	0.618040	0.475157	0.582884	-1.000000	-1.000000	-1.000000	-1.000000	-1.000000	-1.000000	-1.000000	79.310345	0.000000	-1.000000	-1.000000	1102824.000000	1773866448.916714
-6772.230000	-7976.070000	4235.220000	27976.050000	-15432.975000	-23145.660000	11737.080000	21496.365000	-14.343537	-19.056476	-29.250918	-19.523669	-20.783905	-25.450823	-16.741210	6.163602	-0.991900	5.218920	-2.212700	0.618040	0.475157	0.582884	-1.000000	-1.000000	-1.000000	-1.000000	-1.000000	-1.000000	-1.000000	79.310345	0.000000	-1.000000	-1.000000	1102825.000000	1773866448.921849
-6777.720000	-7960.995000	4270.230000	27959.580000	-15444.315000	-23145.255000	11742.840000	21497.940000	-9.971297	-17.406741	-30.591926	-17.015127	-18.476168	-20.276520	-13.142262	3.681377	-0.991900	5.218920	-2.212700	0.618040	0.475157	0.582884	-1.000000	-1.000000	-1.000000	-1.000000	-1.000000	-1.000000	-1.000000	79.310345	0.000000	-1.000000	-1.000000	1102826.000000	1773866448.921858
-6783.570000	-7954.920000	4281.210000	27951.840000	-15451.425000	-23163.930000	11753.460000	21510.630000	-0.278204	-6.060295	-14.593457	-6.086429	-7.079565	-6.647136	-5.453045	1.898069	-0.991900	5.218920	-2.212700	0.618040	0.475157	0.582884	-1.000000	-1.000000	-1.000000	-1.000000	-1.000000	-1.000000	-1.000000	79.310345	0.000000	-1.000000	-1.000000	1102827.000000	1773866448.924766
-6790.140000	-7961.130000	4251.420000	27964.710000	-15438.780000	-23141.970000	11771.145000	21505.950000	8.044496	8.856295	10.023002	8.420649	8.523162	9.695994	3.161001	-0.158497	-0.991900	5.218920	-2.212700	0.618040	0.475157	0.582884	-1.000000	-1.000000	-1.000000	-1.000000	-1.000000	-1.000000	-1.000000	79.310345	0.000000	-1.000000	-1.000000	1102828.000000	1773866448.924773
-6785.100000	-7961.760000	4217.400000	27966.780000	-15447.645000	-23166.405000	11770.380000	21486.555000	11.161287	18.993801	27.561093	19.897456	21.029590	21.956374	10.339108	-2.998155	-0.991900	5.218920	-2.212700	0.618040	0.475157	0.582884	-1.000000	-1.000000	-1.000000	-1.000000	-1.000000	-1.000000	-1.000000	79.310345	0.000000	-1.000000	-1.000000	1102829.000000	1773866448.928730
-6787.080000	-7986.780000	4206.870000	27947.430000	-15464.880000	-23170.185000	11767.635000	21499.785000	9.555032	18.504079	26.454588	21.788173	23.019964	24.251271	14.314373	-5.388115	-0.991900	5.218920	-2.212700	0.618040	0.475157	0.582884	-1.000000	-1.000000	-1.000000	-1.000000	-1.000000	-1.000000	-1.000000	79.310345	0.000000	-1.000000	-1.000000	1102830.000000	1773866448.928740
-6777.045000	-7985.835000	4213.935000	27954.630000	-15454.890000	-23165.955000	11749.590000	21510.225000	5.501057	7.692089	9.017421	11.851684	12.341246	15.092886	13.775031	-5.075695	-2.105880	3.723440	-0.518840	0.619810	0.473754	0.585082	-1.000000	-1.000000	-1.000000	-1.000000	-1.000000	-1.000000	-1.000000	79.310345	0.000000	-1.000000	-1.000000	1102831.000000	1773866448.932706
-6772.545000	-7972.335000	4228.560000	27963.900000	-15453.045000	-23190.705000	11761.380000	21500.280000	1.155640	-6.292947	-10.152347	-4.155930	-4.306759	-0.530309	8.652673	-1.182199	-2.105880	3.723440	-0.518840	0.619810	0.473754	0.585082	-1.000000	-1.000000	-1.000000	-1.000000	-1.000000	-1.000000	-1.000000	79.310345	0.000000	-1.000000	-1.000000	1102832.000000	1773866448.932715
-6780.060000	-7963.200000	4245.210000	27986.130000	-15419.340000	-23134.275000	11769.030000	21478.500000	-2.392395	-14.405570	-17.241280	-16.038601	-16.277019	-14.063308	0.987966	3.539179	-2.105880	3.723440	-0.518840	0.619810	0.473754	0.585082	-1.000000	-1.000000	-1.000000	-1.000000	-1.000000	-1.000000	-1.000000	79.310345	0.000000	-1.000000	-1.000000	1102833.000000	1773866448.936752
-6789.375000	-7975.125000	4232.880000	27964.800000	-15434.685000	-23135.085000	11763.450000	21487.995000	-5.179423	-12.958353	-10.675571	-17.414567	-17.251506	-18.086041	-5.845999	5.240535	-2.105880	3.723440	-0.518840	0.619810	0.473754	0.585082	-1.000000	-1.000000	-1.000000	-1.000000	-1.000000	-1.000000	-1.000000	79.310345	0.000000	-1.000000	-1.000000	1102834.000000	1773866448.936762
-6783.345000	-7995.330000	4208.580000	27925.245000	-15471.225000	-23186.205000	11754.630000	21537.630000	-6.914491	-5.726363	-0.023745	-10.131552	-9.325982	-11.919558	-9.845061	3.731717	-2.105880	3.723440	-0.518840	0.619810	0.473754	0.585082	-1.000000	-1.000000	-1.000000	-1.000000	-1.000000	-1.000000	-1.000000	79.310345	0.000000	-1.000000	-1.000000	1102835.000000	1773866448.944456
-6774.705000	-8013.195000	4172.760000	27887.175000	-15504.660000	-23206.770000	11759.535000	21560.400000	-6.377108	0.789823	5.031900	-1.191518	0.063646	-2.321205	-11.071471	2.109578	-2.105880	3.723440	-0.518840	0.619810	0.473754	0.585082	-1.000000	-1.000000	-1.000000	-1.000000	-1.000000	-1.000000	-1.000000	79.310345	0.000000	-1.000000	-1.000000	1102836.000000	1773866448.944467
-6764.670000	-7986.780000	4180.680000	27909.045000	-15486.165000	-23195.655000	11761.065000	21540.060000	-2.828101	3.639323	3.172093	3.874143	5.165590	4.106898	-9.788731	2.045204	-2.105880	3.723440	-0.518840	0.619810	0.473754	0.585082	-1.000000	-1.000000	-1.000000	-1.000000	-1.000000	-1.000000	-1.000000	79.310345	0.000000	-1.000000	-1.000000	1102837.000000	1773866448.944731
-6774.930000	-7977.870000	4194.270000	27922.005000	-15481.890000	-23192.640000	11756.295000	21525.435000	2.285414	4.603311	-0.081866	4.974959	5.780771	6.394304	-5.943065	1.766999	-2.105880	3.723440	-0.518840	0.619810	0.473754	0.585082	-1.000000	-1.000000	-1.000000	-1.000000	-1.000000	-1.000000	-1.000000	79.310345	0.000000	-1.000000	-1.000000	1102838.000000	1773866448.944737
-6807.420000	-7977.960000	4244.220000	27946.485000	-15463.170000	-23160.915000	11756.385000	21507.795000	5.277848	5.968958	0.728275	5.460828	5.017789	6.975331	-0.086232	-1.257012	-2.105880	3.723440	-0.518840	0.619810	0.473754	0.585082	-1.000000	-1.000000	-1.000000	-1.000000	-1.000000	-1.000000	-1.000000	79.310345	0.000000	-1.000000	-1.000000	1102839.000000	1773866448.948786
-6809.130000	-7979.400000	4254.210000	27961.785000	-15445.530000	-23144.850000	11755.350000	21497.850000	3.201422	7.196923	6.351505	7.276666	5.110502	7.796900	6.169692	-6.890242	-2.105880	3.723440	-0.518840	0.619810	0.473754	0.585082	-1.000000	-1.000000	-1.000000	-1.000000	-1.000000	-1.000000	-1.000000	79.310345	0.000000	-1.000000	-1.000000	1102840.000000	1773866448.948830
-6779.205000	-7980.795000	4240.215000	27955.620000	-15442.920000	-23147.190000	11754.360000	21509.415000	-2.145808	6.035723	12.092918	8.815681	5.685437	8.441350	10.182546	-11.394780	-3.341940	3.280900	-0.900340	0.620482	0.472899	0.586363	-1.000000	-1.000000	-1.000000	-1.000000	-1.000000	-1.000000	-1.000000	79.310345	0.000000	-1.000000	-1.000000	1102841.000000	1773866448.952725
-6770.970000	-7973.820000	4235.760000	27939.780000	-15465.780000	-23186.520000	11750.445000	21524.895000	-5.116051	1.810906	11.466367	6.873348	4.348255	5.581331	9.740164	-10.105399	-3.341940	3.280900	-0.900340	0.620482	0.472899	0.586363	-1.000000	-1.000000	-1.000000	-1.000000	-1.000000	-1.000000	-1.000000	79.310345	0.000000	-1.000000	-1.000000	1102842.000000	1773866448.952736
-6780.825000	-7969.950000	4232.070000	27906.435000	-15503.715000	-23220.495000	11779.200000	21543.705000	-2.580820	-3.101652	2.817464	0.659813	-0.557018	-3.175189	5.640548	-2.403144	-3.341940	3.280900	-0.900340	0.620482	0.472899	0.586363	-1.000000	-1.000000	-1.000000	-1.000000	-1.000000	-1.000000	-1.000000	79.310345	0.000000	-1.000000	-1.000000	1102843.000000	1773866448.958153
-6797.925000	-7966.440000	4231.305000	27892.710000	-15508.755000	-23216.445000	11775.825000	21525.570000	2.512331	-5.346816	-8.403533	-6.385224	-6.720700	-13.345990	1.228030	6.118729	-3.341940	3.280900	-0.900340	0.620482	0.472899	0.586363	-1.000000	-1.000000	-1.000000	-1.000000	-1.000000	-1.000000	-1.000000	79.310345	0.000000	-1.000000	-1.000000	1102844.000000	1773866448.958163
-6809.670000	-7979.085000	4220.730000	27894.150000	-15497.235000	-23205.285000	11769.255000	21511.125000	4.865645	-4.027428	-14.714393	-9.612471	-9.178367	-16.475005	-1.577425	8.603405	-3.341940	3.280900	-0.900340	0.620482	0.472899	0.586363	-1.000000	-1.000000	-1.000000	-1.000000	-1.000000	-1.000000	-1.000000	79.310345	0.000000	-1.000000	-1.000000	1102845.000000	1773866448.960660
-6809.040000	-8021.070000	4172.850000	27884.880000	-15510.690000	-23211.765000	11773.755000	21512.070000	2.492160	-2.321431	-13.892633	-7.931995	-6.017092	-9.650006	-3.315462	4.412065	-3.341940	3.280900	-0.900340	0.620482	0.472899	0.586363	-1.000000	-1.000000	-1.000000	-1.000000	-1.000000	-1.000000	-1.000000	79.310345	0.000000	-1.000000	-1.000000	1102846.000000	1773866448.960670
-6810.165000	-8011.530000	4182.930000	27920.385000	-15483.420000	-23209.380000	11752.830000	21482.055000	-1.765233	-3.830284	-10.033637	-3.849429	-0.192847	1.806389	-4.531395	-1.278438	-3.341940	3.280900	-0.900340	0.620482	0.472899	0.586363	-1.000000	-1.000000	-1.000000	-1.000000	-1.000000	-1.000000	-1.000000	79.310345	0.000000	-1.000000	-1.000000	1102847.000000	1773866448.964808
-6783.165000	-7967.700000	4225.950000	27957.060000	-15441.840000	-23150.925000	11752.785000	21464.550000	-3.170823	-6.505637	-6.518419	0.749988	5.018123	10.769252	-5.098980	-4.321254	-3.341940	3.280900	-0.900340	0.620482	0.472899	0.586363	-1.000000	-1.000000	-1.000000	-1.000000	-1.000000	-1.000000	-1.000000	79.310345	0.000000	-1.000000	-1.000000	1102848.000000	1773866448.964818
-6765.075000	-7941.465000	4269.780000	27985.905000	-15408.990000	-23125.995000	11761.155000	21481.695000	0.363648	-4.527290	-1.557902	5.565294	8.685475	14.623522	-4.597113	-3.786894	-3.341940	3.280900	-0.900340	0.620482	0.472899	0.586363	-1.000000	-1.000000	-1.000000	-1.000000	-1.000000	-1.000000	-1.000000	79.310345	0.000000	-1.000000	-1.000000	1102849.000000	1773866448.970673
-6775.335000	-7945.740000	4272.705000	27975.510000	-15427.080000	-23143.230000	11778.435000	21518.955000	5.676454	3.278125	7.034542	9.422693	10.052215	13.915233	-2.347778	0.299941	-3.341940	3.280900	-0.900340	0.620482	0.472899	0.586363	-1.000000	-1.000000	-1.000000	-1.000000	-1.000000	-1.000000	-1.000000	79.310345	0.000000	-1.000000	-1.000000	1102850.000000	1773866448.970729
-6793.245000	-7965.225000	4252.320000	27939.420000	-15465.780000	-23175.945000	11794.095000	21509.550000	7.179851	11.020022	15.827527	9.691072	7.331475	8.728006	1.627647	6.357413	-4.990020	4.135460	1.220800	0.620726	0.473448	0.587462	-1.000000	-1.000000	-1.000000	-1.000000	-1.000000	-1.000000	-1.000000	79.310345	0.000000	-1.000000	-1.000000	1102851.000000	1773866448.972814
-6791.130000	-7978.995000	4232.520000	27909.810000	-15485.895000	-23203.530000	11788.920000	21511.665000	2.892152	11.962031	18.012005	4.860222	0.351082	-0.035036	5.424505	9.961960	-4.990020	4.135460	1.220800	0.620726	0.473448	0.587462	-1.000000	-1.000000	-1.000000	-1.000000	-1.000000	-1.000000	-1.000000	79.310345	0.000000	-1.000000	-1.000000	1102852.000000	1773866448.972824
-6803.775000	-8004.465000	4204.845000	27880.605000	-15510.555000	-23225.580000	11788.650000	21555.405000	-3.830981	4.842590	10.681992	-3.401353	-7.987005	-9.537925	6.335925	8.404299	-4.990020	4.135460	1.220800	0.620726	0.473448	0.587462	-1.000000	-1.000000	-1.000000	-1.000000	-1.000000	-1.000000	-1.000000	79.310345	0.000000	-1.000000	-1.000000	1102853.000000	1773866448.981261
-6843.195000	-8052.705000	4162.905000	27823.905000	-15567.255000	-23266.890000	11777.445000	21578.940000	-8.875684	-6.187140	-2.546969	-12.109368	-14.782381	-17.029015	3.557569	4.717476	-4.990020	4.135460	1.220800	0.620726	0.473448	0.587462	-1.000000	-1.000000	-1.000000	-1.000000	-1.000000	-1.000000	-1.000000	79.310345	0.000000	-1.000000	-1.000000	1102854.000000	1773866448.981271
-6827.265000	-8023.680000	4211.820000	27849.915000	-15551.820000	-23267.475000	11764.845000	21544.335000	-10.621045	-14.665371	-13.892486	-18.364122	-18.387757	-20.311848	-1.304373	2.360107	-4.990020	4.135460	1.220800	0.620726	0.473448	0.587462	-1.000000	-1.000000	-1.000000	-1.000000	-1.000000	-1.000000	-1.000000	79.310345	0.000000	-1.000000	-1.000000	1102855.000000	1773866448.982292
-6797.070000	-7975.080000	4275.855000	27912.645000	-15492.375000	-23209.380000	11759.760000	21526.650000	-7.997653	-14.486200	-15.638718	-17.990089	-16.020071	-16.806051	-5.524396	0.197800	-4.990020	4.135460	1.220800	0.620726	0.473448	0.587462	-1.000000	-1.000000	-1.000000	-1.000000	-1.000000	-1.000000	-1.000000	79.310345	0.000000	-1.000000	-1.000000	1102856.000000	1773866448.982302
-6787.665000	-7981.020000	4233.285000	27928.755000	-15465.555000	-23178.735000	11763.405000	21524.715000	-0.851006	-4.981818	-7.461114	-8.364165	-5.756021	-5.678226	-6.755081	-3.777562	-4.990020	4.135460	1.220800	0.620726	0.473448	0.587462	-1.000000	-1.000000	-1.000000	-1.000000	-1.000000	-1.000000	-1.000000	79.310345	0.000000	-1.000000	-1.000000	1102857.000000	1773866448.984883
-6788.790000	-7996.230000	4149.495000	27925.560000	-15467.760000	-23164.650000	11777.895000	21528.180000	7.207806	6.680334	0.699205	6.499308	8.707731	9.215683	-4.510279	-8.918090	-4.990020	4.135460	1.220800	0.620726	0.473448	0.587462	-1.000000	-1.000000	-1.000000	-1.000000	-1.000000	-1.000000	-1.000000	79.310345	0.000000	-1.000000	-1.000000	1102858.000000	1773866448.984894
-6808.905000	-8003.340000	4175.460000	27912.600000	-15478.020000	-23192.460000	11782.530000	21527.325000	11.141097	12.404139	-0.002992	18.496254	20.063669	21.063798	-0.317033	-13.151058	-4.990020	4.135460	1.220800	0.620726	0.473448	0.587462	-1.000000	-1.000000	-1.000000	-1.000000	-1.000000	-1.000000	-1.000000	79.310345	0.000000	-1.000000	-1.000000	1102859.000000	1773866448.988813
-6827.220000	-8005.590000	4197.510000	27889.380000	-15502.455000	-23215.635000	11798.550000	21527.730000	8.909291	10.541432	-5.351306	22.396910	23.506425	24.535437	3.503935	-14.217250	-4.990020	4.135460	1.220800	0.620726	0.473448	0.587462	-1.000000	-1.000000	-1.000000	-1.000000	-1.000000	-1.000000	-1.000000	79.310345	0.000000	-1.000000	-1.000000	1102860.000000	1773866448.988823
-6824.925000	-8009.055000	4190.220000	27870.930000	-15524.280000	-23236.425000	11789.730000	21522.105000	2.440621	4.997078	-4.896731	18.043076	18.473824	18.495485	5.359471	-10.888851	-3.006220	4.257540	0.396760	0.623106	0.471495	0.587950	-1.000000	-1.000000	-1.000000	-1.000000	-1.000000	-1.000000	-1.000000	79.310345	0.000000	-1.000000	-1.000000	1102861.000000	1773866448.994301
-6803.775000	-7991.550000	4207.860000	27887.310000	-15505.065000	-23212.305000	11782.395000	21530.610000	-3.395823	0.820850	4.573659	8.995605	7.997577	6.657159	4.818269	-4.512461	-3.006220	4.257540	0.396760	0.623106	0.471495	0.587950	-1.000000	-1.000000	-1.000000	-1.000000	-1.000000	-1.000000	-1.000000	79.310345	0.000000	-1.000000	-1.000000	1102862.000000	1773866448.994312
-6783.885000	-7970.400000	4234.770000	27914.715000	-15483.105000	-23197.185000	11781.135000	21539.745000	-3.773514	1.246012	17.807799	0.773058	-1.820499	-3.976291	2.453096	2.533080	-3.006220	4.257540	0.396760	0.623106	0.471495	0.587950	-1.000000	-1.000000	-1.000000	-1.000000	-1.000000	-1.000000	-1.000000	79.310345	0.000000	-1.000000	-1.000000	1102863.000000	1773866448.996702
-6795.900000	-7975.485000	4233.330000	27930.420000	-15467.760000	-23181.660000	11779.335000	21523.275000	0.952698	4.541817	25.596210	-3.729093	-6.734096	-8.668318	-0.097867	9.188169	-3.006220	4.257540	0.396760	0.623106	0.471495	0.587950	-1.000000	-1.000000	-1.000000	-1.000000	-1.000000	-1.000000	-1.000000	79.310345	0.000000	-1.000000	-1.000000	1102864.000000	1773866448.996712
-6815.925000	-8000.145000	4208.805000	27918.360000	-15476.490000	-23203.215000	11780.415000	21519.135000	4.368467	4.094041	19.584838	-7.343834	-9.017705	-9.781023	-1.313894	14.452882	-3.006220	4.257540	0.396760	0.623106	0.471495	0.587950	-1.000000	-1.000000	-1.000000	-1.000000	-1.000000	-1.000000	-1.000000	79.310345	0.000000	-1.000000	-1.000000	1102865.000000	1773866449.000736
-6814.395000	-7998.930000	4208.535000	27913.230000	-15482.295000	-23201.955000	11781.315000	21519.945000	1.141234	-3.747002	0.959081	-13.363332	-12.918955	-12.551016	-1.312438	15.980565	-3.006220	4.257540	0.396760	0.623106	0.471495	0.587950	-1.000000	-1.000000	-1.000000	-1.000000	-1.000000	-1.000000	-1.000000	79.310345	0.000000	-1.000000	-1.000000	1102866.000000	1773866449.000746
-6814.395000	-7991.820000	4212.630000	27913.635000	-15482.655000	-23202.675000	11773.710000	21518.820000	-6.505820	-13.785325	-17.736988	-19.229839	-17.385775	-16.651130	-1.505193	11.957752	-3.006220	4.257540	0.396760	0.623106	0.471495	0.587950	-1.000000	-1.000000	-1.000000	-1.000000	-1.000000	-1.000000	-1.000000	79.310345	0.000000	-1.000000	-1.000000	1102867.000000	1773866449.004701
-6828.165000	-8003.745000	4198.545000	27877.860000	-15516.540000	-23221.485000	11785.095000	21517.965000	-11.579217	-17.645038	-25.135055	-19.202412	-17.271334	-16.258123	-2.762822	3.483305	-3.006220	4.257540	0.396760	0.623106	0.471495	0.587950	-1.000000	-1.000000	-1.000000	-1.000000	-1.000000	-1.000000	-1.000000	79.310345	0.000000	-1.000000	-1.000000	1102868.000000	1773866449.004711
-6822.765000	-8012.115000	4192.155000	27862.110000	-15529.545000	-23233.590000	11791.575000	21522.825000	-9.659718	-12.516720	-20.677296	-11.246715	-10.036077	-7.865281	-4.075845	-5.517376	-3.006220	4.257540	0.396760	0.623106	0.471495	0.587950	-1.000000	-1.000000	-1.000000	-1.000000	-1.000000	-1.000000	-1.000000	79.310345	0.000000	-1.000000	-1.000000	1102869.000000	1773866449.011466
-6816.060000	-8023.050000	4180.455000	27853.020000	-15538.680000	-23233.230000	11797.695000	21554.820000	-1.961610	-2.228701	-10.259432	1.250185	1.664756	5.392745	-3.408140	-10.594330	-3.006220	4.257540	0.396760	0.623106	0.471495	0.587950	-1.000000	-1.000000	-1.000000	-1.000000	-1.000000	-1.000000	-1.000000	79.310345	0.000000	-1.000000	-1.000000	1102870.000000	1773866449.011476
-6812.235000	-8014.770000	4186.755000	27861.795000	-15529.275000	-23245.245000	11806.380000	21558.195000	6.675815	7.347617	0.440684	12.560940	12.468629	16.343587	0.103280	-9.650672	-2.792580	3.387720	0.320460	0.623228	0.469298	0.584288	-1.000000	-1.000000	-1.000000	-1.000000	-1.000000	-1.000000	-1.000000	79.310345	0.000000	-1.000000	-1.000000	1102871.000000	1773866449.015456
-6801.705000	-7997.895000	4206.600000	27898.065000	-15497.055000	-23216.085000	11785.770000	21537.675000	11.465289	12.377459	7.782868	18.202604	17.989082	19.367185	4.719193	-4.570600	-2.792580	3.387720	0.320460	0.623228	0.469298	0.584288	-1.000000	-1.000000	-1.000000	-1.000000	-1.000000	-1.000000	-1.000000	79.310345	0.000000	-1.000000	-1.000000	1102872.000000	1773866449.015465
-6800.805000	-7981.920000	4224.735000	27923.805000	-15482.610000	-23206.320000	11780.145000	21521.745000	10.728867	12.419539	10.644600	17.169237	16.965337	14.285008	7.007352	0.511028	-2.792580	3.387720	0.320460	0.623228	0.469298	0.584288	-1.000000	-1.000000	-1.000000	-1.000000	-1.000000	-1.000000	-1.000000	79.310345	0.000000	-1.000000	-1.000000	1102873.000000	1773866449.016710
-6813.540000	-7976.295000	4230.810000	27932.310000	-15467.580000	-23184.405000	11767.770000	21484.620000	5.921891	9.470237	10.508680	11.619378	11.007536	5.426557	4.853110	2.221537	-2.792580	3.387720	0.320460	0.623228	0.469298	0.584288	-1.000000	-1.000000	-1.000000	-1.000000	-1.000000	-1.000000	-1.000000	79.310345	0.000000	-1.000000	-1.000000	1102874.000000	1773866449.016716
-6812.415000	-7979.625000	4221.945000	27925.695000	-15469.470000	-23184.000000	11774.025000	21468.105000	-0.509459	5.533753	9.390147	4.498934	3.258881	-2.217452	-0.530885	-0.621098	-2.792580	3.387720	0.320460	0.623228	0.469298	0.584288	-1.000000	-1.000000	-1.000000	-1.000000	-1.000000	-1.000000	-1.000000	79.310345	0.000000	-1.000000	-1.000000	1102875.000000	1773866449.020662
-6803.955000	-7974.855000	4229.235000	27916.875000	-15479.955000	-23195.880000	11792.610000	21509.595000	-5.749980	1.284492	7.417050	-2.102045	-3.290201	-6.081558	-5.351644	-5.280484	-2.792580	3.387720	0.320460	0.623228	0.469298	0.584288	-1.000000	-1.000000	-1.000000	-1.000000	-1.000000	-1.000000	-1.000000	79.586207	0.000000	-1.000000	-1.000000	1102876.000000	1773866449.020672
-6794.865000	-7993.710000	4212.405000	27885.195000	-15507.540000	-23218.785000	11786.850000	21551.580000	-6.987755	-2.897920	3.634983	-6.737124	-6.989552	-6.464628	-6.437244	-5.587428	-2.792580	3.387720	0.320460	0.623228	0.469298	0.584288	-1.000000	-1.000000	-1.000000	-1.000000	-1.000000	-1.000000	-1.000000	79.586207	0.000000	-1.000000	-1.000000	1102877.000000	1773866449.026680
-6797.745000	-8002.350000	4198.455000	27871.200000	-15518.700000	-23234.355000	11782.980000	21567.195000	-3.931274	-6.308737	-1.873299	-8.780503	-7.840713	-5.224005	-4.055125	1.494570	-2.792580	3.387720	0.320460	0.623228	0.469298	0.584288	-1.000000	-1.000000	-1.000000	-1.000000	-1.000000	-1.000000	-1.000000	79.586207	0.000000	-1.000000	-1.000000	1102878.000000	1773866449.026689
-6793.245000	-7993.845000	4205.205000	27877.455000	-15509.565000	-23222.610000	11792.835000	21562.065000	0.337984	-8.058472	-7.333150	-8.583251	-6.825939	-4.010552	-0.555317	10.925828	-2.792580	3.387720	0.320460	0.623228	0.469298	0.584288	-1.000000	-1.000000	-1.000000	-1.000000	-1.000000	-1.000000	-1.000000	79.586207	0.000000	-1.000000	-1.000000	1102879.000000	1773866449.028690
-6814.845000	-7998.525000	4205.610000	27888.210000	-15494.175000	-23209.605000	11781.855000	21520.755000	2.103252	-7.581391	-10.420302	-6.845241	-4.861808	-2.890243	2.345285	14.179054	-2.792580	3.387720	0.320460	0.623228	0.469298	0.584288	-1.000000	-1.000000	-1.000000	-1.000000	-1.000000	-1.000000	-1.000000	79.586207	0.000000	-1.000000	-1.000000	1102880.000000	1773866449.028700
-6807.420000	-7975.125000	4241.340000	27920.295000	-15482.790000	-23202.000000	11781.495000	21514.725000	-0.027867	-5.421262	-9.989675	-4.499005	-2.929876	-1.530043	4.012966	7.929542	-2.411080	3.662400	-1.159760	0.619932	0.470031	0.581969	-1.000000	-1.000000	-1.000000	-1.000000	-1.000000	-1.000000	-1.000000	79.586207	0.000000	-1.000000	-1.000000	1102881.000000	1773866449.032662
-6790.680000	-7939.845000	4303.710000	27944.505000	-15473.385000	-23200.740000	11786.985000	21506.940000	-3.597258	-1.966001	-5.373809	-1.918670	-1.855484	-0.646934	4.537985	-2.961698	-2.411080	3.662400	-1.159760	0.619932	0.470031	0.581969	-1.000000	-1.000000	-1.000000	-1.000000	-1.000000	-1.000000	-1.000000	79.586207	0.000000	-1.000000	-1.000000	1102882.000000	1773866449.032671
-6798.420000	-7951.500000	4309.830000	27936.450000	-15470.595000	-23176.440000	11785.230000	21508.695000	-4.475782	2.773774	3.506773	1.208571	-1.323404	-0.546595	4.210144	-10.470714	-2.411080	3.662400	-1.159760	0.619932	0.470031	0.581969	-1.000000	-1.000000	-1.000000	-1.000000	-1.000000	-1.000000	-1.000000	79.586207	0.000000	-1.000000	-1.000000	1102883.000000	1773866449.042300
-6813.720000	-7978.455000	4232.295000	27893.970000	-15503.085000	-23186.520000	11801.385000	21529.170000	-1.838598	6.514870	11.852440	3.772413	-0.672528	-0.116310	2.972387	-10.269428	-2.411080	3.662400	-1.159760	0.619932	0.470031	0.581969	-1.000000	-1.000000	-1.000000	-1.000000	-1.000000	-1.000000	-1.000000	79.586207	0.000000	-1.000000	-1.000000	1102884.000000	1773866449.042310
-6819.480000	-8013.600000	4135.905000	27863.370000	-15520.140000	-23212.080000	11812.860000	21551.580000	1.361997	5.621982	10.392633	3.582581	0.093269	1.344862	0.888877	-4.246179	-2.411080	3.662400	-1.159760	0.619932	0.470031	0.581969	-1.000000	-1.000000	-1.000000	-1.000000	-1.000000	-1.000000	-1.000000	79.586207	0.000000	-1.000000	-1.000000	1102885.000000	1773866449.042322
-6802.605000	-8009.730000	4154.445000	27872.505000	-15521.535000	-23245.515000	11803.275000	21557.430000	2.793223	0.076233	-3.445010	1.197810	1.353783	2.709104	-1.437240	2.063906	-2.411080	3.662400	-1.159760	0.619932	0.470031	0.581969	-1.000000	-1.000000	-1.000000	-1.000000	-1.000000	-1.000000	-1.000000	79.586207	0.000000	-1.000000	-1.000000	1102886.000000	1773866449.042327
-6788.565000	-7986.690000	4208.310000	27898.020000	-15492.150000	-23202.765000	11817.945000	21564.765000	3.029300	-5.132068	-18.073571	0.381451	4.112493	2.953280	-3.243030	4.322751	-2.411080	3.662400	-1.159760	0.619932	0.470031	0.581969	-1.000000	-1.000000	-1.000000	-1.000000	-1.000000	-1.000000	-1.000000	79.586207	0.000000	-1.000000	-1.000000	1102887.000000	1773866449.044768
-6777.360000	-7960.320000	4246.740000	27938.610000	-15444.720000	-23141.475000	11830.005000	21559.410000	3.645608	-4.806434	-18.643050	3.595099	8.423610	3.710190	-3.706226	2.524817	-2.411080	3.662400	-1.159760	0.619932	0.470031	0.581969	-1.000000	-1.000000	-1.000000	-1.000000	-1.000000	-1.000000	-1.000000	79.586207	0.000000	-1.000000	-1.000000	1102888.000000	1773866449.044778
-6794.415000	-7980.930000	4226.445000	27936.045000	-15457.590000	-23169.915000	11782.755000	21529.845000	4.602187	0.783564	-3.640856	8.441403	11.827791	6.108354	-2.872670	-0.273193	-2.411080	3.662400	-1.159760	0.619932	0.470031	0.581969	-1.000000	-1.000000	-1.000000	-1.000000	-1.000000	-1.000000	-1.000000	79.586207	0.000000	-1.000000	-1.000000	1102889.000000	1773866449.049407
-6800.985000	-8020.080000	4179.555000	27893.295000	-15495.390000	-23196.645000	11757.960000	21513.780000	3.876302	5.223391	13.190197	8.520336	9.532389	6.318788	-2.794332	-1.920418	-2.411080	3.662400	-1.159760	0.619932	0.470031	0.581969	-1.000000	-1.000000	-1.000000	-1.000000	-1.000000	-1.000000	-1.000000	79.586207	0.000000	-1.000000	-1.000000	1102890.000000	1773866449.049418
-6779.970000	-7971.165000	4228.020000	27918.090000	-15490.485000	-23196.645000	11768.985000	21491.055000	0.386816	3.203735	17.641412	0.135522	-0.671205	0.239979	-4.681153	-2.553109	-2.990960	3.509800	-2.395820	0.616392	0.471556	0.580260	-1.000000	-1.000000	-1.000000	-1.000000	-1.000000	-1.000000	-1.000000	79.586207	0.000000	-1.000000	-1.000000	1102891.000000	1773866449.055697
-6792.525000	-7953.210000	4241.610000	27917.235000	-15490.440000	-23197.590000	11775.510000	21517.695000	-3.682556	-1.830526	10.086809	-11.195508	-13.421339	-9.713520	-6.069196	-2.504237	-2.990960	3.509800	-2.395820	0.616392	0.471556	0.580260	-1.000000	-1.000000	-1.000000	-1.000000	-1.000000	-1.000000	-1.000000	79.586207	0.000000	-1.000000	-1.000000	1102892.000000	1773866449.055710
-6823.305000	-7985.835000	4198.185000	27872.235000	-15510.420000	-23216.805000	11779.065000	21556.980000	-5.839982	-2.838638	1.886337	-16.034794	-19.637231	-16.546690	-4.201775	-1.023679	-2.990960	3.509800	-2.395820	0.616392	0.471556	0.580260	-1.000000	-1.000000	-1.000000	-1.000000	-1.000000	-1.000000	-1.000000	79.586207	0.000000	-1.000000	-1.000000	1102893.000000	1773866449.059240
-6828.570000	-8009.100000	4156.785000	27844.830000	-15538.590000	-23250.060000	11784.105000	21540.240000	-6.258440	0.834909	0.031463	-11.586785	-15.334203	-15.210212	0.508074	1.754025	-2.990960	3.509800	-2.395820	0.616392	0.471556	0.580260	-1.000000	-1.000000	-1.000000	-1.000000	-1.000000	-1.000000	-1.000000	79.586207	0.000000	-1.000000	-1.000000	1102894.000000	1773866449.059253
-6822.675000	-8048.655000	4136.580000	27851.535000	-15536.520000	-23233.680000	11806.470000	21560.625000	-5.900125	3.768437	1.179750	-2.523802	-4.427575	-6.186062	6.087180	3.616976	-2.990960	3.509800	-2.395820	0.616392	0.471556	0.580260	-1.000000	-1.000000	-1.000000	-1.000000	-1.000000	-1.000000	-1.000000	79.586207	0.000000	-1.000000	-1.000000	1102895.000000	1773866449.060987
-6826.095000	-8028.990000	4203.540000	27877.185000	-15513.840000	-23222.475000	11810.160000	21553.245000	-4.661072	1.505595	-0.537233	5.392036	6.018571	5.233772	10.488996	3.136723	-2.990960	3.509800	-2.395820	0.616392	0.471556	0.580260	-1.000000	-1.000000	-1.000000	-1.000000	-1.000000	-1.000000	-1.000000	79.586207	0.000000	-1.000000	-1.000000	1102896.000000	1773866449.061014
-6801.480000	-7982.055000	4249.080000	27929.610000	-15471.000000	-23202.540000	11787.435000	21532.230000	-1.757089	-3.814426	-4.146966	9.715502	11.633869	12.647248	11.403301	1.262401	-2.990960	3.509800	-2.395820	0.616392	0.471556	0.580260	-1.000000	-1.000000	-1.000000	-1.000000	-1.000000	-1.000000	-1.000000	79.586207	0.000000	-1.000000	-1.000000	1102897.000000	1773866449.067398
-6788.205000	-7970.040000	4247.100000	27941.175000	-15468.660000	-23194.530000	11773.035000	21510.450000	3.557080	-5.201486	-4.157212	11.445856	12.788853	13.810376	7.977715	-0.493121	-2.990960	3.509800	-2.395820	0.616392	0.471556	0.580260	-1.000000	-1.000000	-1.000000	-1.000000	-1.000000	-1.000000	-1.000000	79.586207	0.000000	-1.000000	-1.000000	1102898.000000	1773866449.067410
-6804.045000	-7994.160000	4214.205000	27910.395000	-15491.970000	-23209.020000	11771.055000	21514.725000	9.720508	-0.059565	-0.165851	11.325562	11.393719	11.082707	2.056555	-1.112217	-2.990960	3.509800	-2.395820	0.616392	0.471556	0.580260	-1.000000	-1.000000	-1.000000	-1.000000	-1.000000	-1.000000	-1.000000	79.586207	0.000000	-1.000000	-1.000000	1102899.000000	1773866449.068731
-6817.500000	-7997.265000	4211.145000	27906.975000	-15492.285000	-23204.340000	11771.685000	21514.365000	12.132770	5.695516	1.775838	7.485448	7.418118	6.554662	-3.771712	-0.146766	-2.990960	3.509800	-2.395820	0.616392	0.471556	0.580260	-1.000000	-1.000000	-1.000000	-1.000000	-1.000000	-1.000000	-1.000000	79.586207	0.000000	-1.000000	-1.000000	1102900.000000	1773866449.068742
-6825.330000	-8009.145000	4193.460000	27877.230000	-15515.100000	-23220.945000	11778.705000	21527.910000	8.159909	5.644266	-1.827428	-0.576624	0.770468	0.913873	-7.812246	1.225341	-3.540320	3.189340	-3.280900	0.615843	0.468505	0.577330	-1.000000	-1.000000	-1.000000	-1.000000	-1.000000	-1.000000	-1.000000	79.586207	0.000000	-1.000000	-1.000000	1102901.000000	1773866449.074536
-6811.155000	-8013.870000	4170.330000	27850.680000	-15533.910000	-23238.450000	11779.020000	21546.630000	0.977961	0.820125	-6.596860	-8.834374	-6.162979	-4.292552	-9.124476	0.940280	-3.540320	3.189340	-3.280900	0.615843	0.468505	0.577330	-1.000000	-1.000000	-1.000000	-1.000000	-1.000000	-1.000000	-1.000000	79.586207	0.000000	-1.000000	-1.000000	1102902.000000	1773866449.074556
-6807.465000	-8002.845000	4177.710000	27861.930000	-15525.270000	-23223.375000	11782.260000	21532.095000	-4.164788	-2.805052	-6.248683	-12.254034	-9.851045	-6.624457	-7.589206	-1.155200	-3.540320	3.189340	-3.280900	0.615843	0.468505	0.577330	-1.000000	-1.000000	-1.000000	-1.000000	-1.000000	-1.000000	-1.000000	79.586207	0.000000	-1.000000	-1.000000	1102903.000000	1773866449.076746
-6832.395000	-8003.070000	4195.620000	27881.235000	-15504.840000	-23219.055000	11791.620000	21514.680000	-5.716339	-1.593068	-0.228902	-9.262373	-8.458183	-5.264987	-4.206970	-3.867028	-3.540320	3.189340	-3.280900	0.615843	0.468505	0.577330	-1.000000	-1.000000	-1.000000	-1.000000	-1.000000	-1.000000	-1.000000	79.586207	0.000000	-1.000000	-1.000000	1102904.000000	1773866449.076765
-6828.390000	-8010.045000	4206.330000	27888.660000	-15502.095000	-23219.775000	11789.955000	21545.235000	-5.852512	1.905155	5.754931	-2.916044	-3.917128	-2.806720	-0.352474	-5.507843	-3.540320	3.189340	-3.280900	0.615843	0.468505	0.577330	-1.000000	-1.000000	-1.000000	-1.000000	-1.000000	-1.000000	-1.000000	79.586207	0.000000	-1.000000	-1.000000	1102905.000000	1773866449.081232
-6805.935000	-7992.810000	4220.100000	27901.710000	-15500.340000	-23206.635000	11783.430000	21553.695000	-5.911472	2.366539	6.121583	1.683884	-0.505048	-2.235673	3.399200	-3.010815	-3.540320	3.189340	-3.280900	0.615843	0.468505	0.577330	-1.000000	-1.000000	-1.000000	-1.000000	-1.000000	-1.000000	-1.000000	79.586207	0.000000	-1.000000	-1.000000	1102906.000000	1773866449.081240
-6809.715000	-7996.770000	4210.560000	27896.175000	-15502.320000	-23201.415000	11779.830000	21533.220000	-4.795737	-1.245642	1.628506	2.427075	-0.001758	-2.931849	6.733479	4.181622	-3.540320	3.189340	-3.280900	0.615843	0.468505	0.577330	-1.000000	-1.000000	-1.000000	-1.000000	-1.000000	-1.000000	-1.000000	79.586207	0.000000	-1.000000	-1.000000	1102907.000000	1773866449.084849
-6814.440000	-8003.115000	4201.245000	27892.035000	-15501.285000	-23183.460000	11782.800000	21524.895000	-1.727141	-5.247986	-2.881767	1.446653	-0.248571	-2.090418	8.354404	10.881143	-3.540320	3.189340	-3.280900	0.615843	0.468505	0.577330	-1.000000	-1.000000	-1.000000	-1.000000	-1.000000	-1.000000	-1.000000	79.586207	0.000000	-1.000000	-1.000000	1102908.000000	1773866449.084858
-6791.400000	-7985.385000	4214.610000	27897.705000	-15496.065000	-23210.280000	11790.855000	21540.015000	2.650474	-6.196048	-4.147241	1.524278	1.154489	0.954027	6.910068	11.318667	-3.540320	3.189340	-3.280900	0.615843	0.468505	0.577330	-1.000000	-1.000000	-1.000000	-1.000000	-1.000000	-1.000000	-1.000000	79.586207	0.000000	-1.000000	-1.000000	1102909.000000	1773866449.088827
-6786.945000	-7984.170000	4211.055000	27874.800000	-15519.465000	-23246.685000	11791.395000	21542.400000	7.275003	-2.892301	-1.237813	3.689070	4.208951	3.546464	2.663537	4.705373	-3.540320	3.189340	-3.280900	0.615843	0.468505	0.577330	-1.000000	-1.000000	-1.000000	-1.000000	-1.000000	-1.000000	-1.000000	79.586207	0.000000	-1.000000	-1.000000	1102910.000000	1773866449.088835
-6804.630000	-7997.130000	4210.335000	27879.390000	-15504.165000	-23213.430000	11787.660000	21531.285000	9.812028	3.093726	4.782713	6.848925	7.135037	3.623716	-2.632855	-5.272522	-1.724380	5.066320	-2.884140	0.615416	0.465880	0.576476	-1.000000	-1.000000	-1.000000	-1.000000	-1.000000	-1.000000	-1.000000	79.586207	0.000000	-1.000000	-1.000000	1102911.000000	1773866449.094190
-6799.230000	-7980.165000	4223.745000	27888.570000	-15502.545000	-23215.545000	11790.225000	21527.775000	7.516715	7.868319	10.065141	8.252031	7.874975	2.373334	-6.947603	-13.214184	-1.724380	5.066320	-2.884140	0.615416	0.465880	0.576476	-1.000000	-1.000000	-1.000000	-1.000000	-1.000000	-1.000000	-1.000000	79.586207	0.000000	-1.000000	-1.000000	1102912.000000	1773866449.094204
-6795.045000	-7977.195000	4222.485000	27892.305000	-15502.545000	-23216.355000	11786.355000	21524.760000	1.264631	8.575439	9.850188	5.460930	4.873526	1.044295	-8.887184	-14.902752	-1.724380	5.066320	-2.884140	0.615416	0.465880	0.576476	-1.000000	-1.000000	-1.000000	-1.000000	-1.000000	-1.000000	-1.000000	79.586207	0.000000	-1.000000	-1.000000	1102913.000000	1773866449.096794
-6801.885000	-7988.670000	4210.245000	27901.575000	-15499.305000	-23211.180000	11770.425000	21515.895000	-5.172885	4.822135	2.192870	-1.449065	-1.718203	-0.738292	-7.937054	-10.096217	-1.724380	5.066320	-2.884140	0.615416	0.465880	0.576476	-1.000000	-1.000000	-1.000000	-1.000000	-1.000000	-1.000000	-1.000000	79.586207	0.000000	-1.000000	-1.000000	1102914.000000	1773866449.096802
-6796.935000	-7985.520000	4213.035000	27911.115000	-15489.000000	-23202.270000	11768.085000	21525.120000	-9.352480	-2.089401	-9.490361	-9.122296	-8.626851	-2.705554	-4.393343	-1.887063	-1.724380	5.066320	-2.884140	0.615416	0.465880	0.576476	-1.000000	-1.000000	-1.000000	-1.000000	-1.000000	-1.000000	-1.000000	79.586207	0.000000	-1.000000	-1.000000	1102915.000000	1773866449.104054
-6800.355000	-7981.290000	4218.435000	27919.620000	-15479.775000	-23207.805000	11757.780000	21520.530000	-10.271001	-8.660775	-17.613465	-12.633457	-11.179356	-3.712311	0.450490	6.529929	-1.724380	5.066320	-2.884140	0.615416	0.465880	0.576476	-1.000000	-1.000000	-1.000000	-1.000000	-1.000000	-1.000000	-1.000000	79.586207	0.000000	-1.000000	-1.000000	1102916.000000	1773866449.104065
-6799.770000	-7981.605000	4222.260000	27922.455000	-15475.995000	-23193.945000	11774.520000	21528.270000	-7.492092	-10.864666	-16.353909	-9.423622	-7.508715	-3.113374	4.635906	12.562783	-1.724380	5.066320	-2.884140	0.615416	0.465880	0.576476	-1.000000	-1.000000	-1.000000	-1.000000	-1.000000	-1.000000	-1.000000	79.586207	0.000000	-1.000000	-1.000000	1102917.000000	1773866449.104760
-6816.015000	-7999.290000	4204.890000	27886.545000	-15505.065000	-23212.710000	11799.360000	21538.170000	-2.504715	-8.021010	-6.755922	-1.880915	-0.403383	-0.627789	7.102763	13.761539	-1.724380	5.066320	-2.884140	0.615416	0.465880	0.576476	-1.000000	-1.000000	-1.000000	-1.000000	-1.000000	-1.000000	-1.000000	79.586207	0.000000	-1.000000	-1.000000	1102918.000000	1773866449.104770
-6816.780000	-8002.305000	4197.915000	27864.720000	-15531.930000	-23234.535000	11807.910000	21539.970000	1.852283	-2.764180	4.925468	4.697130	5.050922	2.978211	8.151495	9.484011	-1.724380	5.066320	-2.884140	0.615416	0.465880	0.576476	-1.000000	-1.000000	-1.000000	-1.000000	-1.000000	-1.000000	-1.000000	79.586207	0.000000	-1.000000	-1.000000	1102919.000000	1773866449.110217
-6822.045000	-7999.875000	4203.585000	27874.620000	-15522.300000	-23227.650000	11802.060000	21526.110000	4.151644	2.284899	12.646862	6.634038	5.545663	4.885263	7.725734	1.996705	-1.724380	5.066320	-2.884140	0.615416	0.465880	0.576476	-1.000000	-1.000000	-1.000000	-1.000000	-1.000000	-1.000000	-1.000000	79.586207	0.000000	-1.000000	-1.000000	1102920.000000	1773866449.110226
-6811.695000	-7990.200000	4211.235000	27884.880000	-15514.830000	-23225.895000	11791.845000	21517.020000	4.973131	5.772422	13.690300	4.247115	2.015245	3.133587	4.741218	-5.242722	-0.198380	5.691980	-1.541260	0.614317	0.468505	0.577513	-1.000000	-1.000000	-1.000000	-1.000000	-1.000000	-1.000000	-1.000000	79.586207	0.000000	-1.000000	-1.000000	1102921.000000	1773866449.112831
-6792.255000	-7974.990000	4229.190000	27918.045000	-15475.725000	-23196.195000	11787.255000	21518.595000	5.483793	7.265736	9.113986	0.765994	-1.388759	-0.385859	-0.820008	-9.565284	-0.198380	5.691980	-1.541260	0.614317	0.468505	0.577513	-1.000000	-1.000000	-1.000000	-1.000000	-1.000000	-1.000000	-1.000000	79.586207	0.000000	-1.000000	-1.000000	1102922.000000	1773866449.112841
-6775.155000	-7953.570000	4263.570000	27941.985000	-15463.755000	-23178.825000	11802.150000	21534.570000	6.321474	7.362459	3.093657	-0.443474	-1.022661	-2.040301	-6.126393	-9.453443	-0.198380	5.691980	-1.541260	0.614317	0.468505	0.577513	-1.000000	-1.000000	-1.000000	-1.000000	-1.000000	-1.000000	-1.000000	79.586207	0.000000	-1.000000	-1.000000	1102923.000000	1773866449.119561
-6793.065000	-7956.855000	4285.080000	27940.410000	-15463.035000	-23177.160000	11784.105000	21516.525000	6.642728	6.701072	0.059796	1.355136	2.741546	-0.551102	-7.843721	-5.199754	-0.198380	5.691980	-1.541260	0.614317	0.468505	0.577513	-1.000000	-1.000000	-1.000000	-1.000000	-1.000000	-1.000000	-1.000000	79.586207	0.000000	-1.000000	-1.000000	1102924.000000	1773866449.119571
-6811.290000	-7969.410000	4288.185000	27924.525000	-15475.995000	-23194.980000	11774.160000	21523.545000	4.371168	4.557810	0.775774	3.494581	5.793123	1.740364	-6.041738	0.485344	-0.198380	5.691980	-1.541260	0.614317	0.468505	0.577513	-1.000000	-1.000000	-1.000000	-1.000000	-1.000000	-1.000000	-1.000000	79.586207	0.000000	-1.000000	-1.000000	1102925.000000	1773866449.120845
-6830.865000	-8011.530000	4175.415000	27859.230000	-15537.465000	-23228.370000	11784.555000	21534.615000	-1.389355	-0.407097	0.660251	2.133150	3.955725	1.326935	-3.562959	4.419691	-0.198380	5.691980	-1.541260	0.614317	0.468505	0.577513	-1.000000	-1.000000	-1.000000	-1.000000	-1.000000	-1.000000	-1.000000	79.586207	0.000000	-1.000000	-1.000000	1102926.000000	1773866449.120851
-6810.300000	-8026.605000	4103.955000	27836.145000	-15549.525000	-23243.265000	11782.350000	21547.035000	-8.050587	-7.679758	-6.430905	-3.675166	-3.003357	-2.439825	-2.377803	5.290525	-0.198380	5.691980	-1.541260	0.614317	0.468505	0.577513	-1.000000	-1.000000	-1.000000	-1.000000	-1.000000	-1.000000	-1.000000	79.586207	0.000000	-1.000000	-1.000000	1102927.000000	1773866449.126286
-6818.130000	-8017.560000	4151.475000	27844.830000	-15538.545000	-23240.925000	11778.480000	21533.760000	-10.945755	-13.499022	-18.765114	-9.812524	-9.967474	-6.341824	-2.237045	3.720445	-0.198380	5.691980	-1.541260	0.614317	0.468505	0.577513	-1.000000	-1.000000	-1.000000	-1.000000	-1.000000	-1.000000	-1.000000	79.586207	0.000000	-1.000000	-1.000000	1102928.000000	1773866449.126296
-6817.455000	-8001.855000	4186.575000	27865.665000	-15526.215000	-23245.200000	11780.820000	21532.365000	-8.060686	-13.323167	-24.692288	-10.708750	-11.003605	-7.032559	-1.636399	1.172027	-0.198380	5.691980	-1.541260	0.614317	0.468505	0.577513	-1.000000	-1.000000	-1.000000	-1.000000	-1.000000	-1.000000	-1.000000	79.586207	0.000000	-1.000000	-1.000000	1102929.000000	1773866449.128898
-6792.615000	-7978.140000	4216.275000	27894.555000	-15503.760000	-23220.810000	11801.115000	21546.360000	-1.618063	-6.073580	-15.307282	-4.715427	-5.139911	-3.941878	0.957807	-0.717123	-0.198380	5.691980	-1.541260	0.614317	0.468505	0.577513	-1.000000	-1.000000	-1.000000	-1.000000	-1.000000	-1.000000	-1.000000	79.586207	0.000000	-1.000000	-1.000000	1102930.000000	1773866449.128908
-6779.160000	-7955.865000	4252.140000	27924.210000	-15483.015000	-23193.495000	11798.280000	21523.050000	4.784522	4.828953	5.621821	4.897335	3.661072	1.480013	5.575619	-1.277079	-0.991900	6.531280	-2.029580	0.614745	0.471312	0.576537	-1.000000	-1.000000	-1.000000	-1.000000	-1.000000	-1.000000	-1.000000	79.586207	0.000000	-1.000000	-1.000000	1102931.000000	1773866449.135933
-6780.600000	-7933.275000	4287.330000	27947.070000	-15453.180000	-23160.015000	11787.615000	21474.585000	8.317185	14.012183	26.007330	12.914269	10.669162	7.234677	9.543582	-2.274276	-0.991900	6.531280	-2.029580	0.614745	0.471312	0.576537	-1.000000	-1.000000	-1.000000	-1.000000	-1.000000	-1.000000	-1.000000	79.586207	0.000000	-1.000000	-1.000000	1102932.000000	1773866449.135944
-6782.355000	-7949.790000	4283.460000	27948.420000	-15444.990000	-23160.105000	11787.120000	21487.635000	7.953930	17.195088	34.737619	15.702852	13.522865	11.416306	9.682404	-5.213836	-0.991900	6.531280	-2.029580	0.614745	0.471312	0.576537	-1.000000	-1.000000	-1.000000	-1.000000	-1.000000	-1.000000	-1.000000	79.586207	0.000000	-1.000000	-1.000000	1102933.000000	1773866449.136760
-6784.965000	-7973.955000	4224.285000	27914.760000	-15487.830000	-23195.295000	11789.595000	21566.025000	4.946413	12.844035	27.395925	12.429046	11.678747	11.873106	5.635331	-6.737649	-0.991900	6.531280	-2.029580	0.614745	0.471312	0.576537	-1.000000	-1.000000	-1.000000	-1.000000	-1.000000	-1.000000	-1.000000	79.586207	0.000000	-1.000000	-1.000000	1102934.000000	1773866449.136772
-6775.740000	-7988.310000	4168.935000	27866.880000	-15537.465000	-23240.340000	11794.635000	21622.590000	1.428070	3.109483	8.342875	4.534202	5.207058	6.813980	-0.559131	-1.405997	-0.991900	6.531280	-2.029580	0.614745	0.471312	0.576537	-1.000000	-1.000000	-1.000000	-1.000000	-1.000000	-1.000000	-1.000000	79.586207	0.000000	-1.000000	-1.000000	1102935.000000	1773866449.140872
-6793.245000	-7983.810000	4197.600000	27878.355000	-15515.955000	-23233.770000	11786.715000	21565.260000	-1.610318	-6.897382	-11.614393	-4.757718	-3.895145	-2.553843	-6.340940	9.345076	-0.991900	6.531280	-2.029580	0.614745	0.471312	0.576537	-1.000000	-1.000000	-1.000000	-1.000000	-1.000000	-1.000000	-1.000000	79.586207	0.000000	-1.000000	-1.000000	1102936.000000	1773866449.140889
-6812.415000	-7995.330000	4198.770000	27869.445000	-15527.835000	-23236.740000	11801.925000	21532.635000	-4.625555	-12.835499	-23.099820	-11.822730	-11.506488	-11.408644	-9.289977	15.757932	-0.991900	6.531280	-2.029580	0.614745	0.471312	0.576537	-1.000000	-1.000000	-1.000000	-1.000000	-1.000000	-1.000000	-1.000000	79.586207	0.000000	-1.000000	-1.000000	1102937.000000	1773866449.144792
-6814.530000	-7996.365000	4201.380000	27880.065000	-15509.025000	-23218.560000	11788.830000	21513.105000	-7.814977	-13.949706	-24.350069	-14.797465	-14.426968	-14.799507	-8.261727	10.347920	-0.991900	6.531280	-2.029580	0.614745	0.471312	0.576537	-1.000000	-1.000000	-1.000000	-1.000000	-1.000000	-1.000000	-1.000000	79.586207	0.000000	-1.000000	-1.000000	1102938.000000	1773866449.144802
-6800.310000	-7995.555000	4198.680000	27894.060000	-15503.580000	-23213.520000	11767.275000	21515.445000	-9.944562	-11.812275	-19.107247	-13.810734	-12.277542	-11.525645	-4.923558	-3.841281	-0.991900	6.531280	-2.029580	0.614745	0.471312	0.576537	-1.000000	-1.000000	-1.000000	-1.000000	-1.000000	-1.000000	-1.000000	79.586207	0.000000	-1.000000	-1.000000	1102939.000000	1773866449.152968
-6799.185000	-7991.640000	4210.380000	27907.830000	-15486.075000	-23197.275000	11772.450000	21527.595000	-9.163438	-7.991758	-11.592929	-9.725247	-6.770552	-4.645095	-2.027720	-16.190145	-0.991900	6.531280	-2.029580	0.614745	0.471312	0.576537	-1.000000	-1.000000	-1.000000	-1.000000	-1.000000	-1.000000	-1.000000	79.586207	0.000000	-1.000000	-1.000000	1102940.000000	1773866449.152978
-6796.710000	-7978.905000	4225.005000	27912.870000	-15484.005000	-23195.205000	11776.860000	21534.795000	-4.595981	-3.070324	-4.075294	-3.620062	-0.411206	1.675073	0.137834	-17.261292	-2.060100	5.661460	-4.730600	0.616515	0.471801	0.576415	-1.000000	-1.000000	-1.000000	-1.000000	-1.000000	-1.000000	-1.000000	79.586207	0.000000	-1.000000	-1.000000	1102941.000000	1773866449.153182
-6781.365000	-7967.115000	4236.120000	27913.365000	-15483.195000	-23192.550000	11778.345000	21555.360000	2.860856	3.444090	3.704087	3.413999	4.961960	5.602441	2.861657	-6.849861	-2.060100	5.661460	-4.730600	0.616515	0.471801	0.576415	-1.000000	-1.000000	-1.000000	-1.000000	-1.000000	-1.000000	-1.000000	79.586207	0.000000	-1.000000	-1.000000	1102942.000000	1773866449.153201
-6772.140000	-7964.415000	4228.155000	27888.930000	-15503.130000	-23205.465000	11801.430000	21570.300000	10.718749	11.552695	13.307204	10.442049	9.248239	8.106151	5.988304	5.708634	-2.060100	5.661460	-4.730600	0.616515	0.471801	0.576415	-1.000000	-1.000000	-1.000000	-1.000000	-1.000000	-1.000000	-1.000000	79.586207	0.000000	-1.000000	-1.000000	1102943.000000	1773866449.156739
-6770.790000	-7953.885000	4238.730000	27879.480000	-15511.635000	-23212.350000	11803.185000	21553.920000	15.488680	18.668168	23.852626	15.843674	12.568691	10.277442	8.130020	10.721870	-2.060100	5.661460	-4.730600	0.616515	0.471801	0.576415	-1.000000	-1.000000	-1.000000	-1.000000	-1.000000	-1.000000	-1.000000	79.586207	0.000000	-1.000000	-1.000000	1102944.000000	1773866449.156748
-6782.940000	-7936.245000	4275.720000	27892.755000	-15496.695000	-23199.840000	11795.985000	21538.575000	14.509340	20.679369	29.725215	16.910783	13.122699	10.967933	7.887837	7.064299	-2.060100	5.661460	-4.730600	0.616515	0.471801	0.576415	-1.000000	-1.000000	-1.000000	-1.000000	-1.000000	-1.000000	-1.000000	79.586207	0.000000	-1.000000	-1.000000	1102945.000000	1773866449.164867
-6799.455000	-7994.970000	4220.505000	27872.685000	-15515.145000	-23217.480000	11784.330000	21540.960000	7.845596	14.633175	24.160919	11.734198	8.834931	7.988141	4.311056	1.056437	-2.060100	5.661460	-4.730600	0.616515	0.471801	0.576415	-1.000000	-1.000000	-1.000000	-1.000000	-1.000000	-1.000000	-1.000000	79.586207	0.000000	-1.000000	-1.000000	1102946.000000	1773866449.164876
-6781.545000	-8005.725000	4180.095000	27885.105000	-15510.915000	-23218.920000	11777.895000	21552.750000	-1.819834	0.449836	5.150476	1.230935	0.001316	0.604202	-1.757734	-1.421213	-2.060100	5.661460	-4.730600	0.616515	0.471801	0.576415	-1.000000	-1.000000	-1.000000	-1.000000	-1.000000	-1.000000	-1.000000	79.586207	0.000000	-1.000000	-1.000000	1102947.000000	1773866449.165997
-6759.225000	-7978.140000	4177.620000	27918.810000	-15480.000000	-23190.120000	11775.915000	21559.230000	-10.147190	-16.443739	-20.766305	-10.178033	-9.805682	-8.698004	-7.175535	0.487141	-2.060100	5.661460	-4.730600	0.616515	0.471801	0.576415	-1.000000	-1.000000	-1.000000	-1.000000	-1.000000	-1.000000	-1.000000	79.586207	0.000000	-1.000000	-1.000000	1102948.000000	1773866449.166008
-6776.370000	-7997.805000	4157.280000	27896.535000	-15494.220000	-23181.840000	11778.930000	21534.660000	-13.377635	-26.799099	-40.749300	-16.900443	-15.503423	-14.793677	-8.917829	3.538671	-2.060100	5.661460	-4.730600	0.616515	0.471801	0.576415	-1.000000	-1.000000	-1.000000	-1.000000	-1.000000	-1.000000	-1.000000	79.586207	0.000000	-1.000000	-1.000000	1102949.000000	1773866449.168777
-6784.605000	-7995.780000	4149.720000	27890.100000	-15505.920000	-23212.080000	11788.560000	21528.585000	-11.337422	-25.443515	-44.479522	-16.753385	-14.906567	-14.506772	-6.375372	3.513374	-2.060100	5.661460	-4.730600	0.616515	0.471801	0.576415	-1.000000	-1.000000	-1.000000	-1.000000	-1.000000	-1.000000	-1.000000	79.586207	0.000000	-1.000000	-1.000000	1102950.000000	1773866449.168787
-6785.100000	-8001.720000	4161.645000	27860.715000	-15541.605000	-23263.605000	11806.740000	21548.205000	-6.825417	-14.282522	-29.797988	-11.313772	-9.681286	-9.727722	-1.156514	-1.216305	-1.159760	6.104000	-4.516960	0.613097	0.470336	0.577696	-1.000000	-1.000000	-1.000000	-1.000000	-1.000000	-1.000000	-1.000000	79.586207	0.000000	-1.000000	-1.000000	1102951.000000	1773866449.175784
-6805.215000	-8008.830000	4215.510000	27863.505000	-15514.425000	-23208.930000	11788.920000	21544.560000	-2.626826	0.871379	-1.492492	-2.815871	-1.909398	-3.347556	3.663193	-7.976223	-1.159760	6.104000	-4.516960	0.613097	0.470336	0.577696	-1.000000	-1.000000	-1.000000	-1.000000	-1.000000	-1.000000	-1.000000	79.586207	0.000000	-1.000000	-1.000000	1102952.000000	1773866449.175795
-6794.505000	-7981.740000	4245.840000	27893.880000	-15501.015000	-23215.140000	11789.910000	21548.025000	0.206759	13.618479	29.820804	6.783547	7.136623	4.485036	5.083410	-11.481506	-1.159760	6.104000	-4.516960	0.613097	0.470336	0.577696	-1.000000	-1.000000	-1.000000	-1.000000	-1.000000	-1.000000	-1.000000	79.586207	0.000000	-1.000000	-1.000000	1102953.000000	1773866449.176980
-6796.125000	-7988.715000	4219.695000	27866.655000	-15535.890000	-23234.130000	11799.720000	21547.080000	2.804701	20.035969	49.414785	14.421848	14.284632	12.133563	3.077485	-7.894254	-1.159760	6.104000	-4.516960	0.613097	0.470336	0.577696	-1.000000	-1.000000	-1.000000	-1.000000	-1.000000	-1.000000	-1.000000	79.586207	0.000000	-1.000000	-1.000000	1102954.000000	1773866449.176990
-6791.895000	-7987.455000	4216.275000	27878.580000	-15525.135000	-23220.360000	11794.005000	21544.830000	6.275274	19.932709	47.250852	16.226656	15.045577	15.179458	0.490972	1.261590	-1.159760	6.104000	-4.516960	0.613097	0.470336	0.577696	-1.000000	-1.000000	-1.000000	-1.000000	-1.000000	-1.000000	-1.000000	79.586207	0.000000	-1.000000	-1.000000	1102955.000000	1773866449.180956
-6774.345000	-7972.065000	4231.710000	27919.620000	-15475.365000	-23190.075000	11781.360000	21540.150000	9.149693	15.050269	26.365390	11.247178	9.234704	12.156821	-0.609612	9.780904	-1.159760	6.104000	-4.516960	0.613097	0.470336	0.577696	-1.000000	-1.000000	-1.000000	-1.000000	-1.000000	-1.000000	-1.000000	79.586207	0.000000	-1.000000	-1.000000	1102956.000000	1773866449.180962
-6770.565000	-7968.285000	4230.720000	27917.190000	-15485.445000	-23198.895000	11771.280000	21528.810000	9.106130	7.070603	-0.894789	2.753170	1.378841	5.303427	-0.719175	12.249153	-1.159760	6.104000	-4.516960	0.613097	0.470336	0.577696	-1.000000	-1.000000	-1.000000	-1.000000	-1.000000	-1.000000	-1.000000	79.586207	0.000000	-1.000000	-1.000000	1102957.000000	1773866449.185216
-6764.175000	-7964.685000	4228.110000	27913.320000	-15483.555000	-23187.240000	11768.355000	21523.860000	6.090362	-2.003501	-22.582897	-5.000872	-4.646642	-2.525431	-1.221382	8.220521	-1.159760	6.104000	-4.516960	0.613097	0.470336	0.577696	-1.000000	-1.000000	-1.000000	-1.000000	-1.000000	-1.000000	-1.000000	79.586207	0.000000	-1.000000	-1.000000	1102958.000000	1773866449.185226
-6766.380000	-7960.005000	4229.145000	27906.030000	-15486.570000	-23193.585000	11773.260000	21522.735000	1.986216	-9.279683	-32.200788	-9.141073	-7.166910	-7.728996	-2.427388	1.014908	-1.159760	6.104000	-4.516960	0.613097	0.470336	0.577696	-1.000000	-1.000000	-1.000000	-1.000000	-1.000000	-1.000000	-1.000000	79.586207	0.000000	-1.000000	-1.000000	1102959.000000	1773866449.195708
-6798.240000	-7971.030000	4220.460000	27878.310000	-15510.105000	-23217.975000	11793.195000	21519.900000	-2.077622	-12.526817	-29.560295	-8.825168	-5.954806	-7.741037	-3.205836	-5.958378	-1.159760	6.104000	-4.516960	0.613097	0.470336	0.577696	-1.000000	-1.000000	-1.000000	-1.000000	-1.000000	-1.000000	-1.000000	79.586207	0.000000	-1.000000	-1.000000	1102960.000000	1773866449.195718
-6799.680000	-7962.030000	4232.700000	27881.595000	-15511.410000	-23220.765000	11795.085000	21505.590000	-6.081539	-11.712872	-19.721964	-5.795783	-3.312684	-4.847175	-1.872602	-10.304677	-0.701960	6.821220	-3.677660	0.614989	0.471068	0.580687	-1.000000	-1.000000	-1.000000	-1.000000	-1.000000	-1.000000	-1.000000	79.586207	0.000000	-1.000000	-1.000000	1102961.000000	1773866449.195731
-6769.260000	-7928.100000	4269.600000	27921.015000	-15466.410000	-23175.720000	11808.315000	21505.680000	-8.600583	-8.116407	-8.409688	-2.402987	-1.613459	-2.512868	1.850011	-10.238779	-0.701960	6.821220	-3.677660	0.614989	0.471068	0.580687	-1.000000	-1.000000	-1.000000	-1.000000	-1.000000	-1.000000	-1.000000	79.586207	0.000000	-1.000000	-1.000000	1102962.000000	1773866449.195736
-6744.195000	-7938.495000	4251.645000	27910.485000	-15481.890000	-23191.605000	11808.720000	21550.725000	-6.742493	-2.688274	2.214627	1.049549	0.105001	-0.325425	5.883336	-4.929702	-0.701960	6.821220	-3.677660	0.614989	0.471068	0.580687	-1.000000	-1.000000	-1.000000	-1.000000	-1.000000	-1.000000	-1.000000	79.586207	0.000000	-1.000000	-1.000000	1102963.000000	1773866449.196810
-6764.895000	-7967.295000	4229.415000	27915.480000	-15483.330000	-23198.940000	11779.695000	21535.605000	-0.696525	2.560259	10.857251	3.946607	2.144110	1.865082	7.273879	4.224590	-0.701960	6.821220	-3.677660	0.614989	0.471068	0.580687	-1.000000	-1.000000	-1.000000	-1.000000	-1.000000	-1.000000	-1.000000	79.586207	0.000000	-1.000000	-1.000000	1102964.000000	1773866449.196815
-6792.750000	-7969.095000	4234.410000	27925.425000	-15470.640000	-23186.070000	11780.820000	21477.465000	4.049301	3.970564	14.404128	3.745232	1.678823	1.558106	4.540997	11.665865	-0.701960	6.821220	-3.677660	0.614989	0.471068	0.580687	-1.000000	-1.000000	-1.000000	-1.000000	-1.000000	-1.000000	-1.000000	79.586207	0.000000	-1.000000	-1.000000	1102965.000000	1773866449.204169
-6809.310000	-7971.885000	4226.535000	27909.585000	-15486.615000	-23192.640000	11791.755000	21496.725000	2.470357	0.639066	11.675817	-0.054685	-2.040463	-1.582249	-0.577822	11.454855	-0.701960	6.821220	-3.677660	0.614989	0.471068	0.580687	-1.000000	-1.000000	-1.000000	-1.000000	-1.000000	-1.000000	-1.000000	79.586207	0.000000	-1.000000	-1.000000	1102966.000000	1773866449.204181
-6788.115000	-7984.260000	4206.060000	27882.315000	-15515.595000	-23223.600000	11785.410000	21569.040000	-3.618935	-3.937655	5.248161	-4.731383	-6.228885	-4.991115	-4.628596	5.460917	-0.701960	6.821220	-3.677660	0.614989	0.471068	0.580687	-1.000000	-1.000000	-1.000000	-1.000000	-1.000000	-1.000000	-1.000000	79.586207	0.000000	-1.000000	-1.000000	1102967.000000	1773866449.204873
-6768.045000	-7979.040000	4206.060000	27857.340000	-15541.155000	-23239.215000	11799.855000	21615.795000	-7.189199	-5.747366	-1.275032	-7.376429	-8.186514	-6.351645	-5.959655	1.670564	-0.701960	6.821220	-3.677660	0.614989	0.471068	0.580687	-1.000000	-1.000000	-1.000000	-1.000000	-1.000000	-1.000000	-1.000000	79.586207	0.000000	-1.000000	-1.000000	1102968.000000	1773866449.204883
-6758.280000	-7965.270000	4223.025000	27865.755000	-15523.515000	-23223.330000	11813.580000	21600.270000	-3.067684	-2.863663	-4.924141	-6.141941	-6.310716	-4.260235	-4.907002	3.475759	-0.701960	6.821220	-3.677660	0.614989	0.471068	0.580687	-1.000000	-1.000000	-1.000000	-1.000000	-1.000000	-1.000000	-1.000000	79.586207	0.000000	-1.000000	-1.000000	1102969.000000	1773866449.208850
-6791.040000	-8003.835000	4188.735000	27842.400000	-15541.065000	-23243.355000	11804.355000	21575.655000	6.189303	2.867988	-5.185882	-1.500299	-0.826101	0.745284	-2.365623	5.945619	-0.701960	6.821220	-3.677660	0.614989	0.471068	0.580687	-1.000000	-1.000000	-1.000000	-1.000000	-1.000000	-1.000000	-1.000000	79.586207	0.000000	-1.000000	-1.000000	1102970.000000	1773866449.208861
-6815.700000	-8031.510000	4151.295000	27797.985000	-15596.640000	-23269.455000	11815.155000	21557.610000	11.600170	5.902226	-4.966748	2.466394	4.292369	4.896862	0.190805	2.424955	1.449700	7.217980	-3.586100	0.618040	0.473510	0.583128	-1.000000	-1.000000	-1.000000	-1.000000	-1.000000	-1.000000	-1.000000	79.586207	0.000000	-1.000000	-1.000000	1102971.000000	1773866449.214937
-6806.520000	-7994.610000	4193.460000	27857.295000	-15540.165000	-23241.015000	11787.705000	21529.035000	7.323287	3.945436	-5.296000	2.989956	5.467536	5.300732	1.466081	-8.507246	1.449700	7.217980	-3.586100	0.618040	0.473510	0.583128	-1.000000	-1.000000	-1.000000	-1.000000	-1.000000	-1.000000	-1.000000	79.586207	0.000000	-1.000000	-1.000000	1102972.000000	1773866449.214948
-6786.945000	-7960.140000	4235.445000	27914.715000	-15480.270000	-23208.345000	11777.085000	21525.300000	-2.321105	2.077741	-1.954639	3.510050	5.476270	4.150004	1.316829	-20.937280	1.449700	7.217980	-3.586100	0.618040	0.473510	0.583128	-1.000000	-1.000000	-1.000000	-1.000000	-1.000000	-1.000000	-1.000000	79.586207	0.000000	-1.000000	-1.000000	1102973.000000	1773866449.218156
-6796.170000	-7980.705000	4209.615000	27881.820000	-15517.980000	-23225.895000	11768.310000	21523.500000	-8.114324	4.711858	6.965062	7.539709	8.173388	4.499038	0.276551	-25.165647	1.449700	7.217980	-3.586100	0.618040	0.473510	0.583128	-1.000000	-1.000000	-1.000000	-1.000000	-1.000000	-1.000000	-1.000000	79.586207	0.000000	-1.000000	-1.000000	1102974.000000	1773866449.218166
-6779.475000	-7995.870000	4193.055000	27862.560000	-15535.305000	-23224.275000	11782.215000	21548.205000	-5.872433	8.675669	15.405786	11.830810	10.988247	5.563493	-0.813227	-16.640533	1.449700	7.217980	-3.586100	0.618040	0.473510	0.583128	-1.000000	-1.000000	-1.000000	-1.000000	-1.000000	-1.000000	-1.000000	79.586207	0.000000	-1.000000	-1.000000	1102975.000000	1773866449.220944
-6787.890000	-8004.240000	4182.795000	27838.305000	-15549.840000	-23227.245000	11785.095000	21552.480000	0.931653	8.236054	16.095566	11.094555	9.401065	5.570778	-0.842483	-1.071768	1.449700	7.217980	-3.586100	0.618040	0.473510	0.583128	-1.000000	-1.000000	-1.000000	-1.000000	-1.000000	-1.000000	-1.000000	79.586207	0.000000	-1.000000	-1.000000	1102976.000000	1773866449.220954
-6793.740000	-7992.765000	4196.025000	27841.320000	-15544.305000	-23257.215000	11768.670000	21533.220000	5.849447	2.312130	8.219979	4.865552	3.543154	3.975723	0.084382	11.294359	1.449700	7.217980	-3.586100	0.618040	0.473510	0.583128	-1.000000	-1.000000	-1.000000	-1.000000	-1.000000	-1.000000	-1.000000	79.586207	0.000000	-1.000000	-1.000000	1102977.000000	1773866449.224889
-6785.595000	-7978.905000	4206.420000	27845.235000	-15546.555000	-23255.730000	11773.710000	21534.975000	5.579951	-5.089494	-3.095419	-3.063846	-3.351589	0.078025	0.429777	15.234690	1.449700	7.217980	-3.586100	0.618040	0.473510	0.583128	-1.000000	-1.000000	-1.000000	-1.000000	-1.000000	-1.000000	-1.000000	79.586207	0.000000	-1.000000	-1.000000	1102978.000000	1773866449.224899
-6806.115000	-7998.300000	4190.445000	27836.505000	-15550.155000	-23252.085000	11789.820000	21537.315000	1.888530	-9.059761	-11.361680	-8.526708	-8.283604	-5.255222	0.058539	13.291855	1.449700	7.217980	-3.586100	0.618040	0.473510	0.583128	-1.000000	-1.000000	-1.000000	-1.000000	-1.000000	-1.000000	-1.000000	79.586207	0.000000	-1.000000	-1.000000	1102979.000000	1773866449.231864
-6809.895000	-8008.200000	4181.490000	27837.360000	-15561.405000	-23265.270000	11769.840000	21529.215000	-2.011704	-8.122913	-13.073549	-9.511991	-9.444973	-8.790638	0.352767	10.140724	1.449700	7.217980	-3.586100	0.618040	0.473510	0.583128	-1.000000	-1.000000	-1.000000	-1.000000	-1.000000	-1.000000	-1.000000	79.586207	0.000000	-1.000000	-1.000000	1102980.000000	1773866449.231874
-6788.430000	-7988.850000	4195.440000	27860.265000	-15541.650000	-23242.635000	11755.755000	21518.820000	-4.306974	-4.787236	-9.672424	-7.513962	-7.876104	-8.804941	1.600619	7.550182	-1.327620	4.898460	-3.143560	0.619078	0.474120	0.583861	-1.000000	-1.000000	-1.000000	-1.000000	-1.000000	-1.000000	-1.000000	79.586207	0.000000	-1.000000	-1.000000	1102981.000000	1773866449.233127
-6783.525000	-7977.645000	4204.170000	27868.950000	-15526.530000	-23229.315000	11768.085000	21522.330000	-4.087986	-1.858590	-4.943157	-5.621768	-6.317133	-6.113665	3.103839	5.205805	-1.327620	4.898460	-3.143560	0.619078	0.474120	0.583861	-1.000000	-1.000000	-1.000000	-1.000000	-1.000000	-1.000000	-1.000000	79.586207	0.000000	-1.000000	-1.000000	1102982.000000	1773866449.233136
-6781.365000	-7973.955000	4206.330000	27865.845000	-15536.250000	-23253.435000	11785.995000	21539.700000	-1.447273	0.453140	-0.606100	-4.049294	-4.621424	-2.015970	4.459504	2.707650	-1.327620	4.898460	-3.143560	0.619078	0.474120	0.583861	-1.000000	-1.000000	-1.000000	-1.000000	-1.000000	-1.000000	-1.000000	79.586207	0.000000	-1.000000	-1.000000	1102983.000000	1773866449.236849
-6815.880000	-7985.520000	4208.175000	27864.495000	-15535.035000	-23249.970000	11793.915000	21513.960000	1.290389	2.982293	3.807530	-0.533390	-0.576624	2.008945	5.161018	-0.986621	-1.327620	4.898460	-3.143560	0.619078	0.474120	0.583861	-1.000000	-1.000000	-1.000000	-1.000000	-1.000000	-1.000000	-1.000000	79.586207	0.000000	-1.000000	-1.000000	1102984.000000	1773866449.236858
-6853.680000	-8011.845000	4193.100000	27839.700000	-15542.145000	-23240.970000	11806.560000	21506.130000	0.623444	4.583391	7.514720	4.913281	5.468745	5.067204	4.381402	-7.044652	-1.327620	4.898460	-3.143560	0.619078	0.474120	0.583861	-1.000000	-1.000000	-1.000000	-1.000000	-1.000000	-1.000000	-1.000000	79.586207	0.000000	-1.000000	-1.000000	1102985.000000	1773866449.243805
-6835.545000	-8015.895000	4183.065000	27814.320000	-15563.025000	-23251.545000	11812.905000	21534.210000	-3.764409	2.824937	7.623230	8.418593	9.757356	7.208247	2.062939	-12.891927	-1.327620	4.898460	-3.143560	0.619078	0.474120	0.583861	-1.000000	-1.000000	-1.000000	-1.000000	-1.000000	-1.000000	-1.000000	79.586207	0.000000	-1.000000	-1.000000	1102986.000000	1773866449.243815
-6803.505000	-8015.355000	4198.095000	27805.860000	-15583.185000	-23276.385000	11807.370000	21568.545000	-6.816965	-1.987724	3.087612	6.284943	8.399835	7.314420	-1.176336	-12.538528	-1.327620	4.898460	-3.143560	0.619078	0.474120	0.583861	-1.000000	-1.000000	-1.000000	-1.000000	-1.000000	-1.000000	-1.000000	79.586207	0.000000	-1.000000	-1.000000	1102987.000000	1773866449.244857
-6800.130000	-8009.595000	4211.055000	27808.920000	-15583.500000	-23284.080000	11798.955000	21561.885000	-3.130118	-5.604205	-2.180530	-0.035702	1.855188	3.746525	-5.002937	-3.882642	-1.327620	4.898460	-3.143560	0.619078	0.474120	0.583861	-1.000000	-1.000000	-1.000000	-1.000000	-1.000000	-1.000000	-1.000000	79.586207	0.000000	-1.000000	-1.000000	1102988.000000	1773866449.244867
-6811.695000	-8005.455000	4204.305000	27834.255000	-15557.310000	-23256.405000	11777.445000	21531.285000	5.864514	-4.401827	-3.694297	-5.338849	-4.887371	-2.076815	-8.472068	7.326014	-1.327620	4.898460	-3.143560	0.619078	0.474120	0.583861	-1.000000	-1.000000	-1.000000	-1.000000	-1.000000	-1.000000	-1.000000	79.586207	0.000000	-1.000000	-1.000000	1102989.000000	1773866449.248839
-6801.075000	-7983.360000	4181.985000	27869.535000	-15519.645000	-23218.785000	11776.590000	21519.945000	12.699103	0.497156	-2.439779	-6.116890	-7.203203	-6.000887	-9.649158	12.828166	-1.327620	4.898460	-3.143560	0.619078	0.474120	0.583861	-1.000000	-1.000000	-1.000000	-1.000000	-1.000000	-1.000000	-1.000000	79.586207	0.000000	-1.000000	-1.000000	1102990.000000	1773866449.248849
-6786.855000	-7961.805000	4197.645000	27879.705000	-15518.340000	-23230.530000	11784.870000	21495.240000	12.263574	5.574614	-2.092736	-2.201032	-4.094462	-5.318670	-7.512718	9.017569	-2.655240	3.021480	-2.166920	0.616515	0.475524	0.587462	-1.000000	-1.000000	-1.000000	-1.000000	-1.000000	-1.000000	-1.000000	79.586207	0.000000	-1.000000	-1.000000	1102991.000000	1773866449.253211
-6793.380000	-7978.230000	4203.450000	27864.225000	-15529.005000	-23215.500000	11781.855000	21492.135000	5.991229	8.420301	-2.727383	3.979338	1.965629	-0.924442	-3.151887	-1.497050	-2.655240	3.021480	-2.166920	0.616515	0.475524	0.587462	-1.000000	-1.000000	-1.000000	-1.000000	-1.000000	-1.000000	-1.000000	79.586207	0.000000	-1.000000	-1.000000	1102992.000000	1773866449.253223
-6790.635000	-8000.415000	4187.025000	27824.940000	-15565.005000	-23256.855000	11795.175000	21550.230000	-1.278717	7.579501	-2.087916	7.930753	6.284789	3.538913	1.312703	-11.141259	-2.655240	3.021480	-2.166920	0.616515	0.475524	0.587462	-1.000000	-1.000000	-1.000000	-1.000000	-1.000000	-1.000000	-1.000000	79.586207	0.000000	-1.000000	-1.000000	1102993.000000	1773866449.256823
-6802.245000	-8008.695000	4170.330000	27787.635000	-15596.595000	-23294.475000	11790.540000	21553.965000	-5.533057	2.828553	-0.153120	5.955308	4.875157	3.569142	4.409528	-11.803776	-2.655240	3.021480	-2.166920	0.616515	0.475524	0.587462	-1.000000	-1.000000	-1.000000	-1.000000	-1.000000	-1.000000	-1.000000	79.586207	0.000000	-1.000000	-1.000000	1102994.000000	1773866449.256830
-6797.790000	-7988.850000	4191.525000	27807.570000	-15576.930000	-23291.640000	11797.515000	21557.745000	-6.485921	-3.448604	1.512291	-0.867299	-1.389355	-1.898678	5.701965	-3.258904	-2.655240	3.021480	-2.166920	0.616515	0.475524	0.587462	-1.000000	-1.000000	-1.000000	-1.000000	-1.000000	-1.000000	-1.000000	79.586207	0.000000	-1.000000	-1.000000	1102995.000000	1773866449.267380
