Channel1	Channel2	Channel3	Channel4	Channel5	Channel6	Channel7	Channel8	FilteredChannel1	FilteredChannel2	FilteredChannel3	FilteredChannel4	FilteredChannel5	FilteredChannel6	FilteredChannel7	FilteredChannel8	GyroX	GyroY	GyroZ	AccX	AccY	AccZ	PPG1	PPG2	rawPPG1	rawPPG2	rawPPG3	Hr	Hrv	Battery	Trigger	PhysicalTrigger	AutoTrigger	NumMeasurements	Timestamp
-16279.695000	-19170.990000	-10429.470000	-2992.860000	-15271.875000	-9731.745000	-12670.695000	7301.160000	-3.422805	-5.619587	-0.140807	-0.006519	0.211684	0.808331	7.958310	9.169058	-3.540320	6.088740	-7.660520	0.889463	-0.113098	0.433593	-1.000000	-1.000000	-1.000000	-1.000000	-1.000000	-1.000000	-1.000000	58.758621	0.000000	-1.000000	-1.000000	1193026.000000	1772739783.961138
-16301.475000	-19233.630000	-10494.495000	-3056.850000	-15332.220000	-9780.480000	-12711.915000	7302.645000	-10.694009	-14.942361	-7.669208	-5.879925	-4.273304	-2.997494	7.727635	17.896510	-3.540320	6.088740	-7.660520	0.889463	-0.113098	0.433593	-1.000000	-1.000000	-1.000000	-1.000000	-1.000000	-1.000000	-1.000000	58.758621	0.000000	-1.000000	-1.000000	1193027.000000	1772739783.964592
-16263.630000	-19204.515000	-10457.640000	-3015.180000	-15289.335000	-9734.715000	-12689.145000	7356.510000	-9.085053	-15.109226	-10.722215	-8.880016	-7.086812	-6.200117	3.755490	22.849674	-3.540320	6.088740	-7.660520	0.889463	-0.113098	0.433593	-1.000000	-1.000000	-1.000000	-1.000000	-1.000000	-1.000000	-1.000000	58.758621	0.000000	-1.000000	-1.000000	1193028.000000	1772739783.964598
-16267.545000	-19190.520000	-10442.385000	-2998.710000	-15275.295000	-9725.580000	-12681.405000	7354.305000	0.498915	-7.873622	-8.912332	-8.038605	-6.972333	-7.137366	-1.394271	23.663540	-3.540320	6.088740	-7.660520	0.889463	-0.113098	0.433593	-1.000000	-1.000000	-1.000000	-1.000000	-1.000000	-1.000000	-1.000000	58.758621	0.000000	-1.000000	-1.000000	1193029.000000	1772739783.968754
-16246.845000	-19166.355000	-10423.305000	-2981.520000	-15259.905000	-9716.535000	-12684.690000	7322.535000	9.268722	0.734781	-4.545303	-4.490325	-4.280728	-5.350397	-5.417649	17.000008	-3.540320	6.088740	-7.660520	0.889463	-0.113098	0.433593	-1.000000	-1.000000	-1.000000	-1.000000	-1.000000	-1.000000	-1.000000	58.758621	0.000000	-1.000000	-1.000000	1193030.000000	1772739783.968761
-16203.510000	-19147.545000	-10413.225000	-2975.895000	-15256.665000	-9720.405000	-12685.905000	7308.720000	11.338724	6.733007	0.305453	0.144619	-0.097137	-1.389568	-7.385332	1.784447	1.419180	6.973820	-7.233240	0.890134	-0.118408	0.439086	-1.000000	-1.000000	-1.000000	-1.000000	-1.000000	-1.000000	-1.000000	58.758621	0.000000	-1.000000	-1.000000	1193031.000000	1772739783.973016
-16185.150000	-19130.805000	-10395.270000	-2960.415000	-15243.030000	-9715.995000	-12667.995000	7328.925000	9.708084	10.264301	5.345285	5.240638	4.889237	4.022814	-6.173959	-13.882333	1.419180	6.973820	-7.233240	0.890134	-0.118408	0.439086	-1.000000	-1.000000	-1.000000	-1.000000	-1.000000	-1.000000	-1.000000	58.758621	0.000000	-1.000000	-1.000000	1193032.000000	1772739783.973025
-16214.580000	-19145.880000	-10412.145000	-2978.730000	-15260.535000	-9730.575000	-12679.470000	7326.720000	7.887901	10.980911	8.843140	8.645018	8.204289	8.093393	-2.131591	-19.834276	1.419180	6.973820	-7.233240	0.890134	-0.118408	0.439086	-1.000000	-1.000000	-1.000000	-1.000000	-1.000000	-1.000000	-1.000000	58.758621	0.000000	-1.000000	-1.000000	1193033.000000	1772739783.982870
-16280.280000	-19183.455000	-10457.640000	-3026.205000	-15306.120000	-9765.900000	-12688.740000	7340.355000	3.409042	6.176553	6.799272	6.332759	5.787202	6.511797	1.454370	-15.596207	1.419180	6.973820	-7.233240	0.890134	-0.118408	0.439086	-1.000000	-1.000000	-1.000000	-1.000000	-1.000000	-1.000000	-1.000000	58.758621	0.000000	-1.000000	-1.000000	1193034.000000	1772739783.982879
-16299.045000	-19202.805000	-10461.105000	-3021.300000	-15295.725000	-9745.560000	-12666.960000	7327.845000	-6.265125	-3.868459	-1.108730	-1.629385	-2.065090	-0.595714	2.710518	-7.792775	1.419180	6.973820	-7.233240	0.890134	-0.118408	0.439086	-1.000000	-1.000000	-1.000000	-1.000000	-1.000000	-1.000000	-1.000000	58.758621	0.000000	-1.000000	-1.000000	1193035.000000	1772739783.984323
-16245.945000	-19169.415000	-10422.540000	-2979.990000	-15254.190000	-9701.010000	-12665.655000	7301.160000	-15.985338	-12.067004	-7.678525	-7.652841	-7.686235	-5.930480	4.006317	-1.722521	1.419180	6.973820	-7.233240	0.890134	-0.118408	0.439086	-1.000000	-1.000000	-1.000000	-1.000000	-1.000000	-1.000000	-1.000000	58.758621	0.000000	-1.000000	-1.000000	1193036.000000	1772739783.984329
-16211.655000	-19161.450000	-10414.665000	-2970.405000	-15243.480000	-9691.920000	-12676.320000	7285.680000	-17.011915	-11.511556	-6.331397	-5.409735	-4.992652	-3.811047	6.242863	-0.414918	1.419180	6.973820	-7.233240	0.890134	-0.118408	0.439086	-1.000000	-1.000000	-1.000000	-1.000000	-1.000000	-1.000000	-1.000000	58.758621	0.000000	-1.000000	-1.000000	1193037.000000	1772739783.988592
-16229.700000	-19182.465000	-10441.080000	-2999.520000	-15274.665000	-9725.670000	-12687.840000	7330.320000	-8.216768	-4.488571	-0.279701	1.130628	1.802482	1.813209	5.788273	-3.161539	1.419180	6.973820	-7.233240	0.890134	-0.118408	0.439086	-1.000000	-1.000000	-1.000000	-1.000000	-1.000000	-1.000000	-1.000000	58.758621	0.000000	-1.000000	-1.000000	1193038.000000	1772739783.988603
-16241.940000	-19176.840000	-10437.075000	-2999.430000	-15275.970000	-9731.655000	-12676.095000	7329.780000	2.299960	1.240974	2.705650	3.739776	4.424741	3.507108	0.761635	-3.825258	1.419180	6.973820	-7.233240	0.890134	-0.118408	0.439086	-1.000000	-1.000000	-1.000000	-1.000000	-1.000000	-1.000000	-1.000000	58.758621	0.000000	-1.000000	-1.000000	1193039.000000	1772739783.988612
-16259.490000	-19185.120000	-10444.725000	-3011.265000	-15287.670000	-9749.295000	-12664.440000	7355.745000	6.248625	1.931974	0.277601	0.257505	0.735806	-0.326580	-5.226912	2.553202	1.419180	6.973820	-7.233240	0.890134	-0.118408	0.439086	-1.000000	-1.000000	-1.000000	-1.000000	-1.000000	-1.000000	-1.000000	58.758621	0.000000	-1.000000	-1.000000	1193040.000000	1772739783.988617
-16243.245000	-19183.275000	-10448.730000	-3020.040000	-15296.085000	-9755.955000	-12665.070000	7367.760000	2.826730	-0.546297	-4.227311	-5.435536	-5.311527	-5.793148	-7.754194	13.431117	1.297100	7.080640	-6.668620	0.887205	-0.116455	0.444457	-1.000000	-1.000000	-1.000000	-1.000000	-1.000000	-1.000000	-1.000000	58.758621	0.000000	-1.000000	-1.000000	1193041.000000	1772739783.992660
-16254.720000	-19170.810000	-10439.505000	-3006.180000	-15283.980000	-9740.700000	-12667.635000	7334.910000	-1.538878	-2.146468	-6.324602	-8.236603	-8.533984	-8.222620	-6.047962	20.343237	1.297100	7.080640	-6.668620	0.887205	-0.116455	0.444457	-1.000000	-1.000000	-1.000000	-1.000000	-1.000000	-1.000000	-1.000000	58.758621	0.000000	-1.000000	-1.000000	1193042.000000	1772739783.992667
-16225.920000	-19156.995000	-10419.030000	-2976.030000	-15257.205000	-9715.500000	-12666.195000	7341.030000	0.225303	0.747969	-2.551981	-4.072838	-4.912189	-4.460685	-2.044919	16.116833	1.297100	7.080640	-6.668620	0.887205	-0.116455	0.444457	-1.000000	-1.000000	-1.000000	-1.000000	-1.000000	-1.000000	-1.000000	58.758621	0.000000	-1.000000	-1.000000	1193043.000000	1772739783.996503
-16225.695000	-19158.300000	-10412.145000	-2963.655000	-15243.030000	-9693.495000	-12676.095000	7306.380000	8.802975	8.251741	6.841522	6.879862	5.366785	4.799728	1.864691	2.193466	1.297100	7.080640	-6.668620	0.887205	-0.116455	0.444457	-1.000000	-1.000000	-1.000000	-1.000000	-1.000000	-1.000000	-1.000000	58.758621	0.000000	-1.000000	-1.000000	1193044.000000	1772739783.996511
-16231.230000	-19158.750000	-10415.340000	-2963.655000	-15240.735000	-9687.240000	-12684.240000	7291.485000	16.416549	14.913458	15.517373	17.361985	15.452418	13.467882	3.708950	-13.141970	1.297100	7.080640	-6.668620	0.887205	-0.116455	0.444457	-1.000000	-1.000000	-1.000000	-1.000000	-1.000000	-1.000000	-1.000000	58.758621	0.000000	-1.000000	-1.000000	1193045.000000	1772739784.000566
-16213.455000	-19158.705000	-10414.215000	-2967.615000	-15248.295000	-9699.660000	-12671.055000	7332.435000	14.202856	14.000159	15.767965	18.391284	16.915237	14.533129	3.053829	-21.785941	1.297100	7.080640	-6.668620	0.887205	-0.116455	0.444457	-1.000000	-1.000000	-1.000000	-1.000000	-1.000000	-1.000000	-1.000000	58.758621	0.000000	-1.000000	-1.000000	1193046.000000	1772739784.000573
-16210.260000	-19140.165000	-10389.555000	-2952.990000	-15235.470000	-9692.730000	-12681.900000	7302.060000	2.542607	4.997302	6.999051	8.683601	8.446849	7.169902	1.373864	-20.077482	1.297100	7.080640	-6.668620	0.887205	-0.116455	0.444457	-1.000000	-1.000000	-1.000000	-1.000000	-1.000000	-1.000000	-1.000000	58.758621	0.000000	-1.000000	-1.000000	1193047.000000	1772739784.004645
-16267.905000	-19190.430000	-10442.205000	-3008.070000	-15284.430000	-9740.655000	-12685.860000	7298.460000	-10.888173	-6.755098	-4.829011	-5.399209	-4.118521	-3.462238	-0.122567	-10.647056	1.297100	7.080640	-6.668620	0.887205	-0.116455	0.444457	-1.000000	-1.000000	-1.000000	-1.000000	-1.000000	-1.000000	-1.000000	58.758621	0.000000	-1.000000	-1.000000	1193048.000000	1772739784.004650
-16295.535000	-19190.430000	-10446.480000	-3011.265000	-15289.830000	-9749.340000	-12655.530000	7343.955000	-20.354871	-16.250467	-14.570524	-17.246700	-14.727427	-12.216252	-1.149439	0.971287	1.297100	7.080640	-6.668620	0.887205	-0.116455	0.444457	-1.000000	-1.000000	-1.000000	-1.000000	-1.000000	-1.000000	-1.000000	58.758621	0.000000	-1.000000	-1.000000	1193049.000000	1772739784.009267
-16281.225000	-19167.750000	-10423.260000	-2988.630000	-15269.220000	-9728.235000	-12653.190000	7357.635000	-23.084627	-19.861666	-18.917846	-22.079358	-19.188303	-15.762032	-0.814000	11.283144	1.297100	7.080640	-6.668620	0.887205	-0.116455	0.444457	-1.000000	-1.000000	-1.000000	-1.000000	-1.000000	-1.000000	-1.000000	58.758621	0.000000	-1.000000	-1.000000	1193050.000000	1772739784.009285
-16210.080000	-19128.780000	-10387.080000	-2951.640000	-15232.680000	-9690.750000	-12632.625000	7362.945000	-15.831357	-14.580764	-14.756127	-16.655270	-14.605343	-11.855356	1.499517	18.226545	-1.312360	7.889420	-5.920880	0.889768	-0.108276	0.448668	-1.000000	-1.000000	-1.000000	-1.000000	-1.000000	-1.000000	-1.000000	58.758621	0.000000	-1.000000	-1.000000	1193051.000000	1772739784.014124
-16214.985000	-19152.405000	-10419.480000	-2984.670000	-15268.770000	-9724.005000	-12693.825000	7320.960000	1.553038	-1.615535	-3.122511	-3.252612	-2.917995	-2.235728	3.836116	19.086015	-1.312360	7.889420	-5.920880	0.889768	-0.108276	0.448668	-1.000000	-1.000000	-1.000000	-1.000000	-1.000000	-1.000000	-1.000000	58.758621	0.000000	-1.000000	-1.000000	1193052.000000	1772739784.014132
-16206.165000	-19138.005000	-10396.935000	-2954.745000	-15238.530000	-9690.660000	-12709.845000	7268.760000	20.603967	11.922569	8.911680	9.841402	8.340242	6.605199	2.495381	11.779781	-1.312360	7.889420	-5.920880	0.889768	-0.108276	0.448668	-1.000000	-1.000000	-1.000000	-1.000000	-1.000000	-1.000000	-1.000000	58.758621	0.000000	-1.000000	-1.000000	1193053.000000	1772739784.019612
-16207.965000	-19139.895000	-10390.140000	-2938.410000	-15224.490000	-9677.835000	-12684.105000	7250.940000	29.345908	18.348337	14.640531	15.953561	13.237962	9.951641	-2.793055	-2.266015	-1.312360	7.889420	-5.920880	0.889768	-0.108276	0.448668	-1.000000	-1.000000	-1.000000	-1.000000	-1.000000	-1.000000	-1.000000	58.758621	0.000000	-1.000000	-1.000000	1193054.000000	1772739784.019620
-16208.820000	-19171.620000	-10429.020000	-2970.450000	-15263.640000	-9714.465000	-12660.075000	7340.670000	22.609941	14.715359	12.273904	14.228329	11.379572	8.284678	-6.864529	-15.978413	-1.312360	7.889420	-5.920880	0.889768	-0.108276	0.448668	-1.000000	-1.000000	-1.000000	-1.000000	-1.000000	-1.000000	-1.000000	58.758621	0.000000	-1.000000	-1.000000	1193055.000000	1772739784.022600
-16259.625000	-19215.270000	-10477.260000	-3019.680000	-15313.905000	-9767.385000	-12681.630000	7370.100000	4.812771	2.913278	3.016072	6.240323	4.232171	3.112777	-5.364801	-18.882528	-1.312360	7.889420	-5.920880	0.889768	-0.108276	0.448668	-1.000000	-1.000000	-1.000000	-1.000000	-1.000000	-1.000000	-1.000000	58.758621	0.000000	-1.000000	-1.000000	1193056.000000	1772739784.022608
-16269.795000	-19208.520000	-10476.270000	-3039.165000	-15318.855000	-9781.380000	-12695.490000	7327.395000	-14.035862	-10.759756	-8.665857	-4.774704	-5.304045	-3.870932	-0.335565	-8.183900	-1.312360	7.889420	-5.920880	0.889768	-0.108276	0.448668	-1.000000	-1.000000	-1.000000	-1.000000	-1.000000	-1.000000	-1.000000	58.758621	0.000000	-1.000000	-1.000000	1193057.000000	1772739784.024717
-16282.260000	-19205.865000	-10479.465000	-3067.785000	-15323.535000	-9781.245000	-12699.855000	7326.585000	-24.231596	-17.894547	-15.344127	-13.482795	-11.726875	-8.838320	2.760862	5.346912	-1.312360	7.889420	-5.920880	0.889768	-0.108276	0.448668	-1.000000	-1.000000	-1.000000	-1.000000	-1.000000	-1.000000	-1.000000	58.758621	0.000000	-1.000000	-1.000000	1193058.000000	1772739784.024724
-16260.120000	-19192.140000	-10461.870000	-3049.695000	-15299.865000	-9752.715000	-12680.145000	7327.485000	-22.153090	-14.693734	-12.886007	-16.038634	-11.177817	-8.527399	1.820064	10.030950	-1.312360	7.889420	-5.920880	0.889768	-0.108276	0.448668	-1.000000	-1.000000	-1.000000	-1.000000	-1.000000	-1.000000	-1.000000	58.758621	0.000000	-1.000000	-1.000000	1193059.000000	1772739784.032880
-16260.705000	-19182.690000	-10440.045000	-3012.300000	-15269.625000	-9716.985000	-12661.920000	7329.285000	-11.619905	-4.354859	-3.277928	-11.246923	-4.111133	-2.716107	0.012026	5.381190	-1.312360	7.889420	-5.920880	0.889768	-0.108276	0.448668	-1.000000	-1.000000	-1.000000	-1.000000	-1.000000	-1.000000	-1.000000	58.758621	0.000000	-1.000000	-1.000000	1193060.000000	1772739784.032896
-16232.535000	-19160.055000	-10416.060000	-2978.595000	-15248.970000	-9692.685000	-12674.070000	7327.980000	0.880780	7.591606	8.936182	0.498458	6.506469	6.517853	1.546824	-0.927811	-1.083460	8.331960	-5.783540	0.889524	-0.108947	0.451354	-1.000000	-1.000000	-1.000000	-1.000000	-1.000000	-1.000000	-1.000000	58.758621	0.000000	-1.000000	-1.000000	1193061.000000	1772739784.032907
-16231.230000	-19170.270000	-10423.170000	-2978.370000	-15256.980000	-9703.755000	-12693.015000	7301.925000	10.858643	16.270146	18.366932	14.716913	15.438971	14.354004	5.993658	-2.218724	-1.083460	8.331960	-5.783540	0.889524	-0.108947	0.451354	-1.000000	-1.000000	-1.000000	-1.000000	-1.000000	-1.000000	-1.000000	58.758621	0.000000	-1.000000	-1.000000	1193062.000000	1772739784.032911
-16230.465000	-19153.755000	-10404.765000	-2943.765000	-15238.755000	-9692.100000	-12651.345000	7293.690000	15.721117	18.126293	20.101024	23.567176	17.142784	15.262867	8.447083	0.561872	-1.083460	8.331960	-5.783540	0.889524	-0.108947	0.451354	-1.000000	-1.000000	-1.000000	-1.000000	-1.000000	-1.000000	-1.000000	58.758621	0.000000	-1.000000	-1.000000	1193063.000000	1772739784.036813
-16185.960000	-19109.520000	-10370.025000	-2900.745000	-15211.215000	-9676.980000	-12622.590000	7407.090000	15.159661	14.027808	14.520333	23.640407	11.893604	9.391634	6.505707	2.368563	-1.083460	8.331960	-5.783540	0.889524	-0.108947	0.451354	-1.000000	-1.000000	-1.000000	-1.000000	-1.000000	-1.000000	-1.000000	58.758621	0.000000	-1.000000	-1.000000	1193064.000000	1772739784.036823
-16157.745000	-19117.170000	-10398.465000	-2942.640000	-15252.885000	-9729.450000	-12665.520000	7392.600000	12.839195	8.697087	6.770889	17.590992	4.928767	1.948121	2.170241	2.683441	-1.083460	8.331960	-5.783540	0.889524	-0.108947	0.451354	-1.000000	-1.000000	-1.000000	-1.000000	-1.000000	-1.000000	-1.000000	58.758621	0.000000	-1.000000	-1.000000	1193065.000000	1772739784.040653
-16163.325000	-19121.805000	-10397.700000	-2964.555000	-15249.375000	-9723.240000	-12681.855000	7341.300000	11.912690	4.013728	-0.356173	7.421666	-1.171591	-4.048200	-3.211034	2.724116	-1.083460	8.331960	-5.783540	0.889524	-0.108947	0.451354	-1.000000	-1.000000	-1.000000	-1.000000	-1.000000	-1.000000	-1.000000	58.758621	0.000000	-1.000000	-1.000000	1193066.000000	1772739784.040662
-16274.340000	-19183.860000	-10425.465000	-2997.990000	-15250.005000	-9709.155000	-12686.220000	7250.895000	8.354059	-3.154233	-7.965929	-6.675707	-7.200216	-8.618840	-9.311729	-0.923099	-1.083460	8.331960	-5.783540	0.889524	-0.108947	0.451354	-1.000000	-1.000000	-1.000000	-1.000000	-1.000000	-1.000000	-1.000000	58.758621	0.000000	-1.000000	-1.000000	1193067.000000	1772739784.044636
-16388.370000	-19279.305000	-10514.295000	-3078.135000	-15320.880000	-9762.075000	-12681.000000	7215.120000	-6.134459	-16.221950	-17.744529	-23.279513	-14.191705	-12.541895	-14.011171	-11.148020	-1.083460	8.331960	-5.783540	0.889524	-0.108947	0.451354	-1.000000	-1.000000	-1.000000	-1.000000	-1.000000	-1.000000	-1.000000	58.758621	0.000000	-1.000000	-1.000000	1193068.000000	1772739784.044684
-16331.670000	-19233.990000	-10487.475000	-3049.515000	-15303.870000	-9741.690000	-12676.995000	7219.260000	-30.212414	-31.936711	-28.386594	-38.023847	-21.847603	-16.566843	-14.122473	-22.421381	-1.083460	8.331960	-5.783540	0.889524	-0.108947	0.451354	-1.000000	-1.000000	-1.000000	-1.000000	-1.000000	-1.000000	-1.000000	58.758621	0.000000	-1.000000	-1.000000	1193069.000000	1772739784.049989
-16232.535000	-19216.845000	-10483.740000	-3047.670000	-15320.835000	-9757.890000	-12690.855000	7402.410000	-45.811294	-38.433352	-32.770990	-42.612199	-25.995833	-18.693255	-7.993355	-21.313204	-1.083460	8.331960	-5.783540	0.889524	-0.108947	0.451354	-1.000000	-1.000000	-1.000000	-1.000000	-1.000000	-1.000000	-1.000000	58.758621	0.000000	-1.000000	-1.000000	1193070.000000	1772739784.049995
-16218.225000	-19208.655000	-10465.065000	-3022.470000	-15303.780000	-9750.870000	-12685.590000	7416.360000	-34.995769	-26.262915	-23.591143	-30.522528	-21.101613	-15.077886	2.015881	1.399338	1.373400	8.728720	-7.813120	0.888548	-0.113037	0.454222	-1.000000	-1.000000	-1.000000	-1.000000	-1.000000	-1.000000	-1.000000	58.758621	0.000000	-1.000000	-1.000000	1193071.000000	1772739784.059020
-16276.590000	-19206.360000	-10444.905000	-2996.145000	-15276.465000	-9728.145000	-12662.370000	7355.160000	-2.152100	0.235512	-2.100005	-4.617839	-6.174918	-4.401444	10.293276	33.393575	1.373400	8.728720	-7.813120	0.888548	-0.113037	0.454222	-1.000000	-1.000000	-1.000000	-1.000000	-1.000000	-1.000000	-1.000000	58.758621	0.000000	-1.000000	-1.000000	1193072.000000	1772739784.059031
-16258.095000	-19188.765000	-10439.100000	-2992.365000	-15280.740000	-9743.130000	-12657.195000	7364.160000	29.677924	26.791872	22.212025	24.104902	13.861163	10.614881	13.055734	46.769039	1.373400	8.728720	-7.813120	0.888548	-0.113037	0.454222	-1.000000	-1.000000	-1.000000	-1.000000	-1.000000	-1.000000	-1.000000	58.758621	0.000000	-1.000000	-1.000000	1193073.000000	1772739784.059044
-16238.070000	-19187.595000	-10449.990000	-2990.385000	-15291.360000	-9764.190000	-12668.580000	7324.110000	42.380166	40.994475	38.289342	43.938604	30.541554	23.917998	11.225153	28.863685	1.373400	8.728720	-7.813120	0.888548	-0.113037	0.454222	-1.000000	-1.000000	-1.000000	-1.000000	-1.000000	-1.000000	-1.000000	58.758621	0.000000	-1.000000	-1.000000	1193074.000000	1772739784.059048
-16205.940000	-19178.280000	-10461.645000	-2987.685000	-15291.495000	-9757.395000	-12673.170000	7338.510000	35.885264	39.022544	39.266947	48.338951	35.989934	28.706445	7.452657	-5.301054	1.373400	8.728720	-7.813120	0.888548	-0.113037	0.454222	-1.000000	-1.000000	-1.000000	-1.000000	-1.000000	-1.000000	-1.000000	58.758621	0.000000	-1.000000	-1.000000	1193075.000000	1772739784.060700
-16244.325000	-19201.455000	-10481.400000	-3014.820000	-15296.895000	-9743.805000	-12659.715000	7369.830000	21.506607	25.310042	25.710510	37.187454	27.675505	22.265705	3.076382	-30.086162	1.373400	8.728720	-7.813120	0.888548	-0.113037	0.454222	-1.000000	-1.000000	-1.000000	-1.000000	-1.000000	-1.000000	-1.000000	58.758621	0.000000	-1.000000	-1.000000	1193076.000000	1772739784.060710
-16259.715000	-19188.630000	-10467.180000	-3035.970000	-15283.620000	-9712.530000	-12646.980000	7354.620000	8.309786	8.012059	5.599263	15.295890	10.666187	9.003687	-1.149168	-31.032285	1.373400	8.728720	-7.813120	0.888548	-0.113037	0.454222	-1.000000	-1.000000	-1.000000	-1.000000	-1.000000	-1.000000	-1.000000	58.758621	0.000000	-1.000000	-1.000000	1193077.000000	1772739784.064887
-16243.740000	-19148.085000	-10438.920000	-3046.680000	-15275.070000	-9696.600000	-12660.165000	7288.560000	-3.554973	-6.610436	-11.182679	-10.118370	-6.268747	-3.417198	-4.175872	-15.606043	1.373400	8.728720	-7.813120	0.888548	-0.113037	0.454222	-1.000000	-1.000000	-1.000000	-1.000000	-1.000000	-1.000000	-1.000000	58.758621	0.000000	-1.000000	-1.000000	1193078.000000	1772739784.064898
-16248.420000	-19139.490000	-10428.615000	-3047.715000	-15270.480000	-9706.320000	-12677.445000	7279.110000	-17.322048	-16.013943	-19.248870	-31.231367	-16.934476	-10.685033	-5.699784	-3.983593	1.373400	8.728720	-7.813120	0.888548	-0.113037	0.454222	-1.000000	-1.000000	-1.000000	-1.000000	-1.000000	-1.000000	-1.000000	58.758621	0.000000	-1.000000	-1.000000	1193079.000000	1772739784.075718
-16233.120000	-19142.775000	-10411.155000	-3017.655000	-15249.465000	-9698.490000	-12645.450000	7367.805000	-30.187653	-19.996115	-18.906636	-40.813337	-19.758385	-13.233935	-6.357951	-4.757813	1.373400	8.728720	-7.813120	0.888548	-0.113037	0.454222	-1.000000	-1.000000	-1.000000	-1.000000	-1.000000	-1.000000	-1.000000	58.758621	0.000000	-1.000000	-1.000000	1193080.000000	1772739784.075737
-16173.810000	-19107.855000	-10367.550000	-2956.635000	-15221.295000	-9680.310000	-12616.740000	7369.110000	-32.662556	-19.352819	-13.240066	-34.662455	-16.142752	-12.851259	-5.968040	-7.187345	2.197440	7.156940	-4.745860	0.885313	-0.108703	0.457763	-1.000000	-1.000000	-1.000000	-1.000000	-1.000000	-1.000000	-1.000000	58.758621	0.000000	-1.000000	-1.000000	1193081.000000	1772739784.075758
-16192.035000	-19121.715000	-10386.405000	-2957.670000	-15250.005000	-9720.270000	-12643.065000	7343.460000	-19.714050	-15.067925	-5.414251	-14.546258	-8.727880	-10.216024	-3.659415	-1.121731	2.197440	7.156940	-4.745860	0.885313	-0.108703	0.457763	-1.000000	-1.000000	-1.000000	-1.000000	-1.000000	-1.000000	-1.000000	58.758621	0.000000	-1.000000	-1.000000	1193082.000000	1772739784.075766
-16142.490000	-19069.290000	-10325.970000	-2884.365000	-15187.095000	-9666.045000	-12624.210000	7349.535000	1.390569	-8.248481	2.094462	11.220671	-0.346300	-5.475966	0.120149	10.671925	2.197440	7.156940	-4.745860	0.885313	-0.108703	0.457763	-1.000000	-1.000000	-1.000000	-1.000000	-1.000000	-1.000000	-1.000000	58.758621	0.000000	-1.000000	-1.000000	1193083.000000	1772739784.079418
-16211.430000	-19156.320000	-10408.320000	-2961.315000	-15257.655000	-9731.655000	-12724.965000	7274.160000	18.185324	-0.882368	7.006175	30.851159	6.089523	-0.212229	2.512352	19.349490	2.197440	7.156940	-4.745860	0.885313	-0.108703	0.457763	-1.000000	-1.000000	-1.000000	-1.000000	-1.000000	-1.000000	-1.000000	58.758621	0.000000	-1.000000	-1.000000	1193084.000000	1772739784.079429
-16288.380000	-19242.765000	-10498.140000	-3050.055000	-15336.090000	-9790.965000	-12727.890000	7308.855000	22.209708	2.614775	5.404264	33.295281	6.097231	0.966604	-0.492025	18.185209	2.197440	7.156940	-4.745860	0.885313	-0.108703	0.457763	-1.000000	-1.000000	-1.000000	-1.000000	-1.000000	-1.000000	-1.000000	58.758621	0.000000	-1.000000	-1.000000	1193085.000000	1772739784.087255
-16264.170000	-19221.300000	-10477.080000	-3029.580000	-15315.165000	-9760.320000	-12700.530000	7325.730000	12.569113	-1.223632	-4.850093	15.922523	-2.535852	-4.704791	-7.566109	9.173776	2.197440	7.156940	-4.745860	0.885313	-0.108703	0.457763	-1.000000	-1.000000	-1.000000	-1.000000	-1.000000	-1.000000	-1.000000	58.758621	0.000000	-1.000000	-1.000000	1193086.000000	1772739784.087265
-16241.220000	-19187.730000	-10444.365000	-3000.960000	-15290.865000	-9740.295000	-12680.010000	7318.395000	-3.161111	-8.221529	-17.078961	-9.425369	-13.039969	-11.353087	-10.126947	0.513341	2.197440	7.156940	-4.745860	0.885313	-0.108703	0.457763	-1.000000	-1.000000	-1.000000	-1.000000	-1.000000	-1.000000	-1.000000	58.758621	0.000000	-1.000000	-1.000000	1193087.000000	1772739784.087278
-16247.835000	-19188.900000	-10432.665000	-2988.405000	-15279.300000	-9734.940000	-12673.440000	7285.230000	-14.199197	-9.462870	-20.122071	-25.569916	-14.990032	-9.901811	-2.611562	-4.660149	2.197440	7.156940	-4.745860	0.885313	-0.108703	0.457763	-1.000000	-1.000000	-1.000000	-1.000000	-1.000000	-1.000000	-1.000000	58.758621	0.000000	-1.000000	-1.000000	1193088.000000	1772739784.087283
-16254.045000	-19191.555000	-10436.445000	-2989.170000	-15275.025000	-9736.470000	-12673.710000	7283.385000	-15.065860	-1.534669	-10.522377	-25.487449	-5.981410	0.865206	9.830538	-9.670549	2.197440	7.156940	-4.745860	0.885313	-0.108703	0.457763	-1.000000	-1.000000	-1.000000	-1.000000	-1.000000	-1.000000	-1.000000	58.758621	0.000000	-1.000000	-1.000000	1193089.000000	1772739784.088946
-16263.405000	-19209.420000	-10458.090000	-3010.095000	-15290.415000	-9756.765000	-12687.795000	7314.345000	-8.291500	10.137859	4.615801	-14.935051	7.244683	13.692516	17.119954	-14.845256	2.197440	7.156940	-4.745860	0.885313	-0.108703	0.457763	-1.000000	-1.000000	-1.000000	-1.000000	-1.000000	-1.000000	-1.000000	58.758621	0.000000	-1.000000	-1.000000	1193090.000000	1772739784.088954
-16259.580000	-19203.120000	-10457.370000	-3013.965000	-15296.895000	-9759.555000	-12668.670000	7309.935000	0.160261	17.539794	15.733297	-3.348574	16.394217	20.712318	14.871804	-14.491630	-0.503580	2.701020	-3.830260	0.871397	-0.101867	0.463012	-1.000000	-1.000000	-1.000000	-1.000000	-1.000000	-1.000000	-1.000000	58.758621	0.000000	-1.000000	-1.000000	1193091.000000	1772739784.092873
-16232.625000	-19177.470000	-10442.025000	-3003.120000	-15289.920000	-9748.620000	-12653.820000	7338.870000	6.765516	17.571159	18.717365	4.221210	17.298722	18.832237	7.374363	-4.810891	-0.503580	2.701020	-3.830260	0.871397	-0.101867	0.463012	-1.000000	-1.000000	-1.000000	-1.000000	-1.000000	-1.000000	-1.000000	58.758621	0.000000	-1.000000	-1.000000	1193092.000000	1772739784.092885
-16228.305000	-19160.550000	-10424.565000	-2986.785000	-15270.120000	-9723.420000	-12658.500000	7348.635000	12.704223	14.582303	17.151595	9.756398	12.599587	11.337579	1.787038	10.783736	-0.503580	2.701020	-3.830260	0.871397	-0.101867	0.463012	-1.000000	-1.000000	-1.000000	-1.000000	-1.000000	-1.000000	-1.000000	58.758621	0.000000	-1.000000	-1.000000	1193093.000000	1772739784.096765
-16218.270000	-19118.565000	-10374.480000	-2933.685000	-15217.335000	-9671.670000	-12661.470000	7282.080000	19.766856	14.754648	17.538831	18.248393	9.519042	5.322850	0.401733	22.544759	-0.503580	2.701020	-3.830260	0.871397	-0.101867	0.463012	-1.000000	-1.000000	-1.000000	-1.000000	-1.000000	-1.000000	-1.000000	58.758621	0.000000	-1.000000	-1.000000	1193094.000000	1772739784.096776
-16197.120000	-19125.405000	-10376.055000	-2930.760000	-15214.095000	-9668.070000	-12682.305000	7305.435000	24.002411	16.458883	19.668774	28.164210	10.562324	3.574331	-0.935158	20.705606	-0.503580	2.701020	-3.830260	0.871397	-0.101867	0.463012	-1.000000	-1.000000	-1.000000	-1.000000	-1.000000	-1.000000	-1.000000	58.758621	0.000000	-1.000000	-1.000000	1193095.000000	1772739784.100763
-16189.020000	-19128.330000	-10382.265000	-2940.165000	-15220.710000	-9673.425000	-12670.110000	7334.370000	18.802913	11.196294	15.537739	29.728307	9.733233	1.684994	-5.994553	6.516320	-0.503580	2.701020	-3.830260	0.871397	-0.101867	0.463012	-1.000000	-1.000000	-1.000000	-1.000000	-1.000000	-1.000000	-1.000000	58.758621	0.000000	-1.000000	-1.000000	1193096.000000	1772739784.100772
-16201.395000	-19112.895000	-10369.845000	-2932.965000	-15213.870000	-9664.650000	-12626.145000	7319.250000	3.683912	-4.082936	0.591145	16.080752	1.127352	-4.581755	-12.242920	-8.785707	-0.503580	2.701020	-3.830260	0.871397	-0.101867	0.463012	-1.000000	-1.000000	-1.000000	-1.000000	-1.000000	-1.000000	-1.000000	58.758621	0.000000	-1.000000	-1.000000	1193097.000000	1772739784.104757
-16268.940000	-19200.060000	-10472.040000	-3035.610000	-15316.515000	-9770.670000	-12677.130000	7322.580000	-15.596269	-23.026512	-20.428724	-9.216489	-14.377415	-14.737040	-14.469765	-16.915705	-0.503580	2.701020	-3.830260	0.871397	-0.101867	0.463012	-1.000000	-1.000000	-1.000000	-1.000000	-1.000000	-1.000000	-1.000000	58.758621	0.000000	-1.000000	-1.000000	1193098.000000	1772739784.104766
-16306.245000	-19266.930000	-10531.755000	-3090.870000	-15371.820000	-9828.225000	-12701.070000	7354.935000	-32.357339	-38.069417	-39.246681	-36.080504	-31.265941	-25.949453	-11.927666	-16.584384	-0.503580	2.701020	-3.830260	0.871397	-0.101867	0.463012	-1.000000	-1.000000	-1.000000	-1.000000	-1.000000	-1.000000	-1.000000	58.758621	0.000000	-1.000000	-1.000000	1193099.000000	1772739784.109847
-16267.590000	-19222.020000	-10478.340000	-3041.145000	-15324.480000	-9782.730000	-12685.815000	7350.885000	-39.932311	-43.571515	-47.365341	-52.010180	-40.923348	-32.692158	-7.440447	-9.578233	-0.503580	2.701020	-3.830260	0.871397	-0.101867	0.463012	-1.000000	-1.000000	-1.000000	-1.000000	-1.000000	-1.000000	-1.000000	58.758621	0.000000	-1.000000	-1.000000	1193100.000000	1772739784.109855
-16259.175000	-19213.560000	-10470.105000	-3031.560000	-15311.520000	-9762.300000	-12672.180000	7339.455000	-32.453964	-34.027336	-37.122148	-45.969283	-34.049003	-27.075492	-1.828554	-0.146590	-3.769220	3.830260	-2.197440	0.876890	-0.101562	0.460875	-1.000000	-1.000000	-1.000000	-1.000000	-1.000000	-1.000000	-1.000000	58.758621	0.000000	-1.000000	-1.000000	1193101.000000	1772739784.113304
-16247.700000	-19208.025000	-10460.790000	-3017.205000	-15293.745000	-9735.435000	-12665.790000	7342.245000	-10.177751	-9.344292	-9.259108	-17.646148	-9.655355	-7.016605	5.681300	6.540603	-3.769220	3.830260	-2.197440	0.876890	-0.101562	0.460875	-1.000000	-1.000000	-1.000000	-1.000000	-1.000000	-1.000000	-1.000000	58.758621	0.000000	-1.000000	-1.000000	1193102.000000	1772739784.113312
-16246.170000	-19198.710000	-10449.540000	-3001.590000	-15277.185000	-9713.790000	-12663.630000	7333.200000	17.166591	20.123809	23.108043	18.736200	20.556436	18.491511	13.336161	8.606339	-3.769220	3.830260	-2.197440	0.876890	-0.101562	0.460875	-1.000000	-1.000000	-1.000000	-1.000000	-1.000000	-1.000000	-1.000000	58.758621	0.000000	-1.000000	-1.000000	1193103.000000	1772739784.118001
-16228.890000	-19154.115000	-10404.315000	-2961.270000	-15241.545000	-9690.615000	-12652.605000	7327.665000	35.583279	40.607476	44.173116	44.858397	41.262331	36.383654	17.344762	6.727348	-3.769220	3.830260	-2.197440	0.876890	-0.101562	0.460875	-1.000000	-1.000000	-1.000000	-1.000000	-1.000000	-1.000000	-1.000000	58.758621	0.000000	-1.000000	-1.000000	1193104.000000	1772739784.118008
-16209.360000	-19114.875000	-10355.850000	-2927.205000	-15205.275000	-9662.310000	-12641.355000	7371.630000	37.273780	45.549626	47.386132	51.294599	45.017576	39.623606	15.160281	2.290900	-3.769220	3.830260	-2.197440	0.876890	-0.101562	0.460875	-1.000000	-1.000000	-1.000000	-1.000000	-1.000000	-1.000000	-1.000000	58.758621	0.000000	-1.000000	-1.000000	1193105.000000	1772739784.120752
-16226.865000	-19138.680000	-10386.765000	-2961.675000	-15235.290000	-9692.370000	-12655.080000	7297.335000	25.119732	36.462845	35.775023	39.399486	33.697727	29.377739	6.831794	-2.400211	-3.769220	3.830260	-2.197440	0.876890	-0.101562	0.460875	-1.000000	-1.000000	-1.000000	-1.000000	-1.000000	-1.000000	-1.000000	58.758621	0.000000	-1.000000	-1.000000	1193106.000000	1772739784.120764
-16277.400000	-19196.415000	-10483.650000	-3035.205000	-15311.295000	-9763.830000	-12648.465000	7262.685000	7.409023	18.276947	15.317746	16.197250	13.543147	11.459072	-3.791538	-7.075574	-3.769220	3.830260	-2.197440	0.876890	-0.101562	0.460875	-1.000000	-1.000000	-1.000000	-1.000000	-1.000000	-1.000000	-1.000000	58.758621	0.000000	-1.000000	-1.000000	1193107.000000	1772739784.124802
-16240.095000	-19159.200000	-10419.435000	-2974.320000	-15259.545000	-9717.525000	-12633.615000	7296.795000	-8.349733	-2.441048	-7.340061	-8.718505	-7.801349	-6.882662	-10.455205	-11.925686	-3.769220	3.830260	-2.197440	0.876890	-0.101562	0.460875	-1.000000	-1.000000	-1.000000	-1.000000	-1.000000	-1.000000	-1.000000	58.758621	0.000000	-1.000000	-1.000000	1193108.000000	1772739784.124810
-16220.475000	-19174.230000	-10428.795000	-2990.655000	-15275.205000	-9731.115000	-12665.205000	7325.955000	-17.319238	-19.237931	-24.611916	-26.158089	-23.237439	-19.774724	-10.779837	-12.384045	-3.769220	3.830260	-2.197440	0.876890	-0.101562	0.460875	-1.000000	-1.000000	-1.000000	-1.000000	-1.000000	-1.000000	-1.000000	58.758621	0.000000	-1.000000	-1.000000	1193109.000000	1772739784.142490
-16247.790000	-19194.705000	-10459.215000	-3023.730000	-15308.730000	-9761.355000	-12711.015000	7331.130000	-18.349744	-28.723356	-31.831851	-32.392579	-29.825927	-25.694191	-8.721133	-3.977355	-3.769220	3.830260	-2.197440	0.876890	-0.101562	0.460875	-1.000000	-1.000000	-1.000000	-1.000000	-1.000000	-1.000000	-1.000000	58.758621	0.000000	-1.000000	-1.000000	1193110.000000	1772739784.142500
-16270.965000	-19172.565000	-10424.970000	-2981.295000	-15262.740000	-9707.265000	-12697.830000	7239.420000	-14.595049	-30.153251	-29.384640	-29.201984	-28.549959	-25.870268	-8.458765	8.945851	-0.244160	3.586100	-3.479280	0.882993	-0.102356	0.461303	-1.000000	-1.000000	-1.000000	-1.000000	-1.000000	-1.000000	-1.000000	58.758621	0.000000	-1.000000	-1.000000	1193111.000000	1772739784.142510
-16252.155000	-19172.925000	-10416.330000	-2967.570000	-15245.235000	-9685.260000	-12643.380000	7211.295000	-10.235479	-23.890762	-19.695720	-19.213756	-20.361130	-19.943587	-8.019606	15.561650	-0.244160	3.586100	-3.479280	0.882993	-0.102356	0.461303	-1.000000	-1.000000	-1.000000	-1.000000	-1.000000	-1.000000	-1.000000	58.758621	0.000000	-1.000000	-1.000000	1193112.000000	1772739784.142514
-16222.770000	-19172.970000	-10408.005000	-2959.515000	-15238.665000	-9686.520000	-12636.810000	7311.330000	-6.114415	-12.755777	-6.675690	-5.770507	-7.233153	-8.127766	-2.667539	11.570244	-0.244160	3.586100	-3.479280	0.882993	-0.102356	0.461303	-1.000000	-1.000000	-1.000000	-1.000000	-1.000000	-1.000000	-1.000000	58.758621	0.000000	-1.000000	-1.000000	1193113.000000	1772739784.142518
-16147.665000	-19109.745000	-10364.400000	-2922.795000	-15206.985000	-9666.270000	-12619.035000	7406.010000	0.275333	-0.702502	4.948662	6.570002	6.166184	5.340485	6.878793	5.728359	-0.244160	3.586100	-3.479280	0.882993	-0.102356	0.461303	-1.000000	-1.000000	-1.000000	-1.000000	-1.000000	-1.000000	-1.000000	58.758621	0.000000	-1.000000	-1.000000	1193114.000000	1772739784.142521
-16214.085000	-19143.450000	-10410.480000	-2969.505000	-15253.110000	-9717.525000	-12646.305000	7390.980000	10.099619	11.081429	13.714455	15.535408	16.299605	15.807974	14.693383	8.267502	-0.244160	3.586100	-3.479280	0.882993	-0.102356	0.461303	-1.000000	-1.000000	-1.000000	-1.000000	-1.000000	-1.000000	-1.000000	58.758621	0.000000	-1.000000	-1.000000	1193115.000000	1772739784.142526
-16292.205000	-19244.475000	-10520.685000	-3082.455000	-15360.930000	-9811.215000	-12696.570000	7328.655000	17.634637	20.255541	18.694880	19.110069	20.414652	19.785201	15.012390	15.632899	-0.244160	3.586100	-3.479280	0.882993	-0.102356	0.461303	-1.000000	-1.000000	-1.000000	-1.000000	-1.000000	-1.000000	-1.000000	58.758621	0.000000	-1.000000	-1.000000	1193116.000000	1772739784.142529
-16295.445000	-19235.160000	-10502.280000	-3066.480000	-15346.935000	-9794.610000	-12686.805000	7349.715000	13.855724	20.042053	15.148128	12.844048	14.374235	13.843004	6.178196	14.401612	-0.244160	3.586100	-3.479280	0.882993	-0.102356	0.461303	-1.000000	-1.000000	-1.000000	-1.000000	-1.000000	-1.000000	-1.000000	58.758621	0.000000	-1.000000	-1.000000	1193117.000000	1772739784.153210
-16271.370000	-19176.750000	-10439.730000	-3008.610000	-15288.750000	-9739.665000	-12678.705000	7334.190000	-0.956034	9.814745	3.763864	-0.628285	0.969225	1.236226	-5.853895	-0.769872	-0.244160	3.586100	-3.479280	0.882993	-0.102356	0.461303	-1.000000	-1.000000	-1.000000	-1.000000	-1.000000	-1.000000	-1.000000	58.758621	0.000000	-1.000000	-1.000000	1193118.000000	1772739784.153220
-16270.830000	-19191.510000	-10450.305000	-3010.185000	-15286.545000	-9728.595000	-12693.870000	7279.380000	-14.727249	-0.727894	-5.105981	-9.261989	-8.158085	-7.272507	-11.776255	-21.501968	-0.244160	3.586100	-3.479280	0.882993	-0.102356	0.461303	-1.000000	-1.000000	-1.000000	-1.000000	-1.000000	-1.000000	-1.000000	58.758621	0.000000	-1.000000	-1.000000	1193119.000000	1772739784.153231
-16240.455000	-19206.090000	-10462.365000	-3017.520000	-15293.430000	-9730.845000	-12690.495000	7301.745000	-16.317616	-4.974396	-5.660521	-7.261982	-7.315539	-6.732926	-9.112193	-34.126686	-0.244160	3.586100	-3.479280	0.882993	-0.102356	0.461303	-1.000000	-1.000000	-1.000000	-1.000000	-1.000000	-1.000000	-1.000000	58.758621	0.000000	-1.000000	-1.000000	1193120.000000	1772739784.153235
-16219.845000	-19194.390000	-10457.055000	-3015.675000	-15293.520000	-9736.470000	-12682.890000	7337.295000	-5.580670	-4.985655	-2.375684	-0.614164	-2.037308	-2.334719	-3.121756	-29.547905	-3.006220	2.166920	-1.358140	0.876707	-0.099487	0.456664	-1.000000	-1.000000	-1.000000	-1.000000	-1.000000	-1.000000	-1.000000	58.758621	0.000000	-1.000000	-1.000000	1193121.000000	1772739784.154869
-16197.615000	-19176.795000	-10449.180000	-3013.830000	-15294.780000	-9744.975000	-12684.645000	7337.385000	8.377848	-4.154660	-0.750168	3.302087	0.908138	-0.095955	0.773065	-11.745584	-3.006220	2.166920	-1.358140	0.876707	-0.099487	0.456664	-1.000000	-1.000000	-1.000000	-1.000000	-1.000000	-1.000000	-1.000000	58.758621	0.000000	-1.000000	-1.000000	1193122.000000	1772739784.154876
-16201.665000	-19155.780000	-10428.615000	-2997.450000	-15282.450000	-9745.290000	-12681.720000	7324.470000	15.665113	-3.313481	-1.373195	2.878863	0.329334	-0.831584	1.534881	5.382854	-3.006220	2.166920	-1.358140	0.876707	-0.099487	0.456664	-1.000000	-1.000000	-1.000000	-1.000000	-1.000000	-1.000000	-1.000000	58.758621	0.000000	-1.000000	-1.000000	1193123.000000	1772739784.164282
-16214.490000	-19140.705000	-10403.730000	-2971.800000	-15259.365000	-9729.900000	-12666.420000	7315.380000	14.033954	-0.283735	0.485187	3.005560	1.067134	-0.072520	2.037523	13.154033	-3.006220	2.166920	-1.358140	0.876707	-0.099487	0.456664	-1.000000	-1.000000	-1.000000	-1.000000	-1.000000	-1.000000	-1.000000	58.758621	0.000000	-1.000000	-1.000000	1193124.000000	1772739784.164292
-16190.145000	-19109.970000	-10377.495000	-2933.640000	-15216.255000	-9682.155000	-12625.965000	7337.565000	8.754996	7.625025	9.227181	9.317196	8.457283	6.982274	5.756466	13.994129	-3.006220	2.166920	-1.358140	0.876707	-0.099487	0.456664	-1.000000	-1.000000	-1.000000	-1.000000	-1.000000	-1.000000	-1.000000	58.758621	0.000000	-1.000000	-1.000000	1193125.000000	1772739784.164303
-16188.390000	-19134.135000	-10448.640000	-2968.155000	-15235.380000	-9686.070000	-12630.420000	7310.385000	4.145658	16.523014	18.862927	18.095716	18.810843	17.203448	12.043835	12.682199	-3.006220	2.166920	-1.358140	0.876707	-0.099487	0.456664	-1.000000	-1.000000	-1.000000	-1.000000	-1.000000	-1.000000	-1.000000	58.758621	0.000000	-1.000000	-1.000000	1193126.000000	1772739784.164307
-16273.530000	-19239.570000	-10550.610000	-3069.405000	-15330.780000	-9769.005000	-12697.515000	7283.745000	-1.522276	15.293650	14.999250	16.382348	19.212415	18.982990	14.634184	9.892883	-3.006220	2.166920	-1.358140	0.876707	-0.099487	0.456664	-1.000000	-1.000000	-1.000000	-1.000000	-1.000000	-1.000000	-1.000000	58.758621	0.000000	-1.000000	-1.000000	1193127.000000	1772739784.164759
-16269.255000	-19233.450000	-10487.610000	-3043.980000	-15318.855000	-9759.960000	-12708.945000	7326.495000	-11.354627	-1.879934	-6.535099	-2.565949	1.807319	4.287869	7.427396	6.373340	-3.006220	2.166920	-1.358140	0.876707	-0.099487	0.456664	-1.000000	-1.000000	-1.000000	-1.000000	-1.000000	-1.000000	-1.000000	58.758621	0.000000	-1.000000	-1.000000	1193128.000000	1772739784.164768
-16235.730000	-19187.640000	-10417.410000	-3013.380000	-15298.245000	-9746.775000	-12698.775000	7327.440000	-21.939249	-24.342755	-29.164743	-27.321277	-23.850938	-19.531677	-7.649851	4.783085	-3.006220	2.166920	-1.358140	0.876707	-0.099487	0.456664	-1.000000	-1.000000	-1.000000	-1.000000	-1.000000	-1.000000	-1.000000	58.758621	0.000000	-1.000000	-1.000000	1193129.000000	1772739784.171713
-16230.105000	-19197.765000	-10444.635000	-3015.270000	-15294.015000	-9741.870000	-12685.815000	7317.630000	-25.119890	-34.335605	-33.209105	-38.864718	-38.882056	-35.217689	-21.093603	3.669142	-3.006220	2.166920	-1.358140	0.876707	-0.099487	0.456664	-1.000000	-1.000000	-1.000000	-1.000000	-1.000000	-1.000000	-1.000000	58.758621	0.000000	-1.000000	-1.000000	1193130.000000	1772739784.171724
-16237.395000	-19178.325000	-10432.890000	-3001.410000	-15279.480000	-9733.005000	-12669.030000	7298.685000	-17.635836	-25.551660	-17.556192	-29.647887	-33.244610	-31.922115	-23.984825	-1.601207	-8.331960	0.427280	0.625660	0.874448	-0.093933	0.454833	-1.000000	-1.000000	-1.000000	-1.000000	-1.000000	-1.000000	-1.000000	58.758621	0.000000	-1.000000	-1.000000	1193131.000000	1772739784.172886
-16249.005000	-19157.580000	-10422.180000	-2997.630000	-15278.805000	-9742.095000	-12668.445000	7263.405000	-3.307297	-4.994018	4.652402	-6.649551	-11.350189	-12.259173	-14.502654	-10.805730	-8.331960	0.427280	0.625660	0.874448	-0.093933	0.454833	-1.000000	-1.000000	-1.000000	-1.000000	-1.000000	-1.000000	-1.000000	58.758621	0.000000	-1.000000	-1.000000	1193132.000000	1772739784.172893
-16220.115000	-19134.270000	-10401.300000	-2968.515000	-15253.965000	-9722.745000	-12676.680000	7270.785000	12.382630	16.929253	21.539659	17.670725	14.548077	12.280448	1.210630	-18.010927	-8.331960	0.427280	0.625660	0.874448	-0.093933	0.454833	-1.000000	-1.000000	-1.000000	-1.000000	-1.000000	-1.000000	-1.000000	58.758621	0.000000	-1.000000	-1.000000	1193133.000000	1772739784.176626
-16204.095000	-19167.345000	-10419.120000	-2980.800000	-15265.485000	-9728.190000	-12682.530000	7316.235000	24.457719	30.699480	27.310934	32.338371	31.732796	28.744720	13.394301	-17.018787	-8.331960	0.427280	0.625660	0.874448	-0.093933	0.454833	-1.000000	-1.000000	-1.000000	-1.000000	-1.000000	-1.000000	-1.000000	58.758621	0.000000	-1.000000	-1.000000	1193134.000000	1772739784.176648
-16214.580000	-19170.765000	-10423.710000	-2988.630000	-15270.480000	-9720.045000	-12657.015000	7330.185000	28.547700	30.326605	22.046061	32.229782	33.247479	30.124588	16.792646	-5.660313	-8.331960	0.427280	0.625660	0.874448	-0.093933	0.454833	-1.000000	-1.000000	-1.000000	-1.000000	-1.000000	-1.000000	-1.000000	58.758621	0.000000	-1.000000	-1.000000	1193135.000000	1772739784.184263
-16217.415000	-19158.120000	-10406.340000	-2965.680000	-15245.280000	-9687.510000	-12649.410000	7302.870000	23.593082	18.713897	11.310531	20.941842	22.202291	19.918373	14.563861	11.293957	-8.331960	0.427280	0.625660	0.874448	-0.093933	0.454833	-1.000000	-1.000000	-1.000000	-1.000000	-1.000000	-1.000000	-1.000000	58.758621	0.000000	-1.000000	-1.000000	1193136.000000	1772739784.184272
-16233.525000	-19181.970000	-10430.010000	-2988.135000	-15270.795000	-9715.095000	-12690.405000	7321.860000	11.711969	3.981181	-0.181298	5.849049	6.910332	6.502833	10.930371	23.312460	-8.331960	0.427280	0.625660	0.874448	-0.093933	0.454833	-1.000000	-1.000000	-1.000000	-1.000000	-1.000000	-1.000000	-1.000000	58.758621	0.000000	-1.000000	-1.000000	1193137.000000	1772739784.191592
-16242.255000	-19205.280000	-10460.295000	-3016.980000	-15292.665000	-9736.740000	-12695.130000	7314.120000	-4.537479	-9.765140	-12.668232	-9.302958	-7.831304	-5.988045	4.706550	22.387995	-8.331960	0.427280	0.625660	0.874448	-0.093933	0.454833	-1.000000	-1.000000	-1.000000	-1.000000	-1.000000	-1.000000	-1.000000	58.758621	0.000000	-1.000000	-1.000000	1193138.000000	1772739784.191602
-16242.570000	-19189.395000	-10443.645000	-3001.545000	-15277.050000	-9727.740000	-12676.005000	7311.735000	-20.730995	-20.966113	-24.448743	-22.206978	-19.780216	-16.362670	-4.993885	9.599950	-8.331960	0.427280	0.625660	0.874448	-0.093933	0.454833	-1.000000	-1.000000	-1.000000	-1.000000	-1.000000	-1.000000	-1.000000	58.758621	0.000000	-1.000000	-1.000000	1193139.000000	1772739784.191612
-16237.080000	-19181.565000	-10440.540000	-3007.620000	-15290.730000	-9754.965000	-12673.665000	7335.045000	-29.526028	-25.755103	-28.537400	-28.050918	-25.211090	-21.787616	-13.730921	-6.246981	-8.331960	0.427280	0.625660	0.874448	-0.093933	0.454833	-1.000000	-1.000000	-1.000000	-1.000000	-1.000000	-1.000000	-1.000000	58.758621	0.000000	-1.000000	-1.000000	1193140.000000	1772739784.191616
-16231.005000	-19157.085000	-10420.110000	-2984.040000	-15268.815000	-9735.390000	-12674.160000	7278.795000	-25.462141	-20.924924	-20.359517	-23.211425	-21.401972	-19.625904	-16.227207	-15.753304	-13.199900	-0.732480	-0.305200	0.879881	-0.088928	0.455199	-1.000000	-1.000000	-1.000000	-1.000000	-1.000000	-1.000000	-1.000000	58.758621	0.000000	-1.000000	-1.000000	1193141.000000	1772739784.192653
-16246.125000	-19189.620000	-10457.730000	-3018.510000	-15297.255000	-9753.255000	-12692.970000	7292.070000	-10.984574	-8.434278	-3.730502	-10.099924	-10.363279	-10.808151	-11.687433	-16.756832	-13.199900	-0.732480	-0.305200	0.879881	-0.088928	0.455199	-1.000000	-1.000000	-1.000000	-1.000000	-1.000000	-1.000000	-1.000000	58.758621	0.000000	-1.000000	-1.000000	1193142.000000	1772739784.192667
-16246.710000	-19188.810000	-10447.020000	-3007.620000	-15285.915000	-9739.170000	-12681.855000	7297.065000	4.763959	5.450442	12.518346	4.300492	2.184452	0.276740	-3.637638	-13.037588	-13.199900	-0.732480	-0.305200	0.879881	-0.088928	0.455199	-1.000000	-1.000000	-1.000000	-1.000000	-1.000000	-1.000000	-1.000000	58.758621	0.000000	-1.000000	-1.000000	1193143.000000	1772739784.196839
-16218.585000	-19156.455000	-10407.645000	-2975.580000	-15256.485000	-9704.430000	-12664.755000	7217.685000	14.975807	15.734680	22.674913	15.064022	12.038764	9.686599	4.120681	-8.306505	-13.199900	-0.732480	-0.305200	0.879881	-0.088928	0.455199	-1.000000	-1.000000	-1.000000	-1.000000	-1.000000	-1.000000	-1.000000	58.758621	0.000000	-1.000000	-1.000000	1193144.000000	1772739784.196846
-16199.730000	-19151.550000	-10409.490000	-2974.725000	-15254.460000	-9696.105000	-12638.205000	7349.715000	19.377744	20.981685	25.680490	20.941658	17.966236	15.805728	10.221985	-3.165279	-13.199900	-0.732480	-0.305200	0.879881	-0.088928	0.455199	-1.000000	-1.000000	-1.000000	-1.000000	-1.000000	-1.000000	-1.000000	58.758621	0.000000	-1.000000	-1.000000	1193145.000000	1772739784.201556
-16230.195000	-19176.930000	-10435.770000	-2998.845000	-15278.895000	-9722.025000	-12653.730000	7397.460000	18.815042	20.121072	20.782999	20.559460	18.554316	17.231150	14.240895	5.750562	-13.199900	-0.732480	-0.305200	0.879881	-0.088928	0.455199	-1.000000	-1.000000	-1.000000	-1.000000	-1.000000	-1.000000	-1.000000	58.620690	0.000000	-1.000000	-1.000000	1193146.000000	1772739784.201564
-16253.820000	-19192.905000	-10449.045000	-3011.130000	-15289.425000	-9738.180000	-12686.715000	7314.435000	11.988330	12.049898	8.421158	12.995255	12.565159	12.623191	13.749256	17.576029	-13.199900	-0.732480	-0.305200	0.879881	-0.088928	0.455199	-1.000000	-1.000000	-1.000000	-1.000000	-1.000000	-1.000000	-1.000000	58.620690	0.000000	-1.000000	-1.000000	1193147.000000	1772739784.204747
-16255.035000	-19177.965000	-10430.460000	-3004.020000	-15283.440000	-9742.905000	-12673.440000	7277.760000	-0.408690	-1.169214	-6.731243	0.743832	1.786450	3.054711	6.163784	21.817402	-13.199900	-0.732480	-0.305200	0.879881	-0.088928	0.455199	-1.000000	-1.000000	-1.000000	-1.000000	-1.000000	-1.000000	-1.000000	58.620690	0.000000	-1.000000	-1.000000	1193148.000000	1772739784.204753
-16260.705000	-19167.930000	-10424.655000	-3020.940000	-15297.165000	-9754.740000	-12664.665000	7291.800000	-12.843719	-13.739228	-17.767097	-11.012357	-8.990222	-7.182742	-5.611555	11.864065	-13.199900	-0.732480	-0.305200	0.879881	-0.088928	0.455199	-1.000000	-1.000000	-1.000000	-1.000000	-1.000000	-1.000000	-1.000000	58.620690	0.000000	-1.000000	-1.000000	1193149.000000	1772739784.212673
-16245.180000	-19180.665000	-10461.330000	-3040.515000	-15311.520000	-9759.915000	-12670.380000	7330.050000	-18.661619	-19.888960	-20.643170	-17.938734	-15.379069	-13.479502	-14.175402	-4.096760	-13.199900	-0.732480	-0.305200	0.879881	-0.088928	0.455199	-1.000000	-1.000000	-1.000000	-1.000000	-1.000000	-1.000000	-1.000000	58.620690	0.000000	-1.000000	-1.000000	1193150.000000	1772739784.212683
-16252.020000	-19198.710000	-10488.330000	-3025.530000	-15301.800000	-9750.645000	-12661.110000	7326.360000	-15.182847	-17.623039	-16.492527	-17.955375	-15.499494	-13.811021	-14.631740	-13.494501	-14.252840	-0.030520	0.000000	0.883970	-0.093750	0.453002	-1.000000	-1.000000	-1.000000	-1.000000	-1.000000	-1.000000	-1.000000	58.620690	0.000000	-1.000000	-1.000000	1193151.000000	1772739784.212862
-16224.705000	-19160.730000	-10404.765000	-2947.995000	-15229.710000	-9682.290000	-12633.660000	7275.060000	-4.906445	-8.638737	-7.881519	-9.877070	-8.692689	-8.016817	-7.620145	-13.013446	-14.252840	-0.030520	0.000000	0.883970	-0.093750	0.453002	-1.000000	-1.000000	-1.000000	-1.000000	-1.000000	-1.000000	-1.000000	58.620690	0.000000	-1.000000	-1.000000	1193152.000000	1772739784.212870
-16225.380000	-19144.260000	-10378.980000	-2924.730000	-15202.890000	-9655.290000	-12654.090000	7223.220000	6.509630	3.266730	3.884273	4.790137	3.746828	2.343443	1.957509	-8.332953	-14.252840	-0.030520	0.000000	0.883970	-0.093750	0.453002	-1.000000	-1.000000	-1.000000	-1.000000	-1.000000	-1.000000	-1.000000	58.620690	0.000000	-1.000000	-1.000000	1193153.000000	1772739784.216629
-16222.995000	-19156.635000	-10406.115000	-2960.370000	-15242.535000	-9697.365000	-12675.150000	7284.870000	13.282447	13.050950	15.210479	18.661102	15.743103	12.085983	7.674754	-6.450070	-14.252840	-0.030520	0.000000	0.883970	-0.093750	0.453002	-1.000000	-1.000000	-1.000000	-1.000000	-1.000000	-1.000000	-1.000000	58.620690	0.000000	-1.000000	-1.000000	1193154.000000	1772739784.216636
-16196.760000	-19186.290000	-10450.980000	-3018.105000	-15298.740000	-9746.505000	-12664.575000	7381.260000	13.516858	16.254670	19.495603	22.021361	18.692398	14.260985	6.827223	-6.572670	-14.252840	-0.030520	0.000000	0.883970	-0.093750	0.453002	-1.000000	-1.000000	-1.000000	-1.000000	-1.000000	-1.000000	-1.000000	58.620690	0.000000	-1.000000	-1.000000	1193155.000000	1772739784.220864
-16214.175000	-19207.395000	-10477.440000	-3046.995000	-15325.380000	-9776.520000	-12676.005000	7378.200000	9.724979	11.262854	12.784658	10.956283	8.739362	6.140057	2.571424	0.011538	-14.252840	-0.030520	0.000000	0.883970	-0.093750	0.453002	-1.000000	-1.000000	-1.000000	-1.000000	-1.000000	-1.000000	-1.000000	58.620690	0.000000	-1.000000	-1.000000	1193156.000000	1772739784.220871
-16240.455000	-19205.505000	-10472.895000	-3042.855000	-15323.445000	-9783.270000	-12686.490000	7319.970000	3.895577	0.286187	-1.982041	-8.384466	-8.602928	-7.427088	-1.303008	14.295970	-14.252840	-0.030520	0.000000	0.883970	-0.093750	0.453002	-1.000000	-1.000000	-1.000000	-1.000000	-1.000000	-1.000000	-1.000000	58.620690	0.000000	-1.000000	-1.000000	1193157.000000	1772739784.230146
-16252.020000	-19187.055000	-10455.345000	-3025.485000	-15305.940000	-9766.980000	-12689.775000	7286.445000	-3.863970	-10.699787	-15.711179	-23.177015	-21.520386	-17.034731	-3.751441	23.493986	-14.252840	-0.030520	0.000000	0.883970	-0.093750	0.453002	-1.000000	-1.000000	-1.000000	-1.000000	-1.000000	-1.000000	-1.000000	58.620690	0.000000	-1.000000	-1.000000	1193158.000000	1772739784.230156
-16249.140000	-19199.745000	-10449.540000	-3009.060000	-15282.180000	-9735.255000	-12662.685000	7344.360000	-11.756160	-14.805216	-18.687571	-23.261054	-20.716344	-15.567112	-3.977113	17.425276	-14.252840	-0.030520	0.000000	0.883970	-0.093750	0.453002	-1.000000	-1.000000	-1.000000	-1.000000	-1.000000	-1.000000	-1.000000	58.620690	0.000000	-1.000000	-1.000000	1193159.000000	1772739784.230166
-16239.060000	-19211.355000	-10464.210000	-3021.210000	-15291.720000	-9737.100000	-12663.630000	7342.020000	-15.713981	-9.942877	-9.067297	-9.673217	-7.192256	-3.977362	-1.164163	1.281069	-14.252840	-0.030520	0.000000	0.883970	-0.093750	0.453002	-1.000000	-1.000000	-1.000000	-1.000000	-1.000000	-1.000000	-1.000000	58.620690	0.000000	-1.000000	-1.000000	1193160.000000	1772739784.230170
-16208.865000	-19191.420000	-10453.095000	-3010.680000	-15281.910000	-9721.080000	-12662.370000	7329.420000	-12.788437	-0.798528	4.115637	6.104576	8.125238	8.697532	2.870738	-11.593105	-6.348160	-0.427280	-0.412020	0.885130	-0.105774	0.448180	-1.000000	-1.000000	-1.000000	-1.000000	-1.000000	-1.000000	-1.000000	58.620690	0.000000	-1.000000	-1.000000	1193161.000000	1772739784.234172
-16177.770000	-19151.595000	-10424.745000	-2987.865000	-15264.945000	-9709.740000	-12669.570000	7307.910000	-3.520056	6.923640	10.784916	13.851539	15.085557	13.874068	5.157142	-14.474590	-6.348160	-0.427280	-0.412020	0.885130	-0.105774	0.448180	-1.000000	-1.000000	-1.000000	-1.000000	-1.000000	-1.000000	-1.000000	58.620690	0.000000	-1.000000	-1.000000	1193162.000000	1772739784.234180
-16235.055000	-19169.775000	-10427.535000	-2986.425000	-15262.470000	-9714.195000	-12673.845000	7234.740000	7.368940	11.513241	10.412551	13.871865	13.781749	11.688000	4.873965	-13.291545	-6.348160	-0.427280	-0.412020	0.885130	-0.105774	0.448180	-1.000000	-1.000000	-1.000000	-1.000000	-1.000000	-1.000000	-1.000000	58.620690	0.000000	-1.000000	-1.000000	1193163.000000	1772739784.236746
-16296.840000	-19204.965000	-10450.485000	-3008.205000	-15282.045000	-9734.040000	-12657.330000	7246.710000	11.825219	12.565757	8.147639	11.924061	10.319146	7.632506	3.139794	-16.527642	-6.348160	-0.427280	-0.412020	0.885130	-0.105774	0.448180	-1.000000	-1.000000	-1.000000	-1.000000	-1.000000	-1.000000	-1.000000	58.620690	0.000000	-1.000000	-1.000000	1193164.000000	1772739784.236754
-16305.930000	-19214.775000	-10453.050000	-3014.955000	-15292.485000	-9752.895000	-12653.820000	7340.625000	5.672261	8.618981	6.022669	9.965735	7.389596	4.443186	1.489804	-19.715731	-6.348160	-0.427280	-0.412020	0.885130	-0.105774	0.448180	-1.000000	-1.000000	-1.000000	-1.000000	-1.000000	-1.000000	-1.000000	58.620690	0.000000	-1.000000	-1.000000	1193165.000000	1772739784.241149
-16301.745000	-19205.820000	-10448.955000	-3011.580000	-15290.145000	-9750.375000	-12656.520000	7345.395000	-4.965766	0.161672	2.677135	5.988096	3.381125	1.064521	0.620872	-9.747127	-6.348160	-0.427280	-0.412020	0.885130	-0.105774	0.448180	-1.000000	-1.000000	-1.000000	-1.000000	-1.000000	-1.000000	-1.000000	58.620690	0.000000	-1.000000	-1.000000	1193166.000000	1772739784.241157
-16228.980000	-19174.140000	-10441.665000	-3008.205000	-15287.760000	-9743.355000	-12660.615000	7319.745000	-9.093585	-8.267104	-2.229707	-0.895633	-2.772528	-3.519161	-0.261373	13.588340	-6.348160	-0.427280	-0.412020	0.885130	-0.105774	0.448180	-1.000000	-1.000000	-1.000000	-1.000000	-1.000000	-1.000000	-1.000000	58.620690	0.000000	-1.000000	-1.000000	1193167.000000	1772739784.244888
-16177.950000	-19142.460000	-10429.110000	-2997.630000	-15277.770000	-9730.530000	-12662.055000	7300.305000	-0.913959	-10.490097	-6.338315	-8.416731	-9.328929	-8.319077	-2.402766	32.915071	-6.348160	-0.427280	-0.412020	0.885130	-0.105774	0.448180	-1.000000	-1.000000	-1.000000	-1.000000	-1.000000	-1.000000	-1.000000	58.620690	0.000000	-1.000000	-1.000000	1193168.000000	1772739784.244896
-16186.095000	-19129.725000	-10405.260000	-2967.795000	-15245.280000	-9691.020000	-12650.175000	7254.180000	14.485246	-4.444891	-7.032070	-12.826955	-12.882093	-10.819219	-5.532243	32.772988	-6.348160	-0.427280	-0.412020	0.885130	-0.105774	0.448180	-1.000000	-1.000000	-1.000000	-1.000000	-1.000000	-1.000000	-1.000000	58.620690	0.000000	-1.000000	-1.000000	1193169.000000	1772739784.250578
-16211.970000	-19143.630000	-10407.285000	-2965.815000	-15244.245000	-9690.390000	-12663.315000	7283.745000	23.581734	4.105110	-4.760929	-12.054641	-11.268323	-9.134138	-7.478723	14.878459	-6.348160	-0.427280	-0.412020	0.885130	-0.105774	0.448180	-1.000000	-1.000000	-1.000000	-1.000000	-1.000000	-1.000000	-1.000000	58.620690	0.000000	-1.000000	-1.000000	1193170.000000	1772739784.250587
-16195.770000	-19150.830000	-10419.795000	-2982.510000	-15262.830000	-9714.780000	-12676.410000	7353.810000	17.029492	6.712142	-2.592740	-7.596635	-5.917208	-4.383020	-6.531399	-5.558805	-0.167860	-0.335720	0.763000	0.887022	-0.112060	0.443847	-1.000000	-1.000000	-1.000000	-1.000000	-1.000000	-1.000000	-1.000000	58.620690	0.000000	-1.000000	-1.000000	1193171.000000	1772739784.252808
-16211.610000	-19167.345000	-10430.685000	-2990.745000	-15267.555000	-9720.045000	-12664.440000	7339.995000	-0.227003	1.469622	-2.246638	-2.438396	-0.127149	0.561067	-3.044782	-14.256567	-0.167860	-0.335720	0.763000	0.887022	-0.112060	0.443847	-1.000000	-1.000000	-1.000000	-1.000000	-1.000000	-1.000000	-1.000000	58.620690	0.000000	-1.000000	-1.000000	1193172.000000	1772739784.252814
-16237.305000	-19172.925000	-10437.930000	-3004.110000	-15284.970000	-9750.555000	-12686.130000	7293.825000	-15.400696	-5.894192	-2.372649	1.891078	4.136962	3.965531	1.112982	-11.045098	-0.167860	-0.335720	0.763000	0.887022	-0.112060	0.443847	-1.000000	-1.000000	-1.000000	-1.000000	-1.000000	-1.000000	-1.000000	58.620690	0.000000	-1.000000	-1.000000	1193173.000000	1772739784.256888
-16211.205000	-19166.760000	-10428.705000	-2995.380000	-15276.240000	-9743.310000	-12661.110000	7318.440000	-20.355338	-9.170608	-1.178892	4.986059	6.364047	5.432885	4.015090	-6.866813	-0.167860	-0.335720	0.763000	0.887022	-0.112060	0.443847	-1.000000	-1.000000	-1.000000	-1.000000	-1.000000	-1.000000	-1.000000	58.620690	0.000000	-1.000000	-1.000000	1193174.000000	1772739784.256895
-16208.325000	-19167.120000	-10432.395000	-2997.270000	-15275.520000	-9733.860000	-12652.065000	7320.330000	-15.330787	-7.085951	1.172557	6.325781	6.468026	5.221334	5.598885	-7.467666	-0.167860	-0.335720	0.763000	0.887022	-0.112060	0.443847	-1.000000	-1.000000	-1.000000	-1.000000	-1.000000	-1.000000	-1.000000	58.620690	0.000000	-1.000000	-1.000000	1193175.000000	1772739784.260744
-16228.980000	-19182.690000	-10444.905000	-3005.730000	-15280.155000	-9730.755000	-12659.490000	7295.940000	-7.067539	-2.878934	2.949934	5.314959	4.531056	3.808639	6.561319	-9.195750	-0.167860	-0.335720	0.763000	0.887022	-0.112060	0.443847	-1.000000	-1.000000	-1.000000	-1.000000	-1.000000	-1.000000	-1.000000	58.620690	0.000000	-1.000000	-1.000000	1193176.000000	1772739784.260750
-16195.590000	-19175.310000	-10435.905000	-2995.155000	-15268.320000	-9712.215000	-12658.365000	7289.685000	-2.710740	-0.293157	2.621319	1.970568	0.945560	1.406145	5.991502	-7.812367	-0.167860	-0.335720	0.763000	0.887022	-0.112060	0.443847	-1.000000	-1.000000	-1.000000	-1.000000	-1.000000	-1.000000	-1.000000	58.620690	0.000000	-1.000000	-1.000000	1193177.000000	1772739784.268874
-16197.930000	-19189.755000	-10457.055000	-3018.150000	-15292.755000	-9731.295000	-12687.120000	7344.945000	-2.258717	-0.167592	-0.000111	-2.782671	-3.552463	-2.009288	2.586426	-1.516068	-0.167860	-0.335720	0.763000	0.887022	-0.112060	0.443847	-1.000000	-1.000000	-1.000000	-1.000000	-1.000000	-1.000000	-1.000000	58.620690	0.000000	-1.000000	-1.000000	1193178.000000	1772739784.268882
-16213.410000	-19164.690000	-10434.960000	-3000.150000	-15277.500000	-9723.285000	-12681.945000	7304.400000	-1.211541	-0.408225	-3.321774	-6.962762	-7.459203	-5.657472	-2.776510	7.797568	-0.167860	-0.335720	0.763000	0.887022	-0.112060	0.443847	-1.000000	-1.000000	-1.000000	-1.000000	-1.000000	-1.000000	-1.000000	58.620690	0.000000	-1.000000	-1.000000	1193179.000000	1772739784.281821
-16225.020000	-19163.070000	-10427.175000	-2991.240000	-15268.905000	-9721.215000	-12682.575000	7286.760000	2.009368	1.891485	-3.900504	-7.171696	-7.662611	-6.707338	-6.798114	12.560628	-0.167860	-0.335720	0.763000	0.887022	-0.112060	0.443847	-1.000000	-1.000000	-1.000000	-1.000000	-1.000000	-1.000000	-1.000000	58.620690	0.000000	-1.000000	-1.000000	1193180.000000	1772739784.281832
-16232.220000	-19192.095000	-10455.480000	-3021.120000	-15297.840000	-9757.755000	-12694.365000	7328.970000	6.224872	7.026826	0.168845	-1.731541	-2.424970	-3.141409	-6.986357	8.519413	0.228900	-0.167860	0.778260	0.887205	-0.107605	0.441344	-1.000000	-1.000000	-1.000000	-1.000000	-1.000000	-1.000000	-1.000000	58.620690	0.000000	-1.000000	-1.000000	1193181.000000	1772739784.281842
-16225.335000	-19180.215000	-10451.070000	-3020.985000	-15299.595000	-9766.215000	-12666.645000	7343.460000	10.245004	11.383133	5.903879	5.854646	5.059222	2.732800	-3.677654	1.507120	0.228900	-0.167860	0.778260	0.887205	-0.107605	0.441344	-1.000000	-1.000000	-1.000000	-1.000000	-1.000000	-1.000000	-1.000000	58.620690	0.000000	-1.000000	-1.000000	1193182.000000	1772739784.281846
-16192.890000	-19132.245000	-10403.505000	-2973.915000	-15252.390000	-9719.235000	-12620.295000	7363.800000	12.649226	11.870027	9.269635	10.783552	10.238570	7.295522	1.901310	-1.551963	0.228900	-0.167860	0.778260	0.887205	-0.107605	0.441344	-1.000000	-1.000000	-1.000000	-1.000000	-1.000000	-1.000000	-1.000000	58.620690	0.000000	-1.000000	-1.000000	1193183.000000	1772739784.281851
-16172.640000	-19092.780000	-10359.225000	-2928.780000	-15205.320000	-9669.015000	-12611.385000	7305.435000	12.108600	9.581745	10.222397	12.357428	12.304664	9.879428	8.216728	-0.815549	0.228900	-0.167860	0.778260	0.887205	-0.107605	0.441344	-1.000000	-1.000000	-1.000000	-1.000000	-1.000000	-1.000000	-1.000000	58.620690	0.000000	-1.000000	-1.000000	1193184.000000	1772739784.281855
-16285.590000	-19188.225000	-10450.125000	-3019.995000	-15291.225000	-9740.070000	-12690.270000	7200.450000	6.682463	5.465222	9.097785	10.735322	11.169264	10.027607	11.159844	-1.842213	0.228900	-0.167860	0.778260	0.887205	-0.107605	0.441344	-1.000000	-1.000000	-1.000000	-1.000000	-1.000000	-1.000000	-1.000000	58.620690	0.000000	-1.000000	-1.000000	1193185.000000	1772739784.281859
-16320.330000	-19207.575000	-10458.495000	-3016.080000	-15283.170000	-9724.095000	-12679.245000	7240.005000	-6.269961	-3.226554	2.522705	3.120055	4.003893	4.683365	6.176727	-8.094358	0.228900	-0.167860	0.778260	0.887205	-0.107605	0.441344	-1.000000	-1.000000	-1.000000	-1.000000	-1.000000	-1.000000	-1.000000	58.620690	0.000000	-1.000000	-1.000000	1193186.000000	1772739784.281862
-16234.695000	-19146.240000	-10389.015000	-2936.070000	-15206.895000	-9654.885000	-12634.110000	7268.805000	-21.807247	-15.182264	-8.755890	-8.534584	-7.248358	-4.736131	-3.826528	-14.480344	0.228900	-0.167860	0.778260	0.887205	-0.107605	0.441344	-1.000000	-1.000000	-1.000000	-1.000000	-1.000000	-1.000000	-1.000000	58.620690	0.000000	-1.000000	-1.000000	1193187.000000	1772739784.284706
-16194.555000	-19202.175000	-10457.415000	-3015.540000	-15290.280000	-9742.545000	-12696.075000	7350.660000	-25.555166	-22.231543	-16.919941	-15.901307	-14.577993	-11.197776	-10.514835	-11.567138	0.228900	-0.167860	0.778260	0.887205	-0.107605	0.441344	-1.000000	-1.000000	-1.000000	-1.000000	-1.000000	-1.000000	-1.000000	58.620690	0.000000	-1.000000	-1.000000	1193188.000000	1772739784.284715
-16222.230000	-19210.005000	-10475.235000	-3039.975000	-15316.515000	-9771.030000	-12689.730000	7385.085000	-10.437738	-19.719818	-17.804034	-16.089541	-15.464662	-12.621301	-11.040298	4.017099	0.228900	-0.167860	0.778260	0.887205	-0.107605	0.441344	-1.000000	-1.000000	-1.000000	-1.000000	-1.000000	-1.000000	-1.000000	58.620690	0.000000	-1.000000	-1.000000	1193189.000000	1772739784.288858
-16220.880000	-19185.750000	-10459.395000	-3030.795000	-15309.630000	-9775.080000	-12689.865000	7323.705000	13.190252	-9.369839	-12.725036	-11.937913	-12.602718	-11.240658	-7.782747	22.907397	0.228900	-0.167860	0.778260	0.887205	-0.107605	0.441344	-1.000000	-1.000000	-1.000000	-1.000000	-1.000000	-1.000000	-1.000000	58.620690	0.000000	-1.000000	-1.000000	1193190.000000	1772739784.288866
-16212.645000	-19173.645000	-10447.515000	-3018.150000	-15295.770000	-9761.490000	-12685.185000	7316.955000	28.690061	4.744566	-3.344335	-4.808615	-6.604261	-6.936122	-3.139486	28.765345	-2.029580	0.076300	-1.129240	0.883115	-0.104492	0.436278	-1.000000	-1.000000	-1.000000	-1.000000	-1.000000	-1.000000	-1.000000	58.620690	0.000000	-1.000000	-1.000000	1193191.000000	1772739784.292751
-16195.365000	-19147.815000	-10409.220000	-2972.880000	-15249.645000	-9715.050000	-12684.645000	7281.405000	27.118806	16.271376	7.045782	3.767898	1.750443	0.066455	0.370088	14.976213	-2.029580	0.076300	-1.129240	0.883115	-0.104492	0.436278	-1.000000	-1.000000	-1.000000	-1.000000	-1.000000	-1.000000	-1.000000	58.620690	0.000000	-1.000000	-1.000000	1193192.000000	1772739784.292758
-16226.730000	-19163.520000	-10424.115000	-2989.440000	-15268.455000	-9730.845000	-12694.635000	7230.060000	11.364621	19.793031	14.143575	10.874649	9.571125	7.108054	1.838861	-8.498805	-2.029580	0.076300	-1.129240	0.883115	-0.104492	0.436278	-1.000000	-1.000000	-1.000000	-1.000000	-1.000000	-1.000000	-1.000000	58.620690	0.000000	-1.000000	-1.000000	1193193.000000	1772739784.296820
-16249.680000	-19204.515000	-10465.470000	-3026.160000	-15299.640000	-9746.010000	-12686.220000	7320.060000	-7.588223	15.385333	15.896503	14.294752	14.021447	11.423128	3.682649	-24.137957	-2.029580	0.076300	-1.129240	0.883115	-0.104492	0.436278	-1.000000	-1.000000	-1.000000	-1.000000	-1.000000	-1.000000	-1.000000	58.620690	0.000000	-1.000000	-1.000000	1193194.000000	1772739784.296828
-16259.445000	-19217.655000	-10476.045000	-3031.245000	-15299.775000	-9738.765000	-12672.765000	7347.780000	-19.539856	6.260227	11.701939	12.145186	12.802673	11.028373	7.569864	-20.926559	-2.029580	0.076300	-1.129240	0.883115	-0.104492	0.436278	-1.000000	-1.000000	-1.000000	-1.000000	-1.000000	-1.000000	-1.000000	58.620690	0.000000	-1.000000	-1.000000	1193195.000000	1772739784.302401
-16252.965000	-19204.560000	-10464.930000	-3025.035000	-15297.255000	-9741.645000	-12668.940000	7327.035000	-22.254183	-4.436852	2.325331	4.014797	5.524683	5.687863	11.167553	-4.400908	-2.029580	0.076300	-1.129240	0.883115	-0.104492	0.436278	-1.000000	-1.000000	-1.000000	-1.000000	-1.000000	-1.000000	-1.000000	58.620690	0.000000	-1.000000	-1.000000	1193196.000000	1772739784.302410
-16243.155000	-19185.705000	-10446.255000	-3012.120000	-15287.130000	-9737.955000	-12664.125000	7320.825000	-18.541006	-11.740658	-6.821114	-5.024406	-2.940832	-0.623086	11.658716	8.925339	-2.029580	0.076300	-1.129240	0.883115	-0.104492	0.436278	-1.000000	-1.000000	-1.000000	-1.000000	-1.000000	-1.000000	-1.000000	58.620690	0.000000	-1.000000	-1.000000	1193197.000000	1772739784.311634
-16237.170000	-19187.955000	-10446.255000	-3014.235000	-15292.935000	-9755.190000	-12667.635000	7323.435000	-9.815431	-10.740531	-8.677980	-7.469607	-5.597989	-2.428652	8.622172	8.918628	-2.029580	0.076300	-1.129240	0.883115	-0.104492	0.436278	-1.000000	-1.000000	-1.000000	-1.000000	-1.000000	-1.000000	-1.000000	58.620690	0.000000	-1.000000	-1.000000	1193198.000000	1772739784.311644
-16232.850000	-19187.235000	-10450.080000	-3014.775000	-15287.265000	-9756.405000	-12675.870000	7310.745000	2.536522	-3.205092	-3.166380	-2.496932	-1.650526	0.398247	2.375520	-0.145464	-2.029580	0.076300	-1.129240	0.883115	-0.104492	0.436278	-1.000000	-1.000000	-1.000000	-1.000000	-1.000000	-1.000000	-1.000000	58.620690	0.000000	-1.000000	-1.000000	1193199.000000	1772739784.311892
-16222.365000	-19166.850000	-10444.140000	-3001.860000	-15271.740000	-9740.250000	-12676.905000	7274.250000	13.592382	3.692384	2.644018	3.297484	3.019221	2.724242	-6.242953	-8.319970	-2.029580	0.076300	-1.129240	0.883115	-0.104492	0.436278	-1.000000	-1.000000	-1.000000	-1.000000	-1.000000	-1.000000	-1.000000	58.620690	0.000000	-1.000000	-1.000000	1193200.000000	1772739784.311900
-16216.515000	-19120.860000	-10404.945000	-2954.835000	-15227.325000	-9693.090000	-12646.305000	7298.685000	18.031147	5.704000	3.288931	4.340411	3.453102	1.045585	-13.801025	-9.279859	-2.411080	-0.625660	-1.663340	0.876890	-0.107727	0.433837	-1.000000	-1.000000	-1.000000	-1.000000	-1.000000	-1.000000	-1.000000	58.620690	0.000000	-1.000000	-1.000000	1193201.000000	1772739784.319154
-16213.140000	-19143.450000	-10416.510000	-2965.140000	-15237.495000	-9695.925000	-12667.590000	7331.580000	15.619962	4.776160	0.550092	1.926689	0.848106	-2.346958	-15.380024	-1.032728	-2.411080	-0.625660	-1.663340	0.876890	-0.107727	0.433837	-1.000000	-1.000000	-1.000000	-1.000000	-1.000000	-1.000000	-1.000000	58.620690	0.000000	-1.000000	-1.000000	1193202.000000	1772739784.319161
-16236.450000	-19217.340000	-10469.880000	-3026.340000	-15295.590000	-9744.975000	-12696.390000	7321.680000	10.113324	3.230416	-1.323160	-0.428865	-1.649932	-4.181201	-10.450882	11.461054	-2.411080	-0.625660	-1.663340	0.876890	-0.107727	0.433837	-1.000000	-1.000000	-1.000000	-1.000000	-1.000000	-1.000000	-1.000000	58.620690	0.000000	-1.000000	-1.000000	1193203.000000	1772739784.319170
-16238.790000	-19214.730000	-10476.090000	-3021.930000	-15286.275000	-9738.270000	-12677.805000	7278.120000	3.429658	-0.640818	-2.600860	-3.384824	-4.653204	-5.593812	-3.873197	16.699250	-2.411080	-0.625660	-1.663340	0.876890	-0.107727	0.433837	-1.000000	-1.000000	-1.000000	-1.000000	-1.000000	-1.000000	-1.000000	58.620690	0.000000	-1.000000	-1.000000	1193204.000000	1772739784.319174
-16211.520000	-19173.915000	-10469.295000	-2975.625000	-15232.275000	-9691.605000	-12656.970000	7233.345000	-4.252273	-6.730929	-5.055874	-7.104651	-7.773792	-6.880021	1.234913	7.934347	-2.411080	-0.625660	-1.663340	0.876890	-0.107727	0.433837	-1.000000	-1.000000	-1.000000	-1.000000	-1.000000	-1.000000	-1.000000	58.620690	0.000000	-1.000000	-1.000000	1193205.000000	1772739784.320791
-16299.090000	-19203.975000	-10480.905000	-3002.265000	-15264.090000	-9733.050000	-12686.130000	7215.345000	-11.631027	-10.212098	-7.056501	-7.665016	-6.892434	-4.675988	5.255903	-9.811505	-2.411080	-0.625660	-1.663340	0.876890	-0.107727	0.433837	-1.000000	-1.000000	-1.000000	-1.000000	-1.000000	-1.000000	-1.000000	58.620690	0.000000	-1.000000	-1.000000	1193206.000000	1772739784.320798
-16312.005000	-19192.005000	-10433.160000	-3017.025000	-15296.715000	-9773.550000	-12689.640000	7282.080000	-17.677272	-8.338066	-5.601737	-3.921294	-2.012965	0.509935	7.462955	-23.352954	-2.411080	-0.625660	-1.663340	0.876890	-0.107727	0.433837	-1.000000	-1.000000	-1.000000	-1.000000	-1.000000	-1.000000	-1.000000	58.620690	0.000000	-1.000000	-1.000000	1193207.000000	1772739784.325074
-16260.840000	-19133.550000	-10381.815000	-2993.130000	-15281.055000	-9761.265000	-12697.335000	7341.705000	-20.055375	-2.268502	1.019460	0.681957	1.699090	3.569588	6.468783	-19.807063	-2.411080	-0.625660	-1.663340	0.876890	-0.107727	0.433837	-1.000000	-1.000000	-1.000000	-1.000000	-1.000000	-1.000000	-1.000000	58.620690	0.000000	-1.000000	-1.000000	1193208.000000	1772739784.325082
-16236.990000	-19148.895000	-10416.780000	-3000.870000	-15283.170000	-9755.955000	-12691.755000	7312.545000	-14.148196	5.260708	10.106867	3.007729	1.190521	1.934009	2.909362	1.701498	-2.411080	-0.625660	-1.663340	0.876890	-0.107727	0.433837	-1.000000	-1.000000	-1.000000	-1.000000	-1.000000	-1.000000	-1.000000	58.620690	0.000000	-1.000000	-1.000000	1193209.000000	1772739784.335297
-16214.895000	-19203.300000	-10472.760000	-3058.290000	-15328.665000	-9782.730000	-12679.155000	7288.830000	0.667832	8.911604	13.287999	1.128032	-2.871011	-2.898543	-0.869283	25.872767	-2.411080	-0.625660	-1.663340	0.876890	-0.107727	0.433837	-1.000000	-1.000000	-1.000000	-1.000000	-1.000000	-1.000000	-1.000000	58.620690	0.000000	-1.000000	-1.000000	1193210.000000	1772739784.335307
-16183.440000	-19184.490000	-10430.685000	-3020.040000	-15282.270000	-9727.065000	-12653.730000	7387.155000	18.498854	5.741302	6.369440	-3.565754	-6.594359	-6.421528	-1.644026	35.255615	0.564620	-1.632820	-1.663340	0.876035	-0.108886	0.435485	-1.000000	-1.000000	-1.000000	-1.000000	-1.000000	-1.000000	-1.000000	58.620690	0.000000	-1.000000	-1.000000	1193211.000000	1772739784.335318
-16177.095000	-19117.080000	-10384.560000	-2954.160000	-15222.330000	-9676.935000	-12652.515000	7375.995000	31.128645	1.831850	-2.618381	-3.683308	-3.039624	-2.322832	2.076883	26.406646	0.564620	-1.632820	-1.663340	0.876035	-0.108886	0.435485	-1.000000	-1.000000	-1.000000	-1.000000	-1.000000	-1.000000	-1.000000	58.620690	0.000000	-1.000000	-1.000000	1193212.000000	1772739784.335322
-16204.455000	-19146.465000	-10420.020000	-2955.555000	-15228.945000	-9687.240000	-12653.370000	7342.470000	31.245325	3.756785	-4.416274	5.448517	9.441432	9.786085	6.886770	7.535921	0.564620	-1.632820	-1.663340	0.876035	-0.108886	0.435485	-1.000000	-1.000000	-1.000000	-1.000000	-1.000000	-1.000000	-1.000000	58.620690	0.000000	-1.000000	-1.000000	1193213.000000	1772739784.336938
-16219.620000	-19207.035000	-10457.145000	-3009.555000	-15284.430000	-9745.065000	-12665.610000	7317.090000	16.390237	6.955998	-1.177859	16.187625	20.649533	19.673817	7.317381	-12.165442	0.564620	-1.632820	-1.663340	0.876035	-0.108886	0.435485	-1.000000	-1.000000	-1.000000	-1.000000	-1.000000	-1.000000	-1.000000	58.620690	0.000000	-1.000000	-1.000000	1193214.000000	1772739784.336945
-16209.900000	-19172.250000	-10434.150000	-2999.790000	-15276.960000	-9748.980000	-12649.185000	7347.285000	-5.926497	3.456709	-0.394171	17.062620	19.322097	17.264919	2.288947	-25.952216	0.564620	-1.632820	-1.663340	0.876035	-0.108886	0.435485	-1.000000	-1.000000	-1.000000	-1.000000	-1.000000	-1.000000	-1.000000	58.620690	0.000000	-1.000000	-1.000000	1193215.000000	1772739784.343076
-16230.105000	-19175.265000	-10438.200000	-3005.190000	-15280.920000	-9752.535000	-12667.005000	7318.620000	-23.151777	-5.579071	-4.310094	6.690914	6.405853	4.347323	-4.281159	-30.576404	0.564620	-1.632820	-1.663340	0.876035	-0.108886	0.435485	-1.000000	-1.000000	-1.000000	-1.000000	-1.000000	-1.000000	-1.000000	58.620690	0.000000	-1.000000	-1.000000	1193216.000000	1772739784.343086
-16275.105000	-19216.170000	-10470.915000	-3032.955000	-15304.815000	-9769.725000	-12682.530000	7301.070000	-30.062618	-14.327885	-10.482651	-7.926342	-9.138054	-10.150242	-8.864576	-27.437977	0.564620	-1.632820	-1.663340	0.876035	-0.108886	0.435485	-1.000000	-1.000000	-1.000000	-1.000000	-1.000000	-1.000000	-1.000000	58.620690	0.000000	-1.000000	-1.000000	1193217.000000	1772739784.344805
-16281.630000	-19183.815000	-10432.080000	-2990.475000	-15261.345000	-9727.245000	-12669.300000	7297.740000	-29.499365	-18.668479	-14.182345	-18.864858	-19.435921	-19.103297	-10.634042	-18.646975	0.564620	-1.632820	-1.663340	0.876035	-0.108886	0.435485	-1.000000	-1.000000	-1.000000	-1.000000	-1.000000	-1.000000	-1.000000	58.620690	0.000000	-1.000000	-1.000000	1193218.000000	1772739784.344812
-16286.940000	-19189.395000	-10438.245000	-2993.760000	-15263.370000	-9722.340000	-12691.845000	7237.890000	-23.639417	-14.322865	-9.607611	-19.340407	-19.222794	-18.463132	-9.707209	-6.270305	0.564620	-1.632820	-1.663340	0.876035	-0.108886	0.435485	-1.000000	-1.000000	-1.000000	-1.000000	-1.000000	-1.000000	-1.000000	58.620690	0.000000	-1.000000	-1.000000	1193219.000000	1772739784.353686
-16234.290000	-19190.970000	-10450.395000	-3005.955000	-15273.720000	-9726.660000	-12689.550000	7305.930000	-11.691838	-1.071270	2.676865	-9.146359	-9.424457	-9.522589	-6.736108	4.781400	0.564620	-1.632820	-1.663340	0.876035	-0.108886	0.435485	-1.000000	-1.000000	-1.000000	-1.000000	-1.000000	-1.000000	-1.000000	58.620690	0.000000	-1.000000	-1.000000	1193220.000000	1772739784.353693
-16149.780000	-19185.030000	-10465.605000	-3029.355000	-15299.460000	-9755.055000	-12674.970000	7430.895000	7.079998	13.028078	13.611158	2.480682	1.103878	0.098930	-2.461455	14.055202	-0.885080	0.732480	-2.578940	0.878843	-0.104065	0.431578	-1.000000	-1.000000	-1.000000	-1.000000	-1.000000	-1.000000	-1.000000	58.620690	0.000000	-1.000000	-1.000000	1193221.000000	1772739784.353702
-16178.490000	-19182.240000	-10460.790000	-3027.690000	-15301.125000	-9762.390000	-12681.405000	7383.960000	28.965754	19.834306	16.324102	6.979047	4.904710	4.180710	2.836463	26.324367	-0.885080	0.732480	-2.578940	0.878843	-0.104065	0.431578	-1.000000	-1.000000	-1.000000	-1.000000	-1.000000	-1.000000	-1.000000	58.620690	0.000000	-1.000000	-1.000000	1193222.000000	1772739784.353707
-16214.310000	-19182.420000	-10455.840000	-3025.440000	-15301.215000	-9774.495000	-12689.460000	7326.855000	43.041880	18.534218	12.420466	5.451087	3.628309	4.092872	7.919195	36.631027	-0.885080	0.732480	-2.578940	0.878843	-0.104065	0.431578	-1.000000	-1.000000	-1.000000	-1.000000	-1.000000	-1.000000	-1.000000	58.620690	0.000000	-1.000000	-1.000000	1193223.000000	1772739784.356822
-16209.765000	-19172.745000	-10445.220000	-3015.135000	-15291.225000	-9769.770000	-12683.205000	7315.920000	38.895966	12.001545	6.251564	3.907414	3.170193	4.621962	10.600945	31.747159	-0.885080	0.732480	-2.578940	0.878843	-0.104065	0.431578	-1.000000	-1.000000	-1.000000	-1.000000	-1.000000	-1.000000	-1.000000	58.620690	0.000000	-1.000000	-1.000000	1193224.000000	1772739784.356829
-16201.890000	-19167.030000	-10440.630000	-3009.285000	-15284.565000	-9759.870000	-12690.720000	7293.960000	17.850027	2.785591	0.165867	5.030636	5.756310	7.344843	9.975045	8.997682	-0.885080	0.732480	-2.578940	0.878843	-0.104065	0.431578	-1.000000	-1.000000	-1.000000	-1.000000	-1.000000	-1.000000	-1.000000	58.620690	0.000000	-1.000000	-1.000000	1193225.000000	1772739784.360944
-16211.295000	-19174.905000	-10449.000000	-3016.305000	-15289.830000	-9760.140000	-12694.995000	7301.835000	-8.011011	-6.021584	-4.412942	7.050745	8.900563	9.883747	6.753893	-18.725729	-0.885080	0.732480	-2.578940	0.878843	-0.104065	0.431578	-1.000000	-1.000000	-1.000000	-1.000000	-1.000000	-1.000000	-1.000000	58.620690	0.000000	-1.000000	-1.000000	1193226.000000	1772739784.360952
-16230.780000	-19190.340000	-10448.685000	-3007.035000	-15276.195000	-9734.625000	-12673.530000	7347.285000	-26.542656	-11.675803	-6.708744	6.860653	8.927372	9.133772	2.276083	-34.205112	-0.885080	0.732480	-2.578940	0.878843	-0.104065	0.431578	-1.000000	-1.000000	-1.000000	-1.000000	-1.000000	-1.000000	-1.000000	58.620690	0.000000	-1.000000	-1.000000	1193227.000000	1772739784.365859
-16221.870000	-19188.540000	-10447.470000	-3003.210000	-15271.515000	-9723.150000	-12674.430000	7347.060000	-32.757584	-13.306445	-6.921240	3.431057	4.812214	4.621397	-1.469189	-29.238645	-0.885080	0.732480	-2.578940	0.878843	-0.104065	0.431578	-1.000000	-1.000000	-1.000000	-1.000000	-1.000000	-1.000000	-1.000000	58.620690	0.000000	-1.000000	-1.000000	1193228.000000	1772739784.365869
-16223.355000	-19179.180000	-10433.115000	-2986.695000	-15254.685000	-9708.885000	-12659.355000	7317.585000	-28.601068	-11.143098	-5.207431	-1.198775	-0.930695	-1.079123	-3.078740	-12.014213	-0.885080	0.732480	-2.578940	0.878843	-0.104065	0.431578	-1.000000	-1.000000	-1.000000	-1.000000	-1.000000	-1.000000	-1.000000	58.620690	0.000000	-1.000000	-1.000000	1193229.000000	1772739784.369026
-16220.745000	-19164.870000	-10421.865000	-2978.640000	-15249.465000	-9709.830000	-12659.040000	7312.230000	-19.159670	-5.978471	-1.492882	-4.095412	-4.759598	-4.796278	-3.105139	1.161741	-0.885080	0.732480	-2.578940	0.878843	-0.104065	0.431578	-1.000000	-1.000000	-1.000000	-1.000000	-1.000000	-1.000000	-1.000000	58.620690	0.000000	-1.000000	-1.000000	1193230.000000	1772739784.369033
-16217.505000	-19164.915000	-10425.555000	-2987.730000	-15260.580000	-9728.820000	-12662.415000	7320.735000	-7.454090	0.884622	3.259013	-4.040550	-5.075886	-5.247874	-2.800727	4.195787	-2.105880	1.327620	-1.129240	0.876890	-0.102905	0.428954	-1.000000	-1.000000	-1.000000	-1.000000	-1.000000	-1.000000	-1.000000	58.620690	0.000000	-1.000000	-1.000000	1193231.000000	1772739784.372901
-16234.020000	-19188.180000	-10453.905000	-3020.670000	-15294.195000	-9767.655000	-12676.230000	7312.860000	5.993882	6.762024	5.789274	-2.958055	-3.795064	-4.239671	-2.943087	4.045517	-2.105880	1.327620	-1.129240	0.876890	-0.102905	0.428954	-1.000000	-1.000000	-1.000000	-1.000000	-1.000000	-1.000000	-1.000000	58.620690	0.000000	-1.000000	-1.000000	1193232.000000	1772739784.372909
-16240.320000	-19195.920000	-10462.500000	-3029.805000	-15302.745000	-9772.605000	-12675.780000	7331.310000	17.997803	7.878550	2.720364	-4.063246	-4.357700	-4.829324	-3.746286	7.155525	-2.105880	1.327620	-1.129240	0.876890	-0.102905	0.428954	-1.000000	-1.000000	-1.000000	-1.000000	-1.000000	-1.000000	-1.000000	58.620690	0.000000	-1.000000	-1.000000	1193233.000000	1772739784.378769
-16221.420000	-19169.865000	-10433.115000	-2997.270000	-15270.705000	-9738.720000	-12661.380000	7334.325000	23.511390	3.869913	-4.245393	-6.983281	-6.767472	-6.943156	-4.137672	12.851575	-2.105880	1.327620	-1.129240	0.876890	-0.102905	0.428954	-1.000000	-1.000000	-1.000000	-1.000000	-1.000000	-1.000000	-1.000000	58.620690	0.000000	-1.000000	-1.000000	1193234.000000	1772739784.378776
-16210.845000	-19149.390000	-10409.940000	-2971.350000	-15244.200000	-9710.280000	-12663.225000	7311.105000	21.476978	-0.340814	-8.325801	-7.087102	-6.784819	-6.784112	-2.675376	16.117316	-2.105880	1.327620	-1.129240	0.876890	-0.102905	0.428954	-1.000000	-1.000000	-1.000000	-1.000000	-1.000000	-1.000000	-1.000000	58.620690	0.000000	-1.000000	-1.000000	1193235.000000	1772739784.380935
-16222.635000	-19173.105000	-10435.185000	-2994.120000	-15264.945000	-9722.205000	-12680.955000	7283.835000	14.520166	-0.480566	-5.455871	-2.012062	-2.135671	-2.504658	-0.211404	11.503283	-2.105880	1.327620	-1.129240	0.876890	-0.102905	0.428954	-1.000000	-1.000000	-1.000000	-1.000000	-1.000000	-1.000000	-1.000000	58.620690	0.000000	-1.000000	-1.000000	1193236.000000	1772739784.380943
-16207.425000	-19162.890000	-10425.420000	-2981.970000	-15250.995000	-9708.840000	-12668.715000	7300.800000	4.983998	2.081101	1.174945	4.625504	3.944251	2.881512	1.043890	-1.125333	-2.105880	1.327620	-1.129240	0.876890	-0.102905	0.428954	-1.000000	-1.000000	-1.000000	-1.000000	-1.000000	-1.000000	-1.000000	58.620690	0.000000	-1.000000	-1.000000	1193237.000000	1772739784.403036
-16196.940000	-19154.295000	-10419.165000	-2977.605000	-15249.285000	-9713.655000	-12671.460000	7343.910000	-5.131230	3.413320	6.051871	8.038686	7.210256	5.802832	0.617488	-13.840717	-2.105880	1.327620	-1.129240	0.876890	-0.102905	0.428954	-1.000000	-1.000000	-1.000000	-1.000000	-1.000000	-1.000000	-1.000000	58.620690	0.000000	-1.000000	-1.000000	1193238.000000	1772739784.403047
-16193.115000	-19132.380000	-10392.525000	-2952.765000	-15228.045000	-9702.540000	-12671.775000	7345.080000	-12.691932	2.170240	7.124275	7.342004	6.936579	5.886371	-0.230801	-17.167120	-2.105880	1.327620	-1.129240	0.876890	-0.102905	0.428954	-1.000000	-1.000000	-1.000000	-1.000000	-1.000000	-1.000000	-1.000000	58.620690	0.000000	-1.000000	-1.000000	1193239.000000	1772739784.403058
-16228.530000	-19147.815000	-10414.620000	-2979.765000	-15254.325000	-9733.725000	-12685.500000	7281.765000	-15.111042	-0.139648	5.551735	4.720474	5.024327	4.870566	-0.259667	-10.030844	-2.105880	1.327620	-1.129240	0.876890	-0.102905	0.428954	-1.000000	-1.000000	-1.000000	-1.000000	-1.000000	-1.000000	-1.000000	58.620690	0.000000	-1.000000	-1.000000	1193240.000000	1772739784.403062
-16239.330000	-19149.480000	-10419.030000	-2987.865000	-15257.925000	-9730.845000	-12655.260000	7288.560000	-12.825654	-2.044139	2.612944	1.857306	2.864080	3.906571	1.173465	-0.343730	1.968540	0.442540	-1.220800	0.870298	-0.108032	0.424987	-1.000000	-1.000000	-1.000000	-1.000000	-1.000000	-1.000000	-1.000000	58.620690	0.000000	-1.000000	-1.000000	1193241.000000	1772739784.403067
-16205.895000	-19116.000000	-10392.300000	-2967.390000	-15240.105000	-9713.520000	-12648.645000	7309.800000	-7.765064	-2.853555	-0.730216	-0.831885	0.654462	2.864899	4.129888	5.126365	1.968540	0.442540	-1.220800	0.870298	-0.108032	0.424987	-1.000000	-1.000000	-1.000000	-1.000000	-1.000000	-1.000000	-1.000000	58.620690	0.000000	-1.000000	-1.000000	1193242.000000	1772739784.403071
-16214.265000	-19168.740000	-10447.920000	-3012.570000	-15282.135000	-9744.345000	-12651.570000	7338.195000	-1.283313	-2.942530	-4.011492	-3.739310	-2.297277	0.487983	6.986650	6.761289	1.968540	0.442540	-1.220800	0.870298	-0.108032	0.424987	-1.000000	-1.000000	-1.000000	-1.000000	-1.000000	-1.000000	-1.000000	58.620690	0.000000	-1.000000	-1.000000	1193243.000000	1772739784.403075
-16223.940000	-19195.695000	-10455.795000	-3010.365000	-15282.540000	-9744.615000	-12670.425000	7324.785000	4.535229	-4.592788	-8.097921	-7.773913	-7.056770	-4.686572	6.732172	7.587755	1.968540	0.442540	-1.220800	0.870298	-0.108032	0.424987	-1.000000	-1.000000	-1.000000	-1.000000	-1.000000	-1.000000	-1.000000	58.620690	0.000000	-1.000000	-1.000000	1193244.000000	1772739784.403079
-16196.715000	-19140.075000	-10393.920000	-2950.920000	-15225.480000	-9693.855000	-12678.615000	7309.980000	7.511673	-7.435966	-10.992802	-10.485215	-11.021881	-10.230886	2.138665	7.687535	1.968540	0.442540	-1.220800	0.870298	-0.108032	0.424987	-1.000000	-1.000000	-1.000000	-1.000000	-1.000000	-1.000000	-1.000000	58.620690	0.000000	-1.000000	-1.000000	1193245.000000	1772739784.403083
-16227.090000	-19180.440000	-10439.730000	-2997.540000	-15267.555000	-9728.595000	-12699.675000	7280.235000	7.014496	-7.111226	-8.137195	-7.483485	-9.267596	-10.796232	-4.990751	4.137158	1.968540	0.442540	-1.220800	0.870298	-0.108032	0.424987	-1.000000	-1.000000	-1.000000	-1.000000	-1.000000	-1.000000	-1.000000	58.620690	0.000000	-1.000000	-1.000000	1193246.000000	1772739784.403086
-16255.440000	-19196.370000	-10456.245000	-3017.025000	-15287.805000	-9749.925000	-12685.230000	7258.050000	2.714254	-3.084803	-1.010262	-0.714152	-2.858710	-5.861511	-11.098198	-4.802961	1.968540	0.442540	-1.220800	0.870298	-0.108032	0.424987	-1.000000	-1.000000	-1.000000	-1.000000	-1.000000	-1.000000	-1.000000	58.620690	0.000000	-1.000000	-1.000000	1193247.000000	1772739784.410246
-16255.035000	-19184.760000	-10448.145000	-3014.370000	-15288.120000	-9761.130000	-12670.695000	7318.260000	-4.006121	0.920431	4.293382	3.819179	2.599718	0.213354	-11.990517	-14.226436	1.968540	0.442540	-1.220800	0.870298	-0.108032	0.424987	-1.000000	-1.000000	-1.000000	-1.000000	-1.000000	-1.000000	-1.000000	58.620690	0.000000	-1.000000	-1.000000	1193248.000000	1772739784.410256
-16218.675000	-19184.670000	-10450.665000	-3015.765000	-15288.930000	-9765.585000	-12678.210000	7338.735000	-7.561337	3.826759	6.018535	4.958276	5.262853	4.820071	-5.992265	-14.027378	1.968540	0.442540	-1.220800	0.870298	-0.108032	0.424987	-1.000000	-1.000000	-1.000000	-1.000000	-1.000000	-1.000000	-1.000000	58.620690	0.000000	-1.000000	-1.000000	1193249.000000	1772739784.412570
-16224.570000	-19209.330000	-10476.720000	-3036.465000	-15304.500000	-9771.345000	-12681.630000	7344.945000	-3.320325	6.250409	5.937465	5.138387	6.560944	7.702898	2.992182	-1.223615	1.968540	0.442540	-1.220800	0.870298	-0.108032	0.424987	-1.000000	-1.000000	-1.000000	-1.000000	-1.000000	-1.000000	-1.000000	58.620690	0.000000	-1.000000	-1.000000	1193250.000000	1772739784.412579
-16255.530000	-19206.675000	-10472.310000	-3030.255000	-15297.840000	-9760.365000	-12678.705000	7323.840000	5.002139	6.892440	4.536720	4.931464	6.676801	8.289924	8.843247	13.938492	5.676720	0.076300	-0.305200	0.872190	-0.113708	0.423339	-1.000000	-1.000000	-1.000000	-1.000000	-1.000000	-1.000000	-1.000000	58.620690	0.000000	-1.000000	-1.000000	1193251.000000	1772739784.434641
-16230.600000	-19170.585000	-10431.405000	-2982.915000	-15249.780000	-9713.070000	-12671.730000	7305.795000	9.504284	6.052823	3.194047	4.770080	6.148944	7.231245	9.241531	18.571062	5.676720	0.076300	-0.305200	0.872190	-0.113708	0.423339	-1.000000	-1.000000	-1.000000	-1.000000	-1.000000	-1.000000	-1.000000	58.620690	0.000000	-1.000000	-1.000000	1193252.000000	1772739784.434651
-16241.985000	-19193.085000	-10446.525000	-2992.995000	-15256.665000	-9713.295000	-12671.145000	7318.575000	7.649700	6.348859	4.289113	5.924105	6.525247	6.456625	6.415088	9.965545	5.676720	0.076300	-0.305200	0.872190	-0.113708	0.423339	-1.000000	-1.000000	-1.000000	-1.000000	-1.000000	-1.000000	-1.000000	58.620690	0.000000	-1.000000	-1.000000	1193253.000000	1772739784.434662
-16262.190000	-19197.765000	-10445.535000	-2997.855000	-15265.800000	-9726.345000	-12667.185000	7313.130000	1.730422	6.618118	5.882931	6.352214	6.121203	5.026410	3.445068	-3.660192	5.676720	0.076300	-0.305200	0.872190	-0.113708	0.423339	-1.000000	-1.000000	-1.000000	-1.000000	-1.000000	-1.000000	-1.000000	58.620690	0.000000	-1.000000	-1.000000	1193254.000000	1772739784.434666
-16227.720000	-19151.820000	-10411.965000	-2977.380000	-15246.090000	-9711.990000	-12655.080000	7290.360000	-4.584134	4.277022	4.854877	3.511618	2.539313	1.040938	1.680512	-12.848397	5.676720	0.076300	-0.305200	0.872190	-0.113708	0.423339	-1.000000	-1.000000	-1.000000	-1.000000	-1.000000	-1.000000	-1.000000	58.620690	0.000000	-1.000000	-1.000000	1193255.000000	1772739784.439972
-16212.105000	-19183.320000	-10460.790000	-3029.670000	-15299.010000	-9766.620000	-12676.320000	7325.235000	-6.275883	0.746437	1.791534	-1.322183	-2.839097	-4.183952	0.366793	-13.901241	5.676720	0.076300	-0.305200	0.872190	-0.113708	0.423339	-1.000000	-1.000000	-1.000000	-1.000000	-1.000000	-1.000000	-1.000000	58.620690	0.000000	-1.000000	-1.000000	1193256.000000	1772739784.439982
-16230.060000	-19183.410000	-10466.460000	-3037.860000	-15309.720000	-9783.405000	-12669.390000	7357.590000	-1.764980	-2.691198	-2.749636	-6.601986	-8.161188	-8.778210	-2.139366	-7.867662	5.676720	0.076300	-0.305200	0.872190	-0.113708	0.423339	-1.000000	-1.000000	-1.000000	-1.000000	-1.000000	-1.000000	-1.000000	58.620690	0.000000	-1.000000	-1.000000	1193257.000000	1772739784.439992
-16220.790000	-19137.600000	-10409.040000	-2975.220000	-15247.395000	-9724.500000	-12645.045000	7304.355000	3.867134	-5.715855	-7.438130	-10.185412	-11.256099	-10.816352	-5.270373	0.748062	5.676720	0.076300	-0.305200	0.872190	-0.113708	0.423339	-1.000000	-1.000000	-1.000000	-1.000000	-1.000000	-1.000000	-1.000000	58.620690	0.000000	-1.000000	-1.000000	1193258.000000	1772739784.439996
-16192.305000	-19162.170000	-10415.115000	-2975.310000	-15245.100000	-9718.965000	-12656.745000	7318.575000	5.658896	-6.311422	-7.900242	-7.921607	-8.325456	-7.356051	-6.399791	5.675719	5.676720	0.076300	-0.305200	0.872190	-0.113708	0.423339	-1.000000	-1.000000	-1.000000	-1.000000	-1.000000	-1.000000	-1.000000	58.620690	0.000000	-1.000000	-1.000000	1193259.000000	1772739784.440001
-16192.890000	-19203.840000	-10448.865000	-3003.975000	-15270.390000	-9735.075000	-12664.710000	7366.590000	4.061203	-5.055048	-3.667757	-0.606870	-0.366491	0.276753	-4.992671	5.564194	5.676720	0.076300	-0.305200	0.872190	-0.113708	0.423339	-1.000000	-1.000000	-1.000000	-1.000000	-1.000000	-1.000000	-1.000000	58.620690	0.000000	-1.000000	-1.000000	1193260.000000	1772739784.440005
-16212.645000	-19190.115000	-10453.995000	-3012.300000	-15277.815000	-9731.295000	-12667.140000	7376.985000	0.913342	-5.345729	-0.395861	4.367897	5.238863	5.519194	-2.893386	5.121577	9.751140	2.868880	-2.945180	0.880308	-0.113525	0.421386	-1.000000	-1.000000	-1.000000	-1.000000	-1.000000	-1.000000	-1.000000	58.620690	0.000000	-1.000000	-1.000000	1193261.000000	1772739784.440009
-16196.040000	-19168.200000	-10447.065000	-3007.710000	-15275.790000	-9730.395000	-12664.080000	7348.320000	-3.241130	-6.663747	-1.579584	2.375198	3.698298	4.370009	-1.187504	6.390685	9.751140	2.868880	-2.945180	0.880308	-0.113525	0.421386	-1.000000	-1.000000	-1.000000	-1.000000	-1.000000	-1.000000	-1.000000	58.620690	0.000000	-1.000000	-1.000000	1193262.000000	1772739784.440012
-16180.110000	-19128.735000	-10397.880000	-2956.950000	-15228.765000	-9693.585000	-12649.725000	7323.390000	-6.472579	-4.705868	-4.009069	-2.700451	-1.428077	-0.058405	0.497198	5.760916	9.751140	2.868880	-2.945180	0.880308	-0.113525	0.421386	-1.000000	-1.000000	-1.000000	-1.000000	-1.000000	-1.000000	-1.000000	58.620690	0.000000	-1.000000	-1.000000	1193263.000000	1772739784.444862
-16251.165000	-19170.720000	-10430.370000	-2987.820000	-15258.510000	-9729.585000	-12683.295000	7248.960000	-7.506435	1.348248	-2.968412	-4.010316	-3.343752	-2.100426	2.124859	-0.278162	9.751140	2.868880	-2.945180	0.880308	-0.113525	0.421386	-1.000000	-1.000000	-1.000000	-1.000000	-1.000000	-1.000000	-1.000000	58.620690	0.000000	-1.000000	-1.000000	1193264.000000	1772739784.444872
-16266.015000	-19193.265000	-10451.565000	-3010.860000	-15280.110000	-9755.955000	-12670.200000	7274.880000	-8.650567	6.592387	1.386656	-0.172242	-0.220526	-0.216897	2.672361	-11.074761	9.751140	2.868880	-2.945180	0.880308	-0.113525	0.421386	-1.000000	-1.000000	-1.000000	-1.000000	-1.000000	-1.000000	-1.000000	58.620690	0.000000	-1.000000	-1.000000	1193265.000000	1772739784.444882
-16183.350000	-19161.630000	-10429.965000	-2994.525000	-15268.050000	-9745.425000	-12648.735000	7341.030000	-9.446578	6.800915	5.222049	4.541798	4.150058	2.710636	2.220695	-19.535318	9.751140	2.868880	-2.945180	0.880308	-0.113525	0.421386	-1.000000	-1.000000	-1.000000	-1.000000	-1.000000	-1.000000	-1.000000	58.620690	0.000000	-1.000000	-1.000000	1193266.000000	1772739784.444886
-16172.730000	-19151.190000	-10430.415000	-2998.440000	-15275.205000	-9749.385000	-12668.085000	7344.225000	-4.622681	3.303042	5.761342	5.687796	5.212684	3.174064	1.738713	-15.876855	9.751140	2.868880	-2.945180	0.880308	-0.113525	0.421386	-1.000000	-1.000000	-1.000000	-1.000000	-1.000000	-1.000000	-1.000000	58.620690	0.000000	-1.000000	-1.000000	1193267.000000	1772739784.445099
-16213.815000	-19148.040000	-10427.535000	-2993.670000	-15268.635000	-9741.555000	-12702.555000	7292.385000	5.594941	0.433752	3.248330	2.451049	1.758199	0.177841	0.656141	-0.560076	9.751140	2.868880	-2.945180	0.880308	-0.113525	0.421386	-1.000000	-1.000000	-1.000000	-1.000000	-1.000000	-1.000000	-1.000000	58.620690	0.000000	-1.000000	-1.000000	1193268.000000	1772739784.445104
-16216.380000	-19169.010000	-10442.115000	-3001.815000	-15271.155000	-9730.620000	-12692.835000	7318.395000	13.174355	0.647912	0.209889	-2.038899	-2.980394	-3.548690	-1.728538	13.830771	9.751140	2.868880	-2.945180	0.880308	-0.113525	0.421386	-1.000000	-1.000000	-1.000000	-1.000000	-1.000000	-1.000000	-1.000000	58.620690	0.000000	-1.000000	-1.000000	1193269.000000	1772739784.448807
-16239.015000	-19200.735000	-10469.925000	-3024.450000	-15288.975000	-9740.430000	-12683.430000	7306.380000	12.506274	1.675181	-1.805733	-4.613516	-5.269535	-4.705244	-3.585181	17.673543	9.751140	2.868880	-2.945180	0.880308	-0.113525	0.421386	-1.000000	-1.000000	-1.000000	-1.000000	-1.000000	-1.000000	-1.000000	58.620690	0.000000	-1.000000	-1.000000	1193270.000000	1772739784.448816
-16241.580000	-19196.505000	-10458.990000	-3015.585000	-15284.430000	-9742.950000	-12680.415000	7303.005000	4.951711	-0.716121	-3.671559	-5.178316	-4.808018	-3.205021	-2.595311	12.341149	7.752080	4.959500	-4.028640	0.878416	-0.106201	0.420592	-1.000000	-1.000000	-1.000000	-1.000000	-1.000000	-1.000000	-1.000000	58.620690	0.000000	-1.000000	-1.000000	1193271.000000	1772739784.452817
-16225.605000	-19195.380000	-10453.815000	-3013.785000	-15286.095000	-9750.870000	-12679.965000	7323.030000	-3.882520	-6.496315	-5.678405	-4.747335	-3.273548	-1.133039	0.864200	5.156899	7.752080	4.959500	-4.028640	0.878416	-0.106201	0.420592	-1.000000	-1.000000	-1.000000	-1.000000	-1.000000	-1.000000	-1.000000	58.620690	0.000000	-1.000000	-1.000000	1193272.000000	1772739784.452825
-16241.220000	-19205.820000	-10463.535000	-3024.900000	-15297.165000	-9766.665000	-12665.205000	7326.405000	-7.426689	-10.342794	-5.611332	-2.769519	-1.055520	0.728921	4.884509	2.295387	7.752080	4.959500	-4.028640	0.878416	-0.106201	0.420592	-1.000000	-1.000000	-1.000000	-1.000000	-1.000000	-1.000000	-1.000000	58.620690	0.000000	-1.000000	-1.000000	1193273.000000	1772739784.464338
-16212.465000	-19173.240000	-10434.555000	-2998.755000	-15273.090000	-9751.860000	-12659.220000	7330.635000	-3.467060	-7.222316	-1.199304	1.969551	2.835965	3.407098	7.678454	2.933512	7.752080	4.959500	-4.028640	0.878416	-0.106201	0.420592	-1.000000	-1.000000	-1.000000	-1.000000	-1.000000	-1.000000	-1.000000	58.620690	0.000000	-1.000000	-1.000000	1193274.000000	1772739784.464348
-16238.115000	-19199.565000	-10458.315000	-3012.795000	-15275.430000	-9746.100000	-12654.405000	7345.305000	2.722642	1.514183	5.716198	7.896822	7.627998	6.645256	7.326913	1.256313	7.752080	4.959500	-4.028640	0.878416	-0.106201	0.420592	-1.000000	-1.000000	-1.000000	-1.000000	-1.000000	-1.000000	-1.000000	58.620690	0.000000	-1.000000	-1.000000	1193275.000000	1772739784.464359
-16252.830000	-19208.205000	-10469.160000	-3016.935000	-15277.005000	-9744.345000	-12656.880000	7339.005000	3.956425	8.846721	9.520613	10.520834	9.960424	7.963689	3.607163	-4.495668	7.752080	4.959500	-4.028640	0.878416	-0.106201	0.420592	-1.000000	-1.000000	-1.000000	-1.000000	-1.000000	-1.000000	-1.000000	58.620690	0.000000	-1.000000	-1.000000	1193276.000000	1772739784.464363
-16219.665000	-19180.080000	-10454.490000	-3006.765000	-15271.920000	-9732.555000	-12663.900000	7316.730000	0.053609	10.367408	7.341393	7.575887	7.609817	5.705226	-0.990699	-10.504931	7.752080	4.959500	-4.028640	0.878416	-0.106201	0.420592	-1.000000	-1.000000	-1.000000	-1.000000	-1.000000	-1.000000	-1.000000	58.620690	0.000000	-1.000000	-1.000000	1193277.000000	1772739784.471189
-16211.745000	-19150.470000	-10420.830000	-2979.405000	-15248.295000	-9709.515000	-12674.565000	7271.100000	-2.539009	8.769648	2.800985	2.081056	2.315319	1.156071	-4.493968	-14.017856	7.752080	4.959500	-4.028640	0.878416	-0.106201	0.420592	-1.000000	-1.000000	-1.000000	-1.000000	-1.000000	-1.000000	-1.000000	58.620690	0.000000	-1.000000	-1.000000	1193278.000000	1772739784.471200
-16209.045000	-19150.965000	-10412.325000	-2977.155000	-15245.370000	-9709.290000	-12677.715000	7258.320000	0.103877	8.105056	1.157686	-1.295016	-2.062122	-2.729975	-7.048575	-15.027254	7.752080	4.959500	-4.028640	0.878416	-0.106201	0.420592	-1.000000	-1.000000	-1.000000	-1.000000	-1.000000	-1.000000	-1.000000	58.620690	0.000000	-1.000000	-1.000000	1193279.000000	1772739784.471459
-16170.120000	-19149.615000	-10413.675000	-2974.860000	-15242.310000	-9706.725000	-12652.425000	7292.655000	5.626952	7.527258	2.471823	-1.692073	-3.787903	-4.294282	-8.351028	-12.119743	7.752080	4.959500	-4.028640	0.878416	-0.106201	0.420592	-1.000000	-1.000000	-1.000000	-1.000000	-1.000000	-1.000000	-1.000000	58.620690	0.000000	-1.000000	-1.000000	1193280.000000	1772739784.471467
-16146.180000	-19130.040000	-10408.365000	-2974.230000	-15243.705000	-9713.880000	-12634.155000	7351.695000	10.103423	4.122366	2.677205	-1.602798	-3.946661	-3.933218	-6.487680	-2.378476	0.732480	5.005280	-3.235120	0.874265	-0.100097	0.420165	-1.000000	-1.000000	-1.000000	-1.000000	-1.000000	-1.000000	-1.000000	58.620690	0.000000	-1.000000	-1.000000	1193281.000000	1772739784.475162
-16187.670000	-19154.160000	-10436.895000	-3009.015000	-15282.675000	-9762.120000	-12676.680000	7350.615000	10.606241	-2.020155	-0.523350	-2.850432	-4.097641	-3.087250	-1.641262	12.803266	0.732480	5.005280	-3.235120	0.874265	-0.100097	0.420165	-1.000000	-1.000000	-1.000000	-1.000000	-1.000000	-1.000000	-1.000000	58.620690	0.000000	-1.000000	-1.000000	1193282.000000	1772739784.475169
-16226.505000	-19168.245000	-10444.005000	-3011.040000	-15281.820000	-9760.005000	-12681.540000	7307.055000	3.789431	-9.364834	-6.591339	-5.980712	-5.663481	-3.868536	1.889146	24.241136	0.732480	5.005280	-3.235120	0.874265	-0.100097	0.420165	-1.000000	-1.000000	-1.000000	-1.000000	-1.000000	-1.000000	-1.000000	58.620690	0.000000	-1.000000	-1.000000	1193283.000000	1772739784.476870
-16214.130000	-19158.795000	-10431.270000	-2994.930000	-15263.235000	-9735.120000	-12650.130000	7332.165000	-9.865310	-15.762422	-12.540520	-9.467384	-8.063939	-6.244905	1.666235	22.558794	0.732480	5.005280	-3.235120	0.874265	-0.100097	0.420165	-1.000000	-1.000000	-1.000000	-1.000000	-1.000000	-1.000000	-1.000000	58.620690	0.000000	-1.000000	-1.000000	1193284.000000	1772739784.476877
-16168.320000	-19110.015000	-10379.070000	-2941.380000	-15211.080000	-9679.860000	-12626.505000	7309.890000	-21.297781	-16.658354	-12.907261	-8.805860	-7.178016	-6.044629	1.234996	8.992659	0.732480	5.005280	-3.235120	0.874265	-0.100097	0.420165	-1.000000	-1.000000	-1.000000	-1.000000	-1.000000	-1.000000	-1.000000	58.620690	0.000000	-1.000000	-1.000000	1193285.000000	1772739784.483206
-16208.190000	-19128.195000	-10378.530000	-2929.815000	-15198.165000	-9665.685000	-12659.400000	7230.645000	-21.485358	-9.610602	-5.059586	-1.348276	-0.114584	-0.053341	3.803563	-7.636849	0.732480	5.005280	-3.235120	0.874265	-0.100097	0.420165	-1.000000	-1.000000	-1.000000	-1.000000	-1.000000	-1.000000	-1.000000	58.620690	0.000000	-1.000000	-1.000000	1193286.000000	1772739784.483212
-16236.495000	-19132.380000	-10377.180000	-2922.705000	-15188.850000	-9656.595000	-12648.240000	7310.430000	-12.073816	0.815113	6.058277	8.943963	9.724384	8.684249	6.993954	-18.770349	0.732480	5.005280	-3.235120	0.874265	-0.100097	0.420165	-1.000000	-1.000000	-1.000000	-1.000000	-1.000000	-1.000000	-1.000000	58.620690	0.000000	-1.000000	-1.000000	1193287.000000	1772739784.492700
-16232.805000	-19161.225000	-10420.965000	-2974.410000	-15241.320000	-9707.895000	-12667.455000	7309.845000	-1.228207	7.373679	11.844249	14.088895	14.688050	13.068059	6.780056	-17.911350	0.732480	5.005280	-3.235120	0.874265	-0.100097	0.420165	-1.000000	-1.000000	-1.000000	-1.000000	-1.000000	-1.000000	-1.000000	58.620690	0.000000	-1.000000	-1.000000	1193288.000000	1772739784.492710
-16200.450000	-19171.260000	-10445.715000	-3007.755000	-15276.420000	-9744.210000	-12663.360000	7339.455000	5.971814	6.758617	7.566250	8.671854	9.215108	8.037476	1.882876	-6.000857	0.732480	5.005280	-3.235120	0.874265	-0.100097	0.420165	-1.000000	-1.000000	-1.000000	-1.000000	-1.000000	-1.000000	-1.000000	58.620690	0.000000	-1.000000	-1.000000	1193289.000000	1772739784.492722
-16186.770000	-19199.745000	-10486.440000	-3055.275000	-15325.650000	-9798.390000	-12687.165000	7397.685000	9.974879	0.989844	-3.937321	-5.147176	-4.836704	-4.696821	-5.581063	7.894514	0.732480	5.005280	-3.235120	0.874265	-0.100097	0.420165	-1.000000	-1.000000	-1.000000	-1.000000	-1.000000	-1.000000	-1.000000	58.620690	0.000000	-1.000000	-1.000000	1193290.000000	1772739784.492726
-16225.515000	-19216.170000	-10493.370000	-3058.245000	-15324.165000	-9790.740000	-12659.940000	7378.380000	12.730153	-5.028358	-14.550083	-18.403032	-18.488247	-16.830611	-10.703870	15.915883	-2.182180	6.638100	-0.946120	0.882444	-0.101806	0.423400	-1.000000	-1.000000	-1.000000	-1.000000	-1.000000	-1.000000	-1.000000	58.620690	0.000000	-1.000000	-1.000000	1193291.000000	1772739784.494489
-16229.070000	-19184.445000	-10452.510000	-3012.570000	-15277.680000	-9747.495000	-12651.615000	7335.630000	13.591311	-6.426678	-16.288685	-21.431618	-21.848845	-19.298173	-9.132042	14.721520	-2.182180	6.638100	-0.946120	0.882444	-0.101806	0.423400	-1.000000	-1.000000	-1.000000	-1.000000	-1.000000	-1.000000	-1.000000	58.620690	0.000000	-1.000000	-1.000000	1193292.000000	1772739784.494505
-16261.155000	-19200.915000	-10468.620000	-3027.960000	-15292.980000	-9760.320000	-12683.340000	7303.410000	10.141545	-1.460402	-6.914861	-11.203155	-11.874102	-9.880989	-2.314595	3.988653	-2.182180	6.638100	-0.946120	0.882444	-0.101806	0.423400	-1.000000	-1.000000	-1.000000	-1.000000	-1.000000	-1.000000	-1.000000	58.620690	0.000000	-1.000000	-1.000000	1193293.000000	1772739784.498603
-16266.555000	-19219.950000	-10479.555000	-3033.270000	-15293.700000	-9747.540000	-12676.410000	7298.775000	1.525493	5.709011	6.891905	5.017212	4.181609	4.261884	3.649076	-10.885550	-2.182180	6.638100	-0.946120	0.882444	-0.101806	0.423400	-1.000000	-1.000000	-1.000000	-1.000000	-1.000000	-1.000000	-1.000000	58.620690	0.000000	-1.000000	-1.000000	1193294.000000	1772739784.498609
-16213.545000	-19178.055000	-10430.820000	-2979.945000	-15241.905000	-9698.895000	-12649.410000	7328.745000	-7.692307	9.598742	16.055604	16.913593	16.198317	14.360576	6.021895	-19.312552	-2.182180	6.638100	-0.946120	0.882444	-0.101806	0.423400	-1.000000	-1.000000	-1.000000	-1.000000	-1.000000	-1.000000	-1.000000	58.620690	0.000000	-1.000000	-1.000000	1193295.000000	1772739784.502101
-16165.395000	-19141.380000	-10417.500000	-2976.120000	-15242.805000	-9707.355000	-12642.255000	7366.185000	-8.800229	10.672861	18.447664	21.149376	20.720216	17.981740	7.011803	-14.818604	-2.182180	6.638100	-0.946120	0.882444	-0.101806	0.423400	-1.000000	-1.000000	-1.000000	-1.000000	-1.000000	-1.000000	-1.000000	58.620690	0.000000	-1.000000	-1.000000	1193296.000000	1772739784.502109
-16202.115000	-19165.365000	-10442.700000	-3003.795000	-15271.380000	-9737.055000	-12655.755000	7349.265000	-0.148277	11.762665	16.628353	19.629837	19.267732	16.542697	7.649206	-1.683614	-2.182180	6.638100	-0.946120	0.882444	-0.101806	0.423400	-1.000000	-1.000000	-1.000000	-1.000000	-1.000000	-1.000000	-1.000000	58.620690	0.000000	-1.000000	-1.000000	1193297.000000	1772739784.504870
-16215.165000	-19196.190000	-10465.335000	-3025.350000	-15291.045000	-9762.480000	-12659.265000	7337.070000	8.122042	11.084257	11.554332	13.734700	13.282375	11.171149	6.130847	9.038891	-2.182180	6.638100	-0.946120	0.882444	-0.101806	0.423400	-1.000000	-1.000000	-1.000000	-1.000000	-1.000000	-1.000000	-1.000000	58.620690	0.000000	-1.000000	-1.000000	1193298.000000	1772739784.504877
-16222.680000	-19188.315000	-10462.185000	-3026.970000	-15295.365000	-9771.705000	-12666.645000	7315.335000	6.733088	5.519413	3.641802	4.884814	4.589933	3.545345	1.695910	8.946995	-2.182180	6.638100	-0.946120	0.882444	-0.101806	0.423400	-1.000000	-1.000000	-1.000000	-1.000000	-1.000000	-1.000000	-1.000000	58.620690	0.000000	-1.000000	-1.000000	1193299.000000	1772739784.508878
-16236.765000	-19149.255000	-10430.820000	-2998.620000	-15269.490000	-9745.920000	-12673.215000	7258.140000	-2.173235	-2.848741	-4.516543	-4.059915	-3.999456	-3.871561	-4.141327	-0.750751	-2.182180	6.638100	-0.946120	0.882444	-0.101806	0.423400	-1.000000	-1.000000	-1.000000	-1.000000	-1.000000	-1.000000	-1.000000	58.620690	0.000000	-1.000000	-1.000000	1193300.000000	1772739784.508886
-16243.155000	-19148.805000	-10417.005000	-2977.245000	-15245.775000	-9718.785000	-12662.325000	7255.485000	-10.319703	-8.965316	-9.884147	-10.392041	-10.190749	-9.156670	-9.014055	-11.039137	-0.747740	9.415420	-2.273740	0.895628	-0.106750	0.423278	-1.000000	-1.000000	-1.000000	-1.000000	-1.000000	-1.000000	-1.000000	58.620690	0.000000	-1.000000	-1.000000	1193301.000000	1772739784.512902
-16213.005000	-19198.800000	-10456.515000	-3008.835000	-15270.345000	-9727.920000	-12648.060000	7349.130000	-11.817225	-11.373092	-11.930685	-13.242035	-13.043711	-11.332673	-9.953502	-11.545237	-0.747740	9.415420	-2.273740	0.895628	-0.106750	0.423278	-1.000000	-1.000000	-1.000000	-1.000000	-1.000000	-1.000000	-1.000000	58.620690	0.000000	-1.000000	-1.000000	1193302.000000	1772739784.512912
-16212.555000	-19192.410000	-10453.590000	-3006.720000	-15268.950000	-9723.735000	-12655.845000	7336.395000	-5.948971	-12.308739	-12.565800	-13.895240	-13.427326	-11.108618	-5.669365	2.047758	-0.747740	9.415420	-2.273740	0.895628	-0.106750	0.423278	-1.000000	-1.000000	-1.000000	-1.000000	-1.000000	-1.000000	-1.000000	58.620690	0.000000	-1.000000	-1.000000	1193303.000000	1772739784.516878
-16203.105000	-19169.730000	-10434.555000	-2989.845000	-15255.990000	-9715.950000	-12644.775000	7338.060000	2.560759	-12.652938	-12.879089	-13.652462	-12.728353	-10.122643	0.816259	20.743649	-0.747740	9.415420	-2.273740	0.895628	-0.106750	0.423278	-1.000000	-1.000000	-1.000000	-1.000000	-1.000000	-1.000000	-1.000000	58.620690	0.000000	-1.000000	-1.000000	1193304.000000	1772739784.516885
-16196.355000	-19168.515000	-10436.940000	-2993.805000	-15261.615000	-9724.230000	-12653.010000	7320.915000	7.295798	-10.600876	-11.086990	-11.237314	-10.160490	-8.025056	5.142780	28.468309	-0.747740	9.415420	-2.273740	0.895628	-0.106750	0.423278	-1.000000	-1.000000	-1.000000	-1.000000	-1.000000	-1.000000	-1.000000	58.620690	0.000000	-1.000000	-1.000000	1193305.000000	1772739784.520888
-16249.590000	-19171.890000	-10437.075000	-2995.290000	-15263.190000	-9730.755000	-12649.005000	7286.715000	5.689948	-4.474602	-4.804445	-4.367750	-3.652914	-2.810141	5.766571	18.034536	-0.747740	9.415420	-2.273740	0.895628	-0.106750	0.423278	-1.000000	-1.000000	-1.000000	-1.000000	-1.000000	-1.000000	-1.000000	58.620690	0.000000	-1.000000	-1.000000	1193306.000000	1772739784.520894
-16268.265000	-19171.845000	-10440.540000	-2999.745000	-15268.815000	-9744.615000	-12651.030000	7299.540000	-0.602305	4.964887	5.359435	6.275321	6.312076	5.452916	3.994946	-3.798816	-0.747740	9.415420	-2.273740	0.895628	-0.106750	0.423278	-1.000000	-1.000000	-1.000000	-1.000000	-1.000000	-1.000000	-1.000000	58.620690	0.000000	-1.000000	-1.000000	1193307.000000	1772739784.534301
-16193.745000	-19157.445000	-10443.960000	-3005.415000	-15273.225000	-9745.380000	-12653.685000	7348.725000	-6.234377	13.861190	14.664268	15.734382	15.159481	12.891222	1.735228	-21.955813	-0.747740	9.415420	-2.273740	0.895628	-0.106750	0.423278	-1.000000	-1.000000	-1.000000	-1.000000	-1.000000	-1.000000	-1.000000	58.620690	0.000000	-1.000000	-1.000000	1193308.000000	1772739784.534312
-16188.930000	-19171.170000	-10455.300000	-3019.995000	-15285.105000	-9751.230000	-12658.860000	7360.785000	-4.259311	16.863295	16.836155	17.496643	16.732535	14.097160	-0.244998	-23.135218	-0.747740	9.415420	-2.273740	0.895628	-0.106750	0.423278	-1.000000	-1.000000	-1.000000	-1.000000	-1.000000	-1.000000	-1.000000	58.620690	0.000000	-1.000000	-1.000000	1193309.000000	1772739784.541428
-16209.765000	-19187.010000	-10459.440000	-3020.130000	-15285.780000	-9747.045000	-12663.225000	7331.535000	5.131623	11.479369	9.764590	9.357003	8.840290	7.093284	-2.133697	-8.249803	-0.747740	9.415420	-2.273740	0.895628	-0.106750	0.423278	-1.000000	-1.000000	-1.000000	-1.000000	-1.000000	-1.000000	-1.000000	58.620690	0.000000	-1.000000	-1.000000	1193310.000000	1772739784.541437
-16213.770000	-19186.650000	-10437.390000	-2986.965000	-15251.670000	-9706.230000	-12644.235000	7303.005000	12.737724	1.399438	-1.086243	-2.675012	-2.928856	-3.293031	-3.573326	7.220645	0.473060	8.866060	-4.394880	0.894773	-0.109436	0.428466	-1.000000	-1.000000	-1.000000	-1.000000	-1.000000	-1.000000	-1.000000	58.620690	0.000000	-1.000000	-1.000000	1193311.000000	1772739784.541448
-16240.455000	-19174.950000	-10415.340000	-2965.680000	-15232.950000	-9692.955000	-12645.135000	7293.510000	10.631852	-6.881489	-7.666355	-9.515437	-9.807371	-9.288721	-3.418351	9.847526	0.473060	8.866060	-4.394880	0.894773	-0.109436	0.428466	-1.000000	-1.000000	-1.000000	-1.000000	-1.000000	-1.000000	-1.000000	58.620690	0.000000	-1.000000	-1.000000	1193312.000000	1772739784.541451
-16248.375000	-19200.915000	-10439.190000	-2990.700000	-15257.835000	-9720.945000	-12656.970000	7331.085000	-0.848400	-10.486356	-7.480922	-8.275047	-8.683794	-8.042945	-1.678564	0.979379	0.473060	8.866060	-4.394880	0.894773	-0.109436	0.428466	-1.000000	-1.000000	-1.000000	-1.000000	-1.000000	-1.000000	-1.000000	58.620690	0.000000	-1.000000	-1.000000	1193313.000000	1772739784.541456
-16214.805000	-19188.855000	-10431.630000	-2986.560000	-15255.000000	-9724.095000	-12642.615000	7349.310000	-13.639986	-10.240690	-3.836867	-2.985153	-3.216601	-2.882636	0.334266	-7.708289	0.473060	8.866060	-4.394880	0.894773	-0.109436	0.428466	-1.000000	-1.000000	-1.000000	-1.000000	-1.000000	-1.000000	-1.000000	58.620690	0.000000	-1.000000	-1.000000	1193314.000000	1772739784.541460
-16177.545000	-19167.480000	-10427.715000	-2989.890000	-15260.805000	-9739.305000	-12663.000000	7328.835000	-16.616429	-6.349860	0.045353	1.922136	2.116902	2.059887	1.766946	-7.444795	0.473060	8.866060	-4.394880	0.894773	-0.109436	0.428466	-1.000000	-1.000000	-1.000000	-1.000000	-1.000000	-1.000000	-1.000000	58.620690	0.000000	-1.000000	-1.000000	1193315.000000	1772739784.541463
-16121.520000	-19109.115000	-10394.235000	-2975.985000	-15248.970000	-9729.585000	-12675.060000	7255.035000	-5.112330	1.745444	3.496321	4.799906	5.280671	4.956251	1.971380	-1.225906	0.473060	8.866060	-4.394880	0.894773	-0.109436	0.428466	-1.000000	-1.000000	-1.000000	-1.000000	-1.000000	-1.000000	-1.000000	58.620690	0.000000	-1.000000	-1.000000	1193316.000000	1772739784.541467
-16171.155000	-19102.500000	-10383.840000	-2982.600000	-15251.760000	-9723.870000	-12665.610000	7306.425000	12.232703	11.745368	6.435863	5.352010	5.771730	5.498890	0.762546	2.271538	0.473060	8.866060	-4.394880	0.894773	-0.109436	0.428466	-1.000000	-1.000000	-1.000000	-1.000000	-1.000000	-1.000000	-1.000000	58.620690	0.000000	-1.000000	-1.000000	1193317.000000	1772739784.544910
-16258.185000	-19159.200000	-10457.190000	-3035.790000	-15299.595000	-9762.840000	-12689.325000	7319.205000	19.387492	17.226906	6.649038	2.747375	2.999048	3.279793	-0.782941	1.705871	0.473060	8.866060	-4.394880	0.894773	-0.109436	0.428466	-1.000000	-1.000000	-1.000000	-1.000000	-1.000000	-1.000000	-1.000000	58.620690	0.000000	-1.000000	-1.000000	1193318.000000	1772739784.544918
-16277.265000	-19201.095000	-10485.180000	-3018.555000	-15282.180000	-9736.245000	-12678.705000	7241.400000	8.264312	12.157736	0.711455	-3.303291	-3.006455	-1.804587	-1.727639	1.129018	0.473060	8.866060	-4.394880	0.894773	-0.109436	0.428466	-1.000000	-1.000000	-1.000000	-1.000000	-1.000000	-1.000000	-1.000000	58.620690	0.000000	-1.000000	-1.000000	1193319.000000	1772739784.552521
-16185.150000	-19186.740000	-10438.605000	-2989.440000	-15261.300000	-9715.995000	-12641.490000	7310.745000	-11.522975	-2.256899	-9.805449	-9.574322	-9.198398	-7.304070	-1.361115	1.794203	0.473060	8.866060	-4.394880	0.894773	-0.109436	0.428466	-1.000000	-1.000000	-1.000000	-1.000000	-1.000000	-1.000000	-1.000000	58.620690	0.000000	-1.000000	-1.000000	1193320.000000	1772739784.552529
-16139.835000	-19141.740000	-10401.255000	-2962.845000	-15238.665000	-9702.630000	-12621.465000	7432.920000	-20.844800	-16.486016	-16.440591	-10.760754	-10.759569	-9.030241	1.503370	5.585078	1.953280	6.668620	-1.175020	0.892271	-0.105835	0.435485	-1.000000	-1.000000	-1.000000	-1.000000	-1.000000	-1.000000	-1.000000	58.620690	0.000000	-1.000000	-1.000000	1193321.000000	1772739784.552802
-16155.315000	-19153.170000	-10417.230000	-2974.905000	-15247.755000	-9714.465000	-12625.290000	7445.655000	-11.254879	-20.271788	-12.235450	-4.623425	-5.383041	-4.814456	6.262842	14.282451	1.953280	6.668620	-1.175020	0.892271	-0.105835	0.435485	-1.000000	-1.000000	-1.000000	-1.000000	-1.000000	-1.000000	-1.000000	58.620690	0.000000	-1.000000	-1.000000	1193322.000000	1772739784.552810
-16182.540000	-19174.365000	-10452.195000	-3010.140000	-15277.500000	-9751.095000	-12644.865000	7370.595000	6.661474	-12.332997	-0.132746	4.892284	3.795290	2.781227	9.071033	20.965117	1.953280	6.668620	-1.175020	0.892271	-0.105835	0.435485	-1.000000	-1.000000	-1.000000	-1.000000	-1.000000	-1.000000	-1.000000	58.620690	0.000000	-1.000000	-1.000000	1193323.000000	1772739784.559927
-16190.820000	-19149.300000	-10431.765000	-2995.515000	-15267.510000	-9745.605000	-12645.630000	7325.505000	16.174508	-0.513099	10.342456	10.764084	10.336429	8.265542	6.562205	14.920494	1.953280	6.668620	-1.175020	0.892271	-0.105835	0.435485	-1.000000	-1.000000	-1.000000	-1.000000	-1.000000	-1.000000	-1.000000	58.620690	0.000000	-1.000000	-1.000000	1193324.000000	1772739784.559934
-16207.785000	-19139.265000	-10410.480000	-2970.810000	-15238.980000	-9710.685000	-12639.915000	7300.710000	10.138565	7.166611	13.255429	10.157638	10.957332	8.917227	-0.038135	-4.436151	1.953280	6.668620	-1.175020	0.892271	-0.105835	0.435485	-1.000000	-1.000000	-1.000000	-1.000000	-1.000000	-1.000000	-1.000000	58.620690	0.000000	-1.000000	-1.000000	1193325.000000	1772739784.560934
-16275.645000	-19199.610000	-10467.630000	-3026.430000	-15290.505000	-9756.855000	-12681.495000	7237.530000	-5.316997	7.854115	9.254736	5.451309	7.087258	5.971193	-6.967712	-27.243633	1.953280	6.668620	-1.175020	0.892271	-0.105835	0.435485	-1.000000	-1.000000	-1.000000	-1.000000	-1.000000	-1.000000	-1.000000	58.620690	0.000000	-1.000000	-1.000000	1193326.000000	1772739784.560938
-16250.490000	-19202.175000	-10472.490000	-3028.230000	-15289.920000	-9749.745000	-12671.280000	7320.510000	-17.057885	3.813487	2.279902	-0.425879	1.123617	1.112730	-11.535006	-40.816278	1.953280	6.668620	-1.175020	0.892271	-0.105835	0.435485	-1.000000	-1.000000	-1.000000	-1.000000	-1.000000	-1.000000	-1.000000	58.620690	0.000000	-1.000000	-1.000000	1193327.000000	1772739784.566694
-16187.670000	-19168.020000	-10429.830000	-2980.890000	-15242.850000	-9702.315000	-12648.690000	7405.110000	-14.984070	0.895821	-2.620261	-5.028130	-4.336299	-3.763668	-11.966816	-33.118482	1.953280	6.668620	-1.175020	0.892271	-0.105835	0.435485	-1.000000	-1.000000	-1.000000	-1.000000	-1.000000	-1.000000	-1.000000	58.620690	0.000000	-1.000000	-1.000000	1193328.000000	1772739784.566702
-16171.830000	-19126.800000	-10380.690000	-2931.165000	-15195.015000	-9661.545000	-12629.250000	7329.735000	-0.485478	3.252651	-2.421543	-5.762746	-6.054346	-5.604717	-7.718458	-5.277098	1.953280	6.668620	-1.175020	0.892271	-0.105835	0.435485	-1.000000	-1.000000	-1.000000	-1.000000	-1.000000	-1.000000	-1.000000	58.620690	0.000000	-1.000000	-1.000000	1193329.000000	1772739784.568782
-16238.565000	-19170.765000	-10433.430000	-2989.620000	-15254.640000	-9721.125000	-12658.815000	7256.520000	13.984991	8.078251	0.681188	-2.711822	-3.553936	-3.477092	-1.060376	20.184468	1.953280	6.668620	-1.175020	0.892271	-0.105835	0.435485	-1.000000	-1.000000	-1.000000	-1.000000	-1.000000	-1.000000	-1.000000	58.620690	0.000000	-1.000000	-1.000000	1193330.000000	1772739784.568790
-16271.325000	-19220.490000	-10492.695000	-3054.420000	-15321.240000	-9790.515000	-12678.210000	7298.910000	16.357518	8.231735	1.064022	-0.504999	-1.528090	-1.431618	4.008263	23.504840	4.883200	6.867000	-2.731540	0.903379	-0.102783	0.439147	-1.000000	-1.000000	-1.000000	-1.000000	-1.000000	-1.000000	-1.000000	58.620690	0.000000	-1.000000	-1.000000	1193331.000000	1772739784.573056
-16211.970000	-19189.890000	-10473.255000	-3041.730000	-15313.320000	-9789.885000	-12670.155000	7360.920000	6.950402	0.917739	-3.650404	-2.743032	-3.996171	-3.336459	5.577652	12.190833	4.883200	6.867000	-2.731540	0.903379	-0.102783	0.439147	-1.000000	-1.000000	-1.000000	-1.000000	-1.000000	-1.000000	-1.000000	58.620690	0.000000	-1.000000	-1.000000	1193332.000000	1772739784.573066
-16213.320000	-19174.815000	-10457.820000	-3025.485000	-15297.930000	-9773.280000	-12673.395000	7329.825000	-3.371222	-8.741793	-9.294784	-6.572167	-8.170019	-6.914102	5.197760	6.173498	4.883200	6.867000	-2.731540	0.903379	-0.102783	0.439147	-1.000000	-1.000000	-1.000000	-1.000000	-1.000000	-1.000000	-1.000000	58.620690	0.000000	-1.000000	-1.000000	1193333.000000	1772739784.577427
-16194.015000	-19159.110000	-10447.830000	-3014.730000	-15285.555000	-9756.855000	-12663.180000	7329.240000	-5.585401	-13.241717	-10.093770	-6.511580	-8.196616	-6.976399	4.990539	11.080688	4.883200	6.867000	-2.731540	0.903379	-0.102783	0.439147	-1.000000	-1.000000	-1.000000	-1.000000	-1.000000	-1.000000	-1.000000	58.620690	0.000000	-1.000000	-1.000000	1193334.000000	1772739784.577444
-16202.790000	-19160.100000	-10441.350000	-3004.650000	-15272.775000	-9738.630000	-12656.835000	7328.340000	1.318261	-8.463817	-3.424720	0.086391	-1.135443	-0.772067	5.945559	17.591444	4.883200	6.867000	-2.731540	0.903379	-0.102783	0.439147	-1.000000	-1.000000	-1.000000	-1.000000	-1.000000	-1.000000	-1.000000	58.620690	0.000000	-1.000000	-1.000000	1193335.000000	1772739784.587139
