Channel1	Channel2	Channel3	Channel4	Channel5	Channel6	Channel7	Channel8	FilteredChannel1	FilteredChannel2	FilteredChannel3	FilteredChannel4	FilteredChannel5	FilteredChannel6	FilteredChannel7	FilteredChannel8	GyroX	GyroY	GyroZ	AccX	AccY	AccZ	PPG1	PPG2	rawPPG1	rawPPG2	rawPPG3	Hr	Hrv	Battery	Trigger	PhysicalTrigger	AutoTrigger	NumMeasurements	Timestamp
-17483.355000	-19392.750000	-9561.465000	-2121.435000	-15372.540000	-9550.845000	-11472.570000	7169.355000	2.634799	-14.530111	-7.954243	-4.552514	-4.005849	-3.307505	2.283964	5.370678	-6.073480	3.815000	-0.045780	0.922117	-0.177917	0.351317	-1.000000	-1.000000	-1.000000	-1.000000	-1.000000	-1.000000	-1.000000	58.965517	0.000000	-1.000000	-1.000000	1176700.000000	1772739751.298046
-17488.260000	-19385.775000	-9557.505000	-2120.580000	-15372.675000	-9555.570000	-11468.880000	7156.170000	5.098936	-2.995147	-1.042744	-0.882449	0.456864	0.832882	4.213688	3.667504	-8.393000	3.174080	-0.808780	0.919736	-0.177795	0.350036	-1.000000	-1.000000	-1.000000	-1.000000	-1.000000	-1.000000	-1.000000	58.965517	0.000000	-1.000000	-1.000000	1176701.000000	1772739751.298319
-17500.050000	-19388.790000	-9573.255000	-2112.660000	-15359.715000	-9541.170000	-11468.205000	7141.230000	6.420404	11.771783	7.022978	3.201731	4.861579	4.567492	4.754588	-2.612287	-8.393000	3.174080	-0.808780	0.919736	-0.177795	0.350036	-1.000000	-1.000000	-1.000000	-1.000000	-1.000000	-1.000000	-1.000000	58.965517	0.000000	-1.000000	-1.000000	1176702.000000	1772739751.298328
-17529.840000	-19418.940000	-9627.615000	-2135.655000	-15374.430000	-9551.790000	-11494.710000	7097.535000	3.094850	19.355881	9.312788	4.435669	6.122143	5.365964	2.994972	-11.569204	-8.393000	3.174080	-0.808780	0.919736	-0.177795	0.350036	-1.000000	-1.000000	-1.000000	-1.000000	-1.000000	-1.000000	-1.000000	58.965517	0.000000	-1.000000	-1.000000	1176703.000000	1772739751.303974
-17557.065000	-19439.505000	-9603.720000	-2130.795000	-15371.550000	-9544.005000	-11496.015000	7094.745000	-5.133700	14.668514	3.629305	1.802090	3.393806	2.730126	-0.512233	-18.121533	-8.393000	3.174080	-0.808780	0.919736	-0.177795	0.350036	-1.000000	-1.000000	-1.000000	-1.000000	-1.000000	-1.000000	-1.000000	58.965517	0.000000	-1.000000	-1.000000	1176704.000000	1772739751.303982
-17501.535000	-19393.065000	-9513.495000	-2095.830000	-15348.555000	-9517.410000	-11481.525000	7133.220000	-13.435817	3.132135	-2.589442	-1.378158	-0.385937	-0.642334	-4.060708	-17.505372	-8.393000	3.174080	-0.808780	0.919736	-0.177795	0.350036	-1.000000	-1.000000	-1.000000	-1.000000	-1.000000	-1.000000	-1.000000	58.965517	0.000000	-1.000000	-1.000000	1176705.000000	1772739751.306470
-17491.050000	-19363.455000	-9506.880000	-2086.650000	-15339.330000	-9511.785000	-11481.120000	7118.955000	-14.022466	-4.145911	0.058712	-0.578604	-1.287139	-1.377696	-5.429865	-9.046198	-8.393000	3.174080	-0.808780	0.919736	-0.177795	0.350036	-1.000000	-1.000000	-1.000000	-1.000000	-1.000000	-1.000000	-1.000000	58.965517	0.000000	-1.000000	-1.000000	1176706.000000	1772739751.306477
-17491.545000	-19354.365000	-9519.795000	-2085.660000	-15340.005000	-9517.365000	-11485.215000	7095.510000	-4.399510	-2.261146	9.568806	3.661544	0.743535	0.458883	-3.984645	2.367125	-8.393000	3.174080	-0.808780	0.919736	-0.177795	0.350036	-1.000000	-1.000000	-1.000000	-1.000000	-1.000000	-1.000000	-1.000000	58.965517	0.000000	-1.000000	-1.000000	1176707.000000	1772739751.310457
-17485.425000	-19334.610000	-9495.000000	-2058.480000	-15312.195000	-9494.280000	-11462.760000	7050.420000	8.856641	4.046608	15.314958	6.981945	2.983269	2.516753	-1.029896	9.698115	-8.393000	3.174080	-0.808780	0.919736	-0.177795	0.350036	-1.000000	-1.000000	-1.000000	-1.000000	-1.000000	-1.000000	-1.000000	58.965517	0.000000	-1.000000	-1.000000	1176708.000000	1772739751.310464
-17516.070000	-19334.295000	-9498.240000	-2059.695000	-15314.130000	-9504.630000	-11474.685000	7012.485000	16.598404	7.631893	11.546554	7.038149	4.041069	3.679744	1.865312	8.937789	-8.393000	3.174080	-0.808780	0.919736	-0.177795	0.350036	-1.000000	-1.000000	-1.000000	-1.000000	-1.000000	-1.000000	-1.000000	58.965517	0.000000	-1.000000	-1.000000	1176709.000000	1772739751.327691
-17519.805000	-19382.580000	-9547.065000	-2103.750000	-15354.765000	-9538.965000	-11483.145000	7106.085000	14.043310	4.037740	-0.119100	3.164449	2.762199	2.839973	3.133903	3.583943	-8.393000	3.174080	-0.808780	0.919736	-0.177795	0.350036	-1.000000	-1.000000	-1.000000	-1.000000	-1.000000	-1.000000	-1.000000	58.965517	0.000000	-1.000000	-1.000000	1176710.000000	1772739751.327701
-17478.585000	-19416.960000	-9581.670000	-2139.120000	-15390.180000	-9565.560000	-11480.355000	7221.105000	4.268569	-7.073719	-15.099522	-5.398838	-3.091208	-2.180488	2.124493	4.379681	-4.257540	1.800680	0.488320	0.920286	-0.185607	0.351378	-1.000000	-1.000000	-1.000000	-1.000000	-1.000000	-1.000000	-1.000000	58.965517	0.000000	-1.000000	-1.000000	1176711.000000	1772739751.327712
-17488.530000	-19384.200000	-9538.155000	-2100.015000	-15350.040000	-9524.160000	-11470.095000	7166.745000	-4.208323	-19.497938	-25.817522	-15.458629	-11.847153	-9.917015	0.701708	16.847135	-4.257540	1.800680	0.488320	0.920286	-0.185607	0.351378	-1.000000	-1.000000	-1.000000	-1.000000	-1.000000	-1.000000	-1.000000	58.965517	0.000000	-1.000000	-1.000000	1176712.000000	1772739751.327716
-17468.910000	-19360.395000	-9516.420000	-2075.310000	-15322.905000	-9493.335000	-11467.305000	7145.865000	-6.230319	-22.889027	-24.721436	-19.023567	-15.886019	-13.547179	0.937610	29.633301	-4.257540	1.800680	0.488320	0.920286	-0.185607	0.351378	-1.000000	-1.000000	-1.000000	-1.000000	-1.000000	-1.000000	-1.000000	58.965517	0.000000	-1.000000	-1.000000	1176713.000000	1772739751.327720
-17471.430000	-19383.885000	-9546.255000	-2105.595000	-15354.990000	-9523.305000	-11484.990000	7154.235000	-4.042048	-13.526834	-12.974280	-12.320349	-10.519987	-9.012658	1.813804	25.989563	-4.257540	1.800680	0.488320	0.920286	-0.185607	0.351378	-1.000000	-1.000000	-1.000000	-1.000000	-1.000000	-1.000000	-1.000000	58.965517	0.000000	-1.000000	-1.000000	1176714.000000	1772739751.327724
-17490.825000	-19396.080000	-9561.420000	-2119.995000	-15367.995000	-9536.715000	-11485.350000	7133.715000	-2.696396	0.751328	0.135975	-1.045499	-0.476924	-0.574648	0.871293	3.870355	-4.257540	1.800680	0.488320	0.920286	-0.185607	0.351378	-1.000000	-1.000000	-1.000000	-1.000000	-1.000000	-1.000000	-1.000000	58.965517	0.000000	-1.000000	-1.000000	1176715.000000	1772739751.334722
-17482.455000	-19392.660000	-9559.620000	-2117.835000	-15365.295000	-9536.670000	-11471.130000	7145.415000	-4.340774	10.026312	7.853041	6.956890	6.706835	5.342662	-1.922447	-22.854228	-4.257540	1.800680	0.488320	0.920286	-0.185607	0.351378	-1.000000	-1.000000	-1.000000	-1.000000	-1.000000	-1.000000	-1.000000	58.965517	0.000000	-1.000000	-1.000000	1176716.000000	1772739751.334727
-17465.985000	-19372.140000	-9542.070000	-2103.930000	-15355.530000	-9537.885000	-11467.080000	7130.790000	-6.439132	11.683466	10.363833	9.268513	8.488205	6.748402	-4.207961	-37.772561	-4.257540	1.800680	0.488320	0.920286	-0.185607	0.351378	-1.000000	-1.000000	-1.000000	-1.000000	-1.000000	-1.000000	-1.000000	58.965517	0.000000	-1.000000	-1.000000	1176717.000000	1772739751.334732
-17471.565000	-19367.820000	-9533.205000	-2095.605000	-15346.935000	-9531.900000	-11466.765000	7120.710000	-5.050804	9.428900	11.053135	8.484532	7.222493	5.681990	-4.063664	-34.345251	-4.257540	1.800680	0.488320	0.920286	-0.185607	0.351378	-1.000000	-1.000000	-1.000000	-1.000000	-1.000000	-1.000000	-1.000000	58.965517	0.000000	-1.000000	-1.000000	1176718.000000	1772739751.334735
-17496.405000	-19395.090000	-9553.005000	-2109.780000	-15357.420000	-9537.165000	-11476.890000	7131.195000	-0.319663	7.571664	12.455008	8.090921	6.394828	5.122138	-1.571373	-19.580719	-4.257540	1.800680	0.488320	0.920286	-0.185607	0.351378	-1.000000	-1.000000	-1.000000	-1.000000	-1.000000	-1.000000	-1.000000	58.965517	0.000000	-1.000000	-1.000000	1176719.000000	1772739751.334740
-17506.890000	-19411.065000	-9569.835000	-2123.640000	-15368.445000	-9543.015000	-11487.465000	7112.295000	3.169228	6.816810	13.684870	8.555241	6.785562	5.735745	1.353993	-5.455454	-4.257540	1.800680	0.488320	0.920286	-0.185607	0.351378	-1.000000	-1.000000	-1.000000	-1.000000	-1.000000	-1.000000	-1.000000	58.965517	0.000000	-1.000000	-1.000000	1176720.000000	1772739751.334743
-17511.075000	-19389.915000	-9548.910000	-2098.845000	-15342.165000	-9512.325000	-11476.575000	7083.765000	2.463957	4.931107	11.121564	7.165487	5.929120	5.299057	2.690176	2.822526	0.473060	2.441600	-0.015260	0.923215	-0.189880	0.350158	-1.000000	-1.000000	-1.000000	-1.000000	-1.000000	-1.000000	-1.000000	58.965517	0.000000	-1.000000	-1.000000	1176721.000000	1772739751.340869
-17489.160000	-19363.005000	-9518.805000	-2069.505000	-15314.265000	-9482.985000	-11460.510000	7113.015000	-0.537299	1.203071	3.493859	2.732689	2.494713	2.582556	2.449791	7.741996	0.473060	2.441600	-0.015260	0.923215	-0.189880	0.350158	-1.000000	-1.000000	-1.000000	-1.000000	-1.000000	-1.000000	-1.000000	58.965517	0.000000	-1.000000	-1.000000	1176722.000000	1772739751.340879
-17493.255000	-19379.115000	-9532.890000	-2086.470000	-15332.805000	-9503.595000	-11457.405000	7106.940000	-2.053631	-2.322298	-5.295204	-2.121085	-1.385968	-0.578715	2.344327	12.546571	0.473060	2.441600	-0.015260	0.923215	-0.189880	0.350158	-1.000000	-1.000000	-1.000000	-1.000000	-1.000000	-1.000000	-1.000000	58.965517	0.000000	-1.000000	-1.000000	1176723.000000	1772739751.346258
-17515.305000	-19393.020000	-9541.440000	-2096.640000	-15343.560000	-9514.980000	-11451.195000	7096.680000	-0.432998	-4.366734	-10.532887	-5.019813	-3.843853	-2.647850	3.059365	17.047578	0.473060	2.441600	-0.015260	0.923215	-0.189880	0.350158	-1.000000	-1.000000	-1.000000	-1.000000	-1.000000	-1.000000	-1.000000	58.965517	0.000000	-1.000000	-1.000000	1176724.000000	1772739751.346267
-17502.345000	-19397.925000	-9560.340000	-2120.940000	-15369.075000	-9550.215000	-11477.520000	7079.220000	2.581986	-5.872994	-11.526719	-6.787975	-5.842704	-4.665614	2.777065	18.370101	0.473060	2.441600	-0.015260	0.923215	-0.189880	0.350158	-1.000000	-1.000000	-1.000000	-1.000000	-1.000000	-1.000000	-1.000000	58.965517	0.000000	-1.000000	-1.000000	1176725.000000	1772739751.346452
-17492.355000	-19401.840000	-9574.470000	-2138.490000	-15386.310000	-9572.625000	-11489.580000	7149.195000	4.716472	-7.656844	-10.687896	-9.221684	-8.843923	-8.005814	-0.653849	15.547889	0.473060	2.441600	-0.015260	0.923215	-0.189880	0.350158	-1.000000	-1.000000	-1.000000	-1.000000	-1.000000	-1.000000	-1.000000	58.965517	0.000000	-1.000000	-1.000000	1176726.000000	1772739751.346458
-17482.680000	-19391.715000	-9571.770000	-2136.150000	-15383.025000	-9564.615000	-11486.880000	7169.670000	5.794824	-8.232000	-9.215955	-11.505678	-11.588051	-11.229617	-6.057168	11.295918	0.473060	2.441600	-0.015260	0.923215	-0.189880	0.350158	-1.000000	-1.000000	-1.000000	-1.000000	-1.000000	-1.000000	-1.000000	58.965517	0.000000	-1.000000	-1.000000	1176727.000000	1772739751.350557
-17500.725000	-19379.205000	-9546.840000	-2120.670000	-15363.405000	-9539.370000	-11459.700000	7138.620000	6.171805	-4.531211	-4.980973	-9.782230	-10.058443	-10.119547	-8.734035	6.241231	0.473060	2.441600	-0.015260	0.923215	-0.189880	0.350158	-1.000000	-1.000000	-1.000000	-1.000000	-1.000000	-1.000000	-1.000000	58.965517	0.000000	-1.000000	-1.000000	1176728.000000	1772739751.350563
-17489.790000	-19321.245000	-9481.590000	-2071.395000	-15313.725000	-9485.955000	-11444.670000	7100.595000	5.171470	4.422449	4.258946	-1.366583	-1.632220	-1.942346	-4.980172	-2.135796	0.473060	2.441600	-0.015260	0.923215	-0.189880	0.350158	-1.000000	-1.000000	-1.000000	-1.000000	-1.000000	-1.000000	-1.000000	58.965517	0.000000	-1.000000	-1.000000	1176729.000000	1772739751.354454
-17488.665000	-19336.905000	-9523.395000	-2080.755000	-15324.435000	-9492.480000	-11462.580000	7098.795000	2.266586	14.309645	15.005908	10.461231	10.294664	9.915509	3.079736	-12.990761	0.473060	2.441600	-0.015260	0.923215	-0.189880	0.350158	-1.000000	-1.000000	-1.000000	-1.000000	-1.000000	-1.000000	-1.000000	58.965517	0.000000	-1.000000	-1.000000	1176730.000000	1772739751.354460
-17500.410000	-19404.090000	-9577.350000	-2104.245000	-15351.705000	-9522.855000	-11468.565000	7150.410000	-2.326319	16.622580	17.828277	17.486703	17.370144	17.032364	8.738061	-20.685693	-0.350980	1.999060	0.320460	0.917905	-0.188232	0.350219	-1.000000	-1.000000	-1.000000	-1.000000	-1.000000	-1.000000	-1.000000	58.965517	0.000000	-1.000000	-1.000000	1176731.000000	1772739751.359900
-17470.080000	-19365.390000	-9526.950000	-2074.230000	-15319.440000	-9497.430000	-11463.975000	7079.445000	-6.858351	7.153827	8.400494	14.867369	14.719669	14.347800	7.733035	-20.382265	-0.350980	1.999060	0.320460	0.917905	-0.188232	0.350219	-1.000000	-1.000000	-1.000000	-1.000000	-1.000000	-1.000000	-1.000000	58.965517	0.000000	-1.000000	-1.000000	1176732.000000	1772739751.359909
-17494.020000	-19384.380000	-9551.745000	-2108.070000	-15358.095000	-9539.055000	-11487.195000	7079.670000	-8.211479	-7.363930	-5.444081	5.832332	5.667600	5.068147	1.598603	-13.163199	-0.350980	1.999060	0.320460	0.917905	-0.188232	0.350219	-1.000000	-1.000000	-1.000000	-1.000000	-1.000000	-1.000000	-1.000000	58.965517	0.000000	-1.000000	-1.000000	1176733.000000	1772739751.362283
-17539.830000	-19435.320000	-9595.890000	-2155.680000	-15404.535000	-9586.170000	-11484.630000	7187.625000	-6.627952	-17.438847	-14.098573	-4.301565	-4.417677	-5.059439	-5.098097	-2.363809	-0.350980	1.999060	0.320460	0.917905	-0.188232	0.350219	-1.000000	-1.000000	-1.000000	-1.000000	-1.000000	-1.000000	-1.000000	58.965517	0.000000	-1.000000	-1.000000	1176734.000000	1772739751.362292
-17581.905000	-19412.190000	-9564.120000	-2122.650000	-15373.935000	-9559.305000	-11478.195000	7121.160000	-6.380700	-19.654877	-14.911673	-12.086222	-12.111455	-12.157351	-7.910874	9.228851	-0.350980	1.999060	0.320460	0.917905	-0.188232	0.350219	-1.000000	-1.000000	-1.000000	-1.000000	-1.000000	-1.000000	-1.000000	58.965517	0.000000	-1.000000	-1.000000	1176735.000000	1772739751.369037
-17523.405000	-19402.155000	-9563.805000	-2118.915000	-15362.955000	-9545.850000	-11481.570000	7088.310000	-8.064993	-13.866435	-8.824567	-13.934150	-13.840802	-13.086022	-5.354332	14.802964	-0.350980	1.999060	0.320460	0.917905	-0.188232	0.350219	-1.000000	-1.000000	-1.000000	-1.000000	-1.000000	-1.000000	-1.000000	58.965517	0.000000	-1.000000	-1.000000	1176736.000000	1772739751.369044
-17457.390000	-19393.290000	-9562.230000	-2119.095000	-15363.495000	-9539.640000	-11468.070000	7147.620000	-5.199793	-2.015090	0.704131	-8.855016	-8.597164	-7.643396	-0.070929	10.583472	-0.350980	1.999060	0.320460	0.917905	-0.188232	0.350219	-1.000000	-1.000000	-1.000000	-1.000000	-1.000000	-1.000000	-1.000000	58.965517	0.000000	-1.000000	-1.000000	1176737.000000	1772739751.371541
-17458.515000	-19378.890000	-9541.845000	-2097.675000	-15345.585000	-9518.130000	-11469.600000	7156.980000	6.441260	9.934234	7.687531	-1.141317	-0.773010	-0.268756	4.155853	4.204200	-0.350980	1.999060	0.320460	0.917905	-0.188232	0.350219	-1.000000	-1.000000	-1.000000	-1.000000	-1.000000	-1.000000	-1.000000	58.965517	0.000000	-1.000000	-1.000000	1176738.000000	1772739751.371547
-17449.380000	-19376.955000	-9537.030000	-2092.365000	-15341.940000	-9513.675000	-11473.155000	7129.935000	20.331492	16.495402	9.610892	4.698921	4.942618	4.863648	5.559038	2.528803	-0.350980	1.999060	0.320460	0.917905	-0.188232	0.350219	-1.000000	-1.000000	-1.000000	-1.000000	-1.000000	-1.000000	-1.000000	58.965517	0.000000	-1.000000	-1.000000	1176739.000000	1772739751.374310
-17460.585000	-19408.365000	-9555.075000	-2098.755000	-15340.365000	-9509.130000	-11457.900000	7121.925000	25.522821	16.731456	8.764408	7.593622	7.662919	7.367539	4.627810	2.331338	-0.350980	1.999060	0.320460	0.917905	-0.188232	0.350219	-1.000000	-1.000000	-1.000000	-1.000000	-1.000000	-1.000000	-1.000000	58.965517	0.000000	-1.000000	-1.000000	1176740.000000	1772739751.374317
-17485.110000	-19398.330000	-9551.520000	-2097.810000	-15341.805000	-9516.375000	-11463.660000	7118.145000	17.033947	11.626448	6.347310	7.663157	7.923822	8.005762	2.790735	-0.060495	-3.143560	0.976640	1.327620	0.914426	-0.184936	0.350158	-1.000000	-1.000000	-1.000000	-1.000000	-1.000000	-1.000000	-1.000000	58.965517	0.000000	-1.000000	-1.000000	1176741.000000	1772739751.379247
-17500.455000	-19367.505000	-9546.075000	-2104.380000	-15352.470000	-9533.970000	-11467.980000	7118.235000	-1.065322	3.842686	2.458715	5.681571	6.369822	7.011338	1.098500	-3.460451	-3.143560	0.976640	1.327620	0.914426	-0.184936	0.350158	-1.000000	-1.000000	-1.000000	-1.000000	-1.000000	-1.000000	-1.000000	58.965517	0.000000	-1.000000	-1.000000	1176742.000000	1772739751.379253
-17495.505000	-19364.580000	-9562.500000	-2114.685000	-15360.795000	-9540.360000	-11463.165000	7107.615000	-18.088353	-1.508536	-0.930146	3.454708	4.224311	4.946289	-0.155089	-7.351913	-3.143560	0.976640	1.327620	0.914426	-0.184936	0.350158	-1.000000	-1.000000	-1.000000	-1.000000	-1.000000	-1.000000	-1.000000	58.965517	0.000000	-1.000000	-1.000000	1176743.000000	1772739751.382314
-17492.805000	-19363.230000	-9578.250000	-2085.570000	-15320.745000	-9498.420000	-11441.520000	7132.770000	-24.230162	-2.493631	-3.144820	1.628831	2.039035	2.302629	-0.870557	-10.614955	-3.143560	0.976640	1.327620	0.914426	-0.184936	0.350158	-1.000000	-1.000000	-1.000000	-1.000000	-1.000000	-1.000000	-1.000000	58.965517	0.000000	-1.000000	-1.000000	1176744.000000	1772739751.382319
-17469.810000	-19361.340000	-9571.950000	-2087.145000	-15325.155000	-9502.245000	-11454.120000	7148.880000	-18.508234	-2.469423	-5.602682	-0.294706	-0.301916	-0.709299	-1.115959	-8.686673	-3.143560	0.976640	1.327620	0.914426	-0.184936	0.350158	-1.000000	-1.000000	-1.000000	-1.000000	-1.000000	-1.000000	-1.000000	58.965517	0.000000	-1.000000	-1.000000	1176745.000000	1772739751.386431
-17491.995000	-19392.930000	-9551.565000	-2116.710000	-15365.790000	-9537.255000	-11479.455000	7119.720000	-8.077582	-5.206495	-7.959249	-3.108585	-3.646731	-4.739540	-2.167906	-0.886287	-3.143560	0.976640	1.327620	0.914426	-0.184936	0.350158	-1.000000	-1.000000	-1.000000	-1.000000	-1.000000	-1.000000	-1.000000	58.965517	0.000000	-1.000000	-1.000000	1176746.000000	1772739751.386445
-17494.605000	-19369.980000	-9500.220000	-2078.865000	-15327.090000	-9495.540000	-11442.285000	7146.945000	-0.309749	-10.859912	-7.453241	-7.168035	-8.596296	-10.110640	-4.570047	6.942468	-3.143560	0.976640	1.327620	0.914426	-0.184936	0.350158	-1.000000	-1.000000	-1.000000	-1.000000	-1.000000	-1.000000	-1.000000	58.965517	0.000000	-1.000000	-1.000000	1176747.000000	1772739751.390329
-17522.145000	-19383.930000	-9530.280000	-2090.565000	-15339.960000	-9514.620000	-11464.830000	7097.130000	2.572383	-14.778590	-2.159082	-9.968834	-12.188934	-13.589263	-5.937602	9.828483	-3.143560	0.976640	1.327620	0.914426	-0.184936	0.350158	-1.000000	-1.000000	-1.000000	-1.000000	-1.000000	-1.000000	-1.000000	58.965517	0.000000	-1.000000	-1.000000	1176748.000000	1772739751.390338
-17522.325000	-19404.720000	-9560.655000	-2122.335000	-15367.275000	-9540.315000	-11478.105000	7106.940000	2.599324	-12.264131	4.799026	-8.889109	-11.064690	-11.900191	-4.848330	7.281988	-3.143560	0.976640	1.327620	0.914426	-0.184936	0.350158	-1.000000	-1.000000	-1.000000	-1.000000	-1.000000	-1.000000	-1.000000	58.965517	0.000000	-1.000000	-1.000000	1176749.000000	1772739751.394477
-17487.270000	-19385.460000	-9563.490000	-2129.130000	-15376.590000	-9556.875000	-11477.925000	7130.925000	3.711480	-4.268439	7.345578	-5.040153	-6.094138	-6.101029	-2.585192	2.498237	-3.143560	0.976640	1.327620	0.914426	-0.184936	0.350158	-1.000000	-1.000000	-1.000000	-1.000000	-1.000000	-1.000000	-1.000000	58.965517	0.000000	-1.000000	-1.000000	1176750.000000	1772739751.394482
-17503.515000	-19380.690000	-9558.765000	-2124.000000	-15372.765000	-9559.035000	-11472.615000	7097.265000	8.627797	4.868210	4.150034	-0.136819	0.594911	1.432602	0.198175	-1.160928	-2.166920	0.610400	0.122080	0.918821	-0.187255	0.349975	-1.000000	-1.000000	-1.000000	-1.000000	-1.000000	-1.000000	-1.000000	58.965517	0.000000	-1.000000	-1.000000	1176751.000000	1772739751.398319
-17499.015000	-19384.200000	-9555.885000	-2115.630000	-15360.795000	-9544.230000	-11470.230000	7083.990000	14.869296	11.390900	-0.454778	5.259993	7.501552	8.764273	3.342965	-3.840674	-2.166920	0.610400	0.122080	0.918821	-0.187255	0.349975	-1.000000	-1.000000	-1.000000	-1.000000	-1.000000	-1.000000	-1.000000	58.965517	0.000000	-1.000000	-1.000000	1176752.000000	1772739751.398324
-17494.290000	-19359.810000	-9531.585000	-2090.520000	-15336.405000	-9517.590000	-11462.175000	7043.535000	16.487738	13.291676	-2.074277	9.645605	12.211516	13.318739	5.634519	-6.948733	-2.166920	0.610400	0.122080	0.918821	-0.187255	0.349975	-1.000000	-1.000000	-1.000000	-1.000000	-1.000000	-1.000000	-1.000000	58.965517	0.000000	-1.000000	-1.000000	1176753.000000	1772739751.402995
-17471.160000	-19332.630000	-9505.305000	-2063.520000	-15310.305000	-9487.035000	-11454.795000	7022.205000	10.431452	11.481757	0.313180	11.709263	13.326862	13.977288	6.326699	-10.330631	-2.166920	0.610400	0.122080	0.918821	-0.187255	0.349975	-1.000000	-1.000000	-1.000000	-1.000000	-1.000000	-1.000000	-1.000000	58.965517	0.000000	-1.000000	-1.000000	1176754.000000	1772739751.403007
-17470.755000	-19371.510000	-9543.285000	-2097.855000	-15340.860000	-9508.365000	-11470.275000	7154.280000	-0.256061	7.892678	3.281732	10.958201	11.331112	11.607909	5.639524	-10.029430	-2.166920	0.610400	0.122080	0.918821	-0.187255	0.349975	-1.000000	-1.000000	-1.000000	-1.000000	-1.000000	-1.000000	-1.000000	58.965517	0.000000	-1.000000	-1.000000	1176755.000000	1772739751.410429
-17469.630000	-19385.010000	-9557.550000	-2109.150000	-15349.680000	-9514.620000	-11457.855000	7252.830000	-9.409980	2.203215	1.449922	5.763513	5.676534	5.977572	3.357281	1.121145	-2.166920	0.610400	0.122080	0.918821	-0.187255	0.349975	-1.000000	-1.000000	-1.000000	-1.000000	-1.000000	-1.000000	-1.000000	58.965517	0.000000	-1.000000	-1.000000	1176756.000000	1772739751.410439
-17479.125000	-19383.390000	-9552.195000	-2105.010000	-15346.395000	-9518.040000	-11466.360000	7179.750000	-12.958764	-5.223066	-5.069251	-3.443635	-3.222594	-2.573054	-0.148497	21.900678	-2.166920	0.610400	0.122080	0.918821	-0.187255	0.349975	-1.000000	-1.000000	-1.000000	-1.000000	-1.000000	-1.000000	-1.000000	58.965517	0.000000	-1.000000	-1.000000	1176757.000000	1772739751.412361
-17494.110000	-19395.450000	-9560.880000	-2114.730000	-15359.850000	-9541.170000	-11486.700000	7119.405000	-11.285609	-10.771939	-9.612212	-11.239129	-10.873684	-10.234762	-3.306314	35.630022	-2.166920	0.610400	0.122080	0.918821	-0.187255	0.349975	-1.000000	-1.000000	-1.000000	-1.000000	-1.000000	-1.000000	-1.000000	58.965517	0.000000	-1.000000	-1.000000	1176758.000000	1772739751.412370
-17499.060000	-19369.620000	-9538.020000	-2093.625000	-15340.095000	-9524.790000	-11454.435000	7098.210000	-7.735141	-11.517852	-7.231357	-12.259665	-12.508914	-12.710826	-4.771471	26.035945	-2.166920	0.610400	0.122080	0.918821	-0.187255	0.349975	-1.000000	-1.000000	-1.000000	-1.000000	-1.000000	-1.000000	-1.000000	58.965517	0.000000	-1.000000	-1.000000	1176759.000000	1772739751.421280
-17507.205000	-19353.555000	-9523.620000	-2079.990000	-15326.550000	-9509.220000	-11446.245000	7078.410000	-4.695670	-7.281537	0.994359	-6.104757	-7.391031	-8.703702	-3.625796	-3.427912	-2.166920	0.610400	0.122080	0.918821	-0.187255	0.349975	-1.000000	-1.000000	-1.000000	-1.000000	-1.000000	-1.000000	-1.000000	58.965517	0.000000	-1.000000	-1.000000	1176760.000000	1772739751.421287
-17495.820000	-19358.235000	-9532.305000	-2091.240000	-15335.775000	-9516.195000	-11458.575000	7085.160000	-2.029628	-0.082211	9.843896	2.490121	0.427119	-1.349256	-0.603219	-32.788458	-2.716280	-0.976640	-2.121140	0.918516	-0.191162	0.347961	-1.000000	-1.000000	-1.000000	-1.000000	-1.000000	-1.000000	-1.000000	58.965517	0.000000	-1.000000	-1.000000	1176761.000000	1772739751.421520
-17504.640000	-19400.130000	-9568.575000	-2124.810000	-15366.690000	-9540.720000	-11483.640000	7106.535000	0.534256	5.197342	12.595871	6.432690	4.363387	3.081148	1.110651	-43.110701	-2.716280	-0.976640	-2.121140	0.918516	-0.191162	0.347961	-1.000000	-1.000000	-1.000000	-1.000000	-1.000000	-1.000000	-1.000000	58.965517	0.000000	-1.000000	-1.000000	1176762.000000	1772739751.421525
-17512.830000	-19401.975000	-9573.705000	-2130.255000	-15372.540000	-9540.450000	-11489.715000	7133.040000	2.007262	4.133678	5.727833	2.267149	1.180013	1.009742	-0.662216	-29.624268	-2.716280	-0.976640	-2.121140	0.918516	-0.191162	0.347961	-1.000000	-1.000000	-1.000000	-1.000000	-1.000000	-1.000000	-1.000000	58.965517	0.000000	-1.000000	-1.000000	1176763.000000	1772739751.430503
-17505.045000	-19396.485000	-9566.280000	-2117.835000	-15356.655000	-9520.785000	-11461.500000	7144.605000	2.063278	-1.161543	-6.181499	-5.532000	-5.020736	-4.130969	-3.837495	-4.426159	-2.716280	-0.976640	-2.121140	0.918516	-0.191162	0.347961	-1.000000	-1.000000	-1.000000	-1.000000	-1.000000	-1.000000	-1.000000	58.965517	0.000000	-1.000000	-1.000000	1176764.000000	1772739751.430514
-17498.430000	-19397.430000	-9561.330000	-2113.605000	-15354.630000	-9525.240000	-11465.550000	7116.390000	2.383147	-4.011264	-13.495690	-8.850814	-7.016900	-5.722261	-4.316204	14.343525	-2.716280	-0.976640	-2.121140	0.918516	-0.191162	0.347961	-1.000000	-1.000000	-1.000000	-1.000000	-1.000000	-1.000000	-1.000000	58.965517	0.000000	-1.000000	-1.000000	1176765.000000	1772739751.432604
-17504.370000	-19399.185000	-9562.725000	-2116.935000	-15361.650000	-9537.885000	-11472.390000	7125.435000	4.471573	-1.174210	-10.771575	-4.271099	-2.169219	-1.274239	-0.770559	19.370132	-2.716280	-0.976640	-2.121140	0.918516	-0.191162	0.347961	-1.000000	-1.000000	-1.000000	-1.000000	-1.000000	-1.000000	-1.000000	58.965517	0.000000	-1.000000	-1.000000	1176766.000000	1772739751.432612
-17482.095000	-19374.165000	-9547.065000	-2106.720000	-15351.255000	-9536.895000	-11455.245000	7147.710000	7.584913	4.940768	-0.662668	4.811494	6.070954	6.110667	4.558026	16.948125	-2.716280	-0.976640	-2.121140	0.918516	-0.191162	0.347961	-1.000000	-1.000000	-1.000000	-1.000000	-1.000000	-1.000000	-1.000000	58.965517	0.000000	-1.000000	-1.000000	1176767.000000	1772739751.432620
-17490.915000	-19377.405000	-9559.800000	-2127.375000	-15370.290000	-9556.290000	-11463.615000	7138.620000	9.664230	9.649824	9.522477	11.883594	11.928333	11.173543	8.060216	14.666537	-2.716280	-0.976640	-2.121140	0.918516	-0.191162	0.347961	-1.000000	-1.000000	-1.000000	-1.000000	-1.000000	-1.000000	-1.000000	58.965517	0.000000	-1.000000	-1.000000	1176768.000000	1772739751.432623
-17508.780000	-19373.625000	-9560.115000	-2129.805000	-15371.190000	-9553.590000	-11478.915000	7108.695000	8.435848	9.318714	13.154161	11.777563	11.041131	9.944115	6.779691	12.841716	-2.716280	-0.976640	-2.121140	0.918516	-0.191162	0.347961	-1.000000	-1.000000	-1.000000	-1.000000	-1.000000	-1.000000	-1.000000	58.965517	0.000000	-1.000000	-1.000000	1176769.000000	1772739751.437114
-17492.625000	-19376.325000	-9554.175000	-2128.680000	-15367.320000	-9545.355000	-11474.415000	7124.400000	2.755856	3.999623	9.027388	4.782125	3.926743	3.116075	1.152673	7.823653	-2.716280	-0.976640	-2.121140	0.918516	-0.191162	0.347961	-1.000000	-1.000000	-1.000000	-1.000000	-1.000000	-1.000000	-1.000000	58.965517	0.000000	-1.000000	-1.000000	1176770.000000	1772739751.437122
-17487.540000	-19384.155000	-9545.265000	-2115.900000	-15350.445000	-9521.190000	-11450.970000	7138.890000	-5.021121	-2.625847	1.741405	-3.281868	-3.744994	-3.783684	-4.136508	-0.943672	-3.876040	-2.105880	-2.350040	0.915098	-0.191284	0.346923	-1.000000	-1.000000	-1.000000	-1.000000	-1.000000	-1.000000	-1.000000	58.965517	0.000000	-1.000000	-1.000000	1176771.000000	1772739751.439941
-17470.575000	-19367.955000	-9560.565000	-2093.670000	-15331.185000	-9503.595000	-11448.495000	7153.560000	-10.151469	-6.565035	-3.635019	-6.418349	-6.275528	-5.576929	-4.688752	-10.348906	-3.876040	-2.105880	-2.350040	0.915098	-0.191284	0.346923	-1.000000	-1.000000	-1.000000	-1.000000	-1.000000	-1.000000	-1.000000	58.965517	0.000000	-1.000000	-1.000000	1176772.000000	1772739751.439950
-17504.505000	-19378.755000	-9534.240000	-2069.100000	-15316.155000	-9497.790000	-11464.875000	7139.250000	-10.344038	-6.372795	-5.454217	-3.212209	-2.882220	-2.156679	-1.601488	-17.296412	-3.876040	-2.105880	-2.350040	0.915098	-0.191284	0.346923	-1.000000	-1.000000	-1.000000	-1.000000	-1.000000	-1.000000	-1.000000	58.965517	0.000000	-1.000000	-1.000000	1176773.000000	1772739751.444902
-17490.645000	-19344.420000	-9490.005000	-2037.915000	-15284.160000	-9468.225000	-11430.540000	7098.120000	-7.352118	-3.117329	-3.651786	3.411059	3.055231	2.982234	1.135371	-19.495193	-3.876040	-2.105880	-2.350040	0.915098	-0.191284	0.346923	-1.000000	-1.000000	-1.000000	-1.000000	-1.000000	-1.000000	-1.000000	58.965517	0.000000	-1.000000	-1.000000	1176774.000000	1772739751.444908
-17455.500000	-19365.480000	-9535.905000	-2086.605000	-15330.105000	-9515.655000	-11446.875000	7113.240000	-2.988569	0.963827	0.583032	8.338709	7.068410	6.264060	2.223275	-15.636524	-3.876040	-2.105880	-2.350040	0.915098	-0.191284	0.346923	-1.000000	-1.000000	-1.000000	-1.000000	-1.000000	-1.000000	-1.000000	58.965517	0.000000	-1.000000	-1.000000	1176775.000000	1772739751.451073
-17501.220000	-19431.405000	-9611.370000	-2163.690000	-15404.670000	-9587.205000	-11484.315000	7139.295000	1.804663	1.861443	1.905187	5.545727	4.279727	3.876640	1.223983	-6.207589	-3.876040	-2.105880	-2.350040	0.915098	-0.191284	0.346923	-1.000000	-1.000000	-1.000000	-1.000000	-1.000000	-1.000000	-1.000000	58.965517	0.000000	-1.000000	-1.000000	1176776.000000	1772739751.451080
-17492.310000	-19425.690000	-9598.140000	-2157.210000	-15398.280000	-9576.675000	-11472.300000	7151.760000	4.684404	-3.576151	-4.172156	-6.567017	-6.701958	-5.570903	-2.684081	6.739705	-3.876040	-2.105880	-2.350040	0.915098	-0.191284	0.346923	-1.000000	-1.000000	-1.000000	-1.000000	-1.000000	-1.000000	-1.000000	58.965517	0.000000	-1.000000	-1.000000	1176777.000000	1772739751.451089
-17486.100000	-19404.855000	-9562.635000	-2126.340000	-15371.955000	-9553.905000	-11470.995000	7136.640000	4.469709	-11.272840	-12.638505	-19.629700	-18.475607	-15.939897	-6.817635	18.820615	-3.876040	-2.105880	-2.350040	0.915098	-0.191284	0.346923	-1.000000	-1.000000	-1.000000	-1.000000	-1.000000	-1.000000	-1.000000	58.965517	0.000000	-1.000000	-1.000000	1176778.000000	1772739751.451093
-17496.630000	-19394.190000	-9560.115000	-2114.550000	-15352.470000	-9529.785000	-11470.365000	7108.920000	2.446859	-12.528133	-13.759399	-21.926598	-20.353615	-17.970448	-7.018936	23.187125	-3.876040	-2.105880	-2.350040	0.915098	-0.191284	0.346923	-1.000000	-1.000000	-1.000000	-1.000000	-1.000000	-1.000000	-1.000000	58.965517	0.000000	-1.000000	-1.000000	1176779.000000	1772739751.455682
-17493.615000	-19370.205000	-9543.420000	-2093.490000	-15328.485000	-9501.120000	-11469.285000	7088.940000	-0.245399	-3.684326	-4.640983	-10.389408	-9.260579	-8.746575	-3.022463	15.035696	-3.876040	-2.105880	-2.350040	0.915098	-0.191284	0.346923	-1.000000	-1.000000	-1.000000	-1.000000	-1.000000	-1.000000	-1.000000	58.965517	0.000000	-1.000000	-1.000000	1176780.000000	1772739751.455689
-17460.450000	-19364.715000	-9541.035000	-2086.290000	-15326.280000	-9500.445000	-11461.095000	7133.850000	-2.117113	10.483762	9.069318	7.396077	7.911096	6.147359	2.295992	-2.047922	-3.723440	-1.938020	-3.296160	0.917539	-0.188476	0.348388	-1.000000	-1.000000	-1.000000	-1.000000	-1.000000	-1.000000	-1.000000	58.965517	0.000000	-1.000000	-1.000000	1176781.000000	1772739751.458506
-17477.505000	-19396.080000	-9600.930000	-2109.330000	-15340.230000	-9512.055000	-11457.855000	7154.460000	-1.052481	20.648510	17.786945	19.930009	20.193657	17.370162	6.352384	-15.911386	-3.723440	-1.938020	-3.296160	0.917539	-0.188476	0.348388	-1.000000	-1.000000	-1.000000	-1.000000	-1.000000	-1.000000	-1.000000	58.965517	0.000000	-1.000000	-1.000000	1176782.000000	1772739751.458511
-17472.015000	-19390.005000	-9592.830000	-2100.420000	-15335.010000	-9517.185000	-11458.890000	7119.270000	2.125289	19.546551	14.362159	20.167373	20.662272	18.568992	7.666283	-16.561902	-3.723440	-1.938020	-3.296160	0.917539	-0.188476	0.348388	-1.000000	-1.000000	-1.000000	-1.000000	-1.000000	-1.000000	-1.000000	58.965517	0.000000	-1.000000	-1.000000	1176783.000000	1772739751.463393
-17478.720000	-19404.315000	-9555.210000	-2114.595000	-15353.505000	-9544.320000	-11471.265000	7102.665000	3.705848	8.156968	2.792954	10.973764	11.607005	11.013396	5.919702	-6.890809	-3.723440	-1.938020	-3.296160	0.917539	-0.188476	0.348388	-1.000000	-1.000000	-1.000000	-1.000000	-1.000000	-1.000000	-1.000000	58.965517	0.000000	-1.000000	-1.000000	1176784.000000	1772739751.463401
-17544.870000	-19383.840000	-9492.480000	-2085.840000	-15331.770000	-9522.180000	-11463.795000	7114.005000	1.417155	-4.815001	-3.748187	1.745244	1.555733	1.748344	2.595359	2.524622	-3.723440	-1.938020	-3.296160	0.917539	-0.188476	0.348388	-1.000000	-1.000000	-1.000000	-1.000000	-1.000000	-1.000000	-1.000000	58.965517	0.000000	-1.000000	-1.000000	1176785.000000	1772739751.468133
-17527.680000	-19330.650000	-9492.120000	-2067.300000	-15315.660000	-9505.305000	-11461.365000	7045.245000	-3.938328	-10.628016	1.300250	-1.270717	-3.207760	-3.301255	-0.167911	5.099706	-3.723440	-1.938020	-3.296160	0.917539	-0.188476	0.348388	-1.000000	-1.000000	-1.000000	-1.000000	-1.000000	-1.000000	-1.000000	58.965517	0.000000	-1.000000	-1.000000	1176786.000000	1772739751.468138
-17431.290000	-19248.480000	-9443.160000	-2016.090000	-15263.325000	-9452.745000	-11427.210000	6960.285000	-7.487596	-6.286460	10.708839	0.732444	-2.708477	-3.374257	-1.143352	-0.130620	-3.723440	-1.938020	-3.296160	0.917539	-0.188476	0.348388	-1.000000	-1.000000	-1.000000	-1.000000	-1.000000	-1.000000	-1.000000	58.965517	0.000000	-1.000000	-1.000000	1176787.000000	1772739751.472160
-17430.795000	-19314.810000	-9500.535000	-2061.090000	-15298.335000	-9473.355000	-11461.230000	7049.340000	-3.040638	3.587923	13.242266	2.480795	-0.939188	-1.551099	-0.649426	-8.584893	-3.723440	-1.938020	-3.296160	0.917539	-0.188476	0.348388	-1.000000	-1.000000	-1.000000	-1.000000	-1.000000	-1.000000	-1.000000	58.965517	0.000000	-1.000000	-1.000000	1176788.000000	1772739751.472169
-17449.065000	-19410.750000	-9592.245000	-2147.310000	-15380.145000	-9543.420000	-11467.215000	7255.755000	7.401329	7.216740	2.604878	-2.164228	-3.587564	-3.008749	-0.965990	-7.904442	-3.723440	-1.938020	-3.296160	0.917539	-0.188476	0.348388	-1.000000	-1.000000	-1.000000	-1.000000	-1.000000	-1.000000	-1.000000	58.965517	0.000000	-1.000000	-1.000000	1176789.000000	1772739751.476219
-17456.715000	-19383.390000	-9564.075000	-2121.795000	-15360.165000	-9530.280000	-11457.405000	7190.910000	13.754650	-3.090139	-18.059160	-14.704173	-12.977829	-10.403402	-3.554057	9.249448	-3.723440	-1.938020	-3.296160	0.917539	-0.188476	0.348388	-1.000000	-1.000000	-1.000000	-1.000000	-1.000000	-1.000000	-1.000000	58.965517	0.000000	-1.000000	-1.000000	1176790.000000	1772739751.476224
-17525.115000	-19411.515000	-9585.540000	-2144.565000	-15384.195000	-9558.315000	-11487.780000	7112.655000	9.145688	-19.472992	-34.850148	-26.657922	-22.548821	-18.624339	-6.840422	29.173302	-3.631880	-1.144500	-2.685760	0.916502	-0.187072	0.346313	-1.000000	-1.000000	-1.000000	-1.000000	-1.000000	-1.000000	-1.000000	58.965517	0.000000	-1.000000	-1.000000	1176791.000000	1772739751.480342
-17513.955000	-19402.740000	-9579.915000	-2143.170000	-15383.385000	-9564.570000	-11483.640000	7107.705000	-4.540987	-27.401011	-34.787514	-27.048864	-22.811992	-19.468535	-8.499284	31.009276	-3.631880	-1.144500	-2.685760	0.916502	-0.187072	0.346313	-1.000000	-1.000000	-1.000000	-1.000000	-1.000000	-1.000000	-1.000000	58.965517	0.000000	-1.000000	-1.000000	1176792.000000	1772739751.480350
-17483.895000	-19389.690000	-9568.395000	-2131.695000	-15371.595000	-9555.120000	-11466.090000	7146.945000	-17.382426	-19.879127	-17.848277	-13.003489	-10.576479	-9.551821	-6.509777	12.039422	-3.631880	-1.144500	-2.685760	0.916502	-0.187072	0.346313	-1.000000	-1.000000	-1.000000	-1.000000	-1.000000	-1.000000	-1.000000	58.965517	0.000000	-1.000000	-1.000000	1176793.000000	1772739751.488832
-17514.675000	-19409.040000	-9581.085000	-2135.745000	-15372.855000	-9552.060000	-11466.495000	7139.205000	-18.336632	-1.157589	5.268254	8.707629	8.918999	7.149137	-0.207901	-12.668025	-3.631880	-1.144500	-2.685760	0.916502	-0.187072	0.346313	-1.000000	-1.000000	-1.000000	-1.000000	-1.000000	-1.000000	-1.000000	58.965517	0.000000	-1.000000	-1.000000	1176794.000000	1772739751.488837
-17507.295000	-19386.450000	-9559.620000	-2112.705000	-15350.940000	-9528.390000	-11462.625000	7116.480000	-7.433132	16.443473	22.305135	26.135175	24.997219	21.363665	7.275671	-27.019369	-3.631880	-1.144500	-2.685760	0.916502	-0.187072	0.346313	-1.000000	-1.000000	-1.000000	-1.000000	-1.000000	-1.000000	-1.000000	58.965517	0.000000	-1.000000	-1.000000	1176795.000000	1772739751.489100
-17490.015000	-19368.810000	-9538.560000	-2091.015000	-15330.105000	-9504.180000	-11456.190000	7109.460000	4.708611	22.928294	27.614949	30.835625	29.302002	25.468235	11.213336	-25.100311	-3.631880	-1.144500	-2.685760	0.916502	-0.187072	0.346313	-1.000000	-1.000000	-1.000000	-1.000000	-1.000000	-1.000000	-1.000000	58.965517	0.000000	-1.000000	-1.000000	1176796.000000	1772739751.489108
-17475.030000	-19357.695000	-9529.020000	-2085.705000	-15330.915000	-9507.240000	-11467.620000	7132.185000	10.375686	19.709618	24.483724	24.128571	22.296489	19.399534	9.944115	-13.974420	-3.631880	-1.144500	-2.685760	0.916502	-0.187072	0.346313	-1.000000	-1.000000	-1.000000	-1.000000	-1.000000	-1.000000	-1.000000	58.965517	0.000000	-1.000000	-1.000000	1176797.000000	1772739751.493035
-17441.505000	-19337.445000	-9521.640000	-2083.545000	-15332.310000	-9513.180000	-11474.415000	7151.760000	10.723993	15.167572	19.455845	13.417592	10.858989	8.915813	5.032041	-6.347257	-3.631880	-1.144500	-2.685760	0.916502	-0.187072	0.346313	-1.000000	-1.000000	-1.000000	-1.000000	-1.000000	-1.000000	-1.000000	58.965517	0.000000	-1.000000	-1.000000	1176798.000000	1772739751.493041
-17446.680000	-19343.025000	-9519.300000	-2071.305000	-15310.710000	-9489.420000	-11457.405000	7135.020000	10.284415	13.121965	14.655032	3.865882	0.898998	-0.320644	-0.882341	-5.630914	-3.631880	-1.144500	-2.685760	0.916502	-0.187072	0.346313	-1.000000	-1.000000	-1.000000	-1.000000	-1.000000	-1.000000	-1.000000	58.965517	0.000000	-1.000000	-1.000000	1176799.000000	1772739751.494416
-17427.375000	-19358.595000	-9531.180000	-2083.275000	-15321.645000	-9506.250000	-11446.875000	7169.220000	10.987727	9.927684	7.508394	-3.885005	-5.724694	-5.759885	-4.536723	-3.192744	-3.631880	-1.144500	-2.685760	0.916502	-0.187072	0.346313	-1.000000	-1.000000	-1.000000	-1.000000	-1.000000	-1.000000	-1.000000	58.965517	0.000000	-1.000000	-1.000000	1176800.000000	1772739751.494421
-17473.770000	-19399.140000	-9573.660000	-2128.365000	-15367.455000	-9551.655000	-11458.575000	7143.435000	10.175811	1.124212	-4.162041	-10.927964	-10.152036	-8.283841	-4.225847	6.670410	-1.052940	0.671440	-3.555580	0.912412	-0.190185	0.341674	-1.000000	-1.000000	-1.000000	-1.000000	-1.000000	-1.000000	-1.000000	58.965517	0.000000	-1.000000	-1.000000	1176801.000000	1772739751.498519
-17494.470000	-19394.640000	-9568.170000	-2122.515000	-15359.085000	-9536.670000	-11453.310000	7125.975000	3.465297	-12.624644	-18.805174	-17.732560	-14.356119	-10.560007	-2.044492	17.327288	-1.052940	0.671440	-3.555580	0.912412	-0.190185	0.341674	-1.000000	-1.000000	-1.000000	-1.000000	-1.000000	-1.000000	-1.000000	58.965517	0.000000	-1.000000	-1.000000	1176802.000000	1772739751.498528
-17468.190000	-19373.265000	-9546.345000	-2098.215000	-15335.280000	-9512.865000	-11447.505000	7135.965000	-8.133844	-24.691022	-29.930463	-21.907073	-17.455428	-12.743923	-0.912902	19.766508	-1.052940	0.671440	-3.555580	0.912412	-0.190185	0.341674	-1.000000	-1.000000	-1.000000	-1.000000	-1.000000	-1.000000	-1.000000	58.965517	0.000000	-1.000000	-1.000000	1176803.000000	1772739751.503843
-17500.590000	-19386.765000	-9559.080000	-2110.230000	-15347.205000	-9521.055000	-11469.195000	7087.905000	-18.146383	-28.136709	-30.646890	-20.106526	-16.586242	-12.664698	-1.737564	13.621943	-1.052940	0.671440	-3.555580	0.912412	-0.190185	0.341674	-1.000000	-1.000000	-1.000000	-1.000000	-1.000000	-1.000000	-1.000000	58.965517	0.000000	-1.000000	-1.000000	1176804.000000	1772739751.503854
-17499.195000	-19382.580000	-9559.305000	-2113.065000	-15348.420000	-9517.725000	-11471.400000	7092.090000	-22.174679	-21.645081	-20.460305	-12.558506	-11.374814	-9.767233	-3.942881	3.189876	-1.052940	0.671440	-3.555580	0.912412	-0.190185	0.341674	-1.000000	-1.000000	-1.000000	-1.000000	-1.000000	-1.000000	-1.000000	58.965517	0.000000	-1.000000	-1.000000	1176805.000000	1772739751.506399
-17464.995000	-19347.840000	-9520.020000	-2071.800000	-15305.265000	-9477.945000	-11441.205000	7090.470000	-19.071921	-7.813796	-3.709710	-1.489878	-2.731345	-3.942457	-5.101499	-8.759334	-1.052940	0.671440	-3.555580	0.912412	-0.190185	0.341674	-1.000000	-1.000000	-1.000000	-1.000000	-1.000000	-1.000000	-1.000000	58.965517	0.000000	-1.000000	-1.000000	1176806.000000	1772739751.506407
-17445.105000	-19314.810000	-9484.740000	-2038.185000	-15275.475000	-9457.470000	-11443.230000	7058.610000	-8.720185	9.469005	14.686005	11.421294	8.817260	5.378303	-2.468172	-19.092421	-1.052940	0.671440	-3.555580	0.912412	-0.190185	0.341674	-1.000000	-1.000000	-1.000000	-1.000000	-1.000000	-1.000000	-1.000000	58.965517	0.000000	-1.000000	-1.000000	1176807.000000	1772739751.510486
-17467.065000	-19369.710000	-9553.320000	-2113.065000	-15351.795000	-9538.380000	-11491.110000	7116.525000	5.856666	23.631886	27.957832	21.620886	18.784514	14.281296	2.243482	-21.725859	-1.052940	0.671440	-3.555580	0.912412	-0.190185	0.341674	-1.000000	-1.000000	-1.000000	-1.000000	-1.000000	-1.000000	-1.000000	58.965517	0.000000	-1.000000	-1.000000	1176808.000000	1772739751.510496
-17493.840000	-19417.680000	-9604.080000	-2164.230000	-15398.550000	-9577.440000	-11458.845000	7195.635000	17.583495	26.729808	28.112311	21.619992	19.176232	15.144483	4.387186	-11.007339	-1.052940	0.671440	-3.555580	0.912412	-0.190185	0.341674	-1.000000	-1.000000	-1.000000	-1.000000	-1.000000	-1.000000	-1.000000	58.965517	0.000000	-1.000000	-1.000000	1176809.000000	1772739751.514401
-17491.230000	-19410.300000	-9596.205000	-2160.315000	-15393.735000	-9571.050000	-11455.965000	7168.320000	20.690353	16.532514	13.929850	9.832459	8.305310	6.462814	3.317449	10.371808	-1.052940	0.671440	-3.555580	0.912412	-0.190185	0.341674	-1.000000	-1.000000	-1.000000	-1.000000	-1.000000	-1.000000	-1.000000	58.965517	0.000000	-1.000000	-1.000000	1176810.000000	1772739751.514411
-17488.215000	-19388.385000	-9573.390000	-2143.305000	-15374.565000	-9551.520000	-11463.705000	7100.505000	15.840435	0.223740	-5.170969	-5.578477	-5.719843	-4.587310	1.717135	28.490021	2.029580	2.777320	-2.533160	0.911741	-0.189392	0.341186	-1.000000	-1.000000	-1.000000	-1.000000	-1.000000	-1.000000	-1.000000	58.965517	0.000000	-1.000000	-1.000000	1176811.000000	1772739751.518371
-17501.355000	-19385.370000	-9550.395000	-2123.190000	-15350.085000	-9523.575000	-11459.790000	7128.135000	7.117330	-12.218883	-17.187146	-14.676191	-13.392576	-10.187657	0.715686	29.778789	2.029580	2.777320	-2.533160	0.911741	-0.189392	0.341186	-1.000000	-1.000000	-1.000000	-1.000000	-1.000000	-1.000000	-1.000000	58.965517	0.000000	-1.000000	-1.000000	1176812.000000	1772739751.518382
-17538.705000	-19398.285000	-9562.185000	-2115.180000	-15339.825000	-9506.295000	-11455.065000	7152.435000	-2.569139	-15.946460	-16.942102	-13.318692	-11.052676	-7.562425	0.427160	15.465751	2.029580	2.777320	-2.533160	0.911741	-0.189392	0.341186	-1.000000	-1.000000	-1.000000	-1.000000	-1.000000	-1.000000	-1.000000	58.965517	0.000000	-1.000000	-1.000000	1176813.000000	1772739751.527748
-17479.215000	-19361.745000	-9558.495000	-2084.715000	-15319.800000	-9492.885000	-11445.120000	7138.440000	-10.424729	-11.694463	-7.857798	-3.787463	-1.487158	0.734576	1.126399	-3.010403	2.029580	2.777320	-2.533160	0.911741	-0.189392	0.341186	-1.000000	-1.000000	-1.000000	-1.000000	-1.000000	-1.000000	-1.000000	58.965517	0.000000	-1.000000	-1.000000	1176814.000000	1772739751.527760
-17429.355000	-19365.840000	-9535.545000	-2077.740000	-15318.045000	-9496.755000	-11449.440000	7142.760000	-12.369752	-3.298273	2.407918	7.345056	8.333332	8.473860	1.874845	-17.139291	2.029580	2.777320	-2.533160	0.911741	-0.189392	0.341186	-1.000000	-1.000000	-1.000000	-1.000000	-1.000000	-1.000000	-1.000000	58.965517	0.000000	-1.000000	-1.000000	1176815.000000	1772739751.527771
-17455.590000	-19394.190000	-9561.915000	-2108.970000	-15346.305000	-9527.895000	-11473.740000	7119.045000	-6.902638	3.750467	7.855081	12.718813	11.567374	9.848864	1.025032	-23.314208	2.029580	2.777320	-2.533160	0.911741	-0.189392	0.341186	-1.000000	-1.000000	-1.000000	-1.000000	-1.000000	-1.000000	-1.000000	58.965517	0.000000	-1.000000	-1.000000	1176816.000000	1772739751.527775
-17450.370000	-19384.245000	-9561.735000	-2113.830000	-15351.930000	-9540.765000	-11460.825000	7106.760000	1.872323	6.543403	7.926609	10.062711	7.366099	4.867852	-1.260680	-22.224733	2.029580	2.777320	-2.533160	0.911741	-0.189392	0.341186	-1.000000	-1.000000	-1.000000	-1.000000	-1.000000	-1.000000	-1.000000	58.965517	0.000000	-1.000000	-1.000000	1176817.000000	1772739751.534455
-17463.645000	-19384.380000	-9567.135000	-2118.195000	-15355.125000	-9541.305000	-11450.340000	7121.385000	8.268403	7.306060	6.273369	3.931922	1.269775	-0.924089	-3.040999	-17.770062	2.029580	2.777320	-2.533160	0.911741	-0.189392	0.341186	-1.000000	-1.000000	-1.000000	-1.000000	-1.000000	-1.000000	-1.000000	58.965517	0.000000	-1.000000	-1.000000	1176818.000000	1772739751.534464
-17506.440000	-19389.555000	-9564.435000	-2112.030000	-15347.430000	-9529.875000	-11453.355000	7109.280000	8.734802	7.823441	4.957197	-0.889587	-2.127161	-3.390407	-3.095652	-10.725983	2.029580	2.777320	-2.533160	0.911741	-0.189392	0.341186	-1.000000	-1.000000	-1.000000	-1.000000	-1.000000	-1.000000	-1.000000	58.965517	0.000000	-1.000000	-1.000000	1176819.000000	1772739751.534475
-17477.820000	-19367.595000	-9550.890000	-2102.310000	-15336.495000	-9515.430000	-11450.880000	7123.905000	2.777132	6.169354	2.387445	-4.028949	-3.355147	-3.330541	-1.742137	1.090918	2.029580	2.777320	-2.533160	0.911741	-0.189392	0.341186	-1.000000	-1.000000	-1.000000	-1.000000	-1.000000	-1.000000	-1.000000	58.965517	0.000000	-1.000000	-1.000000	1176820.000000	1772739751.534479
-17461.575000	-19363.815000	-9547.245000	-2093.670000	-15325.335000	-9498.510000	-11447.910000	7157.925000	-4.854091	1.512199	-2.355622	-6.627609	-4.531242	-3.162023	0.121263	15.952959	-2.838360	0.000000	-1.541260	0.913450	-0.183410	0.339660	-1.000000	-1.000000	-1.000000	-1.000000	-1.000000	-1.000000	-1.000000	58.965517	0.000000	-1.000000	-1.000000	1176821.000000	1772739751.538454
-17497.980000	-19382.310000	-9593.415000	-2116.530000	-15345.450000	-9515.745000	-11471.580000	7124.535000	-8.056161	-4.018276	-7.602120	-8.723070	-6.175329	-3.918732	1.279162	26.608504	-2.838360	0.000000	-1.541260	0.913450	-0.183410	0.339660	-1.000000	-1.000000	-1.000000	-1.000000	-1.000000	-1.000000	-1.000000	58.965517	0.000000	-1.000000	-1.000000	1176822.000000	1772739751.538461
-17530.380000	-19411.155000	-9617.715000	-2128.455000	-15354.810000	-9527.310000	-11469.195000	7111.035000	-8.005034	-9.179784	-12.022099	-10.364368	-8.028631	-5.632959	0.418757	25.564263	-2.838360	0.000000	-1.541260	0.913450	-0.183410	0.339660	-1.000000	-1.000000	-1.000000	-1.000000	-1.000000	-1.000000	-1.000000	58.965517	0.000000	-1.000000	-1.000000	1176823.000000	1772739751.550922
-17500.455000	-19404.945000	-9549.405000	-2088.405000	-15319.980000	-9498.780000	-11440.665000	7141.770000	-9.472257	-13.434491	-13.964785	-10.625215	-8.723536	-6.852451	-1.484620	13.013939	-2.838360	0.000000	-1.541260	0.913450	-0.183410	0.339660	-1.000000	-1.000000	-1.000000	-1.000000	-1.000000	-1.000000	-1.000000	58.965517	0.000000	-1.000000	-1.000000	1176824.000000	1772739751.550933
-17474.940000	-19365.615000	-9495.855000	-2085.930000	-15327.270000	-9512.505000	-11443.095000	7161.345000	-10.088949	-13.018260	-8.357585	-5.884201	-4.957164	-4.158063	-0.964537	-1.984180	-2.838360	0.000000	-1.541260	0.913450	-0.183410	0.339660	-1.000000	-1.000000	-1.000000	-1.000000	-1.000000	-1.000000	-1.000000	58.965517	0.000000	-1.000000	-1.000000	1176825.000000	1772739751.556341
-17491.770000	-19353.690000	-9521.325000	-2098.845000	-15341.580000	-9533.070000	-11466.810000	7079.760000	-4.046820	-4.040222	6.737562	5.016166	3.979536	3.274151	2.305336	-12.043776	-2.838360	0.000000	-1.541260	0.913450	-0.183410	0.339660	-1.000000	-1.000000	-1.000000	-1.000000	-1.000000	-1.000000	-1.000000	58.827586	0.000000	-1.000000	-1.000000	1176826.000000	1772739751.556346
-17509.005000	-19353.735000	-9537.345000	-2103.165000	-15338.295000	-9524.385000	-11472.840000	7020.000000	7.415878	10.197748	22.213918	16.132602	12.925193	10.684793	3.927862	-18.311234	-2.838360	0.000000	-1.541260	0.913450	-0.183410	0.339660	-1.000000	-1.000000	-1.000000	-1.000000	-1.000000	-1.000000	-1.000000	58.827586	0.000000	-1.000000	-1.000000	1176827.000000	1772739751.556352
-17487.180000	-19376.010000	-9566.595000	-2133.585000	-15369.840000	-9551.565000	-11480.490000	7078.500000	17.464590	20.009700	25.168338	19.134354	15.127282	12.095814	1.289966	-21.861232	-2.838360	0.000000	-1.541260	0.913450	-0.183410	0.339660	-1.000000	-1.000000	-1.000000	-1.000000	-1.000000	-1.000000	-1.000000	58.827586	0.000000	-1.000000	-1.000000	1176828.000000	1772739751.556356
-17448.525000	-19371.780000	-9564.795000	-2128.995000	-15363.765000	-9536.985000	-11453.535000	7192.440000	21.046619	17.854174	11.790310	10.820349	7.985771	5.562680	-2.993818	-16.615985	-2.838360	0.000000	-1.541260	0.913450	-0.183410	0.339660	-1.000000	-1.000000	-1.000000	-1.000000	-1.000000	-1.000000	-1.000000	58.827586	0.000000	-1.000000	-1.000000	1176829.000000	1772739751.556574
-17481.870000	-19377.900000	-9553.725000	-2108.160000	-15339.420000	-9509.265000	-11454.570000	7127.550000	17.084261	5.177735	-8.985524	-3.441205	-3.949822	-4.558822	-4.486532	0.230606	-2.838360	0.000000	-1.541260	0.913450	-0.183410	0.339660	-1.000000	-1.000000	-1.000000	-1.000000	-1.000000	-1.000000	-1.000000	58.827586	0.000000	-1.000000	-1.000000	1176830.000000	1772739751.556582
-17497.260000	-19393.155000	-9568.395000	-2120.895000	-15352.965000	-9527.400000	-11477.430000	7118.820000	6.933065	-9.362171	-22.863253	-13.798238	-12.066698	-10.721003	-1.857879	18.620605	-6.577060	6.577060	-0.137340	0.916685	-0.180725	0.340148	-1.000000	-1.000000	-1.000000	-1.000000	-1.000000	-1.000000	-1.000000	58.827586	0.000000	-1.000000	-1.000000	1176831.000000	1772739751.566300
-17478.675000	-19387.575000	-9562.545000	-2114.055000	-15345.495000	-9523.890000	-11479.995000	7159.590000	-5.925845	-17.391362	-22.495547	-14.865900	-11.864026	-9.522477	1.732919	26.242233	-6.577060	6.577060	-0.137340	0.916685	-0.180725	0.340148	-1.000000	-1.000000	-1.000000	-1.000000	-1.000000	-1.000000	-1.000000	58.827586	0.000000	-1.000000	-1.000000	1176832.000000	1772739751.566310
-17460.855000	-19372.185000	-9551.430000	-2106.990000	-15341.895000	-9523.395000	-11466.000000	7129.305000	-16.028425	-15.606821	-12.108388	-8.619921	-5.580291	-3.485508	2.890558	20.301725	-6.577060	6.577060	-0.137340	0.916685	-0.180725	0.340148	-1.000000	-1.000000	-1.000000	-1.000000	-1.000000	-1.000000	-1.000000	58.827586	0.000000	-1.000000	-1.000000	1176833.000000	1772739751.566321
-17485.245000	-19370.205000	-9549.855000	-2106.765000	-15341.715000	-9525.195000	-11434.005000	7124.985000	-19.331872	-6.571908	-0.381007	0.237591	2.403092	3.569021	2.318192	5.313423	-6.577060	6.577060	-0.137340	0.916685	-0.180725	0.340148	-1.000000	-1.000000	-1.000000	-1.000000	-1.000000	-1.000000	-1.000000	58.827586	0.000000	-1.000000	-1.000000	1176834.000000	1772739751.566325
-17493.885000	-19356.840000	-9542.520000	-2101.680000	-15339.240000	-9523.620000	-11428.155000	7155.585000	-15.771595	3.716447	7.871808	7.941418	8.769893	8.996090	3.005969	-9.491104	-6.577060	6.577060	-0.137340	0.916685	-0.180725	0.340148	-1.000000	-1.000000	-1.000000	-1.000000	-1.000000	-1.000000	-1.000000	58.827586	0.000000	-1.000000	-1.000000	1176835.000000	1772739751.566486
-17478.135000	-19371.555000	-9558.855000	-2116.395000	-15353.595000	-9534.015000	-11447.775000	7163.730000	-7.445114	10.271393	12.259082	11.859367	11.117954	10.603138	5.115003	-14.158646	-6.577060	6.577060	-0.137340	0.916685	-0.180725	0.340148	-1.000000	-1.000000	-1.000000	-1.000000	-1.000000	-1.000000	-1.000000	58.827586	0.000000	-1.000000	-1.000000	1176836.000000	1772739751.566494
-17465.715000	-19366.965000	-9555.615000	-2110.815000	-15346.890000	-9523.395000	-11465.820000	7094.430000	2.406194	11.164366	12.968883	10.668305	8.493529	7.397055	5.030568	-9.785406	-6.577060	6.577060	-0.137340	0.916685	-0.180725	0.340148	-1.000000	-1.000000	-1.000000	-1.000000	-1.000000	-1.000000	-1.000000	58.827586	0.000000	-1.000000	-1.000000	1176837.000000	1772739751.570525
-17488.305000	-19387.170000	-9565.245000	-2114.370000	-15347.295000	-9515.790000	-11466.495000	7091.010000	9.105109	6.998327	9.736699	5.068080	2.272442	0.857736	-0.015335	-8.057140	-6.577060	6.577060	-0.137340	0.916685	-0.180725	0.340148	-1.000000	-1.000000	-1.000000	-1.000000	-1.000000	-1.000000	-1.000000	58.827586	0.000000	-1.000000	-1.000000	1176838.000000	1772739751.570532
-17495.910000	-19388.610000	-9562.005000	-2109.690000	-15343.920000	-9513.630000	-11452.320000	7136.730000	9.884976	0.281011	3.598031	-2.443638	-4.705001	-5.965112	-7.435797	-12.201855	-6.577060	6.577060	-0.137340	0.916685	-0.180725	0.340148	-1.000000	-1.000000	-1.000000	-1.000000	-1.000000	-1.000000	-1.000000	58.827586	0.000000	-1.000000	-1.000000	1176839.000000	1772739751.574493
-17464.545000	-19354.050000	-9532.530000	-2082.240000	-15319.170000	-9496.845000	-11447.820000	7132.680000	6.833293	-4.795413	-2.108479	-8.010497	-8.970352	-9.621429	-11.029720	-12.582019	-6.577060	6.577060	-0.137340	0.916685	-0.180725	0.340148	-1.000000	-1.000000	-1.000000	-1.000000	-1.000000	-1.000000	-1.000000	58.827586	0.000000	-1.000000	-1.000000	1176840.000000	1772739751.574499
-17473.005000	-19372.680000	-9550.755000	-2101.050000	-15337.530000	-9516.105000	-11449.620000	7149.645000	3.508677	-5.003643	-4.641476	-8.783939	-8.372862	-8.300994	-7.839803	-3.907466	-6.027700	7.706300	0.228900	0.917295	-0.182739	0.339233	-1.000000	-1.000000	-1.000000	-1.000000	-1.000000	-1.000000	-1.000000	58.827586	0.000000	-1.000000	-1.000000	1176841.000000	1772739751.622217
-17481.915000	-19388.340000	-9571.590000	-2124.495000	-15359.715000	-9540.360000	-11440.530000	7144.425000	0.672631	-2.189406	-5.475148	-6.181503	-4.718813	-4.076011	-1.016266	8.758491	-6.027700	7.706300	0.228900	0.917295	-0.182739	0.339233	-1.000000	-1.000000	-1.000000	-1.000000	-1.000000	-1.000000	-1.000000	58.827586	0.000000	-1.000000	-1.000000	1176842.000000	1772739751.622229
-17466.975000	-19391.670000	-9579.960000	-2134.035000	-15368.445000	-9548.145000	-11445.120000	7127.010000	-1.719159	-0.948747	-7.253508	-3.769812	-1.650431	-0.616119	4.210809	17.937104	-6.027700	7.706300	0.228900	0.917295	-0.182739	0.339233	-1.000000	-1.000000	-1.000000	-1.000000	-1.000000	-1.000000	-1.000000	58.827586	0.000000	-1.000000	-1.000000	1176843.000000	1772739751.622241
-17465.040000	-19368.765000	-9555.390000	-2108.970000	-15343.695000	-9522.045000	-11438.145000	7146.135000	-2.067991	-2.175994	-8.653570	-2.327473	-0.114697	1.059384	5.348859	19.054625	-6.027700	7.706300	0.228900	0.917295	-0.182739	0.339233	-1.000000	-1.000000	-1.000000	-1.000000	-1.000000	-1.000000	-1.000000	58.827586	0.000000	-1.000000	-1.000000	1176844.000000	1772739751.622247
-17498.970000	-19383.750000	-9563.580000	-2114.865000	-15347.700000	-9523.395000	-11461.680000	7111.395000	-0.765515	-2.841240	-6.104431	0.175891	1.742366	2.616242	3.631726	12.192669	-6.027700	7.706300	0.228900	0.917295	-0.182739	0.339233	-1.000000	-1.000000	-1.000000	-1.000000	-1.000000	-1.000000	-1.000000	58.827586	0.000000	-1.000000	-1.000000	1176845.000000	1772739751.628898
-17467.650000	-19356.795000	-9538.830000	-2087.685000	-15320.880000	-9493.515000	-11459.250000	7049.970000	-0.868599	-0.762652	0.887096	4.540337	4.880967	4.952937	1.278393	0.310417	-6.027700	7.706300	0.228900	0.917295	-0.182739	0.339233	-1.000000	-1.000000	-1.000000	-1.000000	-1.000000	-1.000000	-1.000000	58.827586	0.000000	-1.000000	-1.000000	1176846.000000	1772739751.628908
-17411.220000	-19324.800000	-9521.685000	-2074.725000	-15311.475000	-9483.705000	-11448.540000	7152.930000	-1.438555	4.074505	9.129293	8.979426	7.901209	6.911498	-0.392580	-11.342097	-6.027700	7.706300	0.228900	0.917295	-0.182739	0.339233	-1.000000	-1.000000	-1.000000	-1.000000	-1.000000	-1.000000	-1.000000	58.827586	0.000000	-1.000000	-1.000000	1176847.000000	1772739751.628921
-17438.715000	-19345.275000	-9543.240000	-2097.540000	-15335.550000	-9511.200000	-11465.955000	7183.080000	1.309474	9.594950	14.170187	10.500614	8.266564	6.516239	-0.951332	-14.731355	-6.027700	7.706300	0.228900	0.917295	-0.182739	0.339233	-1.000000	-1.000000	-1.000000	-1.000000	-1.000000	-1.000000	-1.000000	58.827586	0.000000	-1.000000	-1.000000	1176848.000000	1772739751.628925
-17499.780000	-19380.105000	-9569.880000	-2122.785000	-15357.015000	-9529.245000	-11450.520000	7147.800000	4.420263	10.601696	11.713961	6.224275	3.691585	2.158460	-0.837091	-7.420343	-6.027700	7.706300	0.228900	0.917295	-0.182739	0.339233	-1.000000	-1.000000	-1.000000	-1.000000	-1.000000	-1.000000	-1.000000	58.827586	0.000000	-1.000000	-1.000000	1176849.000000	1772739751.628930
-17557.560000	-19400.580000	-9578.115000	-2129.445000	-15361.740000	-9538.650000	-11451.420000	7037.550000	0.405352	3.382854	1.378566	-3.167929	-4.743653	-4.944428	-0.444367	1.189427	-6.027700	7.706300	0.228900	0.917295	-0.182739	0.339233	-1.000000	-1.000000	-1.000000	-1.000000	-1.000000	-1.000000	-1.000000	58.827586	0.000000	-1.000000	-1.000000	1176850.000000	1772739751.628934
-17542.665000	-19355.895000	-9535.680000	-2095.200000	-15330.105000	-9515.025000	-11443.545000	6969.555000	-10.592129	-7.812512	-10.010217	-11.239617	-11.024842	-9.708035	0.116283	-0.201429	-5.142620	8.057280	0.961380	0.913023	-0.185852	0.338256	-1.000000	-1.000000	-1.000000	-1.000000	-1.000000	-1.000000	-1.000000	58.827586	0.000000	-1.000000	-1.000000	1176851.000000	1772739751.628938
-17485.605000	-19332.855000	-9531.045000	-2093.220000	-15329.700000	-9514.530000	-11453.940000	7089.795000	-18.269227	-13.758877	-13.658242	-11.316939	-9.622198	-7.876080	0.409032	-9.645209	-5.142620	8.057280	0.961380	0.913023	-0.185852	0.338256	-1.000000	-1.000000	-1.000000	-1.000000	-1.000000	-1.000000	-1.000000	58.827586	0.000000	-1.000000	-1.000000	1176852.000000	1772739751.628942
-17449.065000	-19374.300000	-9572.400000	-2122.740000	-15358.860000	-9537.345000	-11456.910000	7254.225000	-12.439575	-10.504581	-8.394406	-4.249369	-2.271655	-1.403829	0.194164	-10.734885	-5.142620	8.057280	0.961380	0.913023	-0.185852	0.338256	-1.000000	-1.000000	-1.000000	-1.000000	-1.000000	-1.000000	-1.000000	58.827586	0.000000	-1.000000	-1.000000	1176853.000000	1772739751.628947
-17483.400000	-19419.255000	-9587.880000	-2134.305000	-15371.550000	-9542.565000	-11461.680000	7209.135000	5.436321	-3.481616	-1.231151	2.721703	3.822547	3.518642	0.019391	7.768606	-5.142620	8.057280	0.961380	0.913023	-0.185852	0.338256	-1.000000	-1.000000	-1.000000	-1.000000	-1.000000	-1.000000	-1.000000	58.827586	0.000000	-1.000000	-1.000000	1176854.000000	1772739751.628950
-17490.105000	-19381.230000	-9554.355000	-2101.590000	-15339.375000	-9512.145000	-11453.805000	7143.210000	21.820059	0.275869	1.946794	4.495337	4.262729	3.456937	0.419598	33.049972	-5.142620	8.057280	0.961380	0.913023	-0.185852	0.338256	-1.000000	-1.000000	-1.000000	-1.000000	-1.000000	-1.000000	-1.000000	58.827586	0.000000	-1.000000	-1.000000	1176855.000000	1772739751.628955
-17447.130000	-19336.500000	-9517.905000	-2065.905000	-15301.305000	-9480.510000	-11431.845000	7194.330000	24.613196	0.926298	2.334293	2.909109	1.770858	1.094455	1.371240	39.868669	-5.142620	8.057280	0.961380	0.913023	-0.185852	0.338256	-1.000000	-1.000000	-1.000000	-1.000000	-1.000000	-1.000000	-1.000000	58.827586	0.000000	-1.000000	-1.000000	1176856.000000	1772739751.628959
-17409.240000	-19312.920000	-9497.340000	-2062.755000	-15299.910000	-9482.085000	-11429.145000	7213.905000	15.408611	3.753138	4.472582	2.901756	1.832204	1.365482	2.778966	19.829166	-5.142620	8.057280	0.961380	0.913023	-0.185852	0.338256	-1.000000	-1.000000	-1.000000	-1.000000	-1.000000	-1.000000	-1.000000	58.827586	0.000000	-1.000000	-1.000000	1176857.000000	1772739751.628963
-17459.280000	-19371.330000	-9552.555000	-2119.635000	-15343.065000	-9517.545000	-11446.020000	7169.085000	4.342352	9.978066	8.759357	5.169026	5.040077	4.748966	3.536250	-11.818376	-5.142620	8.057280	0.961380	0.913023	-0.185852	0.338256	-1.000000	-1.000000	-1.000000	-1.000000	-1.000000	-1.000000	-1.000000	58.827586	0.000000	-1.000000	-1.000000	1176858.000000	1772739751.628966
-17504.595000	-19393.245000	-9604.665000	-2147.715000	-15376.680000	-9559.395000	-11479.815000	7104.645000	-3.380683	13.476864	9.286201	4.906317	6.058900	6.239843	1.184178	-34.567543	-5.142620	8.057280	0.961380	0.913023	-0.185852	0.338256	-1.000000	-1.000000	-1.000000	-1.000000	-1.000000	-1.000000	-1.000000	58.827586	0.000000	-1.000000	-1.000000	1176859.000000	1772739751.628971
-17469.810000	-19398.780000	-9589.410000	-2124.765000	-15364.620000	-9551.565000	-11492.055000	7106.805000	-9.458577	7.960313	1.239986	-0.978385	0.838585	1.701607	-4.989097	-38.827655	-5.142620	8.057280	0.961380	0.913023	-0.185852	0.338256	-1.000000	-1.000000	-1.000000	-1.000000	-1.000000	-1.000000	-1.000000	58.827586	0.000000	-1.000000	-1.000000	1176860.000000	1772739751.628974
-17468.505000	-19432.530000	-9599.400000	-2145.870000	-15379.110000	-9556.920000	-11476.980000	7139.160000	-15.115345	-5.256639	-11.056636	-8.776063	-7.707627	-6.509043	-11.173332	-29.018593	-5.218920	8.270920	2.548420	0.912046	-0.187133	0.339416	-1.000000	-1.000000	-1.000000	-1.000000	-1.000000	-1.000000	-1.000000	58.827586	0.000000	-1.000000	-1.000000	1176861.000000	1772739751.628978
-17458.245000	-19413.630000	-9599.535000	-2148.930000	-15382.350000	-9559.215000	-11472.120000	7155.135000	-18.167805	-17.187276	-17.548731	-12.157635	-12.716418	-11.788262	-11.508290	-15.517469	-5.218920	8.270920	2.548420	0.912046	-0.187133	0.339416	-1.000000	-1.000000	-1.000000	-1.000000	-1.000000	-1.000000	-1.000000	58.827586	0.000000	-1.000000	-1.000000	1176862.000000	1772739751.628982
-17451.945000	-19376.550000	-9576.090000	-2127.555000	-15362.820000	-9536.355000	-11473.200000	7161.435000	-15.317907	-17.871859	-12.621245	-8.367917	-10.163855	-10.003038	-4.252037	-2.526188	-5.218920	8.270920	2.548420	0.912046	-0.187133	0.339416	-1.000000	-1.000000	-1.000000	-1.000000	-1.000000	-1.000000	-1.000000	58.827586	0.000000	-1.000000	-1.000000	1176863.000000	1772739751.628986
-17501.580000	-19393.965000	-9572.040000	-2114.820000	-15345.585000	-9516.420000	-11454.345000	7133.940000	-6.966567	-6.367842	0.076884	0.056812	-1.896185	-2.569235	6.154647	11.059643	-5.218920	8.270920	2.548420	0.912046	-0.187133	0.339416	-1.000000	-1.000000	-1.000000	-1.000000	-1.000000	-1.000000	-1.000000	58.827586	0.000000	-1.000000	-1.000000	1176864.000000	1772739751.628990
-17493.120000	-19389.330000	-9589.140000	-2111.985000	-15340.320000	-9513.855000	-11446.560000	7101.810000	0.908679	7.275194	11.181404	7.653747	6.631203	5.749302	13.513274	20.923148	-5.218920	8.270920	2.548420	0.912046	-0.187133	0.339416	-1.000000	-1.000000	-1.000000	-1.000000	-1.000000	-1.000000	-1.000000	58.827586	0.000000	-1.000000	-1.000000	1176865.000000	1772739751.628994
-17495.775000	-19393.290000	-9624.915000	-2119.905000	-15340.005000	-9516.735000	-11443.365000	7117.245000	4.154084	13.514513	13.492846	10.744356	11.257170	10.869258	14.501812	20.798126	-5.218920	8.270920	2.548420	0.912046	-0.187133	0.339416	-1.000000	-1.000000	-1.000000	-1.000000	-1.000000	-1.000000	-1.000000	58.827586	0.000000	-1.000000	-1.000000	1176866.000000	1772739751.628998
-17471.790000	-19367.190000	-9579.690000	-2107.665000	-15336.945000	-9524.790000	-11447.820000	7103.115000	6.228055	12.572397	8.520327	10.257161	11.904376	11.840559	9.820851	13.994681	-5.218920	8.270920	2.548420	0.912046	-0.187133	0.339416	-1.000000	-1.000000	-1.000000	-1.000000	-1.000000	-1.000000	-1.000000	58.827586	0.000000	-1.000000	-1.000000	1176867.000000	1772739751.631088
-17438.580000	-19330.110000	-9479.295000	-2066.355000	-15308.325000	-9501.390000	-11439.630000	7070.850000	12.148452	10.252116	5.413062	9.298438	10.655789	10.097421	2.961019	9.069797	-5.218920	8.270920	2.548420	0.912046	-0.187133	0.339416	-1.000000	-1.000000	-1.000000	-1.000000	-1.000000	-1.000000	-1.000000	58.827586	0.000000	-1.000000	-1.000000	1176868.000000	1772739751.631093
-17500.230000	-19397.340000	-9515.115000	-2086.830000	-15321.915000	-9508.365000	-11451.870000	7069.995000	18.797869	8.463451	9.460502	8.334100	8.123025	6.788073	-2.735535	7.222336	-5.218920	8.270920	2.548420	0.912046	-0.187133	0.339416	-1.000000	-1.000000	-1.000000	-1.000000	-1.000000	-1.000000	-1.000000	58.827586	0.000000	-1.000000	-1.000000	1176869.000000	1772739751.634466
-17541.945000	-19439.640000	-9575.370000	-2128.590000	-15364.080000	-9546.795000	-11453.940000	7174.800000	16.320932	3.365877	13.545458	4.414409	2.752477	1.337807	-6.492743	3.896740	-5.218920	8.270920	2.548420	0.912046	-0.187133	0.339416	-1.000000	-1.000000	-1.000000	-1.000000	-1.000000	-1.000000	-1.000000	58.827586	0.000000	-1.000000	-1.000000	1176870.000000	1772739751.634475
-17503.155000	-19385.280000	-9560.070000	-2118.645000	-15357.690000	-9535.590000	-11448.540000	7195.275000	1.941570	-6.444366	7.574984	-4.109705	-6.030496	-6.551030	-8.745799	-0.470050	-2.548420	8.698200	2.701020	0.916502	-0.187927	0.341735	-1.000000	-1.000000	-1.000000	-1.000000	-1.000000	-1.000000	-1.000000	58.827586	0.000000	-1.000000	-1.000000	1176871.000000	1772739751.642627
-17459.865000	-19346.670000	-9546.570000	-2102.220000	-15334.740000	-9513.630000	-11464.245000	7112.925000	-13.447533	-14.914028	-7.859994	-13.994072	-14.992565	-14.168307	-9.358918	-2.858388	-2.548420	8.698200	2.701020	0.916502	-0.187927	0.341735	-1.000000	-1.000000	-1.000000	-1.000000	-1.000000	-1.000000	-1.000000	58.827586	0.000000	-1.000000	-1.000000	1176872.000000	1772739751.642637
-17440.605000	-19321.560000	-9521.370000	-2076.750000	-15308.640000	-9489.690000	-11450.070000	7091.145000	-16.842936	-15.014236	-22.517706	-19.316794	-18.777580	-16.954804	-8.406325	-5.664210	-2.548420	8.698200	2.701020	0.916502	-0.187927	0.341735	-1.000000	-1.000000	-1.000000	-1.000000	-1.000000	-1.000000	-1.000000	58.827586	0.000000	-1.000000	-1.000000	1176873.000000	1772739751.642707
-17469.405000	-19352.970000	-9538.515000	-2092.590000	-15325.875000	-9506.565000	-11444.220000	7076.655000	-7.314967	-6.954574	-26.596292	-16.447173	-14.636450	-12.623586	-5.980001	-11.412494	-2.548420	8.698200	2.701020	0.916502	-0.187927	0.341735	-1.000000	-1.000000	-1.000000	-1.000000	-1.000000	-1.000000	-1.000000	58.827586	0.000000	-1.000000	-1.000000	1176874.000000	1772739751.642715
-17499.735000	-19388.790000	-9572.625000	-2126.970000	-15359.085000	-9542.880000	-11444.130000	7147.305000	4.502062	1.954541	-18.403610	-7.227710	-5.276123	-3.755090	-1.802642	-15.510392	-2.548420	8.698200	2.701020	0.916502	-0.187927	0.341735	-1.000000	-1.000000	-1.000000	-1.000000	-1.000000	-1.000000	-1.000000	58.827586	0.000000	-1.000000	-1.000000	1176875.000000	1772739751.646454
-17478.360000	-19368.990000	-9561.825000	-2118.870000	-15350.985000	-9535.185000	-11419.965000	7164.405000	8.698135	4.789285	-5.098656	2.477204	3.587346	4.441316	3.806110	-10.193009	-2.548420	8.698200	2.701020	0.916502	-0.187927	0.341735	-1.000000	-1.000000	-1.000000	-1.000000	-1.000000	-1.000000	-1.000000	58.827586	0.000000	-1.000000	-1.000000	1176876.000000	1772739751.646463
-17474.715000	-19369.440000	-9560.655000	-2115.180000	-15347.205000	-9531.945000	-11451.015000	7101.045000	4.368603	1.525837	4.187369	7.816773	8.227627	8.661914	9.065976	4.285158	-2.548420	8.698200	2.701020	0.916502	-0.187927	0.341735	-1.000000	-1.000000	-1.000000	-1.000000	-1.000000	-1.000000	-1.000000	58.827586	0.000000	-1.000000	-1.000000	1176877.000000	1772739751.651895
-17507.790000	-19419.390000	-9611.370000	-2164.005000	-15395.715000	-9575.145000	-11482.020000	7167.195000	-2.668543	-2.277286	6.512400	8.097921	8.452003	8.562368	10.468571	16.340310	-2.548420	8.698200	2.701020	0.916502	-0.187927	0.341735	-1.000000	-1.000000	-1.000000	-1.000000	-1.000000	-1.000000	-1.000000	58.827586	0.000000	-1.000000	-1.000000	1176878.000000	1772739751.651906
-17475.885000	-19405.845000	-9600.210000	-2151.720000	-15382.980000	-9559.665000	-11479.905000	7195.500000	-6.371954	-2.323902	5.743321	5.798660	6.164985	5.656163	5.845488	15.824803	-2.548420	8.698200	2.701020	0.916502	-0.187927	0.341735	-1.000000	-1.000000	-1.000000	-1.000000	-1.000000	-1.000000	-1.000000	58.827586	0.000000	-1.000000	-1.000000	1176879.000000	1772739751.655214
-17479.305000	-19391.130000	-9581.445000	-2129.805000	-15360.570000	-9535.905000	-11474.280000	7144.740000	-5.101401	0.410155	6.357142	3.979835	3.975320	2.617110	-1.898936	4.169110	-2.548420	8.698200	2.701020	0.916502	-0.187927	0.341735	-1.000000	-1.000000	-1.000000	-1.000000	-1.000000	-1.000000	-1.000000	58.827586	0.000000	-1.000000	-1.000000	1176880.000000	1772739751.655219
-17493.705000	-19382.355000	-9568.125000	-2115.180000	-15346.710000	-9523.980000	-11462.625000	7126.560000	-2.152409	2.332842	8.823558	3.846039	3.134374	1.155674	-7.056114	-9.516686	-1.907500	7.996240	1.846460	0.914182	-0.188232	0.340575	-1.000000	-1.000000	-1.000000	-1.000000	-1.000000	-1.000000	-1.000000	58.827586	0.000000	-1.000000	-1.000000	1176881.000000	1772739751.660993
-17495.190000	-19364.670000	-9544.680000	-2091.465000	-15324.660000	-9507.690000	-11466.945000	7123.770000	-1.250991	2.188708	10.921350	4.512983	2.966928	0.947403	-6.744745	-16.328851	-1.907500	7.996240	1.846460	0.914182	-0.188232	0.340575	-1.000000	-1.000000	-1.000000	-1.000000	-1.000000	-1.000000	-1.000000	58.827586	0.000000	-1.000000	-1.000000	1176882.000000	1772739751.661003
-17463.465000	-19367.145000	-9553.185000	-2105.415000	-15339.330000	-9526.635000	-11463.930000	7152.705000	-1.253153	2.338943	11.364606	5.124045	2.972698	1.416151	-2.642256	-13.049196	-1.907500	7.996240	1.846460	0.914182	-0.188232	0.340575	-1.000000	-1.000000	-1.000000	-1.000000	-1.000000	-1.000000	-1.000000	58.827586	0.000000	-1.000000	-1.000000	1176883.000000	1772739751.665206
-17459.820000	-19407.420000	-9592.380000	-2142.495000	-15372.990000	-9556.875000	-11450.205000	7176.195000	1.823997	4.243128	9.356273	4.722214	2.652685	1.898319	2.034646	-3.129475	-1.907500	7.996240	1.846460	0.914182	-0.188232	0.340575	-1.000000	-1.000000	-1.000000	-1.000000	-1.000000	-1.000000	-1.000000	58.827586	0.000000	-1.000000	-1.000000	1176884.000000	1772739751.665215
-17474.265000	-19388.745000	-9575.055000	-2125.530000	-15356.655000	-9539.910000	-11447.820000	7141.320000	7.164838	5.087758	2.985330	1.414354	0.439757	0.906579	5.224034	7.076700	-1.907500	7.996240	1.846460	0.914182	-0.188232	0.340575	-1.000000	-1.000000	-1.000000	-1.000000	-1.000000	-1.000000	-1.000000	58.827586	0.000000	-1.000000	-1.000000	1176885.000000	1772739751.670385
-17486.280000	-19345.590000	-9540.675000	-2096.505000	-15330.105000	-9515.970000	-11447.100000	7127.415000	9.344761	3.630198	-6.076857	-3.805118	-3.029341	-1.241907	6.539773	12.085212	-1.907500	7.996240	1.846460	0.914182	-0.188232	0.340575	-1.000000	-1.000000	-1.000000	-1.000000	-1.000000	-1.000000	-1.000000	58.827586	0.000000	-1.000000	-1.000000	1176886.000000	1772739751.670394
-17455.275000	-19329.030000	-9523.215000	-2078.055000	-15310.485000	-9490.680000	-11429.865000	7140.105000	6.577907	3.937274	-10.474830	-5.614710	-3.495766	-1.177689	6.804968	8.553735	-1.907500	7.996240	1.846460	0.914182	-0.188232	0.340575	-1.000000	-1.000000	-1.000000	-1.000000	-1.000000	-1.000000	-1.000000	58.827586	0.000000	-1.000000	-1.000000	1176887.000000	1772739751.670624
-17469.540000	-19356.030000	-9537.705000	-2082.285000	-15308.910000	-9482.715000	-11451.060000	7090.740000	1.581898	6.718731	-6.685276	-1.795864	0.612718	2.358509	5.998703	-2.497310	-1.907500	7.996240	1.846460	0.914182	-0.188232	0.340575	-1.000000	-1.000000	-1.000000	-1.000000	-1.000000	-1.000000	-1.000000	58.827586	0.000000	-1.000000	-1.000000	1176888.000000	1772739751.670632
-17486.055000	-19344.375000	-9528.480000	-2078.145000	-15306.885000	-9483.570000	-11466.270000	7059.735000	-3.894836	5.727022	-0.572281	2.518173	4.374338	5.054988	2.254522	-13.944068	-1.907500	7.996240	1.846460	0.914182	-0.188232	0.340575	-1.000000	-1.000000	-1.000000	-1.000000	-1.000000	-1.000000	-1.000000	58.827586	0.000000	-1.000000	-1.000000	1176889.000000	1772739751.688313
-17507.430000	-19360.260000	-9557.055000	-2113.740000	-15342.345000	-9513.405000	-11447.280000	7119.270000	-9.170297	-2.650547	0.433331	1.060563	1.895743	1.758618	-4.737950	-16.278931	-1.907500	7.996240	1.846460	0.914182	-0.188232	0.340575	-1.000000	-1.000000	-1.000000	-1.000000	-1.000000	-1.000000	-1.000000	58.827586	0.000000	-1.000000	-1.000000	1176890.000000	1772739751.688325
-17495.775000	-19417.275000	-9613.080000	-2155.275000	-15383.520000	-9555.345000	-11456.730000	7173.720000	-12.271874	-14.883831	-5.661193	-7.259408	-7.577038	-7.824832	-11.294518	-4.747747	-3.647140	5.096840	2.472120	0.908811	-0.188903	0.341125	-1.000000	-1.000000	-1.000000	-1.000000	-1.000000	-1.000000	-1.000000	58.827586	0.000000	-1.000000	-1.000000	1176891.000000	1772739751.688339
-17485.920000	-19430.190000	-9619.020000	-2162.340000	-15394.455000	-9576.855000	-11473.065000	7181.595000	-10.815282	-24.272530	-14.555436	-16.946888	-18.197642	-18.082824	-13.550705	14.800006	-3.647140	5.096840	2.472120	0.908811	-0.188903	0.341125	-1.000000	-1.000000	-1.000000	-1.000000	-1.000000	-1.000000	-1.000000	58.827586	0.000000	-1.000000	-1.000000	1176892.000000	1772739751.688343
-17514.315000	-19403.415000	-9599.940000	-2155.455000	-15391.620000	-9578.115000	-11476.890000	7149.285000	-4.894314	-24.044856	-17.906160	-19.321590	-21.166483	-21.195475	-11.253783	28.365803	-3.647140	5.096840	2.472120	0.908811	-0.188903	0.341125	-1.000000	-1.000000	-1.000000	-1.000000	-1.000000	-1.000000	-1.000000	58.827586	0.000000	-1.000000	-1.000000	1176893.000000	1772739751.688347
-17478.135000	-19366.785000	-9561.105000	-2131.020000	-15365.565000	-9550.485000	-11474.145000	7128.900000	2.769072	-11.477132	-10.276340	-10.404951	-12.427585	-13.537066	-5.988888	26.004975	-3.647140	5.096840	2.472120	0.908811	-0.188903	0.341125	-1.000000	-1.000000	-1.000000	-1.000000	-1.000000	-1.000000	-1.000000	58.827586	0.000000	-1.000000	-1.000000	1176894.000000	1772739751.688351
-17440.785000	-19338.975000	-9525.060000	-2110.905000	-15340.185000	-9521.865000	-11469.555000	7121.250000	10.419105	8.597815	5.952600	5.657703	4.189146	1.923009	1.034059	9.275172	-3.647140	5.096840	2.472120	0.908811	-0.188903	0.341125	-1.000000	-1.000000	-1.000000	-1.000000	-1.000000	-1.000000	-1.000000	58.827586	0.000000	-1.000000	-1.000000	1176895.000000	1772739751.688356
-17461.665000	-19340.595000	-9532.215000	-2103.795000	-15330.240000	-9504.045000	-11453.715000	7112.970000	16.259647	26.265721	22.493224	20.568253	20.496478	18.106031	8.247611	-12.442015	-3.647140	5.096840	2.472120	0.908811	-0.188903	0.341125	-1.000000	-1.000000	-1.000000	-1.000000	-1.000000	-1.000000	-1.000000	58.827586	0.000000	-1.000000	-1.000000	1176896.000000	1772739751.688359
-17452.530000	-19344.645000	-9547.830000	-2071.395000	-15300.495000	-9476.010000	-11434.050000	7134.255000	16.342592	32.452972	29.702382	27.240999	28.736516	27.488214	13.828030	-26.858504	-3.647140	5.096840	2.472120	0.908811	-0.188903	0.341125	-1.000000	-1.000000	-1.000000	-1.000000	-1.000000	-1.000000	-1.000000	58.827586	0.000000	-1.000000	-1.000000	1176897.000000	1772739751.690773
-17433.630000	-19360.935000	-9527.940000	-2058.615000	-15292.215000	-9473.175000	-11434.095000	7113.555000	9.834880	23.970729	22.974198	23.703939	25.853930	26.253387	16.242762	-25.505235	-3.647140	5.096840	2.472120	0.908811	-0.188903	0.341125	-1.000000	-1.000000	-1.000000	-1.000000	-1.000000	-1.000000	-1.000000	58.827586	0.000000	-1.000000	-1.000000	1176898.000000	1772739751.690782
-17424.630000	-19327.590000	-9504.450000	-2049.615000	-15284.655000	-9467.280000	-11426.985000	7113.285000	1.171656	6.077284	7.470396	13.364282	14.794598	16.257232	13.759373	-12.164274	-3.647140	5.096840	2.472120	0.908811	-0.188903	0.341125	-1.000000	-1.000000	-1.000000	-1.000000	-1.000000	-1.000000	-1.000000	58.827586	0.000000	-1.000000	-1.000000	1176899.000000	1772739751.707519
-17473.770000	-19346.445000	-9530.370000	-2082.150000	-15317.505000	-9504.315000	-11437.920000	7109.505000	-6.323841	-10.087903	-6.441900	1.382026	1.303133	2.806479	6.120767	0.966209	-3.647140	5.096840	2.472120	0.908811	-0.188903	0.341125	-1.000000	-1.000000	-1.000000	-1.000000	-1.000000	-1.000000	-1.000000	58.827586	0.000000	-1.000000	-1.000000	1176900.000000	1772739751.707529
-17506.665000	-19398.915000	-9580.680000	-2132.190000	-15365.700000	-9551.970000	-11461.185000	7110.360000	-13.322113	-17.326786	-13.729594	-9.587677	-10.821761	-9.767741	-4.128938	6.307065	-5.325740	4.471180	1.388660	0.913145	-0.189331	0.344665	-1.000000	-1.000000	-1.000000	-1.000000	-1.000000	-1.000000	-1.000000	58.827586	0.000000	-1.000000	-1.000000	1176901.000000	1772739751.707788
-17513.505000	-19402.155000	-9569.700000	-2116.305000	-15350.265000	-9532.215000	-11439.945000	7123.365000	-19.457505	-18.112604	-17.083746	-19.161924	-20.376300	-19.475140	-12.979555	6.216696	-5.325740	4.471180	1.388660	0.913145	-0.189331	0.344665	-1.000000	-1.000000	-1.000000	-1.000000	-1.000000	-1.000000	-1.000000	58.827586	0.000000	-1.000000	-1.000000	1176902.000000	1772739751.707793
-17466.750000	-19372.635000	-9562.725000	-2112.705000	-15344.820000	-9528.075000	-11465.055000	7162.470000	-20.596566	-17.062139	-19.196968	-25.173863	-25.369872	-24.196498	-16.736293	7.293540	-5.325740	4.471180	1.388660	0.913145	-0.189331	0.344665	-1.000000	-1.000000	-1.000000	-1.000000	-1.000000	-1.000000	-1.000000	58.827586	0.000000	-1.000000	-1.000000	1176903.000000	1772739751.707800
-17525.520000	-19411.425000	-9606.330000	-2152.485000	-15380.145000	-9554.220000	-11499.615000	7099.470000	-14.144870	-14.479267	-19.185129	-24.630189	-23.718552	-22.428094	-15.043726	10.932130	-5.325740	4.471180	1.388660	0.913145	-0.189331	0.344665	-1.000000	-1.000000	-1.000000	-1.000000	-1.000000	-1.000000	-1.000000	58.827586	0.000000	-1.000000	-1.000000	1176904.000000	1772739751.707803
-17458.470000	-19382.580000	-9593.595000	-2136.870000	-15369.210000	-9536.580000	-11466.810000	7163.235000	-2.489079	-8.987114	-15.269404	-17.666657	-16.369372	-15.515138	-10.486282	12.539047	-5.325740	4.471180	1.388660	0.913145	-0.189331	0.344665	-1.000000	-1.000000	-1.000000	-1.000000	-1.000000	-1.000000	-1.000000	58.827586	0.000000	-1.000000	-1.000000	1176905.000000	1772739751.707808
-17453.430000	-19384.020000	-9622.485000	-2135.295000	-15363.990000	-9535.815000	-11449.665000	7176.150000	10.788894	0.000252	-6.597160	-6.682655	-5.886550	-5.792262	-3.982251	10.279213	-5.325740	4.471180	1.388660	0.913145	-0.189331	0.344665	-1.000000	-1.000000	-1.000000	-1.000000	-1.000000	-1.000000	-1.000000	58.827586	0.000000	-1.000000	-1.000000	1176906.000000	1772739751.707812
-17479.440000	-19414.170000	-9650.520000	-2151.945000	-15368.445000	-9538.605000	-11455.470000	7168.230000	21.236715	10.344916	4.332555	5.288913	5.442778	4.825221	4.313414	6.073051	-5.325740	4.471180	1.388660	0.913145	-0.189331	0.344665	-1.000000	-1.000000	-1.000000	-1.000000	-1.000000	-1.000000	-1.000000	58.827586	0.000000	-1.000000	-1.000000	1176907.000000	1772739751.711510
-17484.660000	-19403.955000	-9590.220000	-2145.330000	-15375.600000	-9551.745000	-11460.375000	7156.125000	23.098202	16.997290	13.478668	15.115309	15.237478	14.116288	11.539245	-0.052116	-5.325740	4.471180	1.388660	0.913145	-0.189331	0.344665	-1.000000	-1.000000	-1.000000	-1.000000	-1.000000	-1.000000	-1.000000	58.827586	0.000000	-1.000000	-1.000000	1176908.000000	1772739751.711520
-17492.445000	-19388.295000	-9537.480000	-2131.245000	-15369.570000	-9553.455000	-11457.720000	7137.360000	15.606375	17.856812	21.393324	21.692353	21.785600	20.308622	14.527142	-8.679848	-5.325740	4.471180	1.388660	0.913145	-0.189331	0.344665	-1.000000	-1.000000	-1.000000	-1.000000	-1.000000	-1.000000	-1.000000	58.827586	0.000000	-1.000000	-1.000000	1176909.000000	1772739751.714550
-17488.440000	-19395.855000	-9560.655000	-2128.995000	-15363.495000	-9545.175000	-11454.300000	7137.585000	4.625040	15.469267	29.198544	25.212415	24.397925	22.618767	12.913207	-17.112682	-5.325740	4.471180	1.388660	0.913145	-0.189331	0.344665	-1.000000	-1.000000	-1.000000	-1.000000	-1.000000	-1.000000	-1.000000	58.827586	0.000000	-1.000000	-1.000000	1176910.000000	1772739751.714558
-17482.455000	-19395.810000	-9561.240000	-2119.050000	-15351.030000	-9530.955000	-11451.240000	7136.505000	-4.090771	11.024836	30.832257	23.726311	21.727786	19.901248	8.116155	-20.639949	-6.607580	4.471180	-0.137340	0.920347	-0.191528	0.344237	-1.000000	-1.000000	-1.000000	-1.000000	-1.000000	-1.000000	-1.000000	58.827586	0.000000	-1.000000	-1.000000	1176911.000000	1772739751.722883
-17465.355000	-19373.310000	-9532.980000	-2083.725000	-15316.965000	-9501.930000	-11449.215000	7123.410000	-8.869132	3.564860	19.975904	15.457791	13.162796	11.759389	2.285524	-16.883380	-6.607580	4.471180	-0.137340	0.920347	-0.191528	0.344237	-1.000000	-1.000000	-1.000000	-1.000000	-1.000000	-1.000000	-1.000000	58.827586	0.000000	-1.000000	-1.000000	1176912.000000	1772739751.722894
-17444.430000	-19336.005000	-9513.315000	-2057.400000	-15283.755000	-9462.510000	-11435.490000	7101.945000	-9.600529	-4.662009	0.712460	3.596993	2.176803	1.397836	-2.104627	-7.511905	-6.607580	4.471180	-0.137340	0.920347	-0.191528	0.344237	-1.000000	-1.000000	-1.000000	-1.000000	-1.000000	-1.000000	-1.000000	58.827586	0.000000	-1.000000	-1.000000	1176913.000000	1772739751.722904
-17467.515000	-19339.920000	-9526.275000	-2074.950000	-15299.730000	-9473.400000	-11434.005000	7099.470000	-7.340576	-9.342229	-16.712969	-7.128489	-6.863473	-7.009019	-4.427977	2.789214	-6.607580	4.471180	-0.137340	0.920347	-0.191528	0.344237	-1.000000	-1.000000	-1.000000	-1.000000	-1.000000	-1.000000	-1.000000	58.827586	0.000000	-1.000000	-1.000000	1176914.000000	1772739751.722909
-17472.645000	-19323.765000	-9523.125000	-2082.240000	-15314.130000	-9491.940000	-11440.665000	7132.590000	-5.430311	-9.418981	-25.644464	-15.468780	-13.566200	-12.796328	-6.284006	9.791280	-6.607580	4.471180	-0.137340	0.920347	-0.191528	0.344237	-1.000000	-1.000000	-1.000000	-1.000000	-1.000000	-1.000000	-1.000000	58.827586	0.000000	-1.000000	-1.000000	1176915.000000	1772739751.728381
-17470.755000	-19337.625000	-9542.025000	-2103.615000	-15338.745000	-9522.405000	-11466.990000	7075.935000	-5.171175	-6.767283	-25.438141	-21.225879	-18.978557	-17.159783	-8.718765	12.589516	-6.607580	4.471180	-0.137340	0.920347	-0.191528	0.344237	-1.000000	-1.000000	-1.000000	-1.000000	-1.000000	-1.000000	-1.000000	58.827586	0.000000	-1.000000	-1.000000	1176916.000000	1772739751.728387
-17471.790000	-19394.415000	-9598.230000	-2157.300000	-15391.710000	-9579.645000	-11488.770000	7151.625000	-4.095495	-4.740012	-20.762256	-23.445745	-22.288396	-19.961387	-10.945221	12.392986	-6.607580	4.471180	-0.137340	0.920347	-0.191528	0.344237	-1.000000	-1.000000	-1.000000	-1.000000	-1.000000	-1.000000	-1.000000	58.827586	0.000000	-1.000000	-1.000000	1176917.000000	1772739751.732256
-17500.725000	-19422.000000	-9598.770000	-2146.815000	-15374.115000	-9556.920000	-11454.390000	7176.285000	-0.719171	-6.714541	-17.231946	-21.554410	-21.495278	-19.376673	-10.710029	12.166392	-6.607580	4.471180	-0.137340	0.920347	-0.191528	0.344237	-1.000000	-1.000000	-1.000000	-1.000000	-1.000000	-1.000000	-1.000000	58.827586	0.000000	-1.000000	-1.000000	1176918.000000	1772739751.732265
-17453.970000	-19363.815000	-9551.520000	-2105.415000	-15334.875000	-9519.120000	-11438.460000	7169.355000	3.590400	-10.792146	-13.552103	-14.231272	-14.217276	-12.691376	-5.521625	13.430763	-6.607580	4.471180	-0.137340	0.920347	-0.191528	0.344237	-1.000000	-1.000000	-1.000000	-1.000000	-1.000000	-1.000000	-1.000000	58.827586	0.000000	-1.000000	-1.000000	1176919.000000	1772739751.734580
-17410.095000	-19309.905000	-9513.270000	-2071.215000	-15304.230000	-9491.850000	-11439.495000	7128.405000	7.591546	-9.580227	-3.621258	-0.695760	-0.226832	0.430967	3.987753	11.959511	-6.607580	4.471180	-0.137340	0.920347	-0.191528	0.344237	-1.000000	-1.000000	-1.000000	-1.000000	-1.000000	-1.000000	-1.000000	58.827586	0.000000	-1.000000	-1.000000	1176920.000000	1772739751.734585
-17470.665000	-19360.170000	-9560.025000	-2111.535000	-15340.185000	-9518.715000	-11473.560000	7081.560000	9.822972	-0.346447	11.952793	14.448853	14.825094	14.415153	12.539647	2.969525	-4.410140	2.456860	-0.610400	0.920286	-0.197509	0.345275	-1.000000	-1.000000	-1.000000	-1.000000	-1.000000	-1.000000	-1.000000	58.827586	0.000000	-1.000000	-1.000000	1176921.000000	1772739751.738512
-17498.565000	-19416.780000	-9603.630000	-2146.500000	-15368.805000	-9538.245000	-11476.620000	7131.015000	6.440984	8.744026	23.177945	21.934285	21.591034	20.415246	13.960154	-10.873490	-4.410140	2.456860	-0.610400	0.920286	-0.197509	0.345275	-1.000000	-1.000000	-1.000000	-1.000000	-1.000000	-1.000000	-1.000000	58.827586	0.000000	-1.000000	-1.000000	1176922.000000	1772739751.738519
-17476.965000	-19385.145000	-9573.840000	-2118.825000	-15343.425000	-9517.500000	-11459.880000	7129.350000	-3.110348	8.959033	22.381389	17.339459	16.382497	15.161863	7.336597	-20.791305	-4.410140	2.456860	-0.610400	0.920286	-0.197509	0.345275	-1.000000	-1.000000	-1.000000	-1.000000	-1.000000	-1.000000	-1.000000	58.827586	0.000000	-1.000000	-1.000000	1176923.000000	1772739751.743841
-17439.255000	-19338.435000	-9531.360000	-2083.680000	-15315.165000	-9499.185000	-11467.080000	7086.105000	-11.262560	3.279489	13.610845	7.197687	6.138395	5.262951	-1.616832	-21.301062	-4.410140	2.456860	-0.610400	0.920286	-0.197509	0.345275	-1.000000	-1.000000	-1.000000	-1.000000	-1.000000	-1.000000	-1.000000	58.827586	0.000000	-1.000000	-1.000000	1176924.000000	1772739751.743850
-17488.890000	-19383.840000	-9571.995000	-2124.495000	-15354.090000	-9542.520000	-11472.525000	7088.535000	-10.846295	0.691703	5.753524	1.026815	0.214726	-0.559932	-6.361434	-14.405905	-4.410140	2.456860	-0.610400	0.920286	-0.197509	0.345275	-1.000000	-1.000000	-1.000000	-1.000000	-1.000000	-1.000000	-1.000000	58.827586	0.000000	-1.000000	-1.000000	1176925.000000	1772739751.746882
-17547.705000	-19397.250000	-9585.945000	-2139.120000	-15367.995000	-9557.145000	-11453.445000	7139.025000	-4.447252	3.753877	1.614129	0.807051	0.446757	-0.511257	-4.797946	-4.669846	-4.410140	2.456860	-0.610400	0.920286	-0.197509	0.345275	-1.000000	-1.000000	-1.000000	-1.000000	-1.000000	-1.000000	-1.000000	58.827586	0.000000	-1.000000	-1.000000	1176926.000000	1772739751.746891
-17488.215000	-19358.145000	-9555.435000	-2109.645000	-15337.125000	-9520.425000	-11435.625000	7143.435000	1.247709	8.595965	-1.057117	2.165210	2.313397	1.369824	0.467359	4.899747	-4.410140	2.456860	-0.610400	0.920286	-0.197509	0.345275	-1.000000	-1.000000	-1.000000	-1.000000	-1.000000	-1.000000	-1.000000	58.827586	0.000000	-1.000000	-1.000000	1176927.000000	1772739751.752106
-17456.265000	-19385.505000	-9582.390000	-2135.340000	-15360.480000	-9536.940000	-11447.190000	7151.130000	4.539022	9.998141	-4.490258	0.604326	1.107282	0.840430	4.672132	12.555463	-4.410140	2.456860	-0.610400	0.920286	-0.197509	0.345275	-1.000000	-1.000000	-1.000000	-1.000000	-1.000000	-1.000000	-1.000000	58.827586	0.000000	-1.000000	-1.000000	1176928.000000	1772739751.752115
-17454.105000	-19382.175000	-9573.930000	-2123.055000	-15348.015000	-9522.315000	-11453.355000	7174.215000	6.706197	4.141641	-9.529966	-5.223314	-4.519544	-3.416905	4.662331	17.568203	-4.410140	2.456860	-0.610400	0.920286	-0.197509	0.345275	-1.000000	-1.000000	-1.000000	-1.000000	-1.000000	-1.000000	-1.000000	58.827586	0.000000	-1.000000	-1.000000	1176929.000000	1772739751.754690
-17459.640000	-19350.990000	-9537.165000	-2082.735000	-15307.380000	-9481.005000	-11440.620000	7107.705000	8.177017	-5.760921	-12.775925	-10.861116	-10.197514	-7.943176	1.396206	18.817071	-4.410140	2.456860	-0.610400	0.920286	-0.197509	0.345275	-1.000000	-1.000000	-1.000000	-1.000000	-1.000000	-1.000000	-1.000000	58.827586	0.000000	-1.000000	-1.000000	1176930.000000	1772739751.754698
-17459.640000	-19338.885000	-9522.000000	-2067.885000	-15295.365000	-9470.880000	-11433.870000	7069.860000	8.632032	-10.475616	-8.405258	-9.238435	-9.132852	-7.194732	-1.903554	12.042653	-0.595140	2.426340	-0.488320	0.919431	-0.201599	0.344176	-1.000000	-1.000000	-1.000000	-1.000000	-1.000000	-1.000000	-1.000000	58.827586	0.000000	-1.000000	-1.000000	1176931.000000	1772739751.759853
-17447.130000	-19350.900000	-9536.580000	-2085.660000	-15313.680000	-9490.860000	-11446.245000	7150.635000	6.744155	-6.802401	2.279904	-0.553165	-1.335639	-1.140171	-3.663888	-2.896502	-0.595140	2.426340	-0.488320	0.919431	-0.201599	0.344176	-1.000000	-1.000000	-1.000000	-1.000000	-1.000000	-1.000000	-1.000000	58.827586	0.000000	-1.000000	-1.000000	1176932.000000	1772739751.759864
-17510.895000	-19402.650000	-9585.990000	-2135.520000	-15363.180000	-9544.230000	-11469.465000	7129.575000	0.856971	-1.551735	9.656388	6.495099	5.284539	3.779118	-4.525337	-15.315338	-0.595140	2.426340	-0.488320	0.919431	-0.201599	0.344176	-1.000000	-1.000000	-1.000000	-1.000000	-1.000000	-1.000000	-1.000000	58.827586	0.000000	-1.000000	-1.000000	1176933.000000	1772739751.762606
-17488.305000	-19383.840000	-9586.620000	-2143.395000	-15372.090000	-9559.980000	-11462.355000	7114.815000	-7.472416	-0.593467	7.361311	5.639926	4.943578	2.965145	-5.005233	-16.799328	-0.595140	2.426340	-0.488320	0.919431	-0.201599	0.344176	-1.000000	-1.000000	-1.000000	-1.000000	-1.000000	-1.000000	-1.000000	58.827586	0.000000	-1.000000	-1.000000	1176934.000000	1772739751.762614
-17485.425000	-19371.555000	-9584.910000	-2143.215000	-15370.380000	-9555.390000	-11467.035000	7122.375000	-12.085831	-1.618645	-0.883271	-0.552143	-0.235241	-1.606683	-4.860964	-11.336409	-0.595140	2.426340	-0.488320	0.919431	-0.201599	0.344176	-1.000000	-1.000000	-1.000000	-1.000000	-1.000000	-1.000000	-1.000000	58.827586	0.000000	-1.000000	-1.000000	1176935.000000	1772739751.771669
-17481.375000	-19402.245000	-9613.890000	-2163.870000	-15389.280000	-9565.920000	-11471.490000	7156.215000	-9.797671	-1.318218	-8.184047	-6.519584	-5.464968	-5.873863	-4.143516	-5.248995	-0.595140	2.426340	-0.488320	0.919431	-0.201599	0.344176	-1.000000	-1.000000	-1.000000	-1.000000	-1.000000	-1.000000	-1.000000	58.827586	0.000000	-1.000000	-1.000000	1176936.000000	1772739751.771677
-17457.255000	-19408.635000	-9594.855000	-2141.640000	-15368.715000	-9542.205000	-11456.730000	7183.620000	-4.652494	-1.048631	-11.075567	-9.029608	-7.884101	-7.359945	-2.451297	0.858198	-0.595140	2.426340	-0.488320	0.919431	-0.201599	0.344176	-1.000000	-1.000000	-1.000000	-1.000000	-1.000000	-1.000000	-1.000000	58.827586	0.000000	-1.000000	-1.000000	1176937.000000	1772739751.771687
-17440.020000	-19377.675000	-9561.330000	-2111.445000	-15337.395000	-9508.770000	-11459.745000	7160.670000	-0.125607	-1.629453	-7.982378	-6.272955	-5.634394	-4.429491	1.295401	7.670188	-0.595140	2.426340	-0.488320	0.919431	-0.201599	0.344176	-1.000000	-1.000000	-1.000000	-1.000000	-1.000000	-1.000000	-1.000000	58.827586	0.000000	-1.000000	-1.000000	1176938.000000	1772739751.771692
-17440.290000	-19361.880000	-9546.165000	-2092.095000	-15318.990000	-9494.955000	-11460.105000	7143.210000	4.283816	-0.640069	0.789856	1.396769	1.228253	2.471190	6.106760	12.934626	-0.595140	2.426340	-0.488320	0.919431	-0.201599	0.344176	-1.000000	-1.000000	-1.000000	-1.000000	-1.000000	-1.000000	-1.000000	58.827586	0.000000	-1.000000	-1.000000	1176939.000000	1772739751.777002
-17495.190000	-19360.665000	-9530.055000	-2088.090000	-15313.230000	-9488.475000	-11439.315000	7127.145000	7.288214	2.964044	10.974014	9.966854	9.184078	9.694272	9.086758	12.880341	-0.595140	2.426340	-0.488320	0.919431	-0.201599	0.344176	-1.000000	-1.000000	-1.000000	-1.000000	-1.000000	-1.000000	-1.000000	58.827586	0.000000	-1.000000	-1.000000	1176940.000000	1772739751.777011
-17534.790000	-19349.910000	-9511.560000	-2083.680000	-15308.190000	-9486.765000	-11428.740000	7109.820000	4.850045	7.091274	17.299843	14.744044	13.997614	13.570950	9.316234	5.358381	-0.091560	2.868880	-2.350040	0.921140	-0.199218	0.344665	-1.000000	-1.000000	-1.000000	-1.000000	-1.000000	-1.000000	-1.000000	58.827586	0.000000	-1.000000	-1.000000	1176941.000000	1772739751.778677
-17517.870000	-19326.195000	-9534.870000	-2080.305000	-15308.145000	-9498.060000	-11435.040000	7113.240000	-2.370986	10.142343	17.526446	14.427978	14.317546	13.401342	7.954015	-6.654569	-0.091560	2.868880	-2.350040	0.921140	-0.199218	0.344665	-1.000000	-1.000000	-1.000000	-1.000000	-1.000000	-1.000000	-1.000000	58.827586	0.000000	-1.000000	-1.000000	1176942.000000	1772739751.778685
-17415.765000	-19344.150000	-9570.690000	-2106.360000	-15340.770000	-9527.490000	-11446.965000	7164.180000	-5.996158	11.247131	11.251701	10.078972	10.497542	9.620105	4.893605	-15.043772	-0.091560	2.868880	-2.350040	0.921140	-0.199218	0.344665	-1.000000	-1.000000	-1.000000	-1.000000	-1.000000	-1.000000	-1.000000	58.827586	0.000000	-1.000000	-1.000000	1176943.000000	1772739751.782783
-17408.115000	-19388.295000	-9590.670000	-2138.445000	-15369.210000	-9549.405000	-11467.665000	7159.230000	0.568587	7.352300	-1.134055	1.715490	1.917714	1.446916	-1.092551	-13.628553	-0.091560	2.868880	-2.350040	0.921140	-0.199218	0.344665	-1.000000	-1.000000	-1.000000	-1.000000	-1.000000	-1.000000	-1.000000	58.827586	0.000000	-1.000000	-1.000000	1176944.000000	1772739751.782792
-17442.180000	-19393.155000	-9591.030000	-2136.780000	-15362.865000	-9538.515000	-11464.650000	7153.470000	11.712545	-3.051498	-15.348113	-9.687222	-10.135049	-9.987086	-8.936498	-4.845969	-0.091560	2.868880	-2.350040	0.921140	-0.199218	0.344665	-1.000000	-1.000000	-1.000000	-1.000000	-1.000000	-1.000000	-1.000000	58.827586	0.000000	-1.000000	-1.000000	1176945.000000	1772739751.791474
-17456.220000	-19390.140000	-9588.240000	-2132.820000	-15356.340000	-9524.790000	-11462.220000	7145.685000	14.735276	-14.962285	-24.117655	-19.436818	-20.053854	-19.290451	-14.542113	3.512988	-0.091560	2.868880	-2.350040	0.921140	-0.199218	0.344665	-1.000000	-1.000000	-1.000000	-1.000000	-1.000000	-1.000000	-1.000000	58.827586	0.000000	-1.000000	-1.000000	1176946.000000	1772739751.791484
-17472.870000	-19372.230000	-9568.845000	-2111.715000	-15335.055000	-9505.260000	-11455.110000	7136.865000	4.573061	-20.983423	-23.117234	-22.386671	-22.365460	-21.181836	-14.107047	7.133056	-0.091560	2.868880	-2.350040	0.921140	-0.199218	0.344665	-1.000000	-1.000000	-1.000000	-1.000000	-1.000000	-1.000000	-1.000000	58.827586	0.000000	-1.000000	-1.000000	1176947.000000	1772739751.791655
-17457.480000	-19355.895000	-9552.870000	-2097.225000	-15321.690000	-9495.495000	-11434.455000	7121.520000	-11.241794	-17.593458	-13.229426	-16.678441	-15.786027	-14.608418	-7.285685	7.106314	-0.091560	2.868880	-2.350040	0.921140	-0.199218	0.344665	-1.000000	-1.000000	-1.000000	-1.000000	-1.000000	-1.000000	-1.000000	58.827586	0.000000	-1.000000	-1.000000	1176948.000000	1772739751.791663
-17442.540000	-19348.515000	-9539.910000	-2085.480000	-15312.060000	-9490.815000	-11439.360000	7116.255000	-19.902542	-6.434508	1.070982	-4.293210	-3.071842	-2.529573	2.451718	5.301529	-0.091560	2.868880	-2.350040	0.921140	-0.199218	0.344665	-1.000000	-1.000000	-1.000000	-1.000000	-1.000000	-1.000000	-1.000000	58.827586	0.000000	-1.000000	-1.000000	1176949.000000	1772739751.794796
-17471.340000	-19380.690000	-9571.140000	-2117.520000	-15343.785000	-9529.470000	-11466.270000	7133.535000	-14.563647	6.604961	13.576969	9.414951	10.144379	9.603812	9.683876	2.918225	-0.091560	2.868880	-2.350040	0.921140	-0.199218	0.344665	-1.000000	-1.000000	-1.000000	-1.000000	-1.000000	-1.000000	-1.000000	58.827586	0.000000	-1.000000	-1.000000	1176950.000000	1772739751.794803
-17488.440000	-19382.220000	-9580.770000	-2131.740000	-15360.120000	-9547.605000	-11462.895000	7136.100000	-1.207695	14.355584	19.279030	17.851689	17.689155	16.265707	10.719475	1.124071	-4.700080	2.655240	-2.151660	0.917844	-0.192321	0.343200	-1.000000	-1.000000	-1.000000	-1.000000	-1.000000	-1.000000	-1.000000	58.827586	0.000000	-1.000000	-1.000000	1176951.000000	1772739751.799702
-17481.735000	-19377.360000	-9584.280000	-2133.945000	-15361.695000	-9543.735000	-11462.400000	7120.035000	7.362070	14.075603	17.391303	17.803804	17.021325	15.488012	6.645589	-0.752822	-4.700080	2.655240	-2.151660	0.917844	-0.192321	0.343200	-1.000000	-1.000000	-1.000000	-1.000000	-1.000000	-1.000000	-1.000000	58.827586	0.000000	-1.000000	-1.000000	1176952.000000	1772739751.799711
-17470.440000	-19375.920000	-9579.330000	-2121.165000	-15345.900000	-9524.655000	-11454.705000	7118.145000	5.590366	9.439301	10.988654	11.876338	11.021433	10.095718	1.817656	-4.118179	-4.700080	2.655240	-2.151660	0.917844	-0.192321	0.343200	-1.000000	-1.000000	-1.000000	-1.000000	-1.000000	-1.000000	-1.000000	58.827586	0.000000	-1.000000	-1.000000	1176953.000000	1772739751.802548
-17478.495000	-19359.315000	-9543.600000	-2074.185000	-15297.255000	-9475.425000	-11452.815000	7062.975000	-0.624217	5.397297	4.113355	5.419245	4.844227	4.683980	-0.606891	-8.245516	-4.700080	2.655240	-2.151660	0.917844	-0.192321	0.343200	-1.000000	-1.000000	-1.000000	-1.000000	-1.000000	-1.000000	-1.000000	58.827586	0.000000	-1.000000	-1.000000	1176954.000000	1772739751.802561
-17481.150000	-19362.060000	-9579.015000	-2082.870000	-15298.740000	-9469.890000	-11447.055000	7064.415000	-3.322305	3.058830	-1.296255	1.406956	1.248682	1.564302	-0.679194	-10.908034	-4.700080	2.655240	-2.151660	0.917844	-0.192321	0.343200	-1.000000	-1.000000	-1.000000	-1.000000	-1.000000	-1.000000	-1.000000	58.827586	0.000000	-1.000000	-1.000000	1176955.000000	1772739751.813380
-17457.165000	-19390.005000	-9631.485000	-2139.075000	-15352.290000	-9519.165000	-11444.355000	7164.135000	-0.040247	-0.147172	-7.189127	-2.420993	-2.008002	-1.327067	-0.207711	-7.886875	-4.700080	2.655240	-2.151660	0.917844	-0.192321	0.343200	-1.000000	-1.000000	-1.000000	-1.000000	-1.000000	-1.000000	-1.000000	58.827586	0.000000	-1.000000	-1.000000	1176956.000000	1772739751.813391
-17440.470000	-19393.695000	-9588.825000	-2142.000000	-15367.005000	-9537.075000	-11445.795000	7196.220000	6.898873	-6.327223	-14.890354	-9.716674	-8.805469	-7.500266	-0.863639	4.795712	-4.700080	2.655240	-2.151660	0.917844	-0.192321	0.343200	-1.000000	-1.000000	-1.000000	-1.000000	-1.000000	-1.000000	-1.000000	58.827586	0.000000	-1.000000	-1.000000	1176957.000000	1772739751.813402
-17449.830000	-19371.195000	-9532.530000	-2115.630000	-15346.080000	-9524.295000	-11440.575000	7129.575000	13.091480	-12.736013	-18.746702	-17.713056	-17.099731	-15.232454	-2.602289	21.543441	-4.700080	2.655240	-2.151660	0.917844	-0.192321	0.343200	-1.000000	-1.000000	-1.000000	-1.000000	-1.000000	-1.000000	-1.000000	58.827586	0.000000	-1.000000	-1.000000	1176958.000000	1772739751.813406
-17468.640000	-19352.025000	-9542.025000	-2106.495000	-15339.690000	-9526.995000	-11449.170000	7106.940000	14.297832	-13.113860	-11.419794	-18.110492	-18.809121	-17.203814	-3.494362	27.612820	-4.700080	2.655240	-2.151660	0.917844	-0.192321	0.343200	-1.000000	-1.000000	-1.000000	-1.000000	-1.000000	-1.000000	-1.000000	58.827586	0.000000	-1.000000	-1.000000	1176959.000000	1772739751.847798
-17451.765000	-19319.130000	-9528.165000	-2092.050000	-15327.765000	-9516.690000	-11456.865000	7106.130000	8.647346	-4.610888	5.181831	-7.099853	-9.204007	-8.979688	-2.493945	15.092130	-4.700080	2.655240	-2.151660	0.917844	-0.192321	0.343200	-1.000000	-1.000000	-1.000000	-1.000000	-1.000000	-1.000000	-1.000000	58.827586	0.000000	-1.000000	-1.000000	1176960.000000	1772739751.847809
-17456.130000	-19326.420000	-9535.230000	-2096.775000	-15329.070000	-9512.460000	-11460.780000	7112.925000	-1.957955	8.415018	20.485666	9.545063	7.083342	5.358547	-0.806681	-7.849316	-8.316700	2.289000	-2.029580	0.916013	-0.191833	0.342345	-1.000000	-1.000000	-1.000000	-1.000000	-1.000000	-1.000000	-1.000000	58.827586	0.000000	-1.000000	-1.000000	1176961.000000	1772739751.847821
-17477.370000	-19366.380000	-9561.285000	-2117.205000	-15349.545000	-9526.680000	-11459.655000	7154.505000	-12.793251	17.001272	24.208582	20.804835	19.358601	16.317388	0.145447	-24.901051	-8.316700	2.289000	-2.029580	0.916013	-0.191833	0.342345	-1.000000	-1.000000	-1.000000	-1.000000	-1.000000	-1.000000	-1.000000	58.827586	0.000000	-1.000000	-1.000000	1176962.000000	1772739751.847825
-17461.620000	-19384.380000	-9574.560000	-2120.805000	-15349.815000	-9520.110000	-11454.480000	7184.970000	-18.788838	13.865767	13.037747	18.585414	18.924163	16.223321	0.200597	-24.342993	-8.316700	2.289000	-2.029580	0.916013	-0.191833	0.342345	-1.000000	-1.000000	-1.000000	-1.000000	-1.000000	-1.000000	-1.000000	58.827586	0.000000	-1.000000	-1.000000	1176963.000000	1772739751.856975
-17492.580000	-19399.815000	-9581.760000	-2121.705000	-15350.265000	-9521.055000	-11453.580000	7142.535000	-17.199431	0.055718	-6.267529	4.810630	6.702031	5.843673	0.028951	-8.446348	-8.316700	2.289000	-2.029580	0.916013	-0.191833	0.342345	-1.000000	-1.000000	-1.000000	-1.000000	-1.000000	-1.000000	-1.000000	58.827586	0.000000	-1.000000	-1.000000	1176964.000000	1772739751.856986
-17494.380000	-19380.645000	-9567.945000	-2105.190000	-15329.115000	-9503.010000	-11437.695000	7121.385000	-10.040876	-14.719320	-20.964053	-9.484318	-6.876604	-5.674502	0.270525	6.994358	-8.316700	2.289000	-2.029580	0.916013	-0.191833	0.342345	-1.000000	-1.000000	-1.000000	-1.000000	-1.000000	-1.000000	-1.000000	58.827586	0.000000	-1.000000	-1.000000	1176965.000000	1772739751.856998
-17472.465000	-19345.230000	-9533.610000	-2067.795000	-15288.885000	-9466.605000	-11411.505000	7137.945000	-1.571417	-19.731444	-22.933992	-14.035918	-11.284443	-9.009844	1.529600	9.210409	-8.316700	2.289000	-2.029580	0.916013	-0.191833	0.342345	-1.000000	-1.000000	-1.000000	-1.000000	-1.000000	-1.000000	-1.000000	58.827586	0.000000	-1.000000	-1.000000	1176966.000000	1772739751.857002
-17461.305000	-19343.925000	-9543.735000	-2082.735000	-15311.070000	-9499.005000	-11446.515000	7110.360000	6.598981	-11.809208	-13.824678	-7.764426	-5.080987	-2.971625	3.602173	1.571689	-8.316700	2.289000	-2.029580	0.916013	-0.191833	0.342345	-1.000000	-1.000000	-1.000000	-1.000000	-1.000000	-1.000000	-1.000000	58.827586	0.000000	-1.000000	-1.000000	1176967.000000	1772739751.857008
-17512.020000	-19365.075000	-9571.545000	-2113.245000	-15339.915000	-9522.270000	-11443.275000	7066.665000	13.273218	2.164817	-1.099164	1.705954	3.772682	5.028463	4.432635	-5.745269	-8.316700	2.289000	-2.029580	0.916013	-0.191833	0.342345	-1.000000	-1.000000	-1.000000	-1.000000	-1.000000	-1.000000	-1.000000	58.827586	0.000000	-1.000000	-1.000000	1176968.000000	1772739751.857011
-17499.330000	-19353.060000	-9561.465000	-2111.940000	-15342.570000	-9525.195000	-11461.005000	7102.035000	14.517116	11.762916	8.166395	5.918003	6.471542	6.889535	2.388449	-7.847622	-8.316700	2.289000	-2.029580	0.916013	-0.191833	0.342345	-1.000000	-1.000000	-1.000000	-1.000000	-1.000000	-1.000000	-1.000000	58.827586	0.000000	-1.000000	-1.000000	1176969.000000	1772739751.860540
-17454.825000	-19378.755000	-9587.520000	-2140.965000	-15371.055000	-9549.495000	-11483.370000	7118.235000	9.561581	12.397758	11.174334	2.830483	1.270521	1.075898	-1.944410	-4.095609	-8.316700	2.289000	-2.029580	0.916013	-0.191833	0.342345	-1.000000	-1.000000	-1.000000	-1.000000	-1.000000	-1.000000	-1.000000	58.827586	0.000000	-1.000000	-1.000000	1176970.000000	1772739751.860548
-17441.235000	-19377.540000	-9581.265000	-2131.290000	-15361.515000	-9531.945000	-11452.455000	7178.535000	3.973162	6.999142	9.190949	-3.594752	-7.076239	-7.782053	-6.338871	4.264710	-4.242280	2.578940	-2.685760	0.919370	-0.196105	0.340880	-1.000000	-1.000000	-1.000000	-1.000000	-1.000000	-1.000000	-1.000000	58.827586	0.000000	-1.000000	-1.000000	1176971.000000	1772739751.860557
-17440.740000	-19372.545000	-9569.880000	-2116.800000	-15346.395000	-9514.080000	-11440.485000	7191.180000	2.034108	1.102380	5.575752	-7.671383	-12.007452	-13.021170	-7.437823	13.904141	-4.242280	2.578940	-2.685760	0.919370	-0.196105	0.340880	-1.000000	-1.000000	-1.000000	-1.000000	-1.000000	-1.000000	-1.000000	58.827586	0.000000	-1.000000	-1.000000	1176972.000000	1772739751.860561
-17468.190000	-19414.440000	-9606.645000	-2144.520000	-15364.980000	-9529.560000	-11456.505000	7147.170000	1.983135	-2.148438	3.086798	-6.084466	-9.692888	-10.586474	-3.949529	19.515615	-4.242280	2.578940	-2.685760	0.919370	-0.196105	0.340880	-1.000000	-1.000000	-1.000000	-1.000000	-1.000000	-1.000000	-1.000000	58.827586	0.000000	-1.000000	-1.000000	1176973.000000	1772739751.860566
-17447.940000	-19374.570000	-9579.735000	-2124.855000	-15351.255000	-9524.295000	-11452.095000	7116.750000	0.025823	-3.467683	1.164090	-0.625397	-2.083745	-2.465717	0.924817	15.371039	-4.242280	2.578940	-2.685760	0.919370	-0.196105	0.340880	-1.000000	-1.000000	-1.000000	-1.000000	-1.000000	-1.000000	-1.000000	58.827586	0.000000	-1.000000	-1.000000	1176974.000000	1772739751.860570
-17453.790000	-19365.075000	-9574.920000	-2125.980000	-15356.520000	-9539.640000	-11462.040000	7134.525000	-4.754505	-3.955286	-1.776002	4.331137	5.387129	5.464050	3.343419	1.582992	-4.242280	2.578940	-2.685760	0.919370	-0.196105	0.340880	-1.000000	-1.000000	-1.000000	-1.000000	-1.000000	-1.000000	-1.000000	58.827586	0.000000	-1.000000	-1.000000	1176975.000000	1772739751.880595
-17482.455000	-19382.445000	-9585.990000	-2133.405000	-15363.495000	-9546.705000	-11453.310000	7164.630000	-10.024007	-3.323786	-4.623931	6.528210	9.219563	9.326241	3.185585	-12.398414	-4.242280	2.578940	-2.685760	0.919370	-0.196105	0.340880	-1.000000	-1.000000	-1.000000	-1.000000	-1.000000	-1.000000	-1.000000	58.827586	0.000000	-1.000000	-1.000000	1176976.000000	1772739751.880606
-17488.080000	-19380.690000	-9576.990000	-2120.310000	-15348.330000	-9529.830000	-11454.885000	7110.000000	-12.745480	-1.849658	-4.888884	6.714411	9.783085	9.639339	2.843889	-16.979323	-4.242280	2.578940	-2.685760	0.919370	-0.196105	0.340880	-1.000000	-1.000000	-1.000000	-1.000000	-1.000000	-1.000000	-1.000000	58.827586	0.000000	-1.000000	-1.000000	1176977.000000	1772739751.880966
-17478.135000	-19365.390000	-9567.765000	-2115.180000	-15341.940000	-9520.830000	-11455.740000	7109.235000	-11.315443	-0.030229	-1.727711	6.501482	9.038673	8.695401	3.651634	-13.114966	-4.242280	2.578940	-2.685760	0.919370	-0.196105	0.340880	-1.000000	-1.000000	-1.000000	-1.000000	-1.000000	-1.000000	-1.000000	58.827586	0.000000	-1.000000	-1.000000	1176978.000000	1772739751.880974
-17461.395000	-19358.415000	-9562.320000	-2112.795000	-15338.925000	-9514.035000	-11472.885000	7138.080000	-6.381394	2.692550	3.418331	6.333698	7.863224	7.497606	4.534264	-7.801226	-4.242280	2.578940	-2.685760	0.919370	-0.196105	0.340880	-1.000000	-1.000000	-1.000000	-1.000000	-1.000000	-1.000000	-1.000000	58.827586	0.000000	-1.000000	-1.000000	1176979.000000	1772739751.880983
-17447.265000	-19356.120000	-9558.585000	-2101.455000	-15326.640000	-9497.970000	-11470.635000	7135.740000	0.260041	6.131569	7.593882	5.103492	5.448027	5.164117	3.019050	-4.553212	-4.242280	2.578940	-2.685760	0.919370	-0.196105	0.340880	-1.000000	-1.000000	-1.000000	-1.000000	-1.000000	-1.000000	-1.000000	58.827586	0.000000	-1.000000	-1.000000	1176980.000000	1772739751.880987
-17481.015000	-19396.890000	-9582.120000	-2114.820000	-15340.815000	-9511.290000	-11462.490000	7110.900000	6.611113	7.682887	7.803524	1.629275	0.795978	0.619317	-1.501177	-2.851735	-2.075360	4.776380	-2.197440	0.921934	-0.197692	0.339416	-1.000000	-1.000000	-1.000000	-1.000000	-1.000000	-1.000000	-1.000000	58.827586	0.000000	-1.000000	-1.000000	1176981.000000	1772739751.880992
-17509.590000	-19395.135000	-9575.685000	-2114.685000	-15340.860000	-9512.100000	-11444.670000	7095.960000	9.880232	4.694926	3.317178	-3.590455	-5.452457	-5.425714	-5.779194	-0.714996	-2.075360	4.776380	-2.197440	0.921934	-0.197692	0.339416	-1.000000	-1.000000	-1.000000	-1.000000	-1.000000	-1.000000	-1.000000	58.827586	0.000000	-1.000000	-1.000000	1176982.000000	1772739751.880996
-17467.245000	-19341.180000	-9543.645000	-2091.645000	-15321.510000	-9501.345000	-11434.140000	7055.190000	8.350023	-1.791085	-3.459230	-8.436611	-10.849456	-10.409547	-6.060710	2.846789	-2.075360	4.776380	-2.197440	0.921934	-0.197692	0.339416	-1.000000	-1.000000	-1.000000	-1.000000	-1.000000	-1.000000	-1.000000	58.827586	0.000000	-1.000000	-1.000000	1176983.000000	1772739751.881000
-17432.100000	-19361.565000	-9573.705000	-2125.980000	-15356.385000	-9538.740000	-11453.355000	7128.990000	5.023425	-7.324840	-8.844542	-10.786213	-12.845922	-11.851904	-2.274155	6.868588	-2.075360	4.776380	-2.197440	0.921934	-0.197692	0.339416	-1.000000	-1.000000	-1.000000	-1.000000	-1.000000	-1.000000	-1.000000	58.827586	0.000000	-1.000000	-1.000000	1176984.000000	1772739751.881004
-17464.725000	-19384.290000	-9587.475000	-2139.345000	-15369.030000	-9548.325000	-11461.545000	7133.310000	4.478995	-8.881189	-10.717755	-10.204706	-11.033421	-9.645370	2.008741	11.175295	-2.075360	4.776380	-2.197440	0.921934	-0.197692	0.339416	-1.000000	-1.000000	-1.000000	-1.000000	-1.000000	-1.000000	-1.000000	58.827586	0.000000	-1.000000	-1.000000	1176985.000000	1772739751.881008
-17478.990000	-19386.315000	-9587.880000	-2136.105000	-15362.415000	-9535.680000	-11452.950000	7142.985000	5.640660	-7.366971	-9.305546	-7.635121	-6.941186	-5.588661	3.507534	15.693066	-2.075360	4.776380	-2.197440	0.921934	-0.197692	0.339416	-1.000000	-1.000000	-1.000000	-1.000000	-1.000000	-1.000000	-1.000000	58.827586	0.000000	-1.000000	-1.000000	1176986.000000	1772739751.881012
-17449.245000	-19370.835000	-9574.515000	-2121.120000	-15347.205000	-9517.680000	-11447.145000	7187.085000	3.816374	-4.529460	-5.420668	-3.422595	-1.603318	-0.727025	2.552737	17.708258	-2.075360	4.776380	-2.197440	0.921934	-0.197692	0.339416	-1.000000	-1.000000	-1.000000	-1.000000	-1.000000	-1.000000	-1.000000	58.827586	0.000000	-1.000000	-1.000000	1176987.000000	1772739751.881016
-17457.615000	-19355.580000	-9558.270000	-2104.695000	-15331.545000	-9501.255000	-11449.530000	7143.480000	-1.999637	-0.547423	0.429947	2.526463	4.610857	4.640092	1.305538	13.161865	-2.075360	4.776380	-2.197440	0.921934	-0.197692	0.339416	-1.000000	-1.000000	-1.000000	-1.000000	-1.000000	-1.000000	-1.000000	58.827586	0.000000	-1.000000	-1.000000	1176988.000000	1772739751.881020
-17442.450000	-19319.670000	-9527.805000	-2088.495000	-15315.660000	-9487.935000	-11433.420000	7117.290000	-8.383083	5.015145	7.347533	8.927269	10.323889	9.190925	0.590588	0.161763	-2.075360	4.776380	-2.197440	0.921934	-0.197692	0.339416	-1.000000	-1.000000	-1.000000	-1.000000	-1.000000	-1.000000	-1.000000	58.827586	0.000000	-1.000000	-1.000000	1176989.000000	1772739751.881024
-17430.930000	-19318.770000	-9516.600000	-2091.105000	-15314.805000	-9488.070000	-11439.945000	7145.820000	-10.388400	11.713026	13.783234	13.341008	13.505687	11.221451	-0.054593	-16.125321	-2.075360	4.776380	-2.197440	0.921934	-0.197692	0.339416	-1.000000	-1.000000	-1.000000	-1.000000	-1.000000	-1.000000	-1.000000	58.827586	0.000000	-1.000000	-1.000000	1176990.000000	1772739751.881027
-17460.090000	-19352.790000	-9569.340000	-2114.505000	-15334.290000	-9506.565000	-11442.690000	7159.905000	-6.141161	15.490995	15.930046	12.984265	12.199026	9.520699	-1.453733	-24.528737	-1.388660	5.081580	-3.616620	0.914487	-0.194519	0.339660	-1.000000	-1.000000	-1.000000	-1.000000	-1.000000	-1.000000	-1.000000	58.827586	0.000000	-1.000000	-1.000000	1176991.000000	1772739751.881031
-17451.180000	-19358.325000	-9558.045000	-2078.370000	-15305.715000	-9487.215000	-11403.675000	7170.345000	-0.359884	10.064283	9.178967	6.735510	5.874937	4.165116	-3.137414	-18.916358	-1.388660	5.081580	-3.616620	0.914487	-0.194519	0.339660	-1.000000	-1.000000	-1.000000	-1.000000	-1.000000	-1.000000	-1.000000	58.827586	0.000000	-1.000000	-1.000000	1176992.000000	1772739751.881034
-17469.180000	-19395.540000	-9565.470000	-2104.020000	-15333.120000	-9517.815000	-11437.650000	7139.835000	1.328277	-4.274622	-4.069089	-1.770189	-2.169060	-2.027398	-2.913160	-5.537624	-1.388660	5.081580	-3.616620	0.914487	-0.194519	0.339660	-1.000000	-1.000000	-1.000000	-1.000000	-1.000000	-1.000000	-1.000000	58.827586	0.000000	-1.000000	-1.000000	1176993.000000	1772739751.882688
-17517.735000	-19438.200000	-9631.170000	-2175.390000	-15401.025000	-9577.800000	-11483.640000	7121.970000	-1.241624	-19.086051	-15.521746	-8.403807	-8.544065	-6.910913	-1.268318	4.051315	-1.388660	5.081580	-3.616620	0.914487	-0.194519	0.339660	-1.000000	-1.000000	-1.000000	-1.000000	-1.000000	-1.000000	-1.000000	58.827586	0.000000	-1.000000	-1.000000	1176994.000000	1772739751.882696
-17501.580000	-19400.760000	-9602.370000	-2144.835000	-15368.175000	-9540.585000	-11462.490000	7102.575000	-4.836473	-25.616484	-20.094312	-12.901903	-13.142335	-11.030990	-1.355110	4.357404	-1.388660	5.081580	-3.616620	0.914487	-0.194519	0.339660	-1.000000	-1.000000	-1.000000	-1.000000	-1.000000	-1.000000	-1.000000	58.827586	0.000000	-1.000000	-1.000000	1176995.000000	1772739751.888192
-17507.655000	-19380.375000	-9582.570000	-2122.515000	-15345.720000	-9513.045000	-11464.605000	7088.490000	-6.333975	-19.517075	-16.411527	-14.080021	-14.449716	-12.666197	-2.948008	-2.117304	-1.388660	5.081580	-3.616620	0.914487	-0.194519	0.339660	-1.000000	-1.000000	-1.000000	-1.000000	-1.000000	-1.000000	-1.000000	58.827586	0.000000	-1.000000	-1.000000	1176996.000000	1772739751.888201
-17498.655000	-19354.500000	-9563.130000	-2108.295000	-15334.920000	-9504.135000	-11457.090000	7166.970000	-4.093207	-3.027237	-5.394701	-9.348704	-9.689548	-8.627186	-3.003703	-7.308321	-1.388660	5.081580	-3.616620	0.914487	-0.194519	0.339660	-1.000000	-1.000000	-1.000000	-1.000000	-1.000000	-1.000000	-1.000000	58.827586	0.000000	-1.000000	-1.000000	1176997.000000	1772739751.897973
-17459.280000	-19345.320000	-9553.095000	-2099.295000	-15325.920000	-9498.330000	-11439.045000	7143.255000	1.950541	15.412020	8.072150	0.143638	-0.139190	0.048211	-0.289428	-2.829170	-1.388660	5.081580	-3.616620	0.914487	-0.194519	0.339660	-1.000000	-1.000000	-1.000000	-1.000000	-1.000000	-1.000000	-1.000000	58.827586	0.000000	-1.000000	-1.000000	1176998.000000	1772739751.897983
-17448.795000	-19359.630000	-9565.155000	-2110.320000	-15337.845000	-9513.180000	-11450.970000	7127.595000	10.567473	26.560049	17.551107	9.762329	9.396543	8.673750	3.920725	9.498658	-1.388660	5.081580	-3.616620	0.914487	-0.194519	0.339660	-1.000000	-1.000000	-1.000000	-1.000000	-1.000000	-1.000000	-1.000000	58.827586	0.000000	-1.000000	-1.000000	1176999.000000	1772739751.897996
-17433.765000	-19364.355000	-9578.205000	-2122.290000	-15352.470000	-9535.365000	-11462.130000	7146.000000	18.235776	25.501416	19.072890	14.481756	13.968637	12.516944	6.612248	18.899715	-1.388660	5.081580	-3.616620	0.914487	-0.194519	0.339660	-1.000000	-1.000000	-1.000000	-1.000000	-1.000000	-1.000000	-1.000000	58.827586	0.000000	-1.000000	-1.000000	1177000.000000	1772739751.897999
-17433.765000	-19368.225000	-9585.765000	-2130.660000	-15358.275000	-9539.595000	-11446.965000	7162.425000	19.969275	13.973888	12.673602	11.636772	11.290995	9.699282	5.437257	18.668138	-4.028640	3.509800	-2.624720	0.907896	-0.190124	0.337035	-1.000000	-1.000000	-1.000000	-1.000000	-1.000000	-1.000000	-1.000000	58.827586	0.000000	-1.000000	-1.000000	1177001.000000	1772739751.902155
-17449.830000	-19362.960000	-9567.405000	-2114.595000	-15342.255000	-9522.495000	-11442.105000	7150.725000	13.580388	-0.406265	2.710702	4.119261	4.519018	3.627319	2.336256	10.567900	-4.028640	3.509800	-2.624720	0.907896	-0.190124	0.337035	-1.000000	-1.000000	-1.000000	-1.000000	-1.000000	-1.000000	-1.000000	58.827586	0.000000	-1.000000	-1.000000	1177002.000000	1772739751.902164
-17462.610000	-19355.535000	-9550.665000	-2103.705000	-15330.465000	-9509.535000	-11438.190000	7135.110000	1.816192	-9.657336	-4.099394	-1.168273	0.133831	0.310322	1.387514	-0.131197	-4.028640	3.509800	-2.624720	0.907896	-0.190124	0.337035	-1.000000	-1.000000	-1.000000	-1.000000	-1.000000	-1.000000	-1.000000	58.827586	0.000000	-1.000000	-1.000000	1177003.000000	1772739751.907760
-17499.510000	-19329.570000	-9518.265000	-2060.505000	-15285.330000	-9458.820000	-11410.020000	7069.320000	-11.026863	-11.508468	-4.466045	-0.744227	0.876596	1.660431	3.223137	-9.974013	-4.028640	3.509800	-2.624720	0.907896	-0.190124	0.337035	-1.000000	-1.000000	-1.000000	-1.000000	-1.000000	-1.000000	-1.000000	58.827586	0.000000	-1.000000	-1.000000	1177004.000000	1772739751.907770
-17478.090000	-19319.490000	-9537.525000	-2045.430000	-15266.745000	-9438.750000	-11435.355000	7039.350000	-21.280852	-9.128568	-1.772209	2.469418	3.682269	4.393013	4.678341	-18.468363	-4.028640	3.509800	-2.624720	0.907896	-0.190124	0.337035	-1.000000	-1.000000	-1.000000	-1.000000	-1.000000	-1.000000	-1.000000	58.827586	0.000000	-1.000000	-1.000000	1177005.000000	1772739751.907779
-17433.765000	-19382.445000	-9629.190000	-2123.505000	-15336.270000	-9501.615000	-11453.490000	7178.445000	-24.298375	-7.435102	-3.078498	2.478766	3.151708	3.630735	2.008754	-22.570062	-4.028640	3.509800	-2.624720	0.907896	-0.190124	0.337035	-1.000000	-1.000000	-1.000000	-1.000000	-1.000000	-1.000000	-1.000000	58.827586	0.000000	-1.000000	-1.000000	1177006.000000	1772739751.907784
-17430.705000	-19394.145000	-9610.380000	-2151.000000	-15376.500000	-9544.770000	-11454.975000	7213.770000	-17.230039	-9.672805	-11.697252	-5.038274	-4.666059	-4.017072	-5.472127	-14.553570	-4.028640	3.509800	-2.624720	0.907896	-0.190124	0.337035	-1.000000	-1.000000	-1.000000	-1.000000	-1.000000	-1.000000	-1.000000	58.827586	0.000000	-1.000000	-1.000000	1177007.000000	1772739751.913523
-17455.140000	-19372.725000	-9550.890000	-2145.060000	-15382.035000	-9560.025000	-11457.720000	7148.700000	-3.996855	-13.129669	-20.093145	-16.782596	-17.100226	-16.077722	-13.289763	5.469768	-4.028640	3.509800	-2.624720	0.907896	-0.190124	0.337035	-1.000000	-1.000000	-1.000000	-1.000000	-1.000000	-1.000000	-1.000000	58.827586	0.000000	-1.000000	-1.000000	1177008.000000	1772739751.913532
-17455.500000	-19371.375000	-9561.960000	-2131.920000	-15363.810000	-9547.515000	-11458.395000	7128.495000	7.238760	-11.084449	-16.659313	-22.728851	-24.535008	-23.686043	-15.611510	22.510938	-4.028640	3.509800	-2.624720	0.907896	-0.190124	0.337035	-1.000000	-1.000000	-1.000000	-1.000000	-1.000000	-1.000000	-1.000000	58.827586	0.000000	-1.000000	-1.000000	1177009.000000	1772739751.914752
-17447.265000	-19354.275000	-9551.295000	-2107.980000	-15336.585000	-9517.770000	-11445.030000	7106.175000	11.793600	-0.965734	-0.693004	-15.833996	-18.839977	-18.947156	-10.494716	22.489326	-4.028640	3.509800	-2.624720	0.907896	-0.190124	0.337035	-1.000000	-1.000000	-1.000000	-1.000000	-1.000000	-1.000000	-1.000000	58.827586	0.000000	-1.000000	-1.000000	1177010.000000	1772739751.914758
