Channel1	Channel2	Channel3	Channel4	Channel5	Channel6	Channel7	Channel8	FilteredChannel1	FilteredChannel2	FilteredChannel3	FilteredChannel4	FilteredChannel5	FilteredChannel6	FilteredChannel7	FilteredChannel8	GyroX	GyroY	GyroZ	AccX	AccY	AccZ	PPG1	PPG2	rawPPG1	rawPPG2	rawPPG3	Hr	Hrv	Battery	Trigger	PhysicalTrigger	AutoTrigger	NumMeasurements	Timestamp
-16019.415000	-19118.970000	-10590.705000	-3183.750000	-15305.670000	-9953.505000	-13045.905000	7335.990000	-29.357221	-31.454216	-26.144275	-21.195134	-17.328181	-14.405954	-5.016544	-3.380032	-1.587040	6.042960	-1.358140	0.885618	-0.084350	0.435729	-1.000000	-1.000000	-1.000000	-1.000000	-1.000000	-1.000000	-1.000000	58.482759	0.000000	-1.000000	-1.000000	1198358.000000	1772739794.637577
-16019.010000	-19124.280000	-10602.495000	-3193.695000	-15315.930000	-9967.500000	-13041.180000	7348.680000	-27.224211	-21.342329	-19.626021	-16.313706	-14.592074	-13.497021	-7.921723	-9.423129	-1.587040	6.042960	-1.358140	0.885618	-0.084350	0.435729	-1.000000	-1.000000	-1.000000	-1.000000	-1.000000	-1.000000	-1.000000	58.482759	0.000000	-1.000000	-1.000000	1198359.000000	1772739794.637581
-15994.710000	-19108.575000	-10591.830000	-3196.710000	-15317.055000	-9972.765000	-13034.610000	7345.935000	-15.900125	-7.065804	-8.096731	-7.509493	-8.289421	-9.254438	-7.686362	-6.399819	-1.587040	6.042960	-1.358140	0.885618	-0.084350	0.435729	-1.000000	-1.000000	-1.000000	-1.000000	-1.000000	-1.000000	-1.000000	58.482759	0.000000	-1.000000	-1.000000	1198360.000000	1772739794.637585
-15987.645000	-19103.805000	-10579.905000	-3204.495000	-15326.910000	-9988.830000	-13023.000000	7362.810000	0.126742	7.053283	5.075362	2.775883	0.535788	-1.547480	-2.775811	1.724726	-3.082520	4.806900	-1.846460	0.882017	-0.082214	0.433349	-1.000000	-1.000000	-1.000000	-1.000000	-1.000000	-1.000000	-1.000000	58.482759	0.000000	-1.000000	-1.000000	1198361.000000	1772739794.656084
-16001.370000	-19108.980000	-10607.490000	-3211.290000	-15334.380000	-9997.965000	-13017.015000	7374.870000	14.799116	18.368545	16.521195	12.012423	9.662282	7.725828	4.389202	6.779377	-3.082520	4.806900	-1.846460	0.882017	-0.082214	0.433349	-1.000000	-1.000000	-1.000000	-1.000000	-1.000000	-1.000000	-1.000000	58.482759	0.000000	-1.000000	-1.000000	1198362.000000	1772739794.656094
-15993.540000	-19116.720000	-10613.745000	-3175.695000	-15298.560000	-9958.815000	-12999.870000	7390.620000	22.130994	23.673285	21.285536	17.291498	15.620772	14.516709	9.349587	5.099163	-3.082520	4.806900	-1.846460	0.882017	-0.082214	0.433349	-1.000000	-1.000000	-1.000000	-1.000000	-1.000000	-1.000000	-1.000000	58.482759	0.000000	-1.000000	-1.000000	1198363.000000	1772739794.656106
-16011.360000	-19150.695000	-10655.640000	-3197.835000	-15314.670000	-9968.940000	-13028.850000	7316.955000	20.467938	20.905949	16.567594	17.340701	16.537101	16.135292	9.347281	-1.179027	-3.082520	4.806900	-1.846460	0.882017	-0.082214	0.433349	-1.000000	-1.000000	-1.000000	-1.000000	-1.000000	-1.000000	-1.000000	58.482759	0.000000	-1.000000	-1.000000	1198364.000000	1772739794.656110
-16016.175000	-19148.310000	-10646.685000	-3208.815000	-15322.275000	-9968.940000	-13040.460000	7315.695000	12.649073	10.985866	4.636494	11.711215	11.761080	11.662463	4.048262	-9.049698	-3.082520	4.806900	-1.846460	0.882017	-0.082214	0.433349	-1.000000	-1.000000	-1.000000	-1.000000	-1.000000	-1.000000	-1.000000	58.482759	0.000000	-1.000000	-1.000000	1198365.000000	1772739794.656114
-16014.555000	-19133.505000	-10580.355000	-3191.670000	-15317.100000	-9961.380000	-13046.085000	7325.370000	2.885884	-1.652095	-7.322463	1.206724	1.869505	1.903461	-4.122754	-14.541620	-3.082520	4.806900	-1.846460	0.882017	-0.082214	0.433349	-1.000000	-1.000000	-1.000000	-1.000000	-1.000000	-1.000000	-1.000000	58.482759	0.000000	-1.000000	-1.000000	1198366.000000	1772739794.656118
-16005.600000	-19120.005000	-10556.325000	-3184.515000	-15312.240000	-9959.580000	-13037.940000	7328.655000	-5.387839	-10.877427	-10.939637	-9.597533	-9.086948	-8.895536	-10.536261	-14.016576	-3.082520	4.806900	-1.846460	0.882017	-0.082214	0.433349	-1.000000	-1.000000	-1.000000	-1.000000	-1.000000	-1.000000	-1.000000	58.482759	0.000000	-1.000000	-1.000000	1198367.000000	1772739794.684695
-15992.640000	-19093.365000	-10552.545000	-3161.115000	-15290.280000	-9943.605000	-13015.665000	7342.650000	-10.183704	-12.699942	-4.275759	-14.487890	-14.895910	-14.520573	-11.045711	-7.642625	-3.082520	4.806900	-1.846460	0.882017	-0.082214	0.433349	-1.000000	-1.000000	-1.000000	-1.000000	-1.000000	-1.000000	-1.000000	58.482759	0.000000	-1.000000	-1.000000	1198368.000000	1772739794.684706
-15984.765000	-19085.040000	-10556.280000	-3167.145000	-15299.145000	-9964.125000	-13013.505000	7353.540000	-10.763184	-7.370878	5.996923	-10.611142	-11.886600	-11.490825	-4.839476	2.085767	-3.082520	4.806900	-1.846460	0.882017	-0.082214	0.433349	-1.000000	-1.000000	-1.000000	-1.000000	-1.000000	-1.000000	-1.000000	58.482759	0.000000	-1.000000	-1.000000	1198369.000000	1772739794.684718
-16007.985000	-19127.205000	-10599.570000	-3209.805000	-15339.150000	-10006.965000	-13030.920000	7347.735000	-8.099873	0.405570	10.776185	-1.558850	-2.847282	-2.765676	3.876548	10.932875	-3.082520	4.806900	-1.846460	0.882017	-0.082214	0.433349	-1.000000	-1.000000	-1.000000	-1.000000	-1.000000	-1.000000	-1.000000	58.482759	0.000000	-1.000000	-1.000000	1198370.000000	1772739794.684722
-16021.395000	-19132.020000	-10601.865000	-3210.570000	-15334.785000	-9995.265000	-13032.180000	7330.950000	-4.642523	4.367682	5.929265	5.012072	4.830603	4.531989	8.683183	13.787988	-4.120200	5.371520	-2.090620	0.880003	-0.081360	0.435302	-1.000000	-1.000000	-1.000000	-1.000000	-1.000000	-1.000000	-1.000000	58.482759	0.000000	-1.000000	-1.000000	1198371.000000	1772739794.684727
-15972.120000	-19057.995000	-10531.935000	-3145.995000	-15273.495000	-9937.305000	-13019.040000	7288.155000	-1.346372	3.742715	-3.496523	5.547505	7.075921	6.709272	7.153368	9.012496	-4.120200	5.371520	-2.090620	0.880003	-0.081360	0.435302	-1.000000	-1.000000	-1.000000	-1.000000	-1.000000	-1.000000	-1.000000	58.482759	0.000000	-1.000000	-1.000000	1198372.000000	1772739794.684731
-15925.365000	-19003.815000	-10477.845000	-3082.365000	-15210.495000	-9871.515000	-12988.800000	7310.115000	4.019968	4.625159	-7.069864	4.672346	7.254546	6.941211	3.079857	0.894035	-4.120200	5.371520	-2.090620	0.880003	-0.081360	0.435302	-1.000000	-1.000000	-1.000000	-1.000000	-1.000000	-1.000000	-1.000000	58.482759	0.000000	-1.000000	-1.000000	1198373.000000	1772739794.684735
-15977.790000	-19072.530000	-10534.320000	-3119.445000	-15242.490000	-9893.970000	-13006.575000	7288.425000	11.527044	9.126791	-1.863737	6.930397	9.134957	8.723572	1.422123	-3.863497	-4.120200	5.371520	-2.090620	0.880003	-0.081360	0.435302	-1.000000	-1.000000	-1.000000	-1.000000	-1.000000	-1.000000	-1.000000	58.482759	0.000000	-1.000000	-1.000000	1198374.000000	1772739794.684739
-16029.990000	-19164.960000	-10624.995000	-3216.555000	-15339.825000	-9988.200000	-13052.295000	7312.770000	14.185688	8.450176	1.305820	7.269694	8.359156	8.075495	1.645836	-3.116309	-4.120200	5.371520	-2.090620	0.880003	-0.081360	0.435302	-1.000000	-1.000000	-1.000000	-1.000000	-1.000000	-1.000000	-1.000000	58.482759	0.000000	-1.000000	-1.000000	1198375.000000	1772739794.759873
-16049.655000	-19185.840000	-10653.030000	-3250.845000	-15373.755000	-10018.620000	-13044.195000	7403.220000	5.351819	-5.382408	-8.080017	-2.501903	-2.184436	-1.587653	-0.596728	1.344225	-4.120200	5.371520	-2.090620	0.880003	-0.081360	0.435302	-1.000000	-1.000000	-1.000000	-1.000000	-1.000000	-1.000000	-1.000000	58.482759	0.000000	-1.000000	-1.000000	1198376.000000	1772739794.759885
-16027.605000	-19139.220000	-10603.440000	-3205.170000	-15334.920000	-9991.485000	-13027.185000	7372.665000	-10.971725	-25.315797	-23.760303	-18.986946	-19.011400	-17.032603	-5.701691	7.679631	-4.120200	5.371520	-2.090620	0.880003	-0.081360	0.435302	-1.000000	-1.000000	-1.000000	-1.000000	-1.000000	-1.000000	-1.000000	58.482759	0.000000	-1.000000	-1.000000	1198377.000000	1772739794.759897
-16026.795000	-19108.890000	-10567.620000	-3172.230000	-15308.505000	-9983.115000	-13029.030000	7315.110000	-22.672916	-33.903566	-28.047528	-27.124728	-27.711791	-25.077648	-9.148762	10.537243	-4.120200	5.371520	-2.090620	0.880003	-0.081360	0.435302	-1.000000	-1.000000	-1.000000	-1.000000	-1.000000	-1.000000	-1.000000	58.482759	0.000000	-1.000000	-1.000000	1198378.000000	1772739794.759901
-16087.050000	-19108.350000	-10568.565000	-3160.080000	-15277.005000	-9948.330000	-13025.385000	7206.975000	-21.544908	-20.832733	-11.495081	-16.252492	-17.706181	-16.252530	-7.414108	2.444205	-4.120200	5.371520	-2.090620	0.880003	-0.081360	0.435302	-1.000000	-1.000000	-1.000000	-1.000000	-1.000000	-1.000000	-1.000000	58.482759	0.000000	-1.000000	-1.000000	1198379.000000	1772739794.759907
-16086.555000	-19128.375000	-10597.500000	-3191.715000	-15308.595000	-9969.840000	-13035.870000	7221.330000	-10.063187	6.439411	16.418314	7.254371	5.556079	4.562311	-1.522083	-15.251914	-4.120200	5.371520	-2.090620	0.880003	-0.081360	0.435302	-1.000000	-1.000000	-1.000000	-1.000000	-1.000000	-1.000000	-1.000000	58.482759	0.000000	-1.000000	-1.000000	1198380.000000	1772739794.759910
-16030.665000	-19149.210000	-10631.070000	-3231.990000	-15353.595000	-10006.380000	-13038.435000	7336.620000	4.002252	28.552442	35.057183	24.559823	23.672350	20.974646	4.200288	-27.501154	-4.089680	8.011500	-1.693860	0.887449	-0.082519	0.436217	-1.000000	-1.000000	-1.000000	-1.000000	-1.000000	-1.000000	-1.000000	58.482759	0.000000	-1.000000	-1.000000	1198381.000000	1772739794.759915
-15959.475000	-19124.235000	-10597.770000	-3192.255000	-15311.340000	-9954.180000	-13009.320000	7387.920000	16.312034	31.676805	31.704576	22.821819	22.931351	20.644266	6.542264	-18.418452	-4.089680	8.011500	-1.693860	0.887449	-0.082519	0.436217	-1.000000	-1.000000	-1.000000	-1.000000	-1.000000	-1.000000	-1.000000	58.482759	0.000000	-1.000000	-1.000000	1198382.000000	1772739794.759919
-15966.945000	-19104.795000	-10570.050000	-3160.530000	-15278.175000	-9921.645000	-12984.390000	7401.915000	26.369539	19.813691	13.461136	8.484264	8.956039	8.585419	6.885997	9.641965	-4.089680	8.011500	-1.693860	0.887449	-0.082519	0.436217	-1.000000	-1.000000	-1.000000	-1.000000	-1.000000	-1.000000	-1.000000	58.482759	0.000000	-1.000000	-1.000000	1198383.000000	1772739794.759923
-16019.955000	-19116.900000	-10589.490000	-3184.110000	-15304.950000	-9954.495000	-13016.430000	7325.820000	31.011525	7.200936	-2.418194	-1.944671	-1.707335	-0.496512	7.858194	34.759913	-4.089680	8.011500	-1.693860	0.887449	-0.082519	0.436217	-1.000000	-1.000000	-1.000000	-1.000000	-1.000000	-1.000000	-1.000000	58.482759	0.000000	-1.000000	-1.000000	1198384.000000	1772739794.759926
-16023.285000	-19128.105000	-10597.320000	-3191.805000	-15313.860000	-9969.390000	-13025.745000	7289.955000	23.983362	0.953363	-7.422460	-1.644012	-1.858395	-0.687856	7.600177	34.509414	-4.089680	8.011500	-1.693860	0.887449	-0.082519	0.436217	-1.000000	-1.000000	-1.000000	-1.000000	-1.000000	-1.000000	-1.000000	58.482759	0.000000	-1.000000	-1.000000	1198385.000000	1772739794.759930
-15934.545000	-19085.175000	-10570.095000	-3174.660000	-15302.385000	-9971.370000	-13007.970000	7378.380000	5.719974	-2.352945	-5.918137	2.723262	2.216738	2.075316	2.773256	8.888312	-4.089680	8.011500	-1.693860	0.887449	-0.082519	0.436217	-1.000000	-1.000000	-1.000000	-1.000000	-1.000000	-1.000000	-1.000000	58.482759	0.000000	-1.000000	-1.000000	1198386.000000	1772739794.759934
-15968.160000	-19114.560000	-10598.175000	-3203.640000	-15330.825000	-10002.780000	-13031.145000	7372.080000	-13.190214	-6.791343	-4.996332	2.719629	2.215818	0.856179	-5.197175	-18.269021	-4.089680	8.011500	-1.693860	0.887449	-0.082519	0.436217	-1.000000	-1.000000	-1.000000	-1.000000	-1.000000	-1.000000	-1.000000	58.482759	0.000000	-1.000000	-1.000000	1198387.000000	1772739794.759938
-16014.060000	-19114.740000	-10595.160000	-3199.140000	-15324.840000	-9988.965000	-13012.560000	7368.480000	-23.277652	-11.993571	-6.904887	-3.387923	-3.935298	-5.486903	-11.541441	-25.280253	-4.089680	8.011500	-1.693860	0.887449	-0.082519	0.436217	-1.000000	-1.000000	-1.000000	-1.000000	-1.000000	-1.000000	-1.000000	58.482759	0.000000	-1.000000	-1.000000	1198388.000000	1772739794.759941
-16026.030000	-19112.760000	-10589.040000	-3189.285000	-15312.780000	-9968.805000	-13011.480000	7307.280000	-24.781681	-15.063699	-9.001354	-10.608151	-11.384359	-12.119645	-12.416724	-13.671052	-4.089680	8.011500	-1.693860	0.887449	-0.082519	0.436217	-1.000000	-1.000000	-1.000000	-1.000000	-1.000000	-1.000000	-1.000000	58.482759	0.000000	-1.000000	-1.000000	1198389.000000	1772739794.759946
-16000.065000	-19133.145000	-10613.520000	-3211.065000	-15334.380000	-9982.530000	-13048.695000	7319.295000	-22.774440	-13.907188	-8.295079	-13.047993	-13.684954	-13.149454	-8.023039	-1.518749	-4.089680	8.011500	-1.693860	0.887449	-0.082519	0.436217	-1.000000	-1.000000	-1.000000	-1.000000	-1.000000	-1.000000	-1.000000	58.482759	0.000000	-1.000000	-1.000000	1198390.000000	1772739794.759949
-15997.590000	-19152.990000	-10626.975000	-3220.515000	-15343.020000	-9988.830000	-13061.070000	7365.105000	-19.252956	-9.653156	-5.745812	-10.366442	-10.174886	-8.651171	-3.076685	-0.631443	-0.717220	9.201780	-1.510740	0.889463	-0.088745	0.434752	-1.000000	-1.000000	-1.000000	-1.000000	-1.000000	-1.000000	-1.000000	58.482759	0.000000	-1.000000	-1.000000	1198391.000000	1772739794.759953
-15987.915000	-19127.070000	-10596.195000	-3189.645000	-15313.995000	-9965.880000	-13035.060000	7336.800000	-11.678804	-4.124547	-3.220532	-5.280956	-4.060072	-2.420676	-0.656811	-6.222265	-0.717220	9.201780	-1.510740	0.889463	-0.088745	0.434752	-1.000000	-1.000000	-1.000000	-1.000000	-1.000000	-1.000000	-1.000000	58.482759	0.000000	-1.000000	-1.000000	1198392.000000	1772739794.759957
-15978.240000	-19111.680000	-10571.130000	-3164.445000	-15291.540000	-9950.850000	-13029.840000	7307.730000	2.294594	3.201021	1.119474	2.264981	4.035932	4.840844	1.817638	-8.520967	-0.717220	9.201780	-1.510740	0.889463	-0.088745	0.434752	-1.000000	-1.000000	-1.000000	-1.000000	-1.000000	-1.000000	-1.000000	58.482759	0.000000	-1.000000	-1.000000	1198393.000000	1772739794.759962
-16012.080000	-19109.070000	-10562.310000	-3156.210000	-15283.440000	-9952.740000	-13028.850000	7327.530000	18.041915	11.554789	8.467827	11.839987	13.451645	12.994031	6.678334	-4.208771	-0.717220	9.201780	-1.510740	0.889463	-0.088745	0.434752	-1.000000	-1.000000	-1.000000	-1.000000	-1.000000	-1.000000	-1.000000	58.482759	0.000000	-1.000000	-1.000000	1198394.000000	1772739794.759965
-16055.730000	-19136.565000	-10592.280000	-3188.835000	-15314.715000	-9983.745000	-13033.530000	7340.760000	24.388475	15.838311	14.147783	17.938905	19.014161	17.828234	11.286378	3.853461	-0.717220	9.201780	-1.510740	0.889463	-0.088745	0.434752	-1.000000	-1.000000	-1.000000	-1.000000	-1.000000	-1.000000	-1.000000	58.482759	0.000000	-1.000000	-1.000000	1198395.000000	1772739794.759969
-16048.890000	-19147.905000	-10619.640000	-3223.215000	-15350.850000	-10011.330000	-13047.435000	7314.345000	16.530635	12.022162	12.261604	14.577058	15.036762	14.386923	11.675099	11.195549	-0.717220	9.201780	-1.510740	0.889463	-0.088745	0.434752	-1.000000	-1.000000	-1.000000	-1.000000	-1.000000	-1.000000	-1.000000	58.482759	0.000000	-1.000000	-1.000000	1198396.000000	1772739794.759972
-16013.520000	-19129.140000	-10614.915000	-3220.065000	-15349.275000	-10005.030000	-13041.270000	7265.790000	3.745883	2.797275	2.883831	2.251171	1.872307	2.625356	6.787701	14.342574	-0.717220	9.201780	-1.510740	0.889463	-0.088745	0.434752	-1.000000	-1.000000	-1.000000	-1.000000	-1.000000	-1.000000	-1.000000	58.482759	0.000000	-1.000000	-1.000000	1198397.000000	1772739794.759976
-16003.215000	-19116.405000	-10615.770000	-3217.455000	-15341.445000	-9992.115000	-13046.715000	7290.045000	-2.467865	-4.979716	-7.826375	-11.536751	-12.871189	-11.151034	-0.788338	11.757069	-0.717220	9.201780	-1.510740	0.889463	-0.088745	0.434752	-1.000000	-1.000000	-1.000000	-1.000000	-1.000000	-1.000000	-1.000000	58.482759	0.000000	-1.000000	-1.000000	1198398.000000	1772739794.759980
-16001.280000	-19136.430000	-10616.535000	-3207.690000	-15325.200000	-9964.395000	-13027.140000	7336.845000	-1.204252	-6.844066	-13.071639	-18.083604	-19.762094	-18.339403	-6.314757	5.423749	-0.717220	9.201780	-1.510740	0.889463	-0.088745	0.434752	-1.000000	-1.000000	-1.000000	-1.000000	-1.000000	-1.000000	-1.000000	58.482759	0.000000	-1.000000	-1.000000	1198399.000000	1772739794.792075
-15977.475000	-19127.610000	-10610.640000	-3197.970000	-15318.630000	-9961.920000	-13016.340000	7373.880000	1.703157	-3.734438	-10.510522	-14.037818	-15.009338	-14.762841	-6.504099	-0.096250	-0.717220	9.201780	-1.510740	0.889463	-0.088745	0.434752	-1.000000	-1.000000	-1.000000	-1.000000	-1.000000	-1.000000	-1.000000	58.482759	0.000000	-1.000000	-1.000000	1198400.000000	1772739794.792085
-15991.020000	-19127.430000	-10614.555000	-3205.980000	-15329.610000	-9980.235000	-13021.245000	7368.435000	2.644102	0.380143	-3.229428	-3.319133	-3.090726	-4.048187	-2.606714	-1.240162	-0.732480	7.477400	-0.930860	0.884519	-0.091003	0.436889	-1.000000	-1.000000	-1.000000	-1.000000	-1.000000	-1.000000	-1.000000	58.482759	0.000000	-1.000000	-1.000000	1198401.000000	1772739794.792096
-15986.070000	-19104.345000	-10589.985000	-3187.710000	-15317.955000	-9982.170000	-13024.035000	7362.720000	1.150107	2.388051	3.603018	6.671910	7.594359	5.841926	1.010934	1.534629	-0.732480	7.477400	-0.930860	0.884519	-0.091003	0.436889	-1.000000	-1.000000	-1.000000	-1.000000	-1.000000	-1.000000	-1.000000	58.482759	0.000000	-1.000000	-1.000000	1198402.000000	1772739794.792100
-15994.530000	-19116.315000	-10589.985000	-3192.210000	-15319.530000	-9989.910000	-13024.620000	7349.895000	-1.966105	1.714061	7.015123	11.039027	11.707099	9.663904	1.325875	3.172050	-0.732480	7.477400	-0.930860	0.884519	-0.091003	0.436889	-1.000000	-1.000000	-1.000000	-1.000000	-1.000000	-1.000000	-1.000000	58.482759	0.000000	-1.000000	-1.000000	1198403.000000	1772739794.792105
-15988.410000	-19095.120000	-10564.605000	-3181.725000	-15306.120000	-9972.630000	-13017.375000	7335.360000	-4.532249	0.036279	7.799700	10.243491	10.171998	8.425958	-0.909763	-0.931830	-0.732480	7.477400	-0.930860	0.884519	-0.091003	0.436889	-1.000000	-1.000000	-1.000000	-1.000000	-1.000000	-1.000000	-1.000000	58.482759	0.000000	-1.000000	-1.000000	1198404.000000	1772739794.792108
-15980.895000	-19066.680000	-10541.070000	-3177.315000	-15301.620000	-9961.740000	-13014.360000	7308.495000	-4.507653	0.004640	8.541451	7.724217	7.189628	6.283075	-2.792574	-8.852346	-0.732480	7.477400	-0.930860	0.884519	-0.091003	0.436889	-1.000000	-1.000000	-1.000000	-1.000000	-1.000000	-1.000000	-1.000000	58.482759	0.000000	-1.000000	-1.000000	1198405.000000	1772739794.792112
-16002.495000	-19083.330000	-10591.425000	-3192.840000	-15313.725000	-9967.320000	-13023.900000	7324.380000	-3.044620	1.899348	8.882423	5.073099	4.671404	4.867168	-2.769414	-13.900012	-0.732480	7.477400	-0.930860	0.884519	-0.091003	0.436889	-1.000000	-1.000000	-1.000000	-1.000000	-1.000000	-1.000000	-1.000000	58.482759	0.000000	-1.000000	-1.000000	1198406.000000	1772739794.792116
-15997.725000	-19115.640000	-10598.175000	-3172.455000	-15298.380000	-9947.430000	-13026.645000	7360.380000	-3.426909	2.206274	4.879159	1.348019	1.334101	2.482272	-1.631316	-11.760481	-0.732480	7.477400	-0.930860	0.884519	-0.091003	0.436889	-1.000000	-1.000000	-1.000000	-1.000000	-1.000000	-1.000000	-1.000000	58.482759	0.000000	-1.000000	-1.000000	1198407.000000	1772739794.792120
-16014.015000	-19138.365000	-10598.400000	-3185.730000	-15311.610000	-9959.580000	-13035.510000	7321.365000	-6.325629	-1.832598	-4.286332	-3.544251	-3.575082	-2.065624	-0.885924	-5.130999	-0.732480	7.477400	-0.930860	0.884519	-0.091003	0.436889	-1.000000	-1.000000	-1.000000	-1.000000	-1.000000	-1.000000	-1.000000	58.482759	0.000000	-1.000000	-1.000000	1198408.000000	1772739794.792123
-16029.675000	-19134.630000	-10596.105000	-3185.145000	-15309.855000	-9960.840000	-13029.390000	7314.120000	-9.168992	-8.298803	-13.571749	-8.210618	-8.704675	-7.473203	-1.269686	-0.622437	-0.732480	7.477400	-0.930860	0.884519	-0.091003	0.436889	-1.000000	-1.000000	-1.000000	-1.000000	-1.000000	-1.000000	-1.000000	58.482759	0.000000	-1.000000	-1.000000	1198409.000000	1772739794.792127
-16025.850000	-19141.245000	-10605.510000	-3196.980000	-15323.895000	-9979.695000	-13031.505000	7347.600000	-8.911521	-12.603511	-17.540856	-11.155241	-11.809996	-10.963250	-1.883518	0.195480	-0.732480	7.477400	-0.930860	0.884519	-0.091003	0.436889	-1.000000	-1.000000	-1.000000	-1.000000	-1.000000	-1.000000	-1.000000	58.482759	0.000000	-1.000000	-1.000000	1198410.000000	1772739794.792130
-16010.460000	-19138.995000	-10615.635000	-3213.945000	-15343.605000	-10008.495000	-13027.500000	7353.630000	-3.703201	-11.669530	-15.048103	-11.634700	-11.716266	-10.884716	-1.168438	1.959296	-5.753020	6.943300	-0.198380	0.883909	-0.084472	0.440734	-1.000000	-1.000000	-1.000000	-1.000000	-1.000000	-1.000000	-1.000000	58.482759	0.000000	-1.000000	-1.000000	1198411.000000	1772739794.792134
-15999.705000	-19139.805000	-10646.280000	-3222.090000	-15346.305000	-10010.025000	-13017.105000	7352.685000	5.777603	-5.482353	-8.703448	-9.637512	-8.825666	-7.797754	1.274281	7.013376	-5.753020	6.943300	-0.198380	0.883909	-0.084472	0.440734	-1.000000	-1.000000	-1.000000	-1.000000	-1.000000	-1.000000	-1.000000	58.482759	0.000000	-1.000000	-1.000000	1198412.000000	1772739794.792138
-15997.005000	-19117.440000	-10647.315000	-3196.080000	-15313.140000	-9972.090000	-13007.655000	7334.595000	15.595390	3.615703	-1.912864	-4.725279	-3.252783	-2.385339	4.501999	12.397805	-5.753020	6.943300	-0.198380	0.883909	-0.084472	0.440734	-1.000000	-1.000000	-1.000000	-1.000000	-1.000000	-1.000000	-1.000000	58.482759	0.000000	-1.000000	-1.000000	1198413.000000	1772739794.792142
-15994.125000	-19092.105000	-10588.140000	-3161.430000	-15284.520000	-9943.740000	-13021.920000	7284.870000	20.247886	12.080973	4.427486	3.646318	5.272467	5.239717	6.654780	13.618736	-5.753020	6.943300	-0.198380	0.883909	-0.084472	0.440734	-1.000000	-1.000000	-1.000000	-1.000000	-1.000000	-1.000000	-1.000000	58.482759	0.000000	-1.000000	-1.000000	1198414.000000	1772739794.792145
-15991.470000	-19056.150000	-10497.105000	-3127.590000	-15261.840000	-9917.190000	-13030.605000	7281.945000	16.678915	17.552000	13.479178	14.074636	14.939468	13.429814	5.871621	7.548233	-5.753020	6.943300	-0.198380	0.883909	-0.084472	0.440734	-1.000000	-1.000000	-1.000000	-1.000000	-1.000000	-1.000000	-1.000000	58.482759	0.000000	-1.000000	-1.000000	1198415.000000	1772739794.792149
-15997.995000	-19065.915000	-10514.160000	-3139.380000	-15267.150000	-9915.480000	-13031.055000	7272.405000	6.551021	19.636272	26.012119	21.830018	20.949721	18.169220	2.087626	-4.680972	-5.753020	6.943300	-0.198380	0.883909	-0.084472	0.440734	-1.000000	-1.000000	-1.000000	-1.000000	-1.000000	-1.000000	-1.000000	58.482759	0.000000	-1.000000	-1.000000	1198416.000000	1772739794.792152
-16028.190000	-19106.460000	-10577.295000	-3178.620000	-15307.380000	-9959.715000	-13025.340000	7289.505000	-5.661501	16.789868	32.705391	20.620814	18.134377	15.244808	-2.570511	-16.013916	-5.753020	6.943300	-0.198380	0.883909	-0.084472	0.440734	-1.000000	-1.000000	-1.000000	-1.000000	-1.000000	-1.000000	-1.000000	58.482759	0.000000	-1.000000	-1.000000	1198417.000000	1772739794.792157
-16007.355000	-19115.640000	-10568.835000	-3156.075000	-15284.565000	-9934.875000	-12978.900000	7370.460000	-14.969489	6.471460	22.594682	8.653012	5.999124	4.496414	-4.918872	-17.258447	-5.753020	6.943300	-0.198380	0.883909	-0.084472	0.440734	-1.000000	-1.000000	-1.000000	-1.000000	-1.000000	-1.000000	-1.000000	58.482759	0.000000	-1.000000	-1.000000	1198418.000000	1772739794.792160
-15997.815000	-19143.180000	-10600.245000	-3195.900000	-15325.335000	-9982.530000	-13026.645000	7309.080000	-17.261416	-9.577022	-2.234747	-8.072163	-9.309167	-8.453926	-3.428244	-6.260915	-5.753020	6.943300	-0.198380	0.883909	-0.084472	0.440734	-1.000000	-1.000000	-1.000000	-1.000000	-1.000000	-1.000000	-1.000000	58.482759	0.000000	-1.000000	-1.000000	1198419.000000	1772739794.793718
-16002.810000	-19174.725000	-10649.115000	-3253.860000	-15381.495000	-10041.165000	-13048.200000	7310.070000	-12.086765	-24.590626	-28.458995	-21.555715	-20.679294	-17.615129	-1.128251	7.697529	-5.753020	6.943300	-0.198380	0.883909	-0.084472	0.440734	-1.000000	-1.000000	-1.000000	-1.000000	-1.000000	-1.000000	-1.000000	58.482759	0.000000	-1.000000	-1.000000	1198420.000000	1772739794.793722
-16025.895000	-19129.050000	-10598.805000	-3201.930000	-15328.395000	-9985.815000	-12997.395000	7372.980000	-3.761215	-30.933894	-42.241577	-26.729228	-24.332005	-20.452934	-1.381358	15.015990	-5.096840	8.331960	-1.373400	0.889280	-0.083435	0.442931	-1.000000	-1.000000	-1.000000	-1.000000	-1.000000	-1.000000	-1.000000	58.482759	0.000000	-1.000000	-1.000000	1198421.000000	1772739794.793732
-16014.465000	-19080.945000	-10547.010000	-3149.010000	-15279.120000	-9938.205000	-12981.645000	7386.615000	2.463910	-23.746251	-35.644152	-20.396330	-18.013907	-15.337871	-2.081400	16.193108	-5.096840	8.331960	-1.373400	0.889280	-0.083435	0.442931	-1.000000	-1.000000	-1.000000	-1.000000	-1.000000	-1.000000	-1.000000	58.482759	0.000000	-1.000000	-1.000000	1198422.000000	1772739794.793735
-15986.880000	-19113.795000	-10587.690000	-3188.745000	-15318.270000	-9969.975000	-13030.605000	7373.295000	5.166939	-5.682612	-12.979885	-4.568703	-3.529347	-3.474379	-0.354830	15.034271	-5.096840	8.331960	-1.373400	0.889280	-0.083435	0.442931	-1.000000	-1.000000	-1.000000	-1.000000	-1.000000	-1.000000	-1.000000	58.482759	0.000000	-1.000000	-1.000000	1198423.000000	1772739794.793761
-16008.165000	-19142.280000	-10610.100000	-3205.125000	-15328.980000	-9971.370000	-13046.130000	7315.920000	6.046382	12.272587	9.556567	10.723520	10.392459	8.017851	1.698162	9.791295	-5.096840	8.331960	-1.373400	0.889280	-0.083435	0.442931	-1.000000	-1.000000	-1.000000	-1.000000	-1.000000	-1.000000	-1.000000	58.482759	0.000000	-1.000000	-1.000000	1198424.000000	1772739794.793764
-15969.105000	-19105.605000	-10581.750000	-3177.090000	-15301.665000	-9948.870000	-13017.060000	7315.875000	6.484028	20.869011	19.611670	17.038409	16.347267	13.075519	1.405995	-2.636160	-5.096840	8.331960	-1.373400	0.889280	-0.083435	0.442931	-1.000000	-1.000000	-1.000000	-1.000000	-1.000000	-1.000000	-1.000000	58.482759	0.000000	-1.000000	-1.000000	1198425.000000	1772739794.793769
-15949.620000	-19105.965000	-10584.765000	-3184.380000	-15313.590000	-9966.555000	-13024.305000	7371.585000	7.579601	20.694069	19.309669	15.538420	15.216506	12.591835	-0.256828	-18.020711	-5.096840	8.331960	-1.373400	0.889280	-0.083435	0.442931	-1.000000	-1.000000	-1.000000	-1.000000	-1.000000	-1.000000	-1.000000	58.482759	0.000000	-1.000000	-1.000000	1198426.000000	1772739794.793772
-15988.095000	-19125.945000	-10602.720000	-3206.475000	-15341.760000	-10003.275000	-13048.155000	7324.245000	8.478767	16.254094	15.676349	10.691248	10.515022	9.164669	-1.955484	-27.458411	-5.096840	8.331960	-1.373400	0.889280	-0.083435	0.442931	-1.000000	-1.000000	-1.000000	-1.000000	-1.000000	-1.000000	-1.000000	58.482759	0.000000	-1.000000	-1.000000	1198427.000000	1772739794.793777
-16006.590000	-19107.270000	-10576.305000	-3177.900000	-15308.730000	-9980.145000	-13024.935000	7219.125000	4.952191	9.760147	11.734964	5.370403	4.755982	4.470356	-2.765810	-27.485001	-5.096840	8.331960	-1.373400	0.889280	-0.083435	0.442931	-1.000000	-1.000000	-1.000000	-1.000000	-1.000000	-1.000000	-1.000000	58.482759	0.000000	-1.000000	-1.000000	1198428.000000	1772739794.793780
-16016.085000	-19128.690000	-10600.830000	-3200.355000	-15324.345000	-9987.930000	-13020.930000	7292.565000	-4.275057	2.517149	8.357489	2.228033	1.173786	1.536438	-0.790396	-20.472262	-5.096840	8.331960	-1.373400	0.889280	-0.083435	0.442931	-1.000000	-1.000000	-1.000000	-1.000000	-1.000000	-1.000000	-1.000000	58.482759	0.000000	-1.000000	-1.000000	1198429.000000	1772739794.793784
-16029.315000	-19167.660000	-10634.985000	-3230.955000	-15354.855000	-10011.825000	-13045.140000	7398.180000	-13.928382	-5.886751	3.463033	-0.138644	-0.941616	0.035250	2.674031	-6.710646	-5.096840	8.331960	-1.373400	0.889280	-0.083435	0.442931	-1.000000	-1.000000	-1.000000	-1.000000	-1.000000	-1.000000	-1.000000	58.482759	0.000000	-1.000000	-1.000000	1198430.000000	1772739794.793787
-16038.675000	-19150.830000	-10617.390000	-3209.265000	-15333.210000	-9986.760000	-13045.005000	7345.935000	-18.115147	-16.261984	-6.225255	-6.102265	-5.987871	-4.134590	3.440268	13.556993	-0.625660	7.691040	-0.793520	0.885862	-0.089416	0.442260	-1.000000	-1.000000	-1.000000	-1.000000	-1.000000	-1.000000	-1.000000	58.482759	0.000000	-1.000000	-1.000000	1198431.000000	1772739794.793791
-15974.910000	-19092.870000	-10585.485000	-3182.355000	-15310.710000	-9959.895000	-13050.045000	7343.460000	-14.393447	-22.879851	-16.714244	-13.166651	-12.143350	-9.618610	1.528534	31.992667	-0.625660	7.691040	-0.793520	0.885862	-0.089416	0.442260	-1.000000	-1.000000	-1.000000	-1.000000	-1.000000	-1.000000	-1.000000	58.482759	0.000000	-1.000000	-1.000000	1198432.000000	1772739794.793794
-15997.050000	-19102.410000	-10595.295000	-3191.490000	-15319.665000	-9966.915000	-13046.445000	7315.020000	-3.336321	-17.338987	-19.125232	-13.823120	-12.691734	-10.487368	0.464043	37.654277	-0.625660	7.691040	-0.793520	0.885862	-0.089416	0.442260	-1.000000	-1.000000	-1.000000	-1.000000	-1.000000	-1.000000	-1.000000	58.482759	0.000000	-1.000000	-1.000000	1198433.000000	1772739794.793798
-16033.230000	-19132.830000	-10606.635000	-3197.115000	-15322.995000	-9971.460000	-13025.520000	7312.410000	9.164688	-1.709684	-11.343068	-6.733323	-6.405250	-5.498735	1.289105	26.977166	-0.625660	7.691040	-0.793520	0.885862	-0.089416	0.442260	-1.000000	-1.000000	-1.000000	-1.000000	-1.000000	-1.000000	-1.000000	58.482759	0.000000	-1.000000	-1.000000	1198434.000000	1772739794.793801
-16039.890000	-19162.890000	-10629.585000	-3220.740000	-15345.000000	-9994.995000	-13025.340000	7365.915000	14.464387	12.060778	0.232909	2.343733	1.844252	1.389838	2.633988	5.299563	-0.625660	7.691040	-0.793520	0.885862	-0.089416	0.442260	-1.000000	-1.000000	-1.000000	-1.000000	-1.000000	-1.000000	-1.000000	58.482759	0.000000	-1.000000	-1.000000	1198435.000000	1772739794.793806
-16024.140000	-19153.845000	-10628.595000	-3226.590000	-15353.415000	-10014.570000	-13022.415000	7372.125000	10.956692	15.629006	8.419263	7.739083	7.231592	6.124457	3.468108	-14.410247	-0.625660	7.691040	-0.793520	0.885862	-0.089416	0.442260	-1.000000	-1.000000	-1.000000	-1.000000	-1.000000	-1.000000	-1.000000	58.482759	0.000000	-1.000000	-1.000000	1198436.000000	1772739794.793809
-16005.555000	-19138.365000	-10616.715000	-3217.725000	-15345.495000	-10009.890000	-13016.970000	7359.390000	5.186508	10.671932	10.823483	8.152122	8.158085	7.017543	3.182173	-20.175233	-0.625660	7.691040	-0.793520	0.885862	-0.089416	0.442260	-1.000000	-1.000000	-1.000000	-1.000000	-1.000000	-1.000000	-1.000000	58.482759	0.000000	-1.000000	-1.000000	1198437.000000	1772739794.793813
-16015.905000	-19133.910000	-10607.580000	-3203.055000	-15330.015000	-9990.495000	-13014.495000	7350.075000	2.899767	3.960174	9.560210	6.082080	6.190000	5.028513	1.180406	-14.284972	-0.625660	7.691040	-0.793520	0.885862	-0.089416	0.442260	-1.000000	-1.000000	-1.000000	-1.000000	-1.000000	-1.000000	-1.000000	58.482759	0.000000	-1.000000	-1.000000	1198438.000000	1772739794.793816
-16013.970000	-19123.965000	-10603.890000	-3195.450000	-15323.130000	-9980.145000	-13029.570000	7321.230000	3.774914	0.276468	7.279924	4.296157	3.848954	2.425950	-2.235563	-9.543085	-0.625660	7.691040	-0.793520	0.885862	-0.089416	0.442260	-1.000000	-1.000000	-1.000000	-1.000000	-1.000000	-1.000000	-1.000000	58.482759	0.000000	-1.000000	-1.000000	1198439.000000	1772739794.793996
-16009.020000	-19096.290000	-10579.095000	-3167.505000	-15296.805000	-9953.100000	-13047.840000	7271.640000	3.879238	-0.154696	4.527008	3.259981	2.240796	0.637761	-5.654220	-12.015564	-0.625660	7.691040	-0.793520	0.885862	-0.089416	0.442260	-1.000000	-1.000000	-1.000000	-1.000000	-1.000000	-1.000000	-1.000000	58.482759	0.000000	-1.000000	-1.000000	1198440.000000	1772739794.794004
-15980.805000	-19074.915000	-10563.570000	-3155.805000	-15285.195000	-9941.130000	-13043.340000	7295.175000	0.580406	0.438010	1.137457	2.186141	1.209414	-0.214792	-7.462160	-15.710969	-1.098720	4.303320	0.106820	0.877317	-0.087951	0.444030	-1.000000	-1.000000	-1.000000	-1.000000	-1.000000	-1.000000	-1.000000	58.482759	0.000000	-1.000000	-1.000000	1198441.000000	1772739794.801379
-16018.335000	-19112.220000	-10584.945000	-3182.265000	-15309.405000	-9961.650000	-13027.230000	7349.760000	-4.874124	0.011870	-2.338311	0.302829	0.031973	-0.783290	-6.604569	-11.091229	-1.098720	4.303320	0.106820	0.877317	-0.087951	0.444030	-1.000000	-1.000000	-1.000000	-1.000000	-1.000000	-1.000000	-1.000000	58.482759	0.000000	-1.000000	-1.000000	1198442.000000	1772739794.801390
-16037.865000	-19134.855000	-10606.455000	-3199.320000	-15319.395000	-9965.925000	-13005.765000	7344.855000	-9.463218	-2.358294	-5.466595	-3.058155	-2.272401	-1.861083	-3.087175	3.910842	-1.098720	4.303320	0.106820	0.877317	-0.087951	0.444030	-1.000000	-1.000000	-1.000000	-1.000000	-1.000000	-1.000000	-1.000000	58.482759	0.000000	-1.000000	-1.000000	1198443.000000	1772739794.801607
-15992.145000	-19120.995000	-10608.930000	-3203.955000	-15327.990000	-9985.770000	-13008.645000	7328.385000	-10.624935	-5.472075	-7.792286	-7.015062	-5.224210	-3.105519	1.959775	19.735362	-1.098720	4.303320	0.106820	0.877317	-0.087951	0.444030	-1.000000	-1.000000	-1.000000	-1.000000	-1.000000	-1.000000	-1.000000	58.482759	0.000000	-1.000000	-1.000000	1198444.000000	1772739794.801611
-15999.345000	-19140.075000	-10616.445000	-3212.910000	-15337.980000	-10002.015000	-13013.460000	7332.210000	-6.835650	-6.978116	-8.362675	-9.096758	-6.927871	-3.558059	6.243673	25.556443	-1.098720	4.303320	0.106820	0.877317	-0.087951	0.444030	-1.000000	-1.000000	-1.000000	-1.000000	-1.000000	-1.000000	-1.000000	58.482759	0.000000	-1.000000	-1.000000	1198445.000000	1772739794.840671
-15990.390000	-19130.805000	-10601.100000	-3207.105000	-15332.130000	-9991.890000	-13009.410000	7338.915000	0.160968	-6.328808	-6.658615	-7.952975	-6.487643	-3.287090	7.188991	19.744556	-1.098720	4.303320	0.106820	0.877317	-0.087951	0.444030	-1.000000	-1.000000	-1.000000	-1.000000	-1.000000	-1.000000	-1.000000	58.482759	0.000000	-1.000000	-1.000000	1198446.000000	1772739794.840681
-15983.280000	-19111.185000	-10580.040000	-3202.650000	-15324.795000	-9981.720000	-13017.465000	7336.080000	6.382857	-3.954886	-2.687591	-4.266826	-4.308247	-2.734389	4.296982	7.194125	-1.098720	4.303320	0.106820	0.877317	-0.087951	0.444030	-1.000000	-1.000000	-1.000000	-1.000000	-1.000000	-1.000000	-1.000000	58.482759	0.000000	-1.000000	-1.000000	1198447.000000	1772739794.840692
-15987.150000	-19115.370000	-10585.665000	-3208.500000	-15327.630000	-9978.165000	-13027.545000	7331.985000	9.085758	-0.184548	2.535686	0.059182	-1.321063	-1.941762	-0.188671	-5.325608	-1.098720	4.303320	0.106820	0.877317	-0.087951	0.444030	-1.000000	-1.000000	-1.000000	-1.000000	-1.000000	-1.000000	-1.000000	58.482759	0.000000	-1.000000	-1.000000	1198448.000000	1772739794.840696
-15986.970000	-19102.725000	-10589.895000	-3164.760000	-15283.755000	-9929.340000	-13002.840000	7341.300000	6.910482	3.035256	5.912378	3.219848	1.519463	-0.664963	-2.985376	-11.436897	-1.098720	4.303320	0.106820	0.877317	-0.087951	0.444030	-1.000000	-1.000000	-1.000000	-1.000000	-1.000000	-1.000000	-1.000000	58.482759	0.000000	-1.000000	-1.000000	1198449.000000	1772739794.840700
-15994.890000	-19106.505000	-10574.550000	-3148.740000	-15279.615000	-9933.480000	-13019.940000	7302.735000	0.449836	3.776188	5.192704	5.550224	4.363432	1.813886	-2.544924	-10.325635	-1.098720	4.303320	0.106820	0.877317	-0.087951	0.444030	-1.000000	-1.000000	-1.000000	-1.000000	-1.000000	-1.000000	-1.000000	58.482759	0.000000	-1.000000	-1.000000	1198450.000000	1772739794.840704
-15988.230000	-19114.200000	-10582.065000	-3178.260000	-15313.365000	-9967.905000	-13025.070000	7326.225000	-6.017965	3.179030	2.428591	8.056984	7.114388	4.905285	-1.112715	-7.508511	-6.500760	3.891300	0.366240	0.881040	-0.081970	0.445739	-1.000000	-1.000000	-1.000000	-1.000000	-1.000000	-1.000000	-1.000000	58.482759	0.000000	-1.000000	-1.000000	1198451.000000	1772739794.840708
-15986.070000	-19106.325000	-10576.035000	-3173.580000	-15308.595000	-9973.170000	-13017.150000	7345.305000	-7.563887	3.684720	1.274669	9.439087	7.916152	6.043815	-1.682254	-6.545384	-6.500760	3.891300	0.366240	0.881040	-0.081970	0.445739	-1.000000	-1.000000	-1.000000	-1.000000	-1.000000	-1.000000	-1.000000	58.482759	0.000000	-1.000000	-1.000000	1198452.000000	1772739794.840712
-16000.110000	-19111.590000	-10591.470000	-3186.405000	-15313.410000	-9985.320000	-13023.810000	7337.745000	-4.378851	5.325173	2.382927	7.713025	5.747893	4.203298	-3.621649	-5.138534	-6.500760	3.891300	0.366240	0.881040	-0.081970	0.445739	-1.000000	-1.000000	-1.000000	-1.000000	-1.000000	-1.000000	-1.000000	58.482759	0.000000	-1.000000	-1.000000	1198453.000000	1772739794.840716
-15993.000000	-19120.770000	-10605.735000	-3205.350000	-15335.190000	-10003.500000	-13012.245000	7364.430000	-0.718354	5.635107	3.031488	2.483810	1.485459	0.759376	-4.149132	-0.810608	-6.500760	3.891300	0.366240	0.881040	-0.081970	0.445739	-1.000000	-1.000000	-1.000000	-1.000000	-1.000000	-1.000000	-1.000000	58.482759	0.000000	-1.000000	-1.000000	1198454.000000	1772739794.840720
-16007.310000	-19122.795000	-10594.440000	-3189.195000	-15317.190000	-9980.190000	-13003.920000	7366.680000	0.833776	2.617848	0.646089	-4.741336	-3.580662	-2.834347	-1.787170	5.089828	-6.500760	3.891300	0.366240	0.881040	-0.081970	0.445739	-1.000000	-1.000000	-1.000000	-1.000000	-1.000000	-1.000000	-1.000000	58.482759	0.000000	-1.000000	-1.000000	1198455.000000	1772739794.840724
-16022.475000	-19144.800000	-10612.980000	-3199.230000	-15322.635000	-9979.065000	-13018.545000	7337.070000	0.337770	-3.426513	-4.253501	-10.630662	-7.517927	-5.164472	2.649388	8.869692	-6.500760	3.891300	0.366240	0.881040	-0.081970	0.445739	-1.000000	-1.000000	-1.000000	-1.000000	-1.000000	-1.000000	-1.000000	58.482759	0.000000	-1.000000	-1.000000	1198456.000000	1772739794.840727
-16011.630000	-19141.155000	-10651.320000	-3203.505000	-15317.730000	-9964.575000	-13015.665000	7341.390000	-1.077224	-10.080132	-9.341906	-12.580244	-8.682182	-5.308540	6.566539	7.945697	-6.500760	3.891300	0.366240	0.881040	-0.081970	0.445739	-1.000000	-1.000000	-1.000000	-1.000000	-1.000000	-1.000000	-1.000000	58.482759	0.000000	-1.000000	-1.000000	1198457.000000	1772739794.840732
-15993.540000	-19092.735000	-10608.390000	-3154.590000	-15266.385000	-9920.025000	-13009.230000	7279.560000	-1.348214	-13.111744	-11.941076	-10.390130	-6.810844	-3.490928	7.479730	2.548328	-6.500760	3.891300	0.366240	0.881040	-0.081970	0.445739	-1.000000	-1.000000	-1.000000	-1.000000	-1.000000	-1.000000	-1.000000	58.482759	0.000000	-1.000000	-1.000000	1198458.000000	1772739794.840735
-15984.990000	-19056.645000	-10521.315000	-3105.360000	-15228.990000	-9893.655000	-13011.795000	7133.130000	1.391702	-8.041381	-7.763042	-3.654898	-1.178472	0.742879	5.026448	-7.199612	-6.500760	3.891300	0.366240	0.881040	-0.081970	0.445739	-1.000000	-1.000000	-1.000000	-1.000000	-1.000000	-1.000000	-1.000000	58.482759	0.000000	-1.000000	-1.000000	1198459.000000	1772739794.840739
-15993.045000	-19111.050000	-10552.680000	-3182.670000	-15317.595000	-9979.560000	-13031.280000	7282.260000	6.298121	4.156026	5.049648	6.651170	7.051725	6.531578	0.463821	-18.944727	-6.500760	3.891300	0.366240	0.881040	-0.081970	0.445739	-1.000000	-1.000000	-1.000000	-1.000000	-1.000000	-1.000000	-1.000000	58.482759	0.000000	-1.000000	-1.000000	1198460.000000	1772739794.840742
-15994.620000	-19167.255000	-10619.415000	-3232.170000	-15361.290000	-10024.515000	-13007.655000	7427.520000	9.515274	13.843033	18.415088	13.427526	10.843929	8.255477	-4.358185	-20.265274	-6.760180	5.295220	-0.015260	0.889646	-0.082824	0.447203	-1.000000	-1.000000	-1.000000	-1.000000	-1.000000	-1.000000	-1.000000	58.482759	0.000000	-1.000000	-1.000000	1198461.000000	1772739794.846557
-16072.605000	-19161.585000	-10601.010000	-3198.735000	-15322.365000	-9988.605000	-13000.365000	7348.860000	6.943602	12.066626	20.603101	10.473943	5.409944	2.595957	-6.730840	-1.575575	-6.760180	5.295220	-0.015260	0.889646	-0.082824	0.447203	-1.000000	-1.000000	-1.000000	-1.000000	-1.000000	-1.000000	-1.000000	58.482759	0.000000	-1.000000	-1.000000	1198462.000000	1772739794.846568
-16095.015000	-19149.030000	-10597.860000	-3199.590000	-15325.515000	-9987.975000	-13016.655000	7363.350000	-2.578534	1.410577	10.246786	1.694445	-3.633490	-5.027946	-5.374139	24.381476	-6.760180	5.295220	-0.015260	0.889646	-0.082824	0.447203	-1.000000	-1.000000	-1.000000	-1.000000	-1.000000	-1.000000	-1.000000	58.482759	0.000000	-1.000000	-1.000000	1198463.000000	1772739794.846580
-15990.165000	-19121.175000	-10597.230000	-3206.070000	-15336.540000	-9996.840000	-13017.240000	7413.120000	-12.891881	-7.758584	-4.232086	-5.152475	-8.451857	-8.260450	-2.275631	36.955148	-6.760180	5.295220	-0.015260	0.889646	-0.082824	0.447203	-1.000000	-1.000000	-1.000000	-1.000000	-1.000000	-1.000000	-1.000000	58.482759	0.000000	-1.000000	-1.000000	1198464.000000	1772739794.846584
-15927.615000	-19096.830000	-10581.165000	-3187.800000	-15319.845000	-9975.330000	-13028.535000	7366.770000	-12.251273	-7.923776	-13.854659	-6.722849	-7.303284	-6.521104	0.305520	30.149165	-6.760180	5.295220	-0.015260	0.889646	-0.082824	0.447203	-1.000000	-1.000000	-1.000000	-1.000000	-1.000000	-1.000000	-1.000000	58.482759	0.000000	-1.000000	-1.000000	1198465.000000	1772739794.848960
-15954.255000	-19079.820000	-10566.090000	-3172.635000	-15305.805000	-9960.120000	-13041.405000	7313.670000	2.143933	0.085767	-13.817651	-3.692591	-2.496746	-2.235078	1.448422	9.490838	-6.760180	5.295220	-0.015260	0.889646	-0.082824	0.447203	-1.000000	-1.000000	-1.000000	-1.000000	-1.000000	-1.000000	-1.000000	58.482759	0.000000	-1.000000	-1.000000	1198466.000000	1772739794.848970
-15971.490000	-19118.520000	-10592.235000	-3193.515000	-15324.930000	-9981.675000	-13049.820000	7289.595000	17.518092	7.919411	-6.955544	0.095913	1.850302	1.322042	0.722507	-14.896951	-6.760180	5.295220	-0.015260	0.889646	-0.082824	0.447203	-1.000000	-1.000000	-1.000000	-1.000000	-1.000000	-1.000000	-1.000000	58.482759	0.000000	-1.000000	-1.000000	1198467.000000	1772739794.859891
-15971.040000	-19132.740000	-10602.090000	-3196.845000	-15318.990000	-9972.405000	-13015.035000	7321.410000	19.999822	7.310867	-1.919497	0.495498	2.706017	2.173992	-0.505698	-30.010621	-6.760180	5.295220	-0.015260	0.889646	-0.082824	0.447203	-1.000000	-1.000000	-1.000000	-1.000000	-1.000000	-1.000000	-1.000000	58.482759	0.000000	-1.000000	-1.000000	1198468.000000	1772739794.859902
-16033.680000	-19132.290000	-10598.895000	-3196.530000	-15317.775000	-9980.730000	-13016.250000	7305.570000	7.569999	-0.654300	-2.253829	-0.919936	2.592161	2.947825	0.551205	-30.912787	-6.760180	5.295220	-0.015260	0.889646	-0.082824	0.447203	-1.000000	-1.000000	-1.000000	-1.000000	-1.000000	-1.000000	-1.000000	58.482759	0.000000	-1.000000	-1.000000	1198469.000000	1772739794.871089
-15996.195000	-19123.740000	-10602.540000	-3205.755000	-15330.690000	-9999.855000	-13024.080000	7327.530000	-11.071601	-7.032305	-2.618489	0.684707	5.413941	6.539880	3.688650	-24.508175	-6.760180	5.295220	-0.015260	0.889646	-0.082824	0.447203	-1.000000	-1.000000	-1.000000	-1.000000	-1.000000	-1.000000	-1.000000	58.482759	0.000000	-1.000000	-1.000000	1198470.000000	1772739794.871100
-15966.135000	-19120.410000	-10601.370000	-3204.900000	-15329.610000	-9992.115000	-13008.555000	7342.380000	-21.953857	-6.062659	1.315549	5.001866	8.960333	9.939087	5.576478	-15.364340	-0.671440	5.447820	0.564620	0.888731	-0.091736	0.444518	-1.000000	-1.000000	-1.000000	-1.000000	-1.000000	-1.000000	-1.000000	58.482759	0.000000	-1.000000	-1.000000	1198471.000000	1772739794.871110
-15988.500000	-19132.560000	-10606.005000	-3204.855000	-15327.495000	-9984.330000	-13005.765000	7321.545000	-17.117039	-0.594477	6.917447	7.308609	8.256585	8.491306	4.773431	-2.529401	-0.671440	5.447820	0.564620	0.888731	-0.091736	0.444518	-1.000000	-1.000000	-1.000000	-1.000000	-1.000000	-1.000000	-1.000000	58.482759	0.000000	-1.000000	-1.000000	1198472.000000	1772739794.871115
-16015.455000	-19138.770000	-10602.945000	-3195.630000	-15316.830000	-9967.140000	-13019.670000	7306.650000	-4.607890	2.802038	9.527933	5.301338	2.802319	2.474952	2.433001	10.731830	-0.671440	5.447820	0.564620	0.888731	-0.091736	0.444518	-1.000000	-1.000000	-1.000000	-1.000000	-1.000000	-1.000000	-1.000000	58.482759	0.000000	-1.000000	-1.000000	1198473.000000	1772739794.871120
-15990.120000	-19125.225000	-10601.640000	-3196.080000	-15318.540000	-9961.965000	-13016.790000	7365.105000	2.055424	0.988550	7.578089	0.410642	-4.104405	-4.460143	-0.325568	19.997935	-0.671440	5.447820	0.564620	0.888731	-0.091736	0.444518	-1.000000	-1.000000	-1.000000	-1.000000	-1.000000	-1.000000	-1.000000	58.482759	0.000000	-1.000000	-1.000000	1198474.000000	1772739794.871124
-15985.710000	-19118.205000	-10597.365000	-3195.405000	-15318.990000	-9965.835000	-13001.760000	7373.205000	0.931634	-3.508844	2.587714	-5.053217	-9.599683	-9.598460	-2.421016	26.358490	-0.671440	5.447820	0.564620	0.888731	-0.091736	0.444518	-1.000000	-1.000000	-1.000000	-1.000000	-1.000000	-1.000000	-1.000000	58.482759	0.000000	-1.000000	-1.000000	1198475.000000	1772739794.871128
-16004.475000	-19125.000000	-10594.350000	-3190.005000	-15313.185000	-9966.015000	-13010.040000	7336.035000	-0.796249	-5.727412	-2.675789	-8.735206	-11.849415	-11.559857	-2.977811	30.070988	-0.671440	5.447820	0.564620	0.888731	-0.091736	0.444518	-1.000000	-1.000000	-1.000000	-1.000000	-1.000000	-1.000000	-1.000000	58.482759	0.000000	-1.000000	-1.000000	1198476.000000	1772739794.871132
-16004.925000	-19121.445000	-10590.840000	-3189.330000	-15313.815000	-9976.905000	-13019.625000	7315.785000	1.301361	-2.819426	-5.453440	-8.144569	-9.292636	-9.355404	-3.056223	24.712274	-0.671440	5.447820	0.564620	0.888731	-0.091736	0.444518	-1.000000	-1.000000	-1.000000	-1.000000	-1.000000	-1.000000	-1.000000	58.482759	0.000000	-1.000000	-1.000000	1198477.000000	1772739794.871136
-15997.365000	-19106.415000	-10582.920000	-3187.755000	-15314.670000	-9986.400000	-13004.910000	7334.280000	6.666381	4.046125	-4.185526	-2.674244	-2.217722	-3.361294	-4.015026	5.768254	-0.671440	5.447820	0.564620	0.888731	-0.091736	0.444518	-1.000000	-1.000000	-1.000000	-1.000000	-1.000000	-1.000000	-1.000000	58.482759	0.000000	-1.000000	-1.000000	1198478.000000	1772739794.871139
-16017.120000	-19136.295000	-10608.570000	-3211.830000	-15336.540000	-10001.970000	-13009.140000	7339.410000	11.861920	10.325041	-0.199075	4.421219	5.699403	3.586379	-4.835354	-19.135462	-0.671440	5.447820	0.564620	0.888731	-0.091736	0.444518	-1.000000	-1.000000	-1.000000	-1.000000	-1.000000	-1.000000	-1.000000	58.482759	0.000000	-1.000000	-1.000000	1198479.000000	1772739794.873920
-16012.620000	-19148.085000	-10614.240000	-3212.460000	-15334.515000	-9991.890000	-13003.875000	7381.035000	12.304870	10.677577	2.534129	7.956422	9.488979	7.583399	-3.971517	-35.116367	-0.671440	5.447820	0.564620	0.888731	-0.091736	0.444518	-1.000000	-1.000000	-1.000000	-1.000000	-1.000000	-1.000000	-1.000000	58.482759	0.000000	-1.000000	-1.000000	1198480.000000	1772739794.873926
-16006.320000	-19136.835000	-10606.365000	-3201.435000	-15326.820000	-9984.735000	-13015.350000	7360.560000	6.797634	4.047440	1.586788	5.858935	7.411144	6.976021	-1.521599	-33.105592	-1.449700	3.876040	1.648080	0.885496	-0.095703	0.445494	-1.000000	-1.000000	-1.000000	-1.000000	-1.000000	-1.000000	-1.000000	58.482759	0.000000	-1.000000	-1.000000	1198481.000000	1772739794.877523
-16022.655000	-19134.000000	-10606.905000	-3195.180000	-15316.380000	-9969.030000	-13034.700000	7309.755000	-1.498359	-4.772257	-1.438906	0.756293	2.123974	3.359524	1.255884	-17.098750	-1.449700	3.876040	1.648080	0.885496	-0.095703	0.445494	-1.000000	-1.000000	-1.000000	-1.000000	-1.000000	-1.000000	-1.000000	58.482759	0.000000	-1.000000	-1.000000	1198482.000000	1772739794.877534
-16015.995000	-19114.335000	-10586.295000	-3176.685000	-15296.490000	-9950.580000	-13024.980000	7305.480000	-8.881432	-10.161015	-3.488679	-3.390733	-2.349853	-0.334887	2.957145	0.189169	-1.449700	3.876040	1.648080	0.885496	-0.095703	0.445494	-1.000000	-1.000000	-1.000000	-1.000000	-1.000000	-1.000000	-1.000000	58.482759	0.000000	-1.000000	-1.000000	1198483.000000	1772739794.884161
-15985.935000	-19104.570000	-10582.200000	-3187.305000	-15312.375000	-9967.095000	-13010.625000	7324.110000	-12.005648	-9.535837	-2.843325	-4.441555	-3.745042	-1.972164	3.390059	10.249421	-1.449700	3.876040	1.648080	0.885496	-0.095703	0.445494	-1.000000	-1.000000	-1.000000	-1.000000	-1.000000	-1.000000	-1.000000	58.482759	0.000000	-1.000000	-1.000000	1198484.000000	1772739794.884169
-15971.895000	-19097.820000	-10575.315000	-3178.980000	-15303.915000	-9964.080000	-13001.490000	7330.545000	-8.105928	-3.501138	0.056485	-2.797012	-2.609733	-1.495324	3.691669	14.322613	-1.449700	3.876040	1.648080	0.885496	-0.095703	0.445494	-1.000000	-1.000000	-1.000000	-1.000000	-1.000000	-1.000000	-1.000000	58.482759	0.000000	-1.000000	-1.000000	1198485.000000	1772739794.891435
-15988.410000	-19104.570000	-10577.790000	-3174.480000	-15298.740000	-9969.255000	-12997.620000	7333.785000	1.278502	4.309603	3.198828	0.048199	-0.472686	0.066444	4.429998	15.626821	-1.449700	3.876040	1.648080	0.885496	-0.095703	0.445494	-1.000000	-1.000000	-1.000000	-1.000000	-1.000000	-1.000000	-1.000000	58.482759	0.000000	-1.000000	-1.000000	1198486.000000	1772739794.891443
-15999.480000	-19105.290000	-10579.275000	-3171.915000	-15295.635000	-9966.465000	-13002.165000	7307.055000	9.498374	8.975297	4.623544	2.907484	1.871831	1.985802	4.520936	13.403525	-1.449700	3.876040	1.648080	0.885496	-0.095703	0.445494	-1.000000	-1.000000	-1.000000	-1.000000	-1.000000	-1.000000	-1.000000	58.482759	0.000000	-1.000000	-1.000000	1198487.000000	1772739794.891552
-16002.045000	-19114.740000	-10588.095000	-3182.850000	-15306.615000	-9972.630000	-13013.100000	7334.145000	10.681052	8.137768	3.739436	4.670892	3.606645	3.297690	2.424460	6.351196	-1.449700	3.876040	1.648080	0.885496	-0.095703	0.445494	-1.000000	-1.000000	-1.000000	-1.000000	-1.000000	-1.000000	-1.000000	58.482759	0.000000	-1.000000	-1.000000	1198488.000000	1772739794.891560
-16007.220000	-19114.875000	-10579.095000	-3179.745000	-15305.265000	-9968.670000	-13010.895000	7341.930000	4.683057	3.268697	1.339248	4.157814	3.398013	2.590322	-1.764956	-2.810455	-1.449700	3.876040	1.648080	0.885496	-0.095703	0.445494	-1.000000	-1.000000	-1.000000	-1.000000	-1.000000	-1.000000	-1.000000	58.482759	0.000000	-1.000000	-1.000000	1198489.000000	1772739794.894893
-16020.495000	-19118.295000	-10576.980000	-3184.830000	-15307.155000	-9960.075000	-13016.970000	7340.445000	-4.297376	-2.719873	-1.302887	0.941852	0.573313	-0.536272	-5.581157	-8.438551	-1.449700	3.876040	1.648080	0.885496	-0.095703	0.445494	-1.000000	-1.000000	-1.000000	-1.000000	-1.000000	-1.000000	-1.000000	58.482759	0.000000	-1.000000	-1.000000	1198490.000000	1772739794.894901
-16016.040000	-19113.255000	-10572.615000	-3193.695000	-15312.105000	-9960.345000	-13018.995000	7309.710000	-11.211740	-7.465699	-3.268208	-4.051151	-3.972795	-4.730755	-6.327188	-7.393143	-4.776380	4.684820	0.564620	0.886900	-0.089599	0.446471	-1.000000	-1.000000	-1.000000	-1.000000	-1.000000	-1.000000	-1.000000	58.482759	0.000000	-1.000000	-1.000000	1198491.000000	1772739794.900509
-16017.165000	-19108.395000	-10592.640000	-3200.670000	-15318.180000	-9968.805000	-13014.045000	7312.185000	-12.697798	-9.467746	-4.625244	-8.779819	-8.158074	-7.939643	-3.928888	-2.322778	-4.776380	4.684820	0.564620	0.886900	-0.089599	0.446471	-1.000000	-1.000000	-1.000000	-1.000000	-1.000000	-1.000000	-1.000000	58.482759	0.000000	-1.000000	-1.000000	1198492.000000	1772739794.900518
-16045.380000	-19139.130000	-10628.055000	-3196.530000	-15319.530000	-9976.680000	-13011.795000	7301.745000	-9.202697	-8.457186	-6.353736	-10.564652	-9.479669	-8.376817	-0.635323	1.695189	-4.776380	4.684820	0.564620	0.886900	-0.089599	0.446471	-1.000000	-1.000000	-1.000000	-1.000000	-1.000000	-1.000000	-1.000000	58.482759	0.000000	-1.000000	-1.000000	1198493.000000	1772739794.901252
-16040.475000	-19166.715000	-10619.595000	-3203.865000	-15332.850000	-10000.890000	-13011.255000	7312.815000	-3.830891	-5.881577	-8.384475	-7.671721	-6.695744	-5.569247	1.492285	2.117795	-4.776380	4.684820	0.564620	0.886900	-0.089599	0.446471	-1.000000	-1.000000	-1.000000	-1.000000	-1.000000	-1.000000	-1.000000	58.482759	0.000000	-1.000000	-1.000000	1198494.000000	1772739794.901259
-15989.130000	-19152.135000	-10622.070000	-3219.705000	-15348.240000	-10019.205000	-13012.785000	7390.755000	2.365064	-3.092586	-8.176378	-1.432893	-1.412827	-1.160114	1.893778	1.033568	-4.776380	4.684820	0.564620	0.886900	-0.089599	0.446471	-1.000000	-1.000000	-1.000000	-1.000000	-1.000000	-1.000000	-1.000000	58.482759	0.000000	-1.000000	-1.000000	1198495.000000	1772739794.907387
-15983.325000	-19125.090000	-10601.730000	-3198.690000	-15325.695000	-9992.655000	-13006.035000	7353.495000	10.415534	1.038892	-3.107280	5.053478	3.834596	3.000713	1.378157	2.224365	-4.776380	4.684820	0.564620	0.886900	-0.089599	0.446471	-1.000000	-1.000000	-1.000000	-1.000000	-1.000000	-1.000000	-1.000000	58.482759	0.000000	-1.000000	-1.000000	1198496.000000	1772739794.907406
-15989.580000	-19116.495000	-10593.495000	-3190.590000	-15316.830000	-9978.390000	-13015.260000	7326.180000	17.929892	7.916941	6.201902	10.041982	8.270018	6.838006	1.122710	3.865652	-4.776380	4.684820	0.564620	0.886900	-0.089599	0.446471	-1.000000	-1.000000	-1.000000	-1.000000	-1.000000	-1.000000	-1.000000	58.482759	0.000000	-1.000000	-1.000000	1198497.000000	1772739794.910478
-16003.305000	-19125.720000	-10599.255000	-3193.020000	-15318.180000	-9972.450000	-13032.135000	7323.120000	19.123545	14.991415	15.135328	12.578879	11.385355	10.152286	1.157804	0.750044	-4.776380	4.684820	0.564620	0.886900	-0.089599	0.446471	-1.000000	-1.000000	-1.000000	-1.000000	-1.000000	-1.000000	-1.000000	58.482759	0.000000	-1.000000	-1.000000	1198498.000000	1772739794.910485
-16004.205000	-19121.355000	-10591.605000	-3180.465000	-15303.060000	-9950.445000	-13012.380000	7349.805000	11.363459	16.987058	18.017567	11.413911	11.527713	11.141666	0.988670	-5.542224	-4.776380	4.684820	0.564620	0.886900	-0.089599	0.446471	-1.000000	-1.000000	-1.000000	-1.000000	-1.000000	-1.000000	-1.000000	58.482759	0.000000	-1.000000	-1.000000	1198499.000000	1772739794.939797
-15987.240000	-19100.745000	-10571.805000	-3161.160000	-15284.070000	-9935.370000	-12983.265000	7375.500000	-1.597071	11.582272	13.199069	6.973815	8.246993	8.795076	1.447649	-7.558353	-4.776380	4.684820	0.564620	0.886900	-0.089599	0.446471	-1.000000	-1.000000	-1.000000	-1.000000	-1.000000	-1.000000	-1.000000	58.482759	0.000000	-1.000000	-1.000000	1198500.000000	1772739794.939808
-15966.405000	-19077.480000	-10548.495000	-3142.755000	-15269.265000	-9927.855000	-12979.800000	7337.520000	-12.441666	2.124556	4.753257	1.837553	3.462448	4.402654	3.243779	-2.487486	-8.316700	5.798800	-0.213640	0.888059	-0.085022	0.445250	-1.000000	-1.000000	-1.000000	-1.000000	-1.000000	-1.000000	-1.000000	58.620690	0.000000	-1.000000	-1.000000	1198501.000000	1772739794.941508
-15979.545000	-19110.510000	-10593.630000	-3186.765000	-15312.780000	-9979.470000	-13028.805000	7281.945000	-15.678201	-5.777678	-2.302197	-2.472247	-1.276344	-0.690310	4.084283	3.475907	-8.316700	5.798800	-0.213640	0.888059	-0.085022	0.445250	-1.000000	-1.000000	-1.000000	-1.000000	-1.000000	-1.000000	-1.000000	58.620690	0.000000	-1.000000	-1.000000	1198502.000000	1772739794.941517
-15991.020000	-19134.495000	-10662.615000	-3226.995000	-15345.270000	-10017.585000	-13039.380000	7294.185000	-11.997857	-9.839395	-8.125210	-7.313821	-6.667891	-6.749180	0.494810	2.533827	-8.316700	5.798800	-0.213640	0.888059	-0.085022	0.445250	-1.000000	-1.000000	-1.000000	-1.000000	-1.000000	-1.000000	-1.000000	58.620690	0.000000	-1.000000	-1.000000	1198503.000000	1772739794.941527
-16026.255000	-19143.495000	-10678.590000	-3239.550000	-15354.495000	-10020.825000	-13021.245000	7326.360000	-7.323156	-11.772392	-15.534278	-13.414548	-12.813596	-13.204331	-6.527219	-4.881021	-8.316700	5.798800	-0.213640	0.888059	-0.085022	0.445250	-1.000000	-1.000000	-1.000000	-1.000000	-1.000000	-1.000000	-1.000000	58.620690	0.000000	-1.000000	-1.000000	1198504.000000	1772739794.941530
-16071.930000	-19144.845000	-10611.135000	-3205.620000	-15331.140000	-9992.790000	-13019.085000	7315.200000	-6.715366	-13.044352	-21.516963	-17.353887	-16.600603	-16.682727	-11.124892	-10.425145	-8.316700	5.798800	-0.213640	0.888059	-0.085022	0.445250	-1.000000	-1.000000	-1.000000	-1.000000	-1.000000	-1.000000	-1.000000	58.620690	0.000000	-1.000000	-1.000000	1198505.000000	1772739794.941535
-16062.570000	-19123.560000	-10551.870000	-3182.625000	-15311.655000	-9964.755000	-13015.890000	7316.370000	-9.170024	-12.210638	-17.649930	-14.083745	-13.979136	-13.428132	-8.900636	-7.564520	-8.316700	5.798800	-0.213640	0.888059	-0.085022	0.445250	-1.000000	-1.000000	-1.000000	-1.000000	-1.000000	-1.000000	-1.000000	58.620690	0.000000	-1.000000	-1.000000	1198506.000000	1772739794.941538
-15994.260000	-19109.925000	-10566.765000	-3173.670000	-15300.225000	-9947.385000	-13011.750000	7297.020000	-7.798516	-6.699462	-1.424483	-2.763706	-4.296341	-3.291039	-0.845589	1.891109	-8.316700	5.798800	-0.213640	0.888059	-0.085022	0.445250	-1.000000	-1.000000	-1.000000	-1.000000	-1.000000	-1.000000	-1.000000	58.620690	0.000000	-1.000000	-1.000000	1198507.000000	1772739794.942116
-15982.560000	-19139.130000	-10586.520000	-3181.095000	-15306.345000	-9955.935000	-13017.105000	7310.385000	2.807715	2.471068	17.268648	10.779825	7.732429	8.591532	7.745058	10.722841	-8.316700	5.798800	-0.213640	0.888059	-0.085022	0.445250	-1.000000	-1.000000	-1.000000	-1.000000	-1.000000	-1.000000	-1.000000	58.620690	0.000000	-1.000000	-1.000000	1198508.000000	1772739794.942123
-16015.455000	-19148.580000	-10576.890000	-3163.185000	-15284.565000	-9938.880000	-12999.105000	7321.635000	17.732665	9.387124	25.073873	18.454223	15.304196	15.363675	11.166461	13.677701	-8.316700	5.798800	-0.213640	0.888059	-0.085022	0.445250	-1.000000	-1.000000	-1.000000	-1.000000	-1.000000	-1.000000	-1.000000	58.620690	0.000000	-1.000000	-1.000000	1198509.000000	1772739794.942130
-16004.610000	-19119.735000	-10575.360000	-3169.980000	-15293.205000	-9951.255000	-12982.320000	7342.785000	25.354244	10.053337	18.263237	16.773190	15.309222	14.447989	8.535672	11.822405	-8.316700	5.798800	-0.213640	0.888059	-0.085022	0.445250	-1.000000	-1.000000	-1.000000	-1.000000	-1.000000	-1.000000	-1.000000	58.620690	0.000000	-1.000000	-1.000000	1198510.000000	1772739794.942133
-15974.730000	-19137.240000	-10626.930000	-3234.015000	-15360.120000	-10024.830000	-13010.040000	7312.635000	20.776615	7.393321	3.847007	8.132298	9.188748	8.005569	3.836484	8.895481	-2.960440	4.867940	-2.487380	0.881162	-0.092834	0.443419	-1.000000	-1.000000	-1.000000	-1.000000	-1.000000	-1.000000	-1.000000	58.620690	0.000000	-1.000000	-1.000000	1198511.000000	1772739794.942138
-15978.645000	-19141.605000	-10628.055000	-3236.355000	-15361.965000	-10027.980000	-13011.030000	7357.860000	9.163910	5.689780	-8.656645	-2.638466	0.074835	-0.669896	-0.012241	5.193959	-2.960440	4.867940	-2.487380	0.881162	-0.092834	0.443419	-1.000000	-1.000000	-1.000000	-1.000000	-1.000000	-1.000000	-1.000000	58.620690	0.000000	-1.000000	-1.000000	1198512.000000	1772739794.942141
-15988.320000	-19123.560000	-10602.180000	-3206.070000	-15330.015000	-9991.170000	-13005.855000	7394.310000	-2.210240	5.268572	-13.535929	-10.272263	-7.657197	-7.738981	-3.172877	-0.076021	-2.960440	4.867940	-2.487380	0.881162	-0.092834	0.443419	-1.000000	-1.000000	-1.000000	-1.000000	-1.000000	-1.000000	-1.000000	58.620690	0.000000	-1.000000	-1.000000	1198513.000000	1772739794.942145
-15996.330000	-19101.870000	-10586.790000	-3190.905000	-15316.695000	-9975.915000	-13016.520000	7330.140000	-9.238744	4.698799	-11.267674	-11.280810	-9.848469	-9.653902	-5.861157	-5.495037	-2.960440	4.867940	-2.487380	0.881162	-0.092834	0.443419	-1.000000	-1.000000	-1.000000	-1.000000	-1.000000	-1.000000	-1.000000	58.620690	0.000000	-1.000000	-1.000000	1198514.000000	1772739794.942149
-15982.470000	-19106.415000	-10584.990000	-3183.795000	-15307.695000	-9956.970000	-13013.865000	7292.700000	-11.682042	2.879882	-6.607446	-6.637703	-6.292812	-6.329787	-7.207210	-10.869785	-2.960440	4.867940	-2.487380	0.881162	-0.092834	0.443419	-1.000000	-1.000000	-1.000000	-1.000000	-1.000000	-1.000000	-1.000000	58.620690	0.000000	-1.000000	-1.000000	1198515.000000	1772739794.973050
-15988.725000	-19126.080000	-10585.980000	-3174.930000	-15295.275000	-9939.690000	-12998.385000	7333.020000	-12.162658	-1.107038	-2.816482	-0.221494	-0.380805	-0.725515	-6.156575	-15.782709	-2.960440	4.867940	-2.487380	0.881162	-0.092834	0.443419	-1.000000	-1.000000	-1.000000	-1.000000	-1.000000	-1.000000	-1.000000	58.620690	0.000000	-1.000000	-1.000000	1198516.000000	1772739794.973060
-16018.830000	-19138.590000	-10591.380000	-3176.640000	-15295.140000	-9943.875000	-12991.140000	7368.525000	-12.979848	-6.755757	0.195256	4.478448	4.227822	4.024533	-2.597643	-15.865746	-2.960440	4.867940	-2.487380	0.881162	-0.092834	0.443419	-1.000000	-1.000000	-1.000000	-1.000000	-1.000000	-1.000000	-1.000000	58.620690	0.000000	-1.000000	-1.000000	1198517.000000	1772739794.973071
-16006.320000	-19092.510000	-10564.830000	-3161.070000	-15287.085000	-9945.945000	-12994.200000	7314.795000	-13.121580	-10.958095	2.998210	5.666759	5.329561	5.649835	1.596631	-8.778990	-2.960440	4.867940	-2.487380	0.881162	-0.092834	0.443419	-1.000000	-1.000000	-1.000000	-1.000000	-1.000000	-1.000000	-1.000000	58.620690	0.000000	-1.000000	-1.000000	1198518.000000	1772739794.973076
-15961.635000	-19057.995000	-10544.400000	-3151.260000	-15285.015000	-9960.120000	-13013.280000	7243.155000	-9.075420	-9.544360	6.221861	4.468678	3.634399	4.138514	3.800546	0.013400	-2.960440	4.867940	-2.487380	0.881162	-0.092834	0.443419	-1.000000	-1.000000	-1.000000	-1.000000	-1.000000	-1.000000	-1.000000	58.620690	0.000000	-1.000000	-1.000000	1198519.000000	1772739794.973080
-15974.235000	-19112.895000	-10595.520000	-3199.320000	-15328.620000	-9999.225000	-13008.960000	7311.330000	0.245301	-2.112143	10.102157	3.719072	2.054003	2.014082	3.478290	4.239559	-2.960440	4.867940	-2.487380	0.881162	-0.092834	0.443419	-1.000000	-1.000000	-1.000000	-1.000000	-1.000000	-1.000000	-1.000000	58.620690	0.000000	-1.000000	-1.000000	1198520.000000	1772739794.973084
-16005.420000	-19167.885000	-10645.695000	-3244.500000	-15368.130000	-10028.160000	-13019.580000	7405.065000	10.293995	4.690696	10.929376	2.622009	0.606344	0.045074	2.049961	5.774559	-1.052940	4.196500	-0.061040	0.877744	-0.097961	0.441527	-1.000000	-1.000000	-1.000000	-1.000000	-1.000000	-1.000000	-1.000000	58.620690	0.000000	-1.000000	-1.000000	1198521.000000	1772739794.973089
-16000.290000	-19143.495000	-10618.965000	-3218.940000	-15344.145000	-10004.895000	-13020.165000	7372.485000	15.250553	3.762078	3.865532	-2.353168	-3.511572	-3.702272	0.508534	9.759250	-1.052940	4.196500	-0.061040	0.877744	-0.097961	0.441527	-1.000000	-1.000000	-1.000000	-1.000000	-1.000000	-1.000000	-1.000000	58.620690	0.000000	-1.000000	-1.000000	1198522.000000	1772739794.973092
-16001.955000	-19120.590000	-10585.125000	-3179.115000	-15302.745000	-9958.545000	-13017.015000	7314.885000	13.645062	-3.054160	-8.351089	-9.420306	-8.796575	-8.085692	-0.589673	14.804167	-1.052940	4.196500	-0.061040	0.877744	-0.097961	0.441527	-1.000000	-1.000000	-1.000000	-1.000000	-1.000000	-1.000000	-1.000000	58.620690	0.000000	-1.000000	-1.000000	1198523.000000	1772739794.973096
-16020.540000	-19107.630000	-10560.780000	-3146.580000	-15265.665000	-9912.285000	-12999.465000	7260.345000	7.146974	-7.409790	-16.009903	-11.510652	-9.230618	-8.049898	-0.436142	14.061863	-1.052940	4.196500	-0.061040	0.877744	-0.097961	0.441527	-1.000000	-1.000000	-1.000000	-1.000000	-1.000000	-1.000000	-1.000000	58.620690	0.000000	-1.000000	-1.000000	1198524.000000	1772739794.973100
-16004.880000	-19109.340000	-10576.125000	-3165.930000	-15288.075000	-9935.235000	-12996.945000	7287.840000	-1.390258	-3.993865	-12.876707	-5.477239	-2.660455	-1.726604	0.902998	3.808399	-1.052940	4.196500	-0.061040	0.877744	-0.097961	0.441527	-1.000000	-1.000000	-1.000000	-1.000000	-1.000000	-1.000000	-1.000000	58.620690	0.000000	-1.000000	-1.000000	1198525.000000	1772739794.973104
-15967.980000	-19110.015000	-10599.795000	-3194.370000	-15318.405000	-9974.115000	-13023.810000	7375.185000	-6.743190	4.841329	-2.600664	3.413016	5.278766	5.613776	1.620050	-9.736673	-1.052940	4.196500	-0.061040	0.877744	-0.097961	0.441527	-1.000000	-1.000000	-1.000000	-1.000000	-1.000000	-1.000000	-1.000000	58.620690	0.000000	-1.000000	-1.000000	1198526.000000	1772739794.973107
-15986.970000	-19126.395000	-10621.935000	-3221.955000	-15347.655000	-10011.825000	-13040.415000	7353.270000	-5.448116	11.239752	5.540495	7.122265	7.181265	6.958351	-0.217974	-14.081349	-1.052940	4.196500	-0.061040	0.877744	-0.097961	0.441527	-1.000000	-1.000000	-1.000000	-1.000000	-1.000000	-1.000000	-1.000000	58.620690	0.000000	-1.000000	-1.000000	1198527.000000	1772739794.973111
-15998.130000	-19135.710000	-10616.535000	-3219.480000	-15347.160000	-10016.595000	-13020.345000	7353.540000	-1.356612	9.275259	6.532911	3.735796	2.343731	1.849137	-3.361801	-4.895341	-1.052940	4.196500	-0.061040	0.877744	-0.097961	0.441527	-1.000000	-1.000000	-1.000000	-1.000000	-1.000000	-1.000000	-1.000000	58.620690	0.000000	-1.000000	-1.000000	1198528.000000	1772739794.973114
-15998.805000	-19115.505000	-10577.430000	-3183.615000	-15308.865000	-9970.965000	-12983.805000	7365.105000	-0.026227	1.981227	4.651883	-0.210775	-2.082562	-2.565600	-3.549832	7.518642	-1.052940	4.196500	-0.061040	0.877744	-0.097961	0.441527	-1.000000	-1.000000	-1.000000	-1.000000	-1.000000	-1.000000	-1.000000	58.620690	0.000000	-1.000000	-1.000000	1198529.000000	1772739794.979872
-15978.915000	-19092.870000	-10558.530000	-3163.050000	-15290.820000	-9949.410000	-12980.385000	7369.290000	-0.813844	-2.092377	6.708403	2.311183	0.664412	0.242297	1.372111	9.838126	-1.052940	4.196500	-0.061040	0.877744	-0.097961	0.441527	-1.000000	-1.000000	-1.000000	-1.000000	-1.000000	-1.000000	-1.000000	58.620690	0.000000	-1.000000	-1.000000	1198530.000000	1772739794.979884
-15996.960000	-19129.050000	-10597.320000	-3200.580000	-15334.020000	-9989.370000	-13025.250000	7333.965000	-0.292536	-0.405670	11.077115	8.883051	7.678741	7.258606	7.564962	0.489188	-1.648080	3.784480	-1.373400	0.877622	-0.092285	0.440734	-1.000000	-1.000000	-1.000000	-1.000000	-1.000000	-1.000000	-1.000000	58.620690	0.000000	-1.000000	-1.000000	1198531.000000	1772739794.982193
-15998.310000	-19121.445000	-10593.270000	-3189.285000	-15315.705000	-9966.330000	-13036.005000	7290.765000	1.379380	1.147132	9.249310	9.926671	9.156829	8.711079	8.189871	-10.718067	-1.648080	3.784480	-1.373400	0.877622	-0.092285	0.440734	-1.000000	-1.000000	-1.000000	-1.000000	-1.000000	-1.000000	-1.000000	58.620690	0.000000	-1.000000	-1.000000	1198532.000000	1772739794.982202
-16020.090000	-19145.655000	-10615.320000	-3207.240000	-15329.160000	-9976.005000	-13025.970000	7323.390000	1.672114	-1.973336	-1.718080	1.197350	1.025858	0.512481	1.089283	-14.405355	-1.648080	3.784480	-1.373400	0.877622	-0.092285	0.440734	-1.000000	-1.000000	-1.000000	-1.000000	-1.000000	-1.000000	-1.000000	58.620690	0.000000	-1.000000	-1.000000	1198533.000000	1772739794.982444
-16034.445000	-19133.640000	-10590.390000	-3184.065000	-15312.240000	-9967.230000	-13016.070000	7316.820000	-0.802050	-7.461096	-14.531298	-10.905583	-10.187586	-10.729756	-8.251519	-9.446348	-1.648080	3.784480	-1.373400	0.877622	-0.092285	0.440734	-1.000000	-1.000000	-1.000000	-1.000000	-1.000000	-1.000000	-1.000000	58.620690	0.000000	-1.000000	-1.000000	1198534.000000	1772739794.982449
-16013.025000	-19118.025000	-10584.405000	-3179.430000	-15306.840000	-9966.420000	-13005.900000	7336.845000	-4.988114	-10.026757	-19.033520	-16.143684	-14.617926	-14.936062	-11.967051	-1.468233	-1.648080	3.784480	-1.373400	0.877622	-0.092285	0.440734	-1.000000	-1.000000	-1.000000	-1.000000	-1.000000	-1.000000	-1.000000	58.620690	0.000000	-1.000000	-1.000000	1198535.000000	1772739794.987731
-16005.465000	-19121.085000	-10605.780000	-3199.140000	-15318.945000	-9981.090000	-12983.130000	7359.210000	-7.251339	-6.692442	-11.875461	-10.338592	-8.380395	-8.028840	-6.615994	5.342166	-1.648080	3.784480	-1.373400	0.877622	-0.092285	0.440734	-1.000000	-1.000000	-1.000000	-1.000000	-1.000000	-1.000000	-1.000000	58.620690	0.000000	-1.000000	-1.000000	1198536.000000	1772739794.987739
-15990.480000	-19113.030000	-10597.815000	-3187.980000	-15310.980000	-9974.925000	-12991.140000	7308.810000	-4.247827	1.130634	1.099987	1.537952	3.605499	4.880526	3.863907	9.951326	-1.648080	3.784480	-1.373400	0.877622	-0.092285	0.440734	-1.000000	-1.000000	-1.000000	-1.000000	-1.000000	-1.000000	-1.000000	58.620690	0.000000	-1.000000	-1.000000	1198537.000000	1772739794.989357
-15987.915000	-19119.690000	-10596.015000	-3185.460000	-15309.315000	-9970.065000	-13009.455000	7271.145000	3.304886	8.930163	11.177041	11.031051	12.627819	14.279998	10.811818	8.677433	-1.648080	3.784480	-1.373400	0.877622	-0.092285	0.440734	-1.000000	-1.000000	-1.000000	-1.000000	-1.000000	-1.000000	-1.000000	58.620690	0.000000	-1.000000	-1.000000	1198538.000000	1772739794.989365
-16031.970000	-19130.805000	-10596.780000	-3193.695000	-15318.045000	-9976.140000	-13017.330000	7255.485000	10.106918	11.797038	13.357846	12.729313	13.069817	13.999136	8.810734	-0.389085	-1.648080	3.784480	-1.373400	0.877622	-0.092285	0.440734	-1.000000	-1.000000	-1.000000	-1.000000	-1.000000	-1.000000	-1.000000	58.620690	0.000000	-1.000000	-1.000000	1198539.000000	1772739795.003734
-16024.995000	-19103.355000	-10566.945000	-3186.495000	-15307.020000	-9957.915000	-13026.960000	7293.465000	10.532208	8.373235	8.812416	6.955521	5.848469	5.456188	0.863985	-9.326578	-1.648080	3.784480	-1.373400	0.877622	-0.092285	0.440734	-1.000000	-1.000000	-1.000000	-1.000000	-1.000000	-1.000000	-1.000000	58.620690	0.000000	-1.000000	-1.000000	1198540.000000	1772739795.003743
-15945.660000	-19071.630000	-10556.100000	-3178.980000	-15299.640000	-9948.195000	-13021.155000	7321.275000	5.703783	2.693617	2.875873	-1.477826	-3.504653	-4.888776	-6.120963	-7.171359	-4.379620	4.974760	-1.770160	0.876646	-0.087158	0.440368	-1.000000	-1.000000	-1.000000	-1.000000	-1.000000	-1.000000	-1.000000	58.620690	0.000000	-1.000000	-1.000000	1198541.000000	1772739795.003752
-15947.505000	-19096.335000	-10603.440000	-3185.055000	-15308.505000	-9961.335000	-13026.555000	7356.330000	2.557853	-0.625987	-1.034407	-7.385032	-9.691070	-11.292278	-8.362549	6.502905	-4.379620	4.974760	-1.770160	0.876646	-0.087158	0.440368	-1.000000	-1.000000	-1.000000	-1.000000	-1.000000	-1.000000	-1.000000	58.620690	0.000000	-1.000000	-1.000000	1198542.000000	1772739795.003756
-15980.805000	-19148.760000	-10612.440000	-3184.695000	-15312.465000	-9968.940000	-13015.125000	7371.405000	3.085437	-2.519141	-4.278891	-8.567415	-10.636251	-11.708724	-6.208971	20.647434	-4.379620	4.974760	-1.770160	0.876646	-0.087158	0.440368	-1.000000	-1.000000	-1.000000	-1.000000	-1.000000	-1.000000	-1.000000	58.620690	0.000000	-1.000000	-1.000000	1198543.000000	1772739795.027104
-15998.940000	-19143.270000	-10598.445000	-3186.495000	-15313.950000	-9979.515000	-12998.295000	7348.455000	1.517429	-6.855068	-7.889679	-5.777949	-7.182225	-7.255720	-1.440583	23.678290	-4.379620	4.974760	-1.770160	0.876646	-0.087158	0.440368	-1.000000	-1.000000	-1.000000	-1.000000	-1.000000	-1.000000	-1.000000	58.620690	0.000000	-1.000000	-1.000000	1198544.000000	1772739795.027113
-15995.025000	-19129.005000	-10599.705000	-3194.100000	-15320.700000	-9988.470000	-12989.655000	7350.120000	-5.762740	-12.290733	-8.962286	-0.902089	-1.411267	-0.583253	3.858781	12.409268	-4.379620	4.974760	-1.770160	0.876646	-0.087158	0.440368	-1.000000	-1.000000	-1.000000	-1.000000	-1.000000	-1.000000	-1.000000	58.620690	0.000000	-1.000000	-1.000000	1198545.000000	1772739795.027124
-16025.715000	-19125.315000	-10595.340000	-3188.295000	-15311.295000	-9974.655000	-12990.555000	7323.345000	-15.003049	-12.965983	-5.348371	3.581324	4.042080	5.172884	7.327144	-6.522415	-4.379620	4.974760	-1.770160	0.876646	-0.087158	0.440368	-1.000000	-1.000000	-1.000000	-1.000000	-1.000000	-1.000000	-1.000000	58.620690	0.000000	-1.000000	-1.000000	1198546.000000	1772739795.027128
-16070.535000	-19141.110000	-10592.820000	-3182.985000	-15304.095000	-9964.890000	-13001.760000	7284.465000	-20.434378	-6.690984	0.749276	5.446265	6.936304	7.778669	7.452771	-22.581412	-4.379620	4.974760	-1.770160	0.876646	-0.087158	0.440368	-1.000000	-1.000000	-1.000000	-1.000000	-1.000000	-1.000000	-1.000000	58.620690	0.000000	-1.000000	-1.000000	1198547.000000	1772739795.027133
-16060.320000	-19153.125000	-10603.080000	-3193.290000	-15313.995000	-9966.105000	-13012.245000	7270.875000	-18.507498	2.567901	5.372750	4.354798	6.728132	7.082151	4.516936	-28.859834	-4.379620	4.974760	-1.770160	0.876646	-0.087158	0.440368	-1.000000	-1.000000	-1.000000	-1.000000	-1.000000	-1.000000	-1.000000	58.620690	0.000000	-1.000000	-1.000000	1198548.000000	1772739795.027136
-15966.045000	-19100.340000	-10570.545000	-3163.680000	-15287.490000	-9934.470000	-12995.820000	7291.215000	-7.628553	9.533203	6.188674	1.703938	4.211157	4.264062	0.372075	-24.064565	-4.379620	4.974760	-1.770160	0.876646	-0.087158	0.440368	-1.000000	-1.000000	-1.000000	-1.000000	-1.000000	-1.000000	-1.000000	58.620690	0.000000	-1.000000	-1.000000	1198549.000000	1772739795.027140
-15936.030000	-19085.805000	-10576.305000	-3173.580000	-15296.715000	-9946.125000	-13001.760000	7298.955000	10.022819	12.477323	4.238519	-0.581150	0.870660	0.871273	-2.856872	-11.331488	-4.379620	4.974760	-1.770160	0.876646	-0.087158	0.440368	-1.000000	-1.000000	-1.000000	-1.000000	-1.000000	-1.000000	-1.000000	58.620690	0.000000	-1.000000	-1.000000	1198550.000000	1772739795.027144
-15986.025000	-19115.820000	-10598.040000	-3197.790000	-15320.430000	-9972.045000	-13019.670000	7320.285000	26.033869	12.396881	2.299333	-1.815009	-2.058832	-2.026149	-4.631820	3.254284	-3.433500	5.035800	-1.861720	0.875242	-0.089782	0.439635	-1.000000	-1.000000	-1.000000	-1.000000	-1.000000	-1.000000	-1.000000	58.620690	0.000000	-1.000000	-1.000000	1198551.000000	1772739795.027148
-15965.055000	-19096.920000	-10579.680000	-3181.905000	-15306.075000	-9969.030000	-13011.345000	7341.660000	30.700754	9.970397	1.445475	-2.682535	-4.115786	-4.106675	-5.771217	14.284427	-3.433500	5.035800	-1.861720	0.875242	-0.089782	0.439635	-1.000000	-1.000000	-1.000000	-1.000000	-1.000000	-1.000000	-1.000000	58.620690	0.000000	-1.000000	-1.000000	1198552.000000	1772739795.027151
-15964.065000	-19123.065000	-10610.370000	-3208.275000	-15333.795000	-10002.330000	-13019.805000	7354.485000	21.870103	5.214834	0.700764	-3.099439	-4.728645	-4.942468	-6.554083	19.913297	-3.433500	5.035800	-1.861720	0.875242	-0.089782	0.439635	-1.000000	-1.000000	-1.000000	-1.000000	-1.000000	-1.000000	-1.000000	58.620690	0.000000	-1.000000	-1.000000	1198553.000000	1772739795.027155
-16006.320000	-19158.930000	-10623.015000	-3216.690000	-15338.430000	-9997.065000	-12996.720000	7364.430000	4.975222	-2.391031	-1.462525	-2.735281	-3.915554	-4.453814	-6.059085	20.539578	-3.433500	5.035800	-1.861720	0.875242	-0.089782	0.439635	-1.000000	-1.000000	-1.000000	-1.000000	-1.000000	-1.000000	-1.000000	58.620690	0.000000	-1.000000	-1.000000	1198554.000000	1772739795.027158
-16036.695000	-19129.995000	-10620.585000	-3210.255000	-15332.760000	-9990.090000	-12998.520000	7329.420000	-12.779372	-11.565746	-5.174688	-2.109637	-2.655686	-3.206117	-2.885671	16.681271	-3.433500	5.035800	-1.861720	0.875242	-0.089782	0.439635	-1.000000	-1.000000	-1.000000	-1.000000	-1.000000	-1.000000	-1.000000	58.620690	0.000000	-1.000000	-1.000000	1198555.000000	1772739795.027798
-15963.255000	-19075.275000	-10609.560000	-3163.770000	-15280.020000	-9934.785000	-12964.725000	7384.770000	-23.271281	-16.002615	-7.816297	-0.558582	-0.507308	-0.708117	3.399854	9.787094	-3.433500	5.035800	-1.861720	0.875242	-0.089782	0.439635	-1.000000	-1.000000	-1.000000	-1.000000	-1.000000	-1.000000	-1.000000	58.620690	0.000000	-1.000000	-1.000000	1198556.000000	1772739795.027809
-15934.815000	-19054.620000	-10557.090000	-3114.090000	-15230.160000	-9882.900000	-12965.040000	7373.025000	-20.281437	-10.058953	-5.940512	3.963054	4.554688	4.554016	10.922307	2.688783	-3.433500	5.035800	-1.861720	0.875242	-0.089782	0.439635	-1.000000	-1.000000	-1.000000	-1.000000	-1.000000	-1.000000	-1.000000	58.620690	0.000000	-1.000000	-1.000000	1198557.000000	1772739795.035757
-16020.405000	-19114.290000	-10557.630000	-3165.480000	-15294.150000	-9950.400000	-13048.470000	7227.405000	-9.077882	1.417970	0.850832	9.952715	10.782507	10.438123	14.201026	-5.743559	-3.433500	5.035800	-1.861720	0.875242	-0.089782	0.439635	-1.000000	-1.000000	-1.000000	-1.000000	-1.000000	-1.000000	-1.000000	58.620690	0.000000	-1.000000	-1.000000	1198558.000000	1772739795.035768
-16016.760000	-19124.730000	-10564.965000	-3194.460000	-15321.780000	-9970.695000	-13023.090000	7308.135000	-2.676740	7.137807	8.653811	11.004342	11.292414	10.438202	8.078816	-18.930086	-3.433500	5.035800	-1.861720	0.875242	-0.089782	0.439635	-1.000000	-1.000000	-1.000000	-1.000000	-1.000000	-1.000000	-1.000000	58.620690	0.000000	-1.000000	-1.000000	1198559.000000	1772739795.035780
-16015.860000	-19164.780000	-10623.645000	-3227.715000	-15349.770000	-10002.555000	-13019.445000	7348.545000	-4.074490	3.090019	11.779046	3.336743	2.631653	2.039509	-4.020731	-30.489155	-3.433500	5.035800	-1.861720	0.875242	-0.089782	0.439635	-1.000000	-1.000000	-1.000000	-1.000000	-1.000000	-1.000000	-1.000000	58.620690	0.000000	-1.000000	-1.000000	1198560.000000	1772739795.035786
-16048.170000	-19179.585000	-10652.130000	-3257.640000	-15382.665000	-10047.285000	-13028.355000	7308.045000	-5.779001	-5.444489	6.365537	-9.435079	-10.519509	-9.852462	-13.012269	-29.184913	1.312360	5.600420	-1.205540	0.876035	-0.091491	0.438048	-1.000000	-1.000000	-1.000000	-1.000000	-1.000000	-1.000000	-1.000000	58.620690	0.000000	-1.000000	-1.000000	1198561.000000	1772739795.043688
-16030.395000	-19138.905000	-10613.565000	-3220.515000	-15347.385000	-10013.085000	-12997.980000	7335.900000	-2.843558	-10.436755	-4.649576	-18.887579	-19.423129	-17.574352	-13.820146	-14.438824	1.312360	5.600420	-1.205540	0.876035	-0.091491	0.438048	-1.000000	-1.000000	-1.000000	-1.000000	-1.000000	-1.000000	-1.000000	58.620690	0.000000	-1.000000	-1.000000	1198562.000000	1772739795.043697
-15975.945000	-19111.320000	-10591.740000	-3198.150000	-15325.335000	-9990.855000	-13008.825000	7310.205000	5.867734	-5.689239	-11.703647	-17.133733	-16.889315	-15.169825	-7.330003	5.350426	1.312360	5.600420	-1.205540	0.876035	-0.091491	0.438048	-1.000000	-1.000000	-1.000000	-1.000000	-1.000000	-1.000000	-1.000000	58.620690	0.000000	-1.000000	-1.000000	1198563.000000	1772739795.043707
-15940.755000	-19090.395000	-10569.870000	-3172.005000	-15297.750000	-9961.875000	-13006.170000	7303.005000	19.418237	7.379914	-8.484207	-3.824450	-3.222785	-3.022003	1.730144	21.278218	1.312360	5.600420	-1.205540	0.876035	-0.091491	0.438048	-1.000000	-1.000000	-1.000000	-1.000000	-1.000000	-1.000000	-1.000000	58.620690	0.000000	-1.000000	-1.000000	1198564.000000	1772739795.043711
-15936.480000	-19096.425000	-10563.840000	-3157.785000	-15277.365000	-9929.565000	-12989.925000	7312.815000	30.352861	18.833769	1.576834	12.205052	12.728706	11.229358	8.065071	27.038509	1.312360	5.600420	-1.205540	0.876035	-0.091491	0.438048	-1.000000	-1.000000	-1.000000	-1.000000	-1.000000	-1.000000	-1.000000	58.620690	0.000000	-1.000000	-1.000000	1198565.000000	1772739795.059337
-15986.610000	-19144.350000	-10609.920000	-3199.770000	-15316.830000	-9960.210000	-13011.480000	7349.355000	27.571937	18.787070	8.806875	19.840820	20.352800	18.498308	9.635880	22.885726	1.312360	5.600420	-1.205540	0.876035	-0.091491	0.438048	-1.000000	-1.000000	-1.000000	-1.000000	-1.000000	-1.000000	-1.000000	58.620690	0.000000	-1.000000	-1.000000	1198566.000000	1772739795.059346
-15999.390000	-19143.090000	-10625.940000	-3222.090000	-15341.715000	-9989.775000	-13016.565000	7375.185000	8.551868	6.558491	6.051214	14.595979	15.583932	15.116735	7.882889	16.048684	1.312360	5.600420	-1.205540	0.876035	-0.091491	0.438048	-1.000000	-1.000000	-1.000000	-1.000000	-1.000000	-1.000000	-1.000000	58.620690	0.000000	-1.000000	-1.000000	1198567.000000	1772739795.059357
-16009.245000	-19120.455000	-10603.080000	-3202.515000	-15324.570000	-9979.965000	-13003.965000	7350.165000	-16.196354	-8.121242	-3.404320	2.338648	3.876669	5.168059	4.830084	10.103495	1.312360	5.600420	-1.205540	0.876035	-0.091491	0.438048	-1.000000	-1.000000	-1.000000	-1.000000	-1.000000	-1.000000	-1.000000	58.620690	0.000000	-1.000000	-1.000000	1198568.000000	1772739795.059363
-16007.040000	-19104.930000	-10583.010000	-3185.055000	-15310.845000	-9979.065000	-12996.360000	7327.170000	-32.463871	-13.861353	-8.634997	-6.320115	-5.126379	-3.442822	1.448868	0.454821	1.312360	5.600420	-1.205540	0.876035	-0.091491	0.438048	-1.000000	-1.000000	-1.000000	-1.000000	-1.000000	-1.000000	-1.000000	58.620690	0.000000	-1.000000	-1.000000	1198569.000000	1772739795.059367
-16010.325000	-19109.970000	-10588.770000	-3192.390000	-15318.945000	-9990.990000	-12998.925000	7316.730000	-32.623366	-8.094580	-3.514536	-5.969214	-6.242423	-5.775823	-1.777587	-14.223639	1.312360	5.600420	-1.205540	0.876035	-0.091491	0.438048	-1.000000	-1.000000	-1.000000	-1.000000	-1.000000	-1.000000	-1.000000	58.620690	0.000000	-1.000000	-1.000000	1198570.000000	1772739795.059371
-16018.470000	-19112.355000	-10587.735000	-3188.790000	-15315.030000	-9985.140000	-13011.570000	7299.945000	-19.035553	1.662435	6.604083	-0.484465	-2.423728	-3.631675	-4.888076	-26.931502	0.045780	4.410140	-2.487380	0.878050	-0.089172	0.437560	-1.000000	-1.000000	-1.000000	-1.000000	-1.000000	-1.000000	-1.000000	58.620690	0.000000	-1.000000	-1.000000	1198571.000000	1772739795.059375
-16017.345000	-19133.415000	-10606.230000	-3202.920000	-15326.190000	-9989.415000	-13010.805000	7301.475000	-1.350260	5.728396	11.481917	2.299296	-0.361562	-2.393828	-7.769304	-29.665017	0.045780	4.410140	-2.487380	0.878050	-0.089172	0.437560	-1.000000	-1.000000	-1.000000	-1.000000	-1.000000	-1.000000	-1.000000	58.620690	0.000000	-1.000000	-1.000000	1198572.000000	1772739795.059379
-15997.995000	-19125.135000	-10604.025000	-3193.470000	-15313.590000	-9966.645000	-13005.675000	7332.795000	10.906227	0.640390	6.339937	-1.487412	-3.513044	-4.856968	-8.998973	-19.532052	0.045780	4.410140	-2.487380	0.878050	-0.089172	0.437560	-1.000000	-1.000000	-1.000000	-1.000000	-1.000000	-1.000000	-1.000000	58.620690	0.000000	-1.000000	-1.000000	1198573.000000	1772739795.061369
-15973.155000	-19118.250000	-10596.915000	-3181.455000	-15300.045000	-9945.360000	-12996.765000	7355.070000	14.947903	-8.320135	-4.671693	-8.719607	-9.264763	-8.819391	-7.076013	-0.689178	0.045780	4.410140	-2.487380	0.878050	-0.089172	0.437560	-1.000000	-1.000000	-1.000000	-1.000000	-1.000000	-1.000000	-1.000000	58.620690	0.000000	-1.000000	-1.000000	1198574.000000	1772739795.061376
-16013.835000	-19126.935000	-10588.770000	-3173.445000	-15292.980000	-9943.785000	-12983.670000	7309.935000	14.115259	-12.151645	-12.523413	-11.945609	-11.031289	-9.001590	-1.418816	17.198757	0.045780	4.410140	-2.487380	0.878050	-0.089172	0.437560	-1.000000	-1.000000	-1.000000	-1.000000	-1.000000	-1.000000	-1.000000	58.620690	0.000000	-1.000000	-1.000000	1198575.000000	1772739795.071454
-16001.010000	-19102.545000	-10560.915000	-3156.795000	-15281.820000	-9944.730000	-12988.170000	7312.275000	11.781230	-6.625772	-10.714366	-6.129416	-4.409913	-2.264160	6.534156	24.153835	0.045780	4.410140	-2.487380	0.878050	-0.089172	0.437560	-1.000000	-1.000000	-1.000000	-1.000000	-1.000000	-1.000000	-1.000000	58.620690	0.000000	-1.000000	-1.000000	1198576.000000	1772739795.071463
-16004.655000	-19117.530000	-10584.630000	-3183.660000	-15308.820000	-9976.995000	-13002.030000	7348.410000	8.664956	4.327422	-0.893421	5.394672	6.994817	7.631885	11.958797	17.989224	0.045780	4.410140	-2.487380	0.878050	-0.089172	0.437560	-1.000000	-1.000000	-1.000000	-1.000000	-1.000000	-1.000000	-1.000000	58.620690	0.000000	-1.000000	-1.000000	1198577.000000	1772739795.071472
-16006.770000	-19132.740000	-10618.785000	-3223.665000	-15348.780000	-10019.925000	-13008.420000	7344.180000	4.620560	12.587302	8.289293	13.045354	13.861975	12.667094	10.307393	6.590852	0.045780	4.410140	-2.487380	0.878050	-0.089172	0.437560	-1.000000	-1.000000	-1.000000	-1.000000	-1.000000	-1.000000	-1.000000	58.620690	0.000000	-1.000000	-1.000000	1198578.000000	1772739795.071476
-16016.040000	-19122.300000	-10606.095000	-3210.930000	-15336.945000	-10006.695000	-13009.005000	7316.640000	-0.212465	12.815511	9.499932	10.552360	10.555659	8.732971	2.412251	-1.794153	0.045780	4.410140	-2.487380	0.878050	-0.089172	0.437560	-1.000000	-1.000000	-1.000000	-1.000000	-1.000000	-1.000000	-1.000000	58.620690	0.000000	-1.000000	-1.000000	1198579.000000	1772739795.077398
-15984.945000	-19093.995000	-10580.445000	-3184.470000	-15311.250000	-9977.445000	-13014.270000	7308.270000	-4.771655	6.692685	3.785618	1.249354	0.774096	-0.240102	-6.305348	-5.656144	0.045780	4.410140	-2.487380	0.878050	-0.089172	0.437560	-1.000000	-1.000000	-1.000000	-1.000000	-1.000000	-1.000000	-1.000000	58.620690	0.000000	-1.000000	-1.000000	1198580.000000	1772739795.077414
-15977.115000	-19100.025000	-10584.045000	-3181.455000	-15303.510000	-9958.320000	-13004.280000	7295.310000	-7.276346	-0.085806	-2.234474	-6.437715	-7.078583	-6.698913	-10.555925	-6.955100	-2.334780	4.791640	-2.380560	0.876829	-0.085876	0.441039	-1.000000	-1.000000	-1.000000	-1.000000	-1.000000	-1.000000	-1.000000	58.620690	0.000000	-1.000000	-1.000000	1198581.000000	1772739795.083336
-16019.505000	-19112.580000	-10581.345000	-3169.710000	-15288.075000	-9934.515000	-12994.470000	7225.605000	-8.073678	-4.328627	-4.368684	-7.838008	-8.380456	-6.930770	-8.615063	-8.675111	-2.334780	4.791640	-2.380560	0.876829	-0.085876	0.441039	-1.000000	-1.000000	-1.000000	-1.000000	-1.000000	-1.000000	-1.000000	58.620690	0.000000	-1.000000	-1.000000	1198582.000000	1772739795.083344
-16025.445000	-19106.370000	-10566.765000	-3155.715000	-15276.690000	-9927.765000	-12996.180000	7260.570000	-9.296115	-6.216421	-2.992780	-3.995531	-4.230674	-2.646234	-2.478877	-12.257444	-2.334780	4.791640	-2.380560	0.876829	-0.085876	0.441039	-1.000000	-1.000000	-1.000000	-1.000000	-1.000000	-1.000000	-1.000000	58.620690	0.000000	-1.000000	-1.000000	1198583.000000	1772739795.083352
-15979.815000	-19123.155000	-10597.320000	-3190.725000	-15312.690000	-9964.845000	-13004.145000	7394.805000	-9.218741	-6.166621	-0.478766	1.427789	1.540317	2.274467	3.940069	-11.401208	-2.334780	4.791640	-2.380560	0.876829	-0.085876	0.441039	-1.000000	-1.000000	-1.000000	-1.000000	-1.000000	-1.000000	-1.000000	58.620690	0.000000	-1.000000	-1.000000	1198584.000000	1772739795.083356
-15950.970000	-19125.540000	-10600.020000	-3188.340000	-15309.765000	-9965.880000	-12968.865000	7418.160000	-3.265536	-4.906374	0.267845	4.266514	4.661158	4.333510	7.628796	1.777899	-2.334780	4.791640	-2.380560	0.876829	-0.085876	0.441039	-1.000000	-1.000000	-1.000000	-1.000000	-1.000000	-1.000000	-1.000000	58.620690	0.000000	-1.000000	-1.000000	1198585.000000	1772739795.088266
-15983.865000	-19092.240000	-10570.275000	-3177.720000	-15301.170000	-9973.485000	-12975.480000	7341.660000	7.455242	-2.848914	-0.863167	3.489137	4.067391	3.177954	8.417553	20.751068	-2.334780	4.791640	-2.380560	0.876829	-0.085876	0.441039	-1.000000	-1.000000	-1.000000	-1.000000	-1.000000	-1.000000	-1.000000	58.620690	0.000000	-1.000000	-1.000000	1198586.000000	1772739795.088275
-16022.025000	-19081.665000	-10559.565000	-3185.910000	-15304.680000	-9976.140000	-13004.280000	7306.965000	14.759414	1.170604	-0.103711	2.137879	2.735501	1.606640	6.682457	27.980705	-2.334780	4.791640	-2.380560	0.876829	-0.085876	0.441039	-1.000000	-1.000000	-1.000000	-1.000000	-1.000000	-1.000000	-1.000000	58.620690	0.000000	-1.000000	-1.000000	1198587.000000	1772739795.089534
-15977.745000	-19094.805000	-10589.580000	-3192.615000	-15310.395000	-9971.865000	-12985.425000	7396.785000	12.564314	6.161393	3.314609	1.651609	2.156637	0.930435	2.112055	17.110749	-2.334780	4.791640	-2.380560	0.876829	-0.085876	0.441039	-1.000000	-1.000000	-1.000000	-1.000000	-1.000000	-1.000000	-1.000000	58.620690	0.000000	-1.000000	-1.000000	1198588.000000	1772739795.089542
-15964.695000	-19106.010000	-10589.490000	-3165.705000	-15292.350000	-9952.650000	-12958.695000	7393.680000	3.540711	7.636953	4.651137	0.427638	0.657881	-0.221664	-3.120836	-0.293956	-2.334780	4.791640	-2.380560	0.876829	-0.085876	0.441039	-1.000000	-1.000000	-1.000000	-1.000000	-1.000000	-1.000000	-1.000000	58.620690	0.000000	-1.000000	-1.000000	1198589.000000	1772739795.101155
-16001.820000	-19143.990000	-10600.290000	-3185.865000	-15312.420000	-9966.060000	-12994.155000	7262.415000	-5.792536	2.878807	0.991235	-2.042221	-2.661491	-2.907158	-5.956147	-12.994898	-2.334780	4.791640	-2.380560	0.876829	-0.085876	0.441039	-1.000000	-1.000000	-1.000000	-1.000000	-1.000000	-1.000000	-1.000000	58.620690	0.000000	-1.000000	-1.000000	1198590.000000	1772739795.101163
-16042.725000	-19171.845000	-10634.040000	-3219.615000	-15340.005000	-9991.665000	-13032.090000	7248.555000	-11.859698	-5.940212	-5.511569	-5.306501	-7.157187	-7.050049	-7.300754	-20.978850	-3.876040	5.279960	-0.885080	0.876279	-0.086120	0.442382	-1.000000	-1.000000	-1.000000	-1.000000	-1.000000	-1.000000	-1.000000	58.620690	0.000000	-1.000000	-1.000000	1198591.000000	1772739795.101172
-16021.485000	-19137.555000	-10612.125000	-3203.505000	-15325.155000	-9981.135000	-13018.230000	7356.330000	-13.509339	-12.922253	-10.685894	-8.478087	-10.807380	-10.679623	-9.028200	-24.750237	-3.876040	5.279960	-0.885080	0.876279	-0.086120	0.442382	-1.000000	-1.000000	-1.000000	-1.000000	-1.000000	-1.000000	-1.000000	58.620690	0.000000	-1.000000	-1.000000	1198592.000000	1772739795.101176
-15991.830000	-19121.940000	-10611.720000	-3206.610000	-15327.315000	-9985.365000	-13011.795000	7359.390000	-10.040694	-11.727998	-10.219167	-8.407745	-9.728673	-9.531724	-9.222632	-20.741245	-3.876040	5.279960	-0.885080	0.876279	-0.086120	0.442382	-1.000000	-1.000000	-1.000000	-1.000000	-1.000000	-1.000000	-1.000000	58.620690	0.000000	-1.000000	-1.000000	1198593.000000	1772739795.112679
-15999.435000	-19086.390000	-10567.665000	-3164.445000	-15291.045000	-9965.070000	-12983.625000	7320.105000	-2.366923	-1.135559	-2.381616	-2.408437	-1.852796	-1.402159	-5.113044	-9.623922	-3.876040	5.279960	-0.885080	0.876279	-0.086120	0.442382	-1.000000	-1.000000	-1.000000	-1.000000	-1.000000	-1.000000	-1.000000	58.620690	0.000000	-1.000000	-1.000000	1198594.000000	1772739795.112688
-16027.875000	-19096.830000	-10575.315000	-3176.370000	-15301.845000	-9977.355000	-12982.005000	7311.195000	6.366593	12.483111	9.203602	7.717830	9.707250	10.391786	3.097555	3.688642	-3.876040	5.279960	-0.885080	0.876279	-0.086120	0.442382	-1.000000	-1.000000	-1.000000	-1.000000	-1.000000	-1.000000	-1.000000	58.620690	0.000000	-1.000000	-1.000000	1198595.000000	1772739795.112697
-16039.890000	-19143.630000	-10627.740000	-3231.720000	-15351.840000	-10013.895000	-13000.590000	7306.425000	12.116136	19.211713	16.675533	15.341445	17.572282	18.428478	11.891281	15.015261	-3.876040	5.279960	-0.885080	0.876279	-0.086120	0.442382	-1.000000	-1.000000	-1.000000	-1.000000	-1.000000	-1.000000	-1.000000	58.620690	0.000000	-1.000000	-1.000000	1198596.000000	1772739795.112701
-16032.240000	-19154.070000	-10639.215000	-3233.700000	-15352.425000	-10012.770000	-13021.470000	7283.520000	11.635612	13.366971	13.748859	13.428975	15.037725	16.128647	15.455710	19.724562	-3.876040	5.279960	-0.885080	0.876279	-0.086120	0.442382	-1.000000	-1.000000	-1.000000	-1.000000	-1.000000	-1.000000	-1.000000	58.620690	0.000000	-1.000000	-1.000000	1198597.000000	1772739795.112705
-16002.045000	-19151.730000	-10622.790000	-3206.070000	-15325.515000	-9983.115000	-13031.010000	7291.125000	5.604724	-0.779313	2.416184	2.447656	3.322947	4.430147	10.095226	15.715648	-3.876040	5.279960	-0.885080	0.876279	-0.086120	0.442382	-1.000000	-1.000000	-1.000000	-1.000000	-1.000000	-1.000000	-1.000000	58.620690	0.000000	-1.000000	-1.000000	1198598.000000	1772739795.112708
-15945.660000	-19124.505000	-10597.635000	-3183.660000	-15303.510000	-9954.720000	-13003.920000	7346.160000	0.656024	-11.961468	-8.103527	-8.438638	-8.160310	-7.687200	-0.357340	9.922816	-3.876040	5.279960	-0.885080	0.876279	-0.086120	0.442382	-1.000000	-1.000000	-1.000000	-1.000000	-1.000000	-1.000000	-1.000000	58.620690	0.000000	-1.000000	-1.000000	1198599.000000	1772739795.115259
-15985.440000	-19125.000000	-10599.345000	-3187.935000	-15308.730000	-9961.830000	-13002.975000	7355.565000	2.551389	-12.087596	-10.138656	-10.624487	-11.068231	-11.657959	-7.111753	10.020805	-3.876040	5.279960	-0.885080	0.876279	-0.086120	0.442382	-1.000000	-1.000000	-1.000000	-1.000000	-1.000000	-1.000000	-1.000000	58.620690	0.000000	-1.000000	-1.000000	1198600.000000	1772739795.115266
-15985.080000	-19122.030000	-10604.070000	-3195.315000	-15316.650000	-9974.565000	-12999.285000	7373.160000	7.040672	-3.446945	-4.326561	-4.352887	-5.660497	-7.056947	-6.048366	11.257133	-1.098720	5.920880	-0.381500	0.878782	-0.091247	0.443480	-1.000000	-1.000000	-1.000000	-1.000000	-1.000000	-1.000000	-1.000000	58.620690	0.000000	-1.000000	-1.000000	1198601.000000	1772739795.126218
-16012.980000	-19130.580000	-10604.025000	-3195.405000	-15317.010000	-9982.620000	-12986.640000	7354.755000	4.868612	4.835238	2.478243	3.255421	1.417555	-0.126514	-0.957631	4.314833	-1.098720	5.920880	-0.381500	0.878782	-0.091247	0.443480	-1.000000	-1.000000	-1.000000	-1.000000	-1.000000	-1.000000	-1.000000	58.620690	0.000000	-1.000000	-1.000000	1198602.000000	1772739795.126228
-16037.370000	-19137.105000	-10600.110000	-3192.030000	-15314.895000	-9988.875000	-12981.555000	7323.750000	-5.794673	5.869698	4.346672	5.864451	4.281196	3.264109	2.522672	-9.691480	-1.098720	5.920880	-0.381500	0.878782	-0.091247	0.443480	-1.000000	-1.000000	-1.000000	-1.000000	-1.000000	-1.000000	-1.000000	58.620690	0.000000	-1.000000	-1.000000	1198603.000000	1772739795.126565
-15983.865000	-19092.960000	-10582.740000	-3181.365000	-15306.165000	-9979.695000	-12989.745000	7317.360000	-16.547849	0.808532	1.268007	3.189012	2.485199	2.297297	2.234718	-21.590561	-1.098720	5.920880	-0.381500	0.878782	-0.091247	0.443480	-1.000000	-1.000000	-1.000000	-1.000000	-1.000000	-1.000000	-1.000000	58.620690	0.000000	-1.000000	-1.000000	1198604.000000	1772739795.126573
-15956.145000	-19056.555000	-10557.180000	-3159.765000	-15286.500000	-9959.400000	-13001.850000	7298.370000	-17.101344	-2.413105	-1.242470	0.259719	0.320988	0.502159	-0.491897	-24.805302	-1.098720	5.920880	-0.381500	0.878782	-0.091247	0.443480	-1.000000	-1.000000	-1.000000	-1.000000	-1.000000	-1.000000	-1.000000	58.620690	0.000000	-1.000000	-1.000000	1198605.000000	1772739795.126581
-15955.560000	-19075.545000	-10569.870000	-3169.530000	-15293.655000	-9959.040000	-12998.385000	7322.445000	-6.322321	1.270978	0.827181	0.496353	0.774466	0.592964	-3.249585	-18.584666	-1.098720	5.920880	-0.381500	0.878782	-0.091247	0.443480	-1.000000	-1.000000	-1.000000	-1.000000	-1.000000	-1.000000	-1.000000	58.620690	0.000000	-1.000000	-1.000000	1198606.000000	1772739795.126585
-15994.440000	-19134.270000	-10608.210000	-3196.170000	-15314.400000	-9964.755000	-12992.265000	7358.355000	6.083132	6.645528	3.882071	0.982623	1.340707	0.898088	-4.165572	-5.016175	-1.098720	5.920880	-0.381500	0.878782	-0.091247	0.443480	-1.000000	-1.000000	-1.000000	-1.000000	-1.000000	-1.000000	-1.000000	58.620690	0.000000	-1.000000	-1.000000	1198607.000000	1772739795.129344
-16018.875000	-19157.670000	-10626.300000	-3211.875000	-15329.250000	-9978.255000	-13002.165000	7334.955000	9.595089	4.649861	1.442804	-2.601016	-1.770689	-1.489703	-2.954227	10.732726	-1.098720	5.920880	-0.381500	0.878782	-0.091247	0.443480	-1.000000	-1.000000	-1.000000	-1.000000	-1.000000	-1.000000	-1.000000	58.620690	0.000000	-1.000000	-1.000000	1198608.000000	1772739795.129349
-15982.965000	-19135.395000	-10622.970000	-3210.795000	-15332.130000	-9988.290000	-13000.590000	7356.780000	3.606941	-5.643195	-6.625531	-9.043006	-7.563951	-5.934392	-1.060135	19.722088	-1.098720	5.920880	-0.381500	0.878782	-0.091247	0.443480	-1.000000	-1.000000	-1.000000	-1.000000	-1.000000	-1.000000	-1.000000	58.620690	0.000000	-1.000000	-1.000000	1198609.000000	1772739795.133949
-15972.030000	-19133.550000	-10651.860000	-3205.665000	-15318.900000	-9980.505000	-12987.945000	7347.465000	-3.255592	-15.629263	-13.964587	-12.573320	-10.866291	-8.491194	0.195060	16.548113	-1.098720	5.920880	-0.381500	0.878782	-0.091247	0.443480	-1.000000	-1.000000	-1.000000	-1.000000	-1.000000	-1.000000	-1.000000	58.620690	0.000000	-1.000000	-1.000000	1198610.000000	1772739795.133956
-15960.600000	-19086.615000	-10611.315000	-3160.665000	-15273.405000	-9946.800000	-12956.445000	7319.430000	-3.412736	-16.347406	-14.722386	-8.814710	-7.393439	-5.582747	1.022556	5.128080	1.861720	6.546540	-0.091560	0.880979	-0.092590	0.446593	-1.000000	-1.000000	-1.000000	-1.000000	-1.000000	-1.000000	-1.000000	58.620690	0.000000	-1.000000	-1.000000	1198611.000000	1772739795.151949
-15974.685000	-19074.690000	-10551.915000	-3145.410000	-15271.290000	-9951.075000	-12979.440000	7288.785000	2.969331	-6.026150	-6.629555	1.723383	2.426594	2.631583	2.065497	-6.110548	1.861720	6.546540	-0.091560	0.880979	-0.092590	0.446593	-1.000000	-1.000000	-1.000000	-1.000000	-1.000000	-1.000000	-1.000000	58.620690	0.000000	-1.000000	-1.000000	1198612.000000	1772739795.151962
-16013.115000	-19129.995000	-10572.390000	-3207.645000	-15335.280000	-10001.520000	-13006.125000	7308.855000	8.503189	7.907250	7.838176	12.826712	12.130002	10.561281	2.515952	-11.136619	1.861720	6.546540	-0.091560	0.880979	-0.092590	0.446593	-1.000000	-1.000000	-1.000000	-1.000000	-1.000000	-1.000000	-1.000000	58.620690	0.000000	-1.000000	-1.000000	1198613.000000	1772739795.151971
-15997.230000	-19125.495000	-10597.095000	-3211.695000	-15333.930000	-9993.240000	-12995.865000	7305.075000	5.790919	14.386666	19.930981	15.775494	13.370823	11.028612	1.261138	-8.376893	1.861720	6.546540	-0.091560	0.880979	-0.092590	0.446593	-1.000000	-1.000000	-1.000000	-1.000000	-1.000000	-1.000000	-1.000000	58.620690	0.000000	-1.000000	-1.000000	1198614.000000	1772739795.151976
-15968.340000	-19112.715000	-10589.895000	-3188.700000	-15307.155000	-9960.525000	-12998.520000	7330.545000	-3.160989	10.616084	21.205323	8.427237	5.266913	3.645910	-0.792400	-0.584089	1.861720	6.546540	-0.091560	0.880979	-0.092590	0.446593	-1.000000	-1.000000	-1.000000	-1.000000	-1.000000	-1.000000	-1.000000	58.620690	0.000000	-1.000000	-1.000000	1198615.000000	1772739795.151980
-15975.900000	-19134.765000	-10606.050000	-3197.205000	-15315.165000	-9966.285000	-13008.105000	7339.230000	-9.007652	3.834062	12.090375	-1.910375	-4.210853	-4.515251	-2.079989	7.029935	1.861720	6.546540	-0.091560	0.880979	-0.092590	0.446593	-1.000000	-1.000000	-1.000000	-1.000000	-1.000000	-1.000000	-1.000000	58.620690	0.000000	-1.000000	-1.000000	1198616.000000	1772739795.151984
-15972.345000	-19141.245000	-10608.795000	-3197.520000	-15315.390000	-9971.325000	-12997.935000	7381.080000	-6.476240	0.186899	-0.549763	-7.397813	-7.814966	-7.386915	-2.073748	10.755835	1.861720	6.546540	-0.091560	0.880979	-0.092590	0.446593	-1.000000	-1.000000	-1.000000	-1.000000	-1.000000	-1.000000	-1.000000	58.620690	0.000000	-1.000000	-1.000000	1198617.000000	1772739795.151989
-15990.300000	-19121.670000	-10584.135000	-3174.480000	-15294.465000	-9957.465000	-12992.895000	7352.460000	0.674888	-0.554707	-9.918383	-6.121381	-4.723782	-4.389793	-0.737343	9.500084	1.861720	6.546540	-0.091560	0.880979	-0.092590	0.446593	-1.000000	-1.000000	-1.000000	-1.000000	-1.000000	-1.000000	-1.000000	58.620690	0.000000	-1.000000	-1.000000	1198618.000000	1772739795.151992
-16010.910000	-19077.120000	-10549.215000	-3143.340000	-15268.185000	-9943.290000	-12976.605000	7292.340000	4.941372	-0.170552	-11.698963	-0.522817	1.617975	1.469951	1.197014	2.937023	1.861720	6.546540	-0.091560	0.880979	-0.092590	0.446593	-1.000000	-1.000000	-1.000000	-1.000000	-1.000000	-1.000000	-1.000000	58.620690	0.000000	-1.000000	-1.000000	1198619.000000	1772739795.155709
-16030.620000	-19057.545000	-10540.710000	-3135.555000	-15260.130000	-9938.745000	-12957.930000	7237.710000	2.871359	0.826562	-6.660973	4.966942	6.472646	6.006475	2.522862	-7.529283	1.861720	6.546540	-0.091560	0.880979	-0.092590	0.446593	-1.000000	-1.000000	-1.000000	-1.000000	-1.000000	-1.000000	-1.000000	58.620690	0.000000	-1.000000	-1.000000	1198620.000000	1772739795.155718
-15980.940000	-19083.645000	-10575.810000	-3176.280000	-15302.655000	-9976.005000	-12987.900000	7329.240000	-1.928549	1.383696	-1.387429	6.023192	6.399364	6.171910	2.996847	-15.703603	0.244160	7.141680	0.930860	0.880857	-0.090637	0.447020	-1.000000	-1.000000	-1.000000	-1.000000	-1.000000	-1.000000	-1.000000	58.620690	0.000000	-1.000000	-1.000000	1198621.000000	1772739795.162749
-15984.450000	-19114.290000	-10597.455000	-3205.845000	-15330.555000	-9995.715000	-13004.595000	7371.270000	-2.983679	-0.199631	-1.634324	1.501496	1.348623	1.802823	2.558268	-13.107050	0.244160	7.141680	0.930860	0.880857	-0.090637	0.447020	-1.000000	-1.000000	-1.000000	-1.000000	-1.000000	-1.000000	-1.000000	58.620690	0.000000	-1.000000	-1.000000	1198622.000000	1772739795.162756
-16029.405000	-19128.690000	-10603.890000	-3204.315000	-15322.770000	-9977.130000	-13017.240000	7310.880000	0.480648	-4.359115	-6.089513	-5.807571	-5.739751	-4.613765	0.432102	0.263750	0.244160	7.141680	0.930860	0.880857	-0.090637	0.447020	-1.000000	-1.000000	-1.000000	-1.000000	-1.000000	-1.000000	-1.000000	58.620690	0.000000	-1.000000	-1.000000	1198623.000000	1772739795.162764
-16041.240000	-19155.150000	-10617.030000	-3208.320000	-15327.045000	-9976.005000	-13017.015000	7296.210000	2.511326	-9.254231	-9.089920	-11.412076	-10.914260	-9.440519	-3.105643	12.271877	0.244160	7.141680	0.930860	0.880857	-0.090637	0.447020	-1.000000	-1.000000	-1.000000	-1.000000	-1.000000	-1.000000	-1.000000	58.620690	0.000000	-1.000000	-1.000000	1198624.000000	1772739795.162769
-15997.770000	-19149.435000	-10617.255000	-3204.855000	-15320.790000	-9975.870000	-13001.490000	7368.120000	0.536458	-11.299503	-6.813246	-11.661902	-11.035363	-9.764753	-5.550316	13.007030	0.244160	7.141680	0.930860	0.880857	-0.090637	0.447020	-1.000000	-1.000000	-1.000000	-1.000000	-1.000000	-1.000000	-1.000000	58.620690	0.000000	-1.000000	-1.000000	1198625.000000	1772739795.166695
-16006.680000	-19145.520000	-10616.490000	-3199.275000	-15309.315000	-9967.950000	-12996.180000	7335.135000	-1.198647	-7.854718	0.184979	-5.850048	-5.402369	-4.957267	-4.448358	4.970605	0.244160	7.141680	0.930860	0.880857	-0.090637	0.447020	-1.000000	-1.000000	-1.000000	-1.000000	-1.000000	-1.000000	-1.000000	58.620690	0.000000	-1.000000	-1.000000	1198626.000000	1772739795.166706
-16039.935000	-19162.080000	-10629.405000	-3219.435000	-15336.855000	-10004.940000	-13016.970000	7289.370000	-0.006577	-0.693940	7.625486	2.418490	2.642228	2.033488	-0.763809	-4.623231	0.244160	7.141680	0.930860	0.880857	-0.090637	0.447020	-1.000000	-1.000000	-1.000000	-1.000000	-1.000000	-1.000000	-1.000000	58.620690	0.000000	-1.000000	-1.000000	1198627.000000	1772739795.170134
-16006.590000	-19117.125000	-10593.720000	-3193.470000	-15318.495000	-9999.315000	-13003.830000	7289.010000	2.530064	5.246155	10.816094	7.553447	7.340627	5.987208	1.779566	-10.112879	0.244160	7.141680	0.930860	0.880857	-0.090637	0.447020	-1.000000	-1.000000	-1.000000	-1.000000	-1.000000	-1.000000	-1.000000	58.620690	0.000000	-1.000000	-1.000000	1198628.000000	1772739795.170141
-15960.600000	-19080.585000	-10568.970000	-3169.890000	-15293.835000	-9970.290000	-12986.865000	7298.730000	5.575623	8.121184	9.304120	8.029312	6.972836	5.399129	1.776787	-7.921216	0.244160	7.141680	0.930860	0.880857	-0.090637	0.447020	-1.000000	-1.000000	-1.000000	-1.000000	-1.000000	-1.000000	-1.000000	58.620690	0.000000	-1.000000	-1.000000	1198629.000000	1772739795.173433
-15957.045000	-19104.930000	-10603.800000	-3201.795000	-15321.780000	-9990.405000	-13005.495000	7328.655000	8.620620	10.212262	6.432986	7.364284	5.639030	4.363446	1.758736	-0.390382	0.244160	7.141680	0.930860	0.880857	-0.090637	0.447020	-1.000000	-1.000000	-1.000000	-1.000000	-1.000000	-1.000000	-1.000000	58.620690	0.000000	-1.000000	-1.000000	1198630.000000	1772739795.173441
-15967.035000	-19123.245000	-10621.440000	-3216.465000	-15334.695000	-9994.320000	-12991.230000	7388.505000	8.884213	11.933121	4.011259	7.544522	6.035999	5.470957	3.658260	6.681290	-1.266580	7.034860	0.610400	0.881590	-0.088257	0.448241	-1.000000	-1.000000	-1.000000	-1.000000	-1.000000	-1.000000	-1.000000	58.620690	0.000000	-1.000000	-1.000000	1198631.000000	1772739795.199540
-15981.705000	-19082.160000	-10569.015000	-3159.945000	-15279.120000	-9936.990000	-12974.130000	7338.330000	4.419628	11.213260	1.963095	7.168439	6.570173	6.772615	6.527891	10.853445	-1.266580	7.034860	0.610400	0.881590	-0.088257	0.448241	-1.000000	-1.000000	-1.000000	-1.000000	-1.000000	-1.000000	-1.000000	58.620690	0.000000	-1.000000	-1.000000	1198632.000000	1772739795.199552
-15991.920000	-19060.065000	-10545.255000	-3139.020000	-15258.780000	-9922.635000	-12986.100000	7324.020000	-3.499802	8.415758	1.725582	6.061447	6.293185	6.785571	7.998502	10.268786	-1.266580	7.034860	0.610400	0.881590	-0.088257	0.448241	-1.000000	-1.000000	-1.000000	-1.000000	-1.000000	-1.000000	-1.000000	58.620690	0.000000	-1.000000	-1.000000	1198633.000000	1772739795.199564
-15957.765000	-19057.635000	-10548.225000	-3163.680000	-15279.030000	-9943.290000	-12991.545000	7297.650000	-11.573661	5.089569	3.748457	4.487005	5.056492	5.263849	5.424265	1.845997	-1.266580	7.034860	0.610400	0.881590	-0.088257	0.448241	-1.000000	-1.000000	-1.000000	-1.000000	-1.000000	-1.000000	-1.000000	58.620690	0.000000	-1.000000	-1.000000	1198634.000000	1772739795.199568
-15964.380000	-19088.820000	-10590.885000	-3203.865000	-15322.230000	-9989.325000	-12998.430000	7340.355000	-15.349253	-0.022850	4.031355	-0.048866	0.504288	0.499423	-1.610819	-10.895010	-1.266580	7.034860	0.610400	0.881590	-0.088257	0.448241	-1.000000	-1.000000	-1.000000	-1.000000	-1.000000	-1.000000	-1.000000	58.620690	0.000000	-1.000000	-1.000000	1198635.000000	1772739795.199572
-15977.070000	-19121.040000	-10626.615000	-3211.605000	-15332.715000	-10008.855000	-12998.790000	7381.125000	-12.112031	-9.146426	-2.277059	-9.133169	-8.630348	-8.153465	-9.626105	-16.122289	-1.266580	7.034860	0.610400	0.881590	-0.088257	0.448241	-1.000000	-1.000000	-1.000000	-1.000000	-1.000000	-1.000000	-1.000000	58.620690	0.000000	-1.000000	-1.000000	1198636.000000	1772739795.199576
-15989.715000	-19128.870000	-10606.995000	-3207.915000	-15332.490000	-10011.645000	-13011.030000	7341.570000	-4.786918	-21.385543	-14.558712	-19.218793	-18.594711	-17.155856	-14.367754	-7.172251	-1.266580	7.034860	0.610400	0.881590	-0.088257	0.448241	-1.000000	-1.000000	-1.000000	-1.000000	-1.000000	-1.000000	-1.000000	58.620690	0.000000	-1.000000	-1.000000	1198637.000000	1772739795.199580
-16003.710000	-19130.040000	-10612.530000	-3214.440000	-15339.555000	-10015.110000	-13013.820000	7326.765000	0.200332	-30.778575	-24.892293	-23.599455	-22.825686	-20.862921	-13.899352	7.100591	-1.266580	7.034860	0.610400	0.881590	-0.088257	0.448241	-1.000000	-1.000000	-1.000000	-1.000000	-1.000000	-1.000000	-1.000000	58.620690	0.000000	-1.000000	-1.000000	1198638.000000	1772739795.199584
-16006.860000	-19163.790000	-10636.740000	-3218.355000	-15331.005000	-9993.825000	-12989.430000	7353.270000	0.001758	-29.350625	-24.201149	-17.405204	-16.671960	-15.293965	-7.892448	12.575704	-1.266580	7.034860	0.610400	0.881590	-0.088257	0.448241	-1.000000	-1.000000	-1.000000	-1.000000	-1.000000	-1.000000	-1.000000	58.620690	0.000000	-1.000000	-1.000000	1198639.000000	1772739795.199588
-16012.935000	-19162.575000	-10625.085000	-3205.890000	-15316.290000	-9970.290000	-12995.325000	7329.060000	-1.824793	-14.887003	-11.027864	-2.143389	-1.471003	-1.410370	2.047729	5.577645	-1.266580	7.034860	0.610400	0.881590	-0.088257	0.448241	-1.000000	-1.000000	-1.000000	-1.000000	-1.000000	-1.000000	-1.000000	58.620690	0.000000	-1.000000	-1.000000	1198640.000000	1772739795.199592
-16011.675000	-19126.305000	-10593.135000	-3176.505000	-15289.650000	-9944.145000	-12987.405000	7312.410000	-0.251586	6.450338	7.470853	14.198009	14.884946	13.841268	11.231166	-6.271020	-3.937080	6.363420	0.595140	0.882810	-0.087463	0.448607	-1.000000	-1.000000	-1.000000	-1.000000	-1.000000	-1.000000	-1.000000	58.620690	0.000000	-1.000000	-1.000000	1198641.000000	1772739795.199596
-15974.100000	-19098.900000	-10578.330000	-3166.650000	-15284.700000	-9947.160000	-12975.255000	7333.470000	5.712876	25.666711	22.180054	23.505757	23.833729	22.376888	15.232221	-13.283348	-3.937080	6.363420	0.595140	0.882810	-0.087463	0.448607	-1.000000	-1.000000	-1.000000	-1.000000	-1.000000	-1.000000	-1.000000	58.620690	0.000000	-1.000000	-1.000000	1198642.000000	1772739795.199599
-15957.675000	-19103.940000	-10585.215000	-3177.540000	-15298.155000	-9966.330000	-12981.195000	7340.625000	12.881768	35.855369	27.672269	23.186722	22.383278	20.951804	13.250970	-10.729978	-3.937080	6.363420	0.595140	0.882810	-0.087463	0.448607	-1.000000	-1.000000	-1.000000	-1.000000	-1.000000	-1.000000	-1.000000	58.620690	0.000000	-1.000000	-1.000000	1198643.000000	1772739795.203168
-15987.645000	-19124.595000	-10605.240000	-3200.445000	-15321.870000	-9997.650000	-12992.220000	7347.105000	16.672715	33.745652	23.384420	15.366467	13.145348	11.807499	6.919830	-0.998011	-3.937080	6.363420	0.595140	0.882810	-0.087463	0.448607	-1.000000	-1.000000	-1.000000	-1.000000	-1.000000	-1.000000	-1.000000	58.620690	0.000000	-1.000000	-1.000000	1198644.000000	1772739795.203174
-15979.905000	-19112.130000	-10593.360000	-3189.780000	-15310.665000	-9988.380000	-12971.430000	7345.170000	13.916934	20.676703	12.225438	3.685870	0.964545	-0.080739	-1.011554	9.016210	-3.937080	6.363420	0.595140	0.882810	-0.087463	0.448607	-1.000000	-1.000000	-1.000000	-1.000000	-1.000000	-1.000000	-1.000000	58.620690	0.000000	-1.000000	-1.000000	1198645.000000	1772739795.208797
-15958.170000	-19070.505000	-10550.115000	-3143.790000	-15264.315000	-9937.935000	-12947.040000	7296.975000	5.510341	2.874268	-0.837388	-7.125394	-8.727889	-8.963865	-6.595973	13.345767	-3.937080	6.363420	0.595140	0.882810	-0.087463	0.448607	-1.000000	-1.000000	-1.000000	-1.000000	-1.000000	-1.000000	-1.000000	58.620690	0.000000	-1.000000	-1.000000	1198646.000000	1772739795.208802
-15982.335000	-19082.745000	-10562.805000	-3155.580000	-15277.320000	-9950.580000	-12996.540000	7242.705000	-4.206651	-11.323892	-10.087645	-11.948511	-11.499984	-10.730829	-7.653500	8.938736	-3.937080	6.363420	0.595140	0.882810	-0.087463	0.448607	-1.000000	-1.000000	-1.000000	-1.000000	-1.000000	-1.000000	-1.000000	58.620690	0.000000	-1.000000	-1.000000	1198647.000000	1772739795.209664
-15989.985000	-19113.345000	-10589.895000	-3177.450000	-15295.860000	-9956.700000	-12987.855000	7332.705000	-11.476266	-17.401422	-12.874473	-10.068911	-8.172721	-7.017053	-6.656575	-2.121961	-3.937080	6.363420	0.595140	0.882810	-0.087463	0.448607	-1.000000	-1.000000	-1.000000	-1.000000	-1.000000	-1.000000	-1.000000	58.620690	0.000000	-1.000000	-1.000000	1198648.000000	1772739795.209669
-16048.935000	-19146.105000	-10608.570000	-3188.790000	-15302.565000	-9953.865000	-12983.040000	7345.440000	-15.213145	-17.816505	-12.244650	-6.726022	-4.783743	-3.977282	-6.331649	-9.894008	-3.937080	6.363420	0.595140	0.882810	-0.087463	0.448607	-1.000000	-1.000000	-1.000000	-1.000000	-1.000000	-1.000000	-1.000000	58.620690	0.000000	-1.000000	-1.000000	1198649.000000	1772739795.213521
-16014.015000	-19116.450000	-10589.985000	-3176.955000	-15297.255000	-9957.285000	-12988.620000	7359.795000	-15.754946	-17.348132	-12.426349	-6.706774	-5.584787	-5.153218	-5.904582	-6.038097	-3.937080	6.363420	0.595140	0.882810	-0.087463	0.448607	-1.000000	-1.000000	-1.000000	-1.000000	-1.000000	-1.000000	-1.000000	58.620690	0.000000	-1.000000	-1.000000	1198650.000000	1772739795.213527
-15931.530000	-19077.390000	-10567.980000	-3161.565000	-15286.995000	-9955.170000	-13005.045000	7344.540000	-11.896446	-15.954448	-12.647391	-8.560543	-8.397464	-8.062274	-4.276563	5.288535	-1.754900	5.157880	-1.144500	0.880308	-0.090454	0.449645	-1.000000	-1.000000	-1.000000	-1.000000	-1.000000	-1.000000	-1.000000	58.620690	0.000000	-1.000000	-1.000000	1198651.000000	1772739795.224227
-15929.100000	-19096.155000	-10585.710000	-3179.115000	-15303.105000	-9975.555000	-13003.020000	7319.025000	-1.652797	-9.832767	-8.785772	-7.193209	-7.809121	-7.606972	-1.679424	12.640020	-1.754900	5.157880	-1.144500	0.880308	-0.090454	0.449645	-1.000000	-1.000000	-1.000000	-1.000000	-1.000000	-1.000000	-1.000000	58.620690	0.000000	-1.000000	-1.000000	1198652.000000	1772739795.224236
-15955.695000	-19131.750000	-10618.020000	-3211.335000	-15334.290000	-10008.270000	-12988.440000	7365.645000	11.837432	0.690816	-0.414525	-1.199529	-2.069179	-2.072982	1.839247	9.742829	-1.754900	5.157880	-1.144500	0.880308	-0.090454	0.449645	-1.000000	-1.000000	-1.000000	-1.000000	-1.000000	-1.000000	-1.000000	58.620690	0.000000	-1.000000	-1.000000	1198653.000000	1772739795.224248
-15957.270000	-19125.945000	-10645.245000	-3227.670000	-15348.690000	-10019.520000	-12993.570000	7376.895000	19.906813	9.451464	6.885256	4.783197	4.413929	4.440610	5.636524	1.030791	-1.754900	5.157880	-1.144500	0.880308	-0.090454	0.449645	-1.000000	-1.000000	-1.000000	-1.000000	-1.000000	-1.000000	-1.000000	58.620690	0.000000	-1.000000	-1.000000	1198654.000000	1772739795.224252
-15970.410000	-19130.490000	-10676.070000	-3220.470000	-15329.835000	-9993.375000	-12976.065000	7391.745000	16.535468	11.404618	7.221609	5.966729	6.681160	7.023042	8.051766	-4.352195	-1.754900	5.157880	-1.144500	0.880308	-0.090454	0.449645	-1.000000	-1.000000	-1.000000	-1.000000	-1.000000	-1.000000	-1.000000	58.620690	0.000000	-1.000000	-1.000000	1198655.000000	1772739795.225457
-15965.280000	-19136.340000	-10642.545000	-3197.745000	-15306.795000	-9966.420000	-12972.150000	7381.080000	4.396296	7.880265	2.081094	3.818890	5.701971	6.289026	8.762871	-3.204355	-1.754900	5.157880	-1.144500	0.880308	-0.090454	0.449645	-1.000000	-1.000000	-1.000000	-1.000000	-1.000000	-1.000000	-1.000000	58.620690	0.000000	-1.000000	-1.000000	1198656.000000	1772739795.225465
-16018.650000	-19129.410000	-10578.105000	-3187.395000	-15309.405000	-9965.565000	-13000.815000	7322.265000	-8.337103	4.338702	0.317682	3.739316	5.818376	6.030997	7.804702	-1.821059	-1.754900	5.157880	-1.144500	0.880308	-0.090454	0.449645	-1.000000	-1.000000	-1.000000	-1.000000	-1.000000	-1.000000	-1.000000	58.620690	0.000000	-1.000000	-1.000000	1198657.000000	1772739795.229558
-16045.020000	-19130.265000	-10583.685000	-3201.480000	-15324.255000	-9980.820000	-13018.005000	7271.640000	-15.568994	4.141658	7.396578	7.035895	7.424496	6.503250	3.518034	-7.860593	-1.754900	5.157880	-1.144500	0.880308	-0.090454	0.449645	-1.000000	-1.000000	-1.000000	-1.000000	-1.000000	-1.000000	-1.000000	58.620690	0.000000	-1.000000	-1.000000	1198658.000000	1772739795.229567
-16031.025000	-19126.620000	-10595.295000	-3185.955000	-15306.840000	-9969.615000	-13008.375000	7262.910000	-16.701728	5.093194	17.000582	9.405438	7.125060	5.128578	-3.822505	-19.676152	-1.754900	5.157880	-1.144500	0.880308	-0.090454	0.449645	-1.000000	-1.000000	-1.000000	-1.000000	-1.000000	-1.000000	-1.000000	58.620690	0.000000	-1.000000	-1.000000	1198659.000000	1772739795.235296
-15995.430000	-19083.870000	-10556.505000	-3151.845000	-15278.850000	-9953.820000	-12988.395000	7313.490000	-13.729493	3.677105	18.835380	7.842816	4.044164	1.953698	-9.463322	-25.979386	-1.754900	5.157880	-1.144500	0.880308	-0.090454	0.449645	-1.000000	-1.000000	-1.000000	-1.000000	-1.000000	-1.000000	-1.000000	58.620690	0.000000	-1.000000	-1.000000	1198660.000000	1772739795.235303
-15956.370000	-19054.125000	-10527.705000	-3137.220000	-15269.310000	-9956.520000	-12970.530000	7355.970000	-6.390198	1.472178	11.692292	4.635928	1.357750	-0.005212	-8.722530	-16.388474	3.204600	4.822160	-0.350980	0.875242	-0.092712	0.449645	-1.000000	-1.000000	-1.000000	-1.000000	-1.000000	-1.000000	-1.000000	58.620690	0.000000	-1.000000	-1.000000	1198661.000000	1772739795.237644
-15974.775000	-19079.910000	-10551.690000	-3155.940000	-15281.190000	-9966.420000	-12976.785000	7331.985000	6.016289	1.881086	1.891584	2.663635	1.234803	0.673470	-2.420158	6.474126	3.204600	4.822160	-0.350980	0.875242	-0.092712	0.449645	-1.000000	-1.000000	-1.000000	-1.000000	-1.000000	-1.000000	-1.000000	58.620690	0.000000	-1.000000	-1.000000	1198662.000000	1772739795.237653
-16019.415000	-19136.745000	-10609.695000	-3205.890000	-15325.155000	-9996.615000	-12996.045000	7301.475000	17.993320	2.157343	-7.134224	0.074336	0.896684	1.099811	3.720004	27.445234	3.204600	4.822160	-0.350980	0.875242	-0.092712	0.449645	-1.000000	-1.000000	-1.000000	-1.000000	-1.000000	-1.000000	-1.000000	58.620690	0.000000	-1.000000	-1.000000	1198663.000000	1772739795.243616
-15996.735000	-19134.495000	-10614.600000	-3210.795000	-15329.925000	-9991.530000	-12983.670000	7321.230000	21.244544	-2.907397	-15.789984	-6.691042	-4.057482	-2.685559	4.953276	33.430411	3.204600	4.822160	-0.350980	0.875242	-0.092712	0.449645	-1.000000	-1.000000	-1.000000	-1.000000	-1.000000	-1.000000	-1.000000	58.620690	0.000000	-1.000000	-1.000000	1198664.000000	1772739795.243624
-16029.720000	-19143.180000	-10609.740000	-3200.085000	-15314.895000	-9965.115000	-12986.505000	7299.045000	14.408840	-11.422632	-22.663529	-15.864713	-12.571136	-9.685429	1.847141	23.678678	3.204600	4.822160	-0.350980	0.875242	-0.092712	0.449645	-1.000000	-1.000000	-1.000000	-1.000000	-1.000000	-1.000000	-1.000000	58.620690	0.000000	-1.000000	-1.000000	1198665.000000	1772739795.245653
-16049.880000	-19153.845000	-10617.030000	-3204.630000	-15319.620000	-9971.910000	-13002.345000	7311.150000	3.254996	-16.418107	-24.628457	-20.742861	-17.844963	-14.000039	-1.739223	7.022609	3.204600	4.822160	-0.350980	0.875242	-0.092712	0.449645	-1.000000	-1.000000	-1.000000	-1.000000	-1.000000	-1.000000	-1.000000	58.620690	0.000000	-1.000000	-1.000000	1198666.000000	1772739795.245660
-15968.205000	-19144.755000	-10625.850000	-3216.105000	-15333.300000	-9991.215000	-12997.845000	7372.485000	-4.910296	-14.104078	-19.883185	-16.964227	-14.986239	-11.710784	-3.071210	-5.174579	3.204600	4.822160	-0.350980	0.875242	-0.092712	0.449645	-1.000000	-1.000000	-1.000000	-1.000000	-1.000000	-1.000000	-1.000000	58.620690	0.000000	-1.000000	-1.000000	1198667.000000	1772739795.249619
