Channel1	Channel2	Channel3	Channel4	Channel5	Channel6	Channel7	Channel8	FilteredChannel1	FilteredChannel2	FilteredChannel3	FilteredChannel4	FilteredChannel5	FilteredChannel6	FilteredChannel7	FilteredChannel8	GyroX	GyroY	GyroZ	AccX	AccY	AccZ	PPG1	PPG2	rawPPG1	rawPPG2	rawPPG3	Hr	Hrv	Battery	Trigger	PhysicalTrigger	AutoTrigger	NumMeasurements	Timestamp
16646.940000	20483.595000	28158.030000	39914.235000	16031.520000	-1258.155000	-5911.470000	-1401.165000	-5.879552	-4.556749	-3.734609	-3.224740	-2.595380	-3.341422	0.690085	-4.480180	-4.623780	3.036740	-3.097780	-0.800230	-0.362975	0.423217	-1.000000	-1.000000	-1.000000	-1.000000	-1.000000	-1.000000	-1.000000	86.000000	0.000000	-1.000000	-1.000000	632094.000000	1769635075.086098
16601.535000	20422.440000	28094.895000	39861.630000	15983.460000	-1290.915000	-5908.905000	-1422.540000	0.067600	-4.725833	-4.079898	-2.616811	-1.807402	-3.228733	-3.824256	-0.852481	-4.623780	3.036740	-3.097780	-0.800230	-0.362975	0.423217	-1.000000	-1.000000	-1.000000	-1.000000	-1.000000	-1.000000	-1.000000	86.000000	0.000000	-1.000000	-1.000000	632095.000000	1769635075.088206
16608.915000	20426.400000	28108.170000	39878.100000	15999.570000	-1280.295000	-5914.890000	-1419.030000	3.498819	-6.680625	-6.168278	-2.579286	-1.488505	-2.855690	-7.115332	2.016056	-4.623780	3.036740	-3.097780	-0.800230	-0.362975	0.423217	-1.000000	-1.000000	-1.000000	-1.000000	-1.000000	-1.000000	-1.000000	86.000000	0.000000	-1.000000	-1.000000	632096.000000	1769635075.088218
16631.820000	20456.955000	28137.870000	39901.230000	16018.740000	-1270.935000	-5922.270000	-1406.025000	2.104708	-10.170728	-9.359738	-3.717920	-2.537339	-3.259220	-7.852999	2.259547	-4.303320	3.128300	-1.999060	-0.801023	-0.363402	0.423461	-1.000000	-1.000000	-1.000000	-1.000000	-1.000000	-1.000000	-1.000000	86.000000	0.000000	-1.000000	-1.000000	632097.000000	1769635075.092327
16631.910000	20458.170000	28135.980000	39898.665000	16017.345000	-1271.070000	-5922.405000	-1408.905000	-0.530091	-10.926317	-9.608583	-3.730791	-2.895281	-3.047406	-5.714428	1.305664	-4.303320	3.128300	-1.999060	-0.801023	-0.363402	0.423461	-1.000000	-1.000000	-1.000000	-1.000000	-1.000000	-1.000000	-1.000000	86.000000	0.000000	-1.000000	-1.000000	632098.000000	1769635075.092339
16642.260000	20458.260000	28133.685000	39897.360000	16019.235000	-1268.145000	-5925.285000	-1400.580000	-0.153025	-5.818054	-4.776946	-1.219517	-0.950985	-0.708773	-1.339958	1.384539	-4.303320	3.128300	-1.999060	-0.801023	-0.363402	0.423461	-1.000000	-1.000000	-1.000000	-1.000000	-1.000000	-1.000000	-1.000000	86.000000	0.000000	-1.000000	-1.000000	632099.000000	1769635075.096126
16638.795000	20454.345000	28133.055000	39898.035000	16020.045000	-1269.045000	-5925.870000	-1402.695000	3.896485	4.489645	4.170908	3.596132	3.306164	3.575162	2.958005	2.908732	-4.303320	3.128300	-1.999060	-0.801023	-0.363402	0.423461	-1.000000	-1.000000	-1.000000	-1.000000	-1.000000	-1.000000	-1.000000	86.000000	0.000000	-1.000000	-1.000000	632100.000000	1769635075.096138
16626.960000	20454.795000	28137.645000	39902.445000	16022.520000	-1268.145000	-5925.420000	-1412.415000	7.569412	14.664832	12.964396	8.247055	7.412448	7.211912	4.821143	3.756950	-4.303320	3.128300	-1.999060	-0.801023	-0.363402	0.423461	-1.000000	-1.000000	-1.000000	-1.000000	-1.000000	-1.000000	-1.000000	86.000000	0.000000	-1.000000	-1.000000	632101.000000	1769635075.100715
16621.605000	20452.005000	28134.360000	39898.350000	16020.450000	-1266.930000	-5920.965000	-1414.170000	5.594447	17.196575	15.262109	8.462674	7.286437	6.969673	4.406336	1.557649	-4.303320	3.128300	-1.999060	-0.801023	-0.363402	0.423461	-1.000000	-1.000000	-1.000000	-1.000000	-1.000000	-1.000000	-1.000000	86.000000	0.000000	-1.000000	-1.000000	632102.000000	1769635075.100730
16627.860000	20458.620000	28136.880000	39898.260000	16018.110000	-1268.640000	-5916.735000	-1411.065000	-1.745541	10.108641	9.127390	3.283908	2.255897	2.760260	3.359735	-2.794958	-4.303320	3.128300	-1.999060	-0.801023	-0.363402	0.423461	-1.000000	-1.000000	-1.000000	-1.000000	-1.000000	-1.000000	-1.000000	86.000000	0.000000	-1.000000	-1.000000	632103.000000	1769635075.104157
16634.340000	20467.170000	28143.180000	39901.950000	16019.505000	-1268.280000	-5913.855000	-1407.555000	-8.055582	-0.128918	0.115600	-2.745781	-3.329211	-2.000465	2.457864	-5.660309	-4.303320	3.128300	-1.999060	-0.801023	-0.363402	0.423461	-1.000000	-1.000000	-1.000000	-1.000000	-1.000000	-1.000000	-1.000000	86.000000	0.000000	-1.000000	-1.000000	632104.000000	1769635075.104169
16629.930000	20461.320000	28136.970000	39897.135000	16016.355000	-1269.990000	-5918.085000	-1410.525000	-8.519612	-6.393977	-5.649248	-5.424313	-5.688345	-4.485904	1.613255	-4.932453	-4.303320	3.128300	-1.999060	-0.801023	-0.363402	0.423461	-1.000000	-1.000000	-1.000000	-1.000000	-1.000000	-1.000000	-1.000000	86.000000	0.000000	-1.000000	-1.000000	632105.000000	1769635075.108418
16633.710000	20463.480000	28139.535000	39902.490000	16023.780000	-1261.755000	-5914.755000	-1408.500000	-4.614594	-8.076366	-7.774653	-5.347440	-5.323960	-4.682989	0.808844	-1.939322	-4.303320	3.128300	-1.999060	-0.801023	-0.363402	0.423461	-1.000000	-1.000000	-1.000000	-1.000000	-1.000000	-1.000000	-1.000000	86.000000	0.000000	-1.000000	-1.000000	632106.000000	1769635075.108428
16637.580000	20469.420000	28144.665000	39906.180000	16028.325000	-1257.570000	-5912.595000	-1405.800000	-0.148565	-7.696812	-8.112823	-4.439931	-3.871473	-3.370926	0.252491	1.055107	-3.021480	3.555580	-1.754900	-0.802915	-0.361144	0.419799	-1.000000	-1.000000	-1.000000	-1.000000	-1.000000	-1.000000	-1.000000	86.000000	0.000000	-1.000000	-1.000000	632107.000000	1769635075.112198
16636.095000	20464.695000	28139.805000	39899.745000	16018.110000	-1275.030000	-5934.870000	-1405.665000	3.037376	-5.611397	-6.312002	-2.616516	-1.577242	-1.124703	-0.463052	2.960745	-3.021480	3.555580	-1.754900	-0.802915	-0.361144	0.419799	-1.000000	-1.000000	-1.000000	-1.000000	-1.000000	-1.000000	-1.000000	86.000000	0.000000	-1.000000	-1.000000	632108.000000	1769635075.112210
16634.610000	20454.660000	28132.605000	39895.830000	16015.905000	-1275.480000	-5936.670000	-1402.470000	4.497468	-1.768049	-2.165057	0.138092	0.993025	0.722592	-2.342248	3.488619	-3.021480	3.555580	-1.754900	-0.802915	-0.361144	0.419799	-1.000000	-1.000000	-1.000000	-1.000000	-1.000000	-1.000000	-1.000000	86.000000	0.000000	-1.000000	-1.000000	632109.000000	1769635075.116346
16623.405000	20451.690000	28131.210000	39896.190000	16017.885000	-1270.935000	-5914.530000	-1409.085000	3.889964	1.626485	1.859833	2.125089	2.287382	1.003904	-4.625249	2.709484	-3.021480	3.555580	-1.754900	-0.802915	-0.361144	0.419799	-1.000000	-1.000000	-1.000000	-1.000000	-1.000000	-1.000000	-1.000000	86.000000	0.000000	-1.000000	-1.000000	632110.000000	1769635075.116360
16616.295000	20448.810000	28126.980000	39893.085000	16017.255000	-1264.455000	-5903.235000	-1414.665000	1.349145	2.397258	3.249482	2.108566	1.781108	0.291901	-4.617607	0.958475	-3.021480	3.555580	-1.754900	-0.802915	-0.361144	0.419799	-1.000000	-1.000000	-1.000000	-1.000000	-1.000000	-1.000000	-1.000000	86.000000	0.000000	-1.000000	-1.000000	632111.000000	1769635075.120135
16637.805000	20470.815000	28147.275000	39911.355000	16030.755000	-1260.000000	-5909.265000	-1406.385000	-1.533631	1.407606	2.644374	1.296274	1.005710	0.248091	-1.503566	-1.046019	-3.021480	3.555580	-1.754900	-0.802915	-0.361144	0.419799	-1.000000	-1.000000	-1.000000	-1.000000	-1.000000	-1.000000	-1.000000	86.000000	0.000000	-1.000000	-1.000000	632112.000000	1769635075.120145
16637.895000	20475.045000	28156.005000	39922.065000	16039.665000	-1261.395000	-5918.715000	-1407.105000	-2.417888	1.285322	2.561673	1.771209	1.693950	1.515452	2.202275	-2.202415	-3.021480	3.555580	-1.754900	-0.802915	-0.361144	0.419799	-1.000000	-1.000000	-1.000000	-1.000000	-1.000000	-1.000000	-1.000000	86.000000	0.000000	-1.000000	-1.000000	632113.000000	1769635075.124255
16600.410000	20428.605000	28108.260000	39873.870000	15994.305000	-1294.290000	-5927.895000	-1423.620000	-1.394717	2.055845	3.013274	2.844328	2.765017	2.386297	3.619006	-2.232198	-3.021480	3.555580	-1.754900	-0.802915	-0.361144	0.419799	-1.000000	-1.000000	-1.000000	-1.000000	-1.000000	-1.000000	-1.000000	86.000000	0.000000	-1.000000	-1.000000	632114.000000	1769635075.124269
16584.480000	20411.370000	28087.830000	39851.145000	15978.330000	-1286.460000	-5883.120000	-1428.840000	-1.360038	0.623414	0.916817	0.983860	0.843892	0.651397	2.727026	-2.073317	-3.021480	3.555580	-1.754900	-0.802915	-0.361144	0.419799	-1.000000	-1.000000	-1.000000	-1.000000	-1.000000	-1.000000	-1.000000	86.000000	0.000000	-1.000000	-1.000000	632115.000000	1769635075.128917
16623.945000	20460.105000	28136.385000	39897.945000	16020.000000	-1256.715000	-5879.790000	-1412.100000	-2.969900	-3.075042	-3.714798	-3.954128	-3.913409	-2.385027	2.198577	-1.993520	-3.021480	3.555580	-1.754900	-0.802915	-0.361144	0.419799	-1.000000	-1.000000	-1.000000	-1.000000	-1.000000	-1.000000	-1.000000	86.000000	0.000000	-1.000000	-1.000000	632116.000000	1769635075.128929
16663.365000	20498.580000	28171.710000	39928.455000	16042.680000	-1252.665000	-5928.525000	-1388.745000	-2.335525	-3.527339	-5.080897	-6.025925	-5.855688	-2.559652	2.844791	-0.668269	-4.837420	3.692920	-1.434440	-0.800657	-0.361022	0.420165	-1.000000	-1.000000	-1.000000	-1.000000	-1.000000	-1.000000	-1.000000	86.000000	0.000000	-1.000000	-1.000000	632117.000000	1769635075.132324
16642.170000	20466.045000	28133.280000	39887.955000	16003.845000	-1286.055000	-5940.720000	-1394.235000	3.012401	2.271616	0.076764	-1.631259	-1.872809	0.781365	1.556064	2.594507	-4.837420	3.692920	-1.434440	-0.800657	-0.361022	0.420165	-1.000000	-1.000000	-1.000000	-1.000000	-1.000000	-1.000000	-1.000000	86.000000	0.000000	-1.000000	-1.000000	632118.000000	1769635075.132340
16642.935000	20468.115000	28131.705000	39883.140000	15997.770000	-1291.950000	-5937.750000	-1397.070000	9.334628	9.117802	6.628665	4.539682	3.540826	3.194826	-3.579325	5.923574	-4.837420	3.692920	-1.434440	-0.800657	-0.361022	0.420165	-1.000000	-1.000000	-1.000000	-1.000000	-1.000000	-1.000000	-1.000000	86.000000	0.000000	-1.000000	-1.000000	632119.000000	1769635075.139191
16648.470000	20479.095000	28144.035000	39896.460000	16011.045000	-1279.665000	-5931.765000	-1395.855000	11.114614	10.387183	8.240192	6.579109	5.176383	1.684662	-9.456949	6.614469	-4.837420	3.692920	-1.434440	-0.800657	-0.361022	0.420165	-1.000000	-1.000000	-1.000000	-1.000000	-1.000000	-1.000000	-1.000000	86.000000	0.000000	-1.000000	-1.000000	632120.000000	1769635075.139205
16644.195000	20488.095000	28158.795000	39912.345000	16025.895000	-1263.465000	-5914.665000	-1397.430000	6.578331	5.201806	4.458078	4.164411	3.202743	-1.476110	-10.792783	3.777247	-4.837420	3.692920	-1.434440	-0.800657	-0.361022	0.420165	-1.000000	-1.000000	-1.000000	-1.000000	-1.000000	-1.000000	-1.000000	86.000000	0.000000	-1.000000	-1.000000	632121.000000	1769635075.141738
16620.300000	20465.100000	28143.675000	39908.610000	16023.645000	-1265.490000	-5915.070000	-1415.385000	-2.098435	-2.880498	-1.291662	0.429090	0.671799	-2.433763	-5.059806	-1.355722	-4.837420	3.692920	-1.434440	-0.800657	-0.361022	0.420165	-1.000000	-1.000000	-1.000000	-1.000000	-1.000000	-1.000000	-1.000000	86.000000	0.000000	-1.000000	-1.000000	632122.000000	1769635075.141749
16612.110000	20436.345000	28117.620000	39893.355000	16012.935000	-1273.815000	-5923.890000	-1418.220000	-10.351267	-9.616539	-5.640575	-1.759181	-0.193149	-0.191023	4.566562	-6.332521	-4.837420	3.692920	-1.434440	-0.800657	-0.361022	0.420165	-1.000000	-1.000000	-1.000000	-1.000000	-1.000000	-1.000000	-1.000000	86.000000	0.000000	-1.000000	-1.000000	632123.000000	1769635075.144413
16622.190000	20450.205000	28128.330000	39896.865000	16014.555000	-1274.940000	-5927.670000	-1411.470000	-13.665748	-12.259960	-7.058603	-1.713294	0.511916	2.711476	11.058389	-8.562945	-4.837420	3.692920	-1.434440	-0.800657	-0.361022	0.420165	-1.000000	-1.000000	-1.000000	-1.000000	-1.000000	-1.000000	-1.000000	86.000000	0.000000	-1.000000	-1.000000	632124.000000	1769635075.144425
16632.720000	20475.270000	28147.950000	39906.045000	16019.955000	-1274.400000	-5925.330000	-1403.775000	-10.987986	-10.346427	-6.062423	-1.294113	0.576658	2.960251	10.389519	-7.026205	-4.837420	3.692920	-1.434440	-0.800657	-0.361022	0.420165	-1.000000	-1.000000	-1.000000	-1.000000	-1.000000	-1.000000	-1.000000	86.000000	0.000000	-1.000000	-1.000000	632125.000000	1769635075.148190
16627.635000	20489.805000	28156.185000	39904.650000	16018.110000	-1274.895000	-5922.270000	-1409.580000	-5.085179	-4.941395	-3.708541	-2.260740	-1.442342	0.179339	5.520989	-3.134855	-4.837420	3.692920	-1.434440	-0.800657	-0.361022	0.420165	-1.000000	-1.000000	-1.000000	-1.000000	-1.000000	-1.000000	-1.000000	86.000000	0.000000	-1.000000	-1.000000	632126.000000	1769635075.148205
16632.945000	20504.835000	28167.975000	39910.275000	16022.205000	-1267.065000	-5917.455000	-1408.860000	1.034995	2.619545	0.002439	-3.413804	-3.761815	-2.576534	1.555713	0.870701	-3.494540	5.234180	-0.549360	-0.797422	-0.363219	0.423522	-1.000000	-1.000000	-1.000000	-1.000000	-1.000000	-1.000000	-1.000000	86.000000	0.000000	-1.000000	-1.000000	632127.000000	1769635075.152299
16637.265000	20469.285000	28145.880000	39910.500000	16024.545000	-1263.105000	-5910.840000	-1400.940000	6.125144	9.644594	4.525535	-2.420565	-3.621579	-2.468390	-0.077084	3.902396	-3.494540	5.234180	-0.549360	-0.797422	-0.363219	0.423522	-1.000000	-1.000000	-1.000000	-1.000000	-1.000000	-1.000000	-1.000000	86.000000	0.000000	-1.000000	-1.000000	632128.000000	1769635075.152313
16628.580000	20454.255000	28128.915000	39901.140000	16017.210000	-1268.730000	-5907.555000	-1401.705000	9.066052	11.243152	6.509859	0.122193	-1.291336	-0.226608	-0.917635	5.741310	-3.494540	5.234180	-0.549360	-0.797422	-0.363219	0.423522	-1.000000	-1.000000	-1.000000	-1.000000	-1.000000	-1.000000	-1.000000	86.000000	0.000000	-1.000000	-1.000000	632129.000000	1769635075.156224
16637.535000	20482.020000	28159.785000	39920.400000	16033.455000	-1260.720000	-5916.330000	-1401.300000	8.771750	5.639752	3.576006	1.556074	0.644415	1.257114	-2.446511	6.089785	-3.494540	5.234180	-0.549360	-0.797422	-0.363219	0.423522	-1.000000	-1.000000	-1.000000	-1.000000	-1.000000	-1.000000	-1.000000	86.000000	0.000000	-1.000000	-1.000000	632130.000000	1769635075.156236
16649.910000	20483.145000	28160.505000	39918.420000	16032.870000	-1261.935000	-5933.745000	-1395.945000	6.477115	-1.595535	-0.878252	1.542469	1.360365	0.926750	-4.907403	5.115295	-3.494540	5.234180	-0.549360	-0.797422	-0.363219	0.423522	-1.000000	-1.000000	-1.000000	-1.000000	-1.000000	-1.000000	-1.000000	86.000000	0.000000	-1.000000	-1.000000	632131.000000	1769635075.161776
16633.620000	20436.255000	28104.660000	39883.320000	16003.980000	-1285.020000	-5944.230000	-1399.770000	4.332162	-4.376459	-2.467286	1.436456	1.652459	-0.261186	-7.470697	3.454133	-3.494540	5.234180	-0.549360	-0.797422	-0.363219	0.423522	-1.000000	-1.000000	-1.000000	-1.000000	-1.000000	-1.000000	-1.000000	86.000000	0.000000	-1.000000	-1.000000	632132.000000	1769635075.161790
16618.725000	20434.635000	28098.405000	39874.230000	15993.630000	-1286.415000	-5920.245000	-1409.400000	1.580595	-3.848007	-2.611455	0.496802	0.826012	-1.880556	-8.323403	0.887291	-3.494540	5.234180	-0.549360	-0.797422	-0.363219	0.423522	-1.000000	-1.000000	-1.000000	-1.000000	-1.000000	-1.000000	-1.000000	86.000000	0.000000	-1.000000	-1.000000	632133.000000	1769635075.164093
16627.185000	20450.160000	28118.025000	39891.465000	16008.930000	-1269.495000	-5903.415000	-1402.920000	-3.573797	-4.167558	-4.366345	-2.268154	-1.788880	-3.342952	-5.047715	-2.980244	-3.494540	5.234180	-0.549360	-0.797422	-0.363219	0.423522	-1.000000	-1.000000	-1.000000	-1.000000	-1.000000	-1.000000	-1.000000	86.000000	0.000000	-1.000000	-1.000000	632134.000000	1769635075.164101
16632.945000	20460.780000	28130.355000	39901.995000	16018.920000	-1265.220000	-5909.805000	-1397.880000	-9.169510	-5.268713	-5.991058	-4.433887	-3.812745	-2.796711	2.356628	-6.571088	-3.494540	5.234180	-0.549360	-0.797422	-0.363219	0.423522	-1.000000	-1.000000	-1.000000	-1.000000	-1.000000	-1.000000	-1.000000	86.000000	0.000000	-1.000000	-1.000000	632135.000000	1769635075.172881
16632.495000	20465.595000	28134.765000	39904.020000	16019.955000	-1265.130000	-5912.235000	-1398.690000	-10.988214	-4.066511	-3.797729	-2.872471	-2.407509	0.326093	9.445742	-7.353673	-3.494540	5.234180	-0.549360	-0.797422	-0.363219	0.423522	-1.000000	-1.000000	-1.000000	-1.000000	-1.000000	-1.000000	-1.000000	86.000000	0.000000	-1.000000	-1.000000	632136.000000	1769635075.172894
16629.705000	20468.160000	28136.610000	39906.045000	16020.225000	-1267.695000	-5924.205000	-1403.820000	-7.678399	0.877820	2.513088	1.854210	1.749626	3.819901	11.034812	-4.944348	-4.532220	6.683880	-0.381500	-0.796141	-0.364989	0.425841	-1.000000	-1.000000	-1.000000	-1.000000	-1.000000	-1.000000	-1.000000	86.000000	0.000000	-1.000000	-1.000000	632137.000000	1769635075.172916
16629.660000	20471.625000	28139.940000	39907.485000	16021.395000	-1264.590000	-5914.350000	-1403.190000	-1.516162	7.463530	9.373828	6.211106	5.342340	5.070145	6.150822	-1.220355	-4.532220	6.683880	-0.381500	-0.796141	-0.364989	0.425841	-1.000000	-1.000000	-1.000000	-1.000000	-1.000000	-1.000000	-1.000000	86.000000	0.000000	-1.000000	-1.000000	632138.000000	1769635075.172922
16629.345000	20477.610000	28145.295000	39903.660000	16018.695000	-1257.975000	-5894.730000	-1404.135000	4.232900	11.400907	12.194251	7.050316	5.716830	3.543742	-0.961600	1.983747	-4.532220	6.683880	-0.381500	-0.796141	-0.364989	0.425841	-1.000000	-1.000000	-1.000000	-1.000000	-1.000000	-1.000000	-1.000000	86.000000	0.000000	-1.000000	-1.000000	632139.000000	1769635075.176251
16639.515000	20494.935000	28159.470000	39916.530000	16026.435000	-1258.740000	-5907.105000	-1402.335000	7.456387	10.573311	9.677938	4.348779	3.100814	0.890973	-4.792731	3.868961	-4.532220	6.683880	-0.381500	-0.796141	-0.364989	0.425841	-1.000000	-1.000000	-1.000000	-1.000000	-1.000000	-1.000000	-1.000000	86.000000	0.000000	-1.000000	-1.000000	632140.000000	1769635075.176266
16626.960000	20461.410000	28127.610000	39908.205000	16019.505000	-1274.130000	-5924.970000	-1409.175000	7.812188	6.530782	4.610168	1.097112	0.183892	-1.015153	-4.280230	4.233169	-4.532220	6.683880	-0.381500	-0.796141	-0.364989	0.425841	-1.000000	-1.000000	-1.000000	-1.000000	-1.000000	-1.000000	-1.000000	86.000000	0.000000	-1.000000	-1.000000	632141.000000	1769635075.183967
16628.580000	20454.030000	28118.475000	39899.520000	16011.495000	-1279.440000	-5923.395000	-1404.585000	5.731901	0.457704	-1.042772	-0.837477	-1.318697	-2.062315	-2.852471	3.215393	-4.532220	6.683880	-0.381500	-0.796141	-0.364989	0.425841	-1.000000	-1.000000	-1.000000	-1.000000	-1.000000	-1.000000	-1.000000	86.000000	0.000000	-1.000000	-1.000000	632142.000000	1769635075.183985
16642.440000	20478.510000	28139.535000	39909.240000	16022.430000	-1256.490000	-5892.345000	-1392.300000	2.050317	-7.066184	-7.159312	-2.453250	-2.145255	-2.898711	-2.614967	1.527758	-4.532220	6.683880	-0.381500	-0.796141	-0.364989	0.425841	-1.000000	-1.000000	-1.000000	-1.000000	-1.000000	-1.000000	-1.000000	86.000000	0.000000	-1.000000	-1.000000	632143.000000	1769635075.184169
16640.595000	20478.105000	28138.905000	39909.375000	16022.205000	-1250.595000	-5877.135000	-1394.505000	-1.591984	-12.912958	-11.847670	-4.413456	-3.019636	-2.880493	-1.778292	0.177486	-4.532220	6.683880	-0.381500	-0.796141	-0.364989	0.425841	-1.000000	-1.000000	-1.000000	-1.000000	-1.000000	-1.000000	-1.000000	86.000000	0.000000	-1.000000	-1.000000	632144.000000	1769635075.184181
16647.390000	20491.020000	28153.485000	39920.580000	16027.695000	-1265.670000	-5925.015000	-1396.350000	-3.701840	-13.381759	-12.141195	-5.539338	-3.411931	-1.445236	0.717590	-0.501632	-4.532220	6.683880	-0.381500	-0.796141	-0.364989	0.425841	-1.000000	-1.000000	-1.000000	-1.000000	-1.000000	-1.000000	-1.000000	86.000000	0.000000	-1.000000	-1.000000	632145.000000	1769635075.198248
16627.635000	20471.085000	28134.765000	39904.830000	16012.935000	-1277.145000	-5927.580000	-1408.365000	-4.062040	-8.150304	-7.506267	-4.763924	-2.881975	0.033584	2.151764	-1.011813	-4.532220	6.683880	-0.381500	-0.796141	-0.364989	0.425841	-1.000000	-1.000000	-1.000000	-1.000000	-1.000000	-1.000000	-1.000000	86.000000	0.000000	-1.000000	-1.000000	632146.000000	1769635075.198265
16639.110000	20479.995000	28140.480000	39911.535000	16022.340000	-1264.140000	-5920.560000	-1401.300000	-3.444495	-0.725082	-0.867261	-2.623808	-1.822997	0.131345	0.459316	-1.717368	-3.509800	7.462140	0.213640	-0.795652	-0.365966	0.424926	-1.000000	-1.000000	-1.000000	-1.000000	-1.000000	-1.000000	-1.000000	86.000000	0.000000	-1.000000	-1.000000	632147.000000	1769635075.198280
16637.760000	20473.515000	28131.705000	39901.545000	16017.345000	-1265.805000	-5922.855000	-1397.835000	-2.412915	4.727933	3.967895	-0.350601	-0.612026	-0.545252	-2.490494	-2.107721	-3.509800	7.462140	0.213640	-0.795652	-0.365966	0.424926	-1.000000	-1.000000	-1.000000	-1.000000	-1.000000	-1.000000	-1.000000	86.000000	0.000000	-1.000000	-1.000000	632148.000000	1769635075.198286
16633.935000	20487.645000	28152.045000	39920.760000	16031.340000	-1261.215000	-5926.995000	-1405.440000	-1.096011	6.854786	5.935003	1.637384	0.960827	-0.374224	-3.521219	-1.571069	-3.509800	7.462140	0.213640	-0.795652	-0.365966	0.424926	-1.000000	-1.000000	-1.000000	-1.000000	-1.000000	-1.000000	-1.000000	86.000000	0.000000	-1.000000	-1.000000	632149.000000	1769635075.204396
16639.470000	20488.545000	28150.740000	39918.780000	16028.775000	-1259.955000	-5918.175000	-1400.400000	0.382940	7.207387	6.876355	3.734838	3.087839	1.438903	-1.211832	-0.357555	-3.509800	7.462140	0.213640	-0.795652	-0.365966	0.424926	-1.000000	-1.000000	-1.000000	-1.000000	-1.000000	-1.000000	-1.000000	86.000000	0.000000	-1.000000	-1.000000	632150.000000	1769635075.204409
16650.315000	20500.155000	28162.125000	39930.480000	16039.530000	-1248.705000	-5902.695000	-1392.165000	1.900961	7.101347	7.816813	5.734511	5.062451	3.985244	3.193331	0.869965	-3.509800	7.462140	0.213640	-0.795652	-0.365966	0.424926	-1.000000	-1.000000	-1.000000	-1.000000	-1.000000	-1.000000	-1.000000	86.000000	0.000000	-1.000000	-1.000000	632151.000000	1769635075.204557
16644.735000	20495.835000	28157.805000	39924.495000	16029.495000	-1266.345000	-5941.035000	-1401.165000	2.884870	5.582965	7.045930	6.192527	5.289204	4.833286	6.027223	1.430523	-3.509800	7.462140	0.213640	-0.795652	-0.365966	0.424926	-1.000000	-1.000000	-1.000000	-1.000000	-1.000000	-1.000000	-1.000000	86.068966	0.000000	-1.000000	-1.000000	632152.000000	1769635075.204563
16630.020000	20472.390000	28132.695000	39899.385000	16008.570000	-1279.395000	-5937.705000	-1407.150000	2.252856	1.196397	2.586385	3.502195	2.409065	2.015076	4.096948	0.758873	-3.509800	7.462140	0.213640	-0.795652	-0.365966	0.424926	-1.000000	-1.000000	-1.000000	-1.000000	-1.000000	-1.000000	-1.000000	86.068966	0.000000	-1.000000	-1.000000	632153.000000	1769635075.204571
16626.060000	20463.300000	28123.740000	39894.075000	16010.145000	-1264.410000	-5895.225000	-1401.120000	-0.233171	-5.393409	-4.950731	-2.321306	-2.990525	-3.004738	-0.158093	-0.649247	-3.509800	7.462140	0.213640	-0.795652	-0.365966	0.424926	-1.000000	-1.000000	-1.000000	-1.000000	-1.000000	-1.000000	-1.000000	86.068966	0.000000	-1.000000	-1.000000	632154.000000	1769635075.204576
16642.440000	20477.385000	28138.680000	39909.960000	16024.140000	-1255.995000	-5906.430000	-1393.335000	-2.704493	-10.648089	-11.548221	-8.103150	-7.525668	-5.908419	-1.088924	-1.150163	-3.509800	7.462140	0.213640	-0.795652	-0.365966	0.424926	-1.000000	-1.000000	-1.000000	-1.000000	-1.000000	-1.000000	-1.000000	86.068966	0.000000	-1.000000	-1.000000	632155.000000	1769635075.214694
16648.740000	20484.765000	28147.455000	39918.555000	16030.080000	-1255.770000	-5915.430000	-1390.860000	-2.677524	-10.583026	-12.361002	-9.303284	-7.564820	-4.414781	1.523886	0.106620	-3.509800	7.462140	0.213640	-0.795652	-0.365966	0.424926	-1.000000	-1.000000	-1.000000	-1.000000	-1.000000	-1.000000	-1.000000	86.068966	0.000000	-1.000000	-1.000000	632156.000000	1769635075.214708
16622.595000	20467.890000	28131.615000	39902.445000	16014.510000	-1269.090000	-5917.320000	-1406.070000	-0.335161	-4.948833	-6.551174	-4.835532	-3.157512	-0.531735	3.173748	1.829934	-2.701020	5.218920	-0.808780	-0.795957	-0.365172	0.423339	-1.000000	-1.000000	-1.000000	-1.000000	-1.000000	-1.000000	-1.000000	86.068966	0.000000	-1.000000	-1.000000	632157.000000	1769635075.214720
16622.055000	20472.345000	28133.640000	39901.995000	16015.770000	-1262.025000	-5900.490000	-1404.495000	1.607012	2.367860	1.737459	1.580536	2.065117	2.482834	1.880141	2.116181	-2.701020	5.218920	-0.808780	-0.795957	-0.365172	0.423339	-1.000000	-1.000000	-1.000000	-1.000000	-1.000000	-1.000000	-1.000000	86.068966	0.000000	-1.000000	-1.000000	632158.000000	1769635075.214726
16645.230000	20488.455000	28147.860000	39916.710000	16030.710000	-1248.030000	-5896.665000	-1389.600000	1.702279	7.471115	7.787925	5.759086	4.999627	3.399411	-0.828082	0.778411	-2.701020	5.218920	-0.808780	-0.795957	-0.365172	0.423339	-1.000000	-1.000000	-1.000000	-1.000000	-1.000000	-1.000000	-1.000000	86.068966	0.000000	-1.000000	-1.000000	632159.000000	1769635075.216138
16643.880000	20493.495000	28154.205000	39920.085000	16027.920000	-1264.635000	-5929.425000	-1394.955000	1.002779	8.985582	9.704603	6.596560	5.278536	2.647140	-3.668716	-0.862682	-2.701020	5.218920	-0.808780	-0.795957	-0.365172	0.423339	-1.000000	-1.000000	-1.000000	-1.000000	-1.000000	-1.000000	-1.000000	86.068966	0.000000	-1.000000	-1.000000	632160.000000	1769635075.216150
16620.570000	20479.140000	28136.340000	39899.655000	16010.640000	-1268.640000	-5911.830000	-1407.780000	0.405247	7.157107	7.776829	4.913250	3.686590	0.752266	-6.029038	-1.888516	-2.701020	5.218920	-0.808780	-0.795957	-0.365172	0.423339	-1.000000	-1.000000	-1.000000	-1.000000	-1.000000	-1.000000	-1.000000	86.068966	0.000000	-1.000000	-1.000000	632161.000000	1769635075.221886
16615.260000	20470.455000	28123.020000	39884.670000	15999.885000	-1265.040000	-5893.830000	-1408.275000	-0.422598	3.120343	3.294907	1.680976	0.960703	-1.257859	-6.054105	-2.262370	-2.701020	5.218920	-0.808780	-0.795957	-0.365172	0.423339	-1.000000	-1.000000	-1.000000	-1.000000	-1.000000	-1.000000	-1.000000	86.068966	0.000000	-1.000000	-1.000000	632162.000000	1769635075.221899
16627.005000	20485.530000	28140.030000	39900.420000	16013.070000	-1262.340000	-5912.685000	-1408.095000	-1.305300	-1.073781	-1.531299	-1.740246	-1.797118	-2.129384	-3.051038	-2.059851	-2.701020	5.218920	-0.808780	-0.795957	-0.365172	0.423339	-1.000000	-1.000000	-1.000000	-1.000000	-1.000000	-1.000000	-1.000000	86.068966	0.000000	-1.000000	-1.000000	632163.000000	1769635075.232387
16626.195000	20480.490000	28141.605000	39905.370000	16013.295000	-1273.050000	-5921.640000	-1411.920000	-1.410178	-3.619570	-4.407107	-3.638322	-3.308666	-1.953374	0.393662	-1.399534	-2.701020	5.218920	-0.808780	-0.795957	-0.365172	0.423339	-1.000000	-1.000000	-1.000000	-1.000000	-1.000000	-1.000000	-1.000000	86.068966	0.000000	-1.000000	-1.000000	632164.000000	1769635075.232402
16628.400000	20475.405000	28133.370000	39902.220000	16012.440000	-1275.120000	-5932.485000	-1408.590000	-0.588144	-4.337581	-4.681326	-3.267128	-3.050295	-1.646313	1.877658	-0.486243	-2.701020	5.218920	-0.808780	-0.795957	-0.365172	0.423339	-1.000000	-1.000000	-1.000000	-1.000000	-1.000000	-1.000000	-1.000000	86.068966	0.000000	-1.000000	-1.000000	632165.000000	1769635075.232417
16642.845000	20491.335000	28149.345000	39918.645000	16028.730000	-1260.225000	-5928.210000	-1397.070000	1.175178	-3.626457	-3.053419	-1.057903	-1.132351	-1.038243	1.569290	1.015149	-2.701020	5.218920	-0.808780	-0.795957	-0.365172	0.423339	-1.000000	-1.000000	-1.000000	-1.000000	-1.000000	-1.000000	-1.000000	86.068966	0.000000	-1.000000	-1.000000	632166.000000	1769635075.232422
16642.620000	20497.725000	28157.580000	39925.620000	16036.020000	-1250.145000	-5911.740000	-1398.015000	3.638087	-1.492923	-0.235430	2.058538	1.938743	0.716314	0.884895	3.208546	-2.441600	4.867940	-0.412020	-0.794371	-0.363952	0.425231	-1.000000	-1.000000	-1.000000	-1.000000	-1.000000	-1.000000	-1.000000	86.068966	0.000000	-1.000000	-1.000000	632167.000000	1769635075.232428
16638.750000	20483.685000	28143.945000	39917.475000	16027.560000	-1261.530000	-5923.170000	-1398.600000	4.732834	0.795185	2.215193	4.178667	4.353715	2.916261	1.002432	4.566913	-2.441600	4.867940	-0.412020	-0.794371	-0.363952	0.425231	-1.000000	-1.000000	-1.000000	-1.000000	-1.000000	-1.000000	-1.000000	86.068966	0.000000	-1.000000	-1.000000	632168.000000	1769635075.232433
16630.245000	20471.535000	28130.895000	39902.040000	16012.710000	-1274.400000	-5926.815000	-1401.165000	2.524490	0.931553	2.026209	3.169075	3.859033	3.603688	2.148868	3.592782	-2.441600	4.867940	-0.412020	-0.794371	-0.363952	0.425231	-1.000000	-1.000000	-1.000000	-1.000000	-1.000000	-1.000000	-1.000000	86.068966	0.000000	-1.000000	-1.000000	632169.000000	1769635075.236452
16627.770000	20474.145000	28135.170000	39905.415000	16016.220000	-1268.595000	-5918.580000	-1403.865000	-1.637859	-1.057058	-0.613793	-0.458924	0.651575	2.132622	3.404458	0.977008	-2.441600	4.867940	-0.412020	-0.794371	-0.363952	0.425231	-1.000000	-1.000000	-1.000000	-1.000000	-1.000000	-1.000000	-1.000000	86.068966	0.000000	-1.000000	-1.000000	632170.000000	1769635075.236466
16620.885000	20467.530000	28129.095000	39899.025000	16010.280000	-1273.815000	-5922.855000	-1408.995000	-4.721164	-2.580112	-2.763523	-3.622454	-2.646488	-0.337513	3.284697	-1.619765	-2.441600	4.867940	-0.412020	-0.794371	-0.363952	0.425231	-1.000000	-1.000000	-1.000000	-1.000000	-1.000000	-1.000000	-1.000000	86.068966	0.000000	-1.000000	-1.000000	632171.000000	1769635075.241587
16621.920000	20474.325000	28131.930000	39898.080000	16008.885000	-1274.355000	-5927.895000	-1412.010000	-5.460067	-2.079042	-2.739327	-4.536455	-4.286149	-2.459662	1.374533	-3.348702	-2.441600	4.867940	-0.412020	-0.794371	-0.363952	0.425231	-1.000000	-1.000000	-1.000000	-1.000000	-1.000000	-1.000000	-1.000000	86.068966	0.000000	-1.000000	-1.000000	632172.000000	1769635075.241601
16633.530000	20502.045000	28153.710000	39910.230000	16018.875000	-1267.335000	-5926.230000	-1407.915000	-4.258888	0.280300	-1.035713	-3.689404	-4.228768	-3.204269	-0.866450	-3.921595	-2.441600	4.867940	-0.412020	-0.794371	-0.363952	0.425231	-1.000000	-1.000000	-1.000000	-1.000000	-1.000000	-1.000000	-1.000000	86.068966	0.000000	-1.000000	-1.000000	632173.000000	1769635075.244334
16645.770000	20538.855000	28186.560000	39928.905000	16035.705000	-1253.520000	-5913.855000	-1399.680000	-1.409185	4.447627	2.204441	-1.393165	-2.387841	-1.795771	-1.566923	-3.029659	-2.441600	4.867940	-0.412020	-0.794371	-0.363952	0.425231	-1.000000	-1.000000	-1.000000	-1.000000	-1.000000	-1.000000	-1.000000	86.068966	0.000000	-1.000000	-1.000000	632174.000000	1769635075.244345
16648.110000	20548.395000	28195.470000	39927.105000	16030.260000	-1255.905000	-5914.980000	-1401.480000	2.397760	9.329223	6.492528	1.976634	0.812974	1.051009	-0.544940	-0.909590	-2.441600	4.867940	-0.412020	-0.794371	-0.363952	0.425231	-1.000000	-1.000000	-1.000000	-1.000000	-1.000000	-1.000000	-1.000000	86.068966	0.000000	-1.000000	-1.000000	632175.000000	1769635075.248328
16624.710000	20463.570000	28133.820000	39905.460000	16014.285000	-1273.680000	-5933.880000	-1408.995000	4.862845	10.323832	8.255351	4.195968	3.108547	2.746544	0.167256	1.100363	-2.441600	4.867940	-0.412020	-0.794371	-0.363952	0.425231	-1.000000	-1.000000	-1.000000	-1.000000	-1.000000	-1.000000	-1.000000	86.068966	0.000000	-1.000000	-1.000000	632176.000000	1769635075.248336
16616.880000	20433.285000	28101.825000	39892.860000	16009.920000	-1276.200000	-5946.030000	-1410.840000	3.720969	2.504490	3.123372	2.976101	2.550225	1.561977	-1.198096	1.664633	-1.266580	6.546540	-0.869820	-0.789976	-0.363891	0.429259	-1.000000	-1.000000	-1.000000	-1.000000	-1.000000	-1.000000	-1.000000	86.068966	0.000000	-1.000000	-1.000000	632177.000000	1769635075.254575
16635.780000	20462.355000	28127.835000	39905.910000	16022.340000	-1257.390000	-5915.430000	-1399.455000	0.072331	-11.114982	-7.145156	-0.590588	0.370541	-0.829195	-3.365408	1.127196	-1.266580	6.546540	-0.869820	-0.789976	-0.363891	0.429259	-1.000000	-1.000000	-1.000000	-1.000000	-1.000000	-1.000000	-1.000000	86.068966	0.000000	-1.000000	-1.000000	632178.000000	1769635075.254591
16646.985000	20485.035000	28138.140000	39913.470000	16026.345000	-1249.830000	-5892.075000	-1391.130000	-2.055342	-19.493998	-14.116620	-2.698174	-0.492482	-1.389971	-3.226999	1.108488	-1.266580	6.546540	-0.869820	-0.789976	-0.363891	0.429259	-1.000000	-1.000000	-1.000000	-1.000000	-1.000000	-1.000000	-1.000000	86.068966	0.000000	-1.000000	-1.000000	632179.000000	1769635075.260306
16619.580000	20448.855000	28101.735000	39883.455000	15996.420000	-1282.320000	-5929.830000	-1407.915000	-0.861102	-15.607543	-12.200695	-1.685257	0.463427	0.073692	-0.073590	2.082019	-1.266580	6.546540	-0.869820	-0.789976	-0.363891	0.429259	-1.000000	-1.000000	-1.000000	-1.000000	-1.000000	-1.000000	-1.000000	86.068966	0.000000	-1.000000	-1.000000	632180.000000	1769635075.260319
16605.855000	20436.255000	28093.095000	39871.305000	15986.385000	-1285.560000	-5923.575000	-1415.070000	0.816576	-3.954472	-4.576216	-0.094554	0.682578	0.789579	3.113388	2.432836	-1.266580	6.546540	-0.869820	-0.789976	-0.363891	0.429259	-1.000000	-1.000000	-1.000000	-1.000000	-1.000000	-1.000000	-1.000000	86.068966	0.000000	-1.000000	-1.000000	632181.000000	1769635075.260520
16618.545000	20465.505000	28122.840000	39890.700000	16004.025000	-1273.185000	-5929.560000	-1414.170000	-0.064650	6.363259	2.594397	-0.458882	-1.309095	-0.696150	3.544780	0.714322	-1.266580	6.546540	-0.869820	-0.789976	-0.363891	0.429259	-1.000000	-1.000000	-1.000000	-1.000000	-1.000000	-1.000000	-1.000000	86.068966	0.000000	-1.000000	-1.000000	632182.000000	1769635075.260532
16631.010000	20482.515000	28143.000000	39912.120000	16021.845000	-1266.660000	-5934.015000	-1408.725000	-2.536870	10.921347	6.845453	-1.608258	-3.432912	-2.679256	1.166910	-2.279664	-1.266580	6.546540	-0.869820	-0.789976	-0.363891	0.429259	-1.000000	-1.000000	-1.000000	-1.000000	-1.000000	-1.000000	-1.000000	86.068966	0.000000	-1.000000	-1.000000	632183.000000	1769635075.265572
16628.940000	20478.060000	28138.635000	39907.125000	16015.590000	-1274.265000	-5918.265000	-1404.855000	-3.497045	10.874882	8.872670	-0.919446	-2.891659	-3.024174	-2.110160	-4.270572	-1.266580	6.546540	-0.869820	-0.789976	-0.363891	0.429259	-1.000000	-1.000000	-1.000000	-1.000000	-1.000000	-1.000000	-1.000000	86.068966	0.000000	-1.000000	-1.000000	632184.000000	1769635075.265585
16624.935000	20471.985000	28129.635000	39897.405000	16007.355000	-1276.290000	-5924.745000	-1404.990000	-1.449721	9.727335	9.963333	1.993644	0.395440	-1.238369	-3.390905	-3.613300	-1.266580	6.546540	-0.869820	-0.789976	-0.363891	0.429259	-1.000000	-1.000000	-1.000000	-1.000000	-1.000000	-1.000000	-1.000000	86.068966	0.000000	-1.000000	-1.000000	632185.000000	1769635075.269622
16631.145000	20478.645000	28135.710000	39902.985000	16015.680000	-1253.070000	-5907.330000	-1399.050000	2.467501	9.570274	10.457200	5.157196	4.121354	1.989273	-1.188970	-0.642767	-1.266580	6.546540	-0.869820	-0.789976	-0.363891	0.429259	-1.000000	-1.000000	-1.000000	-1.000000	-1.000000	-1.000000	-1.000000	86.068966	0.000000	-1.000000	-1.000000	632186.000000	1769635075.269636
16639.065000	20486.745000	28142.235000	39906.765000	16018.380000	-1251.090000	-5899.770000	-1392.165000	5.628786	8.560377	8.836902	6.307992	5.952079	5.185731	2.495186	2.711574	-1.846460	5.768280	-1.342880	-0.791929	-0.360778	0.426635	-1.000000	-1.000000	-1.000000	-1.000000	-1.000000	-1.000000	-1.000000	86.068966	0.000000	-1.000000	-1.000000	632187.000000	1769635075.276331
16640.730000	20493.585000	28148.985000	39912.480000	16022.655000	-1254.870000	-5911.605000	-1395.180000	6.055896	4.003478	3.863263	4.653151	5.110914	6.392897	4.160802	4.497785	-1.846460	5.768280	-1.342880	-0.791929	-0.360778	0.426635	-1.000000	-1.000000	-1.000000	-1.000000	-1.000000	-1.000000	-1.000000	86.068966	0.000000	-1.000000	-1.000000	632188.000000	1769635075.276345
16644.195000	20501.010000	28157.985000	39919.500000	16027.650000	-1253.565000	-5912.865000	-1391.805000	4.105900	-2.850453	-2.486781	1.655094	2.827301	4.933763	2.711220	4.169218	-1.846460	5.768280	-1.342880	-0.791929	-0.360778	0.426635	-1.000000	-1.000000	-1.000000	-1.000000	-1.000000	-1.000000	-1.000000	86.068966	0.000000	-1.000000	-1.000000	632189.000000	1769635075.278118
16640.010000	20487.375000	28143.450000	39906.630000	16015.815000	-1260.315000	-5914.440000	-1391.850000	1.398050	-8.525852	-7.234777	-0.859611	0.584793	1.770989	-0.095906	2.526621	-1.846460	5.768280	-1.342880	-0.791929	-0.360778	0.426635	-1.000000	-1.000000	-1.000000	-1.000000	-1.000000	-1.000000	-1.000000	86.068966	0.000000	-1.000000	-1.000000	632190.000000	1769635075.278131
16633.485000	20474.370000	28129.230000	39895.785000	16006.905000	-1262.475000	-5909.715000	-1396.575000	-1.631110	-12.290188	-10.555449	-3.461911	-2.174459	-2.306942	-2.280825	0.294139	-1.846460	5.768280	-1.342880	-0.791929	-0.360778	0.426635	-1.000000	-1.000000	-1.000000	-1.000000	-1.000000	-1.000000	-1.000000	86.068966	0.000000	-1.000000	-1.000000	632191.000000	1769635075.282308
16615.305000	20467.710000	28126.260000	39892.545000	16005.420000	-1259.055000	-5882.490000	-1405.845000	-5.483531	-15.111628	-13.826691	-7.366385	-6.276940	-6.413785	-2.664421	-2.437675	-1.846460	5.768280	-1.342880	-0.791929	-0.360778	0.426635	-1.000000	-1.000000	-1.000000	-1.000000	-1.000000	-1.000000	-1.000000	86.068966	0.000000	-1.000000	-1.000000	632192.000000	1769635075.282320
16600.995000	20458.530000	28120.320000	39889.530000	16002.855000	-1273.545000	-5919.840000	-1423.080000	-9.360750	-15.323010	-15.077572	-10.737726	-9.711963	-8.596416	-1.378563	-5.398233	-1.846460	5.768280	-1.342880	-0.791929	-0.360778	0.426635	-1.000000	-1.000000	-1.000000	-1.000000	-1.000000	-1.000000	-1.000000	86.068966	0.000000	-1.000000	-1.000000	632193.000000	1769635075.286336
16650.270000	20504.430000	28162.845000	39927.870000	16036.560000	-1263.015000	-5968.170000	-1393.740000	-10.176123	-9.393641	-10.164852	-9.479496	-8.787077	-7.437846	-1.068543	-7.137727	-1.846460	5.768280	-1.342880	-0.791929	-0.360778	0.426635	-1.000000	-1.000000	-1.000000	-1.000000	-1.000000	-1.000000	-1.000000	86.068966	0.000000	-1.000000	-1.000000	632194.000000	1769635075.286349
16649.055000	20500.830000	28154.385000	39913.875000	16023.330000	-1261.980000	-5929.290000	-1382.670000	-5.141664	2.762107	1.382162	-2.134677	-2.467786	-3.643273	-3.904296	-5.460094	-1.846460	5.768280	-1.342880	-0.791929	-0.360778	0.426635	-1.000000	-1.000000	-1.000000	-1.000000	-1.000000	-1.000000	-1.000000	86.068966	0.000000	-1.000000	-1.000000	632195.000000	1769635075.301622
16633.485000	20475.810000	28128.330000	39886.380000	15996.195000	-1280.745000	-5923.440000	-1393.155000	3.505462	14.687237	13.176586	6.693616	5.048753	0.490173	-7.051765	-0.384402	-1.846460	5.768280	-1.342880	-0.791929	-0.360778	0.426635	-1.000000	-1.000000	-1.000000	-1.000000	-1.000000	-1.000000	-1.000000	86.068966	0.000000	-1.000000	-1.000000	632196.000000	1769635075.301636
16618.905000	20452.140000	28110.735000	39876.930000	15988.770000	-1286.370000	-5931.765000	-1403.640000	9.514552	18.114081	17.017931	10.245988	8.003414	2.964953	-5.699733	4.740569	-1.419180	4.333840	-2.090620	-0.793821	-0.358642	0.422667	-1.000000	-1.000000	-1.000000	-1.000000	-1.000000	-1.000000	-1.000000	86.068966	0.000000	-1.000000	-1.000000	632197.000000	1769635075.301649
16615.350000	20480.220000	28141.110000	39907.755000	16018.020000	-1266.210000	-5931.720000	-1413.045000	9.146266	11.475835	11.370272	7.207257	5.582443	3.875253	0.591614	6.481969	-1.419180	4.333840	-2.090620	-0.793821	-0.358642	0.422667	-1.000000	-1.000000	-1.000000	-1.000000	-1.000000	-1.000000	-1.000000	86.068966	0.000000	-1.000000	-1.000000	632198.000000	1769635075.301654
16622.370000	20488.680000	28146.735000	39909.780000	16020.000000	-1260.675000	-5916.555000	-1406.655000	4.013319	1.299414	2.365626	2.338442	2.062519	4.764216	7.979970	4.336993	-1.419180	4.333840	-2.090620	-0.793821	-0.358642	0.422667	-1.000000	-1.000000	-1.000000	-1.000000	-1.000000	-1.000000	-1.000000	86.068966	0.000000	-1.000000	-1.000000	632199.000000	1769635075.301660
16613.055000	20471.895000	28128.870000	39890.565000	16004.250000	-1271.115000	-5909.445000	-1409.400000	-1.568670	-5.327739	-3.672390	-0.345597	0.599946	5.826964	12.354066	0.629184	-1.419180	4.333840	-2.090620	-0.793821	-0.358642	0.422667	-1.000000	-1.000000	-1.000000	-1.000000	-1.000000	-1.000000	-1.000000	86.068966	0.000000	-1.000000	-1.000000	632200.000000	1769635075.301665
16627.995000	20489.580000	28148.265000	39910.005000	16020.720000	-1264.725000	-5927.310000	-1405.350000	-3.973872	-6.291285	-5.132891	-0.869579	0.635646	5.580978	11.286448	-1.710613	-1.419180	4.333840	-2.090620	-0.793821	-0.358642	0.422667	-1.000000	-1.000000	-1.000000	-1.000000	-1.000000	-1.000000	-1.000000	86.068966	0.000000	-1.000000	-1.000000	632201.000000	1769635075.301671
16634.745000	20492.595000	28148.895000	39911.895000	16021.935000	-1270.530000	-5959.395000	-1403.190000	-2.142295	-3.019506	-3.192610	-0.404433	0.842926	3.431026	5.111068	-1.400056	-1.419180	4.333840	-2.090620	-0.793821	-0.358642	0.422667	-1.000000	-1.000000	-1.000000	-1.000000	-1.000000	-1.000000	-1.000000	86.068966	0.000000	-1.000000	-1.000000	632202.000000	1769635075.301676
16624.620000	20478.285000	28133.235000	39896.685000	16011.045000	-1273.590000	-5953.050000	-1407.015000	1.257559	0.856174	-0.598626	-0.275966	0.187581	-0.023722	-2.780198	0.158451	-1.419180	4.333840	-2.090620	-0.793821	-0.358642	0.422667	-1.000000	-1.000000	-1.000000	-1.000000	-1.000000	-1.000000	-1.000000	86.068966	0.000000	-1.000000	-1.000000	632203.000000	1769635075.304392
16624.035000	20475.270000	28129.230000	39891.825000	16007.355000	-1263.780000	-5902.470000	-1399.950000	2.191050	1.463536	-0.329326	-1.681021	-1.857117	-3.727005	-8.117258	0.561013	-1.419180	4.333840	-2.090620	-0.793821	-0.358642	0.422667	-1.000000	-1.000000	-1.000000	-1.000000	-1.000000	-1.000000	-1.000000	86.068966	0.000000	-1.000000	-1.000000	632204.000000	1769635075.304405
16620.345000	20472.660000	28124.730000	39885.750000	15999.930000	-1268.460000	-5898.105000	-1401.885000	0.156483	-0.946194	-1.973640	-3.483476	-3.801258	-5.668676	-7.988483	-0.381608	-1.419180	4.333840	-2.090620	-0.793821	-0.358642	0.422667	-1.000000	-1.000000	-1.000000	-1.000000	-1.000000	-1.000000	-1.000000	86.068966	0.000000	-1.000000	-1.000000	632205.000000	1769635075.308241
16634.610000	20490.210000	28142.145000	39901.500000	16013.700000	-1261.710000	-5925.285000	-1399.995000	-1.823950	-2.679088	-2.588703	-3.438120	-3.672376	-4.522639	-3.125129	-0.879152	-1.419180	4.333840	-2.090620	-0.793821	-0.358642	0.422667	-1.000000	-1.000000	-1.000000	-1.000000	-1.000000	-1.000000	-1.000000	86.068966	0.000000	-1.000000	-1.000000	632206.000000	1769635075.308248
16626.420000	20480.310000	28133.145000	39893.085000	16006.815000	-1265.490000	-5919.795000	-1403.145000	-1.515696	-1.898650	-1.158868	-1.464331	-1.731670	-1.661637	1.790426	-0.059565	-0.961380	3.418240	-3.280900	-0.794493	-0.359374	0.418029	-1.000000	-1.000000	-1.000000	-1.000000	-1.000000	-1.000000	-1.000000	86.068966	0.000000	-1.000000	-1.000000	632207.000000	1769635075.316337
16636.230000	20492.010000	28146.195000	39908.745000	16022.610000	-1254.240000	-5920.965000	-1397.250000	0.381491	-0.034376	0.832457	0.830877	0.427686	0.568232	2.760616	1.200665	-0.961380	3.418240	-3.280900	-0.794493	-0.359374	0.418029	-1.000000	-1.000000	-1.000000	-1.000000	-1.000000	-1.000000	-1.000000	86.068966	0.000000	-1.000000	-1.000000	632208.000000	1769635075.316350
16667.910000	20534.805000	28190.745000	39951.225000	16062.210000	-1227.150000	-5912.505000	-1381.185000	2.479058	2.044354	2.900745	3.248072	2.719522	1.840402	0.006901	1.977757	-0.961380	3.418240	-3.280900	-0.794493	-0.359374	0.418029	-1.000000	-1.000000	-1.000000	-1.000000	-1.000000	-1.000000	-1.000000	86.068966	0.000000	-1.000000	-1.000000	632209.000000	1769635075.316363
16654.050000	20528.280000	28180.710000	39934.260000	16044.030000	-1242.630000	-5916.780000	-1391.850000	4.121163	4.791418	5.572827	6.102999	5.479011	3.095745	-2.916504	2.134453	-0.961380	3.418240	-3.280900	-0.794493	-0.359374	0.418029	-1.000000	-1.000000	-1.000000	-1.000000	-1.000000	-1.000000	-1.000000	86.068966	0.000000	-1.000000	-1.000000	632210.000000	1769635075.316368
16656.120000	20530.575000	28178.145000	39925.440000	16031.025000	-1257.030000	-5930.505000	-1387.080000	3.761495	6.579121	6.988340	6.986543	6.323794	3.496285	-2.540878	1.294473	-0.961380	3.418240	-3.280900	-0.794493	-0.359374	0.418029	-1.000000	-1.000000	-1.000000	-1.000000	-1.000000	-1.000000	-1.000000	86.068966	0.000000	-1.000000	-1.000000	632211.000000	1769635075.331271
16637.445000	20504.250000	28153.485000	39906.810000	16012.350000	-1273.455000	-5931.765000	-1397.295000	0.118948	4.572845	4.348445	3.314605	2.654373	1.093521	0.289002	-0.962001	-0.961380	3.418240	-3.280900	-0.794493	-0.359374	0.418029	-1.000000	-1.000000	-1.000000	-1.000000	-1.000000	-1.000000	-1.000000	86.068966	0.000000	-1.000000	-1.000000	632212.000000	1769635075.331286
16619.580000	20481.165000	28132.380000	39892.275000	15999.030000	-1287.630000	-5943.600000	-1411.335000	-5.485392	-1.597185	-2.218330	-3.569739	-4.124966	-3.928556	1.112546	-4.105448	-0.961380	3.418240	-3.280900	-0.794493	-0.359374	0.418029	-1.000000	-1.000000	-1.000000	-1.000000	-1.000000	-1.000000	-1.000000	86.068966	0.000000	-1.000000	-1.000000	632213.000000	1769635075.331299
16627.590000	20479.770000	28133.595000	39893.355000	16005.735000	-1274.175000	-5933.790000	-1406.025000	-9.894017	-9.107592	-9.477208	-9.651216	-9.679408	-8.398289	-1.638933	-6.569439	-0.961380	3.418240	-3.280900	-0.794493	-0.359374	0.418029	-1.000000	-1.000000	-1.000000	-1.000000	-1.000000	-1.000000	-1.000000	86.068966	0.000000	-1.000000	-1.000000	632214.000000	1769635075.331304
16628.085000	20465.280000	28124.010000	39890.520000	16005.780000	-1267.020000	-5921.145000	-1401.930000	-10.142938	-13.926324	-13.540740	-11.708007	-10.587683	-8.571184	-3.972441	-6.318730	-0.961380	3.418240	-3.280900	-0.794493	-0.359374	0.418029	-1.000000	-1.000000	-1.000000	-1.000000	-1.000000	-1.000000	-1.000000	86.068966	0.000000	-1.000000	-1.000000	632215.000000	1769635075.331311
16631.640000	20487.420000	28141.020000	39900.375000	16011.180000	-1270.035000	-5944.860000	-1403.685000	-5.522561	-13.172382	-12.110952	-8.875899	-6.527778	-3.681306	-2.340775	-2.686788	-0.961380	3.418240	-3.280900	-0.794493	-0.359374	0.418029	-1.000000	-1.000000	-1.000000	-1.000000	-1.000000	-1.000000	-1.000000	86.068966	0.000000	-1.000000	-1.000000	632216.000000	1769635075.331316
16638.570000	20495.430000	28148.715000	39909.870000	16020.045000	-1269.180000	-5947.605000	-1400.355000	1.624093	-6.414567	-5.434174	-2.529299	0.072035	3.086676	1.405560	2.380037	-1.159760	2.777320	-3.433500	-0.796080	-0.360778	0.418090	-1.000000	-1.000000	-1.000000	-1.000000	-1.000000	-1.000000	-1.000000	86.068966	0.000000	-1.000000	-1.000000	632217.000000	1769635075.336466
16619.625000	20457.360000	28116.180000	39885.660000	16001.505000	-1273.140000	-5905.305000	-1404.405000	7.195740	2.741464	2.785609	3.816149	5.382080	7.423730	4.232727	5.900684	-1.159760	2.777320	-3.433500	-0.796080	-0.360778	0.418090	-1.000000	-1.000000	-1.000000	-1.000000	-1.000000	-1.000000	-1.000000	86.068966	0.000000	-1.000000	-1.000000	632218.000000	1769635075.336478
16613.685000	20451.780000	28111.770000	39882.915000	16000.470000	-1265.220000	-5888.700000	-1406.205000	8.101027	8.359927	7.457547	6.611843	6.734396	7.744396	6.765554	6.284488	-1.159760	2.777320	-3.433500	-0.796080	-0.360778	0.418090	-1.000000	-1.000000	-1.000000	-1.000000	-1.000000	-1.000000	-1.000000	86.068966	0.000000	-1.000000	-1.000000	632219.000000	1769635075.336762
16636.500000	20489.310000	28147.095000	39913.020000	16026.570000	-1250.685000	-5916.735000	-1398.915000	5.144912	8.874013	7.862170	6.273511	5.433998	6.075827	9.498944	4.132722	-1.159760	2.777320	-3.433500	-0.796080	-0.360778	0.418090	-1.000000	-1.000000	-1.000000	-1.000000	-1.000000	-1.000000	-1.000000	86.068966	0.000000	-1.000000	-1.000000	632220.000000	1769635075.336769
16643.160000	20506.950000	28162.980000	39922.650000	16033.680000	-1246.050000	-5917.860000	-1391.040000	2.484021	8.691253	8.232559	6.529186	5.190087	5.045632	8.968637	1.545030	-1.159760	2.777320	-3.433500	-0.796080	-0.360778	0.418090	-1.000000	-1.000000	-1.000000	-1.000000	-1.000000	-1.000000	-1.000000	86.068966	0.000000	-1.000000	-1.000000	632221.000000	1769635075.340366
16640.370000	20512.755000	28169.415000	39917.475000	16028.280000	-1251.090000	-5913.360000	-1392.525000	2.853152	11.176135	11.140159	8.779588	7.007891	4.799534	2.824979	0.405811	-1.159760	2.777320	-3.433500	-0.796080	-0.360778	0.418090	-1.000000	-1.000000	-1.000000	-1.000000	-1.000000	-1.000000	-1.000000	86.068966	0.000000	-1.000000	-1.000000	632222.000000	1769635075.340375
16658.280000	20526.165000	28182.510000	39930.255000	16035.795000	-1251.000000	-5925.375000	-1385.505000	4.738487	13.966817	13.776195	10.057967	7.822404	3.178264	-6.032583	0.674440	-1.159760	2.777320	-3.433500	-0.796080	-0.360778	0.418090	-1.000000	-1.000000	-1.000000	-1.000000	-1.000000	-1.000000	-1.000000	86.068966	0.000000	-1.000000	-1.000000	632223.000000	1769635075.344170
16620.930000	20476.755000	28120.185000	39884.985000	15993.405000	-1287.675000	-5942.655000	-1413.135000	4.622417	11.808034	10.903719	6.607638	4.151088	-1.703239	-13.041808	0.541004	-1.159760	2.777320	-3.433500	-0.796080	-0.360778	0.418090	-1.000000	-1.000000	-1.000000	-1.000000	-1.000000	-1.000000	-1.000000	86.068966	0.000000	-1.000000	-1.000000	632224.000000	1769635075.344178
16614.810000	20468.385000	28114.020000	39881.655000	15994.890000	-1275.615000	-5922.810000	-1414.260000	0.147409	1.497167	-0.327923	-2.608618	-4.431275	-8.885661	-14.910201	-1.645312	-1.159760	2.777320	-3.433500	-0.796080	-0.360778	0.418090	-1.000000	-1.000000	-1.000000	-1.000000	-1.000000	-1.000000	-1.000000	86.068966	0.000000	-1.000000	-1.000000	632225.000000	1769635075.348220
16644.870000	20507.265000	28159.830000	39910.860000	16020.630000	-1249.020000	-5905.620000	-1395.405000	-7.011568	-13.274395	-15.355840	-13.581217	-13.653055	-13.839946	-10.133814	-4.983891	-1.159760	2.777320	-3.433500	-0.796080	-0.360778	0.418090	-1.000000	-1.000000	-1.000000	-1.000000	-1.000000	-1.000000	-1.000000	86.068966	0.000000	-1.000000	-1.000000	632226.000000	1769635075.348234
16633.935000	20487.510000	28135.305000	39896.820000	16009.830000	-1256.850000	-5912.820000	-1397.565000	-11.327561	-22.666123	-23.684715	-18.776795	-16.832360	-12.048162	-1.143080	-6.313130	-1.587040	3.631880	-3.494540	-0.791990	-0.364013	0.419738	-1.000000	-1.000000	-1.000000	-1.000000	-1.000000	-1.000000	-1.000000	86.068966	0.000000	-1.000000	-1.000000	632227.000000	1769635075.352289
16602.120000	20435.400000	28087.020000	39859.470000	15974.595000	-1292.805000	-5925.825000	-1413.180000	-9.857238	-21.337476	-20.435150	-14.985409	-11.886276	-4.639913	6.510028	-4.239896	-1.587040	3.631880	-3.494540	-0.791990	-0.364013	0.419738	-1.000000	-1.000000	-1.000000	-1.000000	-1.000000	-1.000000	-1.000000	86.068966	0.000000	-1.000000	-1.000000	632228.000000	1769635075.352299
16598.610000	20434.185000	28087.830000	39861.405000	15976.530000	-1296.945000	-5923.845000	-1416.420000	-5.515848	-13.713732	-10.988312	-6.626838	-3.535345	2.365257	9.295572	-0.873622	-1.587040	3.631880	-3.494540	-0.791990	-0.364013	0.419738	-1.000000	-1.000000	-1.000000	-1.000000	-1.000000	-1.000000	-1.000000	86.068966	0.000000	-1.000000	-1.000000	632229.000000	1769635075.357036
16621.425000	20464.245000	28116.270000	39885.120000	15999.930000	-1277.055000	-5931.630000	-1407.420000	-1.419475	-5.229061	-1.522592	1.294102	3.498845	5.379699	7.686247	1.488962	-1.587040	3.631880	-3.494540	-0.791990	-0.364013	0.419738	-1.000000	-1.000000	-1.000000	-1.000000	-1.000000	-1.000000	-1.000000	86.068966	0.000000	-1.000000	-1.000000	632230.000000	1769635075.357056
16649.595000	20481.435000	28126.845000	39892.185000	16006.860000	-1266.705000	-5934.105000	-1381.770000	2.923315	3.568793	6.798941	7.803687	8.608986	6.080748	3.808187	3.021270	-1.587040	3.631880	-3.494540	-0.791990	-0.364013	0.419738	-1.000000	-1.000000	-1.000000	-1.000000	-1.000000	-1.000000	-1.000000	86.068966	0.000000	-1.000000	-1.000000	632231.000000	1769635075.360300
16641.810000	20477.070000	28123.560000	39887.955000	16002.045000	-1267.200000	-5920.155000	-1384.155000	8.061411	12.599566	13.858423	12.655274	11.982905	6.951498	0.138634	4.859868	-1.587040	3.631880	-3.494540	-0.791990	-0.364013	0.419738	-1.000000	-1.000000	-1.000000	-1.000000	-1.000000	-1.000000	-1.000000	86.068966	0.000000	-1.000000	-1.000000	632232.000000	1769635075.360308
16626.330000	20488.005000	28141.695000	39905.640000	16017.120000	-1258.965000	-5928.300000	-1403.775000	11.792680	19.429355	18.474221	14.785551	12.942340	8.211200	-1.158153	6.469806	-1.587040	3.631880	-3.494540	-0.791990	-0.364013	0.419738	-1.000000	-1.000000	-1.000000	-1.000000	-1.000000	-1.000000	-1.000000	86.068966	0.000000	-1.000000	-1.000000	632233.000000	1769635075.364214
16624.530000	20488.365000	28138.365000	39899.745000	16007.805000	-1276.245000	-5945.580000	-1409.175000	11.007097	20.920884	18.978915	13.371070	10.803114	7.986082	-0.672283	5.607027	-1.587040	3.631880	-3.494540	-0.791990	-0.364013	0.419738	-1.000000	-1.000000	-1.000000	-1.000000	-1.000000	-1.000000	-1.000000	86.068966	0.000000	-1.000000	-1.000000	632234.000000	1769635075.364224
16642.530000	20500.380000	28148.310000	39908.745000	16014.780000	-1269.540000	-5940.630000	-1396.620000	5.039074	15.219391	13.448375	7.794703	5.010885	3.916088	-1.282534	1.266155	-1.587040	3.631880	-3.494540	-0.791990	-0.364013	0.419738	-1.000000	-1.000000	-1.000000	-1.000000	-1.000000	-1.000000	-1.000000	86.068966	0.000000	-1.000000	-1.000000	632235.000000	1769635075.368310
16657.920000	20507.085000	28154.070000	39915.900000	16024.320000	-1253.925000	-5928.165000	-1381.140000	-2.377908	4.646171	3.240401	-0.292905	-2.636712	-2.779409	-3.344141	-3.913581	-1.587040	3.631880	-3.494540	-0.791990	-0.364013	0.419738	-1.000000	-1.000000	-1.000000	-1.000000	-1.000000	-1.000000	-1.000000	86.068966	0.000000	-1.000000	-1.000000	632236.000000	1769635075.368331
16645.095000	20487.150000	28134.720000	39898.845000	16008.660000	-1266.165000	-5938.200000	-1387.350000	-6.222887	-5.203870	-6.416453	-6.866845	-8.021191	-7.250589	-3.960019	-5.988663	-2.044840	3.219860	-2.472120	-0.791685	-0.366149	0.419494	-1.000000	-1.000000	-1.000000	-1.000000	-1.000000	-1.000000	-1.000000	86.068966	0.000000	-1.000000	-1.000000	632237.000000	1769635075.375568
16634.295000	20487.825000	28139.490000	39904.065000	16013.160000	-1264.005000	-5938.200000	-1396.080000	-5.805966	-11.198999	-12.146263	-9.904022	-9.338242	-7.055007	-1.697716	-4.280008	-2.044840	3.219860	-2.472120	-0.791685	-0.366149	0.419494	-1.000000	-1.000000	-1.000000	-1.000000	-1.000000	-1.000000	-1.000000	86.068966	0.000000	-1.000000	-1.000000	632238.000000	1769635075.375581
16614.720000	20486.115000	28141.380000	39906.270000	16013.970000	-1260.990000	-5914.440000	-1410.615000	-4.886207	-14.102750	-14.325429	-10.327277	-8.171382	-4.314310	2.124559	-1.851064	-2.044840	3.219860	-2.472120	-0.791685	-0.366149	0.419494	-1.000000	-1.000000	-1.000000	-1.000000	-1.000000	-1.000000	-1.000000	86.068966	0.000000	-1.000000	-1.000000	632239.000000	1769635075.376391
16615.980000	20481.120000	28134.630000	39899.655000	16007.985000	-1260.450000	-5891.895000	-1408.905000	-6.473904	-14.990760	-13.981903	-9.282064	-6.384977	-1.993376	6.020291	-1.714025	-2.044840	3.219860	-2.472120	-0.791685	-0.366149	0.419494	-1.000000	-1.000000	-1.000000	-1.000000	-1.000000	-1.000000	-1.000000	86.068966	0.000000	-1.000000	-1.000000	632240.000000	1769635075.376402
16627.995000	20486.610000	28138.545000	39903.300000	16011.405000	-1260.135000	-5925.015000	-1404.495000	-8.604853	-13.099645	-11.030470	-6.909435	-4.340274	-0.976843	8.193830	-3.195590	-2.044840	3.219860	-2.472120	-0.791685	-0.366149	0.419494	-1.000000	-1.000000	-1.000000	-1.000000	-1.000000	-1.000000	-1.000000	86.068966	0.000000	-1.000000	-1.000000	632241.000000	1769635075.383306
16645.590000	20504.295000	28157.760000	39923.685000	16032.060000	-1248.615000	-5953.995000	-1394.190000	-6.357131	-7.195255	-5.122629	-2.867063	-1.357800	-0.345890	5.821389	-2.738304	-2.044840	3.219860	-2.472120	-0.791685	-0.366149	0.419494	-1.000000	-1.000000	-1.000000	-1.000000	-1.000000	-1.000000	-1.000000	86.068966	0.000000	-1.000000	-1.000000	632242.000000	1769635075.383322
16657.470000	20522.610000	28176.075000	39941.460000	16048.260000	-1231.965000	-5916.150000	-1380.285000	1.515486	1.780605	2.687479	2.578516	2.869396	1.048950	-1.120560	1.392378	-2.044840	3.219860	-2.472120	-0.791685	-0.366149	0.419494	-1.000000	-1.000000	-1.000000	-1.000000	-1.000000	-1.000000	-1.000000	86.068966	0.000000	-1.000000	-1.000000	632243.000000	1769635075.384220
16609.860000	20464.200000	28111.815000	39875.040000	15980.895000	-1282.545000	-5895.675000	-1403.685000	9.699301	9.609078	8.906756	6.955392	6.280614	2.537409	-7.496053	6.403051	-2.044840	3.219860	-2.472120	-0.791685	-0.366149	0.419494	-1.000000	-1.000000	-1.000000	-1.000000	-1.000000	-1.000000	-1.000000	86.068966	0.000000	-1.000000	-1.000000	632244.000000	1769635075.384226
16614.045000	20466.360000	28111.320000	39874.185000	15978.825000	-1292.940000	-5938.560000	-1410.795000	11.416447	11.474941	9.478039	6.548833	5.218129	1.488897	-8.876907	7.608446	-2.044840	3.219860	-2.472120	-0.791685	-0.366149	0.419494	-1.000000	-1.000000	-1.000000	-1.000000	-1.000000	-1.000000	-1.000000	86.068966	0.000000	-1.000000	-1.000000	632245.000000	1769635075.393939
16622.010000	20478.870000	28126.665000	39890.925000	15997.635000	-1275.975000	-5941.710000	-1408.770000	6.165911	7.491261	4.942200	1.813590	0.129636	-2.152521	-6.505859	3.728724	-2.044840	3.219860	-2.472120	-0.791685	-0.366149	0.419494	-1.000000	-1.000000	-1.000000	-1.000000	-1.000000	-1.000000	-1.000000	86.068966	0.000000	-1.000000	-1.000000	632246.000000	1769635075.393953
16635.375000	20495.700000	28142.370000	39904.560000	16012.350000	-1258.110000	-5920.695000	-1396.080000	-0.196217	2.618634	0.448790	-2.077658	-3.611163	-4.271799	-3.296294	-1.582884	-2.380560	3.921820	-2.624720	-0.791685	-0.366454	0.419005	-1.000000	-1.000000	-1.000000	-1.000000	-1.000000	-1.000000	-1.000000	86.068966	0.000000	-1.000000	-1.000000	632247.000000	1769635075.393967
16608.420000	20469.645000	28115.505000	39876.615000	15987.960000	-1262.205000	-5866.065000	-1401.030000	-3.019737	0.160939	-0.868781	-2.088323	-2.814775	-2.084718	0.489696	-4.077351	-2.380560	3.921820	-2.624720	-0.791685	-0.366454	0.419005	-1.000000	-1.000000	-1.000000	-1.000000	-1.000000	-1.000000	-1.000000	86.068966	0.000000	-1.000000	-1.000000	632248.000000	1769635075.393972
16578.630000	20438.685000	28088.595000	39854.160000	15964.560000	-1286.820000	-5890.365000	-1428.255000	-3.264161	-1.079274	-0.612290	-0.249401	0.213788	2.293945	5.118877	-3.394284	-2.380560	3.921820	-2.624720	-0.791685	-0.366454	0.419005	-1.000000	-1.000000	-1.000000	-1.000000	-1.000000	-1.000000	-1.000000	86.068966	0.000000	-1.000000	-1.000000	632249.000000	1769635075.397106
16647.705000	20504.070000	28155.240000	39922.560000	16022.880000	-1265.625000	-5971.320000	-1397.340000	-3.147676	-2.497765	-0.569097	1.154459	2.400153	4.953075	7.722519	-1.775992	-2.380560	3.921820	-2.624720	-0.791685	-0.366454	0.419005	-1.000000	-1.000000	-1.000000	-1.000000	-1.000000	-1.000000	-1.000000	86.068966	0.000000	-1.000000	-1.000000	632250.000000	1769635075.397120
16646.220000	20501.730000	28150.155000	39915.810000	16016.625000	-1269.630000	-5952.465000	-1391.985000	-1.682954	-2.507331	0.286991	2.746369	3.652566	4.447809	4.659450	-0.133181	-2.380560	3.921820	-2.624720	-0.791685	-0.366454	0.419005	-1.000000	-1.000000	-1.000000	-1.000000	-1.000000	-1.000000	-1.000000	86.068966	0.000000	-1.000000	-1.000000	632251.000000	1769635075.401612
16634.070000	20495.880000	28145.520000	39910.455000	16010.730000	-1268.595000	-5935.365000	-1397.970000	1.603870	-0.197645	2.366022	4.671228	4.414518	2.003205	-2.633822	1.492842	-2.380560	3.921820	-2.624720	-0.791685	-0.366454	0.419005	-1.000000	-1.000000	-1.000000	-1.000000	-1.000000	-1.000000	-1.000000	86.068966	0.000000	-1.000000	-1.000000	632252.000000	1769635075.401624
16630.830000	20502.630000	28148.985000	39906.045000	16003.575000	-1269.540000	-5927.670000	-1401.930000	4.399625	3.033485	4.457426	5.678163	4.456456	0.023814	-8.221487	2.363631	-2.380560	3.921820	-2.624720	-0.791685	-0.366454	0.419005	-1.000000	-1.000000	-1.000000	-1.000000	-1.000000	-1.000000	-1.000000	86.068966	0.000000	-1.000000	-1.000000	632253.000000	1769635075.404253
16649.235000	20524.950000	28169.820000	39922.155000	16016.040000	-1260.315000	-5928.345000	-1393.425000	5.058172	5.938207	5.929054	5.344637	3.926157	0.336575	-7.264940	2.239674	-2.380560	3.921820	-2.624720	-0.791685	-0.366454	0.419005	-1.000000	-1.000000	-1.000000	-1.000000	-1.000000	-1.000000	-1.000000	86.068966	0.000000	-1.000000	-1.000000	632254.000000	1769635075.404266
16643.025000	20509.155000	28159.830000	39922.965000	16021.170000	-1249.605000	-5913.405000	-1394.595000	3.536632	6.805318	5.588055	3.292903	2.366388	2.060857	0.052862	1.575861	-2.380560	3.921820	-2.624720	-0.791685	-0.366454	0.419005	-1.000000	-1.000000	-1.000000	-1.000000	-1.000000	-1.000000	-1.000000	86.068966	0.000000	-1.000000	-1.000000	632255.000000	1769635075.408488
16619.085000	20475.000000	28121.940000	39884.670000	15985.935000	-1278.720000	-5931.765000	-1405.755000	-0.018103	3.023254	1.230311	-1.353778	-1.301168	2.154345	7.870806	0.316491	-2.380560	3.921820	-2.624720	-0.791685	-0.366454	0.419005	-1.000000	-1.000000	-1.000000	-1.000000	-1.000000	-1.000000	-1.000000	86.068966	0.000000	-1.000000	-1.000000	632256.000000	1769635075.408500
16618.860000	20462.715000	28114.695000	39883.500000	15982.740000	-1293.525000	-5963.985000	-1409.040000	-4.504853	-5.125641	-6.712182	-7.703008	-6.521042	-1.321708	8.647143	-1.622406	-2.548420	4.318580	-2.731540	-0.791990	-0.367919	0.417846	-1.000000	-1.000000	-1.000000	-1.000000	-1.000000	-1.000000	-1.000000	86.068966	0.000000	-1.000000	-1.000000	632257.000000	1769635075.412372
16620.120000	20446.830000	28106.730000	39888.855000	15992.415000	-1281.555000	-5948.370000	-1403.640000	-7.384440	-13.014508	-13.741929	-12.202588	-10.224426	-6.406237	1.614005	-3.117550	-2.548420	4.318580	-2.731540	-0.791990	-0.367919	0.417846	-1.000000	-1.000000	-1.000000	-1.000000	-1.000000	-1.000000	-1.000000	86.068966	0.000000	-1.000000	-1.000000	632258.000000	1769635075.412385
16623.360000	20470.185000	28122.660000	39892.365000	15990.885000	-1274.490000	-5913.765000	-1401.075000	-7.667612	-16.259245	-15.873321	-12.399746	-10.172253	-8.870666	-4.347222	-3.160626	-2.548420	4.318580	-2.731540	-0.791990	-0.367919	0.417846	-1.000000	-1.000000	-1.000000	-1.000000	-1.000000	-1.000000	-1.000000	86.068966	0.000000	-1.000000	-1.000000	632259.000000	1769635075.416476
16635.690000	20487.240000	28137.240000	39902.985000	16002.360000	-1264.545000	-5920.110000	-1395.090000	-6.200922	-13.018449	-12.045643	-8.683337	-6.828609	-6.525622	-2.107850	-2.194259	-2.548420	4.318580	-2.731540	-0.791990	-0.367919	0.417846	-1.000000	-1.000000	-1.000000	-1.000000	-1.000000	-1.000000	-1.000000	86.068966	0.000000	-1.000000	-1.000000	632260.000000	1769635075.416490
16631.460000	20480.940000	28129.860000	39897.990000	16004.565000	-1254.825000	-5915.520000	-1395.540000	-2.677912	-3.374631	-2.807709	-1.786560	-0.868746	-0.289423	4.324502	-0.685359	-2.548420	4.318580	-2.731540	-0.791990	-0.367919	0.417846	-1.000000	-1.000000	-1.000000	-1.000000	-1.000000	-1.000000	-1.000000	86.068966	0.000000	-1.000000	-1.000000	632261.000000	1769635075.420782
16623.585000	20476.890000	28127.610000	39896.370000	16002.225000	-1255.950000	-5906.925000	-1399.995000	2.711363	8.750121	8.431563	6.598101	6.531962	6.908225	7.360479	1.235113	-2.548420	4.318580	-2.731540	-0.791990	-0.367919	0.417846	-1.000000	-1.000000	-1.000000	-1.000000	-1.000000	-1.000000	-1.000000	86.068966	0.000000	-1.000000	-1.000000	632262.000000	1769635075.420794
16627.860000	20475.990000	28124.235000	39893.985000	15999.705000	-1261.215000	-5910.795000	-1396.170000	7.078691	16.582298	15.703102	12.428573	11.737320	10.906161	4.865575	2.714201	-2.548420	4.318580	-2.731540	-0.791990	-0.367919	0.417846	-1.000000	-1.000000	-1.000000	-1.000000	-1.000000	-1.000000	-1.000000	86.068966	0.000000	-1.000000	-1.000000	632263.000000	1769635075.429702
16630.605000	20489.355000	28139.445000	39907.665000	16007.265000	-1266.345000	-5933.070000	-1402.515000	8.046536	16.588114	15.692803	12.740284	11.503455	8.811184	-1.368227	2.825944	-2.548420	4.318580	-2.731540	-0.791990	-0.367919	0.417846	-1.000000	-1.000000	-1.000000	-1.000000	-1.000000	-1.000000	-1.000000	86.068966	0.000000	-1.000000	-1.000000	632264.000000	1769635075.429717
16632.945000	20499.435000	28151.460000	39916.170000	16016.400000	-1245.645000	-5912.505000	-1396.485000	6.477656	11.482208	10.983054	9.185005	7.098158	2.474177	-8.263809	1.800395	-2.548420	4.318580	-2.731540	-0.791990	-0.367919	0.417846	-1.000000	-1.000000	-1.000000	-1.000000	-1.000000	-1.000000	-1.000000	86.068966	0.000000	-1.000000	-1.000000	632265.000000	1769635075.429744
16637.085000	20505.015000	28155.825000	39916.845000	16013.835000	-1254.555000	-5928.345000	-1396.620000	4.438400	6.129392	6.202937	5.291025	2.361300	-2.911918	-11.517274	0.781129	-2.548420	4.318580	-2.731540	-0.791990	-0.367919	0.417846	-1.000000	-1.000000	-1.000000	-1.000000	-1.000000	-1.000000	-1.000000	86.068966	0.000000	-1.000000	-1.000000	632266.000000	1769635075.429750
16655.760000	20520.090000	28168.380000	39931.065000	16023.555000	-1262.520000	-5961.105000	-1391.130000	2.515067	2.261215	2.608929	1.834031	-1.209622	-4.938006	-9.251555	0.323703	-2.350040	5.005280	-2.304260	-0.792601	-0.367370	0.420287	-1.000000	-1.000000	-1.000000	-1.000000	-1.000000	-1.000000	-1.000000	86.068966	0.000000	-1.000000	-1.000000	632267.000000	1769635075.432449
16633.440000	20494.575000	28143.090000	39909.420000	16006.725000	-1264.230000	-5933.025000	-1401.705000	-0.171836	-2.076668	-1.886538	-2.534842	-4.532995	-5.366892	-4.266129	-0.301188	-2.350040	5.005280	-2.304260	-0.792601	-0.367370	0.420287	-1.000000	-1.000000	-1.000000	-1.000000	-1.000000	-1.000000	-1.000000	86.068966	0.000000	-1.000000	-1.000000	632268.000000	1769635075.432462
16623.450000	20478.555000	28129.770000	39899.115000	15997.455000	-1268.820000	-5931.855000	-1404.765000	-4.309360	-8.811078	-8.674141	-8.073014	-8.008036	-5.822326	0.451870	-1.822857	-2.350040	5.005280	-2.304260	-0.792601	-0.367370	0.420287	-1.000000	-1.000000	-1.000000	-1.000000	-1.000000	-1.000000	-1.000000	86.068966	0.000000	-1.000000	-1.000000	632269.000000	1769635075.437593
16616.070000	20460.960000	28107.360000	39877.245000	15973.515000	-1287.405000	-5935.095000	-1404.000000	-8.652483	-16.153159	-15.628823	-12.856582	-10.620091	-6.082463	4.098543	-3.530472	-2.350040	5.005280	-2.304260	-0.792601	-0.367370	0.420287	-1.000000	-1.000000	-1.000000	-1.000000	-1.000000	-1.000000	-1.000000	86.068966	0.000000	-1.000000	-1.000000	632270.000000	1769635075.437606
16623.675000	20469.285000	28110.960000	39874.815000	15970.410000	-1285.695000	-5927.130000	-1398.330000	-10.375229	-19.461265	-18.584792	-14.279123	-10.929675	-5.390899	6.245930	-3.793431	-2.350040	5.005280	-2.304260	-0.792601	-0.367370	0.420287	-1.000000	-1.000000	-1.000000	-1.000000	-1.000000	-1.000000	-1.000000	86.068966	0.000000	-1.000000	-1.000000	632271.000000	1769635075.453020
16639.830000	20469.060000	28119.870000	39890.970000	15987.420000	-1270.710000	-5928.975000	-1386.855000	-7.521086	-15.433575	-14.740276	-10.845260	-7.826079	-2.830416	6.738669	-1.743533	-2.350040	5.005280	-2.304260	-0.792601	-0.367370	0.420287	-1.000000	-1.000000	-1.000000	-1.000000	-1.000000	-1.000000	-1.000000	86.068966	0.000000	-1.000000	-1.000000	632272.000000	1769635075.453036
16657.110000	20472.660000	28118.610000	39888.990000	15985.935000	-1282.230000	-5960.745000	-1376.370000	-0.488902	-4.976875	-4.766506	-2.981819	-1.184359	1.847909	5.537218	2.060940	-2.350040	5.005280	-2.304260	-0.792601	-0.367370	0.420287	-1.000000	-1.000000	-1.000000	-1.000000	-1.000000	-1.000000	-1.000000	86.068966	0.000000	-1.000000	-1.000000	632273.000000	1769635075.453049
16642.170000	20466.495000	28115.505000	39883.860000	15978.690000	-1300.005000	-5979.060000	-1390.185000	7.650456	7.239998	7.036692	6.331971	6.782636	6.481809	1.997091	5.653416	-2.350040	5.005280	-2.304260	-0.792601	-0.367370	0.420287	-1.000000	-1.000000	-1.000000	-1.000000	-1.000000	-1.000000	-1.000000	86.068966	0.000000	-1.000000	-1.000000	632274.000000	1769635075.453054
16605.810000	20477.025000	28135.125000	39900.735000	15991.290000	-1281.825000	-5937.300000	-1417.500000	11.510540	15.751260	15.402041	12.826385	12.218719	8.270039	-2.320754	6.007616	-2.350040	5.005280	-2.304260	-0.792601	-0.367370	0.420287	-1.000000	-1.000000	-1.000000	-1.000000	-1.000000	-1.000000	-1.000000	86.068966	0.000000	-1.000000	-1.000000	632275.000000	1769635075.453061
16597.980000	20475.000000	28129.410000	39894.030000	15990.390000	-1261.845000	-5893.425000	-1418.715000	7.176078	17.368932	17.389641	13.910326	12.733152	7.413045	-2.519169	1.555103	-2.350040	5.005280	-2.304260	-0.792601	-0.367370	0.420287	-1.000000	-1.000000	-1.000000	-1.000000	-1.000000	-1.000000	-1.000000	86.068966	0.000000	-1.000000	-1.000000	632276.000000	1769635075.453066
16612.830000	20486.970000	28137.870000	39897.810000	15993.360000	-1261.755000	-5908.365000	-1407.645000	-2.346083	12.902059	13.513761	10.130766	8.994625	5.942010	2.774388	-4.881004	-3.067260	6.393940	-2.945180	-0.795286	-0.364623	0.420104	-1.000000	-1.000000	-1.000000	-1.000000	-1.000000	-1.000000	-1.000000	86.068966	0.000000	-1.000000	-1.000000	632277.000000	1769635075.453072
16616.880000	20488.320000	28145.295000	39898.800000	15990.525000	-1270.890000	-5921.460000	-1406.340000	-8.852950	6.337484	7.057696	4.447062	3.662672	4.295685	7.642704	-8.065329	-3.067260	6.393940	-2.945180	-0.795286	-0.364623	0.420104	-1.000000	-1.000000	-1.000000	-1.000000	-1.000000	-1.000000	-1.000000	86.068966	0.000000	-1.000000	-1.000000	632278.000000	1769635075.453078
16629.705000	20480.085000	28144.350000	39907.665000	15999.840000	-1264.545000	-5923.350000	-1399.770000	-7.284066	1.041325	1.484587	0.048921	-0.556918	1.771729	6.071744	-5.628497	-3.067260	6.393940	-2.945180	-0.795286	-0.364623	0.420104	-1.000000	-1.000000	-1.000000	-1.000000	-1.000000	-1.000000	-1.000000	86.068966	0.000000	-1.000000	-1.000000	632279.000000	1769635075.456340
16633.845000	20475.225000	28132.290000	39904.290000	15999.525000	-1263.870000	-5924.970000	-1396.755000	0.218965	-2.768897	-2.462527	-2.036618	-2.611851	-1.539102	-1.511237	0.265162	-3.067260	6.393940	-2.945180	-0.795286	-0.364623	0.420104	-1.000000	-1.000000	-1.000000	-1.000000	-1.000000	-1.000000	-1.000000	86.068966	0.000000	-1.000000	-1.000000	632280.000000	1769635075.456355
16633.935000	20487.690000	28137.915000	39900.780000	15994.305000	-1268.910000	-5929.245000	-1399.185000	7.365468	-5.932329	-6.016645	-3.289914	-3.643039	-4.923538	-9.682154	5.417567	-3.067260	6.393940	-2.945180	-0.795286	-0.364623	0.420104	-1.000000	-1.000000	-1.000000	-1.000000	-1.000000	-1.000000	-1.000000	86.068966	0.000000	-1.000000	-1.000000	632281.000000	1769635075.462705
16628.130000	20467.170000	28118.070000	39891.420000	15987.195000	-1273.275000	-5929.965000	-1399.860000	9.074063	-8.102352	-9.393210	-5.229525	-5.115705	-7.365471	-12.735787	6.805552	-3.067260	6.393940	-2.945180	-0.795286	-0.364623	0.420104	-1.000000	-1.000000	-1.000000	-1.000000	-1.000000	-1.000000	-1.000000	86.068966	0.000000	-1.000000	-1.000000	632282.000000	1769635075.462720
16630.785000	20462.130000	28117.530000	39894.345000	15991.830000	-1270.440000	-5928.480000	-1392.930000	5.182155	-8.791360	-11.463029	-7.409722	-6.722319	-7.582639	-8.789957	4.726608	-3.067260	6.393940	-2.945180	-0.795286	-0.364623	0.420104	-1.000000	-1.000000	-1.000000	-1.000000	-1.000000	-1.000000	-1.000000	86.068966	0.000000	-1.000000	-1.000000	632283.000000	1769635075.464477
16640.550000	20485.260000	28142.010000	39907.080000	16001.370000	-1262.340000	-5920.245000	-1386.585000	-0.168863	-7.810949	-10.851493	-8.166728	-6.976636	-5.324174	-1.251248	2.051409	-3.067260	6.393940	-2.945180	-0.795286	-0.364623	0.420104	-1.000000	-1.000000	-1.000000	-1.000000	-1.000000	-1.000000	-1.000000	86.068966	0.000000	-1.000000	-1.000000	632284.000000	1769635075.464489
16631.595000	20493.090000	28154.655000	39918.735000	16010.595000	-1252.350000	-5905.620000	-1396.305000	-3.134511	-4.482265	-6.280562	-5.946237	-4.784072	-1.872971	4.388699	0.633015	-3.067260	6.393940	-2.945180	-0.795286	-0.364623	0.420104	-1.000000	-1.000000	-1.000000	-1.000000	-1.000000	-1.000000	-1.000000	86.068966	0.000000	-1.000000	-1.000000	632285.000000	1769635075.468574
16618.185000	20483.235000	28143.450000	39905.685000	15995.700000	-1266.570000	-5916.735000	-1408.275000	-3.738933	0.828564	1.490760	-0.811555	-0.553845	1.236871	5.715778	-0.572073	-3.067260	6.393940	-2.945180	-0.795286	-0.364623	0.420104	-1.000000	-1.000000	-1.000000	-1.000000	-1.000000	-1.000000	-1.000000	86.068966	0.000000	-1.000000	-1.000000	632286.000000	1769635075.468585
16619.040000	20463.030000	28116.450000	39879.810000	15972.750000	-1285.020000	-5933.790000	-1403.640000	-4.144068	5.371587	8.205590	4.263193	3.265211	2.842056	3.981609	-2.947454	-5.005280	6.348160	-2.853620	-0.795225	-0.362914	0.423644	-1.000000	-1.000000	-1.000000	-1.000000	-1.000000	-1.000000	-1.000000	86.068966	0.000000	-1.000000	-1.000000	632287.000000	1769635075.475041
16631.910000	20467.575000	28118.520000	39882.960000	15978.330000	-1277.865000	-5930.955000	-1393.650000	-4.899399	6.521796	9.631577	5.712874	4.120815	2.412223	1.112136	-5.494382	-5.005280	6.348160	-2.853620	-0.795225	-0.362914	0.423644	-1.000000	-1.000000	-1.000000	-1.000000	-1.000000	-1.000000	-1.000000	86.068966	0.000000	-1.000000	-1.000000	632288.000000	1769635075.475056
16628.490000	20481.435000	28137.735000	39901.545000	15993.090000	-1275.345000	-5949.090000	-1401.480000	-4.756688	4.661099	6.226155	3.565356	2.394149	0.893222	-1.427305	-6.143262	-5.005280	6.348160	-2.853620	-0.795225	-0.362914	0.423644	-1.000000	-1.000000	-1.000000	-1.000000	-1.000000	-1.000000	-1.000000	86.068966	0.000000	-1.000000	-1.000000	632289.000000	1769635075.477923
16613.190000	20483.505000	28144.485000	39910.455000	16003.035000	-1272.015000	-5958.000000	-1418.175000	-3.179400	2.223951	2.186431	1.300173	1.024035	0.182927	-2.625603	-4.576994	-5.005280	6.348160	-2.853620	-0.795225	-0.362914	0.423644	-1.000000	-1.000000	-1.000000	-1.000000	-1.000000	-1.000000	-1.000000	86.068966	0.000000	-1.000000	-1.000000	632290.000000	1769635075.477934
16619.670000	20475.540000	28130.355000	39896.325000	15990.165000	-1273.545000	-5925.960000	-1406.205000	-0.854540	0.935561	0.481949	1.299865	1.758255	1.240828	-1.671786	-1.997248	-5.005280	6.348160	-2.853620	-0.795225	-0.362914	0.423644	-1.000000	-1.000000	-1.000000	-1.000000	-1.000000	-1.000000	-1.000000	86.068966	0.000000	-1.000000	-1.000000	632291.000000	1769635075.480313
16636.320000	20461.545000	28108.080000	39876.390000	15970.635000	-1283.625000	-5917.545000	-1387.755000	1.947904	0.352686	-0.010246	1.945618	2.780984	2.889837	1.819940	1.143699	-5.005280	6.348160	-2.853620	-0.795225	-0.362914	0.423644	-1.000000	-1.000000	-1.000000	-1.000000	-1.000000	-1.000000	-1.000000	86.068966	0.000000	-1.000000	-1.000000	632292.000000	1769635075.480327
16658.280000	20448.540000	28087.380000	39863.610000	15961.185000	-1293.480000	-5934.060000	-1365.615000	5.458380	-1.477115	-2.508836	0.102903	1.085915	2.651705	5.559020	5.137413	-5.005280	6.348160	-2.853620	-0.795225	-0.362914	0.423644	-1.000000	-1.000000	-1.000000	-1.000000	-1.000000	-1.000000	-1.000000	86.068966	0.000000	-1.000000	-1.000000	632293.000000	1769635075.484966
16665.840000	20453.355000	28094.085000	39870.135000	15967.980000	-1294.695000	-5942.925000	-1355.445000	9.045882	-4.963910	-7.362284	-4.182461	-3.121580	-0.382753	5.476133	9.301193	-5.005280	6.348160	-2.853620	-0.795225	-0.362914	0.423644	-1.000000	-1.000000	-1.000000	-1.000000	-1.000000	-1.000000	-1.000000	86.068966	0.000000	-1.000000	-1.000000	632294.000000	1769635075.484979
16634.160000	20465.370000	28109.970000	39876.165000	15979.860000	-1288.665000	-5938.695000	-1383.840000	10.394911	-7.058067	-10.098506	-6.876768	-5.779647	-3.687392	1.117570	11.127586	-5.005280	6.348160	-2.853620	-0.795225	-0.362914	0.423644	-1.000000	-1.000000	-1.000000	-1.000000	-1.000000	-1.000000	-1.000000	86.068966	0.000000	-1.000000	-1.000000	632295.000000	1769635075.488505
16625.025000	20463.795000	28103.490000	39871.890000	15989.985000	-1278.630000	-5928.660000	-1389.735000	6.554026	-4.405028	-6.194179	-4.394677	-3.238370	-3.654983	-3.334976	7.529927	-5.005280	6.348160	-2.853620	-0.795225	-0.362914	0.423644	-1.000000	-1.000000	-1.000000	-1.000000	-1.000000	-1.000000	-1.000000	86.068966	0.000000	-1.000000	-1.000000	632296.000000	1769635075.488521
16609.635000	20469.420000	28114.785000	39896.595000	16015.140000	-1258.740000	-5934.060000	-1410.165000	-2.611678	2.109466	3.056086	2.277364	3.585917	0.403363	-4.202475	-1.658080	-9.339120	4.333840	-2.350040	-0.797483	-0.363585	0.422728	-1.000000	-1.000000	-1.000000	-1.000000	-1.000000	-1.000000	-1.000000	86.068966	0.000000	-1.000000	-1.000000	632297.000000	1769635075.498958
16587.495000	20467.710000	28124.685000	39937.320000	16052.175000	-1239.345000	-5937.075000	-1436.085000	-12.846669	7.805604	11.553886	9.182320	10.352971	5.912460	-1.558625	-12.249523	-9.339120	4.333840	-2.350040	-0.797483	-0.363585	0.422728	-1.000000	-1.000000	-1.000000	-1.000000	-1.000000	-1.000000	-1.000000	86.068966	0.000000	-1.000000	-1.000000	632298.000000	1769635075.498973
16599.510000	20499.660000	28166.400000	39948.120000	16062.030000	-1226.745000	-5917.005000	-1432.665000	-18.138478	9.340636	14.844775	13.222184	13.338293	9.650105	2.234737	-18.423679	-9.339120	4.333840	-2.350040	-0.797483	-0.363585	0.422728	-1.000000	-1.000000	-1.000000	-1.000000	-1.000000	-1.000000	-1.000000	86.068966	0.000000	-1.000000	-1.000000	632299.000000	1769635075.498986
16607.160000	20484.540000	28136.880000	39909.150000	16028.505000	-1247.355000	-5911.290000	-1418.805000	-14.725828	7.363640	12.876183	12.346934	10.625772	9.192131	4.565221	-16.376597	-9.339120	4.333840	-2.350040	-0.797483	-0.363585	0.422728	-1.000000	-1.000000	-1.000000	-1.000000	-1.000000	-1.000000	-1.000000	86.068966	0.000000	-1.000000	-1.000000	632300.000000	1769635075.498992
16616.700000	20454.210000	28099.980000	39939.795000	16051.005000	-1244.340000	-5922.765000	-1400.670000	-4.134132	3.224934	6.468965	5.817952	2.455186	3.709060	3.546321	-6.726790	-9.339120	4.333840	-2.350040	-0.797483	-0.363585	0.422728	-1.000000	-1.000000	-1.000000	-1.000000	-1.000000	-1.000000	-1.000000	86.068966	0.000000	-1.000000	-1.000000	632301.000000	1769635075.502938
16654.140000	20466.585000	28117.035000	39889.395000	15969.870000	-1305.000000	-5986.125000	-1378.440000	8.108548	-2.602922	-3.320869	-4.020351	-8.466149	-5.370846	-1.406571	5.936802	-9.339120	4.333840	-2.350040	-0.797483	-0.363585	0.422728	-1.000000	-1.000000	-1.000000	-1.000000	-1.000000	-1.000000	-1.000000	86.068966	0.000000	-1.000000	-1.000000	632302.000000	1769635075.502952
16672.680000	20464.200000	28105.335000	39853.980000	15936.975000	-1319.805000	-5998.590000	-1354.050000	17.272597	-8.055934	-12.584462	-13.975645	-19.345765	-15.104306	-8.932280	16.433635	-9.339120	4.333840	-2.350040	-0.797483	-0.363585	0.422728	-1.000000	-1.000000	-1.000000	-1.000000	-1.000000	-1.000000	-1.000000	86.068966	0.000000	-1.000000	-1.000000	632303.000000	1769635075.504341
16650.225000	20467.575000	28125.765000	39900.195000	15978.555000	-1283.805000	-5960.340000	-1371.915000	20.821225	-10.201830	-16.581505	-20.608787	-26.229161	-20.679545	-14.324060	21.288882	-9.339120	4.333840	-2.350040	-0.797483	-0.363585	0.422728	-1.000000	-1.000000	-1.000000	-1.000000	-1.000000	-1.000000	-1.000000	86.068966	0.000000	-1.000000	-1.000000	632304.000000	1769635075.504353
16619.760000	20476.620000	28152.720000	39950.550000	16039.215000	-1233.405000	-5886.270000	-1394.640000	16.631228	-7.927969	-12.936777	-18.414153	-22.383358	-16.479311	-10.947847	18.259309	-9.339120	4.333840	-2.350040	-0.797483	-0.363585	0.422728	-1.000000	-1.000000	-1.000000	-1.000000	-1.000000	-1.000000	-1.000000	86.068966	0.000000	-1.000000	-1.000000	632305.000000	1769635075.508229
16596.495000	20470.680000	28153.710000	39978.225000	16075.305000	-1220.895000	-5885.910000	-1415.610000	4.631875	-2.615108	-3.261109	-5.566502	-5.473510	-2.133451	3.030262	7.492037	-9.339120	4.333840	-2.350040	-0.797483	-0.363585	0.422728	-1.000000	-1.000000	-1.000000	-1.000000	-1.000000	-1.000000	-1.000000	86.068966	0.000000	-1.000000	-1.000000	632306.000000	1769635075.508244
16589.205000	20459.745000	28126.755000	39967.110000	16072.110000	-1221.930000	-5899.725000	-1421.640000	-10.245618	2.401694	6.101850	10.472332	16.230063	14.428811	19.572310	-6.335540	-10.361540	1.037680	-1.388660	-0.804991	-0.358703	0.425231	-1.000000	-1.000000	-1.000000	-1.000000	-1.000000	-1.000000	-1.000000	86.068966	0.000000	-1.000000	-1.000000	632307.000000	1769635075.512357
16603.290000	20476.620000	28146.735000	39925.170000	16012.260000	-1250.415000	-5922.135000	-1416.150000	-20.378838	4.325751	8.819027	18.729540	29.143726	22.775682	25.844433	-16.500220	-10.361540	1.037680	-1.388660	-0.804991	-0.358703	0.425231	-1.000000	-1.000000	-1.000000	-1.000000	-1.000000	-1.000000	-1.000000	86.068966	0.000000	-1.000000	-1.000000	632308.000000	1769635075.512369
16614.900000	20487.375000	28144.845000	39897.135000	15992.910000	-1256.670000	-5934.915000	-1409.355000	-20.815912	3.988720	5.529796	14.262913	25.211612	18.313892	15.781360	-19.035363	-10.361540	1.037680	-1.388660	-0.804991	-0.358703	0.425231	-1.000000	-1.000000	-1.000000	-1.000000	-1.000000	-1.000000	-1.000000	86.068966	0.000000	-1.000000	-1.000000	632309.000000	1769635075.516847
16623.585000	20483.820000	28129.635000	39906.360000	16010.055000	-1244.970000	-5929.065000	-1396.395000	-12.353599	4.261797	1.763245	1.349076	8.554844	5.555929	-3.886816	-14.375009	-10.361540	1.037680	-1.388660	-0.804991	-0.358703	0.425231	-1.000000	-1.000000	-1.000000	-1.000000	-1.000000	-1.000000	-1.000000	86.068966	0.000000	-1.000000	-1.000000	632310.000000	1769635075.516861
16620.705000	20481.750000	28126.170000	39892.815000	16005.555000	-1244.745000	-5907.015000	-1398.330000	-0.776507	5.343726	0.125446	-10.085786	-7.640442	-5.784051	-18.827102	-5.994722	-10.361540	1.037680	-1.388660	-0.804991	-0.358703	0.425231	-1.000000	-1.000000	-1.000000	-1.000000	-1.000000	-1.000000	-1.000000	86.068966	0.000000	-1.000000	-1.000000	632311.000000	1769635075.520296
16612.380000	20472.570000	28098.405000	39872.925000	16027.560000	-1236.150000	-5905.215000	-1404.135000	7.637183	4.711857	-0.930980	-12.645259	-12.738003	-9.200773	-19.562114	1.961898	-10.361540	1.037680	-1.388660	-0.804991	-0.358703	0.425231	-1.000000	-1.000000	-1.000000	-1.000000	-1.000000	-1.000000	-1.000000	86.068966	0.000000	-1.000000	-1.000000	632312.000000	1769635075.520315
16612.695000	20464.695000	28076.085000	39896.910000	16066.395000	-1220.265000	-5919.975000	-1403.100000	10.774411	0.949614	-3.527000	-7.431946	-7.090639	-6.312901	-9.858966	7.237943	-10.361540	1.037680	-1.388660	-0.804991	-0.358703	0.425231	-1.000000	-1.000000	-1.000000	-1.000000	-1.000000	-1.000000	-1.000000	86.068966	0.000000	-1.000000	-1.000000	632313.000000	1769635075.526126
16620.615000	20467.935000	28102.545000	39919.905000	16039.440000	-1232.190000	-5914.530000	-1393.740000	10.762419	-4.531409	-7.391963	-0.405320	0.499346	-3.335552	-1.008473	10.268234	-10.361540	1.037680	-1.388660	-0.804991	-0.358703	0.425231	-1.000000	-1.000000	-1.000000	-1.000000	-1.000000	-1.000000	-1.000000	86.068966	0.000000	-1.000000	-1.000000	632314.000000	1769635075.526138
16634.295000	20503.800000	28182.465000	39921.840000	15974.865000	-1260.270000	-5910.840000	-1389.645000	10.404897	-7.999861	-7.791254	4.209449	0.577602	-4.557824	1.218978	12.203112	-10.361540	1.037680	-1.388660	-0.804991	-0.358703	0.425231	-1.000000	-1.000000	-1.000000	-1.000000	-1.000000	-1.000000	-1.000000	86.068966	0.000000	-1.000000	-1.000000	632315.000000	1769635075.528443
16643.340000	20525.310000	28203.030000	39925.620000	15985.395000	-1251.630000	-5909.220000	-1389.285000	10.080051	-5.926701	0.327448	5.929372	-8.271144	-8.700281	0.022118	12.487598	-10.361540	1.037680	-1.388660	-0.804991	-0.358703	0.425231	-1.000000	-1.000000	-1.000000	-1.000000	-1.000000	-1.000000	-1.000000	86.068966	0.000000	-1.000000	-1.000000	632316.000000	1769635075.528453
16625.340000	20480.895000	28145.205000	39901.635000	15976.080000	-1268.910000	-5923.125000	-1391.940000	7.345985	0.253333	13.036284	6.658248	-16.324052	-10.294159	0.208932	9.072161	-8.759240	9.537500	-1.770160	-0.806272	-0.343993	0.420958	-1.000000	-1.000000	-1.000000	-1.000000	-1.000000	-1.000000	-1.000000	86.068966	0.000000	-1.000000	-1.000000	632317.000000	1769635075.532365
16601.130000	20446.785000	28106.370000	39876.075000	15958.170000	-1287.630000	-5939.685000	-1404.495000	-0.337117	3.994346	18.606630	6.976254	-13.719644	-6.040587	2.580785	1.054908	-8.759240	9.537500	-1.770160	-0.806272	-0.343993	0.420958	-1.000000	-1.000000	-1.000000	-1.000000	-1.000000	-1.000000	-1.000000	86.068966	0.000000	-1.000000	-1.000000	632318.000000	1769635075.532377
16609.185000	20464.470000	28132.425000	39894.480000	15975.405000	-1271.070000	-5930.550000	-1402.020000	-11.607768	1.456489	11.202067	5.438722	-1.178966	2.044404	5.126919	-9.348629	-8.759240	9.537500	-1.770160	-0.806272	-0.343993	0.420958	-1.000000	-1.000000	-1.000000	-1.000000	-1.000000	-1.000000	-1.000000	86.068966	0.000000	-1.000000	-1.000000	632319.000000	1769635075.536688
16613.775000	20469.780000	28135.260000	39891.420000	15973.155000	-1271.790000	-5929.695000	-1400.985000	-20.278416	-3.659871	-2.631578	2.536354	13.636855	10.181547	6.223035	-17.223603	-8.759240	9.537500	-1.770160	-0.806272	-0.343993	0.420958	-1.000000	-1.000000	-1.000000	-1.000000	-1.000000	-1.000000	-1.000000	86.068966	0.000000	-1.000000	-1.000000	632320.000000	1769635075.536700
16632.630000	20481.660000	28141.110000	39898.710000	15981.480000	-1266.255000	-5926.275000	-1387.620000	-19.755757	-5.198741	-12.206226	0.263016	22.517931	14.918756	5.404970	-17.734567	-8.759240	9.537500	-1.770160	-0.806272	-0.343993	0.420958	-1.000000	-1.000000	-1.000000	-1.000000	-1.000000	-1.000000	-1.000000	86.068966	0.000000	-1.000000	-1.000000	632321.000000	1769635075.540437
16648.560000	20496.240000	28153.395000	39909.195000	15992.055000	-1263.690000	-5934.240000	-1378.845000	-8.725920	-1.031938	-12.487113	-1.627592	20.328965	13.594717	2.750093	-9.747085	-8.759240	9.537500	-1.770160	-0.806272	-0.343993	0.420958	-1.000000	-1.000000	-1.000000	-1.000000	-1.000000	-1.000000	-1.000000	86.068966	0.000000	-1.000000	-1.000000	632322.000000	1769635075.540449
16645.275000	20482.065000	28138.320000	39898.755000	15984.810000	-1273.905000	-5948.415000	-1379.025000	7.141084	5.587064	-6.756266	-4.754113	9.133160	6.774608	-1.257033	2.731863	-8.759240	9.537500	-1.770160	-0.806272	-0.343993	0.420958	-1.000000	-1.000000	-1.000000	-1.000000	-1.000000	-1.000000	-1.000000	86.068966	0.000000	-1.000000	-1.000000	632323.000000	1769635075.546777
16639.785000	20463.435000	28119.195000	39882.690000	15971.625000	-1278.135000	-5927.130000	-1375.740000	18.616812	8.476620	-2.828266	-9.010098	-3.209292	-1.545044	-5.014289	13.019435	-8.759240	9.537500	-1.770160	-0.806272	-0.343993	0.420958	-1.000000	-1.000000	-1.000000	-1.000000	-1.000000	-1.000000	-1.000000	86.068966	0.000000	-1.000000	-1.000000	632324.000000	1769635075.546790
16641.450000	20495.700000	28157.535000	39916.035000	15996.105000	-1264.095000	-5915.205000	-1378.215000	19.410903	4.671574	-4.051930	-11.161409	-9.792843	-6.895627	-5.669890	16.149127	-8.759240	9.537500	-1.770160	-0.806272	-0.343993	0.420958	-1.000000	-1.000000	-1.000000	-1.000000	-1.000000	-1.000000	-1.000000	86.068966	0.000000	-1.000000	-1.000000	632325.000000	1769635075.550050
16602.300000	20492.730000	28160.010000	39919.860000	16002.090000	-1262.340000	-5934.330000	-1412.415000	10.183534	-1.227267	-4.591043	-6.822384	-8.466846	-6.788793	-1.938015	11.089058	-8.759240	9.537500	-1.770160	-0.806272	-0.343993	0.420958	-1.000000	-1.000000	-1.000000	-1.000000	-1.000000	-1.000000	-1.000000	86.068966	0.000000	-1.000000	-1.000000	632326.000000	1769635075.550064
16581.690000	20454.930000	28116.405000	39880.980000	15975.675000	-1273.680000	-5943.510000	-1425.510000	-3.536604	-3.397261	1.037398	3.229338	-2.385745	-2.333273	3.447447	0.358010	-14.985320	9.308600	3.265640	-0.790525	-0.367980	0.442015	-1.000000	-1.000000	-1.000000	-1.000000	-1.000000	-1.000000	-1.000000	86.068966	0.000000	-1.000000	-1.000000	632327.000000	1769635075.552760
16595.910000	20465.820000	28125.045000	39891.510000	15986.745000	-1264.725000	-5936.265000	-1417.815000	-14.985712	-2.382752	8.767685	11.638942	2.245812	2.253794	6.226554	-10.611096	-14.985320	9.308600	3.265640	-0.790525	-0.367980	0.442015	-1.000000	-1.000000	-1.000000	-1.000000	-1.000000	-1.000000	-1.000000	86.068966	0.000000	-1.000000	-1.000000	632328.000000	1769635075.552776
16618.365000	20482.740000	28139.445000	39905.055000	16000.830000	-1254.015000	-5925.150000	-1398.690000	-18.234168	-1.279225	11.888595	12.846499	1.954031	3.576646	4.854235	-15.439035	-14.985320	9.308600	3.265640	-0.790525	-0.367980	0.442015	-1.000000	-1.000000	-1.000000	-1.000000	-1.000000	-1.000000	-1.000000	86.068966	0.000000	-1.000000	-1.000000	632329.000000	1769635075.556344
16636.050000	20473.020000	28108.260000	39877.560000	15990.255000	-1272.195000	-5932.530000	-1380.465000	-11.302486	-0.784742	8.997679	7.292882	-2.190220	1.167844	0.981558	-10.998421	-14.985320	9.308600	3.265640	-0.790525	-0.367980	0.442015	-1.000000	-1.000000	-1.000000	-1.000000	-1.000000	-1.000000	-1.000000	86.068966	0.000000	-1.000000	-1.000000	632330.000000	1769635075.556365
16654.230000	20450.655000	28065.060000	39871.080000	16005.420000	-1273.140000	-5935.185000	-1353.375000	1.842542	-1.109132	1.343446	-2.216051	-7.221654	-3.579312	-2.951133	0.254736	-14.985320	9.308600	3.265640	-0.790525	-0.367980	0.442015	-1.000000	-1.000000	-1.000000	-1.000000	-1.000000	-1.000000	-1.000000	86.068966	0.000000	-1.000000	-1.000000	632331.000000	1769635075.560297
16636.095000	20439.090000	28078.830000	39911.265000	16032.015000	-1255.590000	-5930.820000	-1360.260000	13.734737	-2.680492	-8.519267	-10.796064	-8.904453	-7.398462	-5.142397	12.014662	-14.985320	9.308600	3.265640	-0.790525	-0.367980	0.442015	-1.000000	-1.000000	-1.000000	-1.000000	-1.000000	-1.000000	-1.000000	86.068966	0.000000	-1.000000	-1.000000	632332.000000	1769635075.560309
16595.640000	20479.905000	28149.300000	39918.510000	16008.930000	-1252.890000	-5925.645000	-1416.690000	17.312431	-3.944843	-14.149601	-12.176219	-4.557601	-6.763348	-5.004500	16.858663	-14.985320	9.308600	3.265640	-0.790525	-0.367980	0.442015	-1.000000	-1.000000	-1.000000	-1.000000	-1.000000	-1.000000	-1.000000	86.068966	0.000000	-1.000000	-1.000000	632333.000000	1769635075.564227
16613.820000	20503.305000	28173.420000	39909.690000	15990.300000	-1257.885000	-5923.980000	-1406.115000	10.569886	-1.943856	-9.197463	-5.393966	2.318273	-1.863962	-3.110699	10.868910	-14.985320	9.308600	3.265640	-0.790525	-0.367980	0.442015	-1.000000	-1.000000	-1.000000	-1.000000	-1.000000	-1.000000	-1.000000	86.068966	0.000000	-1.000000	-1.000000	632334.000000	1769635075.564235
16619.760000	20495.610000	28163.790000	39917.295000	16006.770000	-1245.690000	-5921.235000	-1404.180000	-0.306740	4.070659	4.763324	3.994538	6.007894	3.839205	-0.017566	-1.254510	-14.985320	9.308600	3.265640	-0.790525	-0.367980	0.442015	-1.000000	-1.000000	-1.000000	-1.000000	-1.000000	-1.000000	-1.000000	86.068966	0.000000	-1.000000	-1.000000	632335.000000	1769635075.568322
16622.280000	20493.315000	28158.255000	39916.305000	16010.100000	-1240.605000	-5915.070000	-1401.930000	-6.807825	10.748123	18.357355	10.534166	5.713880	7.481950	3.612162	-10.239515	-14.985320	9.308600	3.265640	-0.790525	-0.367980	0.442015	-1.000000	-1.000000	-1.000000	-1.000000	-1.000000	-1.000000	-1.000000	86.068966	0.000000	-1.000000	-1.000000	632336.000000	1769635075.568334
16625.880000	20494.080000	28161.540000	39929.850000	16017.975000	-1243.170000	-5923.845000	-1398.645000	-6.749209	12.898370	22.122750	11.856575	3.868821	7.701810	5.829413	-11.515439	8.560860	6.302380	-11.704420	-0.774534	-0.384520	0.435363	-1.000000	-1.000000	-1.000000	-1.000000	-1.000000	-1.000000	-1.000000	86.068966	0.000000	-1.000000	-1.000000	632337.000000	1769635075.572364
16632.495000	20475.315000	28135.440000	39897.585000	15987.240000	-1276.695000	-5947.875000	-1387.935000	-3.844502	7.580016	13.122753	7.440602	1.175060	3.746538	4.230144	-7.040253	8.560860	6.302380	-11.704420	-0.774534	-0.384520	0.435363	-1.000000	-1.000000	-1.000000	-1.000000	-1.000000	-1.000000	-1.000000	86.068966	0.000000	-1.000000	-1.000000	632338.000000	1769635075.572379
16651.170000	20461.680000	28103.985000	39860.280000	15967.035000	-1286.415000	-5940.045000	-1361.115000	-1.827447	-3.276975	-3.785528	-1.644075	-3.178768	-3.478872	-1.083505	-0.937169	8.560860	6.302380	-11.704420	-0.774534	-0.384520	0.435363	-1.000000	-1.000000	-1.000000	-1.000000	-1.000000	-1.000000	-1.000000	86.068966	0.000000	-1.000000	-1.000000	632339.000000	1769635075.577063
16627.185000	20462.220000	28110.780000	39874.230000	15983.415000	-1278.135000	-5938.965000	-1378.125000	-1.702330	-13.447836	-19.204201	-11.868094	-8.153529	-10.140547	-6.333357	3.569988	8.560860	6.302380	-11.704420	-0.774534	-0.384520	0.435363	-1.000000	-1.000000	-1.000000	-1.000000	-1.000000	-1.000000	-1.000000	86.068966	0.000000	-1.000000	-1.000000	632340.000000	1769635075.577073
16597.305000	20478.015000	28140.480000	39926.250000	16025.445000	-1252.980000	-5937.255000	-1416.870000	-2.825593	-16.674965	-25.050095	-17.225803	-9.540193	-11.511623	-7.670260	4.528760	8.560860	6.302380	-11.704420	-0.774534	-0.384520	0.435363	-1.000000	-1.000000	-1.000000	-1.000000	-1.000000	-1.000000	-1.000000	86.068966	0.000000	-1.000000	-1.000000	632341.000000	1769635075.581604
16612.335000	20497.455000	28169.820000	39932.505000	16017.795000	-1256.355000	-5933.970000	-1412.460000	-3.640966	-11.712953	-19.666677	-12.944821	-3.749965	-6.005448	-4.728479	2.242479	8.560860	6.302380	-11.704420	-0.774534	-0.384520	0.435363	-1.000000	-1.000000	-1.000000	-1.000000	-1.000000	-1.000000	-1.000000	86.068966	0.000000	-1.000000	-1.000000	632342.000000	1769635075.581616
16615.845000	20488.230000	28151.730000	39919.005000	16013.880000	-1257.975000	-5928.840000	-1403.910000	-2.182425	-2.572638	-7.588237	-0.869592	6.785629	3.118614	0.430444	-0.333098	8.560860	6.302380	-11.704420	-0.774534	-0.384520	0.435363	-1.000000	-1.000000	-1.000000	-1.000000	-1.000000	-1.000000	-1.000000	86.068966	0.000000	-1.000000	-1.000000	632343.000000	1769635075.584342
16608.195000	20465.460000	28125.765000	39912.210000	16011.585000	-1253.610000	-5918.085000	-1403.370000	1.592172	5.467914	4.607689	11.154481	14.688841	10.277236	5.501887	-0.623131	8.560860	6.302380	-11.704420	-0.774534	-0.384520	0.435363	-1.000000	-1.000000	-1.000000	-1.000000	-1.000000	-1.000000	-1.000000	86.068966	0.000000	-1.000000	-1.000000	632344.000000	1769635075.584353
16610.985000	20461.680000	28120.410000	39902.220000	16000.515000	-1256.490000	-5917.905000	-1398.870000	5.158307	8.901464	11.743121	15.854226	14.274779	11.716720	8.461732	1.100325	8.560860	6.302380	-11.704420	-0.774534	-0.384520	0.435363	-1.000000	-1.000000	-1.000000	-1.000000	-1.000000	-1.000000	-1.000000	86.068966	0.000000	-1.000000	-1.000000	632345.000000	1769635075.588338
16622.955000	20474.820000	28133.145000	39890.745000	15985.485000	-1260.405000	-5924.385000	-1390.905000	6.175807	7.519999	12.457156	11.323016	5.595056	7.568844	8.026695	2.827626	8.560860	6.302380	-11.704420	-0.774534	-0.384520	0.435363	-1.000000	-1.000000	-1.000000	-1.000000	-1.000000	-1.000000	-1.000000	86.068966	0.000000	-1.000000	-1.000000	632346.000000	1769635075.588350
16624.530000	20478.825000	28142.775000	39899.745000	15994.530000	-1255.950000	-5928.705000	-1391.265000	4.335048	4.405778	9.897263	1.931492	-5.763677	1.354144	4.519193	2.703443	6.424460	8.072540	14.695380	-0.804197	-0.375731	0.416625	-1.000000	-1.000000	-1.000000	-1.000000	-1.000000	-1.000000	-1.000000	86.068966	0.000000	-1.000000	-1.000000	632347.000000	1769635075.594123
16616.880000	20474.730000	28142.865000	39897.450000	15992.100000	-1264.455000	-5951.520000	-1401.165000	0.631249	2.771084	8.242725	-5.011742	-12.534970	-3.000595	-0.696237	-0.098779	6.424460	8.072540	14.695380	-0.804197	-0.375731	0.416625	-1.000000	-1.000000	-1.000000	-1.000000	-1.000000	-1.000000	-1.000000	86.068966	0.000000	-1.000000	-1.000000	632348.000000	1769635075.594141
16618.455000	20474.010000	28138.545000	39905.685000	16000.155000	-1264.365000	-5958.855000	-1400.670000	-2.806323	2.765211	7.636884	-6.311179	-11.924769	-4.684815	-6.284423	-4.032842	6.424460	8.072540	14.695380	-0.804197	-0.375731	0.416625	-1.000000	-1.000000	-1.000000	-1.000000	-1.000000	-1.000000	-1.000000	86.068966	0.000000	-1.000000	-1.000000	632349.000000	1769635075.596454
16632.405000	20483.955000	28144.710000	39906.270000	15994.530000	-1267.380000	-5935.275000	-1388.565000	-3.057434	2.080721	4.252964	-4.897009	-6.859431	-5.393577	-10.096100	-5.059801	6.424460	8.072540	14.695380	-0.804197	-0.375731	0.416625	-1.000000	-1.000000	-1.000000	-1.000000	-1.000000	-1.000000	-1.000000	86.068966	0.000000	-1.000000	-1.000000	632350.000000	1769635075.596461
16668.855000	20490.120000	28138.680000	39886.965000	15988.005000	-1276.740000	-5945.355000	-1357.695000	0.815557	-0.795361	-3.820181	-4.277476	-1.294465	-5.983307	-9.503801	-0.685031	6.424460	8.072540	14.695380	-0.804197	-0.375731	0.416625	-1.000000	-1.000000	-1.000000	-1.000000	-1.000000	-1.000000	-1.000000	86.068966	0.000000	-1.000000	-1.000000	632351.000000	1769635075.600386
16693.830000	20468.745000	28072.260000	39841.020000	15990.075000	-1276.740000	-5947.425000	-1327.590000	6.572480	-4.566910	-13.349502	-5.064021	2.904510	-5.699099	-4.588937	6.912980	6.424460	8.072540	14.695380	-0.804197	-0.375731	0.416625	-1.000000	-1.000000	-1.000000	-1.000000	-1.000000	-1.000000	-1.000000	86.068966	0.000000	-1.000000	-1.000000	632352.000000	1769635075.600400
16642.530000	20441.880000	28048.680000	39871.080000	16024.680000	-1247.760000	-5907.105000	-1354.365000	9.830417	-6.960202	-19.392378	-5.701067	5.829418	-3.403027	1.942441	12.365464	6.424460	8.072540	14.695380	-0.804197	-0.375731	0.416625	-1.000000	-1.000000	-1.000000	-1.000000	-1.000000	-1.000000	-1.000000	86.068966	0.000000	-1.000000	-1.000000	632353.000000	1769635075.607139
16591.995000	20447.415000	28113.705000	39935.610000	16030.980000	-1232.865000	-5904.315000	-1402.110000	5.391787	-7.187630	-17.911741	-2.600146	8.414671	1.518978	7.944246	9.938774	6.424460	8.072540	14.695380	-0.804197	-0.375731	0.416625	-1.000000	-1.000000	-1.000000	-1.000000	-1.000000	-1.000000	-1.000000	86.068966	0.000000	-1.000000	-1.000000	632354.000000	1769635075.607154
16624.035000	20496.330000	28181.025000	39899.925000	15954.795000	-1276.695000	-5928.975000	-1396.440000	-7.161696	-4.769672	-6.065792	6.114069	9.354411	7.215849	11.467991	-1.785488	6.424460	8.072540	14.695380	-0.804197	-0.375731	0.416625	-1.000000	-1.000000	-1.000000	-1.000000	-1.000000	-1.000000	-1.000000	86.068966	0.000000	-1.000000	-1.000000	632355.000000	1769635075.608716
16632.315000	20502.585000	28170.270000	39919.365000	15992.235000	-1260.495000	-5930.325000	-1388.970000	-19.405194	1.168443	13.377720	15.534502	5.505439	9.542840	10.167600	-16.106387	6.424460	8.072540	14.695380	-0.804197	-0.375731	0.416625	-1.000000	-1.000000	-1.000000	-1.000000	-1.000000	-1.000000	-1.000000	86.068966	0.000000	-1.000000	-1.000000	632356.000000	1769635075.608728
16624.890000	20500.605000	28164.735000	39923.910000	16001.550000	-1262.295000	-5936.580000	-1397.565000	-21.526374	8.783734	29.440898	18.396065	-1.886915	6.826971	4.275626	-22.971191	-44.284520	10.849860	-7.691040	-0.795164	-0.330260	0.415160	-1.000000	-1.000000	-1.000000	-1.000000	-1.000000	-1.000000	-1.000000	86.068966	0.000000	-1.000000	-1.000000	632357.000000	1769635075.612418
16617.825000	20510.145000	28174.905000	39935.475000	16011.405000	-1259.730000	-5922.855000	-1403.820000	-11.912461	13.137138	31.000826	12.214034	-7.495335	1.365152	-2.814900	-17.811507	-44.284520	10.849860	-7.691040	-0.795164	-0.330260	0.415160	-1.000000	-1.000000	-1.000000	-1.000000	-1.000000	-1.000000	-1.000000	86.068966	0.000000	-1.000000	-1.000000	632358.000000	1769635075.612428
16618.095000	20475.990000	28133.010000	39895.965000	15976.350000	-1280.025000	-5926.995000	-1390.140000	2.658663	10.186828	15.981288	-0.314895	-8.601303	-3.918903	-7.754200	-4.237875	-44.284520	10.849860	-7.691040	-0.795164	-0.330260	0.415160	-1.000000	-1.000000	-1.000000	-1.000000	-1.000000	-1.000000	-1.000000	86.068966	0.000000	-1.000000	-1.000000	632359.000000	1769635075.616477
16614.855000	20457.000000	28118.610000	39890.295000	15977.655000	-1268.415000	-5924.745000	-1390.905000	13.128479	0.042904	-7.793512	-13.344810	-6.521625	-7.024388	-9.067051	9.608283	-44.284520	10.849860	-7.691040	-0.795164	-0.330260	0.415160	-1.000000	-1.000000	-1.000000	-1.000000	-1.000000	-1.000000	-1.000000	86.068966	0.000000	-1.000000	-1.000000	632360.000000	1769635075.616489
16614.945000	20459.250000	28128.690000	39903.255000	15989.130000	-1256.895000	-5914.620000	-1392.435000	14.898855	-11.575891	-26.499284	-19.943909	-3.373581	-6.762791	-7.009439	16.683410	-44.284520	10.849860	-7.691040	-0.795164	-0.330260	0.415160	-1.000000	-1.000000	-1.000000	-1.000000	-1.000000	-1.000000	-1.000000	86.068966	0.000000	-1.000000	-1.000000	632361.000000	1769635075.622002
16614.855000	20480.310000	28143.225000	39909.870000	15986.880000	-1272.870000	-5935.140000	-1401.030000	10.814169	-16.313643	-29.245361	-16.997079	-0.466726	-3.970160	-3.702243	15.587569	-44.284520	10.849860	-7.691040	-0.795164	-0.330260	0.415160	-1.000000	-1.000000	-1.000000	-1.000000	-1.000000	-1.000000	-1.000000	86.068966	0.000000	-1.000000	-1.000000	632362.000000	1769635075.622021
16622.730000	20486.385000	28145.925000	39911.805000	15988.320000	-1272.510000	-5938.290000	-1398.015000	6.765130	-10.851506	-17.726714	-8.142566	1.909964	-1.076140	-1.591077	10.159246	-44.284520	10.849860	-7.691040	-0.795164	-0.330260	0.415160	-1.000000	-1.000000	-1.000000	-1.000000	-1.000000	-1.000000	-1.000000	86.068966	0.000000	-1.000000	-1.000000	632363.000000	1769635075.635756
16629.300000	20473.830000	28129.635000	39898.485000	15981.660000	-1273.320000	-5930.190000	-1384.965000	4.731559	-0.478295	-3.390014	0.920066	4.660006	1.131347	-0.343717	4.595845	-44.284520	10.849860	-7.691040	-0.795164	-0.330260	0.415160	-1.000000	-1.000000	-1.000000	-1.000000	-1.000000	-1.000000	-1.000000	86.068966	0.000000	-1.000000	-1.000000	632364.000000	1769635075.635772
16628.985000	20488.860000	28145.835000	39909.105000	15992.730000	-1263.555000	-5919.840000	-1386.495000	2.647845	7.010980	5.202802	6.935957	7.366195	3.356203	2.255351	0.484633	-44.284520	10.849860	-7.691040	-0.795164	-0.330260	0.415160	-1.000000	-1.000000	-1.000000	-1.000000	-1.000000	-1.000000	-1.000000	86.068966	0.000000	-1.000000	-1.000000	632365.000000	1769635075.635786
16631.235000	20503.890000	28161.315000	39923.325000	16008.255000	-1248.390000	-5914.980000	-1388.430000	-0.621494	8.961820	8.190792	8.973041	7.564406	5.357943	6.411724	-2.178565	-44.284520	10.849860	-7.691040	-0.795164	-0.330260	0.415160	-1.000000	-1.000000	-1.000000	-1.000000	-1.000000	-1.000000	-1.000000	86.068966	0.000000	-1.000000	-1.000000	632366.000000	1769635075.635791
16618.635000	20472.660000	28125.090000	39890.835000	15975.360000	-1278.945000	-5938.245000	-1391.895000	-4.081337	6.988538	8.653842	7.536821	4.162791	5.936075	9.072783	-3.779777	-36.669780	2.380560	-5.188400	-0.784056	-0.351501	0.418029	-1.000000	-1.000000	-1.000000	-1.000000	-1.000000	-1.000000	-1.000000	86.068966	0.000000	-1.000000	-1.000000	632367.000000	1769635075.635797
16611.930000	20461.950000	28116.000000	39880.350000	15962.490000	-1288.800000	-5947.065000	-1396.440000	-6.987317	2.872432	7.560529	4.040497	-1.417512	3.838602	6.887244	-5.181964	-36.669780	2.380560	-5.188400	-0.784056	-0.351501	0.418029	-1.000000	-1.000000	-1.000000	-1.000000	-1.000000	-1.000000	-1.000000	86.068966	0.000000	-1.000000	-1.000000	632368.000000	1769635075.635802
16623.855000	20479.455000	28136.700000	39903.345000	15983.955000	-1269.135000	-5930.820000	-1389.105000	-8.871344	-1.022692	5.967879	0.976334	-6.324821	-0.585697	0.475473	-6.841727	-36.669780	2.380560	-5.188400	-0.784056	-0.351501	0.418029	-1.000000	-1.000000	-1.000000	-1.000000	-1.000000	-1.000000	-1.000000	86.068966	0.000000	-1.000000	-1.000000	632369.000000	1769635075.636466
16617.150000	20471.670000	28128.555000	39894.705000	15973.335000	-1279.980000	-5933.070000	-1391.940000	-8.281509	-2.140725	5.476234	0.214495	-8.063221	-4.902389	-5.832114	-7.453899	-36.669780	2.380560	-5.188400	-0.784056	-0.351501	0.418029	-1.000000	-1.000000	-1.000000	-1.000000	-1.000000	-1.000000	-1.000000	86.068966	0.000000	-1.000000	-1.000000	632370.000000	1769635075.636477
16613.505000	20464.875000	28120.410000	39886.695000	15965.370000	-1285.470000	-5938.785000	-1394.955000	-4.403877	-1.089513	4.719733	0.334312	-6.544002	-6.863924	-8.251213	-5.257333	-36.669780	2.380560	-5.188400	-0.784056	-0.351501	0.418029	-1.000000	-1.000000	-1.000000	-1.000000	-1.000000	-1.000000	-1.000000	86.068966	0.000000	-1.000000	-1.000000	632371.000000	1769635075.640572
16626.420000	20482.560000	28140.255000	39906.585000	15983.055000	-1271.295000	-5929.605000	-1387.305000	1.052874	-0.552251	1.178720	-0.579016	-2.831464	-5.504726	-5.877601	-0.613350	-36.669780	2.380560	-5.188400	-0.784056	-0.351501	0.418029	-1.000000	-1.000000	-1.000000	-1.000000	-1.000000	-1.000000	-1.000000	86.068966	0.000000	-1.000000	-1.000000	632372.000000	1769635075.640587
16628.085000	20487.600000	28148.085000	39914.865000	15988.860000	-1268.145000	-5927.580000	-1386.630000	5.274867	-1.018009	-3.750963	-1.320717	2.339026	-1.130887	-0.509432	3.940567	-36.669780	2.380560	-5.188400	-0.784056	-0.351501	0.418029	-1.000000	-1.000000	-1.000000	-1.000000	-1.000000	-1.000000	-1.000000	86.068966	0.000000	-1.000000	-1.000000	632373.000000	1769635075.644525
16615.935000	20475.270000	28133.730000	39898.935000	15971.895000	-1285.290000	-5938.920000	-1392.390000	6.538663	-1.488170	-6.777622	-0.833612	6.553413	3.595793	4.309291	6.048045	-36.669780	2.380560	-5.188400	-0.784056	-0.351501	0.418029	-1.000000	-1.000000	-1.000000	-1.000000	-1.000000	-1.000000	-1.000000	86.068966	0.000000	-1.000000	-1.000000	632374.000000	1769635075.644538
16617.150000	20479.230000	28133.325000	39893.805000	15964.110000	-1293.030000	-5942.070000	-1391.805000	4.834692	-1.951606	-7.210315	-0.765906	6.430681	5.050325	5.538989	5.269847	-36.669780	2.380560	-5.188400	-0.784056	-0.351501	0.418029	-1.000000	-1.000000	-1.000000	-1.000000	-1.000000	-1.000000	-1.000000	86.068966	0.000000	-1.000000	-1.000000	632375.000000	1769635075.654993
16629.345000	20495.205000	28140.660000	39895.380000	15962.355000	-1290.870000	-5937.705000	-1385.190000	1.900878	-1.614059	-5.213397	-1.584896	2.406350	2.948635	3.331814	2.818651	-36.669780	2.380560	-5.188400	-0.784056	-0.351501	0.418029	-1.000000	-1.000000	-1.000000	-1.000000	-1.000000	-1.000000	-1.000000	86.068966	0.000000	-1.000000	-1.000000	632376.000000	1769635075.655006
16621.245000	20490.030000	28137.645000	39887.325000	15936.795000	-1293.840000	-5926.905000	-1388.340000	-0.166757	1.081960	-0.511316	-1.452069	-1.824067	0.268743	0.557543	0.214950	-13.001520	1.693860	-3.662400	-0.798155	-0.383666	0.401977	-1.000000	-1.000000	-1.000000	-1.000000	-1.000000	-1.000000	-1.000000	86.068966	0.000000	-1.000000	-1.000000	632377.000000	1769635075.655018
16614.765000	20510.235000	28153.890000	39885.255000	15911.910000	-1298.070000	-5920.965000	-1391.310000	-1.119991	5.056750	5.058078	-0.209066	-4.805550	-1.275170	-0.751178	-1.770705	-13.001520	1.693860	-3.662400	-0.798155	-0.383666	0.401977	-1.000000	-1.000000	-1.000000	-1.000000	-1.000000	-1.000000	-1.000000	86.068966	0.000000	-1.000000	-1.000000	632378.000000	1769635075.655024
16622.370000	20505.870000	28160.730000	39903.345000	15936.120000	-1293.255000	-5936.535000	-1386.990000	-1.625539	7.312493	8.374275	0.698094	-6.673003	-1.837048	-0.943003	-2.742725	-13.001520	1.693860	-3.662400	-0.798155	-0.383666	0.401977	-1.000000	-1.000000	-1.000000	-1.000000	-1.000000	-1.000000	-1.000000	86.068966	0.000000	-1.000000	-1.000000	632379.000000	1769635075.656547
16633.935000	20481.975000	28158.300000	39936.195000	15997.545000	-1275.705000	-5940.450000	-1383.075000	-1.406575	5.555222	7.671594	1.564799	-4.782663	-1.051003	-1.193205	-2.229407	-13.001520	1.693860	-3.662400	-0.798155	-0.383666	0.401977	-1.000000	-1.000000	-1.000000	-1.000000	-1.000000	-1.000000	-1.000000	86.068966	0.000000	-1.000000	-1.000000	632380.000000	1769635075.656559
16622.010000	20445.210000	28120.320000	39899.745000	15999.795000	-1249.065000	-5890.050000	-1383.390000	-0.576619	-1.214608	2.410803	2.843153	2.983060	1.543012	-1.362177	-0.662038	-13.001520	1.693860	-3.662400	-0.798155	-0.383666	0.401977	-1.000000	-1.000000	-1.000000	-1.000000	-1.000000	-1.000000	-1.000000	86.068966	0.000000	-1.000000	-1.000000	632381.000000	1769635075.660537
16646.805000	20483.685000	28145.835000	39915.630000	15981.435000	-1232.730000	-5899.140000	-1377.180000	-0.003192	-10.403431	-5.861148	2.642137	12.035427	5.110468	-0.011297	0.733601	-13.001520	1.693860	-3.662400	-0.798155	-0.383666	0.401977	-1.000000	-1.000000	-1.000000	-1.000000	-1.000000	-1.000000	-1.000000	86.068966	0.000000	-1.000000	-1.000000	632382.000000	1769635075.660550
16674.930000	20519.370000	28179.360000	39945.330000	15971.805000	-1253.475000	-5958.540000	-1359.540000	0.983624	-14.761646	-11.641093	0.525731	14.557811	7.421719	1.808494	1.683734	-13.001520	1.693860	-3.662400	-0.798155	-0.383666	0.401977	-1.000000	-1.000000	-1.000000	-1.000000	-1.000000	-1.000000	-1.000000	86.068966	0.000000	-1.000000	-1.000000	632383.000000	1769635075.664451
16628.445000	20470.545000	28129.905000	39905.370000	15956.145000	-1292.265000	-5958.630000	-1380.915000	2.771639	-9.713556	-10.128283	-1.143042	7.995481	5.546791	0.439742	2.345882	-13.001520	1.693860	-3.662400	-0.798155	-0.383666	0.401977	-1.000000	-1.000000	-1.000000	-1.000000	-1.000000	-1.000000	-1.000000	86.068966	0.000000	-1.000000	-1.000000	632384.000000	1769635075.664466
16621.335000	20471.625000	28124.370000	39894.795000	15990.750000	-1317.645000	-5992.065000	-1391.805000	2.508476	0.259698	-3.569677	-1.914765	-2.734022	-1.803586	-4.713671	1.548179	-13.001520	1.693860	-3.662400	-0.798155	-0.383666	0.401977	-1.000000	-1.000000	-1.000000	-1.000000	-1.000000	-1.000000	-1.000000	86.068966	0.000000	-1.000000	-1.000000	632385.000000	1769635075.680561
16635.645000	20485.575000	28127.295000	39875.895000	15968.025000	-1326.330000	-6013.440000	-1387.530000	-1.368579	7.769460	2.318191	-3.331810	-10.102620	-11.761221	-10.501882	-1.389795	-13.001520	1.693860	-3.662400	-0.798155	-0.383666	0.401977	-1.000000	-1.000000	-1.000000	-1.000000	-1.000000	-1.000000	-1.000000	86.068966	0.000000	-1.000000	-1.000000	632386.000000	1769635075.680574
16635.555000	20456.055000	28120.725000	39897.900000	15986.160000	-1287.540000	-5943.150000	-1378.035000	-5.458751	9.609244	4.686583	-5.185808	-10.533702	-17.732310	-12.273486	-4.338953	11.750200	1.587040	-4.928980	-0.795713	-0.414184	0.407287	-1.000000	-1.000000	-1.000000	-1.000000	-1.000000	-1.000000	-1.000000	86.068966	0.000000	-1.000000	-1.000000	632387.000000	1769635075.680587
16635.285000	20480.130000	28150.470000	39934.845000	16017.030000	-1249.695000	-5910.480000	-1375.020000	-6.151856	6.586488	4.201170	-5.110332	-5.948575	-13.663483	-4.934835	-4.513291	11.750200	1.587040	-4.928980	-0.795713	-0.414184	0.407287	-1.000000	-1.000000	-1.000000	-1.000000	-1.000000	-1.000000	-1.000000	86.068966	0.000000	-1.000000	-1.000000	632388.000000	1769635075.680593
16636.545000	20491.470000	28155.510000	39923.955000	16002.045000	-1262.385000	-5926.635000	-1374.165000	-3.596366	2.713561	3.583611	-1.618269	-1.016817	-0.538754	10.181899	-1.715955	11.750200	1.587040	-4.928980	-0.795713	-0.414184	0.407287	-1.000000	-1.000000	-1.000000	-1.000000	-1.000000	-1.000000	-1.000000	86.068966	0.000000	-1.000000	-1.000000	632389.000000	1769635075.680599
16602.570000	20452.455000	28113.750000	39882.330000	15965.955000	-1273.815000	-5891.490000	-1386.405000	-0.425191	1.391193	4.194129	3.046884	-0.096768	12.379295	22.617275	1.674775	11.750200	1.587040	-4.928980	-0.795713	-0.414184	0.407287	-1.000000	-1.000000	-1.000000	-1.000000	-1.000000	-1.000000	-1.000000	86.068966	0.000000	-1.000000	-1.000000	632390.000000	1769635075.680604
16577.190000	20434.230000	28096.290000	39861.945000	15936.210000	-1276.920000	-5855.805000	-1399.680000	0.171682	0.343893	3.240099	4.259367	-3.863686	16.178549	24.465189	2.882550	11.750200	1.587040	-4.928980	-0.795713	-0.414184	0.407287	-1.000000	-1.000000	-1.000000	-1.000000	-1.000000	-1.000000	-1.000000	86.068966	0.000000	-1.000000	-1.000000	632391.000000	1769635075.691653
16634.385000	20540.745000	28191.645000	39928.455000	15964.335000	-1234.665000	-5897.115000	-1385.595000	-1.898190	-2.485780	-0.428174	1.199161	-7.983042	11.274200	17.191956	1.201556	11.750200	1.587040	-4.928980	-0.795713	-0.414184	0.407287	-1.000000	-1.000000	-1.000000	-1.000000	-1.000000	-1.000000	-1.000000	86.068966	0.000000	-1.000000	-1.000000	632392.000000	1769635075.691669
16740.540000	20716.380000	28355.940000	40058.640000	16065.720000	-1184.625000	-5947.155000	-1335.735000	-0.129660	0.074837	0.888933	1.302860	-5.461540	6.003273	4.291735	-0.279696	11.750200	1.587040	-4.928980	-0.795713	-0.414184	0.407287	-1.000000	-1.000000	-1.000000	-1.000000	-1.000000	-1.000000	-1.000000	86.068966	0.000000	-1.000000	-1.000000	632393.000000	1769635075.691684
16729.650000	20703.780000	28346.985000	40036.410000	16027.200000	-1248.795000	-5966.865000	-1345.410000	10.650382	14.246696	13.719699	11.187252	6.129054	5.553681	-11.694804	2.136998	11.750200	1.587040	-4.928980	-0.795713	-0.414184	0.407287	-1.000000	-1.000000	-1.000000	-1.000000	-1.000000	-1.000000	-1.000000	86.068966	0.000000	-1.000000	-1.000000	632394.000000	1769635075.691690
16627.455000	20456.280000	28150.470000	39960.450000	16030.395000	-1265.805000	-5942.250000	-1386.900000	21.906041	26.253322	25.741343	22.667921	19.025964	5.068739	-25.111852	6.267393	11.750200	1.587040	-4.928980	-0.795713	-0.414184	0.407287	-1.000000	-1.000000	-1.000000	-1.000000	-1.000000	-1.000000	-1.000000	86.068966	0.000000	-1.000000	-1.000000	632395.000000	1769635075.691696
16620.885000	20425.680000	28101.915000	39945.240000	16046.955000	-1249.650000	-5923.710000	-1380.780000	18.650353	13.305599	15.101849	19.378706	22.446589	-2.001815	-29.381254	5.900535	11.750200	1.587040	-4.928980	-0.795713	-0.414184	0.407287	-1.000000	-1.000000	-1.000000	-1.000000	-1.000000	-1.000000	-1.000000	86.068966	0.000000	-1.000000	-1.000000	632396.000000	1769635075.691701
16687.620000	20499.480000	28169.505000	39967.605000	16082.010000	-1227.240000	-5938.605000	-1342.755000	0.091632	-22.476956	-18.599198	-2.272154	13.503713	-13.486390	-22.793760	0.120894	21.455560	1.327620	-4.791640	-0.794248	-0.402770	0.410949	-1.000000	-1.000000	-1.000000	-1.000000	-1.000000	-1.000000	-1.000000	86.068966	0.000000	-1.000000	-1.000000	632397.000000	1769635075.696158
16651.305000	20478.420000	28128.510000	39884.085000	15986.295000	-1274.445000	-5910.975000	-1359.990000	-18.870155	-51.992291	-49.613721	-28.609113	-2.656693	-21.507446	-9.043662	-5.620605	21.455560	1.327620	-4.791640	-0.794248	-0.402770	0.410949	-1.000000	-1.000000	-1.000000	-1.000000	-1.000000	-1.000000	-1.000000	86.068966	0.000000	-1.000000	-1.000000	632398.000000	1769635075.696171
16577.235000	20442.330000	28083.780000	39810.960000	15883.110000	-1332.945000	-5908.860000	-1409.085000	-26.481895	-52.328708	-54.828036	-44.019762	-19.878204	-22.022910	5.831014	-7.808641	21.455560	1.327620	-4.791640	-0.794248	-0.402770	0.410949	-1.000000	-1.000000	-1.000000	-1.000000	-1.000000	-1.000000	-1.000000	86.068966	0.000000	-1.000000	-1.000000	632399.000000	1769635075.699457
16614.495000	20458.845000	28124.595000	39894.165000	15953.805000	-1270.845000	-5934.870000	-1390.590000	-22.811413	-25.937830	-32.990755	-41.267708	-31.875073	-15.878204	16.032651	-7.562437	21.455560	1.327620	-4.791640	-0.794248	-0.402770	0.410949	-1.000000	-1.000000	-1.000000	-1.000000	-1.000000	-1.000000	-1.000000	86.068966	0.000000	-1.000000	-1.000000	632400.000000	1769635075.699470
16662.195000	20481.795000	28156.590000	39967.110000	16039.980000	-1219.455000	-5915.610000	-1348.830000	-12.285927	7.957678	1.013202	-20.411657	-29.937912	-3.652561	19.256875	-5.547301	21.455560	1.327620	-4.791640	-0.794248	-0.402770	0.410949	-1.000000	-1.000000	-1.000000	-1.000000	-1.000000	-1.000000	-1.000000	86.068966	0.000000	-1.000000	-1.000000	632401.000000	1769635075.703129
16630.020000	20483.460000	28149.480000	39917.880000	16011.090000	-1267.830000	-5926.410000	-1377.540000	0.082329	29.599067	28.264430	9.380363	-11.798236	12.153006	18.034728	-1.490833	21.455560	1.327620	-4.791640	-0.794248	-0.402770	0.410949	-1.000000	-1.000000	-1.000000	-1.000000	-1.000000	-1.000000	-1.000000	86.068966	0.000000	-1.000000	-1.000000	632402.000000	1769635075.703144
16662.555000	20541.960000	28219.545000	39978.585000	16070.400000	-1222.830000	-5963.895000	-1375.875000	9.696549	33.833133	39.344619	33.428606	12.827584	24.989301	14.440152	2.881569	21.455560	1.327620	-4.791640	-0.794248	-0.402770	0.410949	-1.000000	-1.000000	-1.000000	-1.000000	-1.000000	-1.000000	-1.000000	86.068966	0.000000	-1.000000	-1.000000	632403.000000	1769635075.706252
16764.795000	20665.710000	28355.805000	40123.035000	16211.835000	-1105.785000	-5907.510000	-1302.165000	18.076843	34.363591	42.615886	46.201588	33.581513	31.271464	7.289177	6.917020	21.455560	1.327620	-4.791640	-0.794248	-0.402770	0.410949	-1.000000	-1.000000	-1.000000	-1.000000	-1.000000	-1.000000	-1.000000	86.068966	0.000000	-1.000000	-1.000000	632404.000000	1769635075.706265
16743.060000	20629.755000	28312.515000	40077.585000	16185.510000	-1087.245000	-5744.475000	-1286.730000	27.741769	41.989035	47.444605	49.827690	44.516914	31.512230	-0.320212	11.876937	21.455560	1.327620	-4.791640	-0.794248	-0.402770	0.410949	-1.000000	-1.000000	-1.000000	-1.000000	-1.000000	-1.000000	-1.000000	86.068966	0.000000	-1.000000	-1.000000	632405.000000	1769635075.713307
16645.455000	20476.350000	28132.695000	39901.590000	15985.710000	-1254.240000	-5879.430000	-1364.850000	30.138177	42.747588	42.418694	38.605763	36.772061	21.977272	-2.427360	14.277484	21.455560	1.327620	-4.791640	-0.794248	-0.402770	0.410949	-1.000000	-1.000000	-1.000000	-1.000000	-1.000000	-1.000000	-1.000000	86.068966	0.000000	-1.000000	-1.000000	632406.000000	1769635075.713321
