Channel1	Channel2	Channel3	Channel4	Channel5	Channel6	Channel7	Channel8	FilteredChannel1	FilteredChannel2	FilteredChannel3	FilteredChannel4	FilteredChannel5	FilteredChannel6	FilteredChannel7	FilteredChannel8	GyroX	GyroY	GyroZ	AccX	AccY	AccZ	PPG1	PPG2	rawPPG1	rawPPG2	rawPPG3	Hr	Hrv	Battery	Trigger	PhysicalTrigger	AutoTrigger	NumMeasurements	Timestamp
-7965.945000	-12919.230000	4731.885000	-1688.940000	-23386.635000	-17165.160000	-236.475000	-7655.355000	20.520354	2.677820	1.868793	3.568049	8.387359	0.097865	0.608274	9.647181	-6.363420	6.256600	1.342880	0.754271	-0.110046	0.614989	-1.000000	-1.000000	-1.000000	-1.000000	-1.000000	-1.000000	-1.000000	83.655172	0.000000	-1.000000	-1.000000	830450.000000	1772895372.650891
-7967.205000	-12927.600000	4717.395000	-1705.950000	-23399.280000	-17182.980000	-256.905000	-7648.695000	25.544203	5.083646	3.736045	6.120834	14.851797	2.850920	-0.656431	15.160716	-3.464020	5.951400	1.297100	0.752501	-0.115478	0.611754	-1.000000	-1.000000	-1.000000	-1.000000	-1.000000	-1.000000	-1.000000	83.655172	0.000000	-1.000000	-1.000000	830451.000000	1772895372.657044
-7977.870000	-12925.395000	4706.280000	-1721.970000	-23412.870000	-17200.665000	-254.520000	-7632.900000	17.285135	3.656116	1.766407	4.133836	17.222234	3.057657	-3.980389	12.584418	-3.464020	5.951400	1.297100	0.752501	-0.115478	0.611754	-1.000000	-1.000000	-1.000000	-1.000000	-1.000000	-1.000000	-1.000000	83.655172	0.000000	-1.000000	-1.000000	830452.000000	1772895372.657053
-7984.440000	-12934.845000	4702.545000	-1723.230000	-23407.605000	-17191.080000	-238.950000	-7612.605000	0.584190	0.249766	-2.173574	-1.064366	12.162290	-0.082452	-8.122205	4.443477	-3.464020	5.951400	1.297100	0.752501	-0.115478	0.611754	-1.000000	-1.000000	-1.000000	-1.000000	-1.000000	-1.000000	-1.000000	83.655172	0.000000	-1.000000	-1.000000	830453.000000	1772895372.659844
-7975.755000	-12943.710000	4706.730000	-1714.590000	-23395.725000	-17182.125000	-242.370000	-7618.680000	-15.214269	-3.000980	-5.102363	-5.894827	1.251612	-3.931538	-9.371083	-3.411267	-3.464020	5.951400	1.297100	0.752501	-0.115478	0.611754	-1.000000	-1.000000	-1.000000	-1.000000	-1.000000	-1.000000	-1.000000	83.655172	0.000000	-1.000000	-1.000000	830454.000000	1772895372.659852
-7988.310000	-12956.040000	4697.010000	-1720.395000	-23396.040000	-17186.625000	-263.340000	-7655.985000	-22.968823	-5.525857	-5.470493	-7.368835	-9.490269	-5.271114	-6.305135	-7.886179	-3.464020	5.951400	1.297100	0.752501	-0.115478	0.611754	-1.000000	-1.000000	-1.000000	-1.000000	-1.000000	-1.000000	-1.000000	83.655172	0.000000	-1.000000	-1.000000	830455.000000	1772895372.664164
-8019.540000	-12963.645000	4677.255000	-1743.435000	-23414.490000	-17205.435000	-264.825000	-7654.050000	-22.267474	-7.039823	-3.843085	-5.246062	-14.304653	-3.365886	-1.288088	-10.542054	-3.464020	5.951400	1.297100	0.752501	-0.115478	0.611754	-1.000000	-1.000000	-1.000000	-1.000000	-1.000000	-1.000000	-1.000000	83.655172	0.000000	-1.000000	-1.000000	830456.000000	1772895372.664174
-8041.320000	-12953.565000	4681.620000	-1741.815000	-23413.725000	-17206.695000	-253.755000	-7637.895000	-17.757820	-6.839431	-1.994102	-2.010818	-12.695456	-0.250291	2.955623	-13.154470	-3.464020	5.951400	1.297100	0.752501	-0.115478	0.611754	-1.000000	-1.000000	-1.000000	-1.000000	-1.000000	-1.000000	-1.000000	83.655172	0.000000	-1.000000	-1.000000	830457.000000	1772895372.669881
-8011.980000	-12948.795000	4690.620000	-1731.690000	-23403.600000	-17201.520000	-249.705000	-7639.245000	-12.534295	-4.362536	-0.735408	0.131628	-8.142991	1.519353	5.589218	-13.830693	-3.464020	5.951400	1.297100	0.752501	-0.115478	0.611754	-1.000000	-1.000000	-1.000000	-1.000000	-1.000000	-1.000000	-1.000000	83.655172	0.000000	-1.000000	-1.000000	830458.000000	1772895372.669890
-7991.820000	-12947.085000	4693.455000	-1730.430000	-23413.320000	-17204.265000	-242.010000	-7634.970000	-5.110372	0.014571	0.753118	1.493411	-2.934700	1.324323	6.748093	-9.829923	-3.464020	5.951400	1.297100	0.752501	-0.115478	0.611754	-1.000000	-1.000000	-1.000000	-1.000000	-1.000000	-1.000000	-1.000000	83.655172	0.000000	-1.000000	-1.000000	830459.000000	1772895372.671166
-7990.965000	-12933.720000	4709.115000	-1716.030000	-23400.270000	-17195.040000	-247.590000	-7632.990000	6.142079	5.290575	3.761128	3.827618	2.603546	0.902760	6.629536	-1.794144	-3.464020	5.951400	1.297100	0.752501	-0.115478	0.611754	-1.000000	-1.000000	-1.000000	-1.000000	-1.000000	-1.000000	-1.000000	83.655172	0.000000	-1.000000	-1.000000	830460.000000	1772895372.671174
-8007.615000	-12909.915000	4740.165000	-1683.540000	-23363.955000	-17163.495000	-238.005000	-7650.720000	18.188813	10.409925	8.681649	8.118430	8.232396	2.573530	5.093716	6.229660	-0.320460	7.523180	0.564620	0.752562	-0.114990	0.605955	-1.000000	-1.000000	-1.000000	-1.000000	-1.000000	-1.000000	-1.000000	83.655172	0.000000	-1.000000	-1.000000	830461.000000	1772895372.674813
-8039.745000	-12925.620000	4727.295000	-1692.945000	-23369.895000	-17168.490000	-254.115000	-7682.490000	24.542135	13.579557	13.380573	12.591323	12.464199	6.219437	1.774596	9.653731	-0.320460	7.523180	0.564620	0.752562	-0.114990	0.605955	-1.000000	-1.000000	-1.000000	-1.000000	-1.000000	-1.000000	-1.000000	83.655172	0.000000	-1.000000	-1.000000	830462.000000	1772895372.674822
-8027.730000	-12944.115000	4700.925000	-1719.855000	-23398.020000	-17194.230000	-271.215000	-7691.445000	20.935399	12.068235	13.173009	12.554903	11.893207	8.013919	-2.940250	7.351898	-0.320460	7.523180	0.564620	0.752562	-0.114990	0.605955	-1.000000	-1.000000	-1.000000	-1.000000	-1.000000	-1.000000	-1.000000	83.655172	0.000000	-1.000000	-1.000000	830463.000000	1772895372.679787
-8010.090000	-12950.190000	4690.395000	-1732.680000	-23411.475000	-17212.635000	-290.160000	-7672.365000	10.065403	4.813695	5.312629	4.979023	4.623089	4.328096	-7.356292	3.312439	-0.320460	7.523180	0.564620	0.752562	-0.114990	0.605955	-1.000000	-1.000000	-1.000000	-1.000000	-1.000000	-1.000000	-1.000000	83.655172	0.000000	-1.000000	-1.000000	830464.000000	1772895372.679795
-8008.875000	-12967.155000	4675.005000	-1746.900000	-23421.195000	-17219.655000	-289.530000	-7664.085000	-0.633047	-5.489711	-6.974811	-7.066163	-6.024265	-3.519334	-9.390806	2.088336	-0.320460	7.523180	0.564620	0.752562	-0.114990	0.605955	-1.000000	-1.000000	-1.000000	-1.000000	-1.000000	-1.000000	-1.000000	83.655172	0.000000	-1.000000	-1.000000	830465.000000	1772895372.684136
-8018.505000	-12965.490000	4677.930000	-1743.615000	-23414.085000	-17205.300000	-258.840000	-7665.120000	-6.441794	-14.311720	-17.142704	-16.952954	-14.079259	-10.372727	-7.618702	3.710350	-0.320460	7.523180	0.564620	0.752562	-0.114990	0.605955	-1.000000	-1.000000	-1.000000	-1.000000	-1.000000	-1.000000	-1.000000	83.655172	0.000000	-1.000000	-1.000000	830466.000000	1772895372.684145
-8006.220000	-12944.205000	4699.080000	-1725.525000	-23399.910000	-17194.815000	-247.455000	-7651.755000	-8.404213	-17.590829	-20.018585	-19.521324	-15.205494	-11.796486	-1.831493	5.310110	-0.320460	7.523180	0.564620	0.752562	-0.114990	0.605955	-1.000000	-1.000000	-1.000000	-1.000000	-1.000000	-1.000000	-1.000000	83.655172	0.000000	-1.000000	-1.000000	830467.000000	1772895372.688153
-7995.150000	-12936.960000	4707.810000	-1714.590000	-23387.490000	-17181.810000	-238.725000	-7638.660000	-9.029537	-13.096101	-13.897649	-13.243445	-8.459295	-6.803074	5.942043	5.181870	-0.320460	7.523180	0.564620	0.752562	-0.114990	0.605955	-1.000000	-1.000000	-1.000000	-1.000000	-1.000000	-1.000000	-1.000000	83.655172	0.000000	-1.000000	-1.000000	830468.000000	1772895372.688161
-8003.655000	-12948.975000	4697.010000	-1726.245000	-23401.395000	-17189.955000	-238.320000	-7636.230000	-8.477315	-3.002152	-2.040612	-1.436957	2.374074	1.551169	11.742432	3.397285	-0.320460	7.523180	0.564620	0.752562	-0.114990	0.605955	-1.000000	-1.000000	-1.000000	-1.000000	-1.000000	-1.000000	-1.000000	83.655172	0.000000	-1.000000	-1.000000	830469.000000	1772895372.690840
-8012.205000	-12942.945000	4704.210000	-1717.155000	-23390.325000	-17184.015000	-241.830000	-7641.810000	-5.833176	6.644948	8.614567	9.000141	10.262878	7.766203	12.130726	0.724475	-0.320460	7.523180	0.564620	0.752562	-0.114990	0.605955	-1.000000	-1.000000	-1.000000	-1.000000	-1.000000	-1.000000	-1.000000	83.655172	0.000000	-1.000000	-1.000000	830470.000000	1772895372.690849
-8028.630000	-12956.040000	4694.535000	-1721.385000	-23390.865000	-17186.265000	-250.875000	-7651.440000	-1.566282	11.335466	13.159164	13.210480	11.128612	8.451755	6.775091	-1.806319	-4.181240	6.943300	1.266580	0.751280	-0.112304	0.607603	-1.000000	-1.000000	-1.000000	-1.000000	-1.000000	-1.000000	-1.000000	83.655172	0.000000	-1.000000	-1.000000	830471.000000	1772895372.694868
-8023.590000	-12950.010000	4703.175000	-1711.305000	-23386.320000	-17181.945000	-252.045000	-7652.205000	2.086340	10.945567	11.965463	11.795022	7.151562	5.216266	-0.970217	-3.473412	-4.181240	6.943300	1.266580	0.751280	-0.112304	0.607603	-1.000000	-1.000000	-1.000000	-1.000000	-1.000000	-1.000000	-1.000000	83.655172	0.000000	-1.000000	-1.000000	830472.000000	1772895372.694880
-8008.740000	-12944.790000	4707.405000	-1705.860000	-23379.930000	-17176.365000	-247.545000	-7659.540000	3.384699	7.831626	8.321107	8.275115	3.023603	2.056496	-6.577535	-4.734146	-4.181240	6.943300	1.266580	0.751280	-0.112304	0.607603	-1.000000	-1.000000	-1.000000	-1.000000	-1.000000	-1.000000	-1.000000	83.655172	0.000000	-1.000000	-1.000000	830473.000000	1772895372.704455
-7975.215000	-12944.115000	4699.845000	-1723.320000	-23400.945000	-17189.235000	-245.970000	-7656.210000	3.488721	4.261749	4.625290	4.775353	0.754291	0.756685	-7.990259	-6.421411	-4.181240	6.943300	1.266580	0.751280	-0.112304	0.607603	-1.000000	-1.000000	-1.000000	-1.000000	-1.000000	-1.000000	-1.000000	83.655172	0.000000	-1.000000	-1.000000	830474.000000	1772895372.704474
-7987.410000	-12940.290000	4699.845000	-1725.435000	-23399.190000	-17193.645000	-239.985000	-7648.380000	4.283469	0.926912	0.803151	0.592388	-1.209208	-0.418496	-6.681980	-7.700889	-4.181240	6.943300	1.266580	0.751280	-0.112304	0.607603	-1.000000	-1.000000	-1.000000	-1.000000	-1.000000	-1.000000	-1.000000	83.655172	0.000000	-1.000000	-1.000000	830475.000000	1772895372.704492
-8021.790000	-12943.620000	4702.590000	-1719.855000	-23388.795000	-17188.290000	-241.650000	-7659.090000	4.114858	-2.647683	-3.875125	-4.960191	-4.146730	-3.264222	-5.035451	-6.951230	-4.181240	6.943300	1.266580	0.751280	-0.112304	0.607603	-1.000000	-1.000000	-1.000000	-1.000000	-1.000000	-1.000000	-1.000000	83.655172	0.000000	-1.000000	-1.000000	830476.000000	1772895372.704500
-8011.170000	-12949.965000	4702.725000	-1715.805000	-23384.700000	-17185.770000	-253.215000	-7664.625000	0.135557	-6.379053	-8.364294	-9.913763	-6.598018	-6.556741	-3.952583	-4.335159	-4.181240	6.943300	1.266580	0.751280	-0.112304	0.607603	-1.000000	-1.000000	-1.000000	-1.000000	-1.000000	-1.000000	-1.000000	83.655172	0.000000	-1.000000	-1.000000	830477.000000	1772895372.708165
-8024.400000	-12950.550000	4696.605000	-1719.630000	-23378.625000	-17186.355000	-268.875000	-7661.430000	-5.802011	-8.909662	-10.457396	-11.377349	-6.542917	-7.715330	-3.296392	-0.997444	-4.181240	6.943300	1.266580	0.751280	-0.112304	0.607603	-1.000000	-1.000000	-1.000000	-1.000000	-1.000000	-1.000000	-1.000000	83.655172	0.000000	-1.000000	-1.000000	830478.000000	1772895372.708173
-8030.070000	-12945.015000	4695.030000	-1724.805000	-23372.280000	-17185.950000	-266.445000	-7678.440000	-8.695334	-8.482503	-9.000697	-8.623155	-3.803811	-5.717031	-2.419599	2.652840	-4.181240	6.943300	1.266580	0.751280	-0.112304	0.607603	-1.000000	-1.000000	-1.000000	-1.000000	-1.000000	-1.000000	-1.000000	83.655172	0.000000	-1.000000	-1.000000	830479.000000	1772895372.710926
-8029.080000	-12935.115000	4710.555000	-1706.130000	-23340.330000	-17173.980000	-261.135000	-7694.235000	-6.167712	-4.259981	-4.245625	-3.005937	0.643843	-1.268781	0.000126	5.942677	-4.181240	6.943300	1.266580	0.751280	-0.112304	0.607603	-1.000000	-1.000000	-1.000000	-1.000000	-1.000000	-1.000000	-1.000000	83.655172	0.000000	-1.000000	-1.000000	830480.000000	1772895372.710934
-8016.165000	-12930.750000	4710.105000	-1715.940000	-23383.980000	-17187.030000	-252.270000	-7679.520000	-0.032242	2.436108	2.441122	3.451020	5.108508	3.957226	4.548347	7.579524	-7.767340	5.920880	1.358140	0.752073	-0.114319	0.612669	-1.000000	-1.000000	-1.000000	-1.000000	-1.000000	-1.000000	-1.000000	83.655172	0.000000	-1.000000	-1.000000	830481.000000	1772895372.717299
-8017.605000	-12939.705000	4699.260000	-1724.895000	-23404.815000	-17196.525000	-242.190000	-7646.535000	5.683718	8.068903	8.128234	8.089531	6.283444	7.373778	9.515435	7.598353	-7.767340	5.920880	1.358140	0.752073	-0.114319	0.612669	-1.000000	-1.000000	-1.000000	-1.000000	-1.000000	-1.000000	-1.000000	83.655172	0.000000	-1.000000	-1.000000	830482.000000	1772895372.717306
-8015.040000	-12934.620000	4708.170000	-1708.695000	-23392.575000	-17175.555000	-230.760000	-7637.445000	7.493660	9.293669	9.877887	9.079272	2.616631	7.354511	11.885850	7.274768	-7.767340	5.920880	1.358140	0.752073	-0.114319	0.612669	-1.000000	-1.000000	-1.000000	-1.000000	-1.000000	-1.000000	-1.000000	83.655172	0.000000	-1.000000	-1.000000	830483.000000	1772895372.718871
-8014.095000	-12935.520000	4707.045000	-1712.160000	-23401.845000	-17180.730000	-241.650000	-7669.800000	5.124620	5.644215	7.209010	6.947628	-2.807960	4.886012	9.559565	6.067018	-7.767340	5.920880	1.358140	0.752073	-0.114319	0.612669	-1.000000	-1.000000	-1.000000	-1.000000	-1.000000	-1.000000	-1.000000	83.655172	0.000000	-1.000000	-1.000000	830484.000000	1772895372.718879
-8008.020000	-12948.120000	4699.935000	-1718.010000	-23386.995000	-17191.260000	-256.590000	-7675.155000	1.605963	-0.530491	1.827092	2.937925	-6.023726	1.417970	2.707479	1.791171	-7.767340	5.920880	1.358140	0.752073	-0.114319	0.612669	-1.000000	-1.000000	-1.000000	-1.000000	-1.000000	-1.000000	-1.000000	83.655172	0.000000	-1.000000	-1.000000	830485.000000	1772895372.722759
-8005.815000	-12940.785000	4708.125000	-1713.150000	-23363.820000	-17183.610000	-265.320000	-7665.120000	-0.191100	-5.882124	-3.671912	-1.824079	-5.099440	-2.371826	-5.867829	-4.944447	-7.767340	5.920880	1.358140	0.752073	-0.114319	0.612669	-1.000000	-1.000000	-1.000000	-1.000000	-1.000000	-1.000000	-1.000000	83.655172	0.000000	-1.000000	-1.000000	830486.000000	1772895372.722767
-8019.540000	-12941.775000	4714.470000	-1708.380000	-23359.545000	-17178.705000	-273.915000	-7667.910000	-0.037249	-7.737593	-6.505641	-5.382218	-0.337581	-5.124798	-11.948240	-9.977280	-7.767340	5.920880	1.358140	0.752073	-0.114319	0.612669	-1.000000	-1.000000	-1.000000	-1.000000	-1.000000	-1.000000	-1.000000	83.655172	0.000000	-1.000000	-1.000000	830487.000000	1772895372.727021
-7997.310000	-12927.330000	4729.320000	-1701.315000	-23391.495000	-17174.340000	-259.155000	-7650.270000	0.853424	-5.416221	-5.187972	-5.895134	4.709595	-5.310461	-12.462376	-9.562531	-7.767340	5.920880	1.358140	0.752073	-0.114319	0.612669	-1.000000	-1.000000	-1.000000	-1.000000	-1.000000	-1.000000	-1.000000	83.655172	0.000000	-1.000000	-1.000000	830488.000000	1772895372.727028
-8001.270000	-12934.620000	4724.010000	-1692.540000	-23373.180000	-17169.255000	-246.555000	-7657.245000	1.441319	-0.620483	-1.017001	-3.420171	5.709285	-2.927315	-7.142566	-3.618576	-7.767340	5.920880	1.358140	0.752073	-0.114319	0.612669	-1.000000	-1.000000	-1.000000	-1.000000	-1.000000	-1.000000	-1.000000	83.655172	0.000000	-1.000000	-1.000000	830489.000000	1772895372.731472
-8008.740000	-12958.245000	4683.870000	-1722.105000	-23371.740000	-17192.115000	-243.000000	-7647.120000	0.547936	3.306503	2.284028	-0.003379	3.180149	0.432989	1.216918	3.580864	-7.767340	5.920880	1.358140	0.752073	-0.114319	0.612669	-1.000000	-1.000000	-1.000000	-1.000000	-1.000000	-1.000000	-1.000000	83.655172	0.000000	-1.000000	-1.000000	830490.000000	1772895372.731478
-8026.920000	-12952.665000	4681.530000	-1732.320000	-23385.330000	-17215.470000	-263.835000	-7662.420000	-2.803992	3.810427	1.606805	1.659228	1.092460	2.239131	7.626132	6.410906	-5.508860	4.043900	2.121140	0.758116	-0.118591	0.617491	-1.000000	-1.000000	-1.000000	-1.000000	-1.000000	-1.000000	-1.000000	83.655172	0.000000	-1.000000	-1.000000	830491.000000	1772895372.737026
-7996.590000	-12906.720000	4736.970000	-1680.030000	-23350.725000	-17173.665000	-253.710000	-7659.630000	-7.121101	2.077006	-1.536157	1.045114	1.008904	1.247567	8.191849	3.016124	-5.508860	4.043900	2.121140	0.758116	-0.118591	0.617491	-1.000000	-1.000000	-1.000000	-1.000000	-1.000000	-1.000000	-1.000000	83.655172	0.000000	-1.000000	-1.000000	830492.000000	1772895372.737035
-7991.190000	-12906.090000	4743.945000	-1671.885000	-23331.600000	-17140.680000	-245.520000	-7651.845000	-8.368972	1.717368	-2.109144	0.908602	2.242273	0.143464	3.993538	-2.671786	-5.508860	4.043900	2.121140	0.758116	-0.118591	0.617491	-1.000000	-1.000000	-1.000000	-1.000000	-1.000000	-1.000000	-1.000000	83.655172	0.000000	-1.000000	-1.000000	830493.000000	1772895372.738943
-7989.120000	-12922.695000	4729.275000	-1687.140000	-23364.675000	-17154.270000	-245.520000	-7657.245000	-4.446701	3.554195	1.559483	2.798592	2.960426	2.081760	-0.191428	-5.215545	-5.508860	4.043900	2.121140	0.758116	-0.118591	0.617491	-1.000000	-1.000000	-1.000000	-1.000000	-1.000000	-1.000000	-1.000000	83.655172	0.000000	-1.000000	-1.000000	830494.000000	1772895372.738949
-7976.655000	-12943.755000	4703.220000	-1707.255000	-23369.085000	-17177.670000	-266.085000	-7668.765000	2.382418	4.216879	5.100168	3.950149	0.066622	4.950257	-1.420044	-3.523448	-5.508860	4.043900	2.121140	0.758116	-0.118591	0.617491	-1.000000	-1.000000	-1.000000	-1.000000	-1.000000	-1.000000	-1.000000	83.655172	0.000000	-1.000000	-1.000000	830495.000000	1772895372.745714
-8023.590000	-12975.750000	4666.455000	-1754.775000	-23468.580000	-17217.000000	-263.925000	-7656.300000	7.728424	0.407986	3.292307	0.762359	-7.708019	3.535319	-0.708305	-0.207557	-5.508860	4.043900	2.121140	0.758116	-0.118591	0.617491	-1.000000	-1.000000	-1.000000	-1.000000	-1.000000	-1.000000	-1.000000	83.655172	0.000000	-1.000000	-1.000000	830496.000000	1772895372.745722
-8084.610000	-12971.070000	4679.820000	-1743.930000	-23456.655000	-17214.165000	-259.920000	-7684.290000	6.713482	-7.023154	-4.027431	-6.599064	-17.309068	-3.543537	-0.289711	2.242701	-5.508860	4.043900	2.121140	0.758116	-0.118591	0.617491	-1.000000	-1.000000	-1.000000	-1.000000	-1.000000	-1.000000	-1.000000	83.655172	0.000000	-1.000000	-1.000000	830497.000000	1772895372.747300
-8031.600000	-12947.220000	4694.895000	-1729.845000	-23422.905000	-17212.635000	-259.695000	-7684.335000	-1.424980	-12.519704	-10.646924	-12.714689	-21.321371	-11.265681	-1.092150	2.347053	-5.508860	4.043900	2.121140	0.758116	-0.118591	0.617491	-1.000000	-1.000000	-1.000000	-1.000000	-1.000000	-1.000000	-1.000000	83.655172	0.000000	-1.000000	-1.000000	830498.000000	1772895372.747305
-7966.935000	-12912.930000	4722.255000	-1703.340000	-23386.365000	-17182.125000	-223.965000	-7649.190000	-8.322154	-9.752434	-8.999993	-10.643167	-12.611252	-12.200177	-1.989423	0.639943	-5.508860	4.043900	2.121140	0.758116	-0.118591	0.617491	-1.000000	-1.000000	-1.000000	-1.000000	-1.000000	-1.000000	-1.000000	83.655172	0.000000	-1.000000	-1.000000	830499.000000	1772895372.750859
-7930.845000	-12906.810000	4725.135000	-1699.695000	-23369.760000	-17178.345000	-222.660000	-7603.020000	-4.434644	1.401869	1.545246	0.517027	7.384048	-3.634239	-0.809342	0.558284	-5.508860	4.043900	2.121140	0.758116	-0.118591	0.617491	-1.000000	-1.000000	-1.000000	-1.000000	-1.000000	-1.000000	-1.000000	83.655172	0.000000	-1.000000	-1.000000	830500.000000	1772895372.750868
-7952.355000	-12910.770000	4729.455000	-1689.570000	-23349.960000	-17162.460000	-227.700000	-7619.355000	8.109061	12.854317	12.650436	13.032974	27.361026	8.685833	2.231150	4.287343	-3.937080	1.709120	0.839300	0.759764	-0.123840	0.615843	-1.000000	-1.000000	-1.000000	-1.000000	-1.000000	-1.000000	-1.000000	83.655172	0.000000	-1.000000	-1.000000	830501.000000	1772895372.754944
-7995.150000	-12939.345000	4702.770000	-1718.640000	-23403.195000	-17190.990000	-265.185000	-7642.440000	16.829494	15.748887	15.221790	17.638389	34.369346	15.373963	3.549431	8.223829	-3.937080	1.709120	0.839300	0.759764	-0.123840	0.615843	-1.000000	-1.000000	-1.000000	-1.000000	-1.000000	-1.000000	-1.000000	83.655172	0.000000	-1.000000	-1.000000	830502.000000	1772895372.754951
-8046.720000	-12963.015000	4686.165000	-1735.965000	-23419.035000	-17197.110000	-255.330000	-7652.115000	11.713498	8.337831	7.717189	11.598469	23.242078	11.985062	0.749171	6.785441	-3.937080	1.709120	0.839300	0.759764	-0.123840	0.615843	-1.000000	-1.000000	-1.000000	-1.000000	-1.000000	-1.000000	-1.000000	83.655172	0.000000	-1.000000	-1.000000	830503.000000	1772895372.758820
-8010.540000	-12946.275000	4710.420000	-1712.340000	-23414.445000	-17183.340000	-243.765000	-7652.295000	-4.762162	-3.431437	-3.458402	0.246062	1.082433	2.527822	-3.510749	-0.471978	-3.937080	1.709120	0.839300	0.759764	-0.123840	0.615843	-1.000000	-1.000000	-1.000000	-1.000000	-1.000000	-1.000000	-1.000000	83.655172	0.000000	-1.000000	-1.000000	830504.000000	1772895372.758825
-8006.940000	-12942.090000	4716.945000	-1704.510000	-23398.425000	-17186.580000	-270.855000	-7671.825000	-18.812912	-10.903725	-9.654002	-7.527023	-16.998872	-4.986443	-5.169916	-8.903827	-3.937080	1.709120	0.839300	0.759764	-0.123840	0.615843	-1.000000	-1.000000	-1.000000	-1.000000	-1.000000	-1.000000	-1.000000	83.655172	0.000000	-1.000000	-1.000000	830505.000000	1772895372.764016
-8035.155000	-12961.665000	4685.175000	-1736.280000	-23419.620000	-17211.105000	-286.740000	-7684.425000	-19.091111	-10.238951	-8.153822	-7.889937	-21.147841	-6.750017	-4.345163	-13.641264	-3.937080	1.709120	0.839300	0.759764	-0.123840	0.615843	-1.000000	-1.000000	-1.000000	-1.000000	-1.000000	-1.000000	-1.000000	83.655172	0.000000	-1.000000	-1.000000	830506.000000	1772895372.764022
-8067.465000	-12988.395000	4656.465000	-1764.180000	-23443.065000	-17228.745000	-283.410000	-7673.490000	-8.881532	-5.429705	-4.115927	-5.274446	-15.159570	-5.473444	-3.490977	-12.573990	-3.937080	1.709120	0.839300	0.759764	-0.123840	0.615843	-1.000000	-1.000000	-1.000000	-1.000000	-1.000000	-1.000000	-1.000000	83.655172	0.000000	-1.000000	-1.000000	830507.000000	1772895372.766823
-8051.085000	-12981.285000	4662.405000	-1759.905000	-23438.565000	-17219.025000	-259.605000	-7662.915000	0.036574	-2.457467	-3.036429	-5.016690	-8.610505	-4.825297	-2.884885	-6.971447	-3.937080	1.709120	0.839300	0.759764	-0.123840	0.615843	-1.000000	-1.000000	-1.000000	-1.000000	-1.000000	-1.000000	-1.000000	83.655172	0.000000	-1.000000	-1.000000	830508.000000	1772895372.766830
-8034.165000	-12969.405000	4671.630000	-1751.895000	-23429.340000	-17208.225000	-243.180000	-7639.740000	2.327438	-2.469563	-4.694391	-6.930373	-5.666766	-5.038100	-0.631102	0.155290	-3.937080	1.709120	0.839300	0.759764	-0.123840	0.615843	-1.000000	-1.000000	-1.000000	-1.000000	-1.000000	-1.000000	-1.000000	83.655172	0.000000	-1.000000	-1.000000	830509.000000	1772895372.775299
-8040.555000	-12973.365000	4669.335000	-1753.290000	-23425.965000	-17212.770000	-258.075000	-7656.390000	2.199074	-2.084916	-5.131251	-7.215620	-4.103349	-4.283008	4.139096	6.642101	-3.937080	1.709120	0.839300	0.759764	-0.123840	0.615843	-1.000000	-1.000000	-1.000000	-1.000000	-1.000000	-1.000000	-1.000000	83.655172	0.000000	-1.000000	-1.000000	830510.000000	1772895372.775306
-8033.265000	-12958.830000	4689.990000	-1731.330000	-23395.140000	-17202.555000	-262.440000	-7664.850000	5.329731	1.894989	-1.120741	-2.709283	0.395743	-1.170681	9.291235	11.117071	-3.876040	1.037680	-1.403920	0.756468	-0.126098	0.612730	-1.000000	-1.000000	-1.000000	-1.000000	-1.000000	-1.000000	-1.000000	83.655172	0.000000	-1.000000	-1.000000	830511.000000	1772895372.775770
-8017.740000	-12952.845000	4691.745000	-1728.810000	-23383.845000	-17197.110000	-264.510000	-7661.925000	12.443705	9.195775	7.082708	6.395092	9.588457	4.226732	11.300005	12.207036	-3.876040	1.037680	-1.403920	0.756468	-0.126098	0.612730	-1.000000	-1.000000	-1.000000	-1.000000	-1.000000	-1.000000	-1.000000	83.655172	0.000000	-1.000000	-1.000000	830512.000000	1772895372.775792
-8017.020000	-12960.990000	4681.440000	-1735.740000	-23393.970000	-17193.510000	-265.680000	-7665.525000	18.724055	15.448448	14.678707	15.197118	19.284797	9.649063	8.322190	9.560937	-3.876040	1.037680	-1.403920	0.756468	-0.126098	0.612730	-1.000000	-1.000000	-1.000000	-1.000000	-1.000000	-1.000000	-1.000000	83.655172	0.000000	-1.000000	-1.000000	830513.000000	1772895372.778848
-8031.645000	-12970.395000	4673.430000	-1748.835000	-23436.270000	-17213.805000	-273.600000	-7681.185000	18.236068	15.262570	15.675769	17.288710	21.617654	11.678467	1.885265	4.420328	-3.876040	1.037680	-1.403920	0.756468	-0.126098	0.612730	-1.000000	-1.000000	-1.000000	-1.000000	-1.000000	-1.000000	-1.000000	83.655172	0.000000	-1.000000	-1.000000	830514.000000	1772895372.778855
-8027.145000	-12966.345000	4675.230000	-1751.265000	-23440.905000	-17227.440000	-273.915000	-7676.910000	9.682863	7.631494	9.115293	10.991964	12.308226	8.504589	-4.440456	-1.195569	-3.876040	1.037680	-1.403920	0.756468	-0.126098	0.612730	-1.000000	-1.000000	-1.000000	-1.000000	-1.000000	-1.000000	-1.000000	83.655172	0.000000	-1.000000	-1.000000	830515.000000	1772895372.785608
-8021.745000	-12954.420000	4689.675000	-1734.570000	-23421.555000	-17214.840000	-265.230000	-7673.220000	-2.861298	-2.807077	-0.083738	0.898322	-3.913642	1.646898	-8.124902	-5.714787	-3.876040	1.037680	-1.403920	0.756468	-0.126098	0.612730	-1.000000	-1.000000	-1.000000	-1.000000	-1.000000	-1.000000	-1.000000	83.655172	0.000000	-1.000000	-1.000000	830516.000000	1772895372.785615
-8003.475000	-12939.525000	4705.830000	-1717.605000	-23399.820000	-17197.065000	-263.790000	-7666.515000	-13.901052	-10.368326	-6.577171	-6.921545	-16.832172	-5.083646	-8.932321	-8.561700	-3.876040	1.037680	-1.403920	0.756468	-0.126098	0.612730	-1.000000	-1.000000	-1.000000	-1.000000	-1.000000	-1.000000	-1.000000	83.655172	0.000000	-1.000000	-1.000000	830517.000000	1772895372.787563
-7979.805000	-12933.855000	4712.580000	-1709.055000	-23386.815000	-17185.905000	-263.070000	-7664.535000	-19.204377	-12.496403	-8.616763	-9.674844	-19.678280	-8.457993	-7.623503	-9.332368	-3.876040	1.037680	-1.403920	0.756468	-0.126098	0.612730	-1.000000	-1.000000	-1.000000	-1.000000	-1.000000	-1.000000	-1.000000	83.655172	0.000000	-1.000000	-1.000000	830518.000000	1772895372.787572
-7996.635000	-12966.615000	4680.540000	-1739.475000	-23410.980000	-17201.745000	-265.140000	-7664.175000	-16.812445	-10.239476	-7.782893	-8.596004	-13.340302	-7.803573	-4.409156	-7.074097	-3.876040	1.037680	-1.403920	0.756468	-0.126098	0.612730	-1.000000	-1.000000	-1.000000	-1.000000	-1.000000	-1.000000	-1.000000	83.655172	0.000000	-1.000000	-1.000000	830519.000000	1772895372.795521
-8016.030000	-12984.075000	4671.810000	-1743.390000	-23413.410000	-17201.295000	-259.470000	-7669.395000	-9.015748	-6.911124	-6.987252	-6.928430	-4.077551	-4.915061	0.482418	-1.731401	-3.876040	1.037680	-1.403920	0.756468	-0.126098	0.612730	-1.000000	-1.000000	-1.000000	-1.000000	-1.000000	-1.000000	-1.000000	83.655172	0.000000	-1.000000	-1.000000	830520.000000	1772895372.795530
-8009.820000	-12972.330000	4680.495000	-1737.630000	-23405.580000	-17200.530000	-260.730000	-7675.875000	-1.302460	-4.827660	-7.252103	-6.311836	2.425003	-2.117420	5.382605	4.205916	-2.212700	1.480220	-1.846460	0.752378	-0.128296	0.613951	-1.000000	-1.000000	-1.000000	-1.000000	-1.000000	-1.000000	-1.000000	83.655172	0.000000	-1.000000	-1.000000	830521.000000	1772895372.795541
-8022.555000	-12945.060000	4698.675000	-1722.915000	-23387.940000	-17188.965000	-257.445000	-7669.305000	2.789393	-2.553397	-6.187326	-5.028622	5.659209	-0.091384	8.048712	7.659725	-2.212700	1.480220	-1.846460	0.752378	-0.128296	0.613951	-1.000000	-1.000000	-1.000000	-1.000000	-1.000000	-1.000000	-1.000000	83.655172	0.000000	-1.000000	-1.000000	830522.000000	1772895372.795544
-8038.620000	-12924.315000	4718.565000	-1704.510000	-23372.235000	-17177.715000	-243.540000	-7664.400000	3.617266	2.660141	-1.091228	-0.610797	8.454314	2.308414	7.816612	7.973110	-2.212700	1.480220	-1.846460	0.752378	-0.128296	0.613951	-1.000000	-1.000000	-1.000000	-1.000000	-1.000000	-1.000000	-1.000000	83.655172	0.000000	-1.000000	-1.000000	830523.000000	1772895372.807989
-8046.495000	-12939.165000	4706.505000	-1714.815000	-23376.330000	-17184.375000	-245.295000	-7681.275000	2.795556	9.801917	6.872922	6.323859	11.487647	5.601049	5.473274	5.803821	-2.212700	1.480220	-1.846460	0.752378	-0.128296	0.613951	-1.000000	-1.000000	-1.000000	-1.000000	-1.000000	-1.000000	-1.000000	83.655172	0.000000	-1.000000	-1.000000	830524.000000	1772895372.807999
-8031.510000	-12947.985000	4700.610000	-1720.935000	-23378.670000	-17188.380000	-246.690000	-7679.115000	1.503988	13.444944	12.285530	11.120642	11.370936	7.398136	1.493335	1.208953	-2.212700	1.480220	-1.846460	0.752378	-0.128296	0.613951	-1.000000	-1.000000	-1.000000	-1.000000	-1.000000	-1.000000	-1.000000	83.655172	0.000000	-1.000000	-1.000000	830525.000000	1772895372.808012
-8019.225000	-12951.045000	4696.425000	-1720.845000	-23361.570000	-17189.865000	-261.720000	-7683.795000	0.736177	9.310553	10.324351	9.270519	5.167424	4.608508	-3.796268	-4.812466	-2.212700	1.480220	-1.846460	0.752378	-0.128296	0.613951	-1.000000	-1.000000	-1.000000	-1.000000	-1.000000	-1.000000	-1.000000	83.655172	0.000000	-1.000000	-1.000000	830526.000000	1772895372.808017
-8005.905000	-12950.505000	4694.130000	-1725.345000	-23375.565000	-17189.235000	-261.540000	-7667.190000	1.363188	-0.467068	2.036576	1.620484	-4.873182	-2.131115	-8.713542	-9.093831	-2.212700	1.480220	-1.846460	0.752378	-0.128296	0.613951	-1.000000	-1.000000	-1.000000	-1.000000	-1.000000	-1.000000	-1.000000	83.655172	0.000000	-1.000000	-1.000000	830527.000000	1772895372.808022
-7979.400000	-12943.170000	4705.245000	-1719.180000	-23397.570000	-17186.040000	-264.555000	-7643.565000	4.192119	-8.727756	-6.213402	-6.071699	-13.283950	-8.182324	-10.563847	-8.119301	-2.212700	1.480220	-1.846460	0.752378	-0.128296	0.613951	-1.000000	-1.000000	-1.000000	-1.000000	-1.000000	-1.000000	-1.000000	83.655172	0.000000	-1.000000	-1.000000	830528.000000	1772895372.808026
-7966.665000	-12927.240000	4724.865000	-1698.570000	-23381.865000	-17177.220000	-265.680000	-7629.930000	8.947631	-9.691641	-8.411902	-8.354772	-16.059586	-9.233374	-8.048220	-1.231788	-2.212700	1.480220	-1.846460	0.752378	-0.128296	0.613951	-1.000000	-1.000000	-1.000000	-1.000000	-1.000000	-1.000000	-1.000000	83.655172	0.000000	-1.000000	-1.000000	830529.000000	1772895372.810967
-8001.090000	-12934.935000	4725.045000	-1702.620000	-23400.315000	-17178.705000	-263.205000	-7658.730000	12.118091	-4.028751	-3.990717	-4.489703	-12.450085	-4.983798	-2.448190	7.368113	-2.212700	1.480220	-1.846460	0.752378	-0.128296	0.613951	-1.000000	-1.000000	-1.000000	-1.000000	-1.000000	-1.000000	-1.000000	83.655172	0.000000	-1.000000	-1.000000	830530.000000	1772895372.810975
-8004.105000	-12942.135000	4712.895000	-1712.340000	-23400.045000	-17179.605000	-249.570000	-7660.755000	9.212443	2.165798	2.107370	1.333831	-4.924844	1.239400	3.775705	11.151040	-0.869820	2.334780	-2.472120	0.752256	-0.122924	0.614317	-1.000000	-1.000000	-1.000000	-1.000000	-1.000000	-1.000000	-1.000000	83.655172	0.000000	-1.000000	-1.000000	830531.000000	1772895372.814876
-8033.265000	-12926.115000	4708.125000	-1719.720000	-23395.140000	-17186.580000	-243.180000	-7658.325000	0.153245	3.856283	4.357448	4.080964	2.773265	5.559460	8.377464	7.359546	-0.869820	2.334780	-2.472120	0.752256	-0.122924	0.614317	-1.000000	-1.000000	-1.000000	-1.000000	-1.000000	-1.000000	-1.000000	83.655172	0.000000	-1.000000	-1.000000	830532.000000	1772895372.814883
-8039.790000	-12921.795000	4700.745000	-1734.795000	-23423.670000	-17197.020000	-248.130000	-7672.545000	-10.720575	1.744166	1.618409	2.214372	7.837689	6.029733	9.664201	-0.856985	-0.869820	2.334780	-2.472120	0.752256	-0.122924	0.614317	-1.000000	-1.000000	-1.000000	-1.000000	-1.000000	-1.000000	-1.000000	83.655172	0.000000	-1.000000	-1.000000	830533.000000	1772895372.819038
-8037.495000	-12955.545000	4695.120000	-1726.110000	-23398.830000	-17200.845000	-259.785000	-7675.740000	-18.433319	-0.964554	-3.104098	-1.980919	8.856658	3.037485	6.994686	-8.424521	-0.869820	2.334780	-2.472120	0.752256	-0.122924	0.614317	-1.000000	-1.000000	-1.000000	-1.000000	-1.000000	-1.000000	-1.000000	83.655172	0.000000	-1.000000	-1.000000	830534.000000	1772895372.819046
-8015.670000	-12942.270000	4710.915000	-1708.245000	-23361.120000	-17194.095000	-265.320000	-7655.535000	-19.333816	-2.968585	-5.970488	-4.632128	7.180578	-1.210159	1.578755	-11.600067	-0.869820	2.334780	-2.472120	0.752256	-0.122924	0.614317	-1.000000	-1.000000	-1.000000	-1.000000	-1.000000	-1.000000	-1.000000	83.655172	0.000000	-1.000000	-1.000000	830535.000000	1772895372.823056
-7985.970000	-12935.790000	4699.935000	-1717.920000	-23351.265000	-17188.560000	-261.360000	-7644.735000	-12.044496	-3.450077	-4.724820	-3.130684	6.521405	-3.723269	-3.733782	-8.867473	-0.869820	2.334780	-2.472120	0.752256	-0.122924	0.614317	-1.000000	-1.000000	-1.000000	-1.000000	-1.000000	-1.000000	-1.000000	83.655172	0.000000	-1.000000	-1.000000	830536.000000	1772895372.823064
-7999.245000	-12945.420000	4694.535000	-1725.615000	-23370.390000	-17188.515000	-253.665000	-7654.725000	0.716435	-1.595432	-0.489443	1.187407	7.954102	-2.922524	-6.159208	-2.262393	-0.869820	2.334780	-2.472120	0.752256	-0.122924	0.614317	-1.000000	-1.000000	-1.000000	-1.000000	-1.000000	-1.000000	-1.000000	83.655172	0.000000	-1.000000	-1.000000	830537.000000	1772895372.827069
-7995.645000	-12951.270000	4697.460000	-1725.480000	-23389.065000	-17187.525000	-250.290000	-7665.120000	12.400312	1.124814	3.191960	4.287191	7.679512	0.028064	-4.788650	3.724194	-0.869820	2.334780	-2.472120	0.752256	-0.122924	0.614317	-1.000000	-1.000000	-1.000000	-1.000000	-1.000000	-1.000000	-1.000000	83.655172	0.000000	-1.000000	-1.000000	830538.000000	1772895372.827075
-7999.605000	-12968.415000	4679.280000	-1733.175000	-23371.020000	-17188.065000	-255.330000	-7655.805000	17.767522	2.232796	3.976514	3.917606	2.641944	2.722803	-1.230859	6.505174	-0.869820	2.334780	-2.472120	0.752256	-0.122924	0.614317	-1.000000	-1.000000	-1.000000	-1.000000	-1.000000	-1.000000	-1.000000	83.655172	0.000000	-1.000000	-1.000000	830539.000000	1772895372.830914
-8028.495000	-12961.935000	4680.810000	-1741.725000	-23407.515000	-17203.410000	-259.065000	-7643.205000	15.951551	1.081475	2.246348	1.144295	-5.288314	3.487195	1.446312	6.893668	-0.869820	2.334780	-2.472120	0.752256	-0.122924	0.614317	-1.000000	-1.000000	-1.000000	-1.000000	-1.000000	-1.000000	-1.000000	83.655172	0.000000	-1.000000	-1.000000	830540.000000	1772895372.830922
-8048.295000	-12972.600000	4691.970000	-1732.005000	-23422.095000	-17208.315000	-267.165000	-7653.510000	8.518897	-1.037011	0.309692	-1.411864	-12.488592	2.014521	1.215110	6.209262	-2.914660	3.128300	-1.358140	0.753416	-0.114258	0.610106	-1.000000	-1.000000	-1.000000	-1.000000	-1.000000	-1.000000	-1.000000	83.655172	0.000000	-1.000000	-1.000000	830541.000000	1772895372.834893
-8034.795000	-12982.500000	4688.910000	-1735.560000	-23453.955000	-17215.515000	-269.280000	-7650.765000	-1.330934	-2.391067	0.402091	-1.627061	-16.368465	-0.579423	-1.141172	4.540655	-2.914660	3.128300	-1.358140	0.753416	-0.114258	0.610106	-1.000000	-1.000000	-1.000000	-1.000000	-1.000000	-1.000000	-1.000000	83.655172	0.000000	-1.000000	-1.000000	830542.000000	1772895372.834904
-8007.390000	-12960.720000	4688.550000	-1731.915000	-23435.370000	-17204.580000	-263.745000	-7655.490000	-8.892096	-1.439185	2.278783	0.202337	-15.709527	-2.504673	-2.804277	1.683061	-2.914660	3.128300	-1.358140	0.753416	-0.114258	0.610106	-1.000000	-1.000000	-1.000000	-1.000000	-1.000000	-1.000000	-1.000000	83.655172	0.000000	-1.000000	-1.000000	830543.000000	1772895372.841682
-8025.210000	-12938.490000	4698.180000	-1729.305000	-23427.720000	-17204.805000	-266.625000	-7667.415000	-11.170080	2.544988	3.793387	1.891781	-10.547927	-2.595239	-1.668432	-2.385003	-2.914660	3.128300	-1.358140	0.753416	-0.114258	0.610106	-1.000000	-1.000000	-1.000000	-1.000000	-1.000000	-1.000000	-1.000000	83.655172	0.000000	-1.000000	-1.000000	830544.000000	1772895372.841691
-8053.515000	-12924.495000	4721.535000	-1705.545000	-23399.145000	-17191.395000	-265.320000	-7673.805000	-9.784653	8.032833	3.993998	2.521613	-1.238756	-0.929783	1.521202	-7.137307	-2.914660	3.128300	-1.358140	0.753416	-0.114258	0.610106	-1.000000	-1.000000	-1.000000	-1.000000	-1.000000	-1.000000	-1.000000	83.655172	0.000000	-1.000000	-1.000000	830545.000000	1772895372.842998
-8037.270000	-12929.040000	4720.770000	-1703.340000	-23392.530000	-17189.145000	-266.715000	-7675.920000	-7.638576	11.544852	3.486991	2.937060	10.852655	1.517733	4.138096	-10.393262	-2.914660	3.128300	-1.358140	0.753416	-0.114258	0.610106	-1.000000	-1.000000	-1.000000	-1.000000	-1.000000	-1.000000	-1.000000	83.655172	0.000000	-1.000000	-1.000000	830546.000000	1772895372.843007
-8002.530000	-12922.605000	4727.160000	-1697.850000	-23387.805000	-17188.020000	-266.310000	-7664.355000	-3.950084	10.260348	2.340353	3.281095	21.543645	3.405452	4.360727	-9.170013	-2.914660	3.128300	-1.358140	0.753416	-0.114258	0.610106	-1.000000	-1.000000	-1.000000	-1.000000	-1.000000	-1.000000	-1.000000	83.655172	0.000000	-1.000000	-1.000000	830547.000000	1772895372.847002
-7990.515000	-12920.355000	4727.835000	-1697.265000	-23384.070000	-17179.830000	-255.195000	-7672.455000	3.555249	4.365255	0.312757	2.701072	25.221016	3.791759	2.527652	-3.063086	-2.914660	3.128300	-1.358140	0.753416	-0.114258	0.610106	-1.000000	-1.000000	-1.000000	-1.000000	-1.000000	-1.000000	-1.000000	83.655172	0.000000	-1.000000	-1.000000	830548.000000	1772895372.847010
-8035.110000	-12964.725000	4691.070000	-1726.470000	-23400.765000	-17189.145000	-255.960000	-7706.700000	12.776029	-4.032108	-2.692243	0.459704	19.317494	2.822050	0.350666	3.930801	-2.914660	3.128300	-1.358140	0.753416	-0.114258	0.610106	-1.000000	-1.000000	-1.000000	-1.000000	-1.000000	-1.000000	-1.000000	83.655172	0.000000	-1.000000	-1.000000	830549.000000	1772895372.850994
-8034.705000	-12970.080000	4682.070000	-1737.315000	-23409.855000	-17202.105000	-261.090000	-7685.640000	17.267262	-12.687792	-7.059425	-3.794059	6.514965	0.937494	-0.932241	7.296694	-2.914660	3.128300	-1.358140	0.753416	-0.114258	0.610106	-1.000000	-1.000000	-1.000000	-1.000000	-1.000000	-1.000000	-1.000000	83.655172	0.000000	-1.000000	-1.000000	830550.000000	1772895372.851004
-8019.765000	-12958.470000	4685.355000	-1737.225000	-23410.215000	-17201.835000	-257.040000	-7653.915000	12.807872	-17.958113	-11.359068	-8.753702	-7.460075	-1.707572	-1.288298	7.270173	-3.357200	3.906560	-2.395820	0.751463	-0.116699	0.605467	-1.000000	-1.000000	-1.000000	-1.000000	-1.000000	-1.000000	-1.000000	83.655172	0.000000	-1.000000	-1.000000	830551.000000	1772895372.854903
-8022.915000	-12964.770000	4675.590000	-1747.170000	-23413.275000	-17209.890000	-259.650000	-7650.495000	1.544868	-16.422332	-12.230604	-11.448652	-17.687880	-4.570532	-1.184399	7.002446	-3.357200	3.906560	-2.395820	0.751463	-0.116699	0.605467	-1.000000	-1.000000	-1.000000	-1.000000	-1.000000	-1.000000	-1.000000	83.655172	0.000000	-1.000000	-1.000000	830552.000000	1772895372.854923
-8017.605000	-12954.150000	4688.370000	-1740.510000	-23401.305000	-17199.315000	-246.915000	-7647.705000	-10.044921	-8.963467	-8.152929	-9.875301	-21.755741	-6.479952	-0.895348	7.243021	-3.357200	3.906560	-2.395820	0.751463	-0.116699	0.605467	-1.000000	-1.000000	-1.000000	-1.000000	-1.000000	-1.000000	-1.000000	83.655172	0.000000	-1.000000	-1.000000	830553.000000	1772895372.858915
-8025.570000	-12949.290000	4695.480000	-1731.105000	-23386.545000	-17191.260000	-246.465000	-7651.800000	-15.623205	0.583302	-0.708218	-4.368452	-18.938531	-6.112430	-0.403753	6.153984	-3.357200	3.906560	-2.395820	0.751463	-0.116699	0.605467	-1.000000	-1.000000	-1.000000	-1.000000	-1.000000	-1.000000	-1.000000	83.655172	0.000000	-1.000000	-1.000000	830554.000000	1772895372.858922
-8020.080000	-12946.680000	4691.430000	-1729.530000	-23396.265000	-17194.500000	-252.180000	-7659.630000	-13.442744	8.870719	6.958971	2.964534	-10.369412	-3.121586	0.031366	2.344169	-3.357200	3.906560	-2.395820	0.751463	-0.116699	0.605467	-1.000000	-1.000000	-1.000000	-1.000000	-1.000000	-1.000000	-1.000000	83.655172	0.000000	-1.000000	-1.000000	830555.000000	1772895372.865823
-8020.350000	-12935.835000	4702.005000	-1716.345000	-23405.535000	-17186.895000	-248.985000	-7672.365000	-6.945598	13.739758	11.844500	9.386223	0.090446	1.171777	-0.211288	-3.800513	-3.357200	3.906560	-2.395820	0.751463	-0.116699	0.605467	-1.000000	-1.000000	-1.000000	-1.000000	-1.000000	-1.000000	-1.000000	83.655172	0.000000	-1.000000	-1.000000	830556.000000	1772895372.865834
-8022.420000	-12937.680000	4706.505000	-1713.330000	-23389.830000	-17184.690000	-247.230000	-7675.740000	-0.228339	14.377099	12.850477	12.968834	8.148783	4.873034	-1.211013	-9.952146	-3.357200	3.906560	-2.395820	0.751463	-0.116699	0.605467	-1.000000	-1.000000	-1.000000	-1.000000	-1.000000	-1.000000	-1.000000	83.655172	0.000000	-1.000000	-1.000000	830557.000000	1772895372.866829
-8026.425000	-12942.720000	4706.730000	-1713.150000	-23383.890000	-17182.980000	-253.305000	-7677.405000	5.347741	11.567722	10.972496	13.181231	12.536757	6.890233	-2.211594	-12.557129	-3.357200	3.906560	-2.395820	0.751463	-0.116699	0.605467	-1.000000	-1.000000	-1.000000	-1.000000	-1.000000	-1.000000	-1.000000	83.655172	0.000000	-1.000000	-1.000000	830558.000000	1772895372.866852
-8006.895000	-12939.165000	4704.480000	-1717.020000	-23403.870000	-17194.680000	-262.485000	-7670.655000	9.439735	6.753933	7.389697	10.139177	13.710245	6.847959	-2.467230	-9.979793	-3.357200	3.906560	-2.395820	0.751463	-0.116699	0.605467	-1.000000	-1.000000	-1.000000	-1.000000	-1.000000	-1.000000	-1.000000	83.655172	0.000000	-1.000000	-1.000000	830559.000000	1772895372.872293
-8006.850000	-12954.240000	4685.040000	-1739.610000	-23435.370000	-17215.380000	-270.360000	-7670.700000	10.555103	0.684876	2.178274	3.938692	10.580220	4.245633	-2.007380	-4.410272	-3.357200	3.906560	-2.395820	0.751463	-0.116699	0.605467	-1.000000	-1.000000	-1.000000	-1.000000	-1.000000	-1.000000	-1.000000	83.655172	0.000000	-1.000000	-1.000000	830560.000000	1772895372.872302
-8015.265000	-12962.655000	4676.985000	-1745.190000	-23424.930000	-17202.645000	-252.045000	-7659.090000	7.428391	-6.269373	-4.604663	-4.488479	2.503601	-0.665531	-1.035219	1.011125	0.930860	5.234180	-2.594200	0.751585	-0.120788	0.603758	-1.000000	-1.000000	-1.000000	-1.000000	-1.000000	-1.000000	-1.000000	83.655172	0.000000	-1.000000	-1.000000	830561.000000	1772895372.875374
-8033.445000	-12967.785000	4677.255000	-1742.760000	-23418.675000	-17207.955000	-255.915000	-7653.870000	0.958809	-12.596183	-11.320304	-12.307162	-7.071814	-5.668974	0.592236	5.079504	0.930860	5.234180	-2.594200	0.751585	-0.120788	0.603758	-1.000000	-1.000000	-1.000000	-1.000000	-1.000000	-1.000000	-1.000000	83.655172	0.000000	-1.000000	-1.000000	830562.000000	1772895372.875380
-8049.105000	-12972.870000	4679.280000	-1739.295000	-23416.200000	-17206.875000	-264.195000	-7669.395000	-6.217981	-15.622027	-14.980047	-15.931832	-12.687715	-8.217525	2.361663	7.517680	0.930860	5.234180	-2.594200	0.751585	-0.120788	0.603758	-1.000000	-1.000000	-1.000000	-1.000000	-1.000000	-1.000000	-1.000000	83.655172	0.000000	-1.000000	-1.000000	830563.000000	1772895372.878911
-8027.190000	-12962.970000	4682.835000	-1739.115000	-23413.770000	-17210.745000	-274.635000	-7683.210000	-10.999541	-13.319547	-13.202398	-13.533822	-11.338486	-7.322609	3.013335	7.465051	0.930860	5.234180	-2.594200	0.751585	-0.120788	0.603758	-1.000000	-1.000000	-1.000000	-1.000000	-1.000000	-1.000000	-1.000000	83.655172	0.000000	-1.000000	-1.000000	830564.000000	1772895372.878920
-8009.685000	-12965.265000	4673.430000	-1751.040000	-23420.655000	-17225.730000	-293.985000	-7674.030000	-10.487194	-6.042253	-6.462741	-6.546024	-4.261057	-3.910786	1.666511	4.784782	0.930860	5.234180	-2.594200	0.751585	-0.120788	0.603758	-1.000000	-1.000000	-1.000000	-1.000000	-1.000000	-1.000000	-1.000000	83.655172	0.000000	-1.000000	-1.000000	830565.000000	1772895372.882981
-8002.080000	-12962.340000	4683.510000	-1737.180000	-23398.560000	-17210.610000	-286.515000	-7652.160000	-3.687114	3.456583	2.058196	1.632710	4.274693	0.123780	-1.173816	1.705576	0.930860	5.234180	-2.594200	0.751585	-0.120788	0.603758	-1.000000	-1.000000	-1.000000	-1.000000	-1.000000	-1.000000	-1.000000	83.655172	0.000000	-1.000000	-1.000000	830566.000000	1772895372.882988
-7988.220000	-12954.510000	4696.020000	-1719.540000	-23374.395000	-17188.920000	-269.550000	-7652.205000	6.345395	11.671181	9.244564	8.582736	10.651274	4.099199	-2.931360	0.642593	0.930860	5.234180	-2.594200	0.751585	-0.120788	0.603758	-1.000000	-1.000000	-1.000000	-1.000000	-1.000000	-1.000000	-1.000000	83.655172	0.000000	-1.000000	-1.000000	830567.000000	1772895372.886935
-8002.845000	-12956.130000	4687.785000	-1726.065000	-23375.340000	-17195.715000	-266.715000	-7651.215000	13.288096	15.682741	13.244227	13.148124	13.740110	8.172079	-1.003532	0.893078	0.930860	5.234180	-2.594200	0.751585	-0.120788	0.603758	-1.000000	-1.000000	-1.000000	-1.000000	-1.000000	-1.000000	-1.000000	83.655172	0.000000	-1.000000	-1.000000	830568.000000	1772895372.886945
-8039.700000	-12952.395000	4688.010000	-1728.270000	-23389.200000	-17202.780000	-268.110000	-7667.640000	11.719527	14.138272	13.003028	14.062633	12.856398	10.779430	3.690505	-0.187545	0.930860	5.234180	-2.594200	0.751585	-0.120788	0.603758	-1.000000	-1.000000	-1.000000	-1.000000	-1.000000	-1.000000	-1.000000	83.655172	0.000000	-1.000000	-1.000000	830569.000000	1772895372.890954
-8033.805000	-12937.950000	4707.810000	-1713.105000	-23405.715000	-17188.965000	-261.990000	-7682.445000	2.048258	8.284673	8.939109	10.717557	6.671041	9.420861	7.142484	-3.859943	0.930860	5.234180	-2.594200	0.751585	-0.120788	0.603758	-1.000000	-1.000000	-1.000000	-1.000000	-1.000000	-1.000000	-1.000000	83.655172	0.000000	-1.000000	-1.000000	830570.000000	1772895372.890961
-8015.040000	-12928.950000	4714.470000	-1711.845000	-23420.925000	-17194.320000	-263.700000	-7680.015000	-8.429208	1.277631	3.096448	4.244426	-4.425341	3.858731	6.469042	-8.477855	-0.946120	4.654300	-1.480220	0.748533	-0.116943	0.608885	-1.000000	-1.000000	-1.000000	-1.000000	-1.000000	-1.000000	-1.000000	83.655172	0.000000	-1.000000	-1.000000	830571.000000	1772895372.895180
-8036.640000	-12969.990000	4678.785000	-1743.255000	-23426.820000	-17208.315000	-267.795000	-7674.075000	-12.161289	-4.721664	-2.918472	-3.572723	-16.085537	-3.567785	2.324685	-10.081177	-0.946120	4.654300	-1.480220	0.748533	-0.116943	0.608885	-1.000000	-1.000000	-1.000000	-1.000000	-1.000000	-1.000000	-1.000000	83.655172	0.000000	-1.000000	-1.000000	830572.000000	1772895372.895187
-8069.535000	-12990.870000	4669.020000	-1747.755000	-23423.580000	-17203.590000	-254.115000	-7668.360000	-9.251197	-10.134631	-8.873725	-11.071283	-21.851134	-9.727960	-2.295895	-5.860952	-0.946120	4.654300	-1.480220	0.748533	-0.116943	0.608885	-1.000000	-1.000000	-1.000000	-1.000000	-1.000000	-1.000000	-1.000000	83.655172	0.000000	-1.000000	-1.000000	830573.000000	1772895372.898980
-8050.095000	-12983.805000	4667.580000	-1754.685000	-23420.115000	-17219.430000	-262.440000	-7654.410000	-4.869692	-14.726860	-13.554042	-15.723855	-17.993991	-12.044034	-4.625892	2.503873	-0.946120	4.654300	-1.480220	0.748533	-0.116943	0.608885	-1.000000	-1.000000	-1.000000	-1.000000	-1.000000	-1.000000	-1.000000	83.655172	0.000000	-1.000000	-1.000000	830574.000000	1772895372.898988
-7977.555000	-12951.630000	4684.680000	-1741.365000	-23397.435000	-17216.370000	-265.365000	-7640.910000	-0.375367	-14.929676	-14.040636	-14.958596	-6.444671	-10.145797	-4.461865	10.148582	-0.946120	4.654300	-1.480220	0.748533	-0.116943	0.608885	-1.000000	-1.000000	-1.000000	-1.000000	-1.000000	-1.000000	-1.000000	83.655172	0.000000	-1.000000	-1.000000	830575.000000	1772895372.905938
-7968.330000	-12946.455000	4690.485000	-1730.115000	-23388.210000	-17208.900000	-267.390000	-7647.255000	6.462340	-7.889185	-8.736901	-8.469370	7.042979	-5.657805	-3.726107	12.838318	-0.946120	4.654300	-1.480220	0.748533	-0.116943	0.608885	-1.000000	-1.000000	-1.000000	-1.000000	-1.000000	-1.000000	-1.000000	83.655172	0.000000	-1.000000	-1.000000	830576.000000	1772895372.905944
-8010.720000	-12951.495000	4690.620000	-1733.625000	-23421.195000	-17203.545000	-270.675000	-7689.645000	13.764084	3.654302	0.575310	1.398117	16.414391	0.079235	-3.590556	8.825174	-0.946120	4.654300	-1.480220	0.748533	-0.116943	0.608885	-1.000000	-1.000000	-1.000000	-1.000000	-1.000000	-1.000000	-1.000000	83.655172	0.000000	-1.000000	-1.000000	830577.000000	1772895372.906973
-8063.100000	-12958.470000	4686.525000	-1741.815000	-23448.690000	-17213.445000	-272.340000	-7703.415000	14.978461	12.919267	9.449222	10.360040	17.464559	5.759168	-3.594326	-0.553632	-0.946120	4.654300	-1.480220	0.748533	-0.116943	0.608885	-1.000000	-1.000000	-1.000000	-1.000000	-1.000000	-1.000000	-1.000000	83.655172	0.000000	-1.000000	-1.000000	830578.000000	1772895372.906978
-8046.360000	-12963.015000	4682.385000	-1744.065000	-23445.180000	-17215.965000	-275.310000	-7685.010000	6.721418	14.545649	13.097712	13.899394	10.285539	8.875220	-2.980041	-10.113746	-0.946120	4.654300	-1.480220	0.748533	-0.116943	0.608885	-1.000000	-1.000000	-1.000000	-1.000000	-1.000000	-1.000000	-1.000000	83.655172	0.000000	-1.000000	-1.000000	830579.000000	1772895372.910880
-8023.905000	-12961.890000	4684.140000	-1740.195000	-23426.640000	-17220.780000	-284.580000	-7650.360000	-5.895769	8.609394	9.974667	10.775796	0.421383	7.836285	-1.471993	-13.052451	-0.946120	4.654300	-1.480220	0.748533	-0.116943	0.608885	-1.000000	-1.000000	-1.000000	-1.000000	-1.000000	-1.000000	-1.000000	83.655172	0.000000	-1.000000	-1.000000	830580.000000	1772895372.910890
-8018.505000	-12952.845000	4693.500000	-1723.590000	-23386.005000	-17203.590000	-273.825000	-7647.255000	-13.443278	0.552207	3.599152	4.623003	-4.909992	4.228776	0.809848	-6.702786	-1.510740	3.326680	-2.304260	0.744993	-0.113769	0.612425	-1.000000	-1.000000	-1.000000	-1.000000	-1.000000	-1.000000	-1.000000	83.655172	0.000000	-1.000000	-1.000000	830581.000000	1772895372.914871
-8017.605000	-12958.290000	4686.300000	-1733.760000	-23396.040000	-17199.585000	-264.195000	-7662.330000	-11.161382	-3.813235	-1.059252	0.154994	-2.974227	1.231254	3.579653	4.063122	-1.510740	3.326680	-2.304260	0.744993	-0.113769	0.612425	-1.000000	-1.000000	-1.000000	-1.000000	-1.000000	-1.000000	-1.000000	83.655172	0.000000	-1.000000	-1.000000	830582.000000	1772895372.914877
-7990.920000	-12968.145000	4677.885000	-1739.115000	-23391.810000	-17192.970000	-252.720000	-7657.155000	-2.594277	-3.803930	-2.679780	-1.620983	2.075291	0.483439	6.371325	10.797960	-1.510740	3.326680	-2.304260	0.744993	-0.113769	0.612425	-1.000000	-1.000000	-1.000000	-1.000000	-1.000000	-1.000000	-1.000000	83.655172	0.000000	-1.000000	-1.000000	830583.000000	1772895372.919099
-7962.075000	-12960.225000	4691.565000	-1722.420000	-23377.455000	-17177.355000	-239.580000	-7645.680000	4.848895	-2.976993	-3.200038	-2.655583	3.942548	1.135370	8.300564	9.330993	-1.510740	3.326680	-2.304260	0.744993	-0.113769	0.612425	-1.000000	-1.000000	-1.000000	-1.000000	-1.000000	-1.000000	-1.000000	83.655172	0.000000	-1.000000	-1.000000	830584.000000	1772895372.919107
-7990.065000	-12955.140000	4688.865000	-1736.595000	-23410.620000	-17200.845000	-252.990000	-7641.090000	6.615185	-3.472112	-3.805360	-4.118312	0.417036	1.068231	8.023466	2.765213	-1.510740	3.326680	-2.304260	0.744993	-0.113769	0.612425	-1.000000	-1.000000	-1.000000	-1.000000	-1.000000	-1.000000	-1.000000	83.655172	0.000000	-1.000000	-1.000000	830585.000000	1772895372.922896
-8047.755000	-12961.440000	4693.770000	-1722.330000	-23380.965000	-17184.825000	-259.155000	-7660.485000	3.151843	-4.044621	-3.836117	-5.278930	-5.301900	-1.096632	4.414103	-2.856607	-1.510740	3.326680	-2.304260	0.744993	-0.113769	0.612425	-1.000000	-1.000000	-1.000000	-1.000000	-1.000000	-1.000000	-1.000000	83.655172	0.000000	-1.000000	-1.000000	830586.000000	1772895372.922903
-8033.040000	-12943.035000	4708.710000	-1706.580000	-23372.865000	-17175.195000	-272.160000	-7664.805000	-2.189200	-2.899593	-2.453614	-4.529777	-7.543927	-4.113206	-2.059291	-4.577184	-1.510740	3.326680	-2.304260	0.744993	-0.113769	0.612425	-1.000000	-1.000000	-1.000000	-1.000000	-1.000000	-1.000000	-1.000000	83.655172	0.000000	-1.000000	-1.000000	830587.000000	1772895372.926932
-7987.545000	-12932.730000	4709.295000	-1713.150000	-23405.175000	-17188.560000	-280.620000	-7655.085000	-5.169167	0.367353	0.229315	-1.395765	-4.499792	-5.500608	-8.807121	-3.847383	-1.510740	3.326680	-2.304260	0.744993	-0.113769	0.612425	-1.000000	-1.000000	-1.000000	-1.000000	-1.000000	-1.000000	-1.000000	83.655172	0.000000	-1.000000	-1.000000	830588.000000	1772895372.926939
-8018.280000	-12921.615000	4724.280000	-1702.620000	-23398.065000	-17184.330000	-272.430000	-7660.530000	-3.695697	4.685234	3.135038	2.281933	-0.722198	-4.693634	-12.330258	-3.301847	-1.510740	3.326680	-2.304260	0.744993	-0.113769	0.612425	-1.000000	-1.000000	-1.000000	-1.000000	-1.000000	-1.000000	-1.000000	83.655172	0.000000	-1.000000	-1.000000	830589.000000	1772895372.931030
-8026.965000	-12915.360000	4729.905000	-1697.940000	-23363.820000	-17176.365000	-252.405000	-7663.680000	-0.200944	7.946915	5.036026	4.258341	-0.170143	-2.804327	-10.356296	-3.775067	-1.510740	3.326680	-2.304260	0.744993	-0.113769	0.612425	-1.000000	-1.000000	-1.000000	-1.000000	-1.000000	-1.000000	-1.000000	83.655172	0.000000	-1.000000	-1.000000	830590.000000	1772895372.931038
-8013.555000	-12907.845000	4742.010000	-1681.515000	-23342.805000	-17161.200000	-223.425000	-7655.310000	1.681558	8.309148	5.330377	4.182422	-0.907873	-0.568898	-3.283817	-3.890064	-0.854560	3.250380	-1.327620	0.746519	-0.115967	0.612120	-1.000000	-1.000000	-1.000000	-1.000000	-1.000000	-1.000000	-1.000000	83.655172	0.000000	-1.000000	-1.000000	830591.000000	1772895372.934929
-7991.550000	-12896.685000	4754.430000	-1666.035000	-23347.440000	-17149.275000	-226.170000	-7656.750000	0.955167	5.390416	4.067636	3.184990	0.187466	1.831337	5.620703	-2.232493	-0.854560	3.250380	-1.327620	0.746519	-0.115967	0.612120	-1.000000	-1.000000	-1.000000	-1.000000	-1.000000	-1.000000	-1.000000	83.655172	0.000000	-1.000000	-1.000000	830592.000000	1772895372.934936
-7981.425000	-12915.900000	4731.030000	-1689.030000	-23379.660000	-17164.215000	-231.885000	-7665.255000	-0.976768	-0.066313	1.123126	1.571624	1.981105	3.562973	11.363382	0.491571	-0.854560	3.250380	-1.327620	0.746519	-0.115967	0.612120	-1.000000	-1.000000	-1.000000	-1.000000	-1.000000	-1.000000	-1.000000	83.655172	0.000000	-1.000000	-1.000000	830593.000000	1772895372.941477
-7983.990000	-12929.805000	4718.025000	-1702.575000	-23392.530000	-17174.475000	-237.960000	-7668.045000	-1.058045	-6.821675	-3.807820	-1.585428	1.609118	3.295277	10.711352	2.722654	-0.854560	3.250380	-1.327620	0.746519	-0.115967	0.612120	-1.000000	-1.000000	-1.000000	-1.000000	-1.000000	-1.000000	-1.000000	83.655172	0.000000	-1.000000	-1.000000	830594.000000	1772895372.941484
-7997.175000	-12942.945000	4702.725000	-1718.730000	-23401.305000	-17190.855000	-263.835000	-7665.525000	2.968345	-12.728147	-9.644064	-6.323143	-1.248825	0.494548	4.520179	4.322825	-0.854560	3.250380	-1.327620	0.746519	-0.115967	0.612120	-1.000000	-1.000000	-1.000000	-1.000000	-1.000000	-1.000000	-1.000000	83.655172	0.000000	-1.000000	-1.000000	830595.000000	1772895372.945101
-7997.715000	-12971.205000	4674.285000	-1747.575000	-23428.215000	-17217.540000	-283.005000	-7656.345000	8.197128	-15.555323	-14.001124	-11.065223	-4.689133	-4.084992	-3.850469	5.692005	-0.854560	3.250380	-1.327620	0.746519	-0.115967	0.612120	-1.000000	-1.000000	-1.000000	-1.000000	-1.000000	-1.000000	-1.000000	83.655172	0.000000	-1.000000	-1.000000	830596.000000	1772895372.945110
-8004.330000	-12977.415000	4667.580000	-1754.010000	-23441.355000	-17218.800000	-259.605000	-7631.190000	8.422188	-14.435094	-14.754560	-13.404606	-6.440875	-8.109454	-10.098039	6.301379	-0.854560	3.250380	-1.327620	0.746519	-0.115967	0.612120	-1.000000	-1.000000	-1.000000	-1.000000	-1.000000	-1.000000	-1.000000	83.655172	0.000000	-1.000000	-1.000000	830597.000000	1772895372.947716
-8038.935000	-12970.440000	4673.610000	-1750.005000	-23430.195000	-17212.185000	-248.985000	-7637.535000	1.664921	-9.217338	-10.604121	-11.029059	-5.267390	-8.474117	-10.518734	5.498367	-0.854560	3.250380	-1.327620	0.746519	-0.115967	0.612120	-1.000000	-1.000000	-1.000000	-1.000000	-1.000000	-1.000000	-1.000000	83.655172	0.000000	-1.000000	-1.000000	830598.000000	1772895372.947722
-8023.365000	-12946.410000	4685.805000	-1746.000000	-23429.430000	-17217.180000	-260.640000	-7657.335000	-7.646912	-0.054419	-1.693940	-3.475368	-1.780112	-4.134480	-5.504185	2.793762	-0.854560	3.250380	-1.327620	0.746519	-0.115967	0.612120	-1.000000	-1.000000	-1.000000	-1.000000	-1.000000	-1.000000	-1.000000	83.655172	0.000000	-1.000000	-1.000000	830599.000000	1772895372.950861
-8004.015000	-12948.615000	4681.080000	-1750.320000	-23429.970000	-17222.580000	-271.755000	-7655.130000	-13.302174	10.975498	9.212711	6.485758	2.282695	2.394667	0.203031	-2.068907	-0.854560	3.250380	-1.327620	0.746519	-0.115967	0.612120	-1.000000	-1.000000	-1.000000	-1.000000	-1.000000	-1.000000	-1.000000	83.655172	0.000000	-1.000000	-1.000000	830600.000000	1772895372.950869
-8013.915000	-12948.840000	4694.265000	-1730.745000	-23407.380000	-17203.140000	-269.685000	-7659.045000	-12.473068	19.233457	17.484448	14.400321	5.977015	7.576491	2.762451	-7.528293	-1.129240	2.716280	-1.205540	0.748106	-0.116333	0.614989	-1.000000	-1.000000	-1.000000	-1.000000	-1.000000	-1.000000	-1.000000	83.655172	0.000000	-1.000000	-1.000000	830601.000000	1772895372.955030
-8022.465000	-12951.090000	4697.055000	-1726.245000	-23408.505000	-17194.815000	-263.115000	-7660.755000	-6.838023	20.716746	20.105669	17.856896	9.906560	10.370856	2.854100	-10.424441	-1.129240	2.716280	-1.205540	0.748106	-0.116333	0.614989	-1.000000	-1.000000	-1.000000	-1.000000	-1.000000	-1.000000	-1.000000	83.655172	0.000000	-1.000000	-1.000000	830602.000000	1772895372.955036
-8022.960000	-12952.980000	4695.570000	-1727.460000	-23407.020000	-17195.130000	-260.325000	-7661.070000	0.799754	15.377534	17.192377	17.019551	13.588023	11.455671	3.394396	-8.655020	-1.129240	2.716280	-1.205540	0.748106	-0.116333	0.614989	-1.000000	-1.000000	-1.000000	-1.000000	-1.000000	-1.000000	-1.000000	83.655172	0.000000	-1.000000	-1.000000	830603.000000	1772895372.958909
-8030.205000	-12942.630000	4702.185000	-1723.320000	-23402.070000	-17194.995000	-258.570000	-7667.235000	8.219925	6.509448	10.450128	12.514969	14.236311	10.607093	5.818532	-3.122824	-1.129240	2.716280	-1.205540	0.748106	-0.116333	0.614989	-1.000000	-1.000000	-1.000000	-1.000000	-1.000000	-1.000000	-1.000000	83.655172	0.000000	-1.000000	-1.000000	830604.000000	1772895372.958919
-8041.185000	-12932.955000	4715.505000	-1711.755000	-23389.920000	-17180.640000	-234.495000	-7657.065000	12.371240	-1.603351	2.554873	5.708471	10.427167	7.552938	9.114191	2.728464	-1.129240	2.716280	-1.205540	0.748106	-0.116333	0.614989	-1.000000	-1.000000	-1.000000	-1.000000	-1.000000	-1.000000	-1.000000	83.655172	0.000000	-1.000000	-1.000000	830605.000000	1772895372.962954
-8066.070000	-12972.420000	4688.820000	-1730.655000	-23401.260000	-17192.430000	-248.445000	-7674.480000	10.848305	-6.799334	-4.240937	-1.499671	3.445180	2.847332	10.334943	5.486944	-1.129240	2.716280	-1.205540	0.748106	-0.116333	0.614989	-1.000000	-1.000000	-1.000000	-1.000000	-1.000000	-1.000000	-1.000000	83.655172	0.000000	-1.000000	-1.000000	830606.000000	1772895372.962963
-8025.255000	-12964.230000	4687.380000	-1735.200000	-23407.695000	-17202.915000	-260.370000	-7672.905000	5.488186	-10.372274	-9.954533	-8.406178	-5.393467	-3.334717	6.229546	4.418102	-1.129240	2.716280	-1.205540	0.748106	-0.116333	0.614989	-1.000000	-1.000000	-1.000000	-1.000000	-1.000000	-1.000000	-1.000000	83.655172	0.000000	-1.000000	-1.000000	830607.000000	1772895372.972970
-7993.395000	-12942.090000	4697.325000	-1731.330000	-23405.490000	-17198.235000	-253.755000	-7664.355000	1.152481	-13.058003	-14.552256	-14.231679	-14.411573	-10.122079	-2.840956	1.971824	-1.129240	2.716280	-1.205540	0.748106	-0.116333	0.614989	-1.000000	-1.000000	-1.000000	-1.000000	-1.000000	-1.000000	-1.000000	83.655172	0.000000	-1.000000	-1.000000	830608.000000	1772895372.972978
-8004.960000	-12950.280000	4691.250000	-1732.410000	-23402.205000	-17193.150000	-254.385000	-7660.620000	-0.095480	-12.812057	-16.031243	-16.842794	-20.053655	-14.655056	-11.687191	1.054709	-1.129240	2.716280	-1.205540	0.748106	-0.116333	0.614989	-1.000000	-1.000000	-1.000000	-1.000000	-1.000000	-1.000000	-1.000000	83.655172	0.000000	-1.000000	-1.000000	830609.000000	1772895372.972986
-8011.260000	-12953.340000	4689.675000	-1733.580000	-23405.040000	-17192.655000	-255.870000	-7659.630000	-0.565094	-8.457692	-13.010526	-14.795177	-19.179295	-14.443753	-15.037050	2.134021	-1.129240	2.716280	-1.205540	0.748106	-0.116333	0.614989	-1.000000	-1.000000	-1.000000	-1.000000	-1.000000	-1.000000	-1.000000	83.655172	0.000000	-1.000000	-1.000000	830610.000000	1772895372.972990
-8009.640000	-12952.665000	4688.280000	-1736.865000	-23409.630000	-17194.275000	-258.165000	-7666.020000	-2.224040	-1.586974	-6.414533	-8.711370	-11.800159	-9.602745	-11.821101	3.562994	-1.495480	3.174080	-1.297100	0.751158	-0.115051	0.615782	-1.000000	-1.000000	-1.000000	-1.000000	-1.000000	-1.000000	-1.000000	83.655172	0.000000	-1.000000	-1.000000	830611.000000	1772895372.974849
-8013.780000	-12960.720000	4684.905000	-1739.070000	-23411.655000	-17198.370000	-264.825000	-7673.850000	-4.220992	4.961970	1.429929	-0.695654	-1.137245	-2.317978	-4.634508	3.436545	-1.495480	3.174080	-1.297100	0.751158	-0.115051	0.615782	-1.000000	-1.000000	-1.000000	-1.000000	-1.000000	-1.000000	-1.000000	83.655172	0.000000	-1.000000	-1.000000	830612.000000	1772895372.974856
-8019.495000	-12979.755000	4683.645000	-1731.060000	-23401.485000	-17199.225000	-263.025000	-7670.655000	-5.207958	8.264684	7.757182	6.645118	8.478984	4.587773	2.755126	1.031183	-1.495480	3.174080	-1.297100	0.751158	-0.115051	0.615782	-1.000000	-1.000000	-1.000000	-1.000000	-1.000000	-1.000000	-1.000000	83.655172	0.000000	-1.000000	-1.000000	830613.000000	1772895372.978894
-8017.110000	-12978.540000	4689.495000	-1714.455000	-23386.635000	-17188.065000	-248.670000	-7655.040000	-4.677829	7.088356	10.682695	11.481480	14.219899	8.956363	7.390749	-2.448862	-1.495480	3.174080	-1.297100	0.751158	-0.115051	0.615782	-1.000000	-1.000000	-1.000000	-1.000000	-1.000000	-1.000000	-1.000000	83.655172	0.000000	-1.000000	-1.000000	830614.000000	1772895372.978902
-8023.140000	-12955.005000	4695.570000	-1715.400000	-23380.065000	-17190.000000	-251.370000	-7644.015000	-2.548238	3.893477	10.411180	13.252596	15.404278	10.139699	8.455812	-4.357742	-1.495480	3.174080	-1.297100	0.751158	-0.115051	0.615782	-1.000000	-1.000000	-1.000000	-1.000000	-1.000000	-1.000000	-1.000000	83.655172	0.000000	-1.000000	-1.000000	830615.000000	1772895372.982988
-8025.750000	-12938.445000	4689.135000	-1738.530000	-23382.990000	-17204.715000	-269.685000	-7657.650000	-0.388509	2.358582	8.081605	11.439220	12.393026	8.449156	6.704318	-3.217973	-1.495480	3.174080	-1.297100	0.751158	-0.115051	0.615782	-1.000000	-1.000000	-1.000000	-1.000000	-1.000000	-1.000000	-1.000000	83.655172	0.000000	-1.000000	-1.000000	830616.000000	1772895372.982996
-8035.380000	-12955.770000	4672.845000	-1760.265000	-23396.445000	-17215.650000	-277.830000	-7689.150000	-0.916101	2.601336	3.863030	5.182721	5.848013	4.137439	2.862804	-1.207458	-1.495480	3.174080	-1.297100	0.751158	-0.115051	0.615782	-1.000000	-1.000000	-1.000000	-1.000000	-1.000000	-1.000000	-1.000000	83.655172	0.000000	-1.000000	-1.000000	830617.000000	1772895372.986974
-8027.190000	-12948.795000	4686.390000	-1749.690000	-23399.145000	-17206.920000	-270.405000	-7683.930000	-3.730531	2.038069	-1.769191	-4.129566	-2.723491	-1.780563	-1.781846	-1.528429	-1.495480	3.174080	-1.297100	0.751158	-0.115051	0.615782	-1.000000	-1.000000	-1.000000	-1.000000	-1.000000	-1.000000	-1.000000	83.655172	0.000000	-1.000000	-1.000000	830618.000000	1772895372.986981
-8011.260000	-12950.325000	4695.525000	-1736.685000	-23413.545000	-17194.095000	-264.915000	-7670.745000	-4.584533	-0.158443	-6.153525	-11.462555	-10.316391	-6.391410	-4.687517	-3.492723	-1.495480	3.174080	-1.297100	0.751158	-0.115051	0.615782	-1.000000	-1.000000	-1.000000	-1.000000	-1.000000	-1.000000	-1.000000	83.655172	0.000000	-1.000000	-1.000000	830619.000000	1772895372.995395
-7987.545000	-12953.655000	4690.575000	-1743.165000	-23439.330000	-17204.895000	-273.645000	-7648.650000	-0.239963	-2.636306	-6.693674	-12.114582	-14.021088	-6.918280	-4.170629	-3.199742	-1.495480	3.174080	-1.297100	0.751158	-0.115051	0.615782	-1.000000	-1.000000	-1.000000	-1.000000	-1.000000	-1.000000	-1.000000	83.655172	0.000000	-1.000000	-1.000000	830620.000000	1772895372.995403
-8020.665000	-12950.235000	4688.595000	-1738.710000	-23413.770000	-17209.395000	-291.870000	-7673.265000	7.361279	-3.961132	-3.856665	-6.317721	-12.704415	-3.691608	-1.370205	0.930956	-3.204600	2.731540	-2.548420	0.753050	-0.119751	0.616209	-1.000000	-1.000000	-1.000000	-1.000000	-1.000000	-1.000000	-1.000000	83.655172	0.000000	-1.000000	-1.000000	830621.000000	1772895372.995412
-8023.365000	-12950.730000	4694.130000	-1725.030000	-23380.830000	-17195.850000	-277.605000	-7673.130000	12.238947	-3.350711	-0.217122	1.669692	-6.296875	0.631260	1.008069	5.487414	-3.204600	2.731540	-2.548420	0.753050	-0.119751	0.616209	-1.000000	-1.000000	-1.000000	-1.000000	-1.000000	-1.000000	-1.000000	83.655172	0.000000	-1.000000	-1.000000	830622.000000	1772895372.995416
-8020.170000	-12957.030000	4687.110000	-1735.065000	-23382.945000	-17202.555000	-268.515000	-7658.550000	10.525956	-1.306031	2.038910	7.298585	3.459126	3.668143	1.670173	6.340055	-3.204600	2.731540	-2.548420	0.753050	-0.119751	0.616209	-1.000000	-1.000000	-1.000000	-1.000000	-1.000000	-1.000000	-1.000000	83.655172	0.000000	-1.000000	-1.000000	830623.000000	1772895372.998844
-8023.320000	-12961.395000	4680.720000	-1748.160000	-23425.605000	-17215.335000	-269.820000	-7661.790000	3.790810	0.034453	1.977918	8.047723	11.258603	4.188546	1.563049	3.446814	-3.204600	2.731540	-2.548420	0.753050	-0.119751	0.616209	-1.000000	-1.000000	-1.000000	-1.000000	-1.000000	-1.000000	-1.000000	83.655172	0.000000	-1.000000	-1.000000	830624.000000	1772895372.998854
-8031.150000	-12972.195000	4674.060000	-1752.255000	-23425.695000	-17217.900000	-263.880000	-7669.080000	-4.131447	-1.176912	0.049417	4.582362	11.728237	2.386193	2.018403	-0.306834	-3.204600	2.731540	-2.548420	0.753050	-0.119751	0.616209	-1.000000	-1.000000	-1.000000	-1.000000	-1.000000	-1.000000	-1.000000	83.655172	0.000000	-1.000000	-1.000000	830625.000000	1772895373.006224
-8040.960000	-12965.670000	4689.630000	-1729.485000	-23381.415000	-17199.045000	-253.665000	-7673.310000	-10.035656	-3.830317	-1.857719	0.323828	5.950040	0.030573	3.216529	-2.409763	-3.204600	2.731540	-2.548420	0.753050	-0.119751	0.616209	-1.000000	-1.000000	-1.000000	-1.000000	-1.000000	-1.000000	-1.000000	83.655172	0.000000	-1.000000	-1.000000	830626.000000	1772895373.006229
-8030.790000	-12940.830000	4714.470000	-1718.055000	-23414.445000	-17191.755000	-245.700000	-7685.730000	-11.765445	-4.364134	-1.591996	-1.515430	0.127017	-0.965716	4.130985	-2.543888	-3.204600	2.731540	-2.548420	0.753050	-0.119751	0.616209	-1.000000	-1.000000	-1.000000	-1.000000	-1.000000	-1.000000	-1.000000	83.655172	0.000000	-1.000000	-1.000000	830627.000000	1772895373.007118
-8027.190000	-12957.165000	4694.130000	-1736.505000	-23442.975000	-17203.410000	-253.665000	-7698.600000	-8.895705	-0.834265	0.923017	-0.965181	-2.577744	-0.555923	3.365342	-2.555899	-3.204600	2.731540	-2.548420	0.753050	-0.119751	0.616209	-1.000000	-1.000000	-1.000000	-1.000000	-1.000000	-1.000000	-1.000000	83.655172	0.000000	-1.000000	-1.000000	830628.000000	1772895373.007125
-7994.745000	-12964.770000	4684.995000	-1728.090000	-23407.380000	-17204.130000	-260.955000	-7669.215000	-2.591050	4.400716	3.093336	-0.384723	-3.047583	-0.098975	0.515060	-3.360887	-3.204600	2.731540	-2.548420	0.753050	-0.119751	0.616209	-1.000000	-1.000000	-1.000000	-1.000000	-1.000000	-1.000000	-1.000000	83.655172	0.000000	-1.000000	-1.000000	830629.000000	1772895373.011056
-7954.695000	-12938.490000	4712.535000	-1697.670000	-23375.250000	-17183.115000	-248.715000	-7614.810000	6.088200	7.664000	2.930652	-0.709171	-1.728102	-0.051909	-3.063231	-2.135152	-3.204600	2.731540	-2.548420	0.753050	-0.119751	0.616209	-1.000000	-1.000000	-1.000000	-1.000000	-1.000000	-1.000000	-1.000000	83.655172	0.000000	-1.000000	-1.000000	830630.000000	1772895373.011061
-7974.360000	-12943.845000	4701.105000	-1718.505000	-23387.130000	-17190.000000	-261.045000	-7630.380000	14.891981	7.909348	1.300579	-1.159579	0.575319	0.048528	-5.708157	3.421374	1.373400	2.838360	-3.052000	0.754942	-0.123779	0.619383	-1.000000	-1.000000	-1.000000	-1.000000	-1.000000	-1.000000	-1.000000	83.655172	0.000000	-1.000000	-1.000000	830631.000000	1772895373.014906
-8041.680000	-12949.740000	4692.330000	-1730.790000	-23378.445000	-17201.025000	-300.420000	-7676.100000	17.484802	5.649188	-0.463485	-1.770240	1.760416	-0.007692	-7.532068	8.760076	1.373400	2.838360	-3.052000	0.754942	-0.123779	0.619383	-1.000000	-1.000000	-1.000000	-1.000000	-1.000000	-1.000000	-1.000000	83.655172	0.000000	-1.000000	-1.000000	830632.000000	1772895373.014914
-8020.080000	-12952.845000	4690.800000	-1731.195000	-23377.905000	-17193.150000	-301.500000	-7672.770000	8.787152	1.275961	-2.024233	-2.702945	1.567614	-0.468277	-9.151239	7.132139	1.373400	2.838360	-3.052000	0.754942	-0.123779	0.619383	-1.000000	-1.000000	-1.000000	-1.000000	-1.000000	-1.000000	-1.000000	83.655172	0.000000	-1.000000	-1.000000	830633.000000	1772895373.018934
-7975.440000	-12947.715000	4695.210000	-1725.345000	-23383.440000	-17194.815000	-288.855000	-7643.655000	-5.901008	-3.715982	-2.869931	-2.900161	0.919457	-0.784303	-9.011209	-0.422919	1.373400	2.838360	-3.052000	0.754942	-0.123779	0.619383	-1.000000	-1.000000	-1.000000	-1.000000	-1.000000	-1.000000	-1.000000	83.655172	0.000000	-1.000000	-1.000000	830634.000000	1772895373.018940
-7996.140000	-12948.570000	4697.685000	-1730.565000	-23420.295000	-17209.260000	-263.205000	-7646.490000	-15.215175	-7.035669	-2.703378	-1.968258	-1.294613	-1.163350	-4.650184	-6.476594	1.373400	2.838360	-3.052000	0.754942	-0.123779	0.619383	-1.000000	-1.000000	-1.000000	-1.000000	-1.000000	-1.000000	-1.000000	83.655172	0.000000	-1.000000	-1.000000	830635.000000	1772895373.023017
-8040.240000	-12958.335000	4693.005000	-1732.095000	-23438.745000	-17204.445000	-239.490000	-7677.225000	-15.237940	-7.846535	-2.226098	-0.962853	-5.722863	-2.445766	3.969236	-7.012314	1.373400	2.838360	-3.052000	0.754942	-0.123779	0.619383	-1.000000	-1.000000	-1.000000	-1.000000	-1.000000	-1.000000	-1.000000	83.655172	0.000000	-1.000000	-1.000000	830636.000000	1772895373.023025
-8065.395000	-12956.805000	4695.345000	-1725.885000	-23424.930000	-17200.935000	-242.505000	-7674.345000	-11.366452	-6.468147	-1.630053	-0.165900	-9.116378	-3.595721	13.538166	-4.393678	1.373400	2.838360	-3.052000	0.754942	-0.123779	0.619383	-1.000000	-1.000000	-1.000000	-1.000000	-1.000000	-1.000000	-1.000000	83.655172	0.000000	-1.000000	-1.000000	830637.000000	1772895373.027040
-8040.015000	-12969.990000	4678.470000	-1745.415000	-23429.700000	-17215.920000	-258.030000	-7656.525000	-8.467604	-3.361739	-0.416652	0.719488	-8.207096	-2.845560	18.757692	-2.229478	1.373400	2.838360	-3.052000	0.754942	-0.123779	0.619383	-1.000000	-1.000000	-1.000000	-1.000000	-1.000000	-1.000000	-1.000000	83.655172	0.000000	-1.000000	-1.000000	830638.000000	1772895373.027045
-8012.565000	-12958.245000	4688.910000	-1735.245000	-23418.945000	-17208.045000	-270.405000	-7657.605000	-5.318194	0.160386	0.784712	0.819575	-4.029758	-0.742630	15.374554	-1.740390	1.373400	2.838360	-3.052000	0.754942	-0.123779	0.619383	-1.000000	-1.000000	-1.000000	-1.000000	-1.000000	-1.000000	-1.000000	83.655172	0.000000	-1.000000	-1.000000	830639.000000	1772895373.030920
-8012.565000	-12938.265000	4709.610000	-1715.670000	-23392.305000	-17191.665000	-259.875000	-7657.290000	1.774725	3.152687	1.661034	0.493932	1.257877	1.543080	4.482106	-1.722013	1.373400	2.838360	-3.052000	0.754942	-0.123779	0.619383	-1.000000	-1.000000	-1.000000	-1.000000	-1.000000	-1.000000	-1.000000	83.655172	0.000000	-1.000000	-1.000000	830640.000000	1772895373.030929
-8007.345000	-12927.240000	4717.800000	-1707.840000	-23367.195000	-17176.410000	-241.470000	-7661.205000	12.880095	6.085256	3.506665	2.210675	7.462872	4.435654	-6.687823	0.154635	2.014320	2.655240	-1.922760	0.759214	-0.123962	0.621153	-1.000000	-1.000000	-1.000000	-1.000000	-1.000000	-1.000000	-1.000000	83.655172	0.000000	-1.000000	-1.000000	830641.000000	1772895373.034807
-8008.920000	-12929.355000	4716.090000	-1706.130000	-23364.540000	-17168.625000	-235.845000	-7659.270000	22.093666	8.588296	6.222733	6.113518	13.618002	7.753212	-11.216537	4.152544	2.014320	2.655240	-1.922760	0.759214	-0.123962	0.621153	-1.000000	-1.000000	-1.000000	-1.000000	-1.000000	-1.000000	-1.000000	83.655172	0.000000	-1.000000	-1.000000	830642.000000	1772895373.034812
-8016.390000	-12940.830000	4702.005000	-1724.670000	-23419.170000	-17192.025000	-256.995000	-7650.630000	21.838535	8.468483	6.976596	8.430953	15.599685	8.972075	-9.280973	7.352272	2.014320	2.655240	-1.922760	0.759214	-0.123962	0.621153	-1.000000	-1.000000	-1.000000	-1.000000	-1.000000	-1.000000	-1.000000	83.655172	0.000000	-1.000000	-1.000000	830643.000000	1772895373.038864
-8017.920000	-12942.720000	4700.025000	-1724.265000	-23417.325000	-17192.880000	-244.530000	-7649.685000	10.948556	4.160389	3.316427	5.639299	10.020748	5.593895	-6.225367	7.439314	2.014320	2.655240	-1.922760	0.759214	-0.123962	0.621153	-1.000000	-1.000000	-1.000000	-1.000000	-1.000000	-1.000000	-1.000000	83.655172	0.000000	-1.000000	-1.000000	830644.000000	1772895373.038872
-8009.505000	-12943.305000	4702.995000	-1718.280000	-23394.465000	-17185.680000	-248.580000	-7668.540000	-3.247696	-2.668953	-3.380723	-1.256425	-0.040065	-1.412718	-5.358763	4.935617	2.014320	2.655240	-1.922760	0.759214	-0.123962	0.621153	-1.000000	-1.000000	-1.000000	-1.000000	-1.000000	-1.000000	-1.000000	83.655172	0.000000	-1.000000	-1.000000	830645.000000	1772895373.044322
-8011.215000	-12943.305000	4697.775000	-1730.430000	-23411.880000	-17200.395000	-274.725000	-7692.615000	-12.329765	-8.009703	-8.683155	-7.794048	-8.187113	-8.041458	-5.672247	0.562202	2.014320	2.655240	-1.922760	0.759214	-0.123962	0.621153	-1.000000	-1.000000	-1.000000	-1.000000	-1.000000	-1.000000	-1.000000	83.655172	0.000000	-1.000000	-1.000000	830646.000000	1772895373.044331
-7995.555000	-12939.570000	4695.345000	-1743.030000	-23430.420000	-17217.495000	-273.240000	-7682.130000	-14.115922	-9.070655	-9.455656	-10.726238	-12.205196	-11.228512	-4.911602	-5.580951	2.014320	2.655240	-1.922760	0.759214	-0.123962	0.621153	-1.000000	-1.000000	-1.000000	-1.000000	-1.000000	-1.000000	-1.000000	83.655172	0.000000	-1.000000	-1.000000	830647.000000	1772895373.047011
-7988.220000	-12950.370000	4690.980000	-1741.860000	-23430.105000	-17218.530000	-259.155000	-7658.595000	-11.356432	-6.412446	-6.277566	-9.804419	-13.473714	-10.716355	-1.580874	-10.722041	2.014320	2.655240	-1.922760	0.759214	-0.123962	0.621153	-1.000000	-1.000000	-1.000000	-1.000000	-1.000000	-1.000000	-1.000000	83.655172	0.000000	-1.000000	-1.000000	830648.000000	1772895373.047019
-8028.495000	-12971.970000	4687.155000	-1729.080000	-23406.435000	-17193.780000	-240.480000	-7656.705000	-7.083742	-3.184494	-1.989198	-6.022066	-12.294819	-7.194943	4.388499	-10.099329	2.014320	2.655240	-1.922760	0.759214	-0.123962	0.621153	-1.000000	-1.000000	-1.000000	-1.000000	-1.000000	-1.000000	-1.000000	83.655172	0.000000	-1.000000	-1.000000	830649.000000	1772895373.051033
-8073.630000	-12969.990000	4695.255000	-1724.715000	-23403.510000	-17193.375000	-244.215000	-7668.270000	-4.236107	-1.931035	1.223546	-0.424959	-7.717439	-1.296128	10.571622	-3.011968	2.014320	2.655240	-1.922760	0.759214	-0.123962	0.621153	-1.000000	-1.000000	-1.000000	-1.000000	-1.000000	-1.000000	-1.000000	83.655172	0.000000	-1.000000	-1.000000	830650.000000	1772895373.051041
-8041.995000	-12956.220000	4702.860000	-1720.665000	-23398.155000	-17188.605000	-242.730000	-7666.110000	-4.350976	-1.648289	3.363754	5.475839	0.102603	5.273572	13.111836	5.406818	0.427280	3.830260	-3.021480	0.763548	-0.125610	0.619566	-1.000000	-1.000000	-1.000000	-1.000000	-1.000000	-1.000000	-1.000000	83.655172	0.000000	-1.000000	-1.000000	830651.000000	1772895373.055000
-7989.570000	-12938.940000	4706.325000	-1719.405000	-23396.310000	-17187.840000	-247.365000	-7659.810000	-3.652720	0.740540	5.327444	9.756701	9.494856	10.210005	10.089312	9.600970	0.427280	3.830260	-3.021480	0.763548	-0.125610	0.619566	-1.000000	-1.000000	-1.000000	-1.000000	-1.000000	-1.000000	-1.000000	83.655172	0.000000	-1.000000	-1.000000	830652.000000	1772895373.055007
-7994.790000	-12946.590000	4695.660000	-1730.970000	-23406.840000	-17200.620000	-264.555000	-7657.470000	2.888844	5.899333	6.722160	10.645802	17.070248	11.660206	2.591220	8.497748	0.427280	3.830260	-3.021480	0.763548	-0.125610	0.619566	-1.000000	-1.000000	-1.000000	-1.000000	-1.000000	-1.000000	-1.000000	83.655172	0.000000	-1.000000	-1.000000	830653.000000	1772895373.058915
-8010.000000	-12959.055000	4692.195000	-1730.520000	-23403.240000	-17199.000000	-265.680000	-7652.970000	12.848269	10.480474	6.035748	7.305579	18.138289	8.601399	-6.170105	4.869686	0.427280	3.830260	-3.021480	0.763548	-0.125610	0.619566	-1.000000	-1.000000	-1.000000	-1.000000	-1.000000	-1.000000	-1.000000	83.655172	0.000000	-1.000000	-1.000000	830654.000000	1772895373.058921
-7999.290000	-12952.845000	4701.825000	-1720.215000	-23386.860000	-17184.870000	-251.370000	-7652.925000	18.084096	10.578915	3.028065	1.440514	11.377505	2.687100	-11.329464	1.538344	0.427280	3.830260	-3.021480	0.763548	-0.125610	0.619566	-1.000000	-1.000000	-1.000000	-1.000000	-1.000000	-1.000000	-1.000000	83.655172	0.000000	-1.000000	-1.000000	830655.000000	1772895373.062912
-7998.255000	-12950.280000	4704.525000	-1718.055000	-23380.515000	-17180.280000	-243.945000	-7654.050000	13.860587	5.801055	-0.494197	-3.311860	1.256465	-2.131343	-9.507583	-1.125266	0.427280	3.830260	-3.021480	0.763548	-0.125610	0.619566	-1.000000	-1.000000	-1.000000	-1.000000	-1.000000	-1.000000	-1.000000	83.655172	0.000000	-1.000000	-1.000000	830656.000000	1772895373.062920
-8011.215000	-12962.925000	4688.955000	-1734.615000	-23396.040000	-17201.430000	-271.215000	-7671.060000	2.680576	-0.939784	-2.952582	-5.202326	-7.210709	-4.138588	-2.976918	-4.266498	0.427280	3.830260	-3.021480	0.763548	-0.125610	0.619566	-1.000000	-1.000000	-1.000000	-1.000000	-1.000000	-1.000000	-1.000000	83.655172	0.000000	-1.000000	-1.000000	830657.000000	1772895373.066995
-8033.760000	-12953.475000	4692.465000	-1731.870000	-23397.165000	-17196.120000	-276.030000	-7694.145000	-8.540542	-6.167937	-4.360574	-5.579682	-12.727795	-5.290218	2.098338	-8.049921	0.427280	3.830260	-3.021480	0.763548	-0.125610	0.619566	-1.000000	-1.000000	-1.000000	-1.000000	-1.000000	-1.000000	-1.000000	83.655172	0.000000	-1.000000	-1.000000	830658.000000	1772895373.067002
-8066.970000	-12960.450000	4685.040000	-1738.665000	-23402.430000	-17200.665000	-263.745000	-7697.745000	-14.311408	-7.889599	-5.091086	-5.805175	-15.323232	-7.012411	2.499440	-10.721066	0.427280	3.830260	-3.021480	0.763548	-0.125610	0.619566	-1.000000	-1.000000	-1.000000	-1.000000	-1.000000	-1.000000	-1.000000	83.655172	0.000000	-1.000000	-1.000000	830659.000000	1772895373.070896
-8066.970000	-12959.145000	4689.495000	-1730.295000	-23384.835000	-17193.870000	-261.540000	-7704.765000	-14.582991	-6.620992	-4.979505	-5.369316	-13.600973	-7.799360	0.580166	-10.089133	0.427280	3.830260	-3.021480	0.763548	-0.125610	0.619566	-1.000000	-1.000000	-1.000000	-1.000000	-1.000000	-1.000000	-1.000000	83.655172	0.000000	-1.000000	-1.000000	830660.000000	1772895373.070907
-8044.650000	-12950.730000	4694.850000	-1727.640000	-23408.595000	-17194.275000	-272.655000	-7711.920000	-11.831454	-4.157111	-3.477375	-3.082789	-6.779839	-5.595085	-0.258309	-5.711407	-0.167860	3.692920	-3.036740	0.762571	-0.123718	0.622130	-1.000000	-1.000000	-1.000000	-1.000000	-1.000000	-1.000000	-1.000000	83.655172	0.000000	-1.000000	-1.000000	830661.000000	1772895373.074948
-8006.985000	-12949.605000	4696.830000	-1724.805000	-23409.540000	-17199.090000	-295.650000	-7704.405000	-5.886118	-1.270078	-0.246965	1.118790	2.241006	-0.553462	0.457223	0.931046	-0.167860	3.692920	-3.036740	0.762571	-0.123718	0.622130	-1.000000	-1.000000	-1.000000	-1.000000	-1.000000	-1.000000	-1.000000	83.655172	0.000000	-1.000000	-1.000000	830662.000000	1772895373.074957
-7979.445000	-12960.990000	4686.255000	-1735.830000	-23418.495000	-17210.070000	-293.130000	-7657.605000	4.550767	1.815188	3.639578	5.362742	8.604318	4.651956	1.304581	8.287991	-0.167860	3.692920	-3.036740	0.762571	-0.123718	0.622130	-1.000000	-1.000000	-1.000000	-1.000000	-1.000000	-1.000000	-1.000000	83.655172	0.000000	-1.000000	-1.000000	830663.000000	1772895373.080027
-7978.320000	-12988.575000	4660.290000	-1762.110000	-23441.940000	-17231.625000	-284.715000	-7639.155000	16.237893	3.474214	5.425879	6.649535	9.326399	6.663743	1.498382	15.170495	-0.167860	3.692920	-3.036740	0.762571	-0.123718	0.622130	-1.000000	-1.000000	-1.000000	-1.000000	-1.000000	-1.000000	-1.000000	83.655172	0.000000	-1.000000	-1.000000	830664.000000	1772895373.080048
-7998.840000	-12975.345000	4671.495000	-1754.505000	-23436.045000	-17226.495000	-271.935000	-7658.370000	21.709495	2.210107	3.385023	3.640168	4.954350	4.358513	1.610587	18.753057	-0.167860	3.692920	-3.036740	0.762571	-0.123718	0.622130	-1.000000	-1.000000	-1.000000	-1.000000	-1.000000	-1.000000	-1.000000	83.655172	0.000000	-1.000000	-1.000000	830665.000000	1772895373.083862
-8053.470000	-12945.915000	4693.455000	-1735.920000	-23415.930000	-17210.115000	-260.730000	-7676.730000	16.003631	0.073445	-0.117610	-0.928907	-0.364146	0.476331	2.736499	15.341331	-0.167860	3.692920	-3.036740	0.762571	-0.123718	0.622130	-1.000000	-1.000000	-1.000000	-1.000000	-1.000000	-1.000000	-1.000000	83.655172	0.000000	-1.000000	-1.000000	830666.000000	1772895373.083871
-8013.240000	-12935.340000	4695.480000	-1736.955000	-23414.625000	-17210.070000	-263.115000	-7667.775000	2.205569	0.691511	-1.107155	-2.831133	-1.986664	-1.174013	4.681043	5.115262	-0.167860	3.692920	-3.036740	0.762571	-0.123718	0.622130	-1.000000	-1.000000	-1.000000	-1.000000	-1.000000	-1.000000	-1.000000	83.655172	0.000000	-1.000000	-1.000000	830667.000000	1772895373.089592
-8013.690000	-12946.995000	4690.710000	-1737.585000	-23407.650000	-17201.340000	-256.320000	-7656.480000	-10.122520	3.930696	0.909243	-1.135539	0.811446	0.284550	5.292317	-6.599224	-0.167860	3.692920	-3.036740	0.762571	-0.123718	0.622130	-1.000000	-1.000000	-1.000000	-1.000000	-1.000000	-1.000000	-1.000000	83.655172	0.000000	-1.000000	-1.000000	830668.000000	1772895373.089608
-8017.830000	-12956.850000	4682.970000	-1740.735000	-23404.095000	-17197.515000	-249.615000	-7657.605000	-14.350205	5.755104	2.905944	1.611767	5.018537	2.950342	3.067823	-13.912230	-0.167860	3.692920	-3.036740	0.762571	-0.123718	0.622130	-1.000000	-1.000000	-1.000000	-1.000000	-1.000000	-1.000000	-1.000000	83.655172	0.000000	-1.000000	-1.000000	830669.000000	1772895373.090942
-7988.625000	-12944.070000	4700.880000	-1719.000000	-23381.370000	-17177.085000	-232.245000	-7647.120000	-11.798051	3.315962	2.477369	2.977444	7.726508	4.798603	-0.459068	-14.498374	-0.167860	3.692920	-3.036740	0.762571	-0.123718	0.622130	-1.000000	-1.000000	-1.000000	-1.000000	-1.000000	-1.000000	-1.000000	83.655172	0.000000	-1.000000	-1.000000	830670.000000	1772895373.090950
-7975.935000	-12951.720000	4701.105000	-1714.995000	-23379.840000	-17171.955000	-229.005000	-7658.055000	-6.614545	-1.808073	0.317067	2.852289	7.926969	5.165223	-2.353489	-10.246325	-3.891300	3.815000	-1.419180	0.755674	-0.117004	0.626341	-1.000000	-1.000000	-1.000000	-1.000000	-1.000000	-1.000000	-1.000000	83.655172	0.000000	-1.000000	-1.000000	830671.000000	1772895373.095072
-7997.040000	-12952.395000	4697.235000	-1719.135000	-23373.765000	-17175.780000	-240.795000	-7652.520000	-2.119048	-5.801822	-1.454620	2.220124	5.492749	4.094637	-2.173615	-5.597970	-3.891300	3.815000	-1.419180	0.755674	-0.117004	0.626341	-1.000000	-1.000000	-1.000000	-1.000000	-1.000000	-1.000000	-1.000000	83.655172	0.000000	-1.000000	-1.000000	830672.000000	1772895373.095080
-8061.840000	-12964.905000	4681.305000	-1739.835000	-23395.320000	-17202.015000	-269.235000	-7650.180000	-1.200703	-6.371273	-2.005469	1.160785	0.671092	1.217022	-2.859555	-3.401742	-3.891300	3.815000	-1.419180	0.755674	-0.117004	0.626341	-1.000000	-1.000000	-1.000000	-1.000000	-1.000000	-1.000000	-1.000000	83.655172	0.000000	-1.000000	-1.000000	830673.000000	1772895373.099106
-8036.055000	-12965.490000	4681.170000	-1741.005000	-23404.140000	-17211.645000	-278.685000	-7660.215000	-3.544489	-4.301279	-2.276158	-1.178137	-5.886288	-3.890779	-6.684435	-2.274737	-3.891300	3.815000	-1.419180	0.755674	-0.117004	0.626341	-1.000000	-1.000000	-1.000000	-1.000000	-1.000000	-1.000000	-1.000000	83.655172	0.000000	-1.000000	-1.000000	830674.000000	1772895373.099114
-8014.275000	-12957.390000	4687.605000	-1742.130000	-23426.280000	-17217.135000	-281.745000	-7656.705000	-3.437592	-2.090843	-3.254124	-4.853045	-12.906709	-10.110174	-11.626172	0.485361	-3.891300	3.815000	-1.419180	0.755674	-0.117004	0.626341	-1.000000	-1.000000	-1.000000	-1.000000	-1.000000	-1.000000	-1.000000	83.655172	0.000000	-1.000000	-1.000000	830675.000000	1772895373.102985
-8027.775000	-12955.680000	4689.405000	-1737.630000	-23406.705000	-17212.275000	-292.770000	-7663.050000	2.917529	-0.931384	-4.209367	-7.890377	-17.476452	-14.175984	-13.270212	4.852169	-3.891300	3.815000	-1.419180	0.755674	-0.117004	0.626341	-1.000000	-1.000000	-1.000000	-1.000000	-1.000000	-1.000000	-1.000000	83.655172	0.000000	-1.000000	-1.000000	830676.000000	1772895373.102993
-8028.540000	-12954.195000	4688.685000	-1734.435000	-23398.200000	-17201.295000	-290.520000	-7674.930000	11.045584	0.129303	-3.486650	-7.691791	-15.800873	-12.759352	-9.294706	7.935288	-3.891300	3.815000	-1.419180	0.755674	-0.117004	0.626341	-1.000000	-1.000000	-1.000000	-1.000000	-1.000000	-1.000000	-1.000000	83.655172	0.000000	-1.000000	-1.000000	830677.000000	1772895373.108591
-8030.520000	-12965.355000	4674.420000	-1752.480000	-23435.730000	-17207.415000	-269.100000	-7664.040000	13.999606	1.848429	-0.957978	-4.005507	-7.538992	-5.667418	-0.723154	7.471617	-3.891300	3.815000	-1.419180	0.755674	-0.117004	0.626341	-1.000000	-1.000000	-1.000000	-1.000000	-1.000000	-1.000000	-1.000000	83.655172	0.000000	-1.000000	-1.000000	830678.000000	1772895373.108598
-8038.080000	-12974.580000	4671.585000	-1750.995000	-23416.515000	-17213.265000	-254.430000	-7671.645000	9.096297	3.135780	1.427149	0.418191	2.569383	3.301586	9.550998	4.197507	-3.891300	3.815000	-1.419180	0.755674	-0.117004	0.626341	-1.000000	-1.000000	-1.000000	-1.000000	-1.000000	-1.000000	-1.000000	83.655172	0.000000	-1.000000	-1.000000	830679.000000	1772895373.111060
-8032.185000	-12973.005000	4677.345000	-1740.915000	-23391.945000	-17202.555000	-253.170000	-7670.385000	-1.093613	2.845194	2.232823	3.209015	10.146995	9.640701	17.685876	0.215240	-3.891300	3.815000	-1.419180	0.755674	-0.117004	0.626341	-1.000000	-1.000000	-1.000000	-1.000000	-1.000000	-1.000000	-1.000000	83.655172	0.000000	-1.000000	-1.000000	830680.000000	1772895373.111068
-8037.765000	-12967.965000	4677.705000	-1744.245000	-23412.735000	-17213.355000	-267.525000	-7670.475000	-9.884820	1.845009	2.392594	4.800831	14.245819	11.791290	19.958806	-2.961813	-5.051060	5.127360	0.091560	0.755857	-0.115051	0.625914	-1.000000	-1.000000	-1.000000	-1.000000	-1.000000	-1.000000	-1.000000	83.655172	0.000000	-1.000000	-1.000000	830681.000000	1772895373.115108
-8031.375000	-12953.115000	4687.650000	-1740.555000	-23428.755000	-17221.365000	-268.965000	-7676.730000	-10.789909	1.897851	3.422516	6.339310	14.349627	10.617851	15.060018	-4.353557	-5.051060	5.127360	0.091560	0.755857	-0.115051	0.625914	-1.000000	-1.000000	-1.000000	-1.000000	-1.000000	-1.000000	-1.000000	83.655172	0.000000	-1.000000	-1.000000	830682.000000	1772895373.115129
-7989.480000	-12939.075000	4704.840000	-1720.080000	-23384.205000	-17187.615000	-244.395000	-7660.980000	-2.964202	3.317702	5.218741	7.572903	10.597402	7.663392	5.622797	-3.155326	-5.051060	5.127360	0.091560	0.755857	-0.115051	0.625914	-1.000000	-1.000000	-1.000000	-1.000000	-1.000000	-1.000000	-1.000000	83.655172	0.000000	-1.000000	-1.000000	830683.000000	1772895373.118979
-7977.240000	-12938.895000	4715.235000	-1700.775000	-23359.635000	-17169.930000	-233.595000	-7636.365000	8.192301	4.420149	6.308438	7.681124	6.047574	4.856283	-3.331528	0.813106	-5.051060	5.127360	0.091560	0.755857	-0.115051	0.625914	-1.000000	-1.000000	-1.000000	-1.000000	-1.000000	-1.000000	-1.000000	83.655172	0.000000	-1.000000	-1.000000	830684.000000	1772895373.118986
-7995.195000	-12953.655000	4701.285000	-1716.930000	-23396.355000	-17176.905000	-230.760000	-7628.040000	15.052255	3.102830	5.137228	5.904914	2.616558	2.827866	-8.210017	6.159030	-5.051060	5.127360	0.091560	0.755857	-0.115051	0.625914	-1.000000	-1.000000	-1.000000	-1.000000	-1.000000	-1.000000	-1.000000	83.655172	0.000000	-1.000000	-1.000000	830685.000000	1772895373.122967
-8042.040000	-12957.075000	4696.785000	-1727.370000	-23429.385000	-17190.855000	-249.390000	-7679.655000	12.080804	-1.036427	1.138682	1.412719	-2.160955	-0.223050	-9.381569	9.149579	-5.051060	5.127360	0.091560	0.755857	-0.115051	0.625914	-1.000000	-1.000000	-1.000000	-1.000000	-1.000000	-1.000000	-1.000000	83.655172	0.000000	-1.000000	-1.000000	830686.000000	1772895373.122974
-8047.665000	-12937.455000	4710.645000	-1712.115000	-23386.140000	-17176.095000	-249.345000	-7705.620000	-0.710553	-5.605600	-4.095741	-4.868717	-8.957865	-5.268283	-9.763399	5.363894	-5.051060	5.127360	0.091560	0.755857	-0.115051	0.625914	-1.000000	-1.000000	-1.000000	-1.000000	-1.000000	-1.000000	-1.000000	83.655172	0.000000	-1.000000	-1.000000	830687.000000	1772895373.127027
-8009.865000	-12915.675000	4724.955000	-1700.820000	-23364.405000	-17169.840000	-234.855000	-7671.105000	-15.785701	-6.770154	-7.320508	-9.536058	-13.053601	-9.833912	-10.556812	-4.448404	-5.051060	5.127360	0.091560	0.755857	-0.115051	0.625914	-1.000000	-1.000000	-1.000000	-1.000000	-1.000000	-1.000000	-1.000000	83.655172	0.000000	-1.000000	-1.000000	830688.000000	1772895373.127034
-7982.055000	-12902.805000	4739.130000	-1688.040000	-23352.165000	-17164.980000	-225.450000	-7629.975000	-22.082104	-2.931229	-6.429086	-9.731915	-10.662982	-10.705670	-9.524529	-12.238134	-5.051060	5.127360	0.091560	0.755857	-0.115051	0.625914	-1.000000	-1.000000	-1.000000	-1.000000	-1.000000	-1.000000	-1.000000	83.655172	0.000000	-1.000000	-1.000000	830689.000000	1772895373.131079
-8007.030000	-12922.830000	4717.575000	-1708.290000	-23374.080000	-17184.870000	-257.805000	-7658.685000	-14.658911	2.883977	-2.581347	-5.804214	-3.355700	-7.341066	-4.786892	-11.165173	-5.051060	5.127360	0.091560	0.755857	-0.115051	0.625914	-1.000000	-1.000000	-1.000000	-1.000000	-1.000000	-1.000000	-1.000000	83.655172	0.000000	-1.000000	-1.000000	830690.000000	1772895373.131089
-8032.320000	-12958.380000	4673.835000	-1747.845000	-23397.975000	-17216.190000	-300.420000	-7689.825000	-0.034492	4.809030	-0.067282	-1.561834	3.607334	-2.553988	0.992114	-3.632282	1.449700	6.302380	0.396760	0.758543	-0.119873	0.625120	-1.000000	-1.000000	-1.000000	-1.000000	-1.000000	-1.000000	-1.000000	83.655172	0.000000	-1.000000	-1.000000	830691.000000	1772895373.134881
-8030.745000	-12961.620000	4680.270000	-1745.640000	-23402.070000	-17211.510000	-292.095000	-7686.405000	10.048179	-0.399066	-2.450707	-1.213060	4.869323	-0.351608	3.169461	2.659105	1.449700	6.302380	0.396760	0.758543	-0.119873	0.625120	-1.000000	-1.000000	-1.000000	-1.000000	-1.000000	-1.000000	-1.000000	83.655172	0.000000	-1.000000	-1.000000	830692.000000	1772895373.134889
-8034.480000	-12952.845000	4702.950000	-1734.750000	-23423.220000	-17200.215000	-265.905000	-7678.890000	10.026148	-8.903167	-7.276766	-4.199064	-0.448854	-1.395614	1.790505	3.606663	1.449700	6.302380	0.396760	0.758543	-0.119873	0.625120	-1.000000	-1.000000	-1.000000	-1.000000	-1.000000	-1.000000	-1.000000	83.655172	0.000000	-1.000000	-1.000000	830693.000000	1772895373.138966
-8027.145000	-12950.820000	4698.900000	-1733.085000	-23424.435000	-17197.695000	-259.245000	-7682.850000	4.221588	-12.797012	-8.001737	-5.352151	-7.096358	-2.081737	1.560705	1.328528	1.449700	6.302380	0.396760	0.758543	-0.119873	0.625120	-1.000000	-1.000000	-1.000000	-1.000000	-1.000000	-1.000000	-1.000000	83.655172	0.000000	-1.000000	-1.000000	830694.000000	1772895373.138971
-8004.465000	-12952.755000	4686.210000	-1732.815000	-23421.420000	-17198.730000	-256.815000	-7656.840000	0.700260	-8.151003	-2.164221	-1.188957	-8.238423	0.618611	5.102841	0.826548	1.449700	6.302380	0.396760	0.758543	-0.119873	0.625120	-1.000000	-1.000000	-1.000000	-1.000000	-1.000000	-1.000000	-1.000000	83.655172	0.000000	-1.000000	-1.000000	830695.000000	1772895373.142973
-7984.305000	-12942.630000	4700.250000	-1716.210000	-23399.775000	-17187.030000	-245.745000	-7636.005000	3.164460	1.749945	6.153853	6.350167	-2.305674	5.704916	9.975940	5.002920	1.449700	6.302380	0.396760	0.758543	-0.119873	0.625120	-1.000000	-1.000000	-1.000000	-1.000000	-1.000000	-1.000000	-1.000000	83.655172	0.000000	-1.000000	-1.000000	830696.000000	1772895373.142981
-7991.595000	-12932.595000	4717.935000	-1704.105000	-23381.910000	-17177.355000	-244.305000	-7635.690000	7.762358	10.517698	11.728037	12.489793	6.184112	9.882521	11.838890	10.675630	1.449700	6.302380	0.396760	0.758543	-0.119873	0.625120	-1.000000	-1.000000	-1.000000	-1.000000	-1.000000	-1.000000	-1.000000	83.655172	0.000000	-1.000000	-1.000000	830697.000000	1772895373.147062
-8006.445000	-12945.915000	4699.080000	-1727.280000	-23410.260000	-17194.770000	-257.355000	-7650.990000	7.863298	13.728159	12.251801	13.552627	11.821927	10.630050	8.504368	10.987060	1.449700	6.302380	0.396760	0.758543	-0.119873	0.625120	-1.000000	-1.000000	-1.000000	-1.000000	-1.000000	-1.000000	-1.000000	83.655172	0.000000	-1.000000	-1.000000	830698.000000	1772895373.147102
-7990.425000	-12937.995000	4707.810000	-1721.025000	-23418.855000	-17206.245000	-280.890000	-7675.155000	2.127625	11.064269	8.467481	9.094699	11.979034	7.501243	1.528849	3.451423	1.449700	6.302380	0.396760	0.758543	-0.119873	0.625120	-1.000000	-1.000000	-1.000000	-1.000000	-1.000000	-1.000000	-1.000000	83.655172	0.000000	-1.000000	-1.000000	830699.000000	1772895373.152326
-7969.500000	-12938.490000	4704.345000	-1727.280000	-23417.370000	-17222.490000	-301.905000	-7695.180000	-4.382180	5.677493	3.306468	2.163896	7.448432	1.851389	-5.629446	-7.447324	1.449700	6.302380	0.396760	0.758543	-0.119873	0.625120	-1.000000	-1.000000	-1.000000	-1.000000	-1.000000	-1.000000	-1.000000	83.655172	0.000000	-1.000000	-1.000000	830700.000000	1772895373.152333
-7979.310000	-12942.810000	4686.075000	-1748.340000	-23421.645000	-17232.570000	-301.950000	-7694.505000	-7.048803	0.732304	-1.204422	-4.090138	1.152344	-4.566021	-10.660095	-15.554797	2.304260	6.165040	-1.983800	0.752195	-0.122436	0.622069	-1.000000	-1.000000	-1.000000	-1.000000	-1.000000	-1.000000	-1.000000	83.655172	0.000000	-1.000000	-1.000000	830701.000000	1772895373.154927
-8016.030000	-12931.650000	4703.310000	-1722.195000	-23388.030000	-17190.495000	-249.840000	-7670.520000	-6.498778	-2.827079	-5.292648	-8.522673	-3.368624	-9.465058	-12.092957	-16.879388	2.304260	6.165040	-1.983800	0.752195	-0.122436	0.622069	-1.000000	-1.000000	-1.000000	-1.000000	-1.000000	-1.000000	-1.000000	83.655172	0.000000	-1.000000	-1.000000	830702.000000	1772895373.154934
-8027.055000	-12937.140000	4707.900000	-1710.090000	-23387.445000	-17168.355000	-222.165000	-7663.905000	-6.114168	-4.935276	-8.053494	-9.626148	-3.402154	-9.333719	-7.880693	-10.161508	2.304260	6.165040	-1.983800	0.752195	-0.122436	0.622069	-1.000000	-1.000000	-1.000000	-1.000000	-1.000000	-1.000000	-1.000000	83.655172	0.000000	-1.000000	-1.000000	830703.000000	1772895373.158966
-8019.630000	-12943.620000	4698.675000	-1722.465000	-23401.935000	-17178.345000	-219.600000	-7639.065000	-7.159121	-5.767541	-7.565725	-6.535818	-0.424843	-3.291032	1.428875	1.793779	2.304260	6.165040	-1.983800	0.752195	-0.122436	0.622069	-1.000000	-1.000000	-1.000000	-1.000000	-1.000000	-1.000000	-1.000000	83.655172	0.000000	-1.000000	-1.000000	830704.000000	1772895373.158974
-8020.755000	-12958.380000	4687.650000	-1735.785000	-23409.990000	-17194.905000	-233.370000	-7631.415000	-7.849672	-6.284597	-4.780171	-2.158722	0.159092	3.704978	10.027221	12.663876	2.304260	6.165040	-1.983800	0.752195	-0.122436	0.622069	-1.000000	-1.000000	-1.000000	-1.000000	-1.000000	-1.000000	-1.000000	83.655172	0.000000	-1.000000	-1.000000	830705.000000	1772895373.162993
-8036.865000	-12962.655000	4683.105000	-1740.015000	-23411.700000	-17199.180000	-238.500000	-7654.140000	-6.065384	-7.103857	-2.598294	-0.235021	-4.242138	5.726598	11.591835	16.437704	2.304260	6.165040	-1.983800	0.752195	-0.122436	0.622069	-1.000000	-1.000000	-1.000000	-1.000000	-1.000000	-1.000000	-1.000000	83.655172	0.000000	-1.000000	-1.000000	830706.000000	1772895373.163002
-8038.980000	-12950.955000	4694.535000	-1730.745000	-23401.755000	-17198.010000	-252.945000	-7677.540000	-1.304246	-6.813424	-1.510691	-0.478042	-9.430851	2.478477	5.681571	11.303666	2.304260	6.165040	-1.983800	0.752195	-0.122436	0.622069	-1.000000	-1.000000	-1.000000	-1.000000	-1.000000	-1.000000	-1.000000	83.655172	0.000000	-1.000000	-1.000000	830707.000000	1772895373.166952
-8013.195000	-12931.515000	4717.485000	-1707.390000	-23376.240000	-17181.540000	-250.605000	-7671.735000	5.256734	-3.044418	0.761296	0.500788	-9.016102	-1.239751	-2.367570	1.343129	2.304260	6.165040	-1.983800	0.752195	-0.122436	0.622069	-1.000000	-1.000000	-1.000000	-1.000000	-1.000000	-1.000000	-1.000000	83.655172	0.000000	-1.000000	-1.000000	830708.000000	1772895373.166960
-7990.875000	-12929.805000	4716.495000	-1709.325000	-23373.585000	-17181.180000	-270.765000	-7664.715000	11.521589	4.136284	5.325965	4.408670	-1.572517	-1.339878	-7.121724	-6.445351	2.304260	6.165040	-1.983800	0.752195	-0.122436	0.622069	-1.000000	-1.000000	-1.000000	-1.000000	-1.000000	-1.000000	-1.000000	83.655172	0.000000	-1.000000	-1.000000	830709.000000	1772895373.171010
-8005.545000	-12954.105000	4685.310000	-1742.355000	-23421.825000	-17209.440000	-296.505000	-7671.870000	15.343236	10.696614	9.329475	8.442990	7.198342	1.085247	-8.149667	-8.344400	2.304260	6.165040	-1.983800	0.752195	-0.122436	0.622069	-1.000000	-1.000000	-1.000000	-1.000000	-1.000000	-1.000000	-1.000000	83.655172	0.000000	-1.000000	-1.000000	830710.000000	1772895373.171015
-8029.440000	-12976.785000	4665.915000	-1755.765000	-23431.500000	-17211.735000	-281.430000	-7671.060000	14.834484	11.377836	8.058691	7.472398	9.364259	1.145052	-8.611933	-6.102648	-3.921820	6.729660	-0.900340	0.748777	-0.114441	0.617491	-1.000000	-1.000000	-1.000000	-1.000000	-1.000000	-1.000000	-1.000000	83.655172	0.000000	-1.000000	-1.000000	830711.000000	1772895373.175349
-8029.215000	-12969.180000	4682.295000	-1737.090000	-23410.350000	-17195.130000	-260.730000	-7662.015000	9.027777	5.043264	0.854371	0.387121	3.338480	-3.056579	-9.057386	-3.159654	-3.921820	6.729660	-0.900340	0.748777	-0.114441	0.617491	-1.000000	-1.000000	-1.000000	-1.000000	-1.000000	-1.000000	-1.000000	83.655172	0.000000	-1.000000	-1.000000	830712.000000	1772895373.175356
-8028.360000	-12964.725000	4687.335000	-1737.045000	-23413.095000	-17202.915000	-264.240000	-7664.130000	-0.656818	-3.443196	-6.823650	-7.389224	-4.430358	-7.422619	-6.492732	-1.440224	-3.921820	6.729660	-0.900340	0.748777	-0.114441	0.617491	-1.000000	-1.000000	-1.000000	-1.000000	-1.000000	-1.000000	-1.000000	83.655172	0.000000	-1.000000	-1.000000	830713.000000	1772895373.178904
-8036.865000	-12964.635000	4687.245000	-1738.440000	-23415.660000	-17210.970000	-268.380000	-7682.310000	-10.257140	-7.967685	-9.176222	-9.821536	-7.474803	-7.354533	0.307377	-1.378475	-3.921820	6.729660	-0.900340	0.748777	-0.114441	0.617491	-1.000000	-1.000000	-1.000000	-1.000000	-1.000000	-1.000000	-1.000000	83.655172	0.000000	-1.000000	-1.000000	830714.000000	1772895373.178911
-8031.600000	-12960.090000	4690.395000	-1732.140000	-23403.870000	-17200.215000	-259.515000	-7691.265000	-15.192143	-6.418387	-5.418774	-5.842402	-4.604882	-2.428022	8.795928	-1.908802	-3.921820	6.729660	-0.900340	0.748777	-0.114441	0.617491	-1.000000	-1.000000	-1.000000	-1.000000	-1.000000	-1.000000	-1.000000	83.655172	0.000000	-1.000000	-1.000000	830715.000000	1772895373.182978
-8014.950000	-12956.400000	4686.570000	-1738.755000	-23410.800000	-17208.000000	-262.620000	-7663.230000	-13.069831	-1.208253	0.830809	1.062976	1.426347	4.492589	15.321751	-0.456945	-3.921820	6.729660	-0.900340	0.748777	-0.114441	0.617491	-1.000000	-1.000000	-1.000000	-1.000000	-1.000000	-1.000000	-1.000000	83.655172	0.000000	-1.000000	-1.000000	830716.000000	1772895373.182984
-8009.280000	-12962.115000	4678.110000	-1747.530000	-23418.270000	-17214.165000	-277.830000	-7645.365000	-5.845541	3.350827	4.841745	5.850479	6.035024	9.285983	16.922428	4.583930	-3.921820	6.729660	-0.900340	0.748777	-0.114441	0.617491	-1.000000	-1.000000	-1.000000	-1.000000	-1.000000	-1.000000	-1.000000	83.655172	0.000000	-1.000000	-1.000000	830717.000000	1772895373.186848
-7999.875000	-12961.935000	4681.620000	-1744.065000	-23413.680000	-17210.115000	-289.170000	-7638.030000	1.758081	4.495440	4.567790	5.984816	6.330886	9.340472	12.290198	10.941107	-3.921820	6.729660	-0.900340	0.748777	-0.114441	0.617491	-1.000000	-1.000000	-1.000000	-1.000000	-1.000000	-1.000000	-1.000000	83.655172	0.000000	-1.000000	-1.000000	830718.000000	1772895373.186853
-8010.765000	-12955.950000	4692.600000	-1730.655000	-23398.020000	-17198.505000	-282.825000	-7653.015000	6.643477	3.053103	2.340058	3.601938	4.187961	5.825107	3.048509	13.594078	-3.921820	6.729660	-0.900340	0.748777	-0.114441	0.617491	-1.000000	-1.000000	-1.000000	-1.000000	-1.000000	-1.000000	-1.000000	83.655172	0.000000	-1.000000	-1.000000	830719.000000	1772895373.191075
-8003.340000	-12933.810000	4716.000000	-1708.020000	-23375.205000	-17180.955000	-253.890000	-7647.480000	8.549252	1.949379	1.783933	2.308799	3.211385	1.796322	-6.725895	9.228470	-3.921820	6.729660	-0.900340	0.748777	-0.114441	0.617491	-1.000000	-1.000000	-1.000000	-1.000000	-1.000000	-1.000000	-1.000000	83.655172	0.000000	-1.000000	-1.000000	830720.000000	1772895373.191080
-8001.630000	-12926.430000	4722.660000	-1702.575000	-23372.505000	-17170.515000	-214.245000	-7635.600000	7.871401	2.663800	3.544549	2.912440	3.815481	-0.855173	-12.286148	-0.571322	-8.484560	6.302380	-2.105880	0.751219	-0.109497	0.614256	-1.000000	-1.000000	-1.000000	-1.000000	-1.000000	-1.000000	-1.000000	83.655172	0.000000	-1.000000	-1.000000	830721.000000	1772895373.195039
-7990.290000	-12920.850000	4726.845000	-1698.345000	-23373.855000	-17166.735000	-204.300000	-7634.880000	4.929161	3.770833	5.011028	3.443613	3.500729	-1.764274	-10.639281	-10.309064	-8.484560	6.302380	-2.105880	0.751219	-0.109497	0.614256	-1.000000	-1.000000	-1.000000	-1.000000	-1.000000	-1.000000	-1.000000	83.655172	0.000000	-1.000000	-1.000000	830722.000000	1772895373.195047
-7992.675000	-12936.780000	4709.070000	-1715.805000	-23384.565000	-17185.455000	-237.015000	-7656.075000	0.914391	2.812021	3.407023	1.821474	0.372105	-1.751938	-3.837304	-14.821268	-8.484560	6.302380	-2.105880	0.751219	-0.109497	0.614256	-1.000000	-1.000000	-1.000000	-1.000000	-1.000000	-1.000000	-1.000000	83.655172	0.000000	-1.000000	-1.000000	830723.000000	1772895373.198980
-8008.515000	-12961.305000	4685.220000	-1739.610000	-23403.420000	-17202.780000	-259.155000	-7668.675000	-2.932897	-1.589899	-2.021061	-2.714004	-5.247544	-2.685291	1.593667	-12.954339	-8.484560	6.302380	-2.105880	0.751219	-0.109497	0.614256	-1.000000	-1.000000	-1.000000	-1.000000	-1.000000	-1.000000	-1.000000	83.655172	0.000000	-1.000000	-1.000000	830724.000000	1772895373.198987
-8037.720000	-12981.465000	4673.475000	-1746.900000	-23405.445000	-17207.730000	-276.840000	-7689.600000	-6.983775	-8.668858	-9.481171	-8.921694	-11.100266	-5.424581	1.102794	-7.842167	-8.484560	6.302380	-2.105880	0.751219	-0.109497	0.614256	-1.000000	-1.000000	-1.000000	-1.000000	-1.000000	-1.000000	-1.000000	83.655172	0.000000	-1.000000	-1.000000	830725.000000	1772895373.202914
-8029.890000	-12970.080000	4680.495000	-1738.710000	-23408.145000	-17203.995000	-278.280000	-7687.575000	-11.420614	-14.712367	-14.762777	-13.110906	-13.778613	-8.011853	-3.436941	-3.512596	-8.484560	6.302380	-2.105880	0.751219	-0.109497	0.614256	-1.000000	-1.000000	-1.000000	-1.000000	-1.000000	-1.000000	-1.000000	83.655172	0.000000	-1.000000	-1.000000	830726.000000	1772895373.202923
-8025.390000	-12958.920000	4682.835000	-1741.365000	-23414.445000	-17206.965000	-269.370000	-7671.420000	-13.347424	-14.626408	-13.659124	-11.590619	-11.001483	-7.660274	-6.493722	-0.680180	-8.484560	6.302380	-2.105880	0.751219	-0.109497	0.614256	-1.000000	-1.000000	-1.000000	-1.000000	-1.000000	-1.000000	-1.000000	83.655172	0.000000	-1.000000	-1.000000	830727.000000	1772895373.206873
-8031.825000	-12969.270000	4675.770000	-1746.810000	-23408.685000	-17210.880000	-272.340000	-7669.440000	-9.191174	-6.850611	-6.043922	-4.718999	-3.898009	-4.102825	-4.941026	2.876057	-8.484560	6.302380	-2.105880	0.751219	-0.109497	0.614256	-1.000000	-1.000000	-1.000000	-1.000000	-1.000000	-1.000000	-1.000000	83.655172	0.000000	-1.000000	-1.000000	830728.000000	1772895373.206881
-8037.270000	-12961.890000	4685.445000	-1738.890000	-23402.205000	-17199.090000	-264.150000	-7661.385000	0.168500	4.177675	3.562061	3.189305	3.847934	0.408915	-0.770464	7.720287	-8.484560	6.302380	-2.105880	0.751219	-0.109497	0.614256	-1.000000	-1.000000	-1.000000	-1.000000	-1.000000	-1.000000	-1.000000	83.655172	0.000000	-1.000000	-1.000000	830729.000000	1772895373.210813
-8037.450000	-12953.745000	4693.275000	-1734.030000	-23406.345000	-17198.595000	-273.330000	-7675.740000	9.483009	12.270227	10.295618	8.269237	8.963562	3.917423	2.090936	11.080146	-8.484560	6.302380	-2.105880	0.751219	-0.109497	0.614256	-1.000000	-1.000000	-1.000000	-1.000000	-1.000000	-1.000000	-1.000000	83.655172	0.000000	-1.000000	-1.000000	830730.000000	1772895373.210818
-8019.900000	-12951.495000	4686.300000	-1742.580000	-23427.045000	-17209.530000	-283.860000	-7677.900000	14.207705	14.560509	12.313451	9.602876	10.066019	5.890262	2.229355	10.276469	-5.936140	5.798800	-3.464020	0.749083	-0.116089	0.616026	-1.000000	-1.000000	-1.000000	-1.000000	-1.000000	-1.000000	-1.000000	83.655172	0.000000	-1.000000	-1.000000	830731.000000	1772895373.215074
-8017.290000	-12951.225000	4688.325000	-1738.980000	-23419.755000	-17205.750000	-267.795000	-7669.890000	13.720251	11.971482	10.464494	8.300687	7.683388	6.525007	1.918958	6.226643	-5.936140	5.798800	-3.464020	0.749083	-0.116089	0.616026	-1.000000	-1.000000	-1.000000	-1.000000	-1.000000	-1.000000	-1.000000	83.655172	0.000000	-1.000000	-1.000000	830732.000000	1772895373.215082
-8023.275000	-12959.550000	4681.710000	-1744.920000	-23409.945000	-17212.545000	-258.975000	-7669.845000	9.877812	7.061130	6.814766	6.101955	4.270217	6.321364	4.402583	2.188025	-5.936140	5.798800	-3.464020	0.749083	-0.116089	0.616026	-1.000000	-1.000000	-1.000000	-1.000000	-1.000000	-1.000000	-1.000000	83.655172	0.000000	-1.000000	-1.000000	830733.000000	1772895373.218855
-8027.145000	-12965.940000	4674.015000	-1752.165000	-23406.075000	-17218.440000	-265.725000	-7673.040000	4.498119	1.850385	2.901794	3.825832	2.363065	5.271007	9.508795	-0.171801	-5.936140	5.798800	-3.464020	0.749083	-0.116089	0.616026	-1.000000	-1.000000	-1.000000	-1.000000	-1.000000	-1.000000	-1.000000	83.655172	0.000000	-1.000000	-1.000000	830734.000000	1772895373.218861
-8028.720000	-12964.995000	4679.865000	-1741.680000	-23399.280000	-17214.570000	-274.905000	-7678.305000	-1.309051	-2.949736	-0.926169	1.138327	2.244589	2.860706	12.842804	-1.826066	-5.936140	5.798800	-3.464020	0.749083	-0.116089	0.616026	-1.000000	-1.000000	-1.000000	-1.000000	-1.000000	-1.000000	-1.000000	83.655172	0.000000	-1.000000	-1.000000	830735.000000	1772895373.225644
-8014.455000	-12955.680000	4696.110000	-1721.520000	-23391.315000	-17193.510000	-260.055000	-7658.010000	-6.217515	-6.758600	-4.044292	-1.504324	2.490569	-0.269298	10.258507	-3.912964	-5.936140	5.798800	-3.464020	0.749083	-0.116089	0.616026	-1.000000	-1.000000	-1.000000	-1.000000	-1.000000	-1.000000	-1.000000	83.655172	0.000000	-1.000000	-1.000000	830736.000000	1772895373.225653
-8017.425000	-12953.340000	4704.975000	-1709.235000	-23360.940000	-17167.365000	-247.500000	-7648.875000	-8.339641	-8.311192	-5.162977	-2.695123	1.857437	-2.139664	2.226247	-5.622471	-5.936140	5.798800	-3.464020	0.749083	-0.116089	0.616026	-1.000000	-1.000000	-1.000000	-1.000000	-1.000000	-1.000000	-1.000000	83.655172	0.000000	-1.000000	-1.000000	830737.000000	1772895373.231197
-8006.085000	-12927.960000	4725.270000	-1693.800000	-23319.405000	-17146.215000	-241.065000	-7673.580000	-6.918666	-6.781527	-3.977252	-2.156406	0.700859	-1.563132	-6.979173	-5.880972	-5.936140	5.798800	-3.464020	0.749083	-0.116089	0.616026	-1.000000	-1.000000	-1.000000	-1.000000	-1.000000	-1.000000	-1.000000	83.655172	0.000000	-1.000000	-1.000000	830738.000000	1772895373.231205
-8013.285000	-12936.150000	4709.520000	-1705.320000	-23294.340000	-17155.890000	-261.630000	-7713.765000	-3.483986	-2.958351	-1.840058	-1.219303	0.708751	0.391472	-13.135155	-5.663740	-5.936140	5.798800	-3.464020	0.749083	-0.116089	0.616026	-1.000000	-1.000000	-1.000000	-1.000000	-1.000000	-1.000000	-1.000000	83.655172	0.000000	-1.000000	-1.000000	830739.000000	1772895373.231214
-8004.870000	-12953.565000	4687.875000	-1729.890000	-23355.765000	-17182.485000	-267.390000	-7687.305000	-0.646103	0.714503	-0.881867	-1.652841	1.384833	1.024889	-14.362284	-5.774734	-5.936140	5.798800	-3.464020	0.749083	-0.116089	0.616026	-1.000000	-1.000000	-1.000000	-1.000000	-1.000000	-1.000000	-1.000000	83.655172	0.000000	-1.000000	-1.000000	830740.000000	1772895373.231218
-7973.595000	-12952.890000	4692.780000	-1742.490000	-23466.780000	-17215.335000	-259.515000	-7662.105000	0.704987	2.001104	-2.029960	-4.184752	-2.565547	-1.950699	-10.995724	-4.081570	0.198380	4.852680	-3.982860	0.747068	-0.123962	0.618224	-1.000000	-1.000000	-1.000000	-1.000000	-1.000000	-1.000000	-1.000000	83.655172	0.000000	-1.000000	-1.000000	830741.000000	1772895373.236345
-7973.595000	-12931.515000	4719.645000	-1709.820000	-23408.415000	-17191.305000	-244.755000	-7676.820000	2.088350	1.556446	-3.208047	-6.772998	-13.940266	-7.445667	-4.399886	1.240079	0.198380	4.852680	-3.982860	0.747068	-0.123962	0.618224	-1.000000	-1.000000	-1.000000	-1.000000	-1.000000	-1.000000	-1.000000	83.655172	0.000000	-1.000000	-1.000000	830742.000000	1772895373.236353
-7983.090000	-12899.205000	4748.265000	-1675.440000	-23361.345000	-17162.775000	-238.770000	-7666.470000	3.893905	2.213980	-1.136462	-5.372071	-23.766949	-10.295984	3.631843	7.770178	0.198380	4.852680	-3.982860	0.747068	-0.123962	0.618224	-1.000000	-1.000000	-1.000000	-1.000000	-1.000000	-1.000000	-1.000000	83.655172	0.000000	-1.000000	-1.000000	830743.000000	1772895373.241719
-8017.605000	-12928.230000	4719.375000	-1709.370000	-23414.580000	-17187.930000	-266.625000	-7651.125000	3.574538	4.568868	3.795739	0.639173	-20.731981	-6.890623	9.970086	11.428467	0.198380	4.852680	-3.982860	0.747068	-0.123962	0.618224	-1.000000	-1.000000	-1.000000	-1.000000	-1.000000	-1.000000	-1.000000	83.655172	0.000000	-1.000000	-1.000000	830744.000000	1772895373.241728
-8052.885000	-12943.080000	4705.470000	-1721.070000	-23407.695000	-17195.310000	-292.590000	-7652.700000	-1.301173	5.114963	6.435703	5.719656	-6.456884	-0.431557	10.286309	10.159741	0.198380	4.852680	-3.982860	0.747068	-0.123962	0.618224	-1.000000	-1.000000	-1.000000	-1.000000	-1.000000	-1.000000	-1.000000	83.655172	0.000000	-1.000000	-1.000000	830745.000000	1772895373.242982
-8047.980000	-12960.000000	4684.320000	-1745.685000	-23441.760000	-17216.145000	-290.520000	-7672.230000	-9.118816	0.637760	2.548339	4.280519	7.989662	2.881491	3.149965	4.181002	0.198380	4.852680	-3.982860	0.747068	-0.123962	0.618224	-1.000000	-1.000000	-1.000000	-1.000000	-1.000000	-1.000000	-1.000000	83.655172	0.000000	-1.000000	-1.000000	830746.000000	1772895373.242987
-8032.005000	-12954.825000	4690.980000	-1739.925000	-23442.345000	-17210.520000	-265.455000	-7668.135000	-13.965066	-7.299153	-6.024775	-2.813629	13.943592	0.994643	-6.273056	-3.613544	0.198380	4.852680	-3.982860	0.747068	-0.123962	0.618224	-1.000000	-1.000000	-1.000000	-1.000000	-1.000000	-1.000000	-1.000000	83.655172	0.000000	-1.000000	-1.000000	830747.000000	1772895373.246980
-8035.515000	-12961.890000	4686.120000	-1743.480000	-23441.355000	-17215.425000	-261.765000	-7659.585000	-10.862905	-13.177382	-12.495055	-9.051996	11.196167	-2.253776	-9.758245	-8.243246	0.198380	4.852680	-3.982860	0.747068	-0.123962	0.618224	-1.000000	-1.000000	-1.000000	-1.000000	-1.000000	-1.000000	-1.000000	83.655172	0.000000	-1.000000	-1.000000	830748.000000	1772895373.246986
-8027.460000	-12974.220000	4668.075000	-1764.675000	-23464.710000	-17233.695000	-267.570000	-7664.355000	-1.026523	-12.248173	-11.285794	-8.534374	7.023745	-1.747295	-4.360403	-7.480524	0.198380	4.852680	-3.982860	0.747068	-0.123962	0.618224	-1.000000	-1.000000	-1.000000	-1.000000	-1.000000	-1.000000	-1.000000	83.655172	0.000000	-1.000000	-1.000000	830749.000000	1772895373.250916
-8012.835000	-12962.925000	4678.065000	-1752.750000	-23443.920000	-17223.075000	-262.395000	-7665.930000	9.630586	-4.611639	-3.174687	-1.339676	8.237833	3.513478	4.877726	-4.124151	0.198380	4.852680	-3.982860	0.747068	-0.123962	0.618224	-1.000000	-1.000000	-1.000000	-1.000000	-1.000000	-1.000000	-1.000000	83.655172	0.000000	-1.000000	-1.000000	830750.000000	1772895373.250921
-8013.645000	-12946.275000	4695.705000	-1738.215000	-23425.470000	-17210.205000	-257.400000	-7665.390000	15.931506	5.397962	6.446404	7.452723	13.468305	9.958442	10.848551	-1.418099	5.279960	5.630940	-4.349100	0.748716	-0.121948	0.619078	-1.000000	-1.000000	-1.000000	-1.000000	-1.000000	-1.000000	-1.000000	83.655172	0.000000	-1.000000	-1.000000	830751.000000	1772895373.254946
-8010.405000	-12924.630000	4722.795000	-1711.350000	-23396.130000	-17188.245000	-242.820000	-7667.325000	16.233047	12.972570	12.948693	12.867676	15.747626	13.158071	10.690454	-0.118005	5.279960	5.630940	-4.349100	0.748716	-0.121948	0.619078	-1.000000	-1.000000	-1.000000	-1.000000	-1.000000	-1.000000	-1.000000	83.655172	0.000000	-1.000000	-1.000000	830752.000000	1772895373.254952
-8005.590000	-12935.070000	4712.850000	-1713.960000	-23393.430000	-17188.065000	-246.465000	-7665.435000	12.137835	15.709578	14.922090	13.546592	11.752881	11.552059	6.458162	-0.049720	5.279960	5.630940	-4.349100	0.748716	-0.121948	0.619078	-1.000000	-1.000000	-1.000000	-1.000000	-1.000000	-1.000000	-1.000000	83.655172	0.000000	-1.000000	-1.000000	830753.000000	1772895373.258987
-8011.170000	-12961.485000	4684.680000	-1735.740000	-23409.315000	-17201.700000	-259.740000	-7667.640000	6.455491	13.174641	12.322851	10.337538	3.273751	6.191512	1.279975	-0.585409	5.279960	5.630940	-4.349100	0.748716	-0.121948	0.619078	-1.000000	-1.000000	-1.000000	-1.000000	-1.000000	-1.000000	-1.000000	83.655172	0.000000	-1.000000	-1.000000	830754.000000	1772895373.258992
-8010.720000	-12955.725000	4690.530000	-1730.835000	-23405.760000	-17199.630000	-265.725000	-7668.045000	0.460006	5.871578	5.333170	4.016818	-6.981865	-1.270000	-3.802099	-0.266095	5.279960	5.630940	-4.349100	0.748716	-0.121948	0.619078	-1.000000	-1.000000	-1.000000	-1.000000	-1.000000	-1.000000	-1.000000	83.655172	0.000000	-1.000000	-1.000000	830755.000000	1772895373.262885
-8015.805000	-12956.355000	4688.955000	-1733.940000	-23407.605000	-17200.215000	-263.520000	-7667.145000	-5.972628	-3.492619	-3.662288	-3.632155	-15.843765	-8.396702	-8.578188	1.797004	5.279960	5.630940	-4.349100	0.748716	-0.121948	0.619078	-1.000000	-1.000000	-1.000000	-1.000000	-1.000000	-1.000000	-1.000000	83.655172	0.000000	-1.000000	-1.000000	830756.000000	1772895373.262894
-8025.075000	-12949.380000	4695.930000	-1728.945000	-23402.340000	-17199.315000	-255.870000	-7671.060000	-12.014416	-10.268054	-10.149550	-9.309614	-19.536154	-12.083423	-11.263825	4.359994	5.279960	5.630940	-4.349100	0.748716	-0.121948	0.619078	-1.000000	-1.000000	-1.000000	-1.000000	-1.000000	-1.000000	-1.000000	83.655172	0.000000	-1.000000	-1.000000	830757.000000	1772895373.266937
-7991.055000	-12930.480000	4713.345000	-1711.395000	-23380.740000	-17186.040000	-251.190000	-7654.320000	-15.274101	-10.938796	-10.658508	-10.070030	-15.280207	-10.299555	-9.616109	5.307405	5.279960	5.630940	-4.349100	0.748716	-0.121948	0.619078	-1.000000	-1.000000	-1.000000	-1.000000	-1.000000	-1.000000	-1.000000	83.655172	0.000000	-1.000000	-1.000000	830758.000000	1772895373.266946
-7989.570000	-12936.240000	4718.430000	-1699.020000	-23358.870000	-17168.220000	-254.790000	-7652.340000	-13.355267	-6.112470	-5.704621	-5.886795	-4.439794	-3.970036	-4.013435	4.267338	5.279960	5.630940	-4.349100	0.748716	-0.121948	0.619078	-1.000000	-1.000000	-1.000000	-1.000000	-1.000000	-1.000000	-1.000000	83.655172	0.000000	-1.000000	-1.000000	830759.000000	1772895373.270993
-8022.105000	-12954.285000	4714.065000	-1697.940000	-23361.210000	-17162.730000	-263.025000	-7676.235000	-6.841218	-0.794664	0.039883	-0.551234	6.147411	2.816606	2.139668	1.924991	5.279960	5.630940	-4.349100	0.748716	-0.121948	0.619078	-1.000000	-1.000000	-1.000000	-1.000000	-1.000000	-1.000000	-1.000000	83.655172	0.000000	-1.000000	-1.000000	830760.000000	1772895373.271000
-8041.455000	-12929.805000	4733.325000	-1689.840000	-23372.775000	-17156.520000	-255.420000	-7684.245000	0.059722	0.641052	2.192349	1.745866	9.494682	5.816613	5.549326	-1.785231	0.000000	5.661460	-4.013380	0.750853	-0.112182	0.615904	-1.000000	-1.000000	-1.000000	-1.000000	-1.000000	-1.000000	-1.000000	83.655172	0.000000	-1.000000	-1.000000	830761.000000	1772895373.279034
-8019.225000	-12917.790000	4724.685000	-1712.970000	-23390.640000	-17180.280000	-265.545000	-7672.590000	4.161490	-0.267496	1.116712	0.354487	4.543584	3.861047	5.792597	-6.000901	0.000000	5.661460	-4.013380	0.750853	-0.112182	0.615904	-1.000000	-1.000000	-1.000000	-1.000000	-1.000000	-1.000000	-1.000000	83.655172	0.000000	-1.000000	-1.000000	830762.000000	1772895373.279044
-8002.710000	-12929.220000	4704.885000	-1730.430000	-23401.125000	-17192.520000	-251.775000	-7646.940000	6.448716	0.594710	-0.274805	-2.595132	-3.969408	-1.219570	4.602810	-7.499043	0.000000	5.661460	-4.013380	0.750853	-0.112182	0.615904	-1.000000	-1.000000	-1.000000	-1.000000	-1.000000	-1.000000	-1.000000	83.655172	0.000000	-1.000000	-1.000000	830763.000000	1772895373.279762
