Channel1	Channel2	Channel3	Channel4	Channel5	Channel6	Channel7	Channel8	FilteredChannel1	FilteredChannel2	FilteredChannel3	FilteredChannel4	FilteredChannel5	FilteredChannel6	FilteredChannel7	FilteredChannel8	GyroX	GyroY	GyroZ	AccX	AccY	AccZ	PPG1	PPG2	rawPPG1	rawPPG2	rawPPG3	Hr	Hrv	Battery	Trigger	PhysicalTrigger	AutoTrigger	NumMeasurements	Timestamp
15653.025000	18435.780000	25865.370000	37907.280000	12137.715000	-4029.885000	-7382.205000	-1807.515000	7.817320	7.468987	7.592006	6.290558	5.826975	5.863106	1.794067	2.758986	-3.830260	5.569900	-2.380560	-0.873228	-0.261718	0.338500	-1.000000	-1.000000	-1.000000	-1.000000	-1.000000	-1.000000	-1.000000	85.034483	0.000000	-1.000000	-1.000000	775355.000000	1769635361.687429
15658.380000	18436.140000	25866.585000	37908.810000	12140.325000	-4026.465000	-7384.635000	-1800.810000	5.288209	4.346438	4.754274	4.030308	3.588898	2.894039	-1.375777	1.422173	-3.830260	5.569900	-2.380560	-0.873228	-0.261718	0.338500	-1.000000	-1.000000	-1.000000	-1.000000	-1.000000	-1.000000	-1.000000	85.034483	0.000000	-1.000000	-1.000000	775356.000000	1769635361.687443
15642.855000	18442.755000	25877.835000	37919.340000	12149.145000	-4021.155000	-7385.715000	-1818.720000	1.409624	0.117072	0.742561	0.879901	0.624581	-0.414099	-3.065553	0.635312	-3.906560	5.966660	-3.006220	-0.871153	-0.265075	0.340209	-1.000000	-1.000000	-1.000000	-1.000000	-1.000000	-1.000000	-1.000000	85.034483	0.000000	-1.000000	-1.000000	775357.000000	1769635361.691320
15637.815000	18451.845000	25887.735000	37929.105000	12161.205000	-4005.720000	-7375.320000	-1826.640000	-1.785036	-1.823024	-1.038515	-0.259437	-0.409749	-1.777423	-3.949691	0.035192	-3.906560	5.966660	-3.006220	-0.871153	-0.265075	0.340209	-1.000000	-1.000000	-1.000000	-1.000000	-1.000000	-1.000000	-1.000000	85.034483	0.000000	-1.000000	-1.000000	775358.000000	1769635361.691332
15646.320000	18453.825000	25887.780000	37927.485000	12161.070000	-4003.965000	-7372.170000	-1819.890000	-3.318152	-0.407618	0.446699	1.362751	1.174834	-0.512916	-3.989152	-1.114589	-3.906560	5.966660	-3.006220	-0.871153	-0.265075	0.340209	-1.000000	-1.000000	-1.000000	-1.000000	-1.000000	-1.000000	-1.000000	85.034483	0.000000	-1.000000	-1.000000	775359.000000	1769635361.695326
15649.560000	18447.570000	25881.390000	37919.835000	12151.935000	-4016.205000	-7379.730000	-1812.465000	-3.022984	1.947245	2.505328	3.135165	2.980828	1.609188	-2.187231	-1.777473	-3.906560	5.966660	-3.006220	-0.871153	-0.265075	0.340209	-1.000000	-1.000000	-1.000000	-1.000000	-1.000000	-1.000000	-1.000000	85.034483	0.000000	-1.000000	-1.000000	775360.000000	1769635361.695333
15649.695000	18438.705000	25873.200000	37913.580000	12146.085000	-4020.030000	-7381.080000	-1806.120000	-2.041825	1.499151	1.315338	1.592008	1.691468	1.614296	0.996851	-0.913276	-3.906560	5.966660	-3.006220	-0.871153	-0.265075	0.340209	-1.000000	-1.000000	-1.000000	-1.000000	-1.000000	-1.000000	-1.000000	85.034483	0.000000	-1.000000	-1.000000	775361.000000	1769635361.700784
15636.510000	18422.640000	25856.505000	37898.370000	12134.880000	-4022.370000	-7368.570000	-1810.755000	-1.644919	-2.674860	-3.689477	-3.490660	-3.001435	-1.296334	3.501461	0.848047	-3.906560	5.966660	-3.006220	-0.871153	-0.265075	0.340209	-1.000000	-1.000000	-1.000000	-1.000000	-1.000000	-1.000000	-1.000000	85.034483	0.000000	-1.000000	-1.000000	775362.000000	1769635361.700796
15631.785000	18422.145000	25858.035000	37900.530000	12135.285000	-4025.115000	-7367.580000	-1820.475000	-2.129150	-7.818321	-9.312456	-8.926500	-8.085231	-4.904115	4.312643	1.927433	-3.906560	5.966660	-3.006220	-0.871153	-0.265075	0.340209	-1.000000	-1.000000	-1.000000	-1.000000	-1.000000	-1.000000	-1.000000	85.034483	0.000000	-1.000000	-1.000000	775363.000000	1769635361.711900
15646.860000	18441.270000	25878.735000	37921.995000	12152.475000	-4023.315000	-7397.145000	-1820.070000	-2.832896	-9.909505	-11.278979	-10.773202	-9.914031	-6.502879	3.471897	1.183527	-3.906560	5.966660	-3.006220	-0.871153	-0.265075	0.340209	-1.000000	-1.000000	-1.000000	-1.000000	-1.000000	-1.000000	-1.000000	85.034483	0.000000	-1.000000	-1.000000	775364.000000	1769635361.711912
15655.320000	18452.025000	25891.155000	37935.630000	12168.405000	-4007.205000	-7385.895000	-1814.130000	-2.118834	-6.326442	-7.026443	-6.722277	-6.437912	-4.827099	0.778202	-0.802819	-3.906560	5.966660	-3.006220	-0.871153	-0.265075	0.340209	-1.000000	-1.000000	-1.000000	-1.000000	-1.000000	-1.000000	-1.000000	85.034483	0.000000	-1.000000	-1.000000	775365.000000	1769635361.711925
15671.070000	18469.935000	25908.795000	37951.470000	12185.910000	-3983.130000	-7348.905000	-1803.645000	1.325920	1.879194	1.983440	1.812909	1.216247	-0.267569	-2.462728	-1.817601	-3.906560	5.966660	-3.006220	-0.871153	-0.265075	0.340209	-1.000000	-1.000000	-1.000000	-1.000000	-1.000000	-1.000000	-1.000000	85.034483	0.000000	-1.000000	-1.000000	775366.000000	1769635361.711930
15676.515000	18473.355000	25908.210000	37945.935000	12178.170000	-3989.970000	-7356.330000	-1796.760000	6.568689	10.307446	10.861888	10.096461	8.886830	5.084118	-3.589195	-0.267054	-3.113040	5.966660	-1.754900	-0.872129	-0.260986	0.341003	-1.000000	-1.000000	-1.000000	-1.000000	-1.000000	-1.000000	-1.000000	85.034483	0.000000	-1.000000	-1.000000	775367.000000	1769635361.711971
15647.805000	18435.420000	25868.070000	37907.505000	12142.710000	-4018.725000	-7375.185000	-1804.770000	9.836370	13.681380	14.115339	12.828792	11.540872	7.680083	-2.320681	2.655014	-3.113040	5.966660	-1.754900	-0.872129	-0.260986	0.341003	-1.000000	-1.000000	-1.000000	-1.000000	-1.000000	-1.000000	-1.000000	85.034483	0.000000	-1.000000	-1.000000	775368.000000	1769635361.711983
15638.580000	18420.480000	25852.725000	37892.835000	12129.435000	-4030.065000	-7379.865000	-1807.155000	6.972785	8.794877	8.734731	7.381484	6.618523	4.991701	-0.877537	3.805752	-3.113040	5.966660	-1.754900	-0.872129	-0.260986	0.341003	-1.000000	-1.000000	-1.000000	-1.000000	-1.000000	-1.000000	-1.000000	85.034483	0.000000	-1.000000	-1.000000	775369.000000	1769635361.719285
15641.955000	18424.980000	25856.865000	37896.255000	12130.200000	-4033.350000	-7386.975000	-1810.755000	-1.493316	-1.855099	-2.327333	-3.093496	-2.928541	-1.489806	-0.847191	1.468001	-3.113040	5.966660	-1.754900	-0.872129	-0.260986	0.341003	-1.000000	-1.000000	-1.000000	-1.000000	-1.000000	-1.000000	-1.000000	85.034483	0.000000	-1.000000	-1.000000	775370.000000	1769635361.719319
15643.125000	18429.480000	25861.050000	37898.685000	12129.705000	-4039.470000	-7400.115000	-1815.300000	-9.620007	-10.794101	-11.260730	-11.166349	-10.343221	-7.254598	-2.213091	-2.794084	-3.113040	5.966660	-1.754900	-0.872129	-0.260986	0.341003	-1.000000	-1.000000	-1.000000	-1.000000	-1.000000	-1.000000	-1.000000	85.034483	0.000000	-1.000000	-1.000000	775371.000000	1769635361.719333
15636.870000	18428.580000	25864.065000	37903.455000	12133.080000	-4040.325000	-7403.760000	-1823.805000	-12.067662	-12.403331	-12.426085	-11.746833	-11.012886	-8.706203	-3.684516	-5.952109	-3.113040	5.966660	-1.754900	-0.872129	-0.260986	0.341003	-1.000000	-1.000000	-1.000000	-1.000000	-1.000000	-1.000000	-1.000000	85.034483	0.000000	-1.000000	-1.000000	775372.000000	1769635361.719339
15637.320000	18432.720000	25873.020000	37917.045000	12146.805000	-4025.205000	-7388.010000	-1823.715000	-8.616821	-7.299901	-6.596146	-5.724276	-5.544584	-5.264302	-2.980806	-6.267538	-3.113040	5.966660	-1.754900	-0.872129	-0.260986	0.341003	-1.000000	-1.000000	-1.000000	-1.000000	-1.000000	-1.000000	-1.000000	85.034483	0.000000	-1.000000	-1.000000	775373.000000	1769635361.723263
15629.130000	18417.780000	25854.885000	37899.855000	12134.835000	-4027.860000	-7384.140000	-1819.440000	-2.594597	-0.242513	1.134672	2.065639	1.853583	0.786406	0.757829	-3.892057	-3.113040	5.966660	-1.754900	-0.872129	-0.260986	0.341003	-1.000000	-1.000000	-1.000000	-1.000000	-1.000000	-1.000000	-1.000000	85.034483	0.000000	-1.000000	-1.000000	775374.000000	1769635361.723274
15636.150000	18427.095000	25862.445000	37904.130000	12136.050000	-4041.090000	-7425.990000	-1817.910000	2.645903	4.235045	5.716962	6.694861	6.570419	5.423522	4.300581	-0.073677	-3.113040	5.966660	-1.754900	-0.872129	-0.260986	0.341003	-1.000000	-1.000000	-1.000000	-1.000000	-1.000000	-1.000000	-1.000000	85.034483	0.000000	-1.000000	-1.000000	775375.000000	1769635361.727359
15653.880000	18445.905000	25879.275000	37917.810000	12147.075000	-4036.050000	-7427.790000	-1811.700000	5.937050	5.381867	6.213951	7.025674	7.202061	6.150619	3.643787	3.574957	-3.113040	5.966660	-1.754900	-0.872129	-0.260986	0.341003	-1.000000	-1.000000	-1.000000	-1.000000	-1.000000	-1.000000	-1.000000	85.034483	0.000000	-1.000000	-1.000000	775376.000000	1769635361.727381
15657.345000	18449.145000	25882.965000	37921.725000	12152.295000	-4012.830000	-7367.130000	-1803.240000	8.149502	5.949224	5.791931	6.032343	6.261125	4.828173	0.717228	5.939483	-5.279960	6.516020	-2.197440	-0.874326	-0.257690	0.339782	-1.000000	-1.000000	-1.000000	-1.000000	-1.000000	-1.000000	-1.000000	85.034483	0.000000	-1.000000	-1.000000	775377.000000	1769635361.731249
15659.415000	18453.465000	25889.670000	37930.410000	12160.890000	-3995.100000	-7327.980000	-1798.245000	9.594197	7.616160	6.739943	6.186826	6.172366	5.034285	1.886224	6.681165	-5.279960	6.516020	-2.197440	-0.874326	-0.257690	0.339782	-1.000000	-1.000000	-1.000000	-1.000000	-1.000000	-1.000000	-1.000000	85.034483	0.000000	-1.000000	-1.000000	775378.000000	1769635361.731258
15649.155000	18444.285000	25880.310000	37921.320000	12149.595000	-4008.645000	-7336.215000	-1806.075000	8.735920	8.465108	7.490210	6.411457	6.165299	6.919602	8.580721	5.654933	-5.279960	6.516020	-2.197440	-0.874326	-0.257690	0.339782	-1.000000	-1.000000	-1.000000	-1.000000	-1.000000	-1.000000	-1.000000	85.034483	0.000000	-1.000000	-1.000000	775379.000000	1769635361.735515
15633.585000	18425.925000	25862.805000	37903.905000	12130.515000	-4036.680000	-7378.380000	-1820.340000	4.118133	5.433136	4.852746	3.835484	3.589019	6.661126	13.923349	2.738951	-5.279960	6.516020	-2.197440	-0.874326	-0.257690	0.339782	-1.000000	-1.000000	-1.000000	-1.000000	-1.000000	-1.000000	-1.000000	85.034483	0.000000	-1.000000	-1.000000	775380.000000	1769635361.735524
15627.465000	18420.255000	25858.260000	37900.215000	12132.270000	-4026.420000	-7368.120000	-1822.140000	-3.397024	-2.019908	-2.185892	-2.723887	-2.666564	1.325093	10.511077	-1.504283	-5.279960	6.516020	-2.197440	-0.874326	-0.257690	0.339782	-1.000000	-1.000000	-1.000000	-1.000000	-1.000000	-1.000000	-1.000000	85.034483	0.000000	-1.000000	-1.000000	775381.000000	1769635361.739437
15628.365000	18417.960000	25851.960000	37891.530000	12124.935000	-4027.095000	-7359.300000	-1819.125000	-10.392081	-10.534229	-10.691246	-10.820350	-10.205659	-7.141788	-1.175147	-5.394896	-5.279960	6.516020	-2.197440	-0.874326	-0.257690	0.339782	-1.000000	-1.000000	-1.000000	-1.000000	-1.000000	-1.000000	-1.000000	85.034483	0.000000	-1.000000	-1.000000	775382.000000	1769635361.739449
15646.590000	18438.120000	25871.400000	37910.430000	12142.485000	-4016.565000	-7370.280000	-1813.905000	-12.811313	-14.848083	-15.403391	-15.501755	-14.468405	-13.550418	-13.916739	-7.022165	-5.279960	6.516020	-2.197440	-0.874326	-0.257690	0.339782	-1.000000	-1.000000	-1.000000	-1.000000	-1.000000	-1.000000	-1.000000	85.034483	0.000000	-1.000000	-1.000000	775383.000000	1769635361.744874
15650.190000	18439.155000	25871.490000	37911.735000	12146.445000	-4010.490000	-7375.905000	-1822.635000	-9.035179	-11.968048	-12.833792	-13.017513	-12.111165	-13.665033	-20.333220	-5.821932	-5.279960	6.516020	-2.197440	-0.874326	-0.257690	0.339782	-1.000000	-1.000000	-1.000000	-1.000000	-1.000000	-1.000000	-1.000000	85.034483	0.000000	-1.000000	-1.000000	775384.000000	1769635361.744888
15646.410000	18433.305000	25868.205000	37908.315000	12140.865000	-4021.740000	-7385.985000	-1830.960000	-1.576017	-3.878160	-4.435595	-4.339709	-4.000349	-7.389719	-17.774650	-3.122525	-5.279960	6.516020	-2.197440	-0.874326	-0.257690	0.339782	-1.000000	-1.000000	-1.000000	-1.000000	-1.000000	-1.000000	-1.000000	85.034483	0.000000	-1.000000	-1.000000	775385.000000	1769635361.750477
15654.465000	18438.300000	25873.155000	37911.060000	12140.730000	-4026.780000	-7388.415000	-1813.500000	5.117190	4.520205	4.883448	5.558783	5.158475	0.766828	-9.921839	-0.572001	-5.279960	6.516020	-2.197440	-0.874326	-0.257690	0.339782	-1.000000	-1.000000	-1.000000	-1.000000	-1.000000	-1.000000	-1.000000	85.034483	0.000000	-1.000000	-1.000000	775386.000000	1769635361.750492
15647.310000	18426.330000	25860.330000	37896.795000	12129.795000	-4028.040000	-7363.890000	-1798.830000	8.198238	9.361470	10.651494	11.605037	10.499957	5.727910	-2.268934	1.780803	-4.791640	4.730600	-1.831200	-0.875547	-0.260742	0.338622	-1.000000	-1.000000	-1.000000	-1.000000	-1.000000	-1.000000	-1.000000	85.034483	0.000000	-1.000000	-1.000000	775387.000000	1769635361.751474
15643.080000	18415.575000	25847.910000	37884.735000	12119.310000	-4033.575000	-7360.740000	-1796.715000	7.372428	9.324073	10.862551	11.450848	10.130531	6.406075	4.022207	4.688852	-4.791640	4.730600	-1.831200	-0.875547	-0.260742	0.338622	-1.000000	-1.000000	-1.000000	-1.000000	-1.000000	-1.000000	-1.000000	85.034483	0.000000	-1.000000	-1.000000	775388.000000	1769635361.751486
15641.370000	18425.340000	25859.160000	37895.265000	12125.790000	-4033.170000	-7378.920000	-1806.930000	4.133274	5.745856	6.670237	6.527756	5.726770	5.146150	10.229900	7.431621	-4.791640	4.730600	-1.831200	-0.875547	-0.260742	0.338622	-1.000000	-1.000000	-1.000000	-1.000000	-1.000000	-1.000000	-1.000000	85.034483	0.000000	-1.000000	-1.000000	775389.000000	1769635361.758532
15623.145000	18426.105000	25862.310000	37897.830000	12127.320000	-4029.300000	-7372.170000	-1822.410000	0.326302	1.647577	1.548699	0.790204	0.685292	3.885346	14.704405	7.596768	-4.791640	4.730600	-1.831200	-0.875547	-0.260742	0.338622	-1.000000	-1.000000	-1.000000	-1.000000	-1.000000	-1.000000	-1.000000	85.034483	0.000000	-1.000000	-1.000000	775390.000000	1769635361.758544
15619.095000	18418.320000	25853.625000	37888.605000	12118.905000	-4033.215000	-7360.560000	-1822.995000	-3.190396	-1.023599	-1.812193	-2.757636	-2.673774	2.587915	14.355472	3.555030	-4.791640	4.730600	-1.831200	-0.875547	-0.260742	0.338622	-1.000000	-1.000000	-1.000000	-1.000000	-1.000000	-1.000000	-1.000000	85.034483	0.000000	-1.000000	-1.000000	775391.000000	1769635361.759561
15617.205000	18412.875000	25849.485000	37886.760000	12119.445000	-4035.150000	-7364.700000	-1826.055000	-6.042771	-2.752868	-3.473650	-4.049902	-4.185971	0.653883	9.349620	-3.136505	-4.791640	4.730600	-1.831200	-0.875547	-0.260742	0.338622	-1.000000	-1.000000	-1.000000	-1.000000	-1.000000	-1.000000	-1.000000	85.034483	0.000000	-1.000000	-1.000000	775392.000000	1769635361.759572
15645.645000	18444.735000	25883.370000	37921.770000	12153.645000	-4010.670000	-7368.525000	-1816.290000	-6.920481	-3.984159	-4.048778	-3.804834	-4.001624	-1.299844	2.682329	-8.382646	-4.791640	4.730600	-1.831200	-0.875547	-0.260742	0.338622	-1.000000	-1.000000	-1.000000	-1.000000	-1.000000	-1.000000	-1.000000	85.034483	0.000000	-1.000000	-1.000000	775393.000000	1769635361.763483
15675.210000	18474.210000	25910.910000	37946.070000	12171.375000	-4005.630000	-7392.555000	-1800.765000	-3.776299	-2.923872	-2.313152	-1.240739	-1.176640	-1.494216	-3.531153	-8.691096	-4.791640	4.730600	-1.831200	-0.875547	-0.260742	0.338622	-1.000000	-1.000000	-1.000000	-1.000000	-1.000000	-1.000000	-1.000000	85.034483	0.000000	-1.000000	-1.000000	775394.000000	1769635361.763495
15659.505000	18453.915000	25888.095000	37922.625000	12150.045000	-4024.485000	-7407.090000	-1807.245000	3.009877	1.228143	1.919854	3.257263	3.587316	0.190358	-9.214184	-4.275605	-4.791640	4.730600	-1.831200	-0.875547	-0.260742	0.338622	-1.000000	-1.000000	-1.000000	-1.000000	-1.000000	-1.000000	-1.000000	85.034483	0.000000	-1.000000	-1.000000	775395.000000	1769635361.767325
15654.780000	18448.470000	25882.335000	37917.495000	12144.510000	-4037.490000	-7450.290000	-1819.620000	9.005913	5.268498	5.297795	6.161835	6.557251	1.209629	-14.458307	0.924777	-4.791640	4.730600	-1.831200	-0.875547	-0.260742	0.338622	-1.000000	-1.000000	-1.000000	-1.000000	-1.000000	-1.000000	-1.000000	85.034483	0.000000	-1.000000	-1.000000	775396.000000	1769635361.767337
15657.705000	18455.670000	25892.730000	37928.565000	12153.870000	-4031.145000	-7439.535000	-1821.510000	9.957599	5.704282	4.867061	4.889952	5.221352	-0.020206	-17.208558	3.303951	-0.183120	3.998120	-1.388660	-0.874265	-0.265380	0.338134	-1.000000	-1.000000	-1.000000	-1.000000	-1.000000	-1.000000	-1.000000	85.034483	0.000000	-1.000000	-1.000000	775397.000000	1769635361.771631
15654.735000	18456.705000	25895.115000	37932.885000	12160.620000	-4008.420000	-7357.770000	-1814.940000	5.821176	2.455157	1.248617	0.597137	0.894477	-1.878943	-12.608857	2.976388	-0.183120	3.998120	-1.388660	-0.874265	-0.265380	0.338134	-1.000000	-1.000000	-1.000000	-1.000000	-1.000000	-1.000000	-1.000000	85.034483	0.000000	-1.000000	-1.000000	775398.000000	1769635361.771645
15648.210000	18454.500000	25893.765000	37931.985000	12162.870000	-3999.555000	-7346.790000	-1815.030000	-0.398158	-2.304924	-3.160686	-3.980936	-3.530820	-1.944613	1.826160	2.320319	-0.183120	3.998120	-1.388660	-0.874265	-0.265380	0.338134	-1.000000	-1.000000	-1.000000	-1.000000	-1.000000	-1.000000	-1.000000	85.034483	0.000000	-1.000000	-1.000000	775399.000000	1769635361.775385
15647.310000	18442.710000	25877.655000	37915.740000	12149.055000	-4009.500000	-7355.520000	-1808.415000	-5.629970	-6.262663	-6.380595	-6.894606	-6.124668	-0.059794	19.401991	2.583222	-0.183120	3.998120	-1.388660	-0.874265	-0.265380	0.338134	-1.000000	-1.000000	-1.000000	-1.000000	-1.000000	-1.000000	-1.000000	85.034483	0.000000	-1.000000	-1.000000	775400.000000	1769635361.775397
15649.830000	18440.235000	25873.155000	37909.980000	12143.250000	-4014.585000	-7362.090000	-1805.580000	-8.313386	-8.181281	-7.776044	-7.890264	-6.929194	1.464719	28.411359	3.144021	-0.183120	3.998120	-1.388660	-0.874265	-0.265380	0.338134	-1.000000	-1.000000	-1.000000	-1.000000	-1.000000	-1.000000	-1.000000	85.034483	0.000000	-1.000000	-1.000000	775401.000000	1769635361.779317
15646.005000	18435.960000	25869.285000	37906.785000	12140.460000	-4019.670000	-7370.010000	-1809.810000	-8.618369	-8.246366	-7.895382	-7.879020	-7.122873	0.384396	23.032642	2.697688	-0.183120	3.998120	-1.388660	-0.874265	-0.265380	0.338134	-1.000000	-1.000000	-1.000000	-1.000000	-1.000000	-1.000000	-1.000000	85.034483	0.000000	-1.000000	-1.000000	775402.000000	1769635361.779329
15648.660000	18439.380000	25873.695000	37912.365000	12143.655000	-4018.860000	-7364.835000	-1802.340000	-7.494459	-6.964720	-6.973758	-7.029491	-6.802827	-2.844870	7.190663	0.415682	-0.183120	3.998120	-1.388660	-0.874265	-0.265380	0.338134	-1.000000	-1.000000	-1.000000	-1.000000	-1.000000	-1.000000	-1.000000	85.034483	0.000000	-1.000000	-1.000000	775403.000000	1769635361.783400
15644.025000	18438.930000	25875.135000	37914.345000	12143.835000	-4017.780000	-7358.265000	-1801.395000	-4.966302	-3.732826	-3.810094	-3.831131	-4.291881	-5.090525	-9.544022	-2.781213	-0.183120	3.998120	-1.388660	-0.874265	-0.265380	0.338134	-1.000000	-1.000000	-1.000000	-1.000000	-1.000000	-1.000000	-1.000000	85.034483	0.000000	-1.000000	-1.000000	775404.000000	1769635361.783412
15643.935000	18438.795000	25874.595000	37914.390000	12144.195000	-4019.985000	-7367.850000	-1804.995000	-0.548680	1.980593	2.337864	2.514268	1.321674	-3.675966	-18.677252	-4.663168	-0.183120	3.998120	-1.388660	-0.874265	-0.265380	0.338134	-1.000000	-1.000000	-1.000000	-1.000000	-1.000000	-1.000000	-1.000000	85.034483	0.000000	-1.000000	-1.000000	775405.000000	1769635361.787733
15637.905000	18430.920000	25864.065000	37904.895000	12134.565000	-4030.740000	-7374.465000	-1813.590000	4.675818	8.119715	8.937614	9.258124	7.604695	0.412135	-18.468819	-4.158019	-0.183120	3.998120	-1.388660	-0.874265	-0.265380	0.338134	-1.000000	-1.000000	-1.000000	-1.000000	-1.000000	-1.000000	-1.000000	85.034483	0.000000	-1.000000	-1.000000	775406.000000	1769635361.787758
15641.010000	18435.150000	25868.520000	37909.755000	12139.110000	-4023.765000	-7372.620000	-1814.085000	8.462238	11.200634	11.879291	12.120388	10.565357	3.456054	-13.955748	-2.226741	-0.686700	4.303320	-1.022420	-0.875425	-0.261840	0.335570	-1.000000	-1.000000	-1.000000	-1.000000	-1.000000	-1.000000	-1.000000	85.034483	0.000000	-1.000000	-1.000000	775407.000000	1769635361.791426
15653.340000	18451.890000	25884.495000	37923.975000	12152.340000	-4010.670000	-7372.305000	-1807.245000	9.624550	10.131711	10.096258	10.043960	9.006253	3.553439	-9.970338	-0.222627	-0.686700	4.303320	-1.022420	-0.875425	-0.261840	0.335570	-1.000000	-1.000000	-1.000000	-1.000000	-1.000000	-1.000000	-1.000000	85.034483	0.000000	-1.000000	-1.000000	775408.000000	1769635361.791433
15646.770000	18440.820000	25871.445000	37908.990000	12140.235000	-4016.385000	-7367.850000	-1807.920000	8.265952	6.666264	5.970518	5.522281	5.108246	2.261007	-6.107306	1.254422	-0.686700	4.303320	-1.022420	-0.875425	-0.261840	0.335570	-1.000000	-1.000000	-1.000000	-1.000000	-1.000000	-1.000000	-1.000000	85.034483	0.000000	-1.000000	-1.000000	775409.000000	1769635361.795455
15635.295000	18430.110000	25863.570000	37902.780000	12134.610000	-4024.260000	-7374.645000	-1817.820000	4.420471	2.224470	1.445913	0.689889	0.922527	1.286971	-0.107641	1.844839	-0.686700	4.303320	-1.022420	-0.875425	-0.261840	0.335570	-1.000000	-1.000000	-1.000000	-1.000000	-1.000000	-1.000000	-1.000000	85.034483	0.000000	-1.000000	-1.000000	775410.000000	1769635361.795468
15639.975000	18436.545000	25869.555000	37909.980000	12140.775000	-4019.265000	-7369.470000	-1814.670000	-1.457123	-2.822189	-3.081371	-3.790332	-2.865971	0.632745	7.465630	1.241095	-0.686700	4.303320	-1.022420	-0.875425	-0.261840	0.335570	-1.000000	-1.000000	-1.000000	-1.000000	-1.000000	-1.000000	-1.000000	85.034483	0.000000	-1.000000	-1.000000	775411.000000	1769635361.799406
15653.520000	18450.810000	25882.020000	37920.465000	12148.695000	-4013.865000	-7369.560000	-1806.570000	-6.812292	-6.864697	-6.442381	-6.687910	-5.219621	0.204798	13.504998	-0.021148	-0.686700	4.303320	-1.022420	-0.875425	-0.261840	0.335570	-1.000000	-1.000000	-1.000000	-1.000000	-1.000000	-1.000000	-1.000000	85.034483	0.000000	-1.000000	-1.000000	775412.000000	1769635361.799415
15665.985000	18464.985000	25894.530000	37928.160000	12154.770000	-4009.725000	-7373.745000	-1800.585000	-8.118285	-7.293279	-6.605152	-6.360072	-4.846146	0.443789	15.170317	-0.532789	-0.686700	4.303320	-1.022420	-0.875425	-0.261840	0.335570	-1.000000	-1.000000	-1.000000	-1.000000	-1.000000	-1.000000	-1.000000	85.034483	0.000000	-1.000000	-1.000000	775413.000000	1769635361.803555
15670.170000	18473.400000	25902.180000	37933.785000	12159.945000	-4000.950000	-7366.455000	-1805.670000	-4.385894	-3.489066	-3.156471	-2.890244	-1.950483	1.401959	12.005621	0.543238	-0.686700	4.303320	-1.022420	-0.875425	-0.261840	0.335570	-1.000000	-1.000000	-1.000000	-1.000000	-1.000000	-1.000000	-1.000000	85.034483	0.000000	-1.000000	-1.000000	775414.000000	1769635361.803567
15664.680000	18473.535000	25904.970000	37937.835000	12163.995000	-4000.230000	-7370.595000	-1813.230000	1.552286	1.996159	1.725197	1.545962	1.584283	2.318052	5.548077	2.305945	-0.686700	4.303320	-1.022420	-0.875425	-0.261840	0.335570	-1.000000	-1.000000	-1.000000	-1.000000	-1.000000	-1.000000	-1.000000	85.034483	0.000000	-1.000000	-1.000000	775415.000000	1769635361.807356
15648.480000	18446.535000	25876.935000	37916.145000	12148.335000	-4010.895000	-7368.210000	-1811.475000	5.215947	4.972231	4.412396	3.950275	3.303957	1.733170	-2.165445	2.970613	-0.686700	4.303320	-1.022420	-0.875425	-0.261840	0.335570	-1.000000	-1.000000	-1.000000	-1.000000	-1.000000	-1.000000	-1.000000	85.034483	0.000000	-1.000000	-1.000000	775416.000000	1769635361.807369
15633.405000	18424.305000	25852.185000	37895.310000	12132.630000	-4017.105000	-7341.210000	-1809.045000	3.658872	2.362846	2.006663	2.111491	1.492287	-1.306226	-8.212263	1.714430	-6.195560	3.876040	-1.175020	-0.877195	-0.256408	0.333190	-1.000000	-1.000000	-1.000000	-1.000000	-1.000000	-1.000000	-1.000000	85.034483	0.000000	-1.000000	-1.000000	775417.000000	1769635361.811621
15625.260000	18424.350000	25854.570000	37897.065000	12130.380000	-4024.530000	-7351.965000	-1826.955000	-2.150992	-4.516168	-4.419876	-3.000872	-2.971671	-5.503186	-9.596571	-0.856107	-6.195560	3.876040	-1.175020	-0.877195	-0.256408	0.333190	-1.000000	-1.000000	-1.000000	-1.000000	-1.000000	-1.000000	-1.000000	85.034483	0.000000	-1.000000	-1.000000	775418.000000	1769635361.811634
15641.730000	18441.900000	25868.610000	37905.480000	12131.280000	-4043.610000	-7400.880000	-1822.365000	-7.598660	-9.921214	-9.480764	-7.104990	-6.661980	-8.194058	-7.027175	-3.438208	-6.195560	3.876040	-1.175020	-0.877195	-0.256408	0.333190	-1.000000	-1.000000	-1.000000	-1.000000	-1.000000	-1.000000	-1.000000	85.034483	0.000000	-1.000000	-1.000000	775419.000000	1769635361.815625
15658.290000	18460.890000	25886.610000	37921.545000	12143.430000	-4040.685000	-7419.915000	-1810.665000	-8.036458	-8.775491	-8.383621	-6.524648	-6.618954	-7.865996	-4.838716	-4.506175	-6.195560	3.876040	-1.175020	-0.877195	-0.256408	0.333190	-1.000000	-1.000000	-1.000000	-1.000000	-1.000000	-1.000000	-1.000000	85.034483	0.000000	-1.000000	-1.000000	775420.000000	1769635361.815642
15662.970000	18464.805000	25890.525000	37928.385000	12154.680000	-4013.145000	-7383.780000	-1800.315000	-2.774725	-1.356657	-1.362088	-1.319858	-2.494280	-4.226900	-4.724363	-3.074597	-6.195560	3.876040	-1.175020	-0.877195	-0.256408	0.333190	-1.000000	-1.000000	-1.000000	-1.000000	-1.000000	-1.000000	-1.000000	85.034483	0.000000	-1.000000	-1.000000	775421.000000	1769635361.820046
15658.740000	18460.440000	25885.755000	37926.000000	12156.210000	-4005.765000	-7367.580000	-1803.105000	4.396660	7.144444	6.779872	5.128382	3.538791	2.275703	-3.126723	0.266978	-6.195560	3.876040	-1.175020	-0.877195	-0.256408	0.333190	-1.000000	-1.000000	-1.000000	-1.000000	-1.000000	-1.000000	-1.000000	85.034483	0.000000	-1.000000	-1.000000	775422.000000	1769635361.820054
15658.785000	18457.560000	25882.830000	37926.585000	12156.435000	-4009.905000	-7366.140000	-1802.385000	8.714066	11.128767	10.731870	8.741695	8.049412	9.057282	2.495401	3.646554	-6.195560	3.876040	-1.175020	-0.877195	-0.256408	0.333190	-1.000000	-1.000000	-1.000000	-1.000000	-1.000000	-1.000000	-1.000000	85.034483	0.000000	-1.000000	-1.000000	775423.000000	1769635361.823486
15645.510000	18445.410000	25871.400000	37916.190000	12144.780000	-4024.350000	-7378.470000	-1809.945000	8.152019	8.803303	8.644171	7.618716	8.455953	11.947540	8.961565	5.241005	-6.195560	3.876040	-1.175020	-0.877195	-0.256408	0.333190	-1.000000	-1.000000	-1.000000	-1.000000	-1.000000	-1.000000	-1.000000	85.034483	0.000000	-1.000000	-1.000000	775424.000000	1769635361.823500
15633.045000	18430.020000	25854.975000	37900.485000	12130.380000	-4036.770000	-7394.130000	-1819.215000	3.822322	2.595785	2.750202	2.926842	4.631682	8.714757	10.855982	3.996305	-6.195560	3.876040	-1.175020	-0.877195	-0.256408	0.333190	-1.000000	-1.000000	-1.000000	-1.000000	-1.000000	-1.000000	-1.000000	85.034483	0.000000	-1.000000	-1.000000	775425.000000	1769635361.827410
15645.780000	18446.130000	25868.340000	37911.555000	12143.925000	-4015.260000	-7368.480000	-1815.480000	-1.324031	-3.125797	-2.745366	-2.146300	-0.839772	1.558695	6.338484	0.346175	-6.195560	3.876040	-1.175020	-0.877195	-0.256408	0.333190	-1.000000	-1.000000	-1.000000	-1.000000	-1.000000	-1.000000	-1.000000	85.034483	0.000000	-1.000000	-1.000000	775426.000000	1769635361.827422
15649.335000	18454.320000	25875.450000	37916.010000	12146.895000	-4007.340000	-7350.345000	-1812.690000	-4.097669	-4.929388	-4.586025	-4.520015	-4.298688	-4.204689	-0.296933	-3.222681	-6.683880	2.212700	-1.220800	-0.878416	-0.257385	0.329711	-1.000000	-1.000000	-1.000000	-1.000000	-1.000000	-1.000000	-1.000000	85.034483	0.000000	-1.000000	-1.000000	775427.000000	1769635361.831426
15643.620000	18440.145000	25860.510000	37902.960000	12134.160000	-4021.200000	-7363.440000	-1806.120000	-3.790205	-3.172908	-3.141940	-3.892085	-4.388746	-5.090198	-2.774959	-4.235438	-6.683880	2.212700	-1.220800	-0.878416	-0.257385	0.329711	-1.000000	-1.000000	-1.000000	-1.000000	-1.000000	-1.000000	-1.000000	85.034483	0.000000	-1.000000	-1.000000	775428.000000	1769635361.831434
15640.695000	18426.195000	25845.345000	37888.740000	12122.145000	-4032.405000	-7368.120000	-1800.900000	-2.639666	-1.598100	-1.887487	-2.875688	-3.206722	-2.891030	-0.304222	-2.736336	-6.683880	2.212700	-1.220800	-0.878416	-0.257385	0.329711	-1.000000	-1.000000	-1.000000	-1.000000	-1.000000	-1.000000	-1.000000	85.034483	0.000000	-1.000000	-1.000000	775429.000000	1769635361.835393
15650.280000	18433.980000	25852.410000	37893.240000	12121.425000	-4041.090000	-7390.710000	-1802.295000	-2.357405	-2.547793	-2.934665	-3.388494	-3.139179	-1.982565	1.735528	-0.556902	-6.683880	2.212700	-1.220800	-0.878416	-0.257385	0.329711	-1.000000	-1.000000	-1.000000	-1.000000	-1.000000	-1.000000	-1.000000	85.034483	0.000000	-1.000000	-1.000000	775430.000000	1769635361.835411
15641.730000	18443.070000	25866.225000	37907.235000	12131.280000	-4041.180000	-7414.470000	-1815.885000	-2.281982	-4.109101	-4.298423	-4.030220	-3.780165	-4.011693	-1.591388	0.685856	-6.683880	2.212700	-1.220800	-0.878416	-0.257385	0.329711	-1.000000	-1.000000	-1.000000	-1.000000	-1.000000	-1.000000	-1.000000	85.034483	0.000000	-1.000000	-1.000000	775431.000000	1769635361.839398
15617.430000	18430.245000	25856.415000	37902.780000	12131.505000	-4038.210000	-7391.970000	-1827.765000	-1.598793	-3.245844	-2.920270	-2.283510	-2.894923	-6.344709	-8.838536	0.373044	-6.683880	2.212700	-1.220800	-0.878416	-0.257385	0.329711	-1.000000	-1.000000	-1.000000	-1.000000	-1.000000	-1.000000	-1.000000	85.034483	0.000000	-1.000000	-1.000000	775432.000000	1769635361.839405
15623.955000	18428.130000	25853.355000	37902.240000	12138.660000	-4015.170000	-7338.465000	-1817.325000	-0.460168	0.425040	1.375413	2.067807	0.687635	-4.996951	-12.362050	-0.755715	-6.683880	2.212700	-1.220800	-0.878416	-0.257385	0.329711	-1.000000	-1.000000	-1.000000	-1.000000	-1.000000	-1.000000	-1.000000	85.034483	0.000000	-1.000000	-1.000000	775433.000000	1769635361.843426
15635.430000	18433.485000	25853.850000	37897.425000	12131.415000	-4017.555000	-7338.150000	-1812.330000	1.426477	5.047209	6.226829	6.834817	5.718201	1.170116	-6.297712	-0.902981	-6.683880	2.212700	-1.220800	-0.878416	-0.257385	0.329711	-1.000000	-1.000000	-1.000000	-1.000000	-1.000000	-1.000000	-1.000000	85.034483	0.000000	-1.000000	-1.000000	775434.000000	1769635361.843440
15645.645000	18448.155000	25868.025000	37908.225000	12136.005000	-4033.080000	-7397.415000	-1820.025000	4.264262	8.313154	8.966862	9.251244	9.085669	8.204010	4.835189	0.715437	-6.683880	2.212700	-1.220800	-0.878416	-0.257385	0.329711	-1.000000	-1.000000	-1.000000	-1.000000	-1.000000	-1.000000	-1.000000	85.034483	0.000000	-1.000000	-1.000000	775435.000000	1769635361.854425
15670.665000	18473.760000	25894.080000	37933.830000	12159.945000	-4014.810000	-7401.060000	-1800.990000	6.949098	8.782964	8.405042	8.140321	8.627532	10.771722	10.522842	2.898691	-6.683880	2.212700	-1.220800	-0.878416	-0.257385	0.329711	-1.000000	-1.000000	-1.000000	-1.000000	-1.000000	-1.000000	-1.000000	85.034483	0.000000	-1.000000	-1.000000	775436.000000	1769635361.854438
15657.615000	18457.470000	25877.970000	37916.955000	12144.105000	-4023.180000	-7382.880000	-1801.395000	7.820091	6.567553	5.349489	4.642580	5.151049	7.979075	7.403893	4.065455	-2.990960	1.327620	-1.403920	-0.877134	-0.262512	0.331542	-1.000000	-1.000000	-1.000000	-1.000000	-1.000000	-1.000000	-1.000000	85.034483	0.000000	-1.000000	-1.000000	775437.000000	1769635361.854451
15650.910000	18459.315000	25885.080000	37925.505000	12151.215000	-4020.750000	-7399.620000	-1806.120000	5.354144	2.313383	1.026797	0.284652	0.532287	2.628056	1.019986	3.261407	-2.990960	1.327620	-1.403920	-0.877134	-0.262512	0.331542	-1.000000	-1.000000	-1.000000	-1.000000	-1.000000	-1.000000	-1.000000	85.034483	0.000000	-1.000000	-1.000000	775438.000000	1769635361.854456
15661.845000	18472.050000	25899.480000	37942.155000	12166.830000	-4011.300000	-7402.005000	-1808.100000	-0.387729	-2.994766	-3.501104	-3.771663	-3.668335	-2.403337	-3.037224	0.564825	-2.990960	1.327620	-1.403920	-0.877134	-0.262512	0.331542	-1.000000	-1.000000	-1.000000	-1.000000	-1.000000	-1.000000	-1.000000	85.034483	0.000000	-1.000000	-1.000000	775439.000000	1769635361.855410
15669.180000	18475.605000	25902.630000	37949.175000	12176.730000	-3996.990000	-7360.875000	-1801.845000	-6.187919	-7.294138	-6.767398	-6.209940	-5.936981	-5.041347	-2.649531	-2.258592	-2.990960	1.327620	-1.403920	-0.877134	-0.262512	0.331542	-1.000000	-1.000000	-1.000000	-1.000000	-1.000000	-1.000000	-1.000000	85.034483	0.000000	-1.000000	-1.000000	775440.000000	1769635361.855424
15678.855000	18485.055000	25913.610000	37956.330000	12182.175000	-3992.760000	-7361.325000	-1792.665000	-7.903518	-8.359566	-7.397748	-6.214119	-5.633182	-4.648181	1.356356	-2.953212	-2.990960	1.327620	-1.403920	-0.877134	-0.262512	0.331542	-1.000000	-1.000000	-1.000000	-1.000000	-1.000000	-1.000000	-1.000000	85.034483	0.000000	-1.000000	-1.000000	775441.000000	1769635361.861221
15652.440000	18449.775000	25871.580000	37913.265000	12141.405000	-4027.005000	-7378.515000	-1803.690000	-5.066651	-6.056960	-5.550644	-4.570247	-4.035457	-3.123868	4.510977	-1.392316	-2.990960	1.327620	-1.403920	-0.877134	-0.262512	0.331542	-1.000000	-1.000000	-1.000000	-1.000000	-1.000000	-1.000000	-1.000000	85.034483	0.000000	-1.000000	-1.000000	775442.000000	1769635361.861240
15631.695000	18419.175000	25837.020000	37881.090000	12115.035000	-4037.040000	-7363.665000	-1804.950000	-1.891585	-3.604078	-4.086369	-3.978961	-3.851653	-3.372921	2.970646	0.222422	-2.990960	1.327620	-1.403920	-0.877134	-0.262512	0.331542	-1.000000	-1.000000	-1.000000	-1.000000	-1.000000	-1.000000	-1.000000	85.034483	0.000000	-1.000000	-1.000000	775443.000000	1769635361.865413
15640.920000	18431.415000	25852.725000	37900.080000	12135.195000	-4017.330000	-7356.960000	-1799.505000	-2.237813	-4.192611	-5.547664	-6.031709	-5.959428	-5.250924	-0.779485	0.253688	-2.990960	1.327620	-1.403920	-0.877134	-0.262512	0.331542	-1.000000	-1.000000	-1.000000	-1.000000	-1.000000	-1.000000	-1.000000	85.034483	0.000000	-1.000000	-1.000000	775444.000000	1769635361.865425
15651.270000	18445.545000	25867.710000	37915.785000	12148.785000	-4013.730000	-7365.600000	-1799.235000	-4.902516	-6.202695	-7.655218	-7.857732	-7.212290	-5.391033	-2.100035	-1.014249	-2.990960	1.327620	-1.403920	-0.877134	-0.262512	0.331542	-1.000000	-1.000000	-1.000000	-1.000000	-1.000000	-1.000000	-1.000000	85.034483	0.000000	-1.000000	-1.000000	775445.000000	1769635361.867546
15637.095000	18429.795000	25852.320000	37898.910000	12131.505000	-4028.490000	-7373.025000	-1807.650000	-5.697873	-5.154565	-5.784366	-5.268050	-4.151583	-2.035478	-1.085554	-2.599479	-2.990960	1.327620	-1.403920	-0.877134	-0.262512	0.331542	-1.000000	-1.000000	-1.000000	-1.000000	-1.000000	-1.000000	-1.000000	85.034483	0.000000	-1.000000	-1.000000	775446.000000	1769635361.867558
15627.555000	18424.935000	25849.035000	37893.330000	12128.085000	-4024.440000	-7358.670000	-1812.510000	-2.784950	0.085892	0.609584	1.380862	2.185739	2.792685	-0.238355	-3.534677	-5.112100	1.617560	-1.938020	-0.873411	-0.264037	0.332336	-1.000000	-1.000000	-1.000000	-1.000000	-1.000000	-1.000000	-1.000000	85.034483	0.000000	-1.000000	-1.000000	775447.000000	1769635361.871233
15651.000000	18451.260000	25874.235000	37915.785000	12143.070000	-4021.965000	-7375.995000	-1800.495000	2.247831	6.554710	7.796496	7.854239	7.650769	6.025080	-0.366709	-2.847582	-5.112100	1.617560	-1.938020	-0.873411	-0.264037	0.332336	-1.000000	-1.000000	-1.000000	-1.000000	-1.000000	-1.000000	-1.000000	85.034483	0.000000	-1.000000	-1.000000	775448.000000	1769635361.871244
15652.755000	18453.510000	25878.960000	37922.220000	12147.210000	-4024.350000	-7392.690000	-1802.655000	7.240198	11.307717	12.508580	11.192386	9.645267	6.131350	-2.206957	-0.228319	-5.112100	1.617560	-1.938020	-0.873411	-0.264037	0.332336	-1.000000	-1.000000	-1.000000	-1.000000	-1.000000	-1.000000	-1.000000	85.034483	0.000000	-1.000000	-1.000000	775449.000000	1769635361.876092
15650.280000	18450.630000	25878.420000	37923.030000	12149.010000	-4019.040000	-7381.215000	-1808.460000	10.466853	12.913523	13.623756	11.283853	8.536539	3.742485	-5.977016	2.978281	-5.112100	1.617560	-1.938020	-0.873411	-0.264037	0.332336	-1.000000	-1.000000	-1.000000	-1.000000	-1.000000	-1.000000	-1.000000	85.034483	0.000000	-1.000000	-1.000000	775450.000000	1769635361.876104
15648.975000	18446.310000	25872.930000	37917.045000	12144.510000	-4012.155000	-7357.140000	-1803.330000	10.653157	11.133529	11.540198	9.447268	6.358110	1.423997	-8.273292	4.814006	-5.112100	1.617560	-1.938020	-0.873411	-0.264037	0.332336	-1.000000	-1.000000	-1.000000	-1.000000	-1.000000	-1.000000	-1.000000	85.034483	0.000000	-1.000000	-1.000000	775451.000000	1769635361.879471
15652.710000	18451.620000	25877.880000	37923.120000	12147.930000	-4013.775000	-7372.440000	-1803.555000	7.825313	6.918243	7.453112	6.817483	4.614344	1.223932	-5.299153	4.670021	-5.112100	1.617560	-1.938020	-0.873411	-0.264037	0.332336	-1.000000	-1.000000	-1.000000	-1.000000	-1.000000	-1.000000	-1.000000	85.034483	0.000000	-1.000000	-1.000000	775452.000000	1769635361.879483
15654.600000	18455.850000	25884.270000	37931.760000	12157.470000	-4012.020000	-7385.715000	-1810.350000	2.777681	1.230923	1.909480	3.035840	2.591373	1.991200	1.575261	2.855690	-5.112100	1.617560	-1.938020	-0.873411	-0.264037	0.332336	-1.000000	-1.000000	-1.000000	-1.000000	-1.000000	-1.000000	-1.000000	85.034483	0.000000	-1.000000	-1.000000	775453.000000	1769635361.883435
15640.245000	18445.320000	25873.470000	37919.925000	12141.585000	-4025.430000	-7390.035000	-1825.875000	-3.463770	-5.163253	-4.789657	-2.522288	-1.085938	1.189443	7.416950	-0.331020	-5.112100	1.617560	-1.938020	-0.873411	-0.264037	0.332336	-1.000000	-1.000000	-1.000000	-1.000000	-1.000000	-1.000000	-1.000000	85.034483	0.000000	-1.000000	-1.000000	775454.000000	1769635361.883447
15629.355000	18436.545000	25861.680000	37893.420000	12095.145000	-4036.635000	-7373.565000	-1825.470000	-8.997198	-10.538225	-10.973792	-8.805898	-6.403997	-1.748417	9.297477	-3.792817	-5.112100	1.617560	-1.938020	-0.873411	-0.264037	0.332336	-1.000000	-1.000000	-1.000000	-1.000000	-1.000000	-1.000000	-1.000000	85.034483	0.000000	-1.000000	-1.000000	775455.000000	1769635361.890059
15645.510000	18443.475000	25865.505000	37892.700000	12093.525000	-4017.915000	-7342.290000	-1802.115000	-11.397204	-12.805673	-14.318042	-13.696449	-12.061160	-5.058118	8.248682	-5.208659	-5.112100	1.617560	-1.938020	-0.873411	-0.264037	0.332336	-1.000000	-1.000000	-1.000000	-1.000000	-1.000000	-1.000000	-1.000000	85.034483	0.000000	-1.000000	-1.000000	775456.000000	1769635361.890081
15654.465000	18451.980000	25874.280000	37906.920000	12124.395000	-4007.340000	-7338.330000	-1791.315000	-9.365130	-11.160630	-13.546119	-15.090014	-15.019308	-6.140596	6.721008	-2.875652	-2.701020	3.876040	-2.441600	-0.871214	-0.259887	0.337463	-1.000000	-1.000000	-1.000000	-1.000000	-1.000000	-1.000000	-1.000000	85.034483	0.000000	-1.000000	-1.000000	775457.000000	1769635361.894381
15647.130000	18449.865000	25874.820000	37918.665000	12161.070000	-4023.675000	-7374.870000	-1806.300000	-3.964608	-6.343771	-8.805694	-11.358797	-11.184831	-4.020111	4.756593	1.872542	-2.701020	3.876040	-2.441600	-0.871214	-0.259887	0.337463	-1.000000	-1.000000	-1.000000	-1.000000	-1.000000	-1.000000	-1.000000	85.034483	0.000000	-1.000000	-1.000000	775458.000000	1769635361.894393
15663.735000	18468.270000	25895.295000	37945.485000	12180.285000	-4032.540000	-7439.355000	-1804.410000	2.263308	0.303414	-1.107083	-2.326893	0.454833	-0.641672	-0.835753	5.391820	-2.701020	3.876040	-2.441600	-0.871214	-0.259887	0.337463	-1.000000	-1.000000	-1.000000	-1.000000	-1.000000	-1.000000	-1.000000	85.034483	0.000000	-1.000000	-1.000000	775459.000000	1769635361.895350
15654.870000	18455.985000	25880.850000	37933.155000	12160.980000	-4035.105000	-7433.415000	-1803.915000	7.084707	7.054075	7.537928	9.294262	14.614019	1.489081	-11.290412	5.287423	-2.701020	3.876040	-2.441600	-0.871214	-0.259887	0.337463	-1.000000	-1.000000	-1.000000	-1.000000	-1.000000	-1.000000	-1.000000	85.034483	0.000000	-1.000000	-1.000000	775460.000000	1769635361.895362
15654.735000	18452.655000	25873.740000	37923.165000	12151.170000	-4028.040000	-7381.440000	-1800.180000	8.672461	10.947322	13.172295	17.363731	22.039392	1.830132	-19.860200	2.159306	-2.701020	3.876040	-2.441600	-0.871214	-0.259887	0.337463	-1.000000	-1.000000	-1.000000	-1.000000	-1.000000	-1.000000	-1.000000	85.034483	0.000000	-1.000000	-1.000000	775461.000000	1769635361.899264
15649.065000	18440.820000	25860.735000	37910.880000	12147.120000	-4006.665000	-7332.435000	-1796.805000	6.123131	9.318983	12.029455	16.212350	17.058326	1.753666	-16.256881	-1.526794	-2.701020	3.876040	-2.441600	-0.871214	-0.259887	0.337463	-1.000000	-1.000000	-1.000000	-1.000000	-1.000000	-1.000000	-1.000000	85.034483	0.000000	-1.000000	-1.000000	775462.000000	1769635361.899278
15650.010000	18442.215000	25862.040000	37912.275000	12147.075000	-4007.340000	-7352.730000	-1798.065000	1.156410	3.187197	4.938005	6.687687	3.327974	3.009382	0.544304	-3.349915	-2.701020	3.876040	-2.441600	-0.871214	-0.259887	0.337463	-1.000000	-1.000000	-1.000000	-1.000000	-1.000000	-1.000000	-1.000000	85.034483	0.000000	-1.000000	-1.000000	775463.000000	1769635361.903344
15645.870000	18437.265000	25856.280000	37903.905000	12135.555000	-4022.910000	-7378.290000	-1805.400000	-2.991348	-3.240281	-3.029607	-4.312680	-9.575307	5.097732	18.246523	-2.905981	-2.701020	3.876040	-2.441600	-0.871214	-0.259887	0.337463	-1.000000	-1.000000	-1.000000	-1.000000	-1.000000	-1.000000	-1.000000	85.034483	0.000000	-1.000000	-1.000000	775464.000000	1769635361.903354
15652.170000	18440.370000	25857.585000	37905.030000	12137.535000	-4022.640000	-7373.520000	-1800.000000	-4.767775	-6.686169	-7.571551	-10.699762	-15.146637	4.908628	22.968607	-2.042132	-2.701020	3.876040	-2.441600	-0.871214	-0.259887	0.337463	-1.000000	-1.000000	-1.000000	-1.000000	-1.000000	-1.000000	-1.000000	85.034483	0.000000	-1.000000	-1.000000	775465.000000	1769635361.907387
15649.425000	18443.520000	25866.630000	37915.155000	12150.045000	-4003.695000	-7343.370000	-1797.885000	-4.670027	-6.600738	-7.677754	-11.132264	-13.756728	1.121083	13.135750	-2.127290	-2.701020	3.876040	-2.441600	-0.871214	-0.259887	0.337463	-1.000000	-1.000000	-1.000000	-1.000000	-1.000000	-1.000000	-1.000000	85.034483	0.000000	-1.000000	-1.000000	775466.000000	1769635361.907402
15651.900000	18449.685000	25876.800000	37923.795000	12152.475000	-4005.585000	-7349.445000	-1800.315000	-3.380636	-3.828011	-4.278993	-7.306807	-9.077676	-3.262642	-0.744393	-2.276645	-8.911840	0.152600	-4.104940	-0.873716	-0.260436	0.334777	-1.000000	-1.000000	-1.000000	-1.000000	-1.000000	-1.000000	-1.000000	85.034483	0.000000	-1.000000	-1.000000	775467.000000	1769635361.911559
15655.095000	18447.615000	25874.955000	37918.755000	12142.845000	-4015.845000	-7350.930000	-1796.355000	-1.293733	0.211812	0.770679	-1.795669	-3.980123	-4.899929	-8.233282	-1.200178	-8.911840	0.152600	-4.104940	-0.873716	-0.260436	0.334777	-1.000000	-1.000000	-1.000000	-1.000000	-1.000000	-1.000000	-1.000000	85.034483	0.000000	-1.000000	-1.000000	775468.000000	1769635361.911569
15614.865000	18410.850000	25840.620000	37884.510000	12114.855000	-4023.945000	-7311.285000	-1813.905000	0.535082	3.264230	4.632024	2.547303	0.232700	-3.938256	-7.277223	0.654757	-8.911840	0.152600	-4.104940	-0.873716	-0.260436	0.334777	-1.000000	-1.000000	-1.000000	-1.000000	-1.000000	-1.000000	-1.000000	85.034483	0.000000	-1.000000	-1.000000	775469.000000	1769635361.915424
15647.625000	18463.500000	25895.115000	37944.900000	12164.220000	-4014.180000	-7385.490000	-1814.220000	0.963439	3.917109	5.508062	4.470349	3.582705	-2.533670	-3.661340	1.644175	-8.911840	0.152600	-4.104940	-0.873716	-0.260436	0.334777	-1.000000	-1.000000	-1.000000	-1.000000	-1.000000	-1.000000	-1.000000	85.034483	0.000000	-1.000000	-1.000000	775470.000000	1769635361.915439
15683.220000	18494.595000	25926.255000	37978.695000	12193.560000	-3998.340000	-7403.400000	-1790.415000	1.471193	4.274955	5.428837	6.350664	7.689896	-1.610909	-5.261790	1.502751	-8.911840	0.152600	-4.104940	-0.873716	-0.260436	0.334777	-1.000000	-1.000000	-1.000000	-1.000000	-1.000000	-1.000000	-1.000000	85.034483	0.000000	-1.000000	-1.000000	775471.000000	1769635361.919732
15659.820000	18461.430000	25891.875000	37944.585000	12166.920000	-4002.390000	-7361.550000	-1795.995000	4.230043	6.322391	6.482842	9.777755	12.814176	-0.337083	-11.966893	1.809375	-8.911840	0.152600	-4.104940	-0.873716	-0.260436	0.334777	-1.000000	-1.000000	-1.000000	-1.000000	-1.000000	-1.000000	-1.000000	85.034483	0.000000	-1.000000	-1.000000	775472.000000	1769635361.919744
15651.540000	18459.270000	25891.335000	37942.020000	12158.100000	-4010.085000	-7370.280000	-1805.355000	7.015323	7.082226	6.039544	10.967396	14.954263	1.618090	-14.613341	2.823656	-8.911840	0.152600	-4.104940	-0.873716	-0.260436	0.334777	-1.000000	-1.000000	-1.000000	-1.000000	-1.000000	-1.000000	-1.000000	85.034483	0.000000	-1.000000	-1.000000	775473.000000	1769635361.925473
15621.885000	18424.035000	25853.535000	37903.005000	12124.080000	-4024.350000	-7335.045000	-1817.640000	5.323348	2.616307	0.665001	5.409378	9.536765	2.680447	-7.517789	2.519149	-8.911840	0.152600	-4.104940	-0.873716	-0.260436	0.334777	-1.000000	-1.000000	-1.000000	-1.000000	-1.000000	-1.000000	-1.000000	85.034483	0.000000	-1.000000	-1.000000	775474.000000	1769635361.925484
15641.280000	18417.780000	25838.685000	37889.370000	12113.550000	-4036.320000	-7360.695000	-1810.710000	-1.273994	-6.481262	-8.958825	-6.439604	-3.325280	1.078328	5.311727	-0.063007	-8.911840	0.152600	-4.104940	-0.873716	-0.260436	0.334777	-1.000000	-1.000000	-1.000000	-1.000000	-1.000000	-1.000000	-1.000000	85.034483	0.000000	-1.000000	-1.000000	775475.000000	1769635361.927267
15686.955000	18447.885000	25862.760000	37912.095000	12139.110000	-4023.990000	-7397.955000	-1785.105000	-7.462321	-14.739551	-17.690905	-18.442248	-17.083207	-2.254790	15.327605	-2.683309	-8.911840	0.152600	-4.104940	-0.873716	-0.260436	0.334777	-1.000000	-1.000000	-1.000000	-1.000000	-1.000000	-1.000000	-1.000000	85.034483	0.000000	-1.000000	-1.000000	775476.000000	1769635361.927283
15653.430000	18437.040000	25853.535000	37892.655000	12135.150000	-4020.660000	-7374.960000	-1803.330000	-7.627116	-15.540801	-18.734007	-22.298856	-22.231762	-3.761005	16.505115	-2.637597	-4.928980	-1.907500	-3.097780	-0.879514	-0.270873	0.333129	-1.000000	-1.000000	-1.000000	-1.000000	-1.000000	-1.000000	-1.000000	85.034483	0.000000	-1.000000	-1.000000	775477.000000	1769635361.931233
15636.915000	18457.110000	25874.190000	37903.005000	12152.745000	-4010.265000	-7375.815000	-1816.020000	-2.533081	-7.162361	-9.561545	-14.671240	-14.573261	-1.246467	9.658099	-0.434097	-4.928980	-1.907500	-3.097780	-0.879514	-0.270873	0.333129	-1.000000	-1.000000	-1.000000	-1.000000	-1.000000	-1.000000	-1.000000	85.034483	0.000000	-1.000000	-1.000000	775478.000000	1769635361.931245
15675.120000	18484.740000	25896.690000	37939.320000	12174.795000	-4002.480000	-7406.505000	-1787.130000	2.417823	5.261102	4.929786	-0.226937	0.633775	3.501300	0.640768	1.519731	-4.928980	-1.907500	-3.097780	-0.879514	-0.270873	0.333129	-1.000000	-1.000000	-1.000000	-1.000000	-1.000000	-1.000000	-1.000000	85.034483	0.000000	-1.000000	-1.000000	775479.000000	1769635361.935390
15681.375000	18442.800000	25849.575000	37936.620000	12154.905000	-4017.060000	-7384.815000	-1771.200000	4.141579	13.838487	15.907758	13.153814	13.611111	6.544872	-5.207198	2.422980	-4.928980	-1.907500	-3.097780	-0.879514	-0.270873	0.333129	-1.000000	-1.000000	-1.000000	-1.000000	-1.000000	-1.000000	-1.000000	85.034483	0.000000	-1.000000	-1.000000	775480.000000	1769635361.935403
15679.530000	18383.220000	25789.500000	37953.495000	12139.560000	-4029.795000	-7369.515000	-1757.295000	3.543217	12.957053	16.532207	20.319721	17.671938	5.296265	-6.031940	3.055471	-4.928980	-1.907500	-3.097780	-0.879514	-0.270873	0.333129	-1.000000	-1.000000	-1.000000	-1.000000	-1.000000	-1.000000	-1.000000	85.034483	0.000000	-1.000000	-1.000000	775481.000000	1769635361.939386
15671.070000	18322.785000	25705.485000	37976.985000	12132.720000	-4041.405000	-7381.665000	-1753.785000	2.333060	2.342883	5.773151	20.664946	12.654237	0.466698	-3.341369	3.783782	-4.928980	-1.907500	-3.097780	-0.879514	-0.270873	0.333129	-1.000000	-1.000000	-1.000000	-1.000000	-1.000000	-1.000000	-1.000000	85.034483	0.000000	-1.000000	-1.000000	775482.000000	1769635361.939396
15652.980000	18294.120000	25661.295000	37997.415000	12128.040000	-4051.575000	-7377.570000	-1769.130000	0.919530	-12.069933	-10.732718	16.461002	3.313249	-4.821387	-0.607632	3.605537	-4.928980	-1.907500	-3.097780	-0.879514	-0.270873	0.333129	-1.000000	-1.000000	-1.000000	-1.000000	-1.000000	-1.000000	-1.000000	85.034483	0.000000	-1.000000	-1.000000	775483.000000	1769635361.943304
15626.070000	18246.240000	25601.085000	38007.540000	12110.760000	-4069.260000	-7369.740000	-1774.170000	-1.932102	-21.739121	-23.662230	9.831518	-5.127957	-7.684266	0.572028	0.814010	-4.928980	-1.907500	-3.097780	-0.879514	-0.270873	0.333129	-1.000000	-1.000000	-1.000000	-1.000000	-1.000000	-1.000000	-1.000000	85.034483	0.000000	-1.000000	-1.000000	775484.000000	1769635361.943312
15636.420000	18262.035000	25592.760000	38037.690000	12130.290000	-4067.190000	-7414.155000	-1771.695000	-6.932896	-21.304482	-25.875072	1.688404	-9.878588	-7.221153	1.211973	-4.645747	-4.928980	-1.907500	-3.097780	-0.879514	-0.270873	0.333129	-1.000000	-1.000000	-1.000000	-1.000000	-1.000000	-1.000000	-1.000000	85.034483	0.000000	-1.000000	-1.000000	775485.000000	1769635361.947287
15621.030000	18250.020000	25556.535000	37983.060000	12098.565000	-4078.170000	-7398.900000	-1771.155000	-10.689892	-10.181740	-15.753288	-7.080885	-10.164281	-4.189591	0.769170	-9.513844	-4.928980	-1.907500	-3.097780	-0.879514	-0.270873	0.333129	-1.000000	-1.000000	-1.000000	-1.000000	-1.000000	-1.000000	-1.000000	85.034483	0.000000	-1.000000	-1.000000	775486.000000	1769635361.947298
15579.720000	18271.395000	25600.770000	37932.030000	12092.670000	-4062.825000	-7397.280000	-1829.565000	-9.379366	7.251005	2.701121	-16.698745	-7.545091	-0.052807	-1.217051	-10.691454	7.675780	4.349100	-4.333840	-0.876096	-0.275573	0.339965	-1.000000	-1.000000	-1.000000	-1.000000	-1.000000	-1.000000	-1.000000	85.034483	0.000000	-1.000000	-1.000000	775487.000000	1769635361.951427
15564.735000	18345.735000	25746.120000	37900.395000	12111.120000	-4031.640000	-7385.040000	-1870.200000	-5.054547	23.764104	24.048272	-27.521642	-4.555950	4.259433	-1.955992	-9.977122	7.675780	4.349100	-4.333840	-0.876096	-0.275573	0.339965	-1.000000	-1.000000	-1.000000	-1.000000	-1.000000	-1.000000	-1.000000	85.034483	0.000000	-1.000000	-1.000000	775488.000000	1769635361.951438
15613.515000	18429.120000	25898.085000	37882.665000	12117.735000	-4026.915000	-7401.915000	-1834.830000	-0.864262	35.928631	46.674356	-35.005367	-0.812980	8.753994	-0.182636	-9.813164	7.675780	4.349100	-4.333840	-0.876096	-0.275573	0.339965	-1.000000	-1.000000	-1.000000	-1.000000	-1.000000	-1.000000	-1.000000	85.034483	0.000000	-1.000000	-1.000000	775489.000000	1769635361.955519
15696.495000	18405.945000	25832.970000	37901.115000	12113.640000	-4044.960000	-7429.320000	-1747.665000	5.712094	43.030448	65.942938	-31.435986	5.158897	12.190158	0.926005	-6.284076	7.675780	4.349100	-4.333840	-0.876096	-0.275573	0.339965	-1.000000	-1.000000	-1.000000	-1.000000	-1.000000	-1.000000	-1.000000	85.034483	0.000000	-1.000000	-1.000000	775490.000000	1769635361.955532
15710.760000	18300.465000	25671.960000	37927.395000	12106.980000	-4072.320000	-7433.820000	-1713.015000	17.432024	39.065248	65.237049	-13.822489	11.394796	11.332265	-1.306269	6.071117	7.675780	4.349100	-4.333840	-0.876096	-0.275573	0.339965	-1.000000	-1.000000	-1.000000	-1.000000	-1.000000	-1.000000	-1.000000	85.034483	0.000000	-1.000000	-1.000000	775491.000000	1769635361.961203
15672.105000	18146.835000	25384.770000	37939.455000	12101.085000	-4085.865000	-7429.230000	-1711.485000	28.551931	15.347373	27.181257	12.245592	13.844341	4.537165	-5.034362	23.797053	7.675780	4.349100	-4.333840	-0.876096	-0.275573	0.339965	-1.000000	-1.000000	-1.000000	-1.000000	-1.000000	-1.000000	-1.000000	85.034483	0.000000	-1.000000	-1.000000	775492.000000	1769635361.961214
15592.050000	18066.735000	25241.130000	37957.995000	12113.820000	-4056.570000	-7408.665000	-1790.685000	27.176408	-26.446622	-44.034286	35.191194	10.598439	-4.900981	-5.539192	33.853178	7.675780	4.349100	-4.333840	-0.876096	-0.275573	0.339965	-1.000000	-1.000000	-1.000000	-1.000000	-1.000000	-1.000000	-1.000000	85.034483	0.000000	-1.000000	-1.000000	775493.000000	1769635361.965564
15491.880000	18075.240000	25333.380000	37986.435000	12106.350000	-4034.115000	-7366.140000	-1894.770000	6.766474	-67.476615	-112.624599	45.080946	3.314309	-10.593508	0.444788	23.876841	7.675780	4.349100	-4.333840	-0.876096	-0.275573	0.339965	-1.000000	-1.000000	-1.000000	-1.000000	-1.000000	-1.000000	-1.000000	85.034483	0.000000	-1.000000	-1.000000	775494.000000	1769635361.965577
15444.855000	18144.585000	25460.145000	38030.400000	12106.620000	-4025.340000	-7365.735000	-1963.395000	-25.153430	-81.571160	-130.195773	40.773616	-4.316642	-8.985089	10.702306	-5.524663	7.675780	4.349100	-4.333840	-0.876096	-0.275573	0.339965	-1.000000	-1.000000	-1.000000	-1.000000	-1.000000	-1.000000	-1.000000	85.034483	0.000000	-1.000000	-1.000000	775495.000000	1769635361.967434
15583.230000	18247.635000	25501.095000	37959.705000	12082.635000	-4069.755000	-7452.270000	-1854.360000	-47.929626	-55.333145	-78.124191	26.978928	-9.567090	-3.500339	16.875379	-35.819283	7.675780	4.349100	-4.333840	-0.876096	-0.275573	0.339965	-1.000000	-1.000000	-1.000000	-1.000000	-1.000000	-1.000000	-1.000000	85.034483	0.000000	-1.000000	-1.000000	775496.000000	1769635361.967446
15692.310000	18332.865000	25610.040000	37669.320000	11999.880000	-4099.320000	-7424.595000	-1735.650000	-40.924920	0.029427	12.604523	3.434216	-13.169659	-1.506141	11.358937	-41.655132	-6.607580	10.956680	-1.068200	-0.871641	-0.242675	0.346496	-1.000000	-1.000000	-1.000000	-1.000000	-1.000000	-1.000000	-1.000000	85.034483	0.000000	-1.000000	-1.000000	775497.000000	1769635361.971493
15692.670000	18428.760000	25771.725000	37459.980000	11977.425000	-4068.360000	-7356.690000	-1721.835000	-4.658355	56.717404	91.639445	-34.414190	-17.021691	-5.151350	-2.061570	-15.523323	-6.607580	10.956680	-1.068200	-0.871641	-0.242675	0.346496	-1.000000	-1.000000	-1.000000	-1.000000	-1.000000	-1.000000	-1.000000	85.034483	0.000000	-1.000000	-1.000000	775498.000000	1769635361.971532
15698.475000	18595.575000	26095.410000	37674.855000	12102.930000	-3999.555000	-7354.980000	-1768.365000	34.856728	91.387399	132.619435	-74.446255	-17.185915	-7.166307	-10.762521	20.963842	-6.607580	10.956680	-1.068200	-0.871641	-0.242675	0.346496	-1.000000	-1.000000	-1.000000	-1.000000	-1.000000	-1.000000	-1.000000	85.034483	0.000000	-1.000000	-1.000000	775499.000000	1769635361.975378
15690.195000	18578.070000	26102.295000	37847.070000	12186.360000	-3935.655000	-7296.615000	-1784.475000	50.570831	96.730754	139.123717	-81.551507	-4.718844	1.009807	-8.031903	38.178388	-6.607580	10.956680	-1.068200	-0.871641	-0.242675	0.346496	-1.000000	-1.000000	-1.000000	-1.000000	-1.000000	-1.000000	-1.000000	85.034483	0.000000	-1.000000	-1.000000	775500.000000	1769635361.975393
15677.100000	18529.785000	25984.350000	37924.560000	12187.710000	-3948.615000	-7325.820000	-1788.750000	37.072074	73.734762	115.871043	-34.229834	20.067787	17.421228	1.485326	26.815771	-6.607580	10.956680	-1.068200	-0.871641	-0.242675	0.346496	-1.000000	-1.000000	-1.000000	-1.000000	-1.000000	-1.000000	-1.000000	85.034483	0.000000	-1.000000	-1.000000	775501.000000	1769635361.979501
15689.160000	18570.195000	25962.795000	37941.885000	12177.810000	-3974.490000	-7364.070000	-1797.030000	8.978667	26.849465	57.357523	43.720739	41.135669	28.319248	7.306301	1.614849	-6.607580	10.956680	-1.068200	-0.871641	-0.242675	0.346496	-1.000000	-1.000000	-1.000000	-1.000000	-1.000000	-1.000000	-1.000000	85.034483	0.000000	-1.000000	-1.000000	775502.000000	1769635361.979512
15692.760000	18505.710000	25867.080000	37852.605000	12173.490000	-3966.435000	-7351.065000	-1771.155000	-13.852688	-31.746789	-33.275207	101.311103	41.626165	21.553053	2.079852	-15.692233	-6.607580	10.956680	-1.068200	-0.871641	-0.242675	0.346496	-1.000000	-1.000000	-1.000000	-1.000000	-1.000000	-1.000000	-1.000000	85.034483	0.000000	-1.000000	-1.000000	775503.000000	1769635361.983483
15672.375000	18489.645000	25854.795000	37808.370000	12165.300000	-3957.615000	-7349.085000	-1769.445000	-21.785129	-85.334946	-131.169762	101.677574	19.726126	-0.151020	-10.134016	-14.619676	-6.607580	10.956680	-1.068200	-0.871641	-0.242675	0.346496	-1.000000	-1.000000	-1.000000	-1.000000	-1.000000	-1.000000	-1.000000	85.034483	0.000000	-1.000000	-1.000000	775504.000000	1769635361.983494
15662.385000	18524.385000	25882.155000	37803.870000	12128.985000	-3995.820000	-7352.010000	-1784.115000	-21.418569	-117.789090	-196.400200	49.849623	-11.942178	-22.585278	-17.491531	-3.514421	-6.607580	10.956680	-1.068200	-0.871641	-0.242675	0.346496	-1.000000	-1.000000	-1.000000	-1.000000	-1.000000	-1.000000	-1.000000	85.034483	0.000000	-1.000000	-1.000000	775505.000000	1769635361.987329
15685.065000	18542.070000	25875.180000	37773.585000	12128.175000	-3986.730000	-7311.690000	-1772.910000	-23.491188	-116.459470	-197.258497	-12.740734	-36.270796	-33.390940	-13.530389	0.944860	-6.607580	10.956680	-1.068200	-0.871641	-0.242675	0.346496	-1.000000	-1.000000	-1.000000	-1.000000	-1.000000	-1.000000	-1.000000	85.034483	0.000000	-1.000000	-1.000000	775506.000000	1769635361.987341
15720.795000	18545.670000	25913.295000	37801.800000	12143.655000	-3961.665000	-7313.490000	-1738.845000	-27.260176	-80.386285	-134.005431	-46.993567	-42.297440	-29.202249	-2.261743	-6.410313	-34.594420	8.118320	-6.363420	-0.915952	-0.223205	0.320983	-1.000000	-1.000000	-1.000000	-1.000000	-1.000000	-1.000000	-1.000000	85.034483	0.000000	-1.000000	-1.000000	775507.000000	1769635361.994407
15667.470000	18497.340000	25891.380000	37815.570000	12147.030000	-3955.770000	-7286.670000	-1772.865000	-24.099945	-24.419010	-37.073330	-49.107835	-32.214371	-14.917183	8.203696	-15.606129	-34.594420	8.118320	-6.363420	-0.915952	-0.223205	0.320983	-1.000000	-1.000000	-1.000000	-1.000000	-1.000000	-1.000000	-1.000000	85.034483	0.000000	-1.000000	-1.000000	775508.000000	1769635361.994418
15644.790000	18503.595000	25933.005000	37882.845000	12168.630000	-3948.480000	-7287.705000	-1800.720000	-11.281680	31.388361	58.388945	-40.117777	-16.490469	0.814196	12.549252	-16.666682	-34.594420	8.118320	-6.363420	-0.915952	-0.223205	0.320983	-1.000000	-1.000000	-1.000000	-1.000000	-1.000000	-1.000000	-1.000000	85.034483	0.000000	-1.000000	-1.000000	775509.000000	1769635361.995455
15668.460000	18524.970000	25952.490000	37924.920000	12177.090000	-3973.050000	-7364.970000	-1794.960000	6.655473	73.632668	130.895665	-33.380701	-2.020691	11.577131	9.616119	-8.599773	-34.594420	8.118320	-6.363420	-0.915952	-0.223205	0.320983	-1.000000	-1.000000	-1.000000	-1.000000	-1.000000	-1.000000	-1.000000	85.034483	0.000000	-1.000000	-1.000000	775510.000000	1769635361.995463
15671.745000	18477.720000	25896.735000	37887.930000	12136.680000	-4021.605000	-7408.080000	-1769.040000	24.149069	93.769805	165.940290	-26.086906	9.693269	14.950848	0.626621	4.980058	-34.594420	8.118320	-6.363420	-0.915952	-0.223205	0.320983	-1.000000	-1.000000	-1.000000	-1.000000	-1.000000	-1.000000	-1.000000	85.034483	0.000000	-1.000000	-1.000000	775511.000000	1769635361.999396
15623.370000	18452.160000	25871.355000	37866.780000	12115.170000	-4033.305000	-7397.595000	-1806.930000	35.158376	85.723677	151.113790	-13.025109	16.846878	10.974913	-10.408922	18.544431	-34.594420	8.118320	-6.363420	-0.915952	-0.223205	0.320983	-1.000000	-1.000000	-1.000000	-1.000000	-1.000000	-1.000000	-1.000000	85.034483	0.000000	-1.000000	-1.000000	775512.000000	1769635361.999410
15653.070000	18494.955000	25909.740000	37922.670000	12167.505000	-3944.070000	-7324.515000	-1789.695000	33.818441	52.764919	90.077614	5.945639	18.654585	4.472605	-15.043889	24.598840	-34.594420	8.118320	-6.363420	-0.915952	-0.223205	0.320983	-1.000000	-1.000000	-1.000000	-1.000000	-1.000000	-1.000000	-1.000000	85.034483	0.000000	-1.000000	-1.000000	775513.000000	1769635362.009415
15699.330000	18513.855000	25922.610000	37951.380000	12188.700000	-3908.880000	-7300.530000	-1753.920000	20.413705	9.362004	8.217888	28.035550	18.973620	4.489686	-6.446871	19.405055	-34.594420	8.118320	-6.363420	-0.915952	-0.223205	0.320983	-1.000000	-1.000000	-1.000000	-1.000000	-1.000000	-1.000000	-1.000000	85.034483	0.000000	-1.000000	-1.000000	775514.000000	1769635362.009428
15645.870000	18443.070000	25847.460000	37888.245000	12130.560000	-3997.890000	-7315.920000	-1791.090000	1.471645	-28.479007	-63.269961	46.316313	19.705619	11.884187	10.372159	6.152434	-34.594420	8.118320	-6.363420	-0.915952	-0.223205	0.320983	-1.000000	-1.000000	-1.000000	-1.000000	-1.000000	-1.000000	-1.000000	85.034483	0.000000	-1.000000	-1.000000	775515.000000	1769635362.009463
15613.695000	18417.555000	25824.060000	37875.870000	12125.745000	-4030.290000	-7332.030000	-1825.200000	-16.870185	-51.561607	-104.612032	47.524032	15.113218	14.302096	21.589527	-9.569722	-34.594420	8.118320	-6.363420	-0.915952	-0.223205	0.320983	-1.000000	-1.000000	-1.000000	-1.000000	-1.000000	-1.000000	-1.000000	85.034483	0.000000	-1.000000	-1.000000	775516.000000	1769635362.009468
15662.745000	18471.735000	25876.980000	37924.020000	12158.730000	-4019.670000	-7422.120000	-1824.660000	-28.090158	-54.584606	-107.745470	23.573274	1.357570	2.998196	17.200986	-21.345333	-48.007960	-3.921820	13.688220	-0.908872	-0.258666	0.324035	-1.000000	-1.000000	-1.000000	-1.000000	-1.000000	-1.000000	-1.000000	85.034483	0.000000	-1.000000	-1.000000	775517.000000	1769635362.011464
15683.355000	18485.730000	25892.145000	37939.230000	12163.095000	-4014.045000	-7396.875000	-1802.205000	-24.563172	-34.998859	-72.494881	-15.353067	-15.095587	-14.573168	-0.793185	-22.166634	-48.007960	-3.921820	13.688220	-0.908872	-0.258666	0.324035	-1.000000	-1.000000	-1.000000	-1.000000	-1.000000	-1.000000	-1.000000	85.034483	0.000000	-1.000000	-1.000000	775518.000000	1769635362.011480
15698.790000	18482.580000	25888.095000	37936.800000	12158.685000	-4014.495000	-7398.495000	-1763.595000	-6.892970	-1.208184	-12.919747	-47.625329	-24.151248	-23.862222	-17.718661	-9.935507	-48.007960	-3.921820	13.688220	-0.908872	-0.258666	0.324035	-1.000000	-1.000000	-1.000000	-1.000000	-1.000000	-1.000000	-1.000000	85.034483	0.000000	-1.000000	-1.000000	775519.000000	1769635362.015313
15640.200000	18440.010000	25847.460000	37900.935000	12127.770000	-4033.530000	-7381.440000	-1772.730000	13.055043	28.689704	43.839397	-56.167126	-21.250287	-17.729297	-19.031957	8.876553	-48.007960	-3.921820	13.688220	-0.908872	-0.258666	0.324035	-1.000000	-1.000000	-1.000000	-1.000000	-1.000000	-1.000000	-1.000000	85.034483	0.000000	-1.000000	-1.000000	775520.000000	1769635362.015326
15574.410000	18409.635000	25816.770000	37872.270000	12104.820000	-4052.205000	-7377.345000	-1832.265000	21.413736	39.438935	72.668375	-38.630429	-9.961014	-1.936706	-5.231551	22.381331	-48.007960	-3.921820	13.688220	-0.908872	-0.258666	0.324035	-1.000000	-1.000000	-1.000000	-1.000000	-1.000000	-1.000000	-1.000000	85.034483	0.000000	-1.000000	-1.000000	775521.000000	1769635362.019409
15622.425000	18455.310000	25857.360000	37907.370000	12133.170000	-4043.430000	-7407.945000	-1830.870000	12.785831	27.420375	64.183527	-7.104352	1.823209	10.805565	10.147123	20.896595	-48.007960	-3.921820	13.688220	-0.908872	-0.258666	0.324035	-1.000000	-1.000000	-1.000000	-1.000000	-1.000000	-1.000000	-1.000000	85.034483	0.000000	-1.000000	-1.000000	775522.000000	1769635362.019426
15698.520000	18527.310000	25932.420000	37986.795000	12213.585000	-3965.670000	-7387.875000	-1793.070000	-4.252847	3.707117	30.534629	24.225460	10.390453	14.243356	14.534386	5.535349	-48.007960	-3.921820	13.688220	-0.908872	-0.258666	0.324035	-1.000000	-1.000000	-1.000000	-1.000000	-1.000000	-1.000000	-1.000000	85.034483	0.000000	-1.000000	-1.000000	775523.000000	1769635362.023386
15705.585000	18522.000000	25926.345000	37995.570000	12229.785000	-3922.830000	-7308.090000	-1768.815000	-13.770151	-13.316419	-3.627125	47.181733	17.924714	14.255405	8.464661	-10.997840	-48.007960	-3.921820	13.688220	-0.908872	-0.258666	0.324035	-1.000000	-1.000000	-1.000000	-1.000000	-1.000000	-1.000000	-1.000000	85.034483	0.000000	-1.000000	-1.000000	775524.000000	1769635362.023400
15627.285000	18424.800000	25826.445000	37917.405000	12145.005000	-3993.615000	-7330.455000	-1800.495000	-9.431695	-15.872997	-23.128105	53.322258	22.367889	16.156252	2.481251	-16.321050	-48.007960	-3.921820	13.688220	-0.908872	-0.258666	0.324035	-1.000000	-1.000000	-1.000000	-1.000000	-1.000000	-1.000000	-1.000000	85.034483	0.000000	-1.000000	-1.000000	775525.000000	1769635362.031170
15581.295000	18367.110000	25758.045000	37878.255000	12103.380000	-4030.470000	-7362.270000	-1827.090000	-0.868851	-12.905590	-31.180211	33.782688	14.823039	13.901337	2.211160	-10.111138	-48.007960	-3.921820	13.688220	-0.908872	-0.258666	0.324035	-1.000000	-1.000000	-1.000000	-1.000000	-1.000000	-1.000000	-1.000000	85.034483	0.000000	-1.000000	-1.000000	775526.000000	1769635362.031183
15616.035000	18402.255000	25793.820000	37918.575000	12133.890000	-4015.710000	-7378.965000	-1811.430000	0.734921	-13.949464	-34.373126	-5.954646	-5.813690	1.363627	3.559440	-1.222143	-43.582560	5.997180	14.405440	-0.833311	-0.311279	0.340819	-1.000000	-1.000000	-1.000000	-1.000000	-1.000000	-1.000000	-1.000000	85.034483	0.000000	-1.000000	-1.000000	775527.000000	1769635362.031646
15623.280000	18410.085000	25810.110000	37960.605000	12168.495000	-3980.115000	-7356.870000	-1807.065000	-3.275841	-15.453217	-29.618609	-41.514831	-25.146313	-14.763733	1.525035	3.300503	-43.582560	5.997180	14.405440	-0.833311	-0.311279	0.340819	-1.000000	-1.000000	-1.000000	-1.000000	-1.000000	-1.000000	-1.000000	85.034483	0.000000	-1.000000	-1.000000	775528.000000	1769635362.031657
15605.820000	18382.095000	25756.155000	37939.770000	12128.220000	-3992.805000	-7363.305000	-1816.695000	-3.804556	-8.976801	-12.542316	-49.283457	-27.820922	-22.208449	-3.743805	3.275060	-43.582560	5.997180	14.405440	-0.833311	-0.311279	0.340819	-1.000000	-1.000000	-1.000000	-1.000000	-1.000000	-1.000000	-1.000000	85.034483	0.000000	-1.000000	-1.000000	775529.000000	1769635362.035571
15589.710000	18344.340000	25697.025000	37901.205000	12051.900000	-4032.270000	-7379.730000	-1834.155000	2.742348	4.238378	9.356797	-28.216813	-14.740472	-17.777381	-9.512320	2.222821	-43.582560	5.997180	14.405440	-0.833311	-0.311279	0.340819	-1.000000	-1.000000	-1.000000	-1.000000	-1.000000	-1.000000	-1.000000	85.034483	0.000000	-1.000000	-1.000000	775530.000000	1769635362.035584
15599.295000	18357.165000	25713.495000	37926.405000	12076.875000	-4043.790000	-7417.440000	-1863.540000	9.826839	13.765282	21.555555	2.219425	0.109372	-9.205412	-13.847443	1.230139	-43.582560	5.997180	14.405440	-0.833311	-0.311279	0.340819	-1.000000	-1.000000	-1.000000	-1.000000	-1.000000	-1.000000	-1.000000	85.034483	0.000000	-1.000000	-1.000000	775531.000000	1769635362.039478
15650.415000	18447.705000	25819.830000	38019.780000	12199.320000	-4002.480000	-7400.205000	-1843.335000	9.792115	13.991772	19.664556	23.400278	8.217371	-4.107761	-15.857484	-1.528964	-43.582560	5.997180	14.405440	-0.833311	-0.311279	0.340819	-1.000000	-1.000000	-1.000000	-1.000000	-1.000000	-1.000000	-1.000000	85.034483	0.000000	-1.000000	-1.000000	775532.000000	1769635362.039485
15655.275000	18439.920000	25806.330000	37968.930000	12221.235000	-3974.445000	-7346.655000	-1797.705000	4.345459	10.934223	13.603735	29.952771	13.711166	-1.511298	-13.879970	-4.407289	-43.582560	5.997180	14.405440	-0.833311	-0.311279	0.340819	-1.000000	-1.000000	-1.000000	-1.000000	-1.000000	-1.000000	-1.000000	85.034483	0.000000	-1.000000	-1.000000	775533.000000	1769635362.043526
15617.880000	18405.225000	25772.715000	37792.620000	12116.205000	-4012.380000	-7327.350000	-1783.710000	0.698897	11.688796	12.849457	22.024097	19.979457	3.803053	-4.712077	-1.822106	-43.582560	5.997180	14.405440	-0.833311	-0.311279	0.340819	-1.000000	-1.000000	-1.000000	-1.000000	-1.000000	-1.000000	-1.000000	85.034483	0.000000	-1.000000	-1.000000	775534.000000	1769635362.043534
15614.865000	18401.085000	25776.135000	37697.760000	12045.465000	-4043.295000	-7332.975000	-1780.470000	0.916850	14.289623	15.799632	-0.804825	19.897428	11.514641	11.433128	7.173976	-43.582560	5.997180	14.405440	-0.833311	-0.311279	0.340819	-1.000000	-1.000000	-1.000000	-1.000000	-1.000000	-1.000000	-1.000000	85.034483	0.000000	-1.000000	-1.000000	775535.000000	1769635362.050113
15647.445000	18418.275000	25796.250000	37718.505000	12040.380000	-4046.535000	-7341.255000	-1760.040000	1.434197	12.002331	15.007630	-30.741446	6.357867	15.228535	26.460093	15.593445	-43.582560	5.997180	14.405440	-0.833311	-0.311279	0.340819	-1.000000	-1.000000	-1.000000	-1.000000	-1.000000	-1.000000	-1.000000	85.034483	0.000000	-1.000000	-1.000000	775536.000000	1769635362.050127
15664.185000	18389.655000	25782.390000	37761.390000	12029.130000	-4057.155000	-7329.330000	-1733.130000	0.424263	2.447256	6.742116	-47.983790	-14.772617	10.860518	30.066970	16.416275	-62.794900	-10.956680	-10.987200	-0.871519	-0.271911	0.355773	-1.000000	-1.000000	-1.000000	-1.000000	-1.000000	-1.000000	-1.000000	85.034483	0.000000	-1.000000	-1.000000	775537.000000	1769635362.051517
15663.555000	18361.620000	25759.845000	37815.435000	12038.310000	-4056.255000	-7322.895000	-1728.990000	-0.170469	-10.394451	-5.714581	-35.285549	-28.080819	1.526776	19.457691	9.679705	-62.794900	-10.956680	-10.987200	-0.871519	-0.271911	0.355773	-1.000000	-1.000000	-1.000000	-1.000000	-1.000000	-1.000000	-1.000000	85.034483	0.000000	-1.000000	-1.000000	775538.000000	1769635362.051527
15686.730000	18373.140000	25774.380000	37852.695000	12089.295000	-4057.110000	-7354.440000	-1723.050000	0.572436	-20.340982	-16.087730	4.969792	-22.151820	-5.752327	1.033983	0.076397	-62.794900	-10.956680	-10.987200	-0.871519	-0.271911	0.355773	-1.000000	-1.000000	-1.000000	-1.000000	-1.000000	-1.000000	-1.000000	85.034483	0.000000	-1.000000	-1.000000	775539.000000	1769635362.055328
15640.155000	18343.935000	25770.420000	37845.135000	12105.360000	-4037.805000	-7342.470000	-1755.360000	-0.497280	-24.084538	-21.383663	48.862148	-0.546102	-6.899344	-15.765157	-8.889156	-62.794900	-10.956680	-10.987200	-0.871519	-0.271911	0.355773	-1.000000	-1.000000	-1.000000	-1.000000	-1.000000	-1.000000	-1.000000	85.034483	0.000000	-1.000000	-1.000000	775540.000000	1769635362.055339
15626.970000	18425.205000	25867.935000	37918.080000	12144.285000	-4006.890000	-7386.480000	-1805.490000	-7.245092	-21.764106	-21.926505	68.620292	20.001647	-3.488499	-25.335638	-17.259718	-62.794900	-10.956680	-10.987200	-0.871519	-0.271911	0.355773	-1.000000	-1.000000	-1.000000	-1.000000	-1.000000	-1.000000	-1.000000	85.034483	0.000000	-1.000000	-1.000000	775541.000000	1769635362.059503
15637.545000	18438.930000	25862.985000	37901.745000	12117.285000	-4028.895000	-7394.985000	-1813.050000	-16.743392	-12.004674	-15.791021	56.408956	26.048265	0.775926	-27.847226	-25.376034	-62.794900	-10.956680	-10.987200	-0.871519	-0.271911	0.355773	-1.000000	-1.000000	-1.000000	-1.000000	-1.000000	-1.000000	-1.000000	85.034483	0.000000	-1.000000	-1.000000	775542.000000	1769635362.059516
15657.840000	18442.620000	25851.285000	37890.945000	12113.100000	-4034.610000	-7391.340000	-1785.735000	-19.076948	5.870883	-1.850526	26.864820	18.990443	3.788721	-24.162783	-28.737147	-62.794900	-10.956680	-10.987200	-0.871519	-0.271911	0.355773	-1.000000	-1.000000	-1.000000	-1.000000	-1.000000	-1.000000	-1.000000	85.034483	0.000000	-1.000000	-1.000000	775543.000000	1769635362.063641
15680.115000	18459.720000	25859.835000	37915.470000	12141.360000	-4022.415000	-7360.245000	-1761.570000	-8.793145	24.497220	13.133099	-1.927367	8.560452	5.347931	-12.736364	-20.836702	-62.794900	-10.956680	-10.987200	-0.871519	-0.271911	0.355773	-1.000000	-1.000000	-1.000000	-1.000000	-1.000000	-1.000000	-1.000000	85.034483	0.000000	-1.000000	-1.000000	775544.000000	1769635362.063649
15700.275000	18412.020000	25806.870000	37891.755000	12135.105000	-4018.095000	-7344.045000	-1730.565000	8.214373	32.082718	18.932170	-22.695959	1.006487	5.505056	5.611742	-1.838832	-62.794900	-10.956680	-10.987200	-0.871519	-0.271911	0.355773	-1.000000	-1.000000	-1.000000	-1.000000	-1.000000	-1.000000	-1.000000	85.034483	0.000000	-1.000000	-1.000000	775545.000000	1769635362.067493
15617.205000	18398.610000	25812.675000	37890.360000	12157.335000	-3990.465000	-7344.765000	-1798.605000	20.220956	23.133659	12.010767	-37.084457	-3.642543	4.199961	23.777932	18.804535	-62.794900	-10.956680	-10.987200	-0.871519	-0.271911	0.355773	-1.000000	-1.000000	-1.000000	-1.000000	-1.000000	-1.000000	-1.000000	85.034483	0.000000	-1.000000	-1.000000	775546.000000	1769635362.067501
15592.455000	18494.685000	25898.040000	37937.520000	12205.440000	-3965.265000	-7386.210000	-1870.065000	18.371814	4.667440	0.109239	-45.596279	-6.471775	2.464366	32.074388	28.119499	-47.840100	-6.393940	9.506980	-0.882871	-0.231872	0.332946	-1.000000	-1.000000	-1.000000	-1.000000	-1.000000	-1.000000	-1.000000	85.034483	0.000000	-1.000000	-1.000000	775547.000000	1769635362.072068
15642.405000	18518.085000	25917.210000	37958.670000	12211.830000	-3964.230000	-7394.760000	-1837.665000	4.378462	-9.403720	-5.302986	-44.012831	-8.022282	1.146332	25.920268	20.942121	-47.840100	-6.393940	9.506980	-0.882871	-0.231872	0.332946	-1.000000	-1.000000	-1.000000	-1.000000	-1.000000	-1.000000	-1.000000	85.034483	0.000000	-1.000000	-1.000000	775548.000000	1769635362.072080
15655.995000	18508.095000	25901.280000	37948.410000	12193.020000	-3962.655000	-7349.085000	-1815.795000	-9.239778	-12.887582	-2.886473	-30.869150	-10.950480	-1.424362	10.096093	6.498702	-47.840100	-6.393940	9.506980	-0.882871	-0.231872	0.332946	-1.000000	-1.000000	-1.000000	-1.000000	-1.000000	-1.000000	-1.000000	85.034483	0.000000	-1.000000	-1.000000	775549.000000	1769635362.075460
15633.720000	18462.330000	25852.545000	37899.180000	12145.860000	-3973.770000	-7286.535000	-1816.740000	-11.880637	-12.235899	-2.042700	-12.596159	-17.647704	-7.092256	-4.130665	-1.642464	-47.840100	-6.393940	9.506980	-0.882871	-0.231872	0.332946	-1.000000	-1.000000	-1.000000	-1.000000	-1.000000	-1.000000	-1.000000	85.034483	0.000000	-1.000000	-1.000000	775550.000000	1769635362.075472
15628.095000	18450.855000	25843.500000	37890.900000	12135.600000	-3996.225000	-7321.905000	-1819.215000	-4.739746	-14.906239	-8.404024	3.443069	-24.318138	-13.658801	-8.714504	0.105421	-47.840100	-6.393940	9.506980	-0.882871	-0.231872	0.332946	-1.000000	-1.000000	-1.000000	-1.000000	-1.000000	-1.000000	-1.000000	85.034483	0.000000	-1.000000	-1.000000	775551.000000	1769635362.079375
15643.530000	18465.525000	25865.955000	37914.975000	12153.555000	-3988.755000	-7330.815000	-1803.870000	4.119090	-19.147168	-15.870166	16.043884	-22.571174	-16.131371	-6.494871	5.161202	-47.840100	-6.393940	9.506980	-0.882871	-0.231872	0.332946	-1.000000	-1.000000	-1.000000	-1.000000	-1.000000	-1.000000	-1.000000	85.034483	0.000000	-1.000000	-1.000000	775552.000000	1769635362.079386
15650.280000	18475.425000	25892.685000	37935.990000	12155.715000	-3990.375000	-7345.530000	-1812.330000	8.308523	-17.837240	-14.736914	26.065233	-9.008917	-11.877419	-5.789849	5.862291	-47.840100	-6.393940	9.506980	-0.882871	-0.231872	0.332946	-1.000000	-1.000000	-1.000000	-1.000000	-1.000000	-1.000000	-1.000000	85.034483	0.000000	-1.000000	-1.000000	775553.000000	1769635362.085241
15641.055000	18463.950000	25888.005000	37941.840000	12153.825000	-3993.975000	-7353.360000	-1831.230000	6.546048	-7.185952	-2.124075	31.442288	10.316460	-3.018309	-10.123400	-0.232362	-47.840100	-6.393940	9.506980	-0.882871	-0.231872	0.332946	-1.000000	-1.000000	-1.000000	-1.000000	-1.000000	-1.000000	-1.000000	85.034483	0.000000	-1.000000	-1.000000	775554.000000	1769635362.085251
15614.280000	18418.275000	25822.170000	37907.730000	12121.650000	-4015.890000	-7329.915000	-1829.205000	2.219992	8.286332	14.057189	28.303898	24.680892	5.243994	-15.386694	-8.459369	-47.840100	-6.393940	9.506980	-0.882871	-0.231872	0.332946	-1.000000	-1.000000	-1.000000	-1.000000	-1.000000	-1.000000	-1.000000	85.034483	0.000000	-1.000000	-1.000000	775555.000000	1769635362.087385
15617.970000	18409.095000	25785.315000	37897.155000	12119.625000	-4019.805000	-7326.585000	-1806.930000	-1.069089	17.459379	19.600013	14.222787	25.764886	8.458408	-14.172755	-10.840932	-47.840100	-6.393940	9.506980	-0.882871	-0.231872	0.332946	-1.000000	-1.000000	-1.000000	-1.000000	-1.000000	-1.000000	-1.000000	85.034483	0.000000	-1.000000	-1.000000	775556.000000	1769635362.087392
15633.945000	18431.955000	25799.985000	37909.665000	12134.250000	-4012.020000	-7361.415000	-1798.470000	-3.034281	14.091872	8.554980	-6.829831	14.030744	6.512598	-4.700077	-4.930848	-26.552400	-7.889420	-1.342880	-0.862119	-0.266052	0.317260	-1.000000	-1.000000	-1.000000	-1.000000	-1.000000	-1.000000	-1.000000	85.034483	0.000000	-1.000000	-1.000000	775557.000000	1769635362.091383
15631.695000	18452.385000	25816.275000	37862.145000	12111.345000	-4013.910000	-7360.830000	-1805.085000	-4.246708	4.505359	-8.644051	-24.446391	-1.196392	3.038812	5.455349	3.508630	-26.552400	-7.889420	-1.342880	-0.862119	-0.266052	0.317260	-1.000000	-1.000000	-1.000000	-1.000000	-1.000000	-1.000000	-1.000000	85.034483	0.000000	-1.000000	-1.000000	775558.000000	1769635362.091395
15639.345000	18489.915000	25876.395000	37853.820000	12102.795000	-4017.915000	-7361.145000	-1810.665000	-3.740900	-0.017788	-15.350266	-29.446680	-9.790047	1.712018	8.466652	7.442459	-26.552400	-7.889420	-1.342880	-0.862119	-0.266052	0.317260	-1.000000	-1.000000	-1.000000	-1.000000	-1.000000	-1.000000	-1.000000	85.034483	0.000000	-1.000000	-1.000000	775559.000000	1769635362.097981
15644.250000	18486.360000	25888.410000	37878.660000	12096.495000	-4018.140000	-7351.425000	-1812.690000	-0.913001	4.942064	-4.313323	-19.376226	-8.059502	3.825965	5.344975	4.540819	-26.552400	-7.889420	-1.342880	-0.862119	-0.266052	0.317260	-1.000000	-1.000000	-1.000000	-1.000000	-1.000000	-1.000000	-1.000000	85.034483	0.000000	-1.000000	-1.000000	775560.000000	1769635362.097994
15635.610000	18460.350000	25847.955000	37858.320000	12060.180000	-4028.490000	-7335.945000	-1813.590000	2.176617	12.777760	14.990906	-0.191443	-0.569931	7.324666	2.695723	-2.828965	-26.552400	-7.889420	-1.342880	-0.862119	-0.266052	0.317260	-1.000000	-1.000000	-1.000000	-1.000000	-1.000000	-1.000000	-1.000000	85.034483	0.000000	-1.000000	-1.000000	775561.000000	1769635362.100257
15634.080000	18506.835000	25875.225000	37873.305000	12046.410000	-4058.325000	-7381.215000	-1827.765000	2.468222	14.206055	25.656622	16.523949	4.515753	7.984190	3.634541	-10.070830	-26.552400	-7.889420	-1.342880	-0.862119	-0.266052	0.317260	-1.000000	-1.000000	-1.000000	-1.000000	-1.000000	-1.000000	-1.000000	85.034483	0.000000	-1.000000	-1.000000	775562.000000	1769635362.100283
15650.685000	18505.980000	25874.685000	37865.655000	12063.285000	-4038.525000	-7417.620000	-1823.895000	0.498542	8.371935	20.901697	22.580098	3.922675	3.799252	4.640493	-12.529276	-26.552400	-7.889420	-1.342880	-0.862119	-0.266052	0.317260	-1.000000	-1.000000	-1.000000	-1.000000	-1.000000	-1.000000	-1.000000	85.034483	0.000000	-1.000000	-1.000000	775563.000000	1769635362.103379
15644.160000	18393.705000	25809.480000	37874.565000	12127.005000	-3999.465000	-7381.890000	-1810.485000	0.016625	-1.149006	6.215779	18.090195	1.868458	-1.764956	2.086253	-7.755092	-26.552400	-7.889420	-1.342880	-0.862119	-0.266052	0.317260	-1.000000	-1.000000	-1.000000	-1.000000	-1.000000	-1.000000	-1.000000	85.034483	0.000000	-1.000000	-1.000000	775564.000000	1769635362.103391
15660.135000	18429.480000	25849.530000	37910.880000	12156.165000	-3980.745000	-7383.915000	-1808.910000	1.939186	-13.331065	-10.161058	8.474170	3.661839	-3.351270	-1.475818	1.869288	-26.552400	-7.889420	-1.342880	-0.862119	-0.266052	0.317260	-1.000000	-1.000000	-1.000000	-1.000000	-1.000000	-1.000000	-1.000000	85.034483	0.000000	-1.000000	-1.000000	775565.000000	1769635362.108431
15684.120000	18482.535000	25889.670000	37936.170000	12139.110000	-4004.865000	-7399.845000	-1802.565000	3.630494	-23.655322	-20.520611	0.221860	8.366574	-0.733884	-1.879520	10.223664	-26.552400	-7.889420	-1.342880	-0.862119	-0.266052	0.317260	-1.000000	-1.000000	-1.000000	-1.000000	-1.000000	-1.000000	-1.000000	85.034483	0.000000	-1.000000	-1.000000	775566.000000	1769635362.108445
15672.105000	18481.545000	25878.645000	37954.665000	12199.635000	-4028.355000	-7394.850000	-1805.625000	3.338642	-23.896257	-20.368273	-2.227534	11.088147	0.986470	0.270855	12.847588	6.393940	0.549360	13.413540	-0.857664	-0.306274	0.347106	-1.000000	-1.000000	-1.000000	-1.000000	-1.000000	-1.000000	-1.000000	85.034483	0.000000	-1.000000	-1.000000	775567.000000	1769635362.119982
15626.250000	18403.605000	25804.665000	37905.660000	12186.135000	-4013.640000	-7335.765000	-1809.270000	0.330390	-13.832213	-13.745408	0.072787	9.894676	-1.358395	2.771591	9.569450	6.393940	0.549360	13.413540	-0.857664	-0.306274	0.347106	-1.000000	-1.000000	-1.000000	-1.000000	-1.000000	-1.000000	-1.000000	85.034483	0.000000	-1.000000	-1.000000	775568.000000	1769635362.119996
15596.865000	18346.410000	25754.535000	37848.195000	12142.755000	-3998.115000	-7247.655000	-1798.785000	-6.120873	-2.823282	-9.418429	-0.273629	4.411685	-5.126971	6.660328	2.932891	6.393940	0.549360	13.413540	-0.857664	-0.306274	0.347106	-1.000000	-1.000000	-1.000000	-1.000000	-1.000000	-1.000000	-1.000000	85.034483	0.000000	-1.000000	-1.000000	775569.000000	1769635362.120010
15650.145000	18444.735000	25852.815000	37927.800000	12175.110000	-3991.860000	-7325.145000	-1781.910000	-13.095422	3.238186	-8.621011	-7.674714	-5.277148	-5.839093	11.770331	-3.300826	6.393940	0.549360	13.413540	-0.857664	-0.306274	0.347106	-1.000000	-1.000000	-1.000000	-1.000000	-1.000000	-1.000000	-1.000000	85.034483	0.000000	-1.000000	-1.000000	775570.000000	1769635362.120016
15605.685000	18449.955000	25856.055000	37906.920000	12118.725000	-4070.115000	-7420.320000	-1833.390000	-14.331591	8.104774	-3.568280	-15.899726	-15.539957	-3.260845	11.291662	-6.421985	6.393940	0.549360	13.413540	-0.857664	-0.306274	0.347106	-1.000000	-1.000000	-1.000000	-1.000000	-1.000000	-1.000000	-1.000000	85.034483	0.000000	-1.000000	-1.000000	775571.000000	1769635362.120022
15538.905000	18406.395000	25814.520000	37836.495000	12029.400000	-4168.260000	-7493.895000	-1898.550000	-8.797488	15.156105	8.802819	-18.040996	-23.810546	-3.462196	-1.522534	-7.898150	6.393940	0.549360	13.413540	-0.857664	-0.306274	0.347106	-1.000000	-1.000000	-1.000000	-1.000000	-1.000000	-1.000000	-1.000000	85.034483	0.000000	-1.000000	-1.000000	775572.000000	1769635362.120027
15539.535000	18443.070000	25837.650000	37839.420000	12036.240000	-4157.505000	-7499.025000	-1917.180000	-2.102745	21.657004	21.613764	-15.284422	-30.721384	-11.194220	-22.871268	-11.048336	6.393940	0.549360	13.413540	-0.857664	-0.306274	0.347106	-1.000000	-1.000000	-1.000000	-1.000000	-1.000000	-1.000000	-1.000000	85.034483	0.000000	-1.000000	-1.000000	775573.000000	1769635362.124460
15645.960000	18486.045000	25900.515000	37951.740000	12168.945000	-4017.645000	-7427.880000	-1841.805000	3.365249	23.559829	27.208293	-9.329293	-30.950091	-18.511224	-37.662228	-13.762788	6.393940	0.549360	13.413540	-0.857664	-0.306274	0.347106	-1.000000	-1.000000	-1.000000	-1.000000	-1.000000	-1.000000	-1.000000	85.034483	0.000000	-1.000000	-1.000000	775574.000000	1769635362.124480
15759.090000	18559.665000	25965.180000	38013.885000	12245.130000	-3890.205000	-7341.030000	-1745.055000	12.166568	18.839246	23.776906	2.813003	-13.886579	-9.052749	-30.252602	-7.877061	6.393940	0.549360	13.413540	-0.857664	-0.306274	0.347106	-1.000000	-1.000000	-1.000000	-1.000000	-1.000000	-1.000000	-1.000000	85.034483	0.000000	-1.000000	-1.000000	775575.000000	1769635362.127519
15733.935000	18502.830000	25900.065000	37977.570000	12215.610000	-3895.380000	-7235.865000	-1726.470000	26.059152	8.477545	13.790284	20.148103	18.536044	20.535133	0.935410	10.075169	6.393940	0.549360	13.413540	-0.857664	-0.306274	0.347106	-1.000000	-1.000000	-1.000000	-1.000000	-1.000000	-1.000000	-1.000000	85.034483	0.000000	-1.000000	-1.000000	775576.000000	1769635362.127536
15665.220000	18423.180000	25828.875000	37921.500000	12169.215000	-3969.765000	-7295.895000	-1773.900000	35.462441	-5.097744	-0.473370	32.208873	46.338357	49.342200	37.489169	29.752519	42.239680	8.789760	4.791640	-0.847593	-0.354247	0.378112	-1.000000	-1.000000	-1.000000	-1.000000	-1.000000	-1.000000	-1.000000	85.034483	0.000000	-1.000000	-1.000000	775577.000000	1769635362.131426
15619.905000	18344.745000	25774.515000	37870.380000	12162.825000	-4001.445000	-7348.590000	-1803.330000	27.185228	-20.406735	-17.407202	27.941387	50.684006	50.568191	52.202586	34.194820	42.239680	8.789760	4.791640	-0.847593	-0.354247	0.378112	-1.000000	-1.000000	-1.000000	-1.000000	-1.000000	-1.000000	-1.000000	85.034483	0.000000	-1.000000	-1.000000	775578.000000	1769635362.131434
15643.935000	18408.060000	25829.955000	37891.800000	12201.930000	-4036.230000	-7438.590000	-1821.870000	0.254764	-34.622659	-32.759511	6.649536	30.962360	19.125159	33.298161	17.047116	42.239680	8.789760	4.791640	-0.847593	-0.354247	0.378112	-1.000000	-1.000000	-1.000000	-1.000000	-1.000000	-1.000000	-1.000000	85.034483	0.000000	-1.000000	-1.000000	775579.000000	1769635362.135415
15638.805000	18444.960000	25859.610000	37908.045000	12147.615000	-4119.885000	-7569.630000	-1869.795000	-29.536821	-39.108062	-37.663167	-18.915324	1.863847	-24.828910	-5.696845	-10.870964	42.239680	8.789760	4.791640	-0.847593	-0.354247	0.378112	-1.000000	-1.000000	-1.000000	-1.000000	-1.000000	-1.000000	-1.000000	85.034483	0.000000	-1.000000	-1.000000	775580.000000	1769635362.135427
15658.470000	18474.930000	25891.830000	37942.920000	12160.305000	-4059.315000	-7543.755000	-1853.370000	-42.522970	-24.613685	-24.224117	-30.716244	-20.689905	-54.369589	-40.545171	-31.598693	42.239680	8.789760	4.791640	-0.847593	-0.354247	0.378112	-1.000000	-1.000000	-1.000000	-1.000000	-1.000000	-1.000000	-1.000000	85.034483	0.000000	-1.000000	-1.000000	775581.000000	1769635362.142166
15674.715000	18470.295000	25879.545000	37935.180000	12147.705000	-3954.105000	-7353.945000	-1793.295000	-32.577940	4.718925	2.866173	-22.274000	-30.214677	-53.268209	-50.025846	-33.333732	42.239680	8.789760	4.791640	-0.847593	-0.354247	0.378112	-1.000000	-1.000000	-1.000000	-1.000000	-1.000000	-1.000000	-1.000000	85.034483	0.000000	-1.000000	-1.000000	775582.000000	1769635362.142178
15657.345000	18434.430000	25838.010000	37890.360000	12112.560000	-3946.230000	-7174.935000	-1760.220000	-11.711341	29.625597	25.186876	-5.818362	-31.053837	-25.819465	-24.554083	-17.546451	42.239680	8.789760	4.791640	-0.847593	-0.354247	0.378112	-1.000000	-1.000000	-1.000000	-1.000000	-1.000000	-1.000000	-1.000000	85.034483	0.000000	-1.000000	-1.000000	775583.000000	1769635362.143654
15636.465000	18427.005000	25838.460000	37908.495000	12155.355000	-4008.150000	-7337.610000	-1807.515000	2.545352	33.146123	27.341886	2.670448	-29.262180	5.724572	19.912716	2.229930	42.239680	8.789760	4.791640	-0.847593	-0.354247	0.378112	-1.000000	-1.000000	-1.000000	-1.000000	-1.000000	-1.000000	-1.000000	85.034483	0.000000	-1.000000	-1.000000	775584.000000	1769635362.143666
15698.025000	18497.340000	25902.270000	37975.005000	12212.910000	-4011.480000	-7480.170000	-1784.520000	5.602039	18.612433	14.031297	2.836321	-21.707423	21.296671	44.871928	12.455530	42.239680	8.789760	4.791640	-0.847593	-0.354247	0.378112	-1.000000	-1.000000	-1.000000	-1.000000	-1.000000	-1.000000	-1.000000	85.034483	0.000000	-1.000000	-1.000000	775585.000000	1769635362.147469
15708.960000	18503.595000	25905.285000	37956.600000	12224.835000	-3956.085000	-7369.875000	-1760.130000	7.930234	5.392167	3.870963	6.159524	-1.751881	20.652396	28.535560	12.274297	42.239680	8.789760	4.791640	-0.847593	-0.354247	0.378112	-1.000000	-1.000000	-1.000000	-1.000000	-1.000000	-1.000000	-1.000000	85.034483	0.000000	-1.000000	-1.000000	775586.000000	1769635362.147482
15693.795000	18481.995000	25873.560000	37904.985000	12180.375000	-3934.665000	-7267.320000	-1743.525000	16.588919	4.537373	5.381941	15.317316	24.707367	16.754249	-6.117210	9.929086	39.584440	2.823100	7.111160	-0.867246	-0.325988	0.372863	-1.000000	-1.000000	-1.000000	-1.000000	-1.000000	-1.000000	-1.000000	85.034483	0.000000	-1.000000	-1.000000	775587.000000	1769635362.152498
15596.370000	18372.375000	25763.355000	37801.980000	12051.765000	-3995.055000	-7273.530000	-1802.520000	23.663363	6.194304	7.514605	18.627959	39.039805	17.220247	-20.388359	9.858215	39.584440	2.823100	7.111160	-0.867246	-0.325988	0.372863	-1.000000	-1.000000	-1.000000	-1.000000	-1.000000	-1.000000	-1.000000	85.034483	0.000000	-1.000000	-1.000000	775588.000000	1769635362.152507
15609.105000	18391.500000	25784.775000	37826.010000	12054.960000	-4004.235000	-7321.770000	-1824.390000	18.154380	-3.627955	-2.526508	6.984461	29.382170	18.508308	-3.784764	9.316667	39.584440	2.823100	7.111160	-0.867246	-0.325988	0.372863	-1.000000	-1.000000	-1.000000	-1.000000	-1.000000	-1.000000	-1.000000	85.034483	0.000000	-1.000000	-1.000000	775589.000000	1769635362.155559
15648.075000	18437.670000	25834.905000	37890.810000	12128.445000	-4013.775000	-7367.535000	-1823.220000	1.879376	-21.620656	-19.910469	-11.795149	5.006625	12.822764	20.075101	4.394431	39.584440	2.823100	7.111160	-0.867246	-0.325988	0.372863	-1.000000	-1.000000	-1.000000	-1.000000	-1.000000	-1.000000	-1.000000	85.034483	0.000000	-1.000000	-1.000000	775590.000000	1769635362.155570
15623.460000	18413.955000	25820.235000	37896.435000	12151.395000	-4051.530000	-7406.910000	-1843.830000	-13.818058	-32.000549	-28.584847	-21.380595	-13.825642	-4.650337	19.699547	-5.827579	39.584440	2.823100	7.111160	-0.867246	-0.325988	0.372863	-1.000000	-1.000000	-1.000000	-1.000000	-1.000000	-1.000000	-1.000000	85.034483	0.000000	-1.000000	-1.000000	775591.000000	1769635362.159868
15617.340000	18408.780000	25812.090000	37889.775000	12151.485000	-4021.920000	-7349.715000	-1820.880000	-21.271778	-26.120878	-20.840096	-14.991056	-16.396710	-28.612268	-12.279599	-17.953258	39.584440	2.823100	7.111160	-0.867246	-0.325988	0.372863	-1.000000	-1.000000	-1.000000	-1.000000	-1.000000	-1.000000	-1.000000	85.034483	0.000000	-1.000000	-1.000000	775592.000000	1769635362.159880
15625.485000	18427.860000	25828.380000	37892.205000	12144.240000	-3989.205000	-7292.565000	-1792.980000	-19.251787	-8.041625	-2.367168	0.236524	-7.904291	-42.232505	-47.443177	-23.667483	39.584440	2.823100	7.111160	-0.867246	-0.325988	0.372863	-1.000000	-1.000000	-1.000000	-1.000000	-1.000000	-1.000000	-1.000000	85.034483	0.000000	-1.000000	-1.000000	775593.000000	1769635362.163535
15595.245000	18402.750000	25803.135000	37858.590000	12105.585000	-4030.200000	-7353.810000	-1826.370000	-10.259469	12.074475	15.610136	12.263124	-0.098785	-32.783295	-51.051356	-16.813289	39.584440	2.823100	7.111160	-0.867246	-0.325988	0.372863	-1.000000	-1.000000	-1.000000	-1.000000	-1.000000	-1.000000	-1.000000	85.034483	0.000000	-1.000000	-1.000000	775594.000000	1769635362.163543
15639.435000	18437.850000	25829.595000	37876.590000	12118.860000	-4040.280000	-7436.025000	-1818.495000	1.145039	25.100354	24.556017	14.754980	0.655170	-7.019877	-22.675001	-1.619991	39.584440	2.823100	7.111160	-0.867246	-0.325988	0.372863	-1.000000	-1.000000	-1.000000	-1.000000	-1.000000	-1.000000	-1.000000	85.034483	0.000000	-1.000000	-1.000000	775595.000000	1769635362.167518
15671.520000	18487.305000	25871.580000	37904.715000	12153.555000	-3974.355000	-7323.480000	-1773.675000	12.543480	28.930022	24.156553	11.498044	-1.337443	18.705927	11.027399	13.301148	39.584440	2.823100	7.111160	-0.867246	-0.325988	0.372863	-1.000000	-1.000000	-1.000000	-1.000000	-1.000000	-1.000000	-1.000000	85.034483	0.000000	-1.000000	-1.000000	775596.000000	1769635362.167531
15632.145000	18478.710000	25873.920000	37914.120000	12154.680000	-3966.795000	-7281.090000	-1808.370000	22.968092	27.167493	20.070584	10.031534	2.899926	36.062307	34.262408	23.790784	33.785640	-1.052940	-4.410140	-0.883299	-0.292602	0.334777	-1.000000	-1.000000	-1.000000	-1.000000	-1.000000	-1.000000	-1.000000	85.034483	0.000000	-1.000000	-1.000000	775597.000000	1769635362.171914
15636.195000	18457.065000	25862.715000	37922.670000	12154.320000	-4008.870000	-7362.315000	-1818.405000	27.131220	20.318636	14.210390	10.820938	13.461671	42.103076	46.348257	27.290321	33.785640	-1.052940	-4.410140	-0.883299	-0.292602	0.334777	-1.000000	-1.000000	-1.000000	-1.000000	-1.000000	-1.000000	-1.000000	85.034483	0.000000	-1.000000	-1.000000	775598.000000	1769635362.171931
15628.230000	18382.365000	25799.760000	37892.880000	12146.895000	-3993.885000	-7333.875000	-1803.690000	18.712236	4.216886	2.129008	6.569170	18.688438	32.518256	44.062129	20.759797	33.785640	-1.052940	-4.410140	-0.883299	-0.292602	0.334777	-1.000000	-1.000000	-1.000000	-1.000000	-1.000000	-1.000000	-1.000000	85.034483	0.000000	-1.000000	-1.000000	775599.000000	1769635362.175365
15679.215000	18464.400000	25875.135000	37961.460000	12212.865000	-3927.015000	-7275.015000	-1792.980000	0.416319	-18.628976	-15.906208	-5.629034	10.524855	9.884154	25.361917	5.746967	33.785640	-1.052940	-4.410140	-0.883299	-0.292602	0.334777	-1.000000	-1.000000	-1.000000	-1.000000	-1.000000	-1.000000	-1.000000	85.034483	0.000000	-1.000000	-1.000000	775600.000000	1769635362.175378
15740.730000	18546.120000	25956.630000	38030.130000	12275.910000	-3874.140000	-7246.080000	-1767.510000	-15.465741	-33.428865	-27.977116	-16.857097	-4.221535	-12.727933	-1.246287	-10.706963	33.785640	-1.052940	-4.410140	-0.883299	-0.292602	0.334777	-1.000000	-1.000000	-1.000000	-1.000000	-1.000000	-1.000000	-1.000000	85.034483	0.000000	-1.000000	-1.000000	775601.000000	1769635362.179564
15632.730000	18435.510000	25843.770000	37906.245000	12150.135000	-4000.905000	-7341.885000	-1825.110000	-20.234845	-29.410485	-24.649774	-18.507515	-14.818305	-25.285530	-23.732660	-21.787153	33.785640	-1.052940	-4.410140	-0.883299	-0.292602	0.334777	-1.000000	-1.000000	-1.000000	-1.000000	-1.000000	-1.000000	-1.000000	85.034483	0.000000	-1.000000	-1.000000	775602.000000	1769635362.179575
15595.830000	18381.960000	25784.955000	37842.120000	12077.595000	-4084.560000	-7421.130000	-1834.515000	-18.143880	-14.679445	-13.140617	-14.900853	-20.658290	-30.243981	-36.328000	-25.149601	33.785640	-1.052940	-4.410140	-0.883299	-0.292602	0.334777	-1.000000	-1.000000	-1.000000	-1.000000	-1.000000	-1.000000	-1.000000	85.034483	0.000000	-1.000000	-1.000000	775603.000000	1769635362.183458
15619.455000	18425.970000	25833.285000	37891.665000	12131.100000	-4019.670000	-7328.880000	-1801.620000	-16.772677	-3.533583	-5.542508	-13.198751	-24.608925	-32.233484	-37.567329	-21.156009	33.785640	-1.052940	-4.410140	-0.883299	-0.292602	0.334777	-1.000000	-1.000000	-1.000000	-1.000000	-1.000000	-1.000000	-1.000000	85.034483	0.000000	-1.000000	-1.000000	775604.000000	1769635362.183470
15612.255000	18431.955000	25831.260000	37876.410000	12118.185000	-4037.625000	-7356.420000	-1808.640000	-15.253270	1.005396	-2.820452	-11.200182	-22.456542	-27.980473	-26.951174	-10.672559	33.785640	-1.052940	-4.410140	-0.883299	-0.292602	0.334777	-1.000000	-1.000000	-1.000000	-1.000000	-1.000000	-1.000000	-1.000000	85.034483	0.000000	-1.000000	-1.000000	775605.000000	1769635362.193291
15597.855000	18425.880000	25827.660000	37858.185000	12087.000000	-4094.190000	-7437.330000	-1836.000000	-8.532408	4.114767	0.501673	-4.664120	-10.383025	-14.393294	-9.521817	3.300447	33.785640	-1.052940	-4.410140	-0.883299	-0.292602	0.334777	-1.000000	-1.000000	-1.000000	-1.000000	-1.000000	-1.000000	-1.000000	85.034483	0.000000	-1.000000	-1.000000	775606.000000	1769635362.193306
15576.165000	18387.450000	25800.165000	37847.160000	12079.260000	-4100.580000	-7464.375000	-1865.655000	2.876222	8.515725	6.082285	4.222907	6.108101	3.692865	5.730508	14.505209	38.653580	2.227960	-1.800680	-0.870420	-0.251281	0.329772	-1.000000	-1.000000	-1.000000	-1.000000	-1.000000	-1.000000	-1.000000	85.034483	0.000000	-1.000000	-1.000000	775607.000000	1769635362.193320
15609.645000	18390.645000	25803.225000	37884.285000	12129.165000	-4012.740000	-7354.215000	-1833.390000	13.192532	12.498006	11.507244	11.327490	18.424036	19.528430	14.857795	17.374947	38.653580	2.227960	-1.800680	-0.870420	-0.251281	0.329772	-1.000000	-1.000000	-1.000000	-1.000000	-1.000000	-1.000000	-1.000000	85.034483	0.000000	-1.000000	-1.000000	775608.000000	1769635362.193325
15624.540000	18413.550000	25816.635000	37887.255000	12119.175000	-4020.660000	-7319.790000	-1821.240000	17.872308	12.882427	13.305189	14.681586	22.230531	29.119749	19.952738	12.347841	38.653580	2.227960	-1.800680	-0.870420	-0.251281	0.329772	-1.000000	-1.000000	-1.000000	-1.000000	-1.000000	-1.000000	-1.000000	85.034483	0.000000	-1.000000	-1.000000	775609.000000	1769635362.199676
15607.980000	18406.035000	25816.725000	37885.950000	12102.165000	-4083.390000	-7459.380000	-1870.245000	15.944140	8.070999	9.553204	13.472501	17.262163	28.879009	21.133735	3.959514	38.653580	2.227960	-1.800680	-0.870420	-0.251281	0.329772	-1.000000	-1.000000	-1.000000	-1.000000	-1.000000	-1.000000	-1.000000	85.034483	0.000000	-1.000000	-1.000000	775610.000000	1769635362.199692
15626.070000	18446.310000	25864.065000	37934.955000	12159.405000	-4026.645000	-7478.640000	-1876.725000	10.785719	2.441760	4.720177	11.130788	9.548370	20.094429	15.567071	-3.597641	38.653580	2.227960	-1.800680	-0.870420	-0.251281	0.329772	-1.000000	-1.000000	-1.000000	-1.000000	-1.000000	-1.000000	-1.000000	85.034483	0.000000	-1.000000	-1.000000	775611.000000	1769635362.199707
15645.015000	18454.185000	25864.965000	37923.390000	12181.545000	-3969.720000	-7347.465000	-1824.345000	7.795698	2.893400	5.896079	13.064459	8.386579	12.210228	7.336015	-6.527253	38.653580	2.227960	-1.800680	-0.870420	-0.251281	0.329772	-1.000000	-1.000000	-1.000000	-1.000000	-1.000000	-1.000000	-1.000000	85.034483	0.000000	-1.000000	-1.000000	775612.000000	1769635362.199714
15687.720000	18471.420000	25876.305000	37928.025000	12192.660000	-3966.750000	-7293.240000	-1756.395000	7.888860	7.982110	11.052251	16.193550	13.413639	10.128814	5.228868	-2.320239	38.653580	2.227960	-1.800680	-0.870420	-0.251281	0.329772	-1.000000	-1.000000	-1.000000	-1.000000	-1.000000	-1.000000	-1.000000	85.034483	0.000000	-1.000000	-1.000000	775613.000000	1769635362.203478
15668.145000	18445.005000	25851.465000	37912.995000	12168.945000	-3978.765000	-7293.420000	-1757.745000	7.587870	9.232815	11.043226	12.105119	14.734840	7.973157	9.896329	7.518182	38.653580	2.227960	-1.800680	-0.870420	-0.251281	0.329772	-1.000000	-1.000000	-1.000000	-1.000000	-1.000000	-1.000000	-1.000000	85.034483	0.000000	-1.000000	-1.000000	775614.000000	1769635362.203491
15680.070000	18476.280000	25886.430000	37945.035000	12199.590000	-3936.105000	-7276.365000	-1776.690000	3.826295	2.821460	2.385556	-0.430822	6.567931	1.090897	14.869225	16.630285	38.653580	2.227960	-1.800680	-0.870420	-0.251281	0.329772	-1.000000	-1.000000	-1.000000	-1.000000	-1.000000	-1.000000	-1.000000	85.034483	0.000000	-1.000000	-1.000000	775615.000000	1769635362.211490
15706.305000	18527.445000	25933.590000	37985.130000	12236.535000	-3911.715000	-7304.310000	-1789.335000	-3.378190	-5.660679	-8.412796	-14.009404	-7.341178	-8.196833	13.187022	17.048354	38.653580	2.227960	-1.800680	-0.870420	-0.251281	0.329772	-1.000000	-1.000000	-1.000000	-1.000000	-1.000000	-1.000000	-1.000000	85.034483	0.000000	-1.000000	-1.000000	775616.000000	1769635362.211501
15630.525000	18419.670000	25819.425000	37868.580000	12124.530000	-3999.105000	-7270.605000	-1809.855000	-12.493865	-10.418336	-14.704962	-22.759578	-21.395276	-18.658591	-0.852184	5.210726	17.732120	7.614740	-9.964780	-0.852964	-0.213256	0.346129	-1.000000	-1.000000	-1.000000	-1.000000	-1.000000	-1.000000	-1.000000	85.034483	0.000000	-1.000000	-1.000000	775617.000000	1769635362.211516
15569.145000	18333.000000	25738.155000	37795.725000	12054.825000	-4064.850000	-7299.540000	-1826.370000	-23.533797	-15.623289	-19.832709	-29.102892	-34.500054	-31.764557	-24.248853	-14.289668	17.732120	7.614740	-9.964780	-0.852964	-0.213256	0.346129	-1.000000	-1.000000	-1.000000	-1.000000	-1.000000	-1.000000	-1.000000	85.034483	0.000000	-1.000000	-1.000000	775618.000000	1769635362.211521
15591.330000	18379.035000	25792.515000	37857.735000	12110.580000	-4035.420000	-7370.505000	-1824.525000	-32.997415	-24.763149	-26.912197	-33.554339	-42.560962	-41.714091	-42.241211	-29.864060	17.732120	7.614740	-9.964780	-0.852964	-0.213256	0.346129	-1.000000	-1.000000	-1.000000	-1.000000	-1.000000	-1.000000	-1.000000	85.034483	0.000000	-1.000000	-1.000000	775619.000000	1769635362.216956
15573.285000	18379.260000	25795.395000	37857.780000	12112.470000	-4027.320000	-7356.780000	-1843.065000	-31.792375	-28.861954	-27.705068	-27.598617	-35.647886	-36.939539	-42.315174	-31.381938	17.732120	7.614740	-9.964780	-0.852964	-0.213256	0.346129	-1.000000	-1.000000	-1.000000	-1.000000	-1.000000	-1.000000	-1.000000	85.034483	0.000000	-1.000000	-1.000000	775620.000000	1769635362.216971
15587.370000	18391.320000	25805.070000	37861.425000	12110.175000	-4039.155000	-7377.525000	-1838.250000	-16.445531	-18.912862	-14.716717	-7.034960	-11.919649	-15.838767	-27.280752	-19.889617	17.732120	7.614740	-9.964780	-0.852964	-0.213256	0.346129	-1.000000	-1.000000	-1.000000	-1.000000	-1.000000	-1.000000	-1.000000	85.034483	0.000000	-1.000000	-1.000000	775621.000000	1769635362.220622
15599.385000	18395.685000	25805.160000	37857.780000	12106.080000	-4047.705000	-7376.670000	-1831.995000	6.181845	2.005332	7.518274	19.420949	17.308265	10.511996	-9.245404	-4.612660	17.732120	7.614740	-9.964780	-0.852964	-0.213256	0.346129	-1.000000	-1.000000	-1.000000	-1.000000	-1.000000	-1.000000	-1.000000	85.034483	0.000000	-1.000000	-1.000000	775622.000000	1769635362.220634
15588.405000	18383.670000	25790.715000	37840.185000	12087.045000	-4065.930000	-7373.475000	-1843.245000	26.288771	23.400944	27.693270	38.241795	38.306859	30.205733	5.316461	7.841998	17.732120	7.614740	-9.964780	-0.852964	-0.213256	0.346129	-1.000000	-1.000000	-1.000000	-1.000000	-1.000000	-1.000000	-1.000000	85.034483	0.000000	-1.000000	-1.000000	775623.000000	1769635362.223474
15552.945000	18351.045000	25761.645000	37811.790000	12056.265000	-4066.380000	-7387.740000	-1875.195000	35.696961	34.399829	35.331710	39.822961	42.293271	36.665710	17.293777	15.818503	17.732120	7.614740	-9.964780	-0.852964	-0.213256	0.346129	-1.000000	-1.000000	-1.000000	-1.000000	-1.000000	-1.000000	-1.000000	85.034483	0.000000	-1.000000	-1.000000	775624.000000	1769635362.223484
15606.720000	18406.170000	25816.590000	37856.700000	12084.660000	-4014.360000	-7354.755000	-1836.090000	31.122745	30.316020	27.584136	24.435276	28.894223	29.998928	26.260526	19.203324	17.732120	7.614740	-9.964780	-0.852964	-0.213256	0.346129	-1.000000	-1.000000	-1.000000	-1.000000	-1.000000	-1.000000	-1.000000	85.034483	0.000000	-1.000000	-1.000000	775625.000000	1769635362.227619
15656.085000	18453.870000	25862.895000	37899.765000	12132.675000	-4004.370000	-7344.045000	-1796.895000	19.151988	18.616311	14.053809	5.118477	9.715305	18.337559	29.180033	19.502137	17.732120	7.614740	-9.964780	-0.852964	-0.213256	0.346129	-1.000000	-1.000000	-1.000000	-1.000000	-1.000000	-1.000000	-1.000000	85.034483	0.000000	-1.000000	-1.000000	775626.000000	1769635362.227627
15630.975000	18426.465000	25837.245000	37890.405000	12160.665000	-4014.045000	-7357.320000	-1816.155000	9.981218	10.577743	6.635930	-3.778001	-0.191953	10.733770	25.894658	18.610072	7.050120	8.194620	-7.340060	-0.852903	-0.204956	0.346191	-1.000000	-1.000000	-1.000000	-1.000000	-1.000000	-1.000000	-1.000000	85.034483	0.000000	-1.000000	-1.000000	775627.000000	1769635362.231482
15636.555000	18411.345000	25817.085000	37882.395000	12160.035000	-4024.890000	-7365.645000	-1811.115000	5.053233	6.303423	4.225887	-2.565659	1.344391	7.069080	19.760597	15.422436	7.050120	8.194620	-7.340060	-0.852903	-0.204956	0.346191	-1.000000	-1.000000	-1.000000	-1.000000	-1.000000	-1.000000	-1.000000	85.034483	0.000000	-1.000000	-1.000000	775628.000000	1769635362.231494
15668.460000	18406.845000	25805.610000	37868.265000	12131.820000	-4031.370000	-7357.005000	-1781.010000	-0.599696	-1.877806	-2.417559	-2.083852	3.350309	0.652927	11.897346	8.024623	7.050120	8.194620	-7.340060	-0.852903	-0.204956	0.346191	-1.000000	-1.000000	-1.000000	-1.000000	-1.000000	-1.000000	-1.000000	85.034483	0.000000	-1.000000	-1.000000	775629.000000	1769635362.236780
15645.060000	18399.870000	25807.005000	37866.195000	12125.160000	-4033.845000	-7357.185000	-1799.190000	-9.156429	-15.586467	-15.315064	-8.077799	-3.182917	-10.834643	0.610808	-2.860241	7.050120	8.194620	-7.340060	-0.852903	-0.204956	0.346191	-1.000000	-1.000000	-1.000000	-1.000000	-1.000000	-1.000000	-1.000000	85.034483	0.000000	-1.000000	-1.000000	775630.000000	1769635362.236795
15591.825000	18413.730000	25838.955000	37893.150000	12145.050000	-4020.345000	-7361.550000	-1848.690000	-19.560487	-27.865915	-26.527544	-16.379810	-15.692657	-21.629482	-12.664270	-15.070523	7.050120	8.194620	-7.340060	-0.852903	-0.204956	0.346191	-1.000000	-1.000000	-1.000000	-1.000000	-1.000000	-1.000000	-1.000000	85.034483	0.000000	-1.000000	-1.000000	775631.000000	1769635362.239534
15589.485000	18417.330000	25842.555000	37893.330000	12144.330000	-4021.830000	-7376.445000	-1855.440000	-28.558919	-30.217774	-26.878185	-19.240026	-24.344625	-24.429568	-22.768413	-25.153843	7.050120	8.194620	-7.340060	-0.852903	-0.204956	0.346191	-1.000000	-1.000000	-1.000000	-1.000000	-1.000000	-1.000000	-1.000000	85.034483	0.000000	-1.000000	-1.000000	775632.000000	1769635362.239546
15603.480000	18407.610000	25827.030000	37877.760000	12134.880000	-4014.630000	-7369.110000	-1840.815000	-30.344251	-20.403545	-15.416156	-14.003954	-22.929951	-18.163509	-25.580349	-27.645184	7.050120	8.194620	-7.340060	-0.852903	-0.204956	0.346191	-1.000000	-1.000000	-1.000000	-1.000000	-1.000000	-1.000000	-1.000000	85.034483	0.000000	-1.000000	-1.000000	775633.000000	1769635362.243513
15612.120000	18402.480000	25818.435000	37868.445000	12127.410000	-4014.180000	-7356.195000	-1830.330000	-21.520233	-4.835558	-0.520140	-5.352693	-13.701261	-7.931613	-20.865264	-19.722553	7.050120	8.194620	-7.340060	-0.852903	-0.204956	0.346191	-1.000000	-1.000000	-1.000000	-1.000000	-1.000000	-1.000000	-1.000000	85.034483	0.000000	-1.000000	-1.000000	775634.000000	1769635362.243525
15604.155000	18404.055000	25822.485000	37876.410000	12132.045000	-4039.470000	-7430.850000	-1847.385000	-5.365176	7.868819	9.026627	1.163140	-2.908991	1.042386	-12.025268	-5.368868	7.050120	8.194620	-7.340060	-0.852903	-0.204956	0.346191	-1.000000	-1.000000	-1.000000	-1.000000	-1.000000	-1.000000	-1.000000	85.034483	0.000000	-1.000000	-1.000000	775635.000000	1769635362.247469
15623.280000	18428.805000	25850.520000	37901.970000	12147.705000	-4073.760000	-7466.220000	-1838.250000	11.600164	14.519047	11.840114	4.734535	4.924375	6.163732	-3.483046	8.524048	7.050120	8.194620	-7.340060	-0.852903	-0.204956	0.346191	-1.000000	-1.000000	-1.000000	-1.000000	-1.000000	-1.000000	-1.000000	85.034483	0.000000	-1.000000	-1.000000	775636.000000	1769635362.247483
15614.955000	18407.835000	25829.370000	37881.720000	12135.330000	-4036.545000	-7344.360000	-1826.325000	23.613051	16.459080	11.469229	7.232643	8.759561	7.247159	4.106905	17.413923	-4.318580	-0.579880	-7.507920	-0.864317	-0.215209	0.334350	-1.000000	-1.000000	-1.000000	-1.000000	-1.000000	-1.000000	-1.000000	85.034483	0.000000	-1.000000	-1.000000	775637.000000	1769635362.251439
15615.090000	18396.810000	25816.230000	37871.460000	12129.660000	-4020.885000	-7304.220000	-1817.145000	26.311864	14.301728	9.599562	8.761304	9.759961	7.071208	14.162836	19.472346	-4.318580	-0.579880	-7.507920	-0.864317	-0.215209	0.334350	-1.000000	-1.000000	-1.000000	-1.000000	-1.000000	-1.000000	-1.000000	85.034483	0.000000	-1.000000	-1.000000	775638.000000	1769635362.251450
15628.320000	18404.775000	25818.300000	37873.170000	12129.120000	-4032.810000	-7355.880000	-1812.195000	19.641705	8.091118	5.389218	7.816503	9.176655	8.187634	25.184826	15.536425	-4.318580	-0.579880	-7.507920	-0.864317	-0.215209	0.334350	-1.000000	-1.000000	-1.000000	-1.000000	-1.000000	-1.000000	-1.000000	85.034483	0.000000	-1.000000	-1.000000	775639.000000	1769635362.257027
15628.635000	18412.695000	25827.345000	37878.930000	12133.485000	-4020.840000	-7351.695000	-1818.045000	9.440035	0.281223	-0.687678	4.164056	7.405874	9.302422	28.160677	9.279864	-4.318580	-0.579880	-7.507920	-0.864317	-0.215209	0.334350	-1.000000	-1.000000	-1.000000	-1.000000	-1.000000	-1.000000	-1.000000	85.034483	0.000000	-1.000000	-1.000000	775640.000000	1769635362.257039
15614.865000	18394.830000	25812.720000	37867.275000	12127.185000	-4008.690000	-7321.635000	-1822.815000	1.260088	-5.613428	-5.960028	-0.422855	4.664243	7.996831	18.486879	3.796832	-4.318580	-0.579880	-7.507920	-0.864317	-0.215209	0.334350	-1.000000	-1.000000	-1.000000	-1.000000	-1.000000	-1.000000	-1.000000	85.034483	0.000000	-1.000000	-1.000000	775641.000000	1769635362.264891
15633.180000	18420.120000	25839.630000	37891.305000	12141.360000	-4024.620000	-7371.855000	-1824.480000	-4.479363	-7.733495	-7.611459	-3.363931	1.797712	3.583726	0.925196	-1.214226	-4.318580	-0.579880	-7.507920	-0.864317	-0.215209	0.334350	-1.000000	-1.000000	-1.000000	-1.000000	-1.000000	-1.000000	-1.000000	85.034483	0.000000	-1.000000	-1.000000	775642.000000	1769635362.264903
15614.910000	18414.945000	25838.325000	37888.695000	12135.780000	-4033.890000	-7371.270000	-1837.440000	-9.234803	-5.993143	-4.557599	-2.929566	-0.171874	-2.973103	-17.086290	-7.098554	-4.318580	-0.579880	-7.507920	-0.864317	-0.215209	0.334350	-1.000000	-1.000000	-1.000000	-1.000000	-1.000000	-1.000000	-1.000000	85.034483	0.000000	-1.000000	-1.000000	775643.000000	1769635362.264914
15587.055000	18390.465000	25816.230000	37869.840000	12119.400000	-4045.680000	-7382.205000	-1855.305000	-13.099227	-2.360011	0.841801	-0.446880	-1.698564	-8.625901	-27.304774	-12.832798	-4.318580	-0.579880	-7.507920	-0.864317	-0.215209	0.334350	-1.000000	-1.000000	-1.000000	-1.000000	-1.000000	-1.000000	-1.000000	85.034483	0.000000	-1.000000	-1.000000	775644.000000	1769635362.264919
15605.685000	18403.020000	25826.355000	37880.010000	12130.245000	-4043.025000	-7386.210000	-1845.045000	-14.929931	-0.028610	4.087295	0.655730	-4.053473	-10.009978	-24.272697	-15.491646	-4.318580	-0.579880	-7.507920	-0.864317	-0.215209	0.334350	-1.000000	-1.000000	-1.000000	-1.000000	-1.000000	-1.000000	-1.000000	85.034483	0.000000	-1.000000	-1.000000	775645.000000	1769635362.267564
15631.110000	18420.615000	25842.960000	37898.370000	12154.950000	-4006.260000	-7341.075000	-1822.950000	-12.503373	0.578783	3.917277	-0.072489	-5.796500	-6.691789	-12.504558	-12.951086	-4.318580	-0.579880	-7.507920	-0.864317	-0.215209	0.334350	-1.000000	-1.000000	-1.000000	-1.000000	-1.000000	-1.000000	-1.000000	85.034483	0.000000	-1.000000	-1.000000	775646.000000	1769635362.267570
15665.985000	18461.565000	25881.930000	37929.960000	12174.210000	-4003.920000	-7373.295000	-1807.380000	-4.219428	2.276777	3.480915	0.520023	-3.592016	-0.804753	-1.198323	-5.311022	-19.029220	-6.042960	-2.350040	-0.871275	-0.236022	0.328673	-1.000000	-1.000000	-1.000000	-1.000000	-1.000000	-1.000000	-1.000000	85.034483	0.000000	-1.000000	-1.000000	775647.000000	1769635362.271841
15646.410000	18443.340000	25861.410000	37897.965000	12136.905000	-4033.350000	-7426.890000	-1826.955000	7.533258	5.870527	4.597646	3.262807	1.919449	4.358114	4.866405	4.724774	-19.029220	-6.042960	-2.350040	-0.871275	-0.236022	0.328673	-1.000000	-1.000000	-1.000000	-1.000000	-1.000000	-1.000000	-1.000000	85.034483	0.000000	-1.000000	-1.000000	775648.000000	1769635362.271853
15619.455000	18398.835000	25811.865000	37852.335000	12096.765000	-4032.585000	-7381.575000	-1831.320000	16.051510	7.307537	4.084515	3.922615	4.909473	5.306514	5.983468	12.527066	-19.029220	-6.042960	-2.350040	-0.871275	-0.236022	0.328673	-1.000000	-1.000000	-1.000000	-1.000000	-1.000000	-1.000000	-1.000000	85.034483	0.000000	-1.000000	-1.000000	775649.000000	1769635362.275623
15627.105000	18412.605000	25827.165000	37878.165000	12127.230000	-4007.925000	-7320.240000	-1823.220000	15.565022	2.756821	-1.353805	-0.737776	1.671021	1.760050	6.451413	14.490520	-19.029220	-6.042960	-2.350040	-0.871275	-0.236022	0.328673	-1.000000	-1.000000	-1.000000	-1.000000	-1.000000	-1.000000	-1.000000	85.034483	0.000000	-1.000000	-1.000000	775650.000000	1769635362.275638
15624.630000	18419.040000	25839.855000	37909.755000	12179.565000	-3995.055000	-7324.830000	-1831.995000	6.674121	-5.491946	-8.992707	-7.021674	-3.519607	-1.965575	10.807200	10.421664	-19.029220	-6.042960	-2.350040	-0.871275	-0.236022	0.328673	-1.000000	-1.000000	-1.000000	-1.000000	-1.000000	-1.000000	-1.000000	85.034483	0.000000	-1.000000	-1.000000	775651.000000	1769635362.280677
15623.235000	18412.740000	25834.230000	37901.250000	12163.635000	-4004.055000	-7341.300000	-1832.265000	-4.301169	-11.278255	-12.683493	-8.567426	-3.906954	-1.690557	17.317150	3.143772	-19.029220	-6.042960	-2.350040	-0.871275	-0.236022	0.328673	-1.000000	-1.000000	-1.000000	-1.000000	-1.000000	-1.000000	-1.000000	85.034483	0.000000	-1.000000	-1.000000	775652.000000	1769635362.280689
15613.290000	18397.305000	25818.840000	37879.875000	12138.345000	-4018.635000	-7346.205000	-1826.595000	-10.719210	-10.893833	-9.681379	-4.328031	0.446800	1.955719	19.332006	-3.301752	-19.029220	-6.042960	-2.350040	-0.871275	-0.236022	0.328673	-1.000000	-1.000000	-1.000000	-1.000000	-1.000000	-1.000000	-1.000000	85.034483	0.000000	-1.000000	-1.000000	775653.000000	1769635362.283477
15611.625000	18390.060000	25809.345000	37867.005000	12121.425000	-4038.975000	-7354.530000	-1825.155000	-10.749432	-5.736793	-2.699959	1.033652	3.424502	4.252744	11.926099	-6.512799	-19.029220	-6.042960	-2.350040	-0.871275	-0.236022	0.328673	-1.000000	-1.000000	-1.000000	-1.000000	-1.000000	-1.000000	-1.000000	85.034483	0.000000	-1.000000	-1.000000	775654.000000	1769635362.283486
15633.810000	18400.995000	25814.160000	37872.855000	12129.300000	-4032.945000	-7364.925000	-1818.045000	-7.058961	0.133929	3.440034	3.040736	1.094793	1.234709	-4.335870	-7.102290	-19.029220	-6.042960	-2.350040	-0.871275	-0.236022	0.328673	-1.000000	-1.000000	-1.000000	-1.000000	-1.000000	-1.000000	-1.000000	85.034483	0.000000	-1.000000	-1.000000	775655.000000	1769635362.288820
15646.995000	18408.240000	25818.885000	37879.830000	12137.535000	-4023.900000	-7365.015000	-1813.320000	-2.310950	3.873204	5.916793	1.495688	-4.117070	-5.224040	-21.348345	-6.271166	-19.029220	-6.042960	-2.350040	-0.871275	-0.236022	0.328673	-1.000000	-1.000000	-1.000000	-1.000000	-1.000000	-1.000000	-1.000000	85.034483	0.000000	-1.000000	-1.000000	775656.000000	1769635362.288834
15616.755000	18408.555000	25829.055000	37890.180000	12144.735000	-4015.350000	-7358.445000	-1843.290000	2.437575	5.610422	5.794022	0.069226	-6.195332	-8.651052	-27.826965	-4.185684	-19.960080	-6.821220	-2.380560	-0.866514	-0.255920	0.329650	-1.000000	-1.000000	-1.000000	-1.000000	-1.000000	-1.000000	-1.000000	85.034483	0.000000	-1.000000	-1.000000	775657.000000	1769635362.313391
15608.250000	18417.195000	25840.935000	37902.735000	12156.120000	-4007.340000	-7359.435000	-1845.675000	5.954393	7.290066	6.468827	2.482066	-1.577584	-5.449988	-20.672910	-1.530730	-19.960080	-6.821220	-2.380560	-0.866514	-0.255920	0.329650	-1.000000	-1.000000	-1.000000	-1.000000	-1.000000	-1.000000	-1.000000	85.034483	0.000000	-1.000000	-1.000000	775658.000000	1769635362.313407
15617.835000	18416.430000	25835.895000	37895.220000	12149.145000	-4013.865000	-7358.805000	-1826.955000	6.726638	9.090088	8.589936	7.345257	6.260185	1.381526	-7.322930	0.669532	-19.960080	-6.821220	-2.380560	-0.866514	-0.255920	0.329650	-1.000000	-1.000000	-1.000000	-1.000000	-1.000000	-1.000000	-1.000000	85.034483	0.000000	-1.000000	-1.000000	775659.000000	1769635362.313423
15626.835000	18415.125000	25833.150000	37892.295000	12147.435000	-4017.825000	-7364.025000	-1816.830000	4.988921	8.530075	8.584729	8.828376	9.665088	6.353182	4.153505	2.850352	-19.960080	-6.821220	-2.380560	-0.866514	-0.255920	0.329650	-1.000000	-1.000000	-1.000000	-1.000000	-1.000000	-1.000000	-1.000000	85.034483	0.000000	-1.000000	-1.000000	775660.000000	1769635362.313430
15637.770000	18425.385000	25844.085000	37902.240000	12154.140000	-4015.845000	-7366.230000	-1814.355000	2.954156	4.572172	4.331527	4.389220	5.758252	7.114400	11.284402	5.600025	-19.960080	-6.821220	-2.380560	-0.866514	-0.255920	0.329650	-1.000000	-1.000000	-1.000000	-1.000000	-1.000000	-1.000000	-1.000000	85.034483	0.000000	-1.000000	-1.000000	775661.000000	1769635362.313437
15647.670000	18444.375000	25863.660000	37915.380000	12163.860000	-4006.395000	-7359.210000	-1817.190000	2.354714	-0.270194	-1.410488	-1.943219	-0.666182	5.360161	14.477489	7.437729	-19.960080	-6.821220	-2.380560	-0.866514	-0.255920	0.329650	-1.000000	-1.000000	-1.000000	-1.000000	-1.000000	-1.000000	-1.000000	85.034483	0.000000	-1.000000	-1.000000	775662.000000	1769635362.313444
15632.820000	18424.035000	25841.970000	37894.950000	12149.685000	-4005.450000	-7340.940000	-1829.790000	2.235706	-3.459737	-5.099179	-5.451351	-4.134955	3.389096	13.968081	5.852951	-19.960080	-6.821220	-2.380560	-0.866514	-0.255920	0.329650	-1.000000	-1.000000	-1.000000	-1.000000	-1.000000	-1.000000	-1.000000	85.034483	0.000000	-1.000000	-1.000000	775663.000000	1769635362.313452
15608.160000	18384.480000	25799.760000	37859.670000	12119.625000	-4033.080000	-7351.470000	-1837.980000	-0.481432	-6.170094	-7.322823	-6.482866	-4.660195	1.126853	10.394274	0.168886	-19.960080	-6.821220	-2.380560	-0.866514	-0.255920	0.329650	-1.000000	-1.000000	-1.000000	-1.000000	-1.000000	-1.000000	-1.000000	85.034483	0.000000	-1.000000	-1.000000	775664.000000	1769635362.313458
15610.635000	18385.515000	25802.685000	37861.110000	12121.965000	-4029.570000	-7348.095000	-1822.995000	-6.630697	-10.493296	-10.482327	-7.869218	-5.185359	-2.608284	5.305326	-6.537726	-19.960080	-6.821220	-2.380560	-0.866514	-0.255920	0.329650	-1.000000	-1.000000	-1.000000	-1.000000	-1.000000	-1.000000	-1.000000	85.034483	0.000000	-1.000000	-1.000000	775665.000000	1769635362.313465
15573.060000	18366.300000	25790.670000	37852.110000	12118.635000	-4018.410000	-7304.085000	-1840.770000	-12.079423	-14.315929	-13.238828	-9.247655	-5.973237	-6.751098	0.462081	-9.229174	-19.960080	-6.821220	-2.380560	-0.866514	-0.255920	0.329650	-1.000000	-1.000000	-1.000000	-1.000000	-1.000000	-1.000000	-1.000000	85.034483	0.000000	-1.000000	-1.000000	775666.000000	1769635362.313471
