Channel1	Channel2	Channel3	Channel4	Channel5	Channel6	Channel7	Channel8	FilteredChannel1	FilteredChannel2	FilteredChannel3	FilteredChannel4	FilteredChannel5	FilteredChannel6	FilteredChannel7	FilteredChannel8	GyroX	GyroY	GyroZ	AccX	AccY	AccZ	PPG1	PPG2	rawPPG1	rawPPG2	rawPPG3	Hr	Hrv	Battery	Trigger	PhysicalTrigger	AutoTrigger	NumMeasurements	Timestamp
-106.920000	-14209.110000	5315.805000	-167.985000	-24996.015000	-22027.005000	-5795.910000	1551.690000	-6.822772	7.674156	8.782139	12.546999	12.174833	10.452540	2.771696	-16.816516	-1.190280	3.387720	0.335720	0.654112	-0.000854	0.716246	-1.000000	-1.000000	-1.000000	-1.000000	-1.000000	-1.000000	-1.000000	87.793103	0.000000	-1.000000	-1.000000	266397.000000	1772894244.550910
-92.205000	-14205.465000	5316.795000	-166.860000	-24990.840000	-22013.370000	-5770.980000	1570.905000	-18.631131	-3.498140	-0.693547	2.622951	3.122800	3.154934	1.615568	-24.919103	-1.190280	3.387720	0.335720	0.654112	-0.000854	0.716246	-1.000000	-1.000000	-1.000000	-1.000000	-1.000000	-1.000000	-1.000000	87.793103	0.000000	-1.000000	-1.000000	266398.000000	1772894244.550917
-58.995000	-14194.485000	5318.640000	-168.570000	-24993.405000	-22015.620000	-5754.600000	1607.580000	-20.091422	-11.052713	-7.535942	-5.894970	-3.982070	-1.687184	4.296482	-21.614882	-1.190280	3.387720	0.335720	0.654112	-0.000854	0.716246	-1.000000	-1.000000	-1.000000	-1.000000	-1.000000	-1.000000	-1.000000	87.793103	0.000000	-1.000000	-1.000000	266399.000000	1772894244.554860
-61.965000	-14202.585000	5308.785000	-181.215000	-25008.525000	-22039.740000	-5777.595000	1600.605000	-9.692407	-10.781769	-8.858285	-9.386422	-6.556077	-2.693514	9.913580	-8.637567	-1.190280	3.387720	0.335720	0.654112	-0.000854	0.716246	-1.000000	-1.000000	-1.000000	-1.000000	-1.000000	-1.000000	-1.000000	87.793103	0.000000	-1.000000	-1.000000	266400.000000	1772894244.554868
-52.695000	-14208.435000	5310.270000	-178.695000	-25007.760000	-22040.640000	-5784.390000	1610.865000	5.810670	-4.949578	-5.745512	-7.885951	-5.629362	-2.283095	12.475161	5.847865	-8.255660	3.708180	0.625660	0.650816	0.008301	0.719236	-1.000000	-1.000000	-1.000000	-1.000000	-1.000000	-1.000000	-1.000000	87.793103	0.000000	-1.000000	-1.000000	266401.000000	1772894244.561090
-61.380000	-14216.580000	5312.070000	-175.680000	-25003.665000	-22037.175000	-5783.130000	1606.095000	16.790798	0.366956	-1.270787	-3.819363	-3.587093	-2.959684	7.396235	14.582205	-8.255660	3.708180	0.625660	0.650816	0.008301	0.719236	-1.000000	-1.000000	-1.000000	-1.000000	-1.000000	-1.000000	-1.000000	87.793103	0.000000	-1.000000	-1.000000	266402.000000	1772894244.561100
-66.330000	-14206.545000	5320.980000	-163.845000	-24988.590000	-22023.765000	-5766.165000	1604.385000	18.620240	1.810771	2.608434	0.815484	-1.096272	-3.753223	-2.355270	16.783480	-8.255660	3.708180	0.625660	0.650816	0.008301	0.719236	-1.000000	-1.000000	-1.000000	-1.000000	-1.000000	-1.000000	-1.000000	87.793103	0.000000	-1.000000	-1.000000	266403.000000	1772894244.563028
-96.300000	-14229.180000	5299.335000	-185.580000	-25011.720000	-22045.140000	-5773.500000	1583.955000	12.775337	1.050630	5.529657	5.176800	2.500966	-1.826522	-9.082674	13.948871	-8.255660	3.708180	0.625660	0.650816	0.008301	0.719236	-1.000000	-1.000000	-1.000000	-1.000000	-1.000000	-1.000000	-1.000000	87.793103	0.000000	-1.000000	-1.000000	266404.000000	1772894244.563033
-99.585000	-14235.435000	5289.480000	-197.505000	-25026.120000	-22054.635000	-5788.530000	1577.295000	2.939263	0.719363	6.651807	7.595419	5.659744	2.254324	-9.252992	6.531524	-8.255660	3.708180	0.625660	0.650816	0.008301	0.719236	-1.000000	-1.000000	-1.000000	-1.000000	-1.000000	-1.000000	-1.000000	87.793103	0.000000	-1.000000	-1.000000	266405.000000	1772894244.567127
-82.530000	-14227.785000	5291.235000	-194.355000	-25024.005000	-22052.970000	-5795.865000	1578.150000	-6.559132	1.493412	4.826110	6.045054	5.238365	4.438225	-6.192786	-3.314049	-8.255660	3.708180	0.625660	0.650816	0.008301	0.719236	-1.000000	-1.000000	-1.000000	-1.000000	-1.000000	-1.000000	-1.000000	87.793103	0.000000	-1.000000	-1.000000	266406.000000	1772894244.567136
-76.005000	-14218.155000	5301.225000	-187.515000	-25013.880000	-22043.565000	-5795.370000	1573.335000	-11.507621	3.072817	0.897016	1.239386	1.092944	2.659567	-4.292304	-11.300332	-8.255660	3.708180	0.625660	0.650816	0.008301	0.719236	-1.000000	-1.000000	-1.000000	-1.000000	-1.000000	-1.000000	-1.000000	87.793103	0.000000	-1.000000	-1.000000	266407.000000	1772894244.571066
-62.865000	-14197.590000	5313.420000	-173.520000	-24990.930000	-22018.995000	-5783.355000	1575.045000	-10.677901	5.072322	-2.314730	-3.132462	-2.870782	-0.392783	-3.914241	-14.682477	-8.255660	3.708180	0.625660	0.650816	0.008301	0.719236	-1.000000	-1.000000	-1.000000	-1.000000	-1.000000	-1.000000	-1.000000	87.793103	0.000000	-1.000000	-1.000000	266408.000000	1772894244.571074
-64.260000	-14203.755000	5300.595000	-179.190000	-24998.670000	-22021.920000	-5775.705000	1582.335000	-6.120353	6.693336	-2.823491	-3.908162	-2.906543	-0.633091	-2.221849	-13.135552	-8.255660	3.708180	0.625660	0.650816	0.008301	0.719236	-1.000000	-1.000000	-1.000000	-1.000000	-1.000000	-1.000000	-1.000000	87.793103	0.000000	-1.000000	-1.000000	266409.000000	1772894244.574961
-67.995000	-14204.970000	5311.710000	-162.495000	-24992.595000	-22021.110000	-5769.900000	1593.810000	-0.915423	6.332741	-1.405210	-1.387262	0.322790	2.079013	2.259211	-7.082932	-8.255660	3.708180	0.625660	0.650816	0.008301	0.719236	-1.000000	-1.000000	-1.000000	-1.000000	-1.000000	-1.000000	-1.000000	87.793103	0.000000	-1.000000	-1.000000	266410.000000	1772894244.574971
-74.025000	-14200.785000	5336.955000	-132.030000	-24965.280000	-22001.175000	-5759.640000	1582.245000	2.667917	2.902368	0.323060	2.118760	3.424282	4.349587	7.450853	2.084738	-9.568020	1.724380	0.289940	0.646361	0.002319	0.723936	-1.000000	-1.000000	-1.000000	-1.000000	-1.000000	-1.000000	-1.000000	87.793103	0.000000	-1.000000	-1.000000	266411.000000	1772894244.581701
-54.090000	-14172.615000	5368.995000	-116.190000	-24949.530000	-21988.620000	-5753.205000	1565.955000	4.641184	-1.921385	2.446420	5.186805	4.854508	4.375754	10.289949	10.722796	-9.568020	1.724380	0.289940	0.646361	0.002319	0.723936	-1.000000	-1.000000	-1.000000	-1.000000	-1.000000	-1.000000	-1.000000	87.793103	0.000000	-1.000000	-1.000000	266412.000000	1772894244.581711
-49.005000	-14175.090000	5358.060000	-133.740000	-24964.200000	-21998.070000	-5760.540000	1570.680000	6.523263	-4.570876	5.342087	6.853444	4.917725	2.951201	9.337937	14.589480	-9.568020	1.724380	0.289940	0.646361	0.002319	0.723936	-1.000000	-1.000000	-1.000000	-1.000000	-1.000000	-1.000000	-1.000000	87.793103	0.000000	-1.000000	-1.000000	266413.000000	1772894244.584322
-88.920000	-14218.695000	5316.660000	-169.695000	-24996.510000	-22024.530000	-5777.595000	1574.730000	7.658175	-4.296237	6.485895	4.943569	2.811007	0.252502	4.768999	12.522195	-9.568020	1.724380	0.289940	0.646361	0.002319	0.723936	-1.000000	-1.000000	-1.000000	-1.000000	-1.000000	-1.000000	-1.000000	87.793103	0.000000	-1.000000	-1.000000	266414.000000	1772894244.584331
-99.315000	-14216.310000	5314.950000	-170.820000	-24995.610000	-22019.535000	-5773.320000	1580.985000	4.560231	-4.366562	2.119609	-2.073712	-2.754810	-4.462358	-2.018086	6.706141	-9.568020	1.724380	0.289940	0.646361	0.002319	0.723936	-1.000000	-1.000000	-1.000000	-1.000000	-1.000000	-1.000000	-1.000000	87.793103	0.000000	-1.000000	-1.000000	266415.000000	1772894244.587005
-114.300000	-14190.930000	5332.545000	-156.105000	-24981.660000	-22009.590000	-5769.855000	1559.655000	-3.867173	-6.297676	-6.762576	-11.223137	-9.904907	-9.780643	-8.288926	-0.276161	-9.568020	1.724380	0.289940	0.646361	0.002319	0.723936	-1.000000	-1.000000	-1.000000	-1.000000	-1.000000	-1.000000	-1.000000	87.793103	0.000000	-1.000000	-1.000000	266416.000000	1772894244.587011
-113.715000	-14215.455000	5314.680000	-170.955000	-24997.410000	-22028.715000	-5782.680000	1549.620000	-13.272287	-7.669628	-14.127877	-16.426345	-14.093888	-12.422743	-11.333626	-7.010446	-9.568020	1.724380	0.289940	0.646361	0.002319	0.723936	-1.000000	-1.000000	-1.000000	-1.000000	-1.000000	-1.000000	-1.000000	87.793103	0.000000	-1.000000	-1.000000	266417.000000	1772894244.591306
-71.640000	-14236.560000	5305.770000	-182.700000	-25009.650000	-22037.265000	-5784.120000	1596.510000	-16.705030	-6.781205	-15.272074	-14.535924	-12.737161	-10.792853	-10.438978	-11.490595	-9.568020	1.724380	0.289940	0.646361	0.002319	0.723936	-1.000000	-1.000000	-1.000000	-1.000000	-1.000000	-1.000000	-1.000000	87.793103	0.000000	-1.000000	-1.000000	266418.000000	1772894244.591313
-25.065000	-14215.680000	5312.205000	-182.385000	-25010.820000	-22039.065000	-5785.515000	1655.595000	-9.290840	-3.926526	-10.243284	-7.556061	-7.028086	-5.848729	-6.687401	-9.720456	-9.568020	1.724380	0.289940	0.646361	0.002319	0.723936	-1.000000	-1.000000	-1.000000	-1.000000	-1.000000	-1.000000	-1.000000	87.793103	0.000000	-1.000000	-1.000000	266419.000000	1772894244.594979
-34.110000	-14199.975000	5322.420000	-171.990000	-25002.495000	-22034.340000	-5778.450000	1631.475000	6.773108	0.770586	-2.175902	0.442840	0.015835	0.359171	-1.609359	-0.270371	-9.568020	1.724380	0.289940	0.646361	0.002319	0.723936	-1.000000	-1.000000	-1.000000	-1.000000	-1.000000	-1.000000	-1.000000	87.793103	0.000000	-1.000000	-1.000000	266420.000000	1772894244.594988
-51.165000	-14203.575000	5316.255000	-175.590000	-25008.030000	-22043.880000	-5793.570000	1592.730000	21.161094	6.410501	5.290321	6.796256	5.975571	5.842965	3.268613	10.372259	2.029580	2.594200	0.518840	0.642332	-0.012512	0.727171	-1.000000	-1.000000	-1.000000	-1.000000	-1.000000	-1.000000	-1.000000	87.793103	0.000000	-1.000000	-1.000000	266421.000000	1772894244.599024
-86.265000	-14212.530000	5317.110000	-171.540000	-25005.465000	-22038.705000	-5793.165000	1569.510000	23.240783	10.555980	10.123242	11.148025	10.146753	9.556993	6.653146	12.547502	2.029580	2.594200	0.518840	0.642332	-0.012512	0.727171	-1.000000	-1.000000	-1.000000	-1.000000	-1.000000	-1.000000	-1.000000	87.793103	0.000000	-1.000000	-1.000000	266422.000000	1772894244.599032
-83.295000	-14190.840000	5351.310000	-128.880000	-24960.150000	-21986.595000	-5747.670000	1538.505000	11.683930	11.816431	12.915877	14.487622	13.304791	12.113940	8.705568	3.239802	2.029580	2.594200	0.518840	0.642332	-0.012512	0.727171	-1.000000	-1.000000	-1.000000	-1.000000	-1.000000	-1.000000	-1.000000	87.793103	0.000000	-1.000000	-1.000000	266423.000000	1772894244.608460
-60.930000	-14173.695000	5358.735000	-116.145000	-24944.400000	-21967.245000	-5718.510000	1529.910000	-4.815862	10.610759	14.605148	16.970471	15.823252	14.418916	10.797343	-11.477621	2.029580	2.594200	0.518840	0.642332	-0.012512	0.727171	-1.000000	-1.000000	-1.000000	-1.000000	-1.000000	-1.000000	-1.000000	87.793103	0.000000	-1.000000	-1.000000	266424.000000	1772894244.608469
-44.505000	-14178.285000	5332.590000	-144.855000	-24974.595000	-22003.020000	-5749.740000	1585.035000	-15.396499	7.004679	13.223785	15.750512	15.114478	14.346306	12.055905	-20.652792	2.029580	2.594200	0.518840	0.642332	-0.012512	0.727171	-1.000000	-1.000000	-1.000000	-1.000000	-1.000000	-1.000000	-1.000000	87.793103	0.000000	-1.000000	-1.000000	266425.000000	1772894244.608586
-23.085000	-14172.930000	5319.630000	-161.145000	-24990.795000	-22022.865000	-5778.270000	1662.480000	-15.244394	1.245588	6.191605	7.563535	7.760942	8.031121	8.607458	-15.303643	2.029580	2.594200	0.518840	0.642332	-0.012512	0.727171	-1.000000	-1.000000	-1.000000	-1.000000	-1.000000	-1.000000	-1.000000	87.793103	0.000000	-1.000000	-1.000000	266426.000000	1772894244.608591
-78.570000	-14194.395000	5322.915000	-157.725000	-24982.470000	-22012.830000	-5772.465000	1630.170000	-8.641330	-4.854710	-4.739002	-5.814248	-4.754707	-3.922880	-1.031938	2.381737	2.029580	2.594200	0.518840	0.642332	-0.012512	0.727171	-1.000000	-1.000000	-1.000000	-1.000000	-1.000000	-1.000000	-1.000000	87.793103	0.000000	-1.000000	-1.000000	266427.000000	1772894244.610906
-96.840000	-14218.920000	5348.520000	-137.115000	-24964.875000	-21993.885000	-5746.815000	1598.535000	-4.408518	-10.226019	-13.958262	-17.637088	-15.856897	-15.105404	-12.013071	17.972071	2.029580	2.594200	0.518840	0.642332	-0.012512	0.727171	-1.000000	-1.000000	-1.000000	-1.000000	-1.000000	-1.000000	-1.000000	87.793103	0.000000	-1.000000	-1.000000	266428.000000	1772894244.610914
-71.460000	-14205.555000	5360.670000	-123.750000	-24951.510000	-21980.430000	-5738.850000	1519.605000	-5.484193	-14.653256	-16.524612	-21.539343	-19.505309	-18.896876	-17.030662	18.614237	2.029580	2.594200	0.518840	0.642332	-0.012512	0.727171	-1.000000	-1.000000	-1.000000	-1.000000	-1.000000	-1.000000	-1.000000	87.793103	0.000000	-1.000000	-1.000000	266429.000000	1772894244.618381
-41.715000	-14189.580000	5356.935000	-124.155000	-24954.300000	-21985.740000	-5763.015000	1487.070000	-5.499011	-15.466647	-11.528842	-15.869461	-14.400289	-13.708027	-13.343961	4.725430	2.029580	2.594200	0.518840	0.642332	-0.012512	0.727171	-1.000000	-1.000000	-1.000000	-1.000000	-1.000000	-1.000000	-1.000000	87.793103	0.000000	-1.000000	-1.000000	266430.000000	1772894244.618391
-20.565000	-14203.305000	5319.360000	-174.105000	-25009.470000	-22034.385000	-5788.260000	1596.645000	2.044506	-9.672358	-2.991140	-5.198597	-5.107687	-4.464794	-5.207411	-10.922239	5.005280	3.509800	-0.717220	0.649168	-0.015076	0.726622	-1.000000	-1.000000	-1.000000	-1.000000	-1.000000	-1.000000	-1.000000	87.793103	0.000000	-1.000000	-1.000000	266431.000000	1772894244.620280
-49.365000	-14204.205000	5310.495000	-193.275000	-25024.995000	-22052.340000	-5791.455000	1681.695000	14.358916	0.464116	2.572405	2.178445	0.520813	0.612396	0.327557	-12.252000	5.005280	3.509800	-0.717220	0.649168	-0.015076	0.726622	-1.000000	-1.000000	-1.000000	-1.000000	-1.000000	-1.000000	-1.000000	87.793103	0.000000	-1.000000	-1.000000	266432.000000	1772894244.620300
-40.365000	-14195.565000	5321.925000	-175.545000	-25004.970000	-22034.250000	-5776.155000	1653.660000	21.306101	8.840731	2.301628	2.290686	-0.594822	-1.453838	0.588564	4.128230	5.005280	3.509800	-0.717220	0.649168	-0.015076	0.726622	-1.000000	-1.000000	-1.000000	-1.000000	-1.000000	-1.000000	-1.000000	87.793103	0.000000	-1.000000	-1.000000	266433.000000	1772894244.622828
-54.810000	-14198.580000	5328.945000	-156.870000	-24984.855000	-22010.400000	-5758.380000	1604.475000	16.084571	11.855034	0.134780	0.199091	-2.534582	-4.081044	-0.020574	21.440649	5.005280	3.509800	-0.717220	0.649168	-0.015076	0.726622	-1.000000	-1.000000	-1.000000	-1.000000	-1.000000	-1.000000	-1.000000	87.793103	0.000000	-1.000000	-1.000000	266434.000000	1772894244.622834
-41.715000	-14198.220000	5335.425000	-151.470000	-24979.590000	-22004.055000	-5757.390000	1616.040000	1.579480	10.286178	1.348969	2.838567	1.635214	0.414325	3.797731	20.028125	5.005280	3.509800	-0.717220	0.649168	-0.015076	0.726622	-1.000000	-1.000000	-1.000000	-1.000000	-1.000000	-1.000000	-1.000000	87.793103	0.000000	-1.000000	-1.000000	266435.000000	1772894244.628254
-73.620000	-14209.830000	5324.760000	-163.215000	-24990.120000	-22015.170000	-5766.840000	1589.625000	-12.902360	6.659889	5.757109	9.718241	10.501227	10.511068	10.592284	-0.712197	5.005280	3.509800	-0.717220	0.649168	-0.015076	0.726622	-1.000000	-1.000000	-1.000000	-1.000000	-1.000000	-1.000000	-1.000000	87.793103	0.000000	-1.000000	-1.000000	266436.000000	1772894244.628259
-78.570000	-14187.465000	5337.405000	-153.765000	-24984.045000	-22016.790000	-5769.990000	1574.280000	-19.538689	3.126226	8.545784	14.138032	16.293977	17.408413	13.651861	-23.717358	5.005280	3.509800	-0.717220	0.649168	-0.015076	0.726622	-1.000000	-1.000000	-1.000000	-1.000000	-1.000000	-1.000000	-1.000000	87.793103	0.000000	-1.000000	-1.000000	266437.000000	1772894244.632256
-63.450000	-14181.075000	5338.620000	-155.835000	-24991.695000	-22030.380000	-5796.405000	1582.155000	-16.871503	0.769280	6.630596	11.525359	13.813044	14.914933	8.974286	-31.345788	5.005280	3.509800	-0.717220	0.649168	-0.015076	0.726622	-1.000000	-1.000000	-1.000000	-1.000000	-1.000000	-1.000000	-1.000000	87.793103	0.000000	-1.000000	-1.000000	266438.000000	1772894244.632263
-35.685000	-14197.770000	5318.730000	-172.305000	-25001.595000	-22034.025000	-5804.010000	1612.260000	-7.818118	-0.826214	1.581047	3.543914	4.861788	4.843936	-0.728141	-18.598993	5.005280	3.509800	-0.717220	0.649168	-0.015076	0.726622	-1.000000	-1.000000	-1.000000	-1.000000	-1.000000	-1.000000	-1.000000	87.793103	0.000000	-1.000000	-1.000000	266439.000000	1772894244.634869
-63.720000	-14235.120000	5290.335000	-199.440000	-25020.720000	-22040.325000	-5775.660000	1608.885000	3.177420	-3.221864	-3.444195	-4.903056	-4.633318	-5.715413	-8.738691	3.485412	5.005280	3.509800	-0.717220	0.649168	-0.015076	0.726622	-1.000000	-1.000000	-1.000000	-1.000000	-1.000000	-1.000000	-1.000000	87.793103	0.000000	-1.000000	-1.000000	266440.000000	1772894244.634880
-97.560000	-14216.130000	5320.755000	-171.180000	-24993.405000	-22015.800000	-5750.055000	1576.620000	10.613225	-7.001285	-6.336014	-9.747983	-9.748922	-10.638255	-9.789297	17.414069	-0.976640	4.288060	-0.946120	0.660460	-0.005493	0.718687	-1.000000	-1.000000	-1.000000	-1.000000	-1.000000	-1.000000	-1.000000	87.793103	0.000000	-1.000000	-1.000000	266441.000000	1772894244.638826
-118.350000	-14219.010000	5308.785000	-184.680000	-25012.710000	-22039.650000	-5784.255000	1579.095000	10.365113	-9.892139	-5.936720	-9.501119	-9.402976	-9.005199	-4.551807	15.491632	-0.976640	4.288060	-0.946120	0.660460	-0.005493	0.718687	-1.000000	-1.000000	-1.000000	-1.000000	-1.000000	-1.000000	-1.000000	87.793103	0.000000	-1.000000	-1.000000	266442.000000	1772894244.638834
-94.545000	-14220.765000	5301.855000	-182.295000	-25010.640000	-22041.000000	-5791.005000	1612.755000	3.768732	-8.846402	-2.877220	-5.725961	-6.051612	-4.641309	1.083994	4.867378	-0.976640	4.288060	-0.946120	0.660460	-0.005493	0.718687	-1.000000	-1.000000	-1.000000	-1.000000	-1.000000	-1.000000	-1.000000	87.793103	0.000000	-1.000000	-1.000000	266443.000000	1772894244.642804
-98.595000	-14229.180000	5296.860000	-183.195000	-25012.440000	-22045.140000	-5790.870000	1601.325000	-2.726436	-3.561527	0.377422	-1.346771	-2.669517	-1.554936	2.531034	-3.031598	-0.976640	4.288060	-0.946120	0.660460	-0.005493	0.718687	-1.000000	-1.000000	-1.000000	-1.000000	-1.000000	-1.000000	-1.000000	87.793103	0.000000	-1.000000	-1.000000	266444.000000	1772894244.642826
-96.075000	-14217.930000	5309.595000	-178.245000	-25009.200000	-22041.630000	-5784.975000	1585.215000	-3.433474	3.500041	2.082646	1.869258	-0.273575	-0.454896	0.517160	-3.386725	-0.976640	4.288060	-0.946120	0.660460	-0.005493	0.718687	-1.000000	-1.000000	-1.000000	-1.000000	-1.000000	-1.000000	-1.000000	87.793103	0.000000	-1.000000	-1.000000	266445.000000	1772894244.646721
-89.955000	-14216.940000	5308.875000	-184.185000	-25014.465000	-22042.755000	-5776.335000	1572.705000	1.597999	8.941914	2.254557	3.295742	1.262428	0.107470	-1.394528	1.514271	-0.976640	4.288060	-0.946120	0.660460	-0.005493	0.718687	-1.000000	-1.000000	-1.000000	-1.000000	-1.000000	-1.000000	-1.000000	87.793103	0.000000	-1.000000	-1.000000	266446.000000	1772894244.646726
-86.625000	-14220.495000	5304.780000	-187.020000	-25013.790000	-22041.495000	-5780.745000	1564.020000	7.208203	10.135239	1.655723	2.929104	2.167381	1.385528	-0.457103	6.509917	-0.976640	4.288060	-0.946120	0.660460	-0.005493	0.718687	-1.000000	-1.000000	-1.000000	-1.000000	-1.000000	-1.000000	-1.000000	87.793103	0.000000	-1.000000	-1.000000	266447.000000	1772894244.655183
-67.365000	-14226.885000	5294.745000	-194.040000	-25021.170000	-22047.435000	-5786.910000	1566.720000	8.443878	7.254082	1.377746	2.017383	3.071907	3.506339	2.872226	6.628646	-0.976640	4.288060	-0.946120	0.660460	-0.005493	0.718687	-1.000000	-1.000000	-1.000000	-1.000000	-1.000000	-1.000000	-1.000000	87.793103	0.000000	-1.000000	-1.000000	266448.000000	1772894244.655194
-67.050000	-14234.715000	5287.995000	-192.465000	-25018.245000	-22042.035000	-5783.040000	1575.630000	5.396916	2.892530	1.937594	2.042883	4.237774	5.291531	4.892850	0.789293	-0.976640	4.288060	-0.946120	0.660460	-0.005493	0.718687	-1.000000	-1.000000	-1.000000	-1.000000	-1.000000	-1.000000	-1.000000	87.793103	0.000000	-1.000000	-1.000000	266449.000000	1772894244.655329
-64.890000	-14229.855000	5303.430000	-175.725000	-25006.140000	-22035.195000	-5784.525000	1581.120000	1.732110	-1.012452	2.315773	2.752080	4.684886	5.185813	2.768928	-6.173534	-0.976640	4.288060	-0.946120	0.660460	-0.005493	0.718687	-1.000000	-1.000000	-1.000000	-1.000000	-1.000000	-1.000000	-1.000000	87.793103	0.000000	-1.000000	-1.000000	266450.000000	1772894244.655335
-60.075000	-14199.840000	5321.790000	-164.655000	-24997.230000	-22031.550000	-5782.680000	1599.930000	-0.445805	-3.462672	1.929205	3.081120	3.728306	3.113432	-1.737962	-8.325560	-9.934260	4.120200	-1.602300	0.657042	-0.000061	0.718748	-1.000000	-1.000000	-1.000000	-1.000000	-1.000000	-1.000000	-1.000000	87.793103	0.000000	-1.000000	-1.000000	266451.000000	1772894244.658873
-39.150000	-14174.685000	5344.920000	-146.520000	-24981.120000	-22016.970000	-5770.575000	1605.060000	-1.859219	-2.861302	2.040347	2.875546	2.132818	0.645669	-4.366555	-4.798605	-9.934260	4.120200	-1.602300	0.657042	-0.000061	0.718748	-1.000000	-1.000000	-1.000000	-1.000000	-1.000000	-1.000000	-1.000000	87.793103	0.000000	-1.000000	-1.000000	266452.000000	1772894244.658878
-38.385000	-14174.415000	5347.440000	-144.900000	-24978.105000	-22011.345000	-5763.285000	1602.360000	-3.272459	0.977021	3.206107	2.238777	0.759902	-0.802486	-3.073814	1.044366	-9.934260	4.120200	-1.602300	0.657042	-0.000061	0.718748	-1.000000	-1.000000	-1.000000	-1.000000	-1.000000	-1.000000	-1.000000	87.793103	0.000000	-1.000000	-1.000000	266453.000000	1772894244.663291
-58.590000	-14185.125000	5341.770000	-145.755000	-24974.010000	-22003.740000	-5755.905000	1596.510000	-4.698375	4.489138	3.360260	0.628102	-0.520325	-1.149208	0.564744	5.964206	-9.934260	4.120200	-1.602300	0.657042	-0.000061	0.718748	-1.000000	-1.000000	-1.000000	-1.000000	-1.000000	-1.000000	-1.000000	87.793103	0.000000	-1.000000	-1.000000	266454.000000	1772894244.663300
-49.140000	-14179.545000	5344.740000	-142.695000	-24972.705000	-22004.010000	-5754.240000	1604.025000	-6.518151	3.460743	0.339204	-2.225161	-2.112533	-1.214058	3.619532	8.306069	-9.934260	4.120200	-1.602300	0.657042	-0.000061	0.718748	-1.000000	-1.000000	-1.000000	-1.000000	-1.000000	-1.000000	-1.000000	87.793103	0.000000	-1.000000	-1.000000	266455.000000	1772894244.666790
-49.590000	-14182.380000	5339.295000	-150.390000	-24982.245000	-22016.565000	-5757.300000	1608.345000	-8.445084	-1.902438	-4.710457	-5.154843	-3.778928	-1.794850	4.346804	7.324472	-9.934260	4.120200	-1.602300	0.657042	-0.000061	0.718748	-1.000000	-1.000000	-1.000000	-1.000000	-1.000000	-1.000000	-1.000000	87.793103	0.000000	-1.000000	-1.000000	266456.000000	1772894244.666798
-66.555000	-14202.315000	5322.150000	-165.240000	-24993.270000	-22025.340000	-5761.125000	1608.255000	-9.131057	-7.554593	-8.463557	-6.600230	-4.974646	-3.236822	2.477797	2.881947	-9.934260	4.120200	-1.602300	0.657042	-0.000061	0.718748	-1.000000	-1.000000	-1.000000	-1.000000	-1.000000	-1.000000	-1.000000	87.793103	0.000000	-1.000000	-1.000000	266457.000000	1772894244.670917
-75.915000	-14197.320000	5333.895000	-147.510000	-24971.895000	-22000.230000	-5755.005000	1583.910000	-7.560461	-10.141882	-8.997549	-6.177779	-5.306347	-4.892377	-1.310528	-4.007593	-9.934260	4.120200	-1.602300	0.657042	-0.000061	0.718748	-1.000000	-1.000000	-1.000000	-1.000000	-1.000000	-1.000000	-1.000000	87.793103	0.000000	-1.000000	-1.000000	266458.000000	1772894244.670924
-58.905000	-14174.280000	5356.125000	-124.380000	-24948.810000	-21977.955000	-5749.740000	1558.260000	-3.307622	-8.621368	-6.371498	-4.059826	-4.045246	-4.758091	-4.969591	-11.228928	-9.934260	4.120200	-1.602300	0.657042	-0.000061	0.718748	-1.000000	-1.000000	-1.000000	-1.000000	-1.000000	-1.000000	-1.000000	87.793103	0.000000	-1.000000	-1.000000	266459.000000	1772894244.674917
-28.980000	-14150.025000	5375.070000	-108.765000	-24935.760000	-21967.470000	-5740.650000	1582.560000	3.335013	-3.575707	-1.480687	-0.375059	-0.687716	-1.429786	-5.970303	-16.016773	-9.934260	4.120200	-1.602300	0.657042	-0.000061	0.718748	-1.000000	-1.000000	-1.000000	-1.000000	-1.000000	-1.000000	-1.000000	87.793103	0.000000	-1.000000	-1.000000	266460.000000	1772894244.674926
-18.315000	-14144.175000	5377.770000	-107.775000	-24936.120000	-21966.930000	-5727.735000	1637.370000	10.494668	2.877505	3.771934	3.639329	3.338486	3.359752	-3.656659	-14.336011	-10.865120	1.724380	-2.014320	0.646849	-0.002747	0.725035	-1.000000	-1.000000	-1.000000	-1.000000	-1.000000	-1.000000	-1.000000	87.793103	0.000000	-1.000000	-1.000000	266461.000000	1772894244.679052
-25.920000	-14138.820000	5388.120000	-94.770000	-24920.640000	-21951.945000	-5716.755000	1629.180000	14.972895	7.865558	6.969909	5.934517	5.536253	6.193135	0.367695	-3.649767	-10.865120	1.724380	-2.014320	0.646849	-0.002747	0.725035	-1.000000	-1.000000	-1.000000	-1.000000	-1.000000	-1.000000	-1.000000	87.793103	0.000000	-1.000000	-1.000000	266462.000000	1772894244.679060
-39.465000	-14139.540000	5393.610000	-87.750000	-24912.495000	-21947.040000	-5712.750000	1622.610000	13.990166	9.380085	7.073349	5.718304	5.036628	5.531990	3.774224	11.445334	-10.865120	1.724380	-2.014320	0.646849	-0.002747	0.725035	-1.000000	-1.000000	-1.000000	-1.000000	-1.000000	-1.000000	-1.000000	87.793103	0.000000	-1.000000	-1.000000	266463.000000	1772894244.682889
-42.750000	-14144.175000	5380.425000	-103.680000	-24925.545000	-21958.920000	-5713.470000	1604.565000	6.999278	7.011702	4.644739	3.531086	2.679668	2.275358	4.941519	21.054945	-10.865120	1.724380	-2.014320	0.646849	-0.002747	0.725035	-1.000000	-1.000000	-1.000000	-1.000000	-1.000000	-1.000000	-1.000000	87.793103	0.000000	-1.000000	-1.000000	266464.000000	1772894244.682895
-13.860000	-14136.525000	5380.875000	-110.205000	-24936.615000	-21973.950000	-5735.880000	1606.320000	-2.794371	2.255068	0.952193	0.193629	-0.504036	-1.880509	3.359214	18.687879	-10.865120	1.724380	-2.014320	0.646849	-0.002747	0.725035	-1.000000	-1.000000	-1.000000	-1.000000	-1.000000	-1.000000	-1.000000	87.793103	0.000000	-1.000000	-1.000000	266465.000000	1772894244.686742
-11.610000	-14161.725000	5356.350000	-137.250000	-24970.410000	-22006.845000	-5765.355000	1636.065000	-9.372256	-2.261102	-2.555467	-3.430931	-4.010032	-5.871936	-0.948946	6.943137	-10.865120	1.724380	-2.014320	0.646849	-0.002747	0.725035	-1.000000	-1.000000	-1.000000	-1.000000	-1.000000	-1.000000	-1.000000	87.793103	0.000000	-1.000000	-1.000000	266466.000000	1772894244.686750
-47.700000	-14177.250000	5350.680000	-130.725000	-24962.040000	-21991.905000	-5742.315000	1637.595000	-9.670595	-5.510746	-5.449839	-6.821633	-7.734537	-9.312993	-6.496908	-4.941501	-10.865120	1.724380	-2.014320	0.646849	-0.002747	0.725035	-1.000000	-1.000000	-1.000000	-1.000000	-1.000000	-1.000000	-1.000000	87.793103	0.000000	-1.000000	-1.000000	266467.000000	1772894244.690747
-50.895000	-14185.890000	5343.300000	-140.580000	-24972.705000	-22003.425000	-5749.155000	1629.270000	-6.978320	-8.454285	-8.079671	-9.341503	-10.608584	-10.950384	-9.519095	-10.056628	-10.865120	1.724380	-2.014320	0.646849	-0.002747	0.725035	-1.000000	-1.000000	-1.000000	-1.000000	-1.000000	-1.000000	-1.000000	87.793103	0.000000	-1.000000	-1.000000	266468.000000	1772894244.690755
-45.990000	-14183.415000	5342.715000	-140.985000	-24966.675000	-21993.840000	-5743.755000	1601.595000	-5.745384	-11.005373	-9.712106	-9.678024	-10.430650	-8.924655	-7.447933	-9.786928	-10.865120	1.724380	-2.014320	0.646849	-0.002747	0.725035	-1.000000	-1.000000	-1.000000	-1.000000	-1.000000	-1.000000	-1.000000	87.793103	0.000000	-1.000000	-1.000000	266469.000000	1772894244.696153
-43.020000	-14174.595000	5348.430000	-134.550000	-24956.505000	-21982.230000	-5733.405000	1572.660000	-5.949023	-10.730190	-8.468876	-6.618587	-5.729442	-2.724129	-1.580633	-9.885695	-10.865120	1.724380	-2.014320	0.646849	-0.002747	0.725035	-1.000000	-1.000000	-1.000000	-1.000000	-1.000000	-1.000000	-1.000000	87.793103	0.000000	-1.000000	-1.000000	266470.000000	1772894244.696172
-45.630000	-14178.465000	5341.230000	-143.865000	-24968.970000	-21998.790000	-5746.185000	1585.395000	-4.429937	-5.483667	-3.418557	-0.447328	2.323443	5.534807	4.656259	-11.864508	-5.188400	2.411080	-3.494540	0.649657	-0.011230	0.727171	-1.000000	-1.000000	-1.000000	-1.000000	-1.000000	-1.000000	-1.000000	87.793103	0.000000	-1.000000	-1.000000	266471.000000	1772894244.700271
-26.865000	-14159.475000	5349.420000	-135.720000	-24960.330000	-21994.065000	-5739.480000	1616.805000	0.733032	3.702247	3.946611	6.562441	10.007928	11.800649	8.171413	-10.653529	-5.188400	2.411080	-3.494540	0.649657	-0.011230	0.727171	-1.000000	-1.000000	-1.000000	-1.000000	-1.000000	-1.000000	-1.000000	87.793103	0.000000	-1.000000	-1.000000	266472.000000	1772894244.700281
-16.920000	-14145.480000	5358.285000	-128.970000	-24957.315000	-21991.005000	-5727.870000	1637.055000	8.024551	13.276888	11.028384	12.081878	14.341995	13.703317	8.377429	-1.678685	-5.188400	2.411080	-3.494540	0.649657	-0.011230	0.727171	-1.000000	-1.000000	-1.000000	-1.000000	-1.000000	-1.000000	-1.000000	87.793103	0.000000	-1.000000	-1.000000	266473.000000	1772894244.702777
-42.030000	-14151.015000	5371.335000	-115.020000	-24946.335000	-21978.270000	-5719.230000	1613.475000	12.948099	19.275473	15.850630	15.213490	15.116334	12.367072	7.359586	11.675674	-5.188400	2.411080	-3.494540	0.649657	-0.011230	0.727171	-1.000000	-1.000000	-1.000000	-1.000000	-1.000000	-1.000000	-1.000000	87.793103	0.000000	-1.000000	-1.000000	266474.000000	1772894244.702785
-37.890000	-14164.380000	5382.540000	-99.405000	-24928.920000	-21963.105000	-5715.990000	1605.870000	11.701476	18.752975	17.136856	15.572335	13.352005	9.881849	6.775983	19.943018	-5.188400	2.411080	-3.494540	0.649657	-0.011230	0.727171	-1.000000	-1.000000	-1.000000	-1.000000	-1.000000	-1.000000	-1.000000	87.793103	0.000000	-1.000000	-1.000000	266475.000000	1772894244.706853
-20.160000	-14185.710000	5349.285000	-134.055000	-24960.915000	-21992.805000	-5752.620000	1628.955000	5.742604	11.050946	13.517886	11.846710	8.914850	6.166530	5.077277	17.579544	-5.188400	2.411080	-3.494540	0.649657	-0.011230	0.727171	-1.000000	-1.000000	-1.000000	-1.000000	-1.000000	-1.000000	-1.000000	87.793103	0.000000	-1.000000	-1.000000	266476.000000	1772894244.706860
-22.005000	-14183.415000	5337.495000	-148.140000	-24970.095000	-21997.080000	-5756.220000	1627.875000	-0.247636	-1.403255	3.999739	2.612139	0.644318	-0.456518	-0.413961	8.044579	-5.188400	2.411080	-3.494540	0.649657	-0.011230	0.727171	-1.000000	-1.000000	-1.000000	-1.000000	-1.000000	-1.000000	-1.000000	87.793103	0.000000	-1.000000	-1.000000	266477.000000	1772894244.710725
-40.635000	-14199.435000	5305.500000	-173.655000	-24990.255000	-22018.725000	-5768.640000	1621.935000	-4.295591	-13.603896	-9.444693	-10.332753	-10.364217	-9.522803	-8.780990	-1.770322	-5.188400	2.411080	-3.494540	0.649657	-0.011230	0.727171	-1.000000	-1.000000	-1.000000	-1.000000	-1.000000	-1.000000	-1.000000	87.793103	0.000000	-1.000000	-1.000000	266478.000000	1772894244.710736
-36.405000	-14196.285000	5310.090000	-167.175000	-24988.005000	-22014.180000	-5748.750000	1633.320000	-7.069723	-20.407989	-21.200113	-21.240570	-19.592482	-17.315120	-15.171969	-7.410602	-5.188400	2.411080	-3.494540	0.649657	-0.011230	0.727171	-1.000000	-1.000000	-1.000000	-1.000000	-1.000000	-1.000000	-1.000000	87.793103	0.000000	-1.000000	-1.000000	266479.000000	1772894244.716187
-38.115000	-14178.195000	5349.195000	-132.885000	-24958.620000	-21986.550000	-5733.225000	1615.995000	-8.349617	-18.880114	-24.444848	-23.502897	-21.517551	-18.827056	-14.576540	-8.344041	-5.188400	2.411080	-3.494540	0.649657	-0.011230	0.727171	-1.000000	-1.000000	-1.000000	-1.000000	-1.000000	-1.000000	-1.000000	87.793103	0.000000	-1.000000	-1.000000	266480.000000	1772894244.716197
-21.780000	-14165.550000	5356.710000	-125.145000	-24949.575000	-21978.855000	-5731.695000	1623.960000	-7.212169	-9.604450	-15.661163	-14.252021	-13.433659	-11.285480	-6.151572	-7.342432	4.410140	3.219860	-3.418240	0.661741	-0.021301	0.721861	-1.000000	-1.000000	-1.000000	-1.000000	-1.000000	-1.000000	-1.000000	87.793103	0.000000	-1.000000	-1.000000	266481.000000	1772894244.718760
-34.740000	-14189.985000	5353.110000	-130.770000	-24957.450000	-21987.225000	-5753.340000	1598.895000	-3.901688	2.594200	0.880637	1.938112	1.072667	2.035218	4.973691	-7.067288	4.410140	3.219860	-3.418240	0.661741	-0.021301	0.721861	-1.000000	-1.000000	-1.000000	-1.000000	-1.000000	-1.000000	-1.000000	87.793103	0.000000	-1.000000	-1.000000	266482.000000	1772894244.718771
-42.030000	-14203.035000	5351.535000	-130.770000	-24956.280000	-21984.120000	-5750.415000	1599.885000	0.185567	11.185324	15.346222	15.537212	13.743392	13.316187	11.802970	-7.268104	4.410140	3.219860	-3.418240	0.661741	-0.021301	0.721861	-1.000000	-1.000000	-1.000000	-1.000000	-1.000000	-1.000000	-1.000000	87.793103	0.000000	-1.000000	-1.000000	266483.000000	1772894244.722684
-42.435000	-14195.340000	5333.580000	-161.190000	-24993.090000	-22024.440000	-5757.570000	1641.150000	3.487812	13.120635	20.094130	19.170064	17.600235	16.084782	11.502006	-5.365260	4.410140	3.219860	-3.418240	0.661741	-0.021301	0.721861	-1.000000	-1.000000	-1.000000	-1.000000	-1.000000	-1.000000	-1.000000	87.793103	0.000000	-1.000000	-1.000000	266484.000000	1772894244.722693
-45.315000	-14172.165000	5357.655000	-137.925000	-24974.415000	-22003.785000	-5735.655000	1650.690000	4.801829	10.579352	14.894546	12.746180	11.858894	9.835454	6.865575	0.505792	4.410140	3.219860	-3.418240	0.661741	-0.021301	0.721861	-1.000000	-1.000000	-1.000000	-1.000000	-1.000000	-1.000000	-1.000000	87.793103	0.000000	-1.000000	-1.000000	266485.000000	1772894244.728229
-29.790000	-14150.655000	5379.435000	-112.545000	-24947.235000	-21977.145000	-5725.890000	1649.025000	4.088073	7.478678	6.056692	3.260103	2.692078	0.759291	2.756684	8.319034	4.410140	3.219860	-3.418240	0.661741	-0.021301	0.721861	-1.000000	-1.000000	-1.000000	-1.000000	-1.000000	-1.000000	-1.000000	87.793103	0.000000	-1.000000	-1.000000	266486.000000	1772894244.728238
-14.400000	-14142.330000	5385.510000	-103.905000	-24935.580000	-21966.930000	-5727.870000	1614.465000	3.163999	5.633947	0.188342	-1.850437	-2.428591	-3.781994	1.203242	12.957078	4.410140	3.219860	-3.418240	0.661741	-0.021301	0.721861	-1.000000	-1.000000	-1.000000	-1.000000	-1.000000	-1.000000	-1.000000	87.793103	0.000000	-1.000000	-1.000000	266487.000000	1772894244.733208
-6.615000	-14143.140000	5382.990000	-106.020000	-24936.480000	-21967.020000	-5719.230000	1584.990000	3.688418	3.880067	-1.701737	-1.690005	-1.863321	-2.336236	0.403024	10.162913	4.410140	3.219860	-3.418240	0.661741	-0.021301	0.721861	-1.000000	-1.000000	-1.000000	-1.000000	-1.000000	-1.000000	-1.000000	87.793103	0.000000	-1.000000	-1.000000	266488.000000	1772894244.733217
3.555000	-14140.710000	5388.705000	-96.705000	-24923.835000	-21949.560000	-5694.030000	1606.275000	4.754802	-0.099844	-3.273453	-0.856815	0.245999	0.847890	-1.456476	0.774846	4.410140	3.219860	-3.418240	0.661741	-0.021301	0.721861	-1.000000	-1.000000	-1.000000	-1.000000	-1.000000	-1.000000	-1.000000	87.793103	0.000000	-1.000000	-1.000000	266489.000000	1772894244.734816
-18.630000	-14157.990000	5383.260000	-89.100000	-24911.640000	-21937.455000	-5698.845000	1647.405000	3.759204	-6.757569	-6.956227	-2.654035	0.145808	1.908569	-3.608952	-8.110610	4.410140	3.219860	-3.418240	0.661741	-0.021301	0.721861	-1.000000	-1.000000	-1.000000	-1.000000	-1.000000	-1.000000	-1.000000	87.793103	0.000000	-1.000000	-1.000000	266490.000000	1772894244.734824
-79.020000	-14164.740000	5375.610000	-96.210000	-24921.540000	-21952.800000	-5724.945000	1628.280000	-1.278321	-13.227681	-11.173047	-6.025122	-2.136445	0.329382	-4.847802	-9.257254	7.691040	4.562740	-1.632820	0.661803	-0.016113	0.720823	-1.000000	-1.000000	-1.000000	-1.000000	-1.000000	-1.000000	-1.000000	87.793103	0.000000	-1.000000	-1.000000	266491.000000	1772894244.738724
-69.660000	-14140.800000	5397.255000	-80.415000	-24908.985000	-21941.460000	-5725.530000	1580.085000	-9.285812	-14.967188	-12.424145	-8.036282	-4.596362	-2.601262	-5.511756	-3.782743	7.691040	4.562740	-1.632820	0.661803	-0.016113	0.720823	-1.000000	-1.000000	-1.000000	-1.000000	-1.000000	-1.000000	-1.000000	87.793103	0.000000	-1.000000	-1.000000	266492.000000	1772894244.738732
-5.670000	-14122.215000	5398.695000	-90.135000	-24921.225000	-21951.225000	-5714.820000	1609.155000	-14.379153	-9.565065	-8.261311	-6.596820	-5.256034	-4.792932	-5.680132	0.603738	7.691040	4.562740	-1.632820	0.661803	-0.016113	0.720823	-1.000000	-1.000000	-1.000000	-1.000000	-1.000000	-1.000000	-1.000000	87.793103	0.000000	-1.000000	-1.000000	266493.000000	1772894244.742744
-5.535000	-14149.215000	5363.640000	-135.000000	-24970.905000	-21995.055000	-5720.445000	1656.495000	-10.307117	-0.159560	-0.635999	-3.068756	-4.575280	-5.636964	-4.503635	0.863189	7.691040	4.562740	-1.632820	0.661803	-0.016113	0.720823	-1.000000	-1.000000	-1.000000	-1.000000	-1.000000	-1.000000	-1.000000	87.793103	0.000000	-1.000000	-1.000000	266494.000000	1772894244.742754
-11.655000	-14164.830000	5360.445000	-135.900000	-24970.320000	-21995.370000	-5722.965000	1651.680000	1.224046	6.202965	4.704765	-1.655983	-5.553212	-7.145592	-2.182228	1.258147	7.691040	4.562740	-1.632820	0.661803	-0.016113	0.720823	-1.000000	-1.000000	-1.000000	-1.000000	-1.000000	-1.000000	-1.000000	87.793103	0.000000	-1.000000	-1.000000	266495.000000	1772894244.748240
-1.980000	-14163.390000	5362.065000	-134.910000	-24965.010000	-21990.780000	-5726.520000	1674.000000	11.562281	5.586554	4.842143	-3.340279	-8.171156	-9.241134	0.124646	5.083417	7.691040	4.562740	-1.632820	0.661803	-0.016113	0.720823	-1.000000	-1.000000	-1.000000	-1.000000	-1.000000	-1.000000	-1.000000	87.793103	0.000000	-1.000000	-1.000000	266496.000000	1772894244.748248
-25.605000	-14164.380000	5360.985000	-129.105000	-24955.740000	-21979.215000	-5717.430000	1669.320000	13.863941	0.670353	2.122117	-4.488759	-8.224050	-8.401079	1.622065	10.420228	7.691040	4.562740	-1.632820	0.661803	-0.016113	0.720823	-1.000000	-1.000000	-1.000000	-1.000000	-1.000000	-1.000000	-1.000000	87.793103	0.000000	-1.000000	-1.000000	266497.000000	1772894244.754499
-38.295000	-14169.330000	5352.705000	-123.345000	-24949.080000	-21973.095000	-5717.970000	1627.830000	7.293743	-3.296423	-0.109516	-2.086508	-3.153050	-2.757994	2.123112	11.419360	7.691040	4.562740	-1.632820	0.661803	-0.016113	0.720823	-1.000000	-1.000000	-1.000000	-1.000000	-1.000000	-1.000000	-1.000000	87.793103	0.000000	-1.000000	-1.000000	266498.000000	1772894244.754516
-19.260000	-14189.400000	5340.330000	-128.880000	-24950.520000	-21973.770000	-5722.740000	1625.040000	-2.784483	-3.257220	-0.398847	3.349544	5.128922	5.543308	2.270906	3.270590	7.691040	4.562740	-1.632820	0.661803	-0.016113	0.720823	-1.000000	-1.000000	-1.000000	-1.000000	-1.000000	-1.000000	-1.000000	87.793103	0.000000	-1.000000	-1.000000	266499.000000	1772894244.756396
-18.045000	-14169.465000	5365.665000	-114.975000	-24942.195000	-21975.615000	-5729.760000	1634.130000	-7.851788	0.583588	1.294634	9.039200	12.530679	12.551374	3.079164	-10.148926	7.691040	4.562740	-1.632820	0.661803	-0.016113	0.720823	-1.000000	-1.000000	-1.000000	-1.000000	-1.000000	-1.000000	-1.000000	87.793103	0.000000	-1.000000	-1.000000	266500.000000	1772894244.756406
-37.665000	-14139.855000	5386.005000	-108.630000	-24941.340000	-21976.470000	-5724.135000	1634.400000	-5.133547	6.048817	4.569113	12.390821	15.826044	15.181027	4.440649	-18.480185	-1.815940	4.867940	-2.472120	0.653624	0.001099	0.717650	-1.000000	-1.000000	-1.000000	-1.000000	-1.000000	-1.000000	-1.000000	87.793103	0.000000	-1.000000	-1.000000	266501.000000	1772894244.759635
-24.930000	-14126.040000	5405.850000	-83.970000	-24913.350000	-21943.035000	-5706.045000	1612.755000	-0.578201	10.545142	8.554342	12.758396	14.639931	13.323160	5.223195	-16.957294	-1.815940	4.867940	-2.472120	0.653624	0.001099	0.717650	-1.000000	-1.000000	-1.000000	-1.000000	-1.000000	-1.000000	-1.000000	87.793103	0.000000	-1.000000	-1.000000	266502.000000	1772894244.759644
-34.335000	-14124.015000	5411.070000	-73.845000	-24901.605000	-21928.635000	-5697.405000	1601.820000	0.252248	12.101566	11.616279	11.236195	11.214616	9.798655	4.870417	-10.002339	-1.815940	4.867940	-2.472120	0.653624	0.001099	0.717650	-1.000000	-1.000000	-1.000000	-1.000000	-1.000000	-1.000000	-1.000000	87.793103	0.000000	-1.000000	-1.000000	266503.000000	1772894244.764297
-36.135000	-14146.020000	5380.335000	-103.995000	-24931.170000	-21957.930000	-5713.065000	1595.565000	-2.022396	9.539943	11.059693	7.850460	6.621072	6.038998	3.331331	-3.078519	-1.815940	4.867940	-2.472120	0.653624	0.001099	0.717650	-1.000000	-1.000000	-1.000000	-1.000000	-1.000000	-1.000000	-1.000000	87.793103	0.000000	-1.000000	-1.000000	266504.000000	1772894244.764306
-9.675000	-14153.940000	5368.995000	-113.670000	-24941.295000	-21970.080000	-5726.205000	1609.470000	-3.701760	2.505639	4.325740	0.701872	-0.901987	-0.100538	0.035171	2.661316	-1.815940	4.867940	-2.472120	0.653624	0.001099	0.717650	-1.000000	-1.000000	-1.000000	-1.000000	-1.000000	-1.000000	-1.000000	87.793103	0.000000	-1.000000	-1.000000	266505.000000	1772894244.767670
5.220000	-14151.870000	5366.025000	-122.580000	-24956.190000	-21988.215000	-5736.690000	1637.955000	-1.509923	-6.991265	-7.180866	-9.924251	-11.539927	-9.754472	-5.194261	8.542469	-1.815940	4.867940	-2.472120	0.653624	0.001099	0.717650	-1.000000	-1.000000	-1.000000	-1.000000	-1.000000	-1.000000	-1.000000	87.793103	0.000000	-1.000000	-1.000000	266506.000000	1772894244.767680
5.580000	-14128.110000	5394.240000	-95.040000	-24929.595000	-21964.590000	-5713.020000	1651.905000	4.605306	-13.794004	-16.803097	-19.006901	-20.707063	-19.070285	-9.992955	15.167563	-1.815940	4.867940	-2.472120	0.653624	0.001099	0.717650	-1.000000	-1.000000	-1.000000	-1.000000	-1.000000	-1.000000	-1.000000	87.793103	0.000000	-1.000000	-1.000000	266507.000000	1772894244.774724
-9.630000	-14133.915000	5390.370000	-96.165000	-24929.145000	-21962.745000	-5717.655000	1622.700000	10.343661	-13.235445	-17.906069	-20.410811	-22.138447	-21.543299	-10.200894	19.805198	-1.815940	4.867940	-2.472120	0.653624	0.001099	0.717650	-1.000000	-1.000000	-1.000000	-1.000000	-1.000000	-1.000000	-1.000000	87.793103	0.000000	-1.000000	-1.000000	266508.000000	1772894244.774735
-6.030000	-14141.070000	5378.805000	-107.055000	-24940.440000	-21968.730000	-5722.155000	1638.765000	10.857990	-6.613565	-10.787513	-13.082074	-14.140616	-14.340125	-4.595006	17.817868	-1.815940	4.867940	-2.472120	0.653624	0.001099	0.717650	-1.000000	-1.000000	-1.000000	-1.000000	-1.000000	-1.000000	-1.000000	87.793103	0.000000	-1.000000	-1.000000	266509.000000	1772894244.774746
3.195000	-14121.405000	5401.035000	-86.940000	-24920.550000	-21948.255000	-5712.165000	1647.675000	5.351323	-0.035762	-1.649157	-1.840500	-1.272476	-1.197828	3.118861	8.496838	-1.815940	4.867940	-2.472120	0.653624	0.001099	0.717650	-1.000000	-1.000000	-1.000000	-1.000000	-1.000000	-1.000000	-1.000000	87.793103	0.000000	-1.000000	-1.000000	266510.000000	1772894244.774750
-17.190000	-14137.875000	5384.025000	-107.235000	-24930.270000	-21955.815000	-5711.895000	1630.305000	-3.149143	2.526152	4.501886	7.513975	10.052640	10.924503	8.045011	-3.753548	-15.549940	3.174080	-2.929920	0.651060	0.013611	0.717894	-1.000000	-1.000000	-1.000000	-1.000000	-1.000000	-1.000000	-1.000000	87.793103	0.000000	-1.000000	-1.000000	266511.000000	1772894244.778691
-20.880000	-14152.590000	5375.745000	-108.585000	-24932.160000	-21954.510000	-5703.795000	1641.465000	-10.700455	1.565066	6.456237	11.497591	15.373415	16.476399	8.113340	-13.543636	-15.549940	3.174080	-2.929920	0.651060	0.013611	0.717894	-1.000000	-1.000000	-1.000000	-1.000000	-1.000000	-1.000000	-1.000000	87.793103	0.000000	-1.000000	-1.000000	266512.000000	1772894244.778700
0.450000	-14138.055000	5395.365000	-85.860000	-24914.970000	-21943.305000	-5707.935000	1652.805000	-13.882458	-0.099692	5.882288	10.564412	14.253767	14.669424	4.874617	-17.102550	-15.549940	3.174080	-2.929920	0.651060	0.013611	0.717894	-1.000000	-1.000000	-1.000000	-1.000000	-1.000000	-1.000000	-1.000000	87.793103	0.000000	-1.000000	-1.000000	266513.000000	1772894244.782926
-6.570000	-14142.015000	5390.460000	-92.430000	-24920.685000	-21952.890000	-5722.020000	1637.370000	-11.229354	0.349952	5.584200	8.077177	9.773459	8.895430	1.022235	-14.165585	-15.549940	3.174080	-2.929920	0.651060	0.013611	0.717894	-1.000000	-1.000000	-1.000000	-1.000000	-1.000000	-1.000000	-1.000000	87.793103	0.000000	-1.000000	-1.000000	266514.000000	1772894244.782934
-17.010000	-14152.635000	5376.870000	-104.490000	-24933.915000	-21968.190000	-5731.470000	1633.635000	-4.772304	2.825727	5.822969	5.505514	4.364419	2.198006	-2.305352	-8.432374	-15.549940	3.174080	-2.929920	0.651060	0.013611	0.717894	-1.000000	-1.000000	-1.000000	-1.000000	-1.000000	-1.000000	-1.000000	87.793103	0.000000	-1.000000	-1.000000	266515.000000	1772894244.790402
-31.815000	-14164.515000	5363.280000	-117.540000	-24948.090000	-21977.820000	-5724.675000	1629.315000	1.647498	4.395644	4.021495	1.372304	-1.912788	-4.538207	-4.944754	-3.527970	-15.549940	3.174080	-2.929920	0.651060	0.013611	0.717894	-1.000000	-1.000000	-1.000000	-1.000000	-1.000000	-1.000000	-1.000000	87.793103	0.000000	-1.000000	-1.000000	266516.000000	1772894244.790410
-44.190000	-14174.820000	5356.305000	-128.610000	-24960.690000	-21986.280000	-5725.800000	1623.195000	5.513844	3.034094	-0.915333	-4.696529	-8.570040	-10.264349	-5.917767	0.107716	-15.549940	3.174080	-2.929920	0.651060	0.013611	0.717894	-1.000000	-1.000000	-1.000000	-1.000000	-1.000000	-1.000000	-1.000000	87.793103	0.000000	-1.000000	-1.000000	266517.000000	1772894244.792355
-35.505000	-14167.305000	5356.845000	-133.920000	-24961.590000	-21987.315000	-5736.330000	1631.655000	6.457808	-0.437986	-6.556484	-10.110260	-12.981050	-12.723835	-4.395286	3.222438	-15.549940	3.174080	-2.929920	0.651060	0.013611	0.717894	-1.000000	-1.000000	-1.000000	-1.000000	-1.000000	-1.000000	-1.000000	87.793103	0.000000	-1.000000	-1.000000	266518.000000	1772894244.792363
-27.945000	-14163.840000	5346.585000	-142.830000	-24963.885000	-21993.705000	-5758.110000	1604.520000	5.614059	-3.547565	-9.580281	-11.846340	-12.594373	-10.664183	-1.826398	5.360201	-15.549940	3.174080	-2.929920	0.651060	0.013611	0.717894	-1.000000	-1.000000	-1.000000	-1.000000	-1.000000	-1.000000	-1.000000	87.793103	0.000000	-1.000000	-1.000000	266519.000000	1772894244.795032
-25.740000	-14160.195000	5341.680000	-148.545000	-24973.785000	-22007.160000	-5764.050000	1592.820000	4.798986	-3.826915	-8.355554	-8.837316	-7.416298	-5.338186	-0.643873	5.482608	-15.549940	3.174080	-2.929920	0.651060	0.013611	0.717894	-1.000000	-1.000000	-1.000000	-1.000000	-1.000000	-1.000000	-1.000000	87.793103	0.000000	-1.000000	-1.000000	266520.000000	1772894244.795039
-29.610000	-14153.535000	5349.285000	-136.620000	-24962.985000	-21988.890000	-5723.415000	1609.155000	4.694149	-0.381231	-3.127487	-2.054425	0.323638	1.074503	-0.485046	3.793280	-13.474580	3.418240	-1.861720	0.653013	0.004089	0.720152	-1.000000	-1.000000	-1.000000	-1.000000	-1.000000	-1.000000	-1.000000	87.793103	0.000000	-1.000000	-1.000000	266521.000000	1772894244.798849
-35.010000	-14163.840000	5354.595000	-129.780000	-24956.280000	-21981.330000	-5716.575000	1612.440000	3.759652	4.667356	4.038852	5.923188	7.749632	7.158247	1.782305	2.045703	-13.474580	3.418240	-1.861720	0.653013	0.004089	0.720152	-1.000000	-1.000000	-1.000000	-1.000000	-1.000000	-1.000000	-1.000000	87.793103	0.000000	-1.000000	-1.000000	266522.000000	1772894244.798857
-38.115000	-14191.245000	5348.070000	-142.605000	-24972.750000	-21999.870000	-5737.365000	1644.255000	0.664129	7.108937	9.826887	11.698352	12.222641	11.545978	6.790487	2.144933	-13.474580	3.418240	-1.861720	0.653013	0.004089	0.720152	-1.000000	-1.000000	-1.000000	-1.000000	-1.000000	-1.000000	-1.000000	87.793103	0.000000	-1.000000	-1.000000	266523.000000	1772894244.802970
-39.420000	-14189.805000	5352.210000	-135.945000	-24965.730000	-21998.205000	-5749.155000	1635.660000	-3.164908	4.540683	11.670340	12.825067	12.163631	12.355487	10.333667	4.413590	-13.474580	3.418240	-1.861720	0.653013	0.004089	0.720152	-1.000000	-1.000000	-1.000000	-1.000000	-1.000000	-1.000000	-1.000000	87.793103	0.000000	-1.000000	-1.000000	266524.000000	1772894244.802978
-46.620000	-14183.055000	5353.560000	-131.085000	-24958.710000	-21990.780000	-5745.150000	1606.770000	-5.005088	-0.816048	9.328431	9.526576	8.367140	9.112347	8.354743	6.326388	-13.474580	3.418240	-1.861720	0.653013	0.004089	0.720152	-1.000000	-1.000000	-1.000000	-1.000000	-1.000000	-1.000000	-1.000000	87.793103	0.000000	-1.000000	-1.000000	266525.000000	1772894244.807014
-36.855000	-14153.490000	5380.470000	-102.870000	-24931.350000	-21967.245000	-5725.575000	1594.260000	-3.722584	-4.174179	4.758763	4.591528	3.814234	4.039652	2.014837	4.238088	-13.474580	3.418240	-1.861720	0.653013	0.004089	0.720152	-1.000000	-1.000000	-1.000000	-1.000000	-1.000000	-1.000000	-1.000000	87.793103	0.000000	-1.000000	-1.000000	266526.000000	1772894244.807023
-28.395000	-14142.105000	5391.450000	-92.250000	-24923.070000	-21958.920000	-5707.440000	1601.685000	-0.557358	-2.946094	0.574753	1.004763	1.007689	0.009876	-3.560040	-2.127002	-13.474580	3.418240	-1.861720	0.653013	0.004089	0.720152	-1.000000	-1.000000	-1.000000	-1.000000	-1.000000	-1.000000	-1.000000	87.793103	0.000000	-1.000000	-1.000000	266527.000000	1772894244.810959
-30.915000	-14141.655000	5393.610000	-90.450000	-24920.820000	-21954.240000	-5699.745000	1614.465000	2.178985	1.121079	-1.853383	-0.510464	-0.182232	-2.006992	-4.475524	-8.040561	-13.474580	3.418240	-1.861720	0.653013	0.004089	0.720152	-1.000000	-1.000000	-1.000000	-1.000000	-1.000000	-1.000000	-1.000000	87.793103	0.000000	-1.000000	-1.000000	266528.000000	1772894244.810981
-37.890000	-14164.875000	5366.700000	-118.665000	-24946.920000	-21980.880000	-5723.145000	1628.235000	2.791886	3.878281	-3.315115	-1.835588	-1.816380	-3.251844	-1.967985	-8.345861	-13.474580	3.418240	-1.861720	0.653013	0.004089	0.720152	-1.000000	-1.000000	-1.000000	-1.000000	-1.000000	-1.000000	-1.000000	87.793103	0.000000	-1.000000	-1.000000	266529.000000	1772894244.814905
-31.770000	-14195.205000	5324.265000	-162.585000	-24988.005000	-22013.505000	-5744.745000	1672.965000	1.116022	1.943363	-6.267156	-5.972814	-6.181733	-6.195081	-1.345399	-2.616939	-13.474580	3.418240	-1.861720	0.653013	0.004089	0.720152	-1.000000	-1.000000	-1.000000	-1.000000	-1.000000	-1.000000	-1.000000	87.793103	0.000000	-1.000000	-1.000000	266530.000000	1772894244.814923
-46.755000	-14193.765000	5333.670000	-147.870000	-24971.220000	-22000.140000	-5750.415000	1643.310000	-1.596821	-4.189953	-11.531410	-13.122650	-12.881802	-11.253096	-5.448760	4.772365	2.716280	4.776380	0.198380	0.654234	-0.015015	0.719297	-1.000000	-1.000000	-1.000000	-1.000000	-1.000000	-1.000000	-1.000000	87.793103	0.000000	-1.000000	-1.000000	266531.000000	1772894244.818780
-33.345000	-14158.665000	5374.260000	-106.965000	-24931.305000	-21968.595000	-5742.135000	1605.420000	-3.549980	-8.998547	-14.709623	-17.447529	-16.294358	-13.742857	-10.323553	7.201787	2.716280	4.776380	0.198380	0.654234	-0.015015	0.719297	-1.000000	-1.000000	-1.000000	-1.000000	-1.000000	-1.000000	-1.000000	87.793103	0.000000	-1.000000	-1.000000	266532.000000	1772894244.818788
5.400000	-14128.380000	5401.845000	-82.215000	-24908.625000	-21946.095000	-5728.140000	1611.180000	-2.715287	-6.588470	-9.829180	-12.210454	-10.482165	-8.398537	-9.808758	1.597105	2.716280	4.776380	0.198380	0.654234	-0.015015	0.719297	-1.000000	-1.000000	-1.000000	-1.000000	-1.000000	-1.000000	-1.000000	87.793103	0.000000	-1.000000	-1.000000	266533.000000	1772894244.824612
19.170000	-14146.965000	5381.730000	-100.935000	-24925.320000	-21955.680000	-5716.215000	1625.445000	2.009675	2.190131	2.341716	1.237761	2.563945	3.135028	-2.522924	-6.624509	2.716280	4.776380	0.198380	0.654234	-0.015015	0.719297	-1.000000	-1.000000	-1.000000	-1.000000	-1.000000	-1.000000	-1.000000	87.793103	0.000000	-1.000000	-1.000000	266534.000000	1772894244.824635
-10.215000	-14157.180000	5363.550000	-121.635000	-24938.640000	-21958.830000	-5698.530000	1615.185000	7.557773	9.394302	13.031987	13.224332	13.439562	12.799445	7.213725	-9.574339	2.716280	4.776380	0.198380	0.654234	-0.015015	0.719297	-1.000000	-1.000000	-1.000000	-1.000000	-1.000000	-1.000000	-1.000000	87.793103	0.000000	-1.000000	-1.000000	266535.000000	1772894244.826733
-41.490000	-14155.245000	5363.505000	-125.415000	-24942.600000	-21964.455000	-5704.605000	1611.945000	7.586808	8.382846	14.247392	15.229473	14.506173	13.928995	13.478280	-5.777226	2.716280	4.776380	0.198380	0.654234	-0.015015	0.719297	-1.000000	-1.000000	-1.000000	-1.000000	-1.000000	-1.000000	-1.000000	87.793103	0.000000	-1.000000	-1.000000	266536.000000	1772894244.826743
-64.620000	-14148.315000	5374.755000	-113.355000	-24937.965000	-21967.290000	-5729.715000	1575.045000	-0.484488	0.808627	6.905669	7.982341	6.813139	6.960729	12.621264	0.077443	2.716280	4.776380	0.198380	0.654234	-0.015015	0.719297	-1.000000	-1.000000	-1.000000	-1.000000	-1.000000	-1.000000	-1.000000	87.793103	0.000000	-1.000000	-1.000000	266537.000000	1772894244.831924
-68.490000	-14176.215000	5363.055000	-115.470000	-24941.475000	-21975.660000	-5751.855000	1566.495000	-11.786072	-6.454640	-1.417194	-0.597219	-2.144509	-2.114148	4.972784	2.360582	2.716280	4.776380	0.198380	0.654234	-0.015015	0.719297	-1.000000	-1.000000	-1.000000	-1.000000	-1.000000	-1.000000	-1.000000	87.793103	0.000000	-1.000000	-1.000000	266538.000000	1772894244.831932
-62.055000	-14208.390000	5331.555000	-153.855000	-24983.505000	-22020.345000	-5770.935000	1639.935000	-18.154708	-9.007356	-5.084672	-4.345626	-6.424835	-7.931829	-5.330967	0.412299	2.716280	4.776380	0.198380	0.654234	-0.015015	0.719297	-1.000000	-1.000000	-1.000000	-1.000000	-1.000000	-1.000000	-1.000000	87.793103	0.000000	-1.000000	-1.000000	266539.000000	1772894244.837656
-37.755000	-14204.340000	5323.725000	-172.440000	-25004.565000	-22033.980000	-5762.925000	1654.110000	-14.273721	-7.340302	-4.853088	-4.300368	-6.702060	-9.916018	-12.534849	0.255136	2.716280	4.776380	0.198380	0.654234	-0.015015	0.719297	-1.000000	-1.000000	-1.000000	-1.000000	-1.000000	-1.000000	-1.000000	87.793103	0.000000	-1.000000	-1.000000	266540.000000	1772894244.837663
-30.555000	-14198.130000	5326.695000	-167.040000	-24998.175000	-22022.955000	-5753.115000	1622.295000	-1.519813	-3.909877	-4.488292	-4.830161	-6.796162	-9.822284	-12.633267	5.845199	10.163160	6.165040	-1.113980	0.654295	-0.019287	0.715391	-1.000000	-1.000000	-1.000000	-1.000000	-1.000000	-1.000000	-1.000000	87.793103	0.000000	-1.000000	-1.000000	266541.000000	1772894244.839066
-44.685000	-14196.915000	5339.070000	-144.225000	-24970.230000	-21997.080000	-5740.695000	1631.340000	12.115265	-0.512474	-5.114155	-6.449930	-6.931293	-7.386899	-5.917263	12.431864	10.163160	6.165040	-1.113980	0.654295	-0.019287	0.715391	-1.000000	-1.000000	-1.000000	-1.000000	-1.000000	-1.000000	-1.000000	87.793103	0.000000	-1.000000	-1.000000	266542.000000	1772894244.839075
-49.230000	-14182.965000	5366.160000	-109.395000	-24930.855000	-21961.170000	-5723.145000	1595.160000	18.059937	2.651821	-3.919401	-4.936322	-3.227368	-0.741028	3.454220	12.724840	10.163160	6.165040	-1.113980	0.654295	-0.019287	0.715391	-1.000000	-1.000000	-1.000000	-1.000000	-1.000000	-1.000000	-1.000000	87.793103	0.000000	-1.000000	-1.000000	266543.000000	1772894244.844230
-48.060000	-14165.910000	5377.320000	-101.835000	-24926.985000	-21958.695000	-5715.180000	1559.520000	14.543607	6.282868	1.720360	2.590693	6.090719	9.469457	10.505796	4.236688	10.163160	6.165040	-1.113980	0.654295	-0.019287	0.715391	-1.000000	-1.000000	-1.000000	-1.000000	-1.000000	-1.000000	-1.000000	87.793103	0.000000	-1.000000	-1.000000	266544.000000	1772894244.844238
-45.810000	-14158.350000	5366.160000	-118.395000	-24946.560000	-21979.080000	-5723.820000	1574.595000	6.758278	9.895881	9.519534	12.325905	16.045454	17.893546	12.332849	-8.728363	10.163160	6.165040	-1.113980	0.654295	-0.019287	0.715391	-1.000000	-1.000000	-1.000000	-1.000000	-1.000000	-1.000000	-1.000000	87.793103	0.000000	-1.000000	-1.000000	266545.000000	1772894244.846707
-29.430000	-14169.375000	5344.515000	-147.105000	-24975.495000	-22009.410000	-5745.510000	1613.295000	0.782840	11.340737	13.368135	16.223469	18.501471	18.069428	8.996506	-16.780877	10.163160	6.165040	-1.113980	0.654295	-0.019287	0.715391	-1.000000	-1.000000	-1.000000	-1.000000	-1.000000	-1.000000	-1.000000	87.793103	0.000000	-1.000000	-1.000000	266546.000000	1772894244.846715
-38.655000	-14174.415000	5335.425000	-157.230000	-24984.945000	-22015.755000	-5755.635000	1626.120000	-1.333370	9.183600	9.786597	10.240197	10.471319	8.842113	2.702885	-13.564134	10.163160	6.165040	-1.113980	0.654295	-0.019287	0.715391	-1.000000	-1.000000	-1.000000	-1.000000	-1.000000	-1.000000	-1.000000	87.793103	0.000000	-1.000000	-1.000000	266547.000000	1772894244.850821
-44.325000	-14197.950000	5323.275000	-155.925000	-24981.615000	-22008.150000	-5748.300000	1637.235000	-1.912820	4.112006	1.385847	-1.248334	-2.478857	-3.604444	-3.353332	-2.873780	10.163160	6.165040	-1.113980	0.654295	-0.019287	0.715391	-1.000000	-1.000000	-1.000000	-1.000000	-1.000000	-1.000000	-1.000000	87.793103	0.000000	-1.000000	-1.000000	266548.000000	1772894244.850838
-38.205000	-14231.655000	5306.085000	-165.915000	-24990.165000	-22011.255000	-5735.205000	1666.395000	-4.003794	-3.097968	-6.972029	-10.485252	-12.011836	-11.546005	-6.487149	7.049343	10.163160	6.165040	-1.113980	0.654295	-0.019287	0.715391	-1.000000	-1.000000	-1.000000	-1.000000	-1.000000	-1.000000	-1.000000	87.793103	0.000000	-1.000000	-1.000000	266549.000000	1772894244.856217
-64.080000	-14219.235000	5313.735000	-172.170000	-24996.915000	-22022.370000	-5759.280000	1628.055000	-8.014619	-11.558614	-12.316882	-13.811530	-14.739958	-12.860826	-6.561008	11.905787	10.163160	6.165040	-1.113980	0.654295	-0.019287	0.715391	-1.000000	-1.000000	-1.000000	-1.000000	-1.000000	-1.000000	-1.000000	87.793103	0.000000	-1.000000	-1.000000	266550.000000	1772894244.856225
-75.780000	-14187.330000	5339.205000	-157.230000	-24983.010000	-22008.735000	-5756.535000	1616.085000	-11.865636	-17.111273	-12.952664	-12.223700	-12.558197	-10.550517	-5.898367	10.413353	0.717220	5.905620	-2.563680	0.654539	-0.001648	0.712950	-1.000000	-1.000000	-1.000000	-1.000000	-1.000000	-1.000000	-1.000000	87.793103	0.000000	-1.000000	-1.000000	266551.000000	1772894244.860030
-84.870000	-14162.355000	5365.845000	-129.555000	-24953.490000	-21982.005000	-5740.470000	1582.965000	-12.671393	-14.562216	-7.956488	-7.395100	-7.824582	-7.128740	-5.881175	3.328699	0.717220	5.905620	-2.563680	0.654539	-0.001648	0.712950	-1.000000	-1.000000	-1.000000	-1.000000	-1.000000	-1.000000	-1.000000	87.793103	0.000000	-1.000000	-1.000000	266552.000000	1772894244.860039
-95.130000	-14150.115000	5382.855000	-110.520000	-24936.660000	-21971.295000	-5737.050000	1557.135000	-8.717429	-4.076449	1.213788	-0.072773	-1.058233	-2.349130	-5.076938	-5.516024	0.717220	5.905620	-2.563680	0.654539	-0.001648	0.712950	-1.000000	-1.000000	-1.000000	-1.000000	-1.000000	-1.000000	-1.000000	87.793103	0.000000	-1.000000	-1.000000	266553.000000	1772894244.862695
-77.940000	-14179.140000	5353.245000	-139.590000	-24965.100000	-21999.465000	-5760.090000	1564.380000	-0.852321	7.829518	10.211679	8.012154	6.797231	3.920772	-1.853411	-11.882606	0.717220	5.905620	-2.563680	0.654539	-0.001648	0.712950	-1.000000	-1.000000	-1.000000	-1.000000	-1.000000	-1.000000	-1.000000	87.793103	0.000000	-1.000000	-1.000000	266554.000000	1772894244.862703
-15.930000	-14192.595000	5331.420000	-156.285000	-24981.840000	-22014.765000	-5763.240000	1629.585000	8.831907	13.753822	13.813315	13.011567	12.328989	9.192790	3.121492	-12.664895	0.717220	5.905620	-2.563680	0.654539	-0.001648	0.712950	-1.000000	-1.000000	-1.000000	-1.000000	-1.000000	-1.000000	-1.000000	87.793103	0.000000	-1.000000	-1.000000	266555.000000	1772894244.866885
6.795000	-14196.285000	5327.325000	-148.455000	-24972.345000	-22004.190000	-5747.895000	1643.265000	18.349632	11.494313	9.984284	12.158399	12.499322	10.639696	7.892487	-6.450490	0.717220	5.905620	-2.563680	0.654539	-0.001648	0.712950	-1.000000	-1.000000	-1.000000	-1.000000	-1.000000	-1.000000	-1.000000	87.793103	0.000000	-1.000000	-1.000000	266556.000000	1772894244.866940
-21.015000	-14207.400000	5319.810000	-158.940000	-24983.280000	-22013.460000	-5759.820000	1610.190000	23.670536	4.728500	1.749937	6.517994	7.752133	7.914133	10.374174	3.228232	0.717220	5.905620	-2.563680	0.654539	-0.001648	0.712950	-1.000000	-1.000000	-1.000000	-1.000000	-1.000000	-1.000000	-1.000000	87.793103	0.000000	-1.000000	-1.000000	266557.000000	1772894244.871032
-34.065000	-14178.105000	5350.140000	-138.555000	-24967.440000	-22000.050000	-5755.770000	1602.585000	19.223379	-1.179186	-5.464149	-0.519850	0.919295	2.661222	8.714982	9.294205	0.717220	5.905620	-2.563680	0.654539	-0.001648	0.712950	-1.000000	-1.000000	-1.000000	-1.000000	-1.000000	-1.000000	-1.000000	87.793103	0.000000	-1.000000	-1.000000	266558.000000	1772894244.871097
-35.865000	-14150.700000	5381.190000	-110.520000	-24940.440000	-21974.265000	-5734.080000	1621.350000	4.838563	-2.966903	-7.516044	-5.294682	-4.550857	-2.347068	3.647013	9.066198	0.717220	5.905620	-2.563680	0.654539	-0.001648	0.712950	-1.000000	-1.000000	-1.000000	-1.000000	-1.000000	-1.000000	-1.000000	87.793103	0.000000	-1.000000	-1.000000	266559.000000	1772894244.875015
-62.370000	-14163.930000	5374.935000	-112.320000	-24940.215000	-21973.320000	-5737.770000	1615.320000	-12.116842	-1.658200	-4.602739	-6.189444	-6.639305	-4.921116	-1.608476	6.290651	0.717220	5.905620	-2.563680	0.654539	-0.001648	0.712950	-1.000000	-1.000000	-1.000000	-1.000000	-1.000000	-1.000000	-1.000000	87.793103	0.000000	-1.000000	-1.000000	266560.000000	1772894244.875024
-43.560000	-14158.755000	5366.655000	-123.930000	-24950.655000	-21984.615000	-5747.940000	1628.505000	-22.988821	-1.374238	-1.342823	-5.415936	-6.711417	-5.776151	-5.401131	5.167064	-11.872280	4.104940	-3.158820	0.652769	0.008728	0.717344	-1.000000	-1.000000	-1.000000	-1.000000	-1.000000	-1.000000	-1.000000	87.793103	0.000000	-1.000000	-1.000000	266561.000000	1772894244.878942
-13.005000	-14152.050000	5354.775000	-140.895000	-24970.770000	-22004.190000	-5759.145000	1650.240000	-22.642405	-3.859615	-1.587408	-5.931436	-7.135897	-6.702819	-7.925959	6.461225	-11.872280	4.104940	-3.158820	0.652769	0.008728	0.717344	-1.000000	-1.000000	-1.000000	-1.000000	-1.000000	-1.000000	-1.000000	87.793103	0.000000	-1.000000	-1.000000	266562.000000	1772894244.878952
-19.665000	-14159.205000	5345.685000	-146.295000	-24972.615000	-21998.565000	-5735.700000	1635.930000	-12.266767	-6.136291	-4.027034	-7.044580	-7.345256	-6.908246	-8.014836	6.992216	-11.872280	4.104940	-3.158820	0.652769	0.008728	0.717344	-1.000000	-1.000000	-1.000000	-1.000000	-1.000000	-1.000000	-1.000000	87.793103	0.000000	-1.000000	-1.000000	266563.000000	1772894244.882909
-33.750000	-14163.795000	5355.630000	-131.985000	-24960.465000	-21990.510000	-5736.690000	1605.735000	-0.144524	-4.919266	-4.361392	-5.416335	-4.617754	-3.917336	-4.021581	1.297160	-11.872280	4.104940	-3.158820	0.652769	0.008728	0.717344	-1.000000	-1.000000	-1.000000	-1.000000	-1.000000	-1.000000	-1.000000	87.793103	0.000000	-1.000000	-1.000000	266564.000000	1772894244.882917
-41.265000	-14161.320000	5369.085000	-117.720000	-24942.825000	-21976.380000	-5745.330000	1570.770000	5.525659	-0.419836	-0.271369	0.404692	1.858716	2.371420	2.212324	-11.977839	-11.872280	4.104940	-3.158820	0.652769	0.008728	0.717344	-1.000000	-1.000000	-1.000000	-1.000000	-1.000000	-1.000000	-1.000000	87.793103	0.000000	-1.000000	-1.000000	266565.000000	1772894244.887033
-33.705000	-14150.025000	5358.870000	-128.835000	-24950.700000	-21980.880000	-5751.900000	1583.820000	4.552645	4.738125	6.113059	7.730608	9.198753	8.646346	6.144916	-25.199953	-11.872280	4.104940	-3.158820	0.652769	0.008728	0.717344	-1.000000	-1.000000	-1.000000	-1.000000	-1.000000	-1.000000	-1.000000	87.793103	0.000000	-1.000000	-1.000000	266566.000000	1772894244.887041
-32.130000	-14150.160000	5370.345000	-119.745000	-24943.365000	-21972.285000	-5741.865000	1616.220000	2.575336	7.357963	9.612270	11.532895	12.644068	10.818057	5.404666	-26.996006	-11.872280	4.104940	-3.158820	0.652769	0.008728	0.717344	-1.000000	-1.000000	-1.000000	-1.000000	-1.000000	-1.000000	-1.000000	87.793103	0.000000	-1.000000	-1.000000	266567.000000	1772894244.892812
-51.705000	-14191.785000	5349.285000	-142.110000	-24972.705000	-22002.345000	-5760.000000	1619.640000	3.397053	4.566041	6.425008	8.396810	8.870042	6.634520	1.113839	-13.190714	-11.872280	4.104940	-3.158820	0.652769	0.008728	0.717344	-1.000000	-1.000000	-1.000000	-1.000000	-1.000000	-1.000000	-1.000000	87.793103	0.000000	-1.000000	-1.000000	266568.000000	1772894244.892820
-73.890000	-14226.345000	5311.485000	-172.800000	-25000.470000	-22027.950000	-5771.970000	1601.190000	5.771559	-3.973421	-2.670912	-0.880485	-1.489358	-2.981032	-4.303362	8.647148	-11.872280	4.104940	-3.158820	0.652769	0.008728	0.717344	-1.000000	-1.000000	-1.000000	-1.000000	-1.000000	-1.000000	-1.000000	87.793103	0.000000	-1.000000	-1.000000	266569.000000	1772894244.894971
-73.980000	-14218.335000	5317.605000	-169.020000	-24996.375000	-22026.645000	-5769.405000	1598.895000	6.126287	-13.844066	-12.549015	-11.189236	-12.946253	-13.070073	-7.935624	25.386109	-11.872280	4.104940	-3.158820	0.652769	0.008728	0.717344	-1.000000	-1.000000	-1.000000	-1.000000	-1.000000	-1.000000	-1.000000	87.793103	0.000000	-1.000000	-1.000000	266570.000000	1772894244.894979
-63.495000	-14205.960000	5325.255000	-160.785000	-24987.240000	-22020.795000	-5763.465000	1604.565000	2.858980	-17.501787	-16.068650	-15.292585	-17.424896	-16.449951	-7.002742	28.264742	-11.292400	3.692920	-1.983800	0.653502	-0.002258	0.722715	-1.000000	-1.000000	-1.000000	-1.000000	-1.000000	-1.000000	-1.000000	87.793103	0.000000	-1.000000	-1.000000	266571.000000	1772894244.899058
-55.305000	-14191.695000	5338.530000	-145.710000	-24974.505000	-22005.855000	-5752.215000	1601.595000	-1.908695	-10.070947	-9.136679	-9.165017	-10.631607	-9.547071	-1.356981	17.907352	-11.292400	3.692920	-1.983800	0.653502	-0.002258	0.722715	-1.000000	-1.000000	-1.000000	-1.000000	-1.000000	-1.000000	-1.000000	87.793103	0.000000	-1.000000	-1.000000	266572.000000	1772894244.899067
-33.255000	-14170.590000	5355.270000	-132.975000	-24959.475000	-21989.295000	-5740.650000	1592.280000	-4.239158	5.986829	5.026072	3.825438	3.540443	3.951919	5.962970	2.088339	-11.292400	3.692920	-1.983800	0.653502	-0.002258	0.722715	-1.000000	-1.000000	-1.000000	-1.000000	-1.000000	-1.000000	-1.000000	87.793103	0.000000	-1.000000	-1.000000	266573.000000	1772894244.902784
-35.190000	-14173.020000	5351.040000	-139.005000	-24959.430000	-21989.295000	-5748.300000	1585.575000	-1.982017	22.001983	17.983893	15.403415	16.215517	16.051995	11.165611	-10.272276	-11.292400	3.692920	-1.983800	0.653502	-0.002258	0.722715	-1.000000	-1.000000	-1.000000	-1.000000	-1.000000	-1.000000	-1.000000	87.793103	0.000000	-1.000000	-1.000000	266574.000000	1772894244.902793
-57.870000	-14190.480000	5343.480000	-137.565000	-24961.725000	-21992.580000	-5765.400000	1603.980000	2.626650	28.240643	22.026842	18.747443	20.242891	20.019326	11.355898	-14.452975	-11.292400	3.692920	-1.983800	0.653502	-0.002258	0.722715	-1.000000	-1.000000	-1.000000	-1.000000	-1.000000	-1.000000	-1.000000	87.793103	0.000000	-1.000000	-1.000000	266575.000000	1772894244.906901
-111.195000	-14216.445000	5327.865000	-154.620000	-24978.105000	-22006.620000	-5773.950000	1597.410000	4.326305	20.036179	14.609417	12.370436	13.960140	13.975389	5.606788	-11.557818	-11.292400	3.692920	-1.983800	0.653502	-0.002258	0.722715	-1.000000	-1.000000	-1.000000	-1.000000	-1.000000	-1.000000	-1.000000	87.793103	0.000000	-1.000000	-1.000000	266576.000000	1772894244.906909
-99.585000	-14201.775000	5339.520000	-147.735000	-24970.995000	-22000.635000	-5763.960000	1599.255000	0.701046	2.326776	0.261606	0.420613	1.590519	1.881594	-3.180629	-5.651304	-11.292400	3.692920	-1.983800	0.653502	-0.002258	0.722715	-1.000000	-1.000000	-1.000000	-1.000000	-1.000000	-1.000000	-1.000000	87.793103	0.000000	-1.000000	-1.000000	266577.000000	1772894244.912897
-60.030000	-14190.480000	5340.780000	-147.825000	-24972.930000	-22008.195000	-5766.570000	1599.075000	-3.921988	-13.263945	-11.799898	-9.715415	-9.255298	-8.884590	-9.384441	0.159773	-11.292400	3.692920	-1.983800	0.653502	-0.002258	0.722715	-1.000000	-1.000000	-1.000000	-1.000000	-1.000000	-1.000000	-1.000000	87.793103	0.000000	-1.000000	-1.000000	266578.000000	1772894244.912915
-58.455000	-14201.190000	5326.425000	-165.150000	-24993.900000	-22032.180000	-5785.695000	1579.815000	-3.777777	-18.684458	-15.318288	-13.022791	-13.459530	-13.403214	-9.864731	3.975078	-11.292400	3.692920	-1.983800	0.653502	-0.002258	0.722715	-1.000000	-1.000000	-1.000000	-1.000000	-1.000000	-1.000000	-1.000000	87.793103	0.000000	-1.000000	-1.000000	266579.000000	1772894244.916137
-72.270000	-14225.040000	5295.285000	-201.015000	-25030.530000	-22060.170000	-5776.965000	1604.115000	0.512407	-15.242343	-11.820272	-10.782089	-12.139053	-12.540843	-6.280740	4.467124	-11.292400	3.692920	-1.983800	0.653502	-0.002258	0.722715	-1.000000	-1.000000	-1.000000	-1.000000	-1.000000	-1.000000	-1.000000	87.793103	0.000000	-1.000000	-1.000000	266580.000000	1772894244.916146
-80.505000	-14228.370000	5297.445000	-194.040000	-25021.125000	-22047.660000	-5767.020000	1602.585000	3.403170	-9.105909	-6.806344	-7.477934	-9.326626	-9.691737	-1.746344	2.671861	-0.946120	3.174080	-1.587040	0.657042	-0.018311	0.723570	-1.000000	-1.000000	-1.000000	-1.000000	-1.000000	-1.000000	-1.000000	87.793103	0.000000	-1.000000	-1.000000	266581.000000	1772894244.918709
-54.000000	-14234.490000	5294.160000	-195.570000	-25021.305000	-22048.740000	-5780.205000	1609.740000	1.956596	-4.499618	-3.499068	-5.104754	-6.629964	-6.288059	1.864477	1.391070	-0.946120	3.174080	-1.587040	0.657042	-0.018311	0.723570	-1.000000	-1.000000	-1.000000	-1.000000	-1.000000	-1.000000	-1.000000	87.793103	0.000000	-1.000000	-1.000000	266582.000000	1772894244.918720
-59.445000	-14225.490000	5308.875000	-178.560000	-25003.260000	-22026.735000	-5768.505000	1595.070000	-1.346165	-1.540685	-1.092561	-2.140552	-2.703789	-1.569309	3.938011	1.607366	-0.946120	3.174080	-1.587040	0.657042	-0.018311	0.723570	-1.000000	-1.000000	-1.000000	-1.000000	-1.000000	-1.000000	-1.000000	87.793103	0.000000	-1.000000	-1.000000	266583.000000	1772894244.922661
-82.980000	-14201.640000	5330.925000	-155.745000	-24981.030000	-22002.480000	-5747.850000	1577.520000	-2.718910	2.131422	2.739724	3.235502	3.765287	5.184114	5.250954	1.169923	-0.946120	3.174080	-1.587040	0.657042	-0.018311	0.723570	-1.000000	-1.000000	-1.000000	-1.000000	-1.000000	-1.000000	-1.000000	87.793103	0.000000	-1.000000	-1.000000	266584.000000	1772894244.922671
-79.605000	-14196.555000	5336.145000	-153.360000	-24978.555000	-22002.075000	-5741.415000	1595.115000	-0.934939	8.125653	8.501322	10.333422	11.697043	12.708259	6.782756	-1.604914	-0.946120	3.174080	-1.587040	0.657042	-0.018311	0.723570	-1.000000	-1.000000	-1.000000	-1.000000	-1.000000	-1.000000	-1.000000	87.793103	0.000000	-1.000000	-1.000000	266585.000000	1772894244.927179
-59.580000	-14202.720000	5341.185000	-146.340000	-24975.405000	-22003.290000	-5740.065000	1595.745000	2.632533	14.138810	13.546516	15.711778	17.335831	17.316171	7.602154	-4.516742	-0.946120	3.174080	-1.587040	0.657042	-0.018311	0.723570	-1.000000	-1.000000	-1.000000	-1.000000	-1.000000	-1.000000	-1.000000	87.793103	0.000000	-1.000000	-1.000000	266586.000000	1772894244.927187
-94.050000	-14168.070000	5385.645000	-94.095000	-24924.240000	-21962.520000	-5732.595000	1524.105000	4.505417	15.636174	14.802309	16.433804	17.583634	16.212937	5.990580	-5.366863	-0.946120	3.174080	-1.587040	0.657042	-0.018311	0.723570	-1.000000	-1.000000	-1.000000	-1.000000	-1.000000	-1.000000	-1.000000	87.793103	0.000000	-1.000000	-1.000000	266587.000000	1772894244.930726
-99.900000	-14139.180000	5404.635000	-75.510000	-24907.140000	-21949.515000	-5739.615000	1492.650000	1.455361	11.737568	12.367278	13.314239	13.544455	10.924682	1.903041	-6.022926	-0.946120	3.174080	-1.587040	0.657042	-0.018311	0.723570	-1.000000	-1.000000	-1.000000	-1.000000	-1.000000	-1.000000	-1.000000	87.793103	0.000000	-1.000000	-1.000000	266588.000000	1772894244.930736
-43.470000	-14171.265000	5343.975000	-142.965000	-24971.670000	-22007.970000	-5776.605000	1565.145000	-4.278025	5.187367	7.204074	7.540657	6.996688	3.699804	-3.978038	-7.155316	-0.946120	3.174080	-1.587040	0.657042	-0.018311	0.723570	-1.000000	-1.000000	-1.000000	-1.000000	-1.000000	-1.000000	-1.000000	87.793103	0.000000	-1.000000	-1.000000	266589.000000	1772894244.934875
-27.405000	-14224.455000	5296.410000	-195.480000	-25019.415000	-22040.865000	-5781.510000	1665.045000	-6.063844	-3.249659	-2.522275	-3.263620	-3.990758	-6.618649	-10.981360	-3.115718	-0.946120	3.174080	-1.587040	0.657042	-0.018311	0.723570	-1.000000	-1.000000	-1.000000	-1.000000	-1.000000	-1.000000	-1.000000	87.793103	0.000000	-1.000000	-1.000000	266590.000000	1772894244.934883
-68.580000	-14226.120000	5305.140000	-191.205000	-25008.705000	-22029.885000	-5767.920000	1624.725000	-2.217082	-13.857683	-16.591843	-19.080367	-19.328119	-19.462967	-15.939765	9.679648	6.409200	5.402040	-3.067260	0.660765	-0.022217	0.720274	-1.000000	-1.000000	-1.000000	-1.000000	-1.000000	-1.000000	-1.000000	87.793103	0.000000	-1.000000	-1.000000	266591.000000	1772894244.938820
-89.235000	-14193.450000	5333.355000	-163.980000	-24979.590000	-22002.840000	-5749.695000	1587.195000	1.812051	-22.395891	-27.592061	-31.697344	-31.087586	-28.038479	-14.304643	22.644354	6.409200	5.402040	-3.067260	0.660765	-0.022217	0.720274	-1.000000	-1.000000	-1.000000	-1.000000	-1.000000	-1.000000	-1.000000	87.793103	0.000000	-1.000000	-1.000000	266592.000000	1772894244.938828
-20.835000	-14184.405000	5340.015000	-157.185000	-24980.175000	-22003.155000	-5750.190000	1621.035000	3.063287	-22.181765	-27.004273	-31.394371	-30.183016	-25.414111	-5.589964	23.659860	6.409200	5.402040	-3.067260	0.660765	-0.022217	0.720274	-1.000000	-1.000000	-1.000000	-1.000000	-1.000000	-1.000000	-1.000000	87.793103	0.000000	-1.000000	-1.000000	266593.000000	1772894244.944369
13.815000	-14208.705000	5319.495000	-176.265000	-25006.230000	-22035.195000	-5782.185000	1630.395000	4.855914	-11.989757	-14.245362	-16.929323	-16.148293	-12.209766	4.979109	11.559595	6.409200	5.402040	-3.067260	0.660765	-0.022217	0.720274	-1.000000	-1.000000	-1.000000	-1.000000	-1.000000	-1.000000	-1.000000	87.793103	0.000000	-1.000000	-1.000000	266594.000000	1772894244.944380
-24.930000	-14206.410000	5306.760000	-186.705000	-25018.785000	-22050.270000	-5784.795000	1640.655000	8.089694	1.947302	2.707968	3.171724	2.404561	3.696790	10.893397	-4.735339	6.409200	5.402040	-3.067260	0.660765	-0.022217	0.720274	-1.000000	-1.000000	-1.000000	-1.000000	-1.000000	-1.000000	-1.000000	87.793103	0.000000	-1.000000	-1.000000	266595.000000	1772894244.946792
-93.375000	-14202.180000	5315.490000	-181.395000	-25014.375000	-22044.645000	-5771.115000	1616.670000	7.168909	11.782655	14.354262	17.787341	15.385518	14.023699	10.248149	-15.371101	6.409200	5.402040	-3.067260	0.660765	-0.022217	0.720274	-1.000000	-1.000000	-1.000000	-1.000000	-1.000000	-1.000000	-1.000000	87.793103	0.000000	-1.000000	-1.000000	266596.000000	1772894244.946800
-94.815000	-14206.230000	5327.145000	-162.135000	-24988.680000	-22020.390000	-5754.735000	1594.260000	-2.056070	14.034211	17.394738	22.215292	19.407091	16.823237	6.761984	-17.077350	6.409200	5.402040	-3.067260	0.660765	-0.022217	0.720274	-1.000000	-1.000000	-1.000000	-1.000000	-1.000000	-1.000000	-1.000000	87.793103	0.000000	-1.000000	-1.000000	266597.000000	1772894244.950677
-71.820000	-14187.105000	5352.345000	-132.390000	-24955.065000	-21989.655000	-5751.720000	1592.145000	-15.407663	11.288579	16.145847	20.757149	19.257090	16.749239	4.996059	-15.063961	6.409200	5.402040	-3.067260	0.660765	-0.022217	0.720274	-1.000000	-1.000000	-1.000000	-1.000000	-1.000000	-1.000000	-1.000000	87.793103	0.000000	-1.000000	-1.000000	266598.000000	1772894244.950686
-60.660000	-14163.525000	5371.605000	-115.020000	-24940.485000	-21972.870000	-5743.440000	1570.140000	-23.133636	9.230843	16.042022	19.603327	20.270345	18.062379	5.717070	-15.484290	6.409200	5.402040	-3.067260	0.660765	-0.022217	0.720274	-1.000000	-1.000000	-1.000000	-1.000000	-1.000000	-1.000000	-1.000000	87.793103	0.000000	-1.000000	-1.000000	266599.000000	1772894244.956353
-76.455000	-14162.940000	5370.930000	-118.710000	-24943.995000	-21974.445000	-5741.595000	1532.520000	-18.168677	9.978223	16.415359	18.378395	20.481827	18.467242	5.936700	-17.191063	6.409200	5.402040	-3.067260	0.660765	-0.022217	0.720274	-1.000000	-1.000000	-1.000000	-1.000000	-1.000000	-1.000000	-1.000000	87.793103	0.000000	-1.000000	-1.000000	266600.000000	1772894244.956361
-79.515000	-14197.185000	5329.395000	-162.045000	-24983.550000	-22002.840000	-5748.615000	1582.155000	-2.529653	8.902148	11.159695	10.931281	12.998262	11.803372	2.483349	-13.394056	4.349100	6.470240	-4.303320	0.661864	-0.010742	0.719481	-1.000000	-1.000000	-1.000000	-1.000000	-1.000000	-1.000000	-1.000000	87.793103	0.000000	-1.000000	-1.000000	266601.000000	1772894244.959529
-41.895000	-14224.815000	5301.225000	-190.665000	-25012.395000	-22026.735000	-5759.370000	1641.240000	13.983445	0.830186	-3.109589	-5.711191	-4.416783	-3.563018	-4.495594	0.205965	4.349100	6.470240	-4.303320	0.661864	-0.010742	0.719481	-1.000000	-1.000000	-1.000000	-1.000000	-1.000000	-1.000000	-1.000000	87.793103	0.000000	-1.000000	-1.000000	266602.000000	1772894244.959557
-23.130000	-14216.760000	5303.430000	-189.315000	-25013.340000	-22035.285000	-5767.875000	1630.845000	22.468297	-11.858759	-20.712950	-25.007978	-24.212542	-20.761597	-11.148186	19.447774	4.349100	6.470240	-4.303320	0.661864	-0.010742	0.719481	-1.000000	-1.000000	-1.000000	-1.000000	-1.000000	-1.000000	-1.000000	87.793103	0.000000	-1.000000	-1.000000	266603.000000	1772894244.962665
-58.455000	-14193.630000	5324.130000	-168.570000	-24997.410000	-22027.590000	-5770.440000	1588.635000	21.308151	-20.540215	-30.566317	-35.211406	-34.559351	-29.781595	-13.452930	33.169261	4.349100	6.470240	-4.303320	0.661864	-0.010742	0.719481	-1.000000	-1.000000	-1.000000	-1.000000	-1.000000	-1.000000	-1.000000	87.793103	0.000000	-1.000000	-1.000000	266604.000000	1772894244.962686
-78.975000	-14197.275000	5325.885000	-169.560000	-25000.920000	-22031.595000	-5781.870000	1572.480000	13.851548	-19.030650	-26.123669	-29.709971	-29.470467	-25.954617	-10.805075	32.240197	4.349100	6.470240	-4.303320	0.661864	-0.010742	0.719481	-1.000000	-1.000000	-1.000000	-1.000000	-1.000000	-1.000000	-1.000000	87.793103	0.000000	-1.000000	-1.000000	266605.000000	1772894244.966588
-70.740000	-14189.760000	5340.285000	-156.195000	-24987.870000	-22025.565000	-5783.265000	1594.980000	3.453562	-8.522893	-10.171459	-11.871517	-12.710484	-12.552088	-5.483401	17.338831	4.349100	6.470240	-4.303320	0.661864	-0.010742	0.719481	-1.000000	-1.000000	-1.000000	-1.000000	-1.000000	-1.000000	-1.000000	87.793103	0.000000	-1.000000	-1.000000	266606.000000	1772894244.966597
-68.085000	-14170.770000	5356.755000	-142.605000	-24970.320000	-22008.645000	-5775.750000	1592.775000	-7.361532	4.956450	8.734401	8.873781	6.719389	3.203331	0.287954	-2.781794	4.349100	6.470240	-4.303320	0.661864	-0.010742	0.719481	-1.000000	-1.000000	-1.000000	-1.000000	-1.000000	-1.000000	-1.000000	87.793103	0.000000	-1.000000	-1.000000	266607.000000	1772894244.970628
-56.970000	-14173.110000	5342.490000	-147.645000	-24975.225000	-22008.780000	-5770.305000	1584.810000	-15.058790	14.885102	21.607702	23.171149	20.464793	14.856286	5.340930	-18.064520	4.349100	6.470240	-4.303320	0.661864	-0.010742	0.719481	-1.000000	-1.000000	-1.000000	-1.000000	-1.000000	-1.000000	-1.000000	87.793103	0.000000	-1.000000	-1.000000	266608.000000	1772894244.970634
-63.045000	-14209.605000	5315.760000	-161.280000	-24988.725000	-22021.290000	-5774.490000	1605.555000	-15.810239	16.593084	22.763156	25.752657	23.815398	18.780705	8.568113	-22.098309	4.349100	6.470240	-4.303320	0.661864	-0.010742	0.719481	-1.000000	-1.000000	-1.000000	-1.000000	-1.000000	-1.000000	-1.000000	87.793103	0.000000	-1.000000	-1.000000	266609.000000	1772894244.974677
-57.240000	-14212.080000	5304.780000	-162.225000	-24983.865000	-22012.740000	-5765.805000	1621.620000	-9.751870	9.762034	13.137912	17.862367	17.660024	15.383956	9.173398	-15.664584	4.349100	6.470240	-4.303320	0.661864	-0.010742	0.719481	-1.000000	-1.000000	-1.000000	-1.000000	-1.000000	-1.000000	-1.000000	87.793103	0.000000	-1.000000	-1.000000	266610.000000	1772894244.974686
-68.130000	-14214.330000	5303.925000	-169.020000	-24983.730000	-22008.375000	-5757.165000	1603.980000	-2.329346	-0.328344	0.045999	5.940220	7.794272	8.955743	7.937117	-6.295511	-6.714400	4.913720	-3.677660	0.657225	0.000427	0.723265	-1.000000	-1.000000	-1.000000	-1.000000	-1.000000	-1.000000	-1.000000	87.793103	0.000000	-1.000000	-1.000000	266611.000000	1772894244.978692
-58.185000	-14197.545000	5331.240000	-161.640000	-24980.490000	-22004.730000	-5740.110000	1612.170000	1.584929	-7.209167	-8.570069	-3.931202	-0.355674	3.717720	6.478617	-0.437765	-6.714400	4.913720	-3.677660	0.657225	0.000427	0.723265	-1.000000	-1.000000	-1.000000	-1.000000	-1.000000	-1.000000	-1.000000	87.793103	0.000000	-1.000000	-1.000000	266612.000000	1772894244.978724
-47.970000	-14179.815000	5354.055000	-147.825000	-24976.620000	-22007.745000	-5744.295000	1617.120000	3.357979	-8.256777	-9.348048	-9.324995	-5.350890	0.289591	5.128268	2.594622	-6.714400	4.913720	-3.677660	0.657225	0.000427	0.723265	-1.000000	-1.000000	-1.000000	-1.000000	-1.000000	-1.000000	-1.000000	87.793103	0.000000	-1.000000	-1.000000	266613.000000	1772894244.982953
-53.640000	-14178.645000	5362.785000	-130.545000	-24962.040000	-21995.415000	-5745.330000	1609.695000	6.512572	-4.591599	-4.093065	-10.054690	-7.779488	-2.688252	2.704212	5.847500	-6.714400	4.913720	-3.677660	0.657225	0.000427	0.723265	-1.000000	-1.000000	-1.000000	-1.000000	-1.000000	-1.000000	-1.000000	87.793103	0.000000	-1.000000	-1.000000	266614.000000	1772894244.982985
-61.965000	-14181.390000	5362.200000	-129.195000	-24958.845000	-21987.675000	-5743.170000	1601.730000	9.594546	0.555114	2.223498	-7.144784	-8.096507	-5.555028	-1.505210	8.021600	-6.714400	4.913720	-3.677660	0.657225	0.000427	0.723265	-1.000000	-1.000000	-1.000000	-1.000000	-1.000000	-1.000000	-1.000000	87.793103	0.000000	-1.000000	-1.000000	266615.000000	1772894244.986797
-60.030000	-14191.065000	5342.715000	-150.120000	-24979.860000	-22007.160000	-5758.290000	1598.715000	8.388922	3.252833	4.474689	-3.434327	-7.343482	-7.980775	-6.743231	6.189821	-6.714400	4.913720	-3.677660	0.657225	0.000427	0.723265	-1.000000	-1.000000	-1.000000	-1.000000	-1.000000	-1.000000	-1.000000	87.793103	0.000000	-1.000000	-1.000000	266616.000000	1772894244.986806
-63.045000	-14191.965000	5336.145000	-150.030000	-24972.525000	-22000.140000	-5748.255000	1602.540000	2.487119	1.906338	1.089670	-1.750155	-6.619312	-9.663227	-11.259804	1.415086	-6.714400	4.913720	-3.677660	0.657225	0.000427	0.723265	-1.000000	-1.000000	-1.000000	-1.000000	-1.000000	-1.000000	-1.000000	87.793103	0.000000	-1.000000	-1.000000	266617.000000	1772894244.990771
-76.230000	-14195.520000	5327.460000	-158.580000	-24978.960000	-22006.395000	-5751.630000	1590.030000	-4.564940	-0.973419	-4.448574	-1.869507	-5.147184	-9.292889	-12.702798	-3.253437	-6.714400	4.913720	-3.677660	0.657225	0.000427	0.723265	-1.000000	-1.000000	-1.000000	-1.000000	-1.000000	-1.000000	-1.000000	87.793103	0.000000	-1.000000	-1.000000	266618.000000	1772894244.990776
-74.610000	-14169.195000	5349.735000	-139.365000	-24963.660000	-21998.475000	-5758.155000	1577.340000	-9.426684	-1.473084	-6.776336	-1.202641	-1.452345	-5.584600	-9.801957	-6.952477	-6.714400	4.913720	-3.677660	0.657225	0.000427	0.723265	-1.000000	-1.000000	-1.000000	-1.000000	-1.000000	-1.000000	-1.000000	87.793103	0.000000	-1.000000	-1.000000	266619.000000	1772894245.000193
-60.255000	-14158.800000	5366.340000	-126.855000	-24953.400000	-21987.630000	-5748.120000	1566.810000	-10.313439	1.610391	-3.459651	1.976513	4.140860	0.734372	-3.826191	-9.304365	-6.714400	4.913720	-3.677660	0.657225	0.000427	0.723265	-1.000000	-1.000000	-1.000000	-1.000000	-1.000000	-1.000000	-1.000000	87.793103	0.000000	-1.000000	-1.000000	266620.000000	1772894245.000242
-49.455000	-14173.290000	5366.610000	-127.395000	-24956.415000	-21983.895000	-5735.655000	1600.245000	-6.347394	5.124461	2.675147	6.253153	9.073204	7.157763	2.807732	-7.970718	-8.377740	4.043900	-0.305200	0.653013	0.003906	0.727537	-1.000000	-1.000000	-1.000000	-1.000000	-1.000000	-1.000000	-1.000000	87.793103	0.000000	-1.000000	-1.000000	266621.000000	1772894245.000251
-57.420000	-14168.745000	5371.605000	-115.515000	-24939.135000	-21969.225000	-5733.315000	1610.910000	1.146272	4.565073	6.154650	8.056704	10.336858	10.910605	8.183301	-1.018789	-8.377740	4.043900	-0.305200	0.653013	0.003906	0.727537	-1.000000	-1.000000	-1.000000	-1.000000	-1.000000	-1.000000	-1.000000	87.793103	0.000000	-1.000000	-1.000000	266622.000000	1772894245.000255
-46.170000	-14170.320000	5369.850000	-113.175000	-24937.380000	-21980.070000	-5757.705000	1611.225000	8.193068	-0.554642	4.340950	5.439568	7.074305	10.236367	10.563625	9.115300	-8.377740	4.043900	-0.305200	0.653013	0.003906	0.727537	-1.000000	-1.000000	-1.000000	-1.000000	-1.000000	-1.000000	-1.000000	87.793103	0.000000	-1.000000	-1.000000	266623.000000	1772894245.002762
-13.725000	-14184.045000	5354.955000	-135.090000	-24966.855000	-22010.580000	-5771.025000	1634.085000	11.561721	-6.554264	-0.927616	-0.379486	0.658316	4.676973	8.363121	16.582938	-8.377740	4.043900	-0.305200	0.653013	0.003906	0.727537	-1.000000	-1.000000	-1.000000	-1.000000	-1.000000	-1.000000	-1.000000	87.793103	0.000000	-1.000000	-1.000000	266624.000000	1772894245.002770
-26.280000	-14181.345000	5346.945000	-138.195000	-24967.575000	-22002.120000	-5759.190000	1611.630000	10.761203	-9.679303	-5.883431	-6.418109	-6.465353	-3.863941	2.437389	17.080769	-8.377740	4.043900	-0.305200	0.653013	0.003906	0.727537	-1.000000	-1.000000	-1.000000	-1.000000	-1.000000	-1.000000	-1.000000	87.793103	0.000000	-1.000000	-1.000000	266625.000000	1772894245.006853
-42.480000	-14175.090000	5347.395000	-141.480000	-24967.395000	-21984.435000	-5737.050000	1581.930000	6.147639	-7.947180	-7.232002	-9.427047	-10.948823	-10.316395	-3.094053	9.522221	-8.377740	4.043900	-0.305200	0.653013	0.003906	0.727537	-1.000000	-1.000000	-1.000000	-1.000000	-1.000000	-1.000000	-1.000000	87.793103	0.000000	-1.000000	-1.000000	266626.000000	1772894245.006861
-39.015000	-14164.920000	5351.220000	-145.440000	-24974.100000	-21999.465000	-5759.640000	1584.855000	-1.283626	-1.732574	-3.908895	-7.785074	-10.326056	-10.317847	-4.685018	-3.734377	-8.377740	4.043900	-0.305200	0.653013	0.003906	0.727537	-1.000000	-1.000000	-1.000000	-1.000000	-1.000000	-1.000000	-1.000000	87.793103	0.000000	-1.000000	-1.000000	266627.000000	1772894245.010669
-28.485000	-14177.295000	5341.635000	-157.680000	-24989.220000	-22030.290000	-5791.140000	1576.935000	-8.536545	5.383366	1.682607	-3.089840	-5.595314	-5.213515	-3.301999	-16.044003	-8.377740	4.043900	-0.305200	0.653013	0.003906	0.727537	-1.000000	-1.000000	-1.000000	-1.000000	-1.000000	-1.000000	-1.000000	87.793103	0.000000	-1.000000	-1.000000	266628.000000	1772894245.010678
-32.760000	-14223.645000	5309.100000	-183.780000	-25010.370000	-22046.220000	-5764.770000	1611.315000	-12.262863	8.043538	4.758424	0.869101	-0.513158	-0.444112	-2.251392	-20.099270	-8.377740	4.043900	-0.305200	0.653013	0.003906	0.727537	-1.000000	-1.000000	-1.000000	-1.000000	-1.000000	-1.000000	-1.000000	87.793103	0.000000	-1.000000	-1.000000	266629.000000	1772894245.024821
-55.890000	-14210.955000	5324.940000	-165.915000	-24993.630000	-22025.250000	-5748.930000	1604.835000	-11.600374	3.917081	2.601137	1.749747	2.248250	1.028533	-1.970352	-13.951427	-8.377740	4.043900	-0.305200	0.653013	0.003906	0.727537	-1.000000	-1.000000	-1.000000	-1.000000	-1.000000	-1.000000	-1.000000	87.793103	0.000000	-1.000000	-1.000000	266630.000000	1772894245.024831
-81.675000	-14204.070000	5329.530000	-159.480000	-24985.170000	-22017.015000	-5756.355000	1607.760000	-8.376584	-2.986811	-2.031927	0.949339	3.251771	1.133810	-0.470276	-2.418421	-4.410140	2.426340	0.213640	0.648741	-0.003601	0.730040	-1.000000	-1.000000	-1.000000	-1.000000	-1.000000	-1.000000	-1.000000	87.793103	0.000000	-1.000000	-1.000000	266631.000000	1772894245.024842
-89.550000	-14212.305000	5313.420000	-175.365000	-24997.770000	-22024.800000	-5756.850000	1621.800000	-5.059337	-6.383091	-4.263388	1.076653	4.180807	2.710223	2.683983	7.606118	-4.410140	2.426340	0.213640	0.648741	-0.003601	0.730040	-1.000000	-1.000000	-1.000000	-1.000000	-1.000000	-1.000000	-1.000000	87.793103	0.000000	-1.000000	-1.000000	266632.000000	1772894245.024846
-72.225000	-14196.105000	5337.945000	-145.620000	-24971.715000	-21996.855000	-5756.265000	1588.545000	-2.416526	-3.733743	-1.908953	3.269899	5.936674	6.361167	5.804000	11.742112	-4.410140	2.426340	0.213640	0.648741	-0.003601	0.730040	-1.000000	-1.000000	-1.000000	-1.000000	-1.000000	-1.000000	-1.000000	87.793103	0.000000	-1.000000	-1.000000	266633.000000	1772894245.024850
-56.520000	-14174.235000	5363.325000	-122.130000	-24949.800000	-21969.315000	-5772.870000	1534.320000	1.385640	3.270613	4.508472	7.580174	8.768677	10.764592	6.305554	8.614582	-4.410140	2.426340	0.213640	0.648741	-0.003601	0.730040	-1.000000	-1.000000	-1.000000	-1.000000	-1.000000	-1.000000	-1.000000	87.793103	0.000000	-1.000000	-1.000000	266634.000000	1772894245.024854
-51.390000	-14185.260000	5345.595000	-146.790000	-24976.440000	-22003.155000	-5798.070000	1519.605000	7.993425	10.432020	11.860623	11.961319	10.987585	12.722452	2.214438	0.095390	-4.410140	2.426340	0.213640	0.648741	-0.003601	0.730040	-1.000000	-1.000000	-1.000000	-1.000000	-1.000000	-1.000000	-1.000000	87.793103	0.000000	-1.000000	-1.000000	266635.000000	1772894245.026889
-75.645000	-14208.930000	5315.580000	-175.590000	-24997.995000	-22035.915000	-5776.740000	1594.755000	14.676593	12.423700	14.238272	11.685137	8.861970	8.497723	-4.489133	-7.372808	-4.410140	2.426340	0.213640	0.648741	-0.003601	0.730040	-1.000000	-1.000000	-1.000000	-1.000000	-1.000000	-1.000000	-1.000000	87.793103	0.000000	-1.000000	-1.000000	266636.000000	1772894245.026897
-116.415000	-14229.315000	5303.970000	-180.495000	-24996.150000	-22032.945000	-5742.405000	1631.115000	15.280801	6.662814	7.810674	4.155027	1.144956	-1.533150	-7.667833	-6.025493	-4.410140	2.426340	0.213640	0.648741	-0.003601	0.730040	-1.000000	-1.000000	-1.000000	-1.000000	-1.000000	-1.000000	-1.000000	87.793103	0.000000	-1.000000	-1.000000	266637.000000	1772894245.030858
-109.980000	-14220.630000	5311.350000	-173.790000	-24991.110000	-22020.615000	-5743.800000	1580.670000	7.224124	-3.200716	-4.072491	-6.833368	-8.099761	-11.501266	-4.039067	3.636257	-4.410140	2.426340	0.213640	0.648741	-0.003601	0.730040	-1.000000	-1.000000	-1.000000	-1.000000	-1.000000	-1.000000	-1.000000	87.793103	0.000000	-1.000000	-1.000000	266638.000000	1772894245.030866
-76.995000	-14204.745000	5312.115000	-178.515000	-25000.920000	-22030.830000	-5756.265000	1599.570000	-3.559500	-10.292895	-13.841761	-14.756361	-13.776830	-15.801780	2.356099	11.725800	-4.410140	2.426340	0.213640	0.648741	-0.003601	0.730040	-1.000000	-1.000000	-1.000000	-1.000000	-1.000000	-1.000000	-1.000000	87.793103	0.000000	-1.000000	-1.000000	266639.000000	1772894245.034832
-33.255000	-14186.970000	5326.155000	-161.370000	-24984.495000	-22017.015000	-5754.330000	1626.345000	-7.515418	-10.507400	-16.213943	-15.905397	-13.988127	-13.495826	5.669380	11.480814	-4.410140	2.426340	0.213640	0.648741	-0.003601	0.730040	-1.000000	-1.000000	-1.000000	-1.000000	-1.000000	-1.000000	-1.000000	87.793103	0.000000	-1.000000	-1.000000	266640.000000	1772894245.034840
-22.095000	-14205.960000	5320.710000	-155.025000	-24976.305000	-22005.315000	-5743.305000	1634.130000	-1.652499	-4.885429	-10.628602	-10.060894	-8.966312	-6.378554	4.569825	5.177918	-0.015260	1.876980	-1.266580	0.655333	-0.009582	0.722227	-1.000000	-1.000000	-1.000000	-1.000000	-1.000000	-1.000000	-1.000000	87.793103	0.000000	-1.000000	-1.000000	266641.000000	1772894245.038871
-50.760000	-14221.980000	5329.755000	-141.930000	-24964.245000	-21994.515000	-5742.585000	1614.960000	6.928672	1.348562	-0.988349	-0.277974	-0.698621	2.431189	1.450477	-1.617189	-0.015260	1.876980	-1.266580	0.655333	-0.009582	0.722227	-1.000000	-1.000000	-1.000000	-1.000000	-1.000000	-1.000000	-1.000000	87.793103	0.000000	-1.000000	-1.000000	266642.000000	1772894245.038879
-87.660000	-14192.640000	5355.180000	-125.100000	-24943.005000	-21973.635000	-5735.790000	1583.955000	8.062846	3.475653	7.246047	8.353699	7.035500	8.957725	-1.062001	-5.357695	-0.015260	1.876980	-1.266580	0.655333	-0.009582	0.722227	-1.000000	-1.000000	-1.000000	-1.000000	-1.000000	-1.000000	-1.000000	87.793103	0.000000	-1.000000	-1.000000	266643.000000	1772894245.042884
-70.920000	-14173.875000	5350.680000	-143.460000	-24963.255000	-21994.830000	-5741.370000	1603.935000	-1.037896	2.437540	11.408089	12.487889	11.401243	11.319022	-1.664672	-6.240090	-0.015260	1.876980	-1.266580	0.655333	-0.009582	0.722227	-1.000000	-1.000000	-1.000000	-1.000000	-1.000000	-1.000000	-1.000000	87.793103	0.000000	-1.000000	-1.000000	266644.000000	1772894245.042948
-42.120000	-14171.850000	5344.830000	-148.320000	-24974.820000	-22006.080000	-5737.230000	1653.210000	-12.336901	2.446385	11.604049	11.578741	11.257265	10.041483	-1.105043	-6.273951	-0.015260	1.876980	-1.266580	0.655333	-0.009582	0.722227	-1.000000	-1.000000	-1.000000	-1.000000	-1.000000	-1.000000	-1.000000	87.793103	0.000000	-1.000000	-1.000000	266645.000000	1772894245.046774
11.205000	-14149.620000	5373.630000	-115.740000	-24943.455000	-21975.525000	-5712.885000	1641.960000	-14.551183	5.137048	8.767638	7.061009	6.965278	6.181055	-1.279680	-6.053898	-0.015260	1.876980	-1.266580	0.655333	-0.009582	0.722227	-1.000000	-1.000000	-1.000000	-1.000000	-1.000000	-1.000000	-1.000000	87.793103	0.000000	-1.000000	-1.000000	266646.000000	1772894245.046781
23.040000	-14131.170000	5401.440000	-85.140000	-24912.945000	-21950.595000	-5715.630000	1621.935000	-4.485773	8.366096	4.593886	2.044307	1.483693	1.598362	-2.443599	-4.995394	-0.015260	1.876980	-1.266580	0.655333	-0.009582	0.722227	-1.000000	-1.000000	-1.000000	-1.000000	-1.000000	-1.000000	-1.000000	87.793103	0.000000	-1.000000	-1.000000	266647.000000	1772894245.050493
17.730000	-14127.255000	5394.510000	-98.595000	-24929.055000	-21964.095000	-5727.015000	1670.220000	9.325603	8.372794	0.409601	-1.320998	-2.150320	-1.931040	-3.192857	-2.849658	-0.015260	1.876980	-1.266580	0.655333	-0.009582	0.722227	-1.000000	-1.000000	-1.000000	-1.000000	-1.000000	-1.000000	-1.000000	87.793103	0.000000	-1.000000	-1.000000	266648.000000	1772894245.050498
-48.285000	-14153.265000	5367.960000	-125.640000	-24947.325000	-21975.480000	-5726.115000	1668.600000	13.903473	2.781289	-4.283335	-4.284634	-4.490726	-4.776429	-2.870875	0.150824	-0.015260	1.876980	-1.266580	0.655333	-0.009582	0.722227	-1.000000	-1.000000	-1.000000	-1.000000	-1.000000	-1.000000	-1.000000	87.793103	0.000000	-1.000000	-1.000000	266649.000000	1772894245.054561
-31.140000	-14165.190000	5349.240000	-145.215000	-24962.400000	-21986.730000	-5725.395000	1635.030000	3.921369	-6.905464	-10.245249	-9.107390	-7.828120	-8.272975	-1.927670	2.682060	-0.015260	1.876980	-1.266580	0.655333	-0.009582	0.722227	-1.000000	-1.000000	-1.000000	-1.000000	-1.000000	-1.000000	-1.000000	87.793103	0.000000	-1.000000	-1.000000	266650.000000	1772894245.054570
-47.205000	-14180.400000	5344.380000	-147.870000	-24969.420000	-21992.895000	-5728.680000	1587.645000	-12.253771	-15.974635	-16.133150	-15.044363	-12.200757	-12.173810	-0.837052	2.870240	-1.052940	2.960440	-0.366240	0.661436	-0.000305	0.721861	-1.000000	-1.000000	-1.000000	-1.000000	-1.000000	-1.000000	-1.000000	87.793103	0.000000	-1.000000	-1.000000	266651.000000	1772894245.066449
-54.675000	-14196.600000	5335.560000	-152.865000	-24977.700000	-22004.280000	-5741.190000	1582.425000	-21.131676	-20.295913	-18.715957	-17.907593	-14.720669	-14.122406	0.168061	0.582807	-1.052940	2.960440	-0.366240	0.661436	-0.000305	0.721861	-1.000000	-1.000000	-1.000000	-1.000000	-1.000000	-1.000000	-1.000000	87.793103	0.000000	-1.000000	-1.000000	266652.000000	1772894245.066458
-57.105000	-14208.030000	5329.530000	-157.500000	-24984.720000	-22014.405000	-5750.865000	1611.855000	-17.197385	-18.489935	-15.053982	-13.502974	-11.810329	-11.093653	0.769044	-2.419586	-1.052940	2.960440	-0.366240	0.661436	-0.000305	0.721861	-1.000000	-1.000000	-1.000000	-1.000000	-1.000000	-1.000000	-1.000000	87.793103	0.000000	-1.000000	-1.000000	266653.000000	1772894245.066467
-99.630000	-14205.825000	5329.890000	-160.695000	-24990.795000	-22023.630000	-5763.330000	1590.570000	-5.582129	-10.919962	-5.054967	-2.111924	-2.922482	-2.679972	0.296002	-4.556426	-1.052940	2.960440	-0.366240	0.661436	-0.000305	0.721861	-1.000000	-1.000000	-1.000000	-1.000000	-1.000000	-1.000000	-1.000000	87.793103	0.000000	-1.000000	-1.000000	266654.000000	1772894245.066471
-131.220000	-14190.120000	5333.895000	-151.245000	-24981.030000	-22013.145000	-5760.225000	1578.420000	4.029517	0.582854	7.187965	10.477149	7.640561	7.035083	-1.535913	-4.910964	-1.052940	2.960440	-0.366240	0.661436	-0.000305	0.721861	-1.000000	-1.000000	-1.000000	-1.000000	-1.000000	-1.000000	-1.000000	87.793103	0.000000	-1.000000	-1.000000	266655.000000	1772894245.066628
-97.785000	-14178.015000	5335.065000	-149.535000	-24972.795000	-22003.515000	-5755.815000	1591.020000	6.593079	12.255011	15.757469	17.591562	14.352278	13.097500	-2.996623	-2.533146	-1.052940	2.960440	-0.366240	0.661436	-0.000305	0.721861	-1.000000	-1.000000	-1.000000	-1.000000	-1.000000	-1.000000	-1.000000	87.793103	0.000000	-1.000000	-1.000000	266656.000000	1772894245.066636
-39.780000	-14173.245000	5338.845000	-165.690000	-24989.355000	-22023.225000	-5777.865000	1613.970000	6.818724	20.021055	17.724669	16.941977	15.130047	13.886610	-1.727452	2.226013	-1.052940	2.960440	-0.366240	0.661436	-0.000305	0.721861	-1.000000	-1.000000	-1.000000	-1.000000	-1.000000	-1.000000	-1.000000	87.793103	0.000000	-1.000000	-1.000000	266657.000000	1772894245.070664
-20.970000	-14158.845000	5356.305000	-143.055000	-24970.725000	-22009.230000	-5780.790000	1603.080000	12.222015	22.084796	15.014628	11.355274	11.642904	10.729255	1.751793	7.267993	-1.052940	2.960440	-0.366240	0.661436	-0.000305	0.721861	-1.000000	-1.000000	-1.000000	-1.000000	-1.000000	-1.000000	-1.000000	87.793103	0.000000	-1.000000	-1.000000	266658.000000	1772894245.070673
-30.870000	-14161.815000	5363.775000	-109.530000	-24934.410000	-21971.115000	-5741.730000	1604.880000	21.759262	19.071570	11.173852	5.927103	7.378491	6.518066	5.357316	11.091063	-1.052940	2.960440	-0.366240	0.661436	-0.000305	0.721861	-1.000000	-1.000000	-1.000000	-1.000000	-1.000000	-1.000000	-1.000000	87.793103	0.000000	-1.000000	-1.000000	266659.000000	1772894245.074574
-48.690000	-14169.465000	5355.900000	-117.045000	-24943.230000	-21976.200000	-5726.250000	1604.880000	26.163562	11.966741	7.248444	3.528276	4.819105	3.968288	8.699903	13.528772	-1.052940	2.960440	-0.366240	0.661436	-0.000305	0.721861	-1.000000	-1.000000	-1.000000	-1.000000	-1.000000	-1.000000	-1.000000	87.793103	0.000000	-1.000000	-1.000000	266660.000000	1772894245.074582
-58.095000	-14182.155000	5326.155000	-151.020000	-24976.440000	-22005.990000	-5743.395000	1591.695000	18.528148	1.820485	1.785198	2.148474	2.751227	2.682731	11.256817	13.095538	-8.301440	1.327620	1.434440	0.656248	0.010315	0.725523	-1.000000	-1.000000	-1.000000	-1.000000	-1.000000	-1.000000	-1.000000	87.793103	0.000000	-1.000000	-1.000000	266661.000000	1772894245.078536
-53.010000	-14197.455000	5312.610000	-178.290000	-25005.375000	-22032.045000	-5757.390000	1596.420000	1.050403	-9.002661	-5.895920	-2.095305	-1.929315	-0.213165	10.281820	6.732395	-8.301440	1.327620	1.434440	0.656248	0.010315	0.725523	-1.000000	-1.000000	-1.000000	-1.000000	-1.000000	-1.000000	-1.000000	87.793103	0.000000	-1.000000	-1.000000	266662.000000	1772894245.078542
-40.050000	-14193.495000	5337.585000	-162.495000	-24990.345000	-22020.570000	-5759.910000	1610.955000	-16.674616	-17.214805	-13.342383	-9.552678	-9.393457	-5.837450	3.866261	-4.412332	-8.301440	1.327620	1.434440	0.656248	0.010315	0.725523	-1.000000	-1.000000	-1.000000	-1.000000	-1.000000	-1.000000	-1.000000	87.793103	0.000000	-1.000000	-1.000000	266663.000000	1772894245.082632
-42.975000	-14186.025000	5354.280000	-147.330000	-24972.795000	-22004.370000	-5752.575000	1600.290000	-25.330020	-20.168440	-16.139184	-15.793197	-15.491460	-11.507886	-5.684615	-13.669502	-8.301440	1.327620	1.434440	0.656248	0.010315	0.725523	-1.000000	-1.000000	-1.000000	-1.000000	-1.000000	-1.000000	-1.000000	87.793103	0.000000	-1.000000	-1.000000	266664.000000	1772894245.082637
-54.810000	-14169.645000	5366.205000	-131.130000	-24958.260000	-21991.680000	-5747.175000	1592.010000	-23.569518	-16.792400	-11.878075	-15.539381	-15.312118	-12.956608	-12.989746	-16.709722	-8.301440	1.327620	1.434440	0.656248	0.010315	0.725523	-1.000000	-1.000000	-1.000000	-1.000000	-1.000000	-1.000000	-1.000000	87.793103	0.000000	-1.000000	-1.000000	266665.000000	1772894245.086685
-48.780000	-14154.705000	5388.660000	-100.665000	-24926.355000	-21962.565000	-5739.390000	1592.775000	-16.832745	-7.867771	-2.390336	-7.065014	-7.256742	-7.817243	-13.652682	-14.778797	-8.301440	1.327620	1.434440	0.656248	0.010315	0.725523	-1.000000	-1.000000	-1.000000	-1.000000	-1.000000	-1.000000	-1.000000	87.793103	0.000000	-1.000000	-1.000000	266666.000000	1772894245.086691
-42.165000	-14172.615000	5371.785000	-121.320000	-24952.095000	-21996.090000	-5778.180000	1594.395000	-9.518715	3.307518	7.272382	5.420893	4.661181	1.328073	-8.362280	-9.660876	-8.301440	1.327620	1.434440	0.656248	0.010315	0.725523	-1.000000	-1.000000	-1.000000	-1.000000	-1.000000	-1.000000	-1.000000	87.793103	0.000000	-1.000000	-1.000000	266667.000000	1772894245.090595
-17.775000	-14185.755000	5341.500000	-159.345000	-24992.820000	-22037.445000	-5803.020000	1613.160000	-1.542013	11.445955	11.202982	13.029780	11.793933	6.912809	-3.134490	-1.525319	-8.301440	1.327620	1.434440	0.656248	0.010315	0.725523	-1.000000	-1.000000	-1.000000	-1.000000	-1.000000	-1.000000	-1.000000	87.793103	0.000000	-1.000000	-1.000000	266668.000000	1772894245.090603
-17.955000	-14183.190000	5345.910000	-151.065000	-24978.420000	-22008.420000	-5745.915000	1618.425000	8.120385	13.114164	7.173707	10.322174	8.978631	4.448829	-1.743828	8.278086	-8.301440	1.327620	1.434440	0.656248	0.010315	0.725523	-1.000000	-1.000000	-1.000000	-1.000000	-1.000000	-1.000000	-1.000000	87.793103	0.000000	-1.000000	-1.000000	266669.000000	1772894245.095857
-27.990000	-14168.610000	5363.505000	-126.045000	-24946.065000	-21965.265000	-5693.355000	1606.905000	16.900396	9.774653	-0.120629	2.164422	1.571014	-0.311539	0.260321	15.463463	-8.301440	1.327620	1.434440	0.656248	0.010315	0.725523	-1.000000	-1.000000	-1.000000	-1.000000	-1.000000	-1.000000	-1.000000	87.793103	0.000000	-1.000000	-1.000000	266670.000000	1772894245.095866
-24.345000	-14173.965000	5353.695000	-132.615000	-24949.980000	-21971.025000	-5701.455000	1618.740000	19.747871	5.348459	-4.092473	-2.512093	-1.380010	0.866864	7.765923	15.565540	-8.286180	0.839300	1.861720	0.658751	-0.000671	0.722349	-1.000000	-1.000000	-1.000000	-1.000000	-1.000000	-1.000000	-1.000000	87.793103	0.000000	-1.000000	-1.000000	266671.000000	1772894245.098531
15.930000	-14159.790000	5367.600000	-121.095000	-24942.555000	-21966.885000	-5705.820000	1648.170000	15.071453	1.843764	-3.571456	-1.418212	1.462601	7.001001	16.607149	8.993887	-8.286180	0.839300	1.861720	0.658751	-0.000671	0.722349	-1.000000	-1.000000	-1.000000	-1.000000	-1.000000	-1.000000	-1.000000	87.793103	0.000000	-1.000000	-1.000000	266672.000000	1772894245.098540
59.985000	-14124.645000	5399.055000	-89.100000	-24909.660000	-21933.180000	-5687.235000	1657.350000	7.050571	-0.651810	-1.277669	1.613527	4.815604	10.751571	18.494742	0.939386	-8.286180	0.839300	1.861720	0.658751	-0.000671	0.722349	-1.000000	-1.000000	-1.000000	-1.000000	-1.000000	-1.000000	-1.000000	87.793103	0.000000	-1.000000	-1.000000	266673.000000	1772894245.106330
35.145000	-14084.730000	5427.630000	-55.980000	-24877.755000	-21903.345000	-5674.590000	1647.045000	0.352911	-1.567549	1.346999	3.662026	5.263524	8.610295	11.082170	-4.509412	-8.286180	0.839300	1.861720	0.658751	-0.000671	0.722349	-1.000000	-1.000000	-1.000000	-1.000000	-1.000000	-1.000000	-1.000000	87.793103	0.000000	-1.000000	-1.000000	266674.000000	1772894245.106339
-0.135000	-14058.405000	5465.430000	-11.565000	-24837.300000	-21867.165000	-5654.520000	1618.110000	-5.376058	-0.210471	4.279997	4.597225	3.582324	2.988942	-0.701543	-7.496485	-8.286180	0.839300	1.861720	0.658751	-0.000671	0.722349	-1.000000	-1.000000	-1.000000	-1.000000	-1.000000	-1.000000	-1.000000	87.793103	0.000000	-1.000000	-1.000000	266675.000000	1772894245.106509
24.930000	-14074.515000	5474.925000	-1.755000	-24828.300000	-21862.035000	-5643.990000	1607.760000	-12.073442	2.283041	7.220475	5.154395	1.967794	-1.898642	-9.754910	-9.788154	-8.286180	0.839300	1.861720	0.658751	-0.000671	0.722349	-1.000000	-1.000000	-1.000000	-1.000000	-1.000000	-1.000000	-1.000000	87.793103	0.000000	-1.000000	-1.000000	266676.000000	1772894245.106515
36.315000	-14079.780000	5460.480000	-25.470000	-24852.105000	-21886.965000	-5662.395000	1637.865000	-17.112079	2.920761	8.696976	4.888499	1.063450	-4.223882	-12.700383	-11.069481	-8.286180	0.839300	1.861720	0.658751	-0.000671	0.722349	-1.000000	-1.000000	-1.000000	-1.000000	-1.000000	-1.000000	-1.000000	87.793103	0.000000	-1.000000	-1.000000	266677.000000	1772894245.111209
16.470000	-14112.090000	5417.595000	-76.230000	-24906.600000	-21944.700000	-5698.080000	1681.830000	-16.138641	-0.821071	5.678416	1.010450	-1.889794	-6.887171	-12.840635	-8.324635	-8.286180	0.839300	1.861720	0.658751	-0.000671	0.722349	-1.000000	-1.000000	-1.000000	-1.000000	-1.000000	-1.000000	-1.000000	87.793103	0.000000	-1.000000	-1.000000	266678.000000	1772894245.111217
13.905000	-14126.085000	5395.770000	-99.315000	-24931.575000	-21971.070000	-5697.765000	1671.300000	-9.094055	-8.565659	-3.710759	-8.530266	-9.898955	-13.703892	-14.928584	-0.130325	-8.286180	0.839300	1.861720	0.658751	-0.000671	0.722349	-1.000000	-1.000000	-1.000000	-1.000000	-1.000000	-1.000000	-1.000000	87.793103	0.000000	-1.000000	-1.000000	266679.000000	1772894245.114634
29.970000	-14111.415000	5408.595000	-81.270000	-24909.255000	-21932.730000	-5640.390000	1702.440000	0.242356	-16.069677	-15.850869	-19.777295	-19.794051	-21.628606	-16.562981	9.434411	-8.286180	0.839300	1.861720	0.658751	-0.000671	0.722349	-1.000000	-1.000000	-1.000000	-1.000000	-1.000000	-1.000000	-1.000000	87.793103	0.000000	-1.000000	-1.000000	266680.000000	1772894245.114642
34.335000	-14111.730000	5412.960000	-72.630000	-24897.150000	-21918.690000	-5649.120000	1716.480000	7.441808	-17.879983	-23.034511	-24.452362	-23.234352	-21.847083	-10.867037	14.332756	2.884140	2.975700	-0.854560	0.668028	-0.023865	0.711058	-1.000000	-1.000000	-1.000000	-1.000000	-1.000000	-1.000000	-1.000000	87.793103	0.000000	-1.000000	-1.000000	266681.000000	1772894245.118582
10.755000	-14123.880000	5417.910000	-64.035000	-24887.520000	-21918.375000	-5691.240000	1656.405000	9.229182	-12.801819	-20.543805	-18.275984	-15.788938	-10.790820	1.623324	11.304360	2.884140	2.975700	-0.854560	0.668028	-0.023865	0.711058	-1.000000	-1.000000	-1.000000	-1.000000	-1.000000	-1.000000	-1.000000	87.793103	0.000000	-1.000000	-1.000000	266682.000000	1772894245.118590
-42.210000	-14137.155000	5414.535000	-65.925000	-24888.870000	-21921.840000	-5708.250000	1601.865000	5.248743	-4.871853	-10.335652	-4.927391	-1.554728	5.156738	11.848512	0.409130	2.884140	2.975700	-0.854560	0.668028	-0.023865	0.711058	-1.000000	-1.000000	-1.000000	-1.000000	-1.000000	-1.000000	-1.000000	87.793103	0.000000	-1.000000	-1.000000	266683.000000	1772894245.124339
-85.905000	-14154.165000	5386.905000	-99.090000	-24923.880000	-21952.980000	-5708.295000	1587.420000	-1.848151	1.674631	1.472702	7.593412	10.917906	16.363302	13.442949	-13.616236	2.884140	2.975700	-0.854560	0.668028	-0.023865	0.711058	-1.000000	-1.000000	-1.000000	-1.000000	-1.000000	-1.000000	-1.000000	87.793103	0.000000	-1.000000	-1.000000	266684.000000	1772894245.124348
-36.540000	-14148.090000	5373.315000	-122.265000	-24952.905000	-21983.445000	-5708.070000	1637.280000	-7.702267	6.380581	9.542943	13.365477	15.492411	17.837807	8.585978	-21.616995	2.884140	2.975700	-0.854560	0.668028	-0.023865	0.711058	-1.000000	-1.000000	-1.000000	-1.000000	-1.000000	-1.000000	-1.000000	87.793103	0.000000	-1.000000	-1.000000	266685.000000	1772894245.128780
37.800000	-14138.280000	5384.610000	-108.180000	-24934.815000	-21962.790000	-5692.320000	1669.230000	-6.370330	11.277162	13.201710	13.151983	13.217728	12.363779	3.705932	-16.776466	2.884140	2.975700	-0.854560	0.668028	-0.023865	0.711058	-1.000000	-1.000000	-1.000000	-1.000000	-1.000000	-1.000000	-1.000000	87.793103	0.000000	-1.000000	-1.000000	266686.000000	1772894245.128789
5.310000	-14138.280000	5396.895000	-89.190000	-24907.545000	-21933.720000	-5673.150000	1635.570000	4.912826	16.972952	15.558008	12.684538	10.857614	7.830403	3.400941	-1.886502	2.884140	2.975700	-0.854560	0.668028	-0.023865	0.711058	-1.000000	-1.000000	-1.000000	-1.000000	-1.000000	-1.000000	-1.000000	87.793103	0.000000	-1.000000	-1.000000	266687.000000	1772894245.130513
-27.360000	-14142.690000	5391.855000	-99.945000	-24921.990000	-21945.645000	-5680.305000	1627.740000	18.496747	20.722444	18.106614	15.034462	12.579656	8.839677	6.848181	12.434971	2.884140	2.975700	-0.854560	0.668028	-0.023865	0.711058	-1.000000	-1.000000	-1.000000	-1.000000	-1.000000	-1.000000	-1.000000	87.793103	0.000000	-1.000000	-1.000000	266688.000000	1772894245.130519
-13.365000	-14144.175000	5383.215000	-110.205000	-24933.420000	-21955.860000	-5689.935000	1663.875000	22.044838	18.364093	17.708490	16.227125	14.298545	11.001101	8.392791	17.764021	2.884140	2.975700	-0.854560	0.668028	-0.023865	0.711058	-1.000000	-1.000000	-1.000000	-1.000000	-1.000000	-1.000000	-1.000000	87.793103	0.000000	-1.000000	-1.000000	266689.000000	1772894245.134529
20.835000	-14134.860000	5381.865000	-106.740000	-24927.480000	-21960.945000	-5699.925000	1676.610000	12.514284	8.745808	10.621553	10.669649	9.471121	7.021079	4.000759	14.532095	2.884140	2.975700	-0.854560	0.668028	-0.023865	0.711058	-1.000000	-1.000000	-1.000000	-1.000000	-1.000000	-1.000000	-1.000000	87.793103	0.000000	-1.000000	-1.000000	266690.000000	1772894245.134536
-12.510000	-14155.245000	5361.435000	-124.020000	-24941.430000	-21969.045000	-5708.250000	1651.545000	-1.889795	-4.425342	-2.272638	-1.616271	-2.315587	-3.867822	-3.716324	8.873284	7.111160	4.639040	-0.183120	0.666441	-0.027832	0.708494	-1.000000	-1.000000	-1.000000	-1.000000	-1.000000	-1.000000	-1.000000	87.793103	0.000000	-1.000000	-1.000000	266691.000000	1772894245.139079
-53.595000	-14163.615000	5364.855000	-115.695000	-24931.125000	-21955.815000	-5710.140000	1626.390000	-11.978109	-15.531335	-15.425778	-14.813296	-14.996391	-15.267865	-9.165850	5.135353	7.111160	4.639040	-0.183120	0.666441	-0.027832	0.708494	-1.000000	-1.000000	-1.000000	-1.000000	-1.000000	-1.000000	-1.000000	87.793103	0.000000	-1.000000	-1.000000	266692.000000	1772894245.139090
-59.040000	-14165.775000	5370.795000	-110.835000	-24930.495000	-21957.930000	-5719.590000	1603.395000	-14.926130	-20.150064	-21.771966	-21.221353	-20.701499	-19.267852	-9.717922	2.261060	7.111160	4.639040	-0.183120	0.666441	-0.027832	0.708494	-1.000000	-1.000000	-1.000000	-1.000000	-1.000000	-1.000000	-1.000000	87.793103	0.000000	-1.000000	-1.000000	266693.000000	1772894245.142560
-34.920000	-14161.590000	5363.460000	-127.980000	-24944.670000	-21971.430000	-5719.725000	1601.550000	-13.306028	-16.745095	-17.490202	-16.753925	-15.604265	-12.888743	-6.575285	-3.487746	7.111160	4.639040	-0.183120	0.666441	-0.027832	0.708494	-1.000000	-1.000000	-1.000000	-1.000000	-1.000000	-1.000000	-1.000000	87.793103	0.000000	-1.000000	-1.000000	266694.000000	1772894245.142567
-6.030000	-14173.785000	5338.215000	-158.400000	-24977.745000	-22004.640000	-5729.040000	1653.435000	-9.944645	-7.732909	-5.980818	-5.376921	-4.127215	-1.384500	-2.496980	-11.724547	7.111160	4.639040	-0.183120	0.666441	-0.027832	0.708494	-1.000000	-1.000000	-1.000000	-1.000000	-1.000000	-1.000000	-1.000000	87.793103	0.000000	-1.000000	-1.000000	266695.000000	1772894245.146499
-3.555000	-14163.435000	5353.425000	-134.820000	-24963.255000	-21994.065000	-5722.515000	1654.650000	-4.404996	2.204545	5.125024	4.812769	5.220027	6.689516	0.323473	-15.596314	7.111160	4.639040	-0.183120	0.666441	-0.027832	0.708494	-1.000000	-1.000000	-1.000000	-1.000000	-1.000000	-1.000000	-1.000000	87.793103	0.000000	-1.000000	-1.000000	266696.000000	1772894245.146505
-12.285000	-14158.980000	5367.420000	-118.485000	-24944.355000	-21977.280000	-5721.885000	1626.840000	3.781021	9.303035	11.135764	9.910008	8.711744	8.153427	1.520693	-10.876870	7.111160	4.639040	-0.183120	0.666441	-0.027832	0.708494	-1.000000	-1.000000	-1.000000	-1.000000	-1.000000	-1.000000	-1.000000	87.793103	0.000000	-1.000000	-1.000000	266697.000000	1772894245.152457
0.585000	-14151.240000	5373.720000	-112.815000	-24937.245000	-21973.275000	-5725.845000	1634.625000	10.786958	11.819331	12.064044	10.926250	8.500959	6.078914	2.154782	-2.525321	7.111160	4.639040	-0.183120	0.666441	-0.027832	0.708494	-1.000000	-1.000000	-1.000000	-1.000000	-1.000000	-1.000000	-1.000000	87.793103	0.000000	-1.000000	-1.000000	266698.000000	1772894245.152462
-18.540000	-14158.440000	5365.575000	-120.375000	-24947.370000	-21983.355000	-5739.615000	1619.505000	11.741391	9.684871	9.348855	9.033667	6.772024	3.774609	3.125558	3.022548	7.111160	4.639040	-0.183120	0.666441	-0.027832	0.708494	-1.000000	-1.000000	-1.000000	-1.000000	-1.000000	-1.000000	-1.000000	87.793103	0.000000	-1.000000	-1.000000	266699.000000	1772894245.154586
-64.665000	-14169.780000	5358.375000	-122.490000	-24944.940000	-21979.125000	-5741.775000	1575.720000	6.308492	4.408846	4.212092	4.531363	3.675597	1.875960	4.216726	4.788599	7.111160	4.639040	-0.183120	0.666441	-0.027832	0.708494	-1.000000	-1.000000	-1.000000	-1.000000	-1.000000	-1.000000	-1.000000	87.793103	0.000000	-1.000000	-1.000000	266700.000000	1772894245.154594
-78.570000	-14177.430000	5354.055000	-129.735000	-24949.395000	-21981.690000	-5738.220000	1589.040000	-1.368839	-1.443119	-1.791492	-1.420140	-0.362412	0.068116	4.603523	4.884890	-1.434440	5.371520	-0.045780	0.656492	-0.006226	0.711119	-1.000000	-1.000000	-1.000000	-1.000000	-1.000000	-1.000000	-1.000000	87.793103	0.000000	-1.000000	-1.000000	266701.000000	1772894245.158537
-69.885000	-14164.290000	5368.770000	-123.120000	-24947.730000	-21979.395000	-5719.185000	1643.850000	-6.899181	-5.370444	-6.385304	-6.362364	-3.628996	-1.188879	4.166014	5.952677	-1.434440	5.371520	-0.045780	0.656492	-0.006226	0.711119	-1.000000	-1.000000	-1.000000	-1.000000	-1.000000	-1.000000	-1.000000	87.793103	0.000000	-1.000000	-1.000000	266702.000000	1772894245.158546
-30.420000	-14147.415000	5376.375000	-115.965000	-24941.880000	-21976.425000	-5718.915000	1658.115000	-8.396884	-5.719771	-7.162857	-7.476915	-4.165854	-0.902409	3.445177	8.972474	-1.434440	5.371520	-0.045780	0.656492	-0.006226	0.711119	-1.000000	-1.000000	-1.000000	-1.000000	-1.000000	-1.000000	-1.000000	87.793103	0.000000	-1.000000	-1.000000	266703.000000	1772894245.167825
8.730000	-14139.855000	5384.835000	-106.155000	-24931.755000	-21964.770000	-5715.540000	1646.280000	-5.345876	-2.401563	-3.514204	-3.784956	-1.401881	1.152663	2.302593	10.583612	-1.434440	5.371520	-0.045780	0.656492	-0.006226	0.711119	-1.000000	-1.000000	-1.000000	-1.000000	-1.000000	-1.000000	-1.000000	87.793103	0.000000	-1.000000	-1.000000	266704.000000	1772894245.167836
-5.985000	-14154.795000	5372.190000	-118.440000	-24943.770000	-21973.140000	-5719.995000	1629.405000	1.654345	2.067333	1.650309	1.734299	2.384882	3.276370	-0.043529	6.516100	-1.434440	5.371520	-0.045780	0.656492	-0.006226	0.711119	-1.000000	-1.000000	-1.000000	-1.000000	-1.000000	-1.000000	-1.000000	87.793103	0.000000	-1.000000	-1.000000	266705.000000	1772894245.167847
-24.885000	-14158.305000	5379.435000	-105.390000	-24934.455000	-21968.280000	-5718.195000	1625.895000	8.401938	3.668477	3.795320	4.218999	3.350764	2.672755	-3.537161	-2.664522	-1.434440	5.371520	-0.045780	0.656492	-0.006226	0.711119	-1.000000	-1.000000	-1.000000	-1.000000	-1.000000	-1.000000	-1.000000	87.793103	0.000000	-1.000000	-1.000000	266706.000000	1772894245.167851
-38.295000	-14151.915000	5380.200000	-105.570000	-24935.130000	-21971.610000	-5730.570000	1614.960000	9.081494	0.881753	1.410443	2.062010	0.255080	-1.299699	-6.622260	-12.048975	-1.434440	5.371520	-0.045780	0.656492	-0.006226	0.711119	-1.000000	-1.000000	-1.000000	-1.000000	-1.000000	-1.000000	-1.000000	87.793103	0.000000	-1.000000	-1.000000	266707.000000	1772894245.170685
-23.220000	-14150.025000	5376.195000	-114.570000	-24942.780000	-21979.665000	-5742.720000	1611.495000	3.396336	-3.470208	-2.801368	-2.197209	-4.342582	-6.087334	-7.560142	-16.123121	-1.434440	5.371520	-0.045780	0.656492	-0.006226	0.711119	-1.000000	-1.000000	-1.000000	-1.000000	-1.000000	-1.000000	-1.000000	87.793103	0.000000	-1.000000	-1.000000	266708.000000	1772894245.170696
-37.485000	-14153.805000	5361.390000	-132.615000	-24952.545000	-21983.715000	-5736.285000	1612.125000	-2.248827	-5.316496	-5.453021	-5.547952	-7.301305	-8.754943	-5.932133	-11.750768	-1.434440	5.371520	-0.045780	0.656492	-0.006226	0.711119	-1.000000	-1.000000	-1.000000	-1.000000	-1.000000	-1.000000	-1.000000	87.793103	0.000000	-1.000000	-1.000000	266709.000000	1772894245.174518
-97.875000	-14160.780000	5349.780000	-146.520000	-24968.970000	-21998.205000	-5744.520000	1578.735000	-3.809532	-3.445773	-5.540705	-6.756745	-7.370144	-8.152575	-2.695543	-1.815306	-1.434440	5.371520	-0.045780	0.656492	-0.006226	0.711119	-1.000000	-1.000000	-1.000000	-1.000000	-1.000000	-1.000000	-1.000000	87.793103	0.000000	-1.000000	-1.000000	266710.000000	1772894245.174526
-82.980000	-14166.045000	5349.240000	-149.760000	-24981.030000	-22014.990000	-5763.555000	1570.185000	-4.500679	-0.232655	-4.049813	-5.777546	-5.069023	-5.003628	0.121761	5.229796	-9.751140	5.218920	-0.869820	0.649657	0.006531	0.711729	-1.000000	-1.000000	-1.000000	-1.000000	-1.000000	-1.000000	-1.000000	87.793103	0.000000	-1.000000	-1.000000	266711.000000	1772894245.178603
-22.500000	-14178.105000	5351.715000	-141.975000	-24975.000000	-22008.735000	-5753.790000	1600.290000	-6.874932	1.163269	-1.841960	-2.756459	-1.509562	-0.905405	0.967280	4.421076	-9.751140	5.218920	-0.869820	0.649657	0.006531	0.711729	-1.000000	-1.000000	-1.000000	-1.000000	-1.000000	-1.000000	-1.000000	87.793103	0.000000	-1.000000	-1.000000	266712.000000	1772894245.178612
