Channel1	Channel2	Channel3	Channel4	Channel5	Channel6	Channel7	Channel8	FilteredChannel1	FilteredChannel2	FilteredChannel3	FilteredChannel4	FilteredChannel5	FilteredChannel6	FilteredChannel7	FilteredChannel8	GyroX	GyroY	GyroZ	AccX	AccY	AccZ	PPG1	PPG2	rawPPG1	rawPPG2	rawPPG3	Hr	Hrv	Battery	Trigger	PhysicalTrigger	AutoTrigger	NumMeasurements	Timestamp
-5086.890000	-17751.240000	-3919.050000	9329.400000	-7752.825000	-3855.690000	6964.470000	-1138.995000	-14.636501	-20.341576	-21.124838	-19.590248	-19.664851	-17.892068	-22.720812	-19.039821	-3.204600	2.029580	0.122080	0.736021	0.654783	0.100219	-1.000000	-1.000000	-1.000000	-1.000000	-1.000000	-1.000000	-1.000000	78.551724	0.000000	-1.000000	-1.000000	1483912.000000	1770064464.277126
-5062.230000	-17732.610000	-3902.850000	9344.025000	-7740.090000	-3851.775000	6986.610000	-1135.260000	-18.343066	-22.064879	-23.172633	-20.161861	-18.017783	-16.452654	-30.246922	-17.869256	-3.204600	2.029580	0.122080	0.736021	0.654783	0.100219	-1.000000	-1.000000	-1.000000	-1.000000	-1.000000	-1.000000	-1.000000	78.551724	0.000000	-1.000000	-1.000000	1483913.000000	1770064464.280369
-5052.015000	-17715.780000	-3892.905000	9345.915000	-7740.855000	-3855.780000	6986.250000	-1187.145000	-14.305857	-14.366165	-14.869049	-11.959989	-8.652979	-7.567633	-22.456397	-10.591698	-3.204600	2.029580	0.122080	0.736021	0.654783	0.100219	-1.000000	-1.000000	-1.000000	-1.000000	-1.000000	-1.000000	-1.000000	78.551724	0.000000	-1.000000	-1.000000	1483914.000000	1770064464.280378
-5015.565000	-17671.950000	-3850.695000	9387.405000	-7700.850000	-3813.705000	7017.750000	-1149.795000	-2.470780	1.147878	1.174105	1.903431	4.484387	4.373374	-2.950959	-1.502313	-3.204600	2.029580	0.122080	0.736021	0.654783	0.100219	-1.000000	-1.000000	-1.000000	-1.000000	-1.000000	-1.000000	-1.000000	78.551724	0.000000	-1.000000	-1.000000	1483915.000000	1770064464.284250
-5012.370000	-17686.755000	-3862.890000	9380.610000	-7704.900000	-3808.035000	7018.380000	-1079.190000	12.284234	17.771443	17.494520	15.264452	15.922937	14.575623	17.192486	7.330009	-3.204600	2.029580	0.122080	0.736021	0.654783	0.100219	-1.000000	-1.000000	-1.000000	-1.000000	-1.000000	-1.000000	-1.000000	78.551724	0.000000	-1.000000	-1.000000	1483916.000000	1770064464.284261
-5064.030000	-17733.735000	-3908.520000	9334.170000	-7753.590000	-3856.275000	6995.475000	-1128.285000	22.550719	26.875022	25.757475	21.889963	20.853448	19.220097	27.425007	16.823317	-3.204600	2.029580	0.122080	0.736021	0.654783	0.100219	-1.000000	-1.000000	-1.000000	-1.000000	-1.000000	-1.000000	-1.000000	78.551724	0.000000	-1.000000	-1.000000	1483917.000000	1770064464.291799
-5075.910000	-17744.310000	-3917.880000	9322.110000	-7774.605000	-3884.760000	6987.780000	-1178.865000	21.420608	22.555854	21.227151	17.898407	16.107010	15.226651	23.868338	22.384939	-3.204600	2.029580	0.122080	0.736021	0.654783	0.100219	-1.000000	-1.000000	-1.000000	-1.000000	-1.000000	-1.000000	-1.000000	78.551724	0.000000	-1.000000	-1.000000	1483918.000000	1770064464.291808
-5052.015000	-17722.620000	-3893.220000	9351.585000	-7739.280000	-3854.835000	6995.835000	-1175.130000	9.458288	7.936902	7.802529	6.507519	4.751220	4.623786	11.032028	16.630202	-3.204600	2.029580	0.122080	0.736021	0.654783	0.100219	-1.000000	-1.000000	-1.000000	-1.000000	-1.000000	-1.000000	-1.000000	78.551724	0.000000	-1.000000	-1.000000	1483919.000000	1770064464.292195
-5040.585000	-17701.965000	-3871.305000	9378.090000	-7710.345000	-3829.050000	6993.360000	-1116.360000	-3.416508	-5.604357	-3.799564	-2.614310	-3.754996	-4.229180	-1.726257	2.525027	-3.204600	2.029580	0.122080	0.736021	0.654783	0.100219	-1.000000	-1.000000	-1.000000	-1.000000	-1.000000	-1.000000	-1.000000	78.551724	0.000000	-1.000000	-1.000000	1483920.000000	1770064464.292205
-5044.185000	-17706.330000	-3877.290000	9370.845000	-7716.690000	-3832.290000	6999.570000	-1044.675000	-8.636697	-9.558205	-6.642307	-3.493053	-3.631034	-5.312788	-7.640266	-7.233907	-5.081580	2.350040	-0.564620	0.738035	0.656004	0.099060	-1.000000	-1.000000	-1.000000	-1.000000	-1.000000	-1.000000	-1.000000	78.551724	0.000000	-1.000000	-1.000000	1483921.000000	1770064464.296240
-5067.000000	-17711.505000	-3879.945000	9366.660000	-7721.775000	-3829.905000	7038.450000	-1058.400000	-7.600374	-6.094688	-3.697071	0.036376	0.842541	-1.257590	-6.457543	-4.917455	-5.081580	2.350040	-0.564620	0.738035	0.656004	0.099060	-1.000000	-1.000000	-1.000000	-1.000000	-1.000000	-1.000000	-1.000000	78.551724	0.000000	-1.000000	-1.000000	1483922.000000	1770064464.296249
-5056.380000	-17697.285000	-3862.665000	9383.625000	-7705.215000	-3812.535000	7016.805000	-1195.380000	-6.504273	-2.722807	-1.770751	0.948117	2.250088	1.763926	-2.225363	2.457146	-5.081580	2.350040	-0.564620	0.738035	0.656004	0.099060	-1.000000	-1.000000	-1.000000	-1.000000	-1.000000	-1.000000	-1.000000	78.551724	0.000000	-1.000000	-1.000000	1483923.000000	1770064464.301898
-5031.090000	-17703.945000	-3872.340000	9371.385000	-7717.770000	-3822.795000	7002.045000	-1212.930000	-7.481813	-3.527191	-3.943324	-3.244675	-1.971379	0.326135	-0.574947	0.161638	-5.081580	2.350040	-0.564620	0.738035	0.656004	0.099060	-1.000000	-1.000000	-1.000000	-1.000000	-1.000000	-1.000000	-1.000000	78.551724	0.000000	-1.000000	-1.000000	1483924.000000	1770064464.301908
-5026.545000	-17713.395000	-3880.395000	9363.105000	-7720.380000	-3819.870000	7040.295000	-1098.090000	-7.251729	-6.730419	-8.222897	-9.724238	-8.822195	-4.715680	-3.868886	-13.855742	-5.081580	2.350040	-0.564620	0.738035	0.656004	0.099060	-1.000000	-1.000000	-1.000000	-1.000000	-1.000000	-1.000000	-1.000000	78.551724	0.000000	-1.000000	-1.000000	1483925.000000	1770064464.307211
-5049.765000	-17736.390000	-3909.915000	9328.455000	-7753.815000	-3849.120000	7014.060000	-1107.045000	-2.676776	-7.888976	-10.249423	-13.391498	-12.797949	-8.953546	-7.876246	-23.206958	-5.081580	2.350040	-0.564620	0.738035	0.656004	0.099060	-1.000000	-1.000000	-1.000000	-1.000000	-1.000000	-1.000000	-1.000000	78.551724	0.000000	-1.000000	-1.000000	1483926.000000	1770064464.307222
-5083.785000	-17750.430000	-3938.085000	9299.745000	-7784.595000	-3880.755000	6992.865000	-1139.940000	3.868157	-5.191667	-8.195024	-11.843305	-11.226745	-9.049693	-8.306823	-15.427244	-5.081580	2.350040	-0.564620	0.738035	0.656004	0.099060	-1.000000	-1.000000	-1.000000	-1.000000	-1.000000	-1.000000	-1.000000	78.551724	0.000000	-1.000000	-1.000000	1483927.000000	1770064464.309673
-5099.580000	-17737.245000	-3931.020000	9309.195000	-7779.465000	-3887.730000	6970.815000	-1124.505000	6.609504	-0.576162	-4.082787	-6.937717	-6.419210	-6.364180	-5.906995	2.851181	-5.081580	2.350040	-0.564620	0.738035	0.656004	0.099060	-1.000000	-1.000000	-1.000000	-1.000000	-1.000000	-1.000000	-1.000000	78.551724	0.000000	-1.000000	-1.000000	1483928.000000	1770064464.309681
-5069.880000	-17726.130000	-3905.865000	9336.015000	-7751.520000	-3869.640000	6970.095000	-1116.765000	3.785142	3.810347	0.380174	-0.722112	-1.110213	-3.435905	-2.795699	16.829319	-5.081580	2.350040	-0.564620	0.738035	0.656004	0.099060	-1.000000	-1.000000	-1.000000	-1.000000	-1.000000	-1.000000	-1.000000	78.551724	0.000000	-1.000000	-1.000000	1483929.000000	1770064464.314101
-5024.970000	-17723.610000	-3888.090000	9356.175000	-7730.145000	-3848.535000	6999.210000	-1158.840000	0.207017	7.042471	5.554205	6.543762	4.714074	0.030815	0.506689	17.190032	-5.081580	2.350040	-0.564620	0.738035	0.656004	0.099060	-1.000000	-1.000000	-1.000000	-1.000000	-1.000000	-1.000000	-1.000000	78.551724	0.000000	-1.000000	-1.000000	1483930.000000	1770064464.314113
-5045.715000	-17728.200000	-3898.890000	9349.380000	-7734.915000	-3847.590000	7008.120000	-1177.425000	0.945036	8.171965	10.714142	13.535717	10.873898	5.036751	4.165818	5.764862	-4.013380	3.250380	-1.007160	0.739134	0.656004	0.099060	-1.000000	-1.000000	-1.000000	-1.000000	-1.000000	-1.000000	-1.000000	78.551724	0.000000	-1.000000	-1.000000	1483931.000000	1770064464.316430
-5038.470000	-17713.665000	-3887.595000	9356.445000	-7729.560000	-3842.820000	7005.150000	-1139.535000	4.377016	6.278118	12.606958	16.428218	14.305037	9.683046	7.639339	-5.203866	-4.013380	3.250380	-1.007160	0.739134	0.656004	0.099060	-1.000000	-1.000000	-1.000000	-1.000000	-1.000000	-1.000000	-1.000000	78.551724	0.000000	-1.000000	-1.000000	1483932.000000	1770064464.316439
-5041.125000	-17713.485000	-3883.365000	9355.275000	-7728.435000	-3838.905000	7008.120000	-1130.625000	5.029306	2.294600	9.426295	12.792177	12.239746	10.893206	9.339674	-5.577709	-4.013380	3.250380	-1.007160	0.739134	0.656004	0.099060	-1.000000	-1.000000	-1.000000	-1.000000	-1.000000	-1.000000	-1.000000	78.551724	0.000000	-1.000000	-1.000000	1483933.000000	1770064464.322445
-5051.205000	-17716.545000	-3884.130000	9353.790000	-7732.665000	-3844.485000	7001.010000	-1139.265000	1.237259	-0.904668	3.722332	5.077697	6.081724	8.337887	7.697567	1.051979	-4.013380	3.250380	-1.007160	0.739134	0.656004	0.099060	-1.000000	-1.000000	-1.000000	-1.000000	-1.000000	-1.000000	-1.000000	78.551724	0.000000	-1.000000	-1.000000	1483934.000000	1770064464.322455
-5032.755000	-17699.670000	-3874.815000	9357.930000	-7733.340000	-3847.815000	6992.325000	-1132.470000	-3.345097	-1.059639	-0.395483	-1.641322	0.013474	4.447745	3.153139	5.411889	-4.013380	3.250380	-1.007160	0.739134	0.656004	0.099060	-1.000000	-1.000000	-1.000000	-1.000000	-1.000000	-1.000000	-1.000000	78.551724	0.000000	-1.000000	-1.000000	1483935.000000	1770064464.324323
-5031.540000	-17699.985000	-3877.020000	9362.745000	-7724.340000	-3841.785000	6991.515000	-1127.970000	-4.086527	1.412802	-1.228687	-4.252182	-2.937552	1.627954	-1.480147	5.082656	-4.013380	3.250380	-1.007160	0.739134	0.656004	0.099060	-1.000000	-1.000000	-1.000000	-1.000000	-1.000000	-1.000000	-1.000000	78.551724	0.000000	-1.000000	-1.000000	1483936.000000	1770064464.324333
-5040.360000	-17713.305000	-3882.375000	9363.510000	-7718.940000	-3833.730000	6995.520000	-1140.435000	-0.611532	3.177098	-0.906678	-3.964979	-3.254211	0.124513	-3.378716	2.068235	-4.013380	3.250380	-1.007160	0.739134	0.656004	0.099060	-1.000000	-1.000000	-1.000000	-1.000000	-1.000000	-1.000000	-1.000000	78.551724	0.000000	-1.000000	-1.000000	1483937.000000	1770064464.328406
-5041.215000	-17711.280000	-3878.055000	9365.310000	-7718.580000	-3833.190000	6991.335000	-1158.795000	2.288768	0.830193	-2.917479	-4.399450	-3.890841	-1.763466	-2.481972	-2.950906	-4.013380	3.250380	-1.007160	0.739134	0.656004	0.099060	-1.000000	-1.000000	-1.000000	-1.000000	-1.000000	-1.000000	-1.000000	78.551724	0.000000	-1.000000	-1.000000	1483938.000000	1770064464.328416
-5037.345000	-17696.385000	-3865.320000	9375.570000	-7712.280000	-3828.780000	6967.395000	-1130.760000	0.395281	-4.762899	-7.471803	-7.004136	-6.493361	-5.266754	-2.006787	-7.762284	-4.013380	3.250380	-1.007160	0.739134	0.656004	0.099060	-1.000000	-1.000000	-1.000000	-1.000000	-1.000000	-1.000000	-1.000000	78.551724	0.000000	-1.000000	-1.000000	1483939.000000	1770064464.337075
-5031.180000	-17700.120000	-3872.835000	9364.230000	-7726.995000	-3837.105000	6989.895000	-1064.745000	-4.693755	-9.262166	-11.104992	-9.699272	-9.592082	-9.385746	-4.302542	-6.410493	-4.013380	3.250380	-1.007160	0.739134	0.656004	0.099060	-1.000000	-1.000000	-1.000000	-1.000000	-1.000000	-1.000000	-1.000000	78.551724	0.000000	-1.000000	-1.000000	1483940.000000	1770064464.337087
-5056.515000	-17725.905000	-3898.035000	9341.820000	-7743.375000	-3845.205000	7033.050000	-1129.725000	-8.462365	-10.171134	-11.314062	-10.252537	-10.944515	-11.918121	-6.360918	2.334529	-2.777320	3.891300	-1.754900	0.737608	0.653624	0.100158	-1.000000	-1.000000	-1.000000	-1.000000	-1.000000	-1.000000	-1.000000	78.551724	0.000000	-1.000000	-1.000000	1483941.000000	1770064464.337212
-5068.620000	-17721.585000	-3891.240000	9347.310000	-7736.760000	-3844.845000	7018.830000	-1173.465000	-8.798225	-8.053490	-8.369909	-8.061763	-9.240471	-11.076286	-3.816330	8.632628	-2.777320	3.891300	-1.754900	0.737608	0.653624	0.100158	-1.000000	-1.000000	-1.000000	-1.000000	-1.000000	-1.000000	-1.000000	78.551724	0.000000	-1.000000	-1.000000	1483942.000000	1770064464.337218
-5052.780000	-17705.430000	-3873.645000	9365.760000	-7716.870000	-3830.445000	7013.790000	-1141.650000	-5.590797	-3.432060	-2.690803	-2.667225	-3.475189	-5.844726	2.304418	4.027070	-2.777320	3.891300	-1.754900	0.737608	0.653624	0.100158	-1.000000	-1.000000	-1.000000	-1.000000	-1.000000	-1.000000	-1.000000	78.551724	0.000000	-1.000000	-1.000000	1483943.000000	1770064464.340264
-5063.625000	-17730.765000	-3900.240000	9342.405000	-7739.145000	-3851.100000	7018.380000	-1132.380000	0.549804	2.828082	4.842338	5.208057	5.484175	2.774817	7.458344	-6.229193	-2.777320	3.891300	-1.754900	0.737608	0.653624	0.100158	-1.000000	-1.000000	-1.000000	-1.000000	-1.000000	-1.000000	-1.000000	78.551724	0.000000	-1.000000	-1.000000	1483944.000000	1770064464.340274
-5082.930000	-17757.090000	-3929.715000	9313.155000	-7767.495000	-3879.405000	6987.015000	-1172.115000	6.952861	7.371917	10.444556	11.259095	12.582080	10.148144	8.433407	-12.212221	-2.777320	3.891300	-1.754900	0.737608	0.653624	0.100158	-1.000000	-1.000000	-1.000000	-1.000000	-1.000000	-1.000000	-1.000000	78.551724	0.000000	-1.000000	-1.000000	1483945.000000	1770064464.345846
-5067.405000	-17738.775000	-3912.345000	9326.745000	-7759.305000	-3868.785000	6988.320000	-1175.265000	10.184069	7.485394	10.408105	11.000164	12.420891	11.249052	4.373230	-11.121323	-2.777320	3.891300	-1.754900	0.737608	0.653624	0.100158	-1.000000	-1.000000	-1.000000	-1.000000	-1.000000	-1.000000	-1.000000	78.551724	0.000000	-1.000000	-1.000000	1483946.000000	1770064464.345854
-5016.465000	-17680.995000	-3857.670000	9377.145000	-7716.195000	-3831.570000	7010.010000	-1137.375000	9.831953	5.363671	6.389346	5.866061	6.079139	6.674821	-2.298882	-4.696897	-2.777320	3.891300	-1.754900	0.737608	0.653624	0.100158	-1.000000	-1.000000	-1.000000	-1.000000	-1.000000	-1.000000	-1.000000	78.551724	0.000000	-1.000000	-1.000000	1483947.000000	1770064464.349616
-4942.530000	-17604.495000	-3781.665000	9455.355000	-7637.445000	-3764.430000	7039.665000	-1064.070000	9.256633	6.124027	4.455467	2.657113	1.041488	2.667059	-6.362041	5.642121	-2.777320	3.891300	-1.754900	0.737608	0.653624	0.100158	-1.000000	-1.000000	-1.000000	-1.000000	-1.000000	-1.000000	-1.000000	78.551724	0.000000	-1.000000	-1.000000	1483948.000000	1770064464.349626
-4995.630000	-17658.180000	-3829.590000	9409.500000	-7678.890000	-3796.245000	7024.905000	-1064.475000	10.256543	10.680232	7.421089	5.294098	2.621321	3.672076	-5.206101	16.731781	-2.777320	3.891300	-1.754900	0.737608	0.653624	0.100158	-1.000000	-1.000000	-1.000000	-1.000000	-1.000000	-1.000000	-1.000000	78.551724	0.000000	-1.000000	-1.000000	1483949.000000	1770064464.355501
-5105.070000	-17782.560000	-3956.355000	9281.925000	-7800.030000	-3898.890000	6958.755000	-1122.570000	7.602285	11.282739	8.637308	7.556153	5.540849	5.347189	-2.937369	22.146092	-2.777320	3.891300	-1.754900	0.737608	0.653624	0.100158	-1.000000	-1.000000	-1.000000	-1.000000	-1.000000	-1.000000	-1.000000	78.551724	0.000000	-1.000000	-1.000000	1483950.000000	1770064464.355512
-5062.005000	-17734.950000	-3914.865000	9319.320000	-7765.020000	-3868.605000	6966.495000	-1137.015000	-3.885498	0.336397	-0.306129	0.305070	0.297046	0.118008	-4.596182	16.604940	-2.319520	4.623780	-0.488320	0.735289	0.651488	0.099792	-1.000000	-1.000000	-1.000000	-1.000000	-1.000000	-1.000000	-1.000000	78.551724	0.000000	-1.000000	-1.000000	1483951.000000	1770064464.359479
-5006.790000	-17671.005000	-3848.040000	9388.575000	-7694.505000	-3804.390000	6972.435000	-1129.995000	-17.707176	-15.696274	-14.590676	-12.793289	-10.750742	-9.416356	-7.977079	1.397017	-2.319520	4.623780	-0.488320	0.735289	0.651488	0.099792	-1.000000	-1.000000	-1.000000	-1.000000	-1.000000	-1.000000	-1.000000	78.551724	0.000000	-1.000000	-1.000000	1483952.000000	1770064464.359490
-5053.995000	-17719.335000	-3894.030000	9340.740000	-7747.380000	-3858.840000	6952.815000	-1119.105000	-21.972897	-22.321324	-20.386444	-18.535608	-15.664627	-13.073096	-7.161323	-15.154344	-2.319520	4.623780	-0.488320	0.735289	0.651488	0.099792	-1.000000	-1.000000	-1.000000	-1.000000	-1.000000	-1.000000	-1.000000	78.551724	0.000000	-1.000000	-1.000000	1483953.000000	1770064464.360268
-5103.945000	-17761.770000	-3936.465000	9295.920000	-7796.655000	-3912.435000	6946.110000	-1217.115000	-14.982867	-15.689291	-13.601452	-12.747120	-10.786722	-8.657471	-0.734035	-24.367552	-2.319520	4.623780	-0.488320	0.735289	0.651488	0.099792	-1.000000	-1.000000	-1.000000	-1.000000	-1.000000	-1.000000	-1.000000	78.551724	0.000000	-1.000000	-1.000000	1483954.000000	1770064464.360279
-5095.485000	-17750.160000	-3925.485000	9311.985000	-7775.820000	-3888.315000	6977.205000	-1221.660000	-5.116917	-4.381296	-2.690097	-3.123796	-3.109128	-2.960506	7.953711	-24.461008	-2.319520	4.623780	-0.488320	0.735289	0.651488	0.099792	-1.000000	-1.000000	-1.000000	-1.000000	-1.000000	-1.000000	-1.000000	78.551724	0.000000	-1.000000	-1.000000	1483955.000000	1770064464.366713
-5054.310000	-17720.280000	-3895.740000	9344.070000	-7743.330000	-3843.540000	7020.900000	-1150.830000	0.943952	2.986576	3.773645	2.853994	1.498898	-0.171426	14.978418	-17.759533	-2.319520	4.623780	-0.488320	0.735289	0.651488	0.099792	-1.000000	-1.000000	-1.000000	-1.000000	-1.000000	-1.000000	-1.000000	78.551724	0.000000	-1.000000	-1.000000	1483956.000000	1770064464.366721
-5111.055000	-17787.735000	-3963.825000	9270.855000	-7819.290000	-3923.550000	6944.850000	-1176.660000	2.499697	3.657145	3.352953	3.024939	1.763614	0.058507	16.589668	-6.369750	-2.319520	4.623780	-0.488320	0.735289	0.651488	0.099792	-1.000000	-1.000000	-1.000000	-1.000000	-1.000000	-1.000000	-1.000000	78.551724	0.000000	-1.000000	-1.000000	1483957.000000	1770064464.373840
-5110.920000	-17772.435000	-3946.320000	9290.205000	-7793.190000	-3902.670000	6965.820000	-1162.890000	2.493605	0.827498	-0.368957	0.092217	-0.259954	-0.841652	10.109658	6.489496	-2.319520	4.623780	-0.488320	0.735289	0.651488	0.099792	-1.000000	-1.000000	-1.000000	-1.000000	-1.000000	-1.000000	-1.000000	78.551724	0.000000	-1.000000	-1.000000	1483958.000000	1770064464.373852
-5092.380000	-17779.185000	-3955.815000	9283.185000	-7802.145000	-3907.755000	6970.680000	-1166.220000	6.002357	1.977395	0.367656	1.078956	1.402025	1.040242	-0.675526	18.028772	-2.319520	4.623780	-0.488320	0.735289	0.651488	0.099792	-1.000000	-1.000000	-1.000000	-1.000000	-1.000000	-1.000000	-1.000000	78.551724	0.000000	-1.000000	-1.000000	1483959.000000	1770064464.373979
-5101.920000	-17791.785000	-3969.270000	9275.850000	-7803.000000	-3907.350000	6963.345000	-1178.820000	13.634971	8.897550	7.493925	8.119526	8.551639	7.227029	-8.032161	25.704205	-2.319520	4.623780	-0.488320	0.735289	0.651488	0.099792	-1.000000	-1.000000	-1.000000	-1.000000	-1.000000	-1.000000	-1.000000	78.551724	0.000000	-1.000000	-1.000000	1483960.000000	1770064464.373985
-5100.165000	-17771.850000	-3944.970000	9303.705000	-7770.015000	-3875.130000	6978.150000	-1160.595000	18.120677	14.125271	13.437866	14.083039	14.475743	12.642082	-9.044494	25.379400	-3.708180	7.736820	-1.175020	0.737059	0.655760	0.097290	-1.000000	-1.000000	-1.000000	-1.000000	-1.000000	-1.000000	-1.000000	78.551724	0.000000	-1.000000	-1.000000	1483961.000000	1770064464.376306
-5090.580000	-17761.545000	-3936.555000	9308.295000	-7769.115000	-3873.780000	6976.620000	-1154.835000	14.833063	13.373990	13.564626	14.237819	14.851924	13.955700	-5.384572	16.561387	-3.708180	7.736820	-1.175020	0.737059	0.655760	0.097290	-1.000000	-1.000000	-1.000000	-1.000000	-1.000000	-1.000000	-1.000000	78.551724	0.000000	-1.000000	-1.000000	1483962.000000	1770064464.376317
-5094.855000	-17768.880000	-3945.420000	9297.405000	-7781.895000	-3891.960000	6954.210000	-1190.070000	7.363439	9.697071	10.440822	10.677056	11.505381	12.349024	-0.417031	4.789988	-3.708180	7.736820	-1.175020	0.737059	0.655760	0.097290	-1.000000	-1.000000	-1.000000	-1.000000	-1.000000	-1.000000	-1.000000	78.551724	0.000000	-1.000000	-1.000000	1483963.000000	1770064464.383135
-5077.935000	-17751.555000	-3929.715000	9308.385000	-7775.190000	-3890.430000	6940.620000	-1173.285000	-0.331274	4.888454	5.548316	4.654318	5.077316	6.982831	0.901724	-5.346988	-3.708180	7.736820	-1.175020	0.737059	0.655760	0.097290	-1.000000	-1.000000	-1.000000	-1.000000	-1.000000	-1.000000	-1.000000	78.551724	0.000000	-1.000000	-1.000000	1483964.000000	1770064464.383143
-5090.985000	-17748.630000	-3925.215000	9313.560000	-7769.565000	-3884.715000	6950.700000	-1142.505000	-7.891630	-1.925094	-1.783607	-4.089173	-4.793254	-3.461702	-3.501183	-13.495734	-3.708180	7.736820	-1.175020	0.737059	0.655760	0.097290	-1.000000	-1.000000	-1.000000	-1.000000	-1.000000	-1.000000	-1.000000	78.551724	0.000000	-1.000000	-1.000000	1483965.000000	1770064464.384290
-5050.575000	-17730.315000	-3909.060000	9330.975000	-7748.145000	-3871.395000	6963.705000	-1151.910000	-13.412499	-8.463425	-8.810924	-11.828500	-13.684688	-14.095910	-8.371445	-18.785001	-3.708180	7.736820	-1.175020	0.737059	0.655760	0.097290	-1.000000	-1.000000	-1.000000	-1.000000	-1.000000	-1.000000	-1.000000	78.551724	0.000000	-1.000000	-1.000000	1483966.000000	1770064464.384301
-5013.630000	-17692.650000	-3875.985000	9360.135000	-7725.825000	-3852.000000	6980.220000	-1131.255000	-11.784987	-9.425941	-10.048149	-12.403704	-14.726627	-16.824821	-6.684749	-18.288482	-3.708180	7.736820	-1.175020	0.737059	0.655760	0.097290	-1.000000	-1.000000	-1.000000	-1.000000	-1.000000	-1.000000	-1.000000	78.551724	0.000000	-1.000000	-1.000000	1483967.000000	1770064464.388337
-5012.640000	-17688.870000	-3868.560000	9369.180000	-7716.195000	-3823.695000	7002.810000	-1164.240000	-2.416998	-3.509475	-4.157076	-4.881971	-6.958291	-9.468345	2.081951	-11.340536	-3.708180	7.736820	-1.175020	0.737059	0.655760	0.097290	-1.000000	-1.000000	-1.000000	-1.000000	-1.000000	-1.000000	-1.000000	78.551724	0.000000	-1.000000	-1.000000	1483968.000000	1770064464.388346
-4977.855000	-17647.650000	-3818.655000	9423.405000	-7657.830000	-3758.445000	7040.160000	-1190.565000	7.478724	3.985031	3.842589	4.779541	3.443463	2.767442	12.624109	-2.367005	-3.708180	7.736820	-1.175020	0.737059	0.655760	0.097290	-1.000000	-1.000000	-1.000000	-1.000000	-1.000000	-1.000000	-1.000000	78.551724	0.000000	-1.000000	-1.000000	1483969.000000	1770064464.395437
-4988.745000	-17668.530000	-3839.760000	9405.360000	-7675.155000	-3776.400000	7003.485000	-1093.410000	10.847471	6.755048	7.705447	9.771958	9.604008	12.477755	18.405500	4.041207	-3.708180	7.736820	-1.175020	0.737059	0.655760	0.097290	-1.000000	-1.000000	-1.000000	-1.000000	-1.000000	-1.000000	-1.000000	78.551724	0.000000	-1.000000	-1.000000	1483970.000000	1770064464.395444
-5129.955000	-17826.480000	-4006.620000	9234.045000	-7842.015000	-3909.870000	6913.620000	-1086.480000	4.551625	0.515335	2.355876	4.908211	6.261669	12.475980	13.697563	9.345799	-5.157880	7.263760	-5.585160	0.733580	0.654783	0.098877	-1.000000	-1.000000	-1.000000	-1.000000	-1.000000	-1.000000	-1.000000	78.551724	0.000000	-1.000000	-1.000000	1483971.000000	1770064464.396289
-5107.995000	-17786.025000	-3968.595000	9266.490000	-7814.115000	-3871.980000	6964.110000	-1135.530000	-11.095009	-15.077307	-13.558514	-11.269445	-8.416632	-0.330490	-1.565611	14.912789	-5.157880	7.263760	-5.585160	0.733580	0.654783	0.098877	-1.000000	-1.000000	-1.000000	-1.000000	-1.000000	-1.000000	-1.000000	78.551724	0.000000	-1.000000	-1.000000	1483972.000000	1770064464.396299
-5041.710000	-17709.345000	-3887.100000	9351.450000	-7734.105000	-3850.245000	7049.295000	-1116.720000	-26.881968	-29.669208	-29.612699	-28.345203	-24.852859	-17.857901	-16.611467	15.178230	-5.157880	7.263760	-5.585160	0.733580	0.654783	0.098877	-1.000000	-1.000000	-1.000000	-1.000000	-1.000000	-1.000000	-1.000000	78.551724	0.000000	-1.000000	-1.000000	1483973.000000	1770064464.404678
-5087.790000	-17756.685000	-3932.100000	9309.060000	-7767.135000	-3891.780000	6949.170000	-1182.555000	-29.065308	-28.687651	-30.022571	-29.985109	-27.286133	-26.537604	-19.791465	5.100221	-5.157880	7.263760	-5.585160	0.733580	0.654783	0.098877	-1.000000	-1.000000	-1.000000	-1.000000	-1.000000	-1.000000	-1.000000	78.551724	0.000000	-1.000000	-1.000000	1483974.000000	1770064464.404690
-5083.155000	-17760.645000	-3941.505000	9290.385000	-7783.650000	-3860.505000	6867.045000	-1179.945000	-15.117563	-10.965205	-12.645378	-13.456120	-12.464097	-20.768871	-13.962703	-11.728723	-5.157880	7.263760	-5.585160	0.733580	0.654783	0.098877	-1.000000	-1.000000	-1.000000	-1.000000	-1.000000	-1.000000	-1.000000	78.551724	0.000000	-1.000000	-1.000000	1483975.000000	1770064464.404703
-5092.920000	-17765.460000	-3948.300000	9282.285000	-7788.960000	-3844.440000	6824.610000	-1162.755000	4.765087	11.070888	9.976705	8.658552	8.130151	-4.554459	-10.469081	-24.658240	-5.157880	7.263760	-5.585160	0.733580	0.654783	0.098877	-1.000000	-1.000000	-1.000000	-1.000000	-1.000000	-1.000000	-1.000000	78.551724	0.000000	-1.000000	-1.000000	1483976.000000	1770064464.404708
-5107.320000	-17763.075000	-3941.865000	9294.345000	-7782.930000	-3884.220000	6924.285000	-1196.550000	19.155384	25.060052	24.782387	23.172541	21.821144	12.595823	-11.150069	-24.121355	-5.157880	7.263760	-5.585160	0.733580	0.654783	0.098877	-1.000000	-1.000000	-1.000000	-1.000000	-1.000000	-1.000000	-1.000000	78.551724	0.000000	-1.000000	-1.000000	1483977.000000	1770064464.408310
-5128.560000	-17798.715000	-3975.390000	9260.955000	-7823.430000	-3965.805000	6962.805000	-1186.605000	22.281269	25.719374	25.948686	24.465627	22.506393	18.994293	-6.634310	-10.555365	-5.157880	7.263760	-5.585160	0.733580	0.654783	0.098877	-1.000000	-1.000000	-1.000000	-1.000000	-1.000000	-1.000000	-1.000000	78.551724	0.000000	-1.000000	-1.000000	1483978.000000	1770064464.408320
-5090.355000	-17789.580000	-3970.350000	9262.485000	-7818.930000	-3945.915000	6841.710000	-1211.715000	16.881849	16.334024	16.665846	15.779106	13.002513	11.357683	7.700569	5.694049	-5.157880	7.263760	-5.585160	0.733580	0.654783	0.098877	-1.000000	-1.000000	-1.000000	-1.000000	-1.000000	-1.000000	-1.000000	78.551724	0.000000	-1.000000	-1.000000	1483979.000000	1770064464.413094
-5019.660000	-17700.480000	-3880.845000	9352.620000	-7730.730000	-3860.595000	6907.230000	-1248.840000	13.253746	8.248135	8.577825	8.564970	5.354739	2.231611	23.930643	14.470502	-5.157880	7.263760	-5.585160	0.733580	0.654783	0.098877	-1.000000	-1.000000	-1.000000	-1.000000	-1.000000	-1.000000	-1.000000	78.551724	0.000000	-1.000000	-1.000000	1483980.000000	1770064464.413103
-4996.755000	-17682.930000	-3862.080000	9374.805000	-7706.430000	-3819.015000	7123.770000	-1054.665000	17.125364	9.404331	9.935706	10.954479	8.594368	5.318400	34.290683	16.399824	1.953280	11.582340	2.197440	0.737547	0.657347	0.095825	-1.000000	-1.000000	-1.000000	-1.000000	-1.000000	-1.000000	-1.000000	78.551724	0.000000	-1.000000	-1.000000	1483981.000000	1770064464.418447
-5124.240000	-17829.855000	-4006.395000	9236.565000	-7830.720000	-3925.035000	6991.020000	-1156.275000	19.180325	11.585796	12.408304	14.427170	14.432564	16.383392	36.757499	18.939532	1.953280	11.582340	2.197440	0.737547	0.657347	0.095825	-1.000000	-1.000000	-1.000000	-1.000000	-1.000000	-1.000000	-1.000000	78.551724	0.000000	-1.000000	-1.000000	1483982.000000	1770064464.418457
-5126.940000	-17838.405000	-4018.320000	9224.955000	-7839.360000	-3934.260000	6957.495000	-1206.765000	6.789280	1.295658	2.114991	4.694607	7.749398	19.430783	27.238673	20.730730	1.953280	11.582340	2.197440	0.737547	0.657347	0.095825	-1.000000	-1.000000	-1.000000	-1.000000	-1.000000	-1.000000	-1.000000	78.551724	0.000000	-1.000000	-1.000000	1483983.000000	1770064464.420238
-5115.915000	-17825.355000	-4009.725000	9232.245000	-7835.580000	-3943.305000	6943.995000	-1166.445000	-17.035042	-19.166348	-18.798961	-16.416202	-11.394881	7.013943	5.179659	13.893009	1.953280	11.582340	2.197440	0.737547	0.657347	0.095825	-1.000000	-1.000000	-1.000000	-1.000000	-1.000000	-1.000000	-1.000000	78.551724	0.000000	-1.000000	-1.000000	1483984.000000	1770064464.420249
-5091.705000	-17772.975000	-3952.800000	9282.870000	-7792.920000	-3909.330000	6945.390000	-1122.660000	-35.713924	-33.316716	-33.615671	-32.345810	-27.948150	-12.939989	-20.093506	0.049566	1.953280	11.582340	2.197440	0.737547	0.657347	0.095825	-1.000000	-1.000000	-1.000000	-1.000000	-1.000000	-1.000000	-1.000000	78.551724	0.000000	-1.000000	-1.000000	1483985.000000	1770064464.424580
-5115.105000	-17770.680000	-3949.920000	9275.580000	-7805.790000	-3919.905000	6936.660000	-1195.605000	-36.481943	-28.914130	-29.743316	-30.672596	-29.395717	-25.930780	-38.993615	-11.792784	1.953280	11.582340	2.197440	0.737547	0.657347	0.095825	-1.000000	-1.000000	-1.000000	-1.000000	-1.000000	-1.000000	-1.000000	78.551724	0.000000	-1.000000	-1.000000	1483986.000000	1770064464.424589
-5096.700000	-17759.565000	-3944.655000	9277.650000	-7804.530000	-3908.610000	6950.070000	-1239.030000	-20.145480	-8.135619	-9.246726	-13.040184	-15.601158	-22.875830	-45.908550	-18.751568	1.953280	11.582340	2.197440	0.737547	0.657347	0.095825	-1.000000	-1.000000	-1.000000	-1.000000	-1.000000	-1.000000	-1.000000	78.551724	0.000000	-1.000000	-1.000000	1483987.000000	1770064464.429704
-5061.510000	-17721.945000	-3907.980000	9319.140000	-7758.810000	-3865.500000	6971.895000	-1196.280000	3.223873	16.781526	15.623427	9.956726	5.074442	-6.112028	-35.488717	-21.989622	1.953280	11.582340	2.197440	0.737547	0.657347	0.095825	-1.000000	-1.000000	-1.000000	-1.000000	-1.000000	-1.000000	-1.000000	78.551724	0.000000	-1.000000	-1.000000	1483988.000000	1770064464.429714
-5065.020000	-17722.530000	-3903.615000	9328.905000	-7745.535000	-3861.000000	6999.795000	-1154.520000	21.665603	31.865253	31.080308	26.317382	21.888288	12.465593	-10.527732	-18.699452	1.953280	11.582340	2.197440	0.737547	0.657347	0.095825	-1.000000	-1.000000	-1.000000	-1.000000	-1.000000	-1.000000	-1.000000	78.551724	0.000000	-1.000000	-1.000000	1483989.000000	1770064464.433683
-5111.955000	-17756.145000	-3936.465000	9292.635000	-7784.730000	-3908.880000	6958.710000	-1180.530000	26.310925	28.683074	28.786272	27.576047	25.859120	19.756839	12.278214	-8.971434	1.953280	11.582340	2.197440	0.737547	0.657347	0.095825	-1.000000	-1.000000	-1.000000	-1.000000	-1.000000	-1.000000	-1.000000	78.551724	0.000000	-1.000000	-1.000000	1483990.000000	1770064464.433693
-5072.445000	-17747.415000	-3933.540000	9294.660000	-7781.670000	-3903.210000	6943.095000	-1192.725000	18.266255	11.787306	12.796459	15.517222	16.689807	12.960550	20.194981	1.757496	-5.096840	3.326680	-1.388660	0.735960	0.656065	0.101074	-1.000000	-1.000000	-1.000000	-1.000000	-1.000000	-1.000000	-1.000000	78.551724	0.000000	-1.000000	-1.000000	1483991.000000	1770064464.437947
-5054.490000	-17730.180000	-3911.715000	9320.760000	-7753.500000	-3870.945000	6952.860000	-1186.740000	7.626551	-5.212391	-3.864820	0.978039	3.384172	1.038979	18.064886	10.803708	-5.096840	3.326680	-1.388660	0.735960	0.656065	0.101074	-1.000000	-1.000000	-1.000000	-1.000000	-1.000000	-1.000000	-1.000000	78.551724	0.000000	-1.000000	-1.000000	1483992.000000	1770064464.437957
-5095.350000	-17746.965000	-3922.290000	9309.375000	-7771.050000	-3880.935000	6949.755000	-1177.920000	0.526816	-14.228671	-12.924593	-8.145151	-6.188479	-6.884927	15.594725	16.447231	-5.096840	3.326680	-1.388660	0.735960	0.656065	0.101074	-1.000000	-1.000000	-1.000000	-1.000000	-1.000000	-1.000000	-1.000000	78.551724	0.000000	-1.000000	-1.000000	1483993.000000	1770064464.440204
-5092.785000	-17742.555000	-3923.640000	9305.460000	-7776.405000	-3889.395000	6936.930000	-1135.260000	-5.046759	-16.940812	-15.756040	-12.433235	-11.502121	-9.295907	14.062467	16.413787	-5.096840	3.326680	-1.388660	0.735960	0.656065	0.101074	-1.000000	-1.000000	-1.000000	-1.000000	-1.000000	-1.000000	-1.000000	78.551724	0.000000	-1.000000	-1.000000	1483994.000000	1770064464.440211
-5064.345000	-17741.565000	-3930.615000	9303.345000	-7774.290000	-3888.720000	6921.675000	-1126.755000	-10.081782	-16.577763	-16.035452	-14.592673	-14.219924	-8.484432	9.276194	13.087197	-5.096840	3.326680	-1.388660	0.735960	0.656065	0.101074	-1.000000	-1.000000	-1.000000	-1.000000	-1.000000	-1.000000	-1.000000	78.551724	0.000000	-1.000000	-1.000000	1483995.000000	1770064464.444259
-5076.135000	-17755.065000	-3936.600000	9296.280000	-7776.945000	-3882.015000	6942.105000	-1174.860000	-11.869033	-13.479134	-14.222993	-14.284604	-13.589952	-5.808726	0.752656	9.549029	-5.096840	3.326680	-1.388660	0.735960	0.656065	0.101074	-1.000000	-1.000000	-1.000000	-1.000000	-1.000000	-1.000000	-1.000000	78.551724	0.000000	-1.000000	-1.000000	1483996.000000	1770064464.444266
-5082.885000	-17756.280000	-3939.390000	9298.890000	-7771.680000	-3871.080000	6981.480000	-1219.770000	-10.333007	-8.419941	-10.123046	-11.113464	-9.696880	-2.791441	-6.657805	2.737178	-5.096840	3.326680	-1.388660	0.735960	0.656065	0.101074	-1.000000	-1.000000	-1.000000	-1.000000	-1.000000	-1.000000	-1.000000	78.551724	0.000000	-1.000000	-1.000000	1483997.000000	1770064464.450860
-5055.615000	-17734.815000	-3929.310000	9309.150000	-7760.340000	-3859.605000	6990.390000	-1185.570000	-7.512861	-2.964343	-4.775481	-6.384460	-4.730412	-0.940266	-9.767198	-10.700260	-5.096840	3.326680	-1.388660	0.735960	0.656065	0.101074	-1.000000	-1.000000	-1.000000	-1.000000	-1.000000	-1.000000	-1.000000	78.551724	0.000000	-1.000000	-1.000000	1483998.000000	1770064464.450872
-5060.745000	-17732.070000	-3924.045000	9309.195000	-7760.880000	-3856.995000	6984.630000	-1170.090000	-2.477000	3.975615	2.361911	0.239652	1.151421	1.292906	-8.717517	-24.143722	-5.096840	3.326680	-1.388660	0.735960	0.656065	0.101074	-1.000000	-1.000000	-1.000000	-1.000000	-1.000000	-1.000000	-1.000000	78.551724	0.000000	-1.000000	-1.000000	1483999.000000	1770064464.453959
-5060.565000	-17728.695000	-3916.575000	9319.005000	-7749.315000	-3850.200000	6974.370000	-1172.745000	4.986528	13.023683	11.811528	9.292037	8.643972	5.676404	-3.810919	-25.535033	-5.096840	3.326680	-1.388660	0.735960	0.656065	0.101074	-1.000000	-1.000000	-1.000000	-1.000000	-1.000000	-1.000000	-1.000000	78.551724	0.000000	-1.000000	-1.000000	1484000.000000	1770064464.453970
-5036.130000	-17698.770000	-3886.335000	9350.595000	-7720.515000	-3823.515000	6975.630000	-1176.750000	10.842182	20.085708	19.917231	17.405041	15.123351	9.769853	2.682594	-12.566778	-5.066320	6.699140	-4.455920	0.744383	0.656798	0.105652	-1.000000	-1.000000	-1.000000	-1.000000	-1.000000	-1.000000	-1.000000	78.551724	0.000000	-1.000000	-1.000000	1484001.000000	1770064464.456293
-5050.890000	-17701.830000	-3885.795000	9351.450000	-7722.540000	-3808.305000	6988.500000	-1173.240000	12.069166	20.415233	21.666344	19.924091	16.862721	10.347676	6.669169	4.745457	-5.066320	6.699140	-4.455920	0.744383	0.656798	0.105652	-1.000000	-1.000000	-1.000000	-1.000000	-1.000000	-1.000000	-1.000000	78.551724	0.000000	-1.000000	-1.000000	1484002.000000	1770064464.456303
-5072.040000	-17730.090000	-3912.885000	9315.180000	-7767.045000	-3841.020000	6947.100000	-1146.555000	8.494675	12.634870	15.003223	14.623007	11.976557	6.898034	5.803919	15.867735	-5.066320	6.699140	-4.455920	0.744383	0.656798	0.105652	-1.000000	-1.000000	-1.000000	-1.000000	-1.000000	-1.000000	-1.000000	78.551724	0.000000	-1.000000	-1.000000	1484003.000000	1770064464.460293
-4996.710000	-17658.855000	-3837.690000	9377.055000	-7714.395000	-3791.970000	6954.930000	-1146.510000	1.691191	-0.020435	2.889376	3.487514	1.771991	0.813243	0.462452	18.109334	-5.066320	6.699140	-4.455920	0.744383	0.656798	0.105652	-1.000000	-1.000000	-1.000000	-1.000000	-1.000000	-1.000000	-1.000000	78.551724	0.000000	-1.000000	-1.000000	1484004.000000	1770064464.460302
-4928.445000	-17615.565000	-3795.840000	9405.180000	-7693.785000	-3755.610000	6953.445000	-1055.295000	-2.950385	-9.504808	-6.802681	-6.653996	-7.937588	-4.611250	-6.485464	16.057500	-5.066320	6.699140	-4.455920	0.744383	0.656798	0.105652	-1.000000	-1.000000	-1.000000	-1.000000	-1.000000	-1.000000	-1.000000	78.551724	0.000000	-1.000000	-1.000000	1484005.000000	1770064464.464970
-4975.200000	-17704.035000	-3891.555000	9310.140000	-7780.320000	-3783.240000	6684.120000	-1063.440000	-1.578168	-11.510980	-10.066231	-11.623083	-12.983301	-6.993790	-15.471938	14.856804	-5.066320	6.699140	-4.455920	0.744383	0.656798	0.105652	-1.000000	-1.000000	-1.000000	-1.000000	-1.000000	-1.000000	-1.000000	78.551724	0.000000	-1.000000	-1.000000	1484006.000000	1770064464.464981
-5036.220000	-17767.395000	-3966.480000	9246.375000	-7821.405000	-3791.790000	6671.790000	-1115.190000	0.543803	-11.855328	-12.643298	-15.308844	-15.826675	-7.686498	-30.137545	11.895912	-5.066320	6.699140	-4.455920	0.744383	0.656798	0.105652	-1.000000	-1.000000	-1.000000	-1.000000	-1.000000	-1.000000	-1.000000	78.551724	0.000000	-1.000000	-1.000000	1484007.000000	1770064464.468309
-5003.955000	-17704.080000	-3902.355000	9301.455000	-7790.715000	-3851.910000	7008.120000	-1130.175000	-3.312896	-15.219200	-18.482092	-19.798603	-17.778709	-8.966830	-37.580274	0.867655	-5.066320	6.699140	-4.455920	0.744383	0.656798	0.105652	-1.000000	-1.000000	-1.000000	-1.000000	-1.000000	-1.000000	-1.000000	78.551724	0.000000	-1.000000	-1.000000	1484008.000000	1770064464.468320
-5083.335000	-17824.950000	-4046.670000	9175.905000	-7900.605000	-4022.505000	6984.990000	-1188.315000	-11.891427	-17.966906	-23.072771	-20.867070	-16.271159	-13.796002	-13.630770	-16.891124	-5.066320	6.699140	-4.455920	0.744383	0.656798	0.105652	-1.000000	-1.000000	-1.000000	-1.000000	-1.000000	-1.000000	-1.000000	78.551724	0.000000	-1.000000	-1.000000	1484009.000000	1770064464.472318
-5108.130000	-17836.605000	-4034.925000	9186.435000	-7880.670000	-3950.190000	6838.740000	-1185.615000	-20.017075	-17.422245	-22.997677	-17.062827	-11.512217	-22.918701	34.601385	-32.529477	-5.066320	6.699140	-4.455920	0.744383	0.656798	0.105652	-1.000000	-1.000000	-1.000000	-1.000000	-1.000000	-1.000000	-1.000000	78.551724	0.000000	-1.000000	-1.000000	1484010.000000	1770064464.472325
-5124.105000	-17770.050000	-3927.330000	9275.850000	-7827.615000	-3908.520000	6772.410000	-1197.495000	-22.602549	-12.349682	-15.527513	-7.957659	-3.341785	-26.246730	66.625426	-37.036684	-0.274680	1.541260	-0.686700	0.744444	0.647337	0.108337	-1.000000	-1.000000	-1.000000	-1.000000	-1.000000	-1.000000	-1.000000	78.551724	0.000000	-1.000000	-1.000000	1484011.000000	1770064464.477893
-5036.670000	-17673.435000	-3876.705000	9320.085000	-7779.195000	-3866.175000	6875.910000	-1163.790000	-14.773420	2.007909	4.325148	9.899493	11.470143	-11.181701	58.013759	-26.567856	-0.274680	1.541260	-0.686700	0.744444	0.647337	0.108337	-1.000000	-1.000000	-1.000000	-1.000000	-1.000000	-1.000000	-1.000000	78.551724	0.000000	-1.000000	-1.000000	1484012.000000	1770064464.477899
-4976.775000	-17633.205000	-3876.255000	9320.130000	-7760.115000	-3882.375000	6986.025000	-1143.855000	3.706293	24.799921	31.170446	32.072341	29.785130	18.245898	23.870884	-4.507340	-0.274680	1.541260	-0.686700	0.744444	0.647337	0.108337	-1.000000	-1.000000	-1.000000	-1.000000	-1.000000	-1.000000	-1.000000	78.551724	0.000000	-1.000000	-1.000000	1484013.000000	1770064464.480266
-4930.335000	-17592.615000	-3806.145000	9391.860000	-7705.845000	-3839.580000	6934.860000	-1132.560000	25.352696	44.224797	48.835399	45.406584	41.163502	43.305474	-6.492543	19.377166	-0.274680	1.541260	-0.686700	0.744444	0.647337	0.108337	-1.000000	-1.000000	-1.000000	-1.000000	-1.000000	-1.000000	-1.000000	78.551724	0.000000	-1.000000	-1.000000	1484014.000000	1770064464.480274
-4868.235000	-17535.330000	-3725.730000	9476.145000	-7616.610000	-3737.385000	7012.170000	-1091.295000	40.862184	49.736820	49.798934	44.607967	40.681469	51.179750	-16.486632	34.654707	-0.274680	1.541260	-0.686700	0.744444	0.647337	0.108337	-1.000000	-1.000000	-1.000000	-1.000000	-1.000000	-1.000000	-1.000000	78.551724	0.000000	-1.000000	-1.000000	1484015.000000	1770064464.484355
-4922.010000	-17624.790000	-3827.295000	9395.730000	-7676.325000	-3768.480000	7091.145000	-1068.570000	44.301271	38.838930	37.478753	33.388631	30.674587	43.192631	-8.342807	38.005438	-0.274680	1.541260	-0.686700	0.744444	0.647337	0.108337	-1.000000	-1.000000	-1.000000	-1.000000	-1.000000	-1.000000	-1.000000	78.551724	0.000000	-1.000000	-1.000000	1484016.000000	1770064464.484365
-5128.245000	-17840.745000	-4034.610000	9206.910000	-7843.545000	-3925.530000	6919.245000	-1129.635000	29.028446	9.468928	10.665513	9.895314	9.455726	23.553800	-2.637218	31.316963	-0.274680	1.541260	-0.686700	0.744444	0.647337	0.108337	-1.000000	-1.000000	-1.000000	-1.000000	-1.000000	-1.000000	-1.000000	78.551724	0.000000	-1.000000	-1.000000	1484017.000000	1770064464.492124
-5085.180000	-17779.770000	-3964.725000	9261.135000	-7815.510000	-3914.910000	6935.265000	-1125.495000	-6.136667	-33.832458	-29.220107	-26.340429	-23.611024	-4.733348	-18.262335	16.213165	-0.274680	1.541260	-0.686700	0.744444	0.647337	0.108337	-1.000000	-1.000000	-1.000000	-1.000000	-1.000000	-1.000000	-1.000000	78.551724	0.000000	-1.000000	-1.000000	1484018.000000	1770064464.492144
-5016.465000	-17678.070000	-3891.645000	9293.760000	-7798.725000	-3876.165000	6883.695000	-1085.265000	-42.279710	-67.224307	-62.013286	-58.552673	-54.566780	-32.904918	-44.211237	-2.988799	-0.274680	1.541260	-0.686700	0.744444	0.647337	0.108337	-1.000000	-1.000000	-1.000000	-1.000000	-1.000000	-1.000000	-1.000000	78.551724	0.000000	-1.000000	-1.000000	1484019.000000	1770064464.492397
-5004.495000	-17692.965000	-3923.145000	9290.070000	-7764.165000	-3829.815000	6738.120000	-1083.780000	-53.747610	-67.022495	-66.673434	-66.850591	-64.565081	-48.451090	-55.554873	-18.449965	-0.274680	1.541260	-0.686700	0.744444	0.647337	0.108337	-1.000000	-1.000000	-1.000000	-1.000000	-1.000000	-1.000000	-1.000000	78.551724	0.000000	-1.000000	-1.000000	1484020.000000	1770064464.492404
-5117.220000	-17857.665000	-4040.370000	9217.035000	-7822.305000	-3944.565000	6978.285000	-1187.145000	-38.216875	-39.152429	-46.056586	-49.757762	-49.029772	-46.165375	-43.782984	-26.861300	-1.190280	7.370580	4.532220	0.754698	0.643797	0.096863	-1.000000	-1.000000	-1.000000	-1.000000	-1.000000	-1.000000	-1.000000	78.551724	0.000000	-1.000000	-1.000000	1484021.000000	1770064464.497685
-5141.340000	-17841.690000	-4022.730000	9223.605000	-7827.120000	-3972.420000	7025.040000	-1209.870000	-16.483652	-9.940428	-18.596819	-20.858493	-19.738985	-32.845856	-12.169071	-31.745245	-1.190280	7.370580	4.532220	0.754698	0.643797	0.096863	-1.000000	-1.000000	-1.000000	-1.000000	-1.000000	-1.000000	-1.000000	78.551724	0.000000	-1.000000	-1.000000	1484022.000000	1770064464.497698
-4983.480000	-17624.970000	-3839.220000	9383.535000	-7684.155000	-3831.255000	6931.170000	-1088.055000	-2.516568	9.200817	5.937441	8.293348	9.598523	-16.296247	29.309710	-32.557221	-1.190280	7.370580	4.532220	0.754698	0.643797	0.096863	-1.000000	-1.000000	-1.000000	-1.000000	-1.000000	-1.000000	-1.000000	78.551724	0.000000	-1.000000	-1.000000	1484023.000000	1770064464.500561
-4974.345000	-17600.850000	-3833.370000	9381.465000	-7685.820000	-3821.220000	7021.755000	-1113.255000	9.483940	28.455905	30.478440	34.478262	33.364966	3.151866	60.055835	-22.022624	-1.190280	7.370580	4.532220	0.754698	0.643797	0.096863	-1.000000	-1.000000	-1.000000	-1.000000	-1.000000	-1.000000	-1.000000	78.551724	0.000000	-1.000000	-1.000000	1484024.000000	1770064464.500572
-5050.440000	-17706.015000	-3900.690000	9328.635000	-7730.055000	-3848.400000	7066.485000	-1206.585000	25.996184	51.696877	53.963474	54.044446	48.457953	24.892781	63.563796	-1.076709	-1.190280	7.370580	4.532220	0.754698	0.643797	0.096863	-1.000000	-1.000000	-1.000000	-1.000000	-1.000000	-1.000000	-1.000000	78.551724	0.000000	-1.000000	-1.000000	1484025.000000	1770064464.509384
-5034.375000	-17696.700000	-3880.755000	9351.495000	-7707.060000	-3826.620000	7033.185000	-1141.875000	41.824590	66.108556	66.490148	60.465825	51.463356	43.845010	42.535943	19.152805	-1.190280	7.370580	4.532220	0.754698	0.643797	0.096863	-1.000000	-1.000000	-1.000000	-1.000000	-1.000000	-1.000000	-1.000000	78.551724	0.000000	-1.000000	-1.000000	1484026.000000	1770064464.509396
-5098.365000	-17789.760000	-3980.835000	9248.040000	-7802.730000	-3905.100000	7008.120000	-1191.510000	46.153116	56.878767	57.197038	48.319462	40.198467	51.390124	11.968716	30.548573	-1.190280	7.370580	4.532220	0.754698	0.643797	0.096863	-1.000000	-1.000000	-1.000000	-1.000000	-1.000000	-1.000000	-1.000000	78.551724	0.000000	-1.000000	-1.000000	1484027.000000	1770064464.509407
-5154.975000	-17843.040000	-4040.595000	9183.105000	-7865.955000	-3969.585000	6934.320000	-1211.445000	29.455242	18.340369	20.247118	14.590346	12.397185	36.408183	-14.519564	29.463490	-1.190280	7.370580	4.532220	0.754698	0.643797	0.096863	-1.000000	-1.000000	-1.000000	-1.000000	-1.000000	-1.000000	-1.000000	78.551724	0.000000	-1.000000	-1.000000	1484028.000000	1770064464.509412
-5074.290000	-17762.805000	-3968.820000	9251.370000	-7803.315000	-3917.520000	6957.135000	-1184.130000	-4.526704	-34.716512	-31.746316	-30.606494	-25.364606	-0.103764	-30.382704	16.941833	-1.190280	7.370580	4.532220	0.754698	0.643797	0.096863	-1.000000	-1.000000	-1.000000	-1.000000	-1.000000	-1.000000	-1.000000	78.551724	0.000000	-1.000000	-1.000000	1484029.000000	1770064464.512261
-5050.485000	-17739.405000	-3951.765000	9268.920000	-7794.090000	-3916.845000	6960.195000	-1183.320000	-33.831049	-68.521084	-66.765397	-60.946854	-52.245476	-35.607862	-37.740925	2.791201	-1.190280	7.370580	4.532220	0.754698	0.643797	0.096863	-1.000000	-1.000000	-1.000000	-1.000000	-1.000000	-1.000000	-1.000000	78.551724	0.000000	-1.000000	-1.000000	1484030.000000	1770064464.512272
-5065.515000	-17738.640000	-3941.325000	9289.800000	-7778.295000	-3896.190000	6960.645000	-1189.170000	-40.172559	-62.695404	-64.270360	-58.379825	-51.938881	-47.175231	-39.963810	-4.309833	-9.003400	12.253780	-1.815940	0.753843	0.644957	0.098877	-1.000000	-1.000000	-1.000000	-1.000000	-1.000000	-1.000000	-1.000000	78.551724	0.000000	-1.000000	-1.000000	1484031.000000	1770064464.516648
-5111.145000	-17760.465000	-3943.215000	9295.875000	-7761.645000	-3862.935000	6986.610000	-1192.770000	-29.007507	-31.675202	-35.448648	-31.358300	-29.598604	-34.352469	-32.605553	-6.846175	-9.003400	12.253780	-1.815940	0.753843	0.644957	0.098877	-1.000000	-1.000000	-1.000000	-1.000000	-1.000000	-1.000000	-1.000000	78.551724	0.000000	-1.000000	-1.000000	1484032.000000	1770064464.516661
-5134.230000	-17781.075000	-3969.720000	9263.520000	-7786.350000	-3876.120000	6978.555000	-1164.330000	-16.109462	-1.838049	-3.732598	-0.506775	-1.818583	-11.681580	-13.764786	-9.189090	-9.003400	12.253780	-1.815940	0.753843	0.644957	0.098877	-1.000000	-1.000000	-1.000000	-1.000000	-1.000000	-1.000000	-1.000000	78.551724	0.000000	-1.000000	-1.000000	1484033.000000	1770064464.520292
-5098.410000	-17765.145000	-3959.190000	9270.405000	-7784.190000	-3885.615000	6956.280000	-1197.315000	-5.084126	17.561407	19.484165	21.969346	20.265719	9.262422	7.408217	-8.696337	-9.003400	12.253780	-1.815940	0.753843	0.644957	0.098877	-1.000000	-1.000000	-1.000000	-1.000000	-1.000000	-1.000000	-1.000000	78.551724	0.000000	-1.000000	-1.000000	1484034.000000	1770064464.520298
-5058.045000	-17739.180000	-3934.170000	9295.335000	-7759.620000	-3872.700000	6966.180000	-1180.620000	9.645943	30.845077	33.871299	34.064135	33.223412	23.303684	22.412173	-3.654211	-9.003400	12.253780	-1.815940	0.753843	0.644957	0.098877	-1.000000	-1.000000	-1.000000	-1.000000	-1.000000	-1.000000	-1.000000	78.551724	0.000000	-1.000000	-1.000000	1484035.000000	1770064464.536189
-5015.655000	-17716.320000	-3920.265000	9305.730000	-7754.310000	-3870.585000	6980.220000	-1127.160000	27.839395	39.457833	39.857143	37.139879	36.974088	28.465321	30.993174	2.992189	-9.003400	12.253780	-1.815940	0.753843	0.644957	0.098877	-1.000000	-1.000000	-1.000000	-1.000000	-1.000000	-1.000000	-1.000000	78.551724	0.000000	-1.000000	-1.000000	1484036.000000	1770064464.536199
-5013.090000	-17708.580000	-3912.165000	9316.485000	-7747.515000	-3859.740000	6987.285000	-1130.985000	40.853878	39.395672	36.397381	32.345351	32.072556	24.991457	35.566229	8.837925	-9.003400	12.253780	-1.815940	0.753843	0.644957	0.098877	-1.000000	-1.000000	-1.000000	-1.000000	-1.000000	-1.000000	-1.000000	78.551724	0.000000	-1.000000	-1.000000	1484037.000000	1770064464.536210
-5040.045000	-17728.110000	-3929.580000	9307.260000	-7750.620000	-3843.090000	6993.765000	-1150.650000	37.824006	26.539295	22.439911	19.236573	18.202285	14.550341	33.548838	11.042944	-9.003400	12.253780	-1.815940	0.753843	0.644957	0.098877	-1.000000	-1.000000	-1.000000	-1.000000	-1.000000	-1.000000	-1.000000	78.551724	0.000000	-1.000000	-1.000000	1484038.000000	1770064464.536214
-5063.895000	-17768.520000	-3969.405000	9271.215000	-7777.080000	-3860.640000	6976.530000	-1178.910000	14.772338	1.403471	-0.858457	-1.967201	-3.206173	0.184809	19.267962	6.164111	-9.003400	12.253780	-1.815940	0.753843	0.644957	0.098877	-1.000000	-1.000000	-1.000000	-1.000000	-1.000000	-1.000000	-1.000000	78.551724	0.000000	-1.000000	-1.000000	1484039.000000	1770064464.536220
-5054.220000	-17759.160000	-3958.020000	9277.290000	-7775.730000	-3871.845000	6970.995000	-1169.190000	-18.703085	-28.226676	-27.358574	-26.453209	-26.243245	-14.944564	-4.839774	-5.218313	-9.003400	12.253780	-1.815940	0.753843	0.644957	0.098877	-1.000000	-1.000000	-1.000000	-1.000000	-1.000000	-1.000000	-1.000000	78.551724	0.000000	-1.000000	-1.000000	1484040.000000	1770064464.536225
-5018.130000	-17696.295000	-3898.215000	9326.160000	-7738.695000	-3856.770000	6985.170000	-1134.090000	-43.702259	-48.007561	-44.935147	-43.406973	-41.340420	-27.547556	-27.568087	-16.665053	6.241340	-11.628120	-7.309540	0.696592	0.648497	0.113769	-1.000000	-1.000000	-1.000000	-1.000000	-1.000000	-1.000000	-1.000000	78.551724	0.000000	-1.000000	-1.000000	1484041.000000	1770064464.536372
-4952.745000	-17633.430000	-3830.445000	9393.840000	-7673.715000	-3805.740000	7000.875000	-1102.320000	-44.230467	-43.533564	-40.314677	-40.024297	-38.186928	-30.754115	-38.413903	-19.206712	6.241340	-11.628120	-7.309540	0.696592	0.648497	0.113769	-1.000000	-1.000000	-1.000000	-1.000000	-1.000000	-1.000000	-1.000000	78.551724	0.000000	-1.000000	-1.000000	1484042.000000	1770064464.536378
-4896.900000	-17588.790000	-3771.720000	9456.885000	-7608.015000	-3749.220000	7005.645000	-1101.870000	-19.391468	-13.718122	-11.747801	-13.361152	-14.053069	-18.068483	-32.482835	-9.341559	6.241340	-11.628120	-7.309540	0.696592	0.648497	0.113769	-1.000000	-1.000000	-1.000000	-1.000000	-1.000000	-1.000000	-1.000000	78.551724	0.000000	-1.000000	-1.000000	1484043.000000	1770064464.543482
-4955.265000	-17670.195000	-3846.105000	9373.005000	-7688.295000	-3822.165000	7011.270000	-1093.545000	13.380059	22.506194	23.562465	21.233496	18.209731	5.555868	-13.013803	6.080790	6.241340	-11.628120	-7.309540	0.696592	0.648497	0.113769	-1.000000	-1.000000	-1.000000	-1.000000	-1.000000	-1.000000	-1.000000	78.551724	0.000000	-1.000000	-1.000000	1484044.000000	1770064464.543494
-5023.395000	-17733.780000	-3927.600000	9265.050000	-7799.580000	-3919.545000	6980.760000	-1081.845000	30.175413	39.058866	40.276124	38.715159	35.756242	22.819363	9.234149	15.908914	6.241340	-11.628120	-7.309540	0.696592	0.648497	0.113769	-1.000000	-1.000000	-1.000000	-1.000000	-1.000000	-1.000000	-1.000000	78.551724	0.000000	-1.000000	-1.000000	1484045.000000	1770064464.544364
-5120.415000	-17813.385000	-4050.540000	9212.760000	-7839.180000	-3944.250000	6927.075000	-1230.075000	18.973577	24.189416	24.878912	24.973120	24.423019	19.413260	21.779943	12.921458	6.241340	-11.628120	-7.309540	0.696592	0.648497	0.113769	-1.000000	-1.000000	-1.000000	-1.000000	-1.000000	-1.000000	-1.000000	78.551724	0.000000	-1.000000	-1.000000	1484046.000000	1770064464.544371
-5108.805000	-17788.680000	-4022.730000	9211.680000	-7838.280000	-3940.695000	6954.615000	-1213.785000	-10.774560	-9.782481	-12.387395	-9.527173	-6.939602	-0.862260	18.209904	-2.297775	6.241340	-11.628120	-7.309540	0.696592	0.648497	0.113769	-1.000000	-1.000000	-1.000000	-1.000000	-1.000000	-1.000000	-1.000000	78.551724	0.000000	-1.000000	-1.000000	1484047.000000	1770064464.548220
-5091.345000	-17796.420000	-3984.120000	9232.515000	-7815.195000	-3922.830000	6950.475000	-1188.495000	-35.113278	-36.816615	-43.332734	-38.126047	-33.536724	-19.879782	4.488573	-18.702715	6.241340	-11.628120	-7.309540	0.696592	0.648497	0.113769	-1.000000	-1.000000	-1.000000	-1.000000	-1.000000	-1.000000	-1.000000	78.551724	0.000000	-1.000000	-1.000000	1484048.000000	1770064464.548234
-5089.005000	-17771.445000	-3965.670000	9248.850000	-7801.560000	-3911.220000	6944.580000	-1207.620000	-35.458014	-38.946017	-45.065624	-40.893260	-36.528029	-22.744845	-7.152287	-22.976208	6.241340	-11.628120	-7.309540	0.696592	0.648497	0.113769	-1.000000	-1.000000	-1.000000	-1.000000	-1.000000	-1.000000	-1.000000	78.551724	0.000000	-1.000000	-1.000000	1484049.000000	1770064464.552328
-5098.770000	-17754.795000	-3974.805000	9259.155000	-7796.655000	-3905.190000	6931.755000	-1213.065000	-13.000578	-17.876452	-18.873899	-18.478570	-16.360538	-8.781970	-10.832776	-13.306868	6.241340	-11.628120	-7.309540	0.696592	0.648497	0.113769	-1.000000	-1.000000	-1.000000	-1.000000	-1.000000	-1.000000	-1.000000	78.551724	0.000000	-1.000000	-1.000000	1484050.000000	1770064464.552342
-5087.475000	-17761.725000	-3932.145000	9309.645000	-7757.865000	-3871.980000	6964.830000	-1213.965000	15.675154	11.008888	15.504449	13.115951	11.923626	11.408971	-7.521528	2.086544	2.060100	-12.894700	10.361540	0.714781	0.669920	0.105713	-1.000000	-1.000000	-1.000000	-1.000000	-1.000000	-1.000000	-1.000000	78.551724	0.000000	-1.000000	-1.000000	1484051.000000	1770064464.558448
-5057.730000	-17720.280000	-3888.540000	9326.700000	-7743.240000	-3861.045000	6988.185000	-1167.615000	34.051149	31.764984	39.312140	36.806999	32.351286	25.863681	0.704380	15.466594	2.060100	-12.894700	10.361540	0.714781	0.669920	0.105713	-1.000000	-1.000000	-1.000000	-1.000000	-1.000000	-1.000000	-1.000000	78.551724	0.000000	-1.000000	-1.000000	1484052.000000	1770064464.558459
-4990.455000	-17663.040000	-3850.380000	9363.420000	-7709.850000	-3841.020000	6983.865000	-1134.045000	38.178700	39.425396	47.015501	45.592649	39.215744	30.090193	10.695946	23.584533	2.060100	-12.894700	10.361540	0.714781	0.669920	0.105713	-1.000000	-1.000000	-1.000000	-1.000000	-1.000000	-1.000000	-1.000000	78.551724	0.000000	-1.000000	-1.000000	1484053.000000	1770064464.560268
-4893.615000	-17556.480000	-3740.805000	9472.545000	-7602.615000	-3747.420000	7011.810000	-1053.450000	36.023873	39.913035	44.595009	43.787709	37.857177	28.241627	18.130779	27.028662	2.060100	-12.894700	10.361540	0.714781	0.669920	0.105713	-1.000000	-1.000000	-1.000000	-1.000000	-1.000000	-1.000000	-1.000000	78.551724	0.000000	-1.000000	-1.000000	1484054.000000	1770064464.560275
-4855.365000	-17520.705000	-3706.065000	9512.820000	-7563.465000	-3711.195000	7076.520000	-965.520000	34.916473	38.457382	39.214469	37.728805	34.375559	25.159828	20.652070	29.723517	2.060100	-12.894700	10.361540	0.714781	0.669920	0.105713	-1.000000	-1.000000	-1.000000	-1.000000	-1.000000	-1.000000	-1.000000	78.551724	0.000000	-1.000000	-1.000000	1484055.000000	1770064464.564321
-5000.940000	-17670.645000	-3841.830000	9390.330000	-7677.045000	-3801.825000	7038.945000	-1120.230000	29.312001	29.388264	27.359870	24.701667	24.839612	17.594423	17.330899	29.988868	2.060100	-12.894700	10.361540	0.714781	0.669920	0.105713	-1.000000	-1.000000	-1.000000	-1.000000	-1.000000	-1.000000	-1.000000	78.551724	0.000000	-1.000000	-1.000000	1484056.000000	1770064464.564335
-5080.185000	-17732.970000	-3924.810000	9304.110000	-7749.180000	-3843.900000	6925.725000	-1201.635000	5.415704	1.490697	-2.691124	-4.415645	-0.755028	-2.441193	5.246412	14.811226	2.060100	-12.894700	10.361540	0.714781	0.669920	0.105713	-1.000000	-1.000000	-1.000000	-1.000000	-1.000000	-1.000000	-1.000000	78.551724	0.000000	-1.000000	-1.000000	1484057.000000	1770064464.568260
-5084.955000	-17723.025000	-4032.315000	9231.930000	-7815.420000	-3915.405000	6902.145000	-1179.315000	-36.352685	-41.912813	-50.202351	-47.947420	-41.170303	-33.922795	-16.518216	-20.009884	2.060100	-12.894700	10.361540	0.714781	0.669920	0.105713	-1.000000	-1.000000	-1.000000	-1.000000	-1.000000	-1.000000	-1.000000	78.551724	0.000000	-1.000000	-1.000000	1484058.000000	1770064464.568266
-5119.560000	-17810.640000	-4061.475000	9189.585000	-7865.640000	-3973.005000	6931.935000	-1227.330000	-73.779324	-78.724188	-93.408828	-86.646351	-78.132919	-63.150568	-38.435982	-55.794131	2.060100	-12.894700	10.361540	0.714781	0.669920	0.105713	-1.000000	-1.000000	-1.000000	-1.000000	-1.000000	-1.000000	-1.000000	78.551724	0.000000	-1.000000	-1.000000	1484059.000000	1770064464.572267
-5035.680000	-17743.095000	-3895.785000	9298.485000	-7756.515000	-3866.715000	6882.255000	-1216.530000	-82.590106	-87.122166	-103.784944	-96.506755	-88.967254	-72.706898	-46.001224	-69.717564	2.060100	-12.894700	10.361540	0.714781	0.669920	0.105713	-1.000000	-1.000000	-1.000000	-1.000000	-1.000000	-1.000000	-1.000000	78.551724	0.000000	-1.000000	-1.000000	1484060.000000	1770064464.572277
-4937.805000	-17648.775000	-3804.165000	9395.145000	-7665.255000	-3786.300000	6855.795000	-1114.740000	-54.056663	-58.900734	-65.388862	-63.880194	-60.275970	-50.286104	-34.745102	-53.212078	-8.988140	0.183120	-2.960440	0.748899	0.675047	0.091491	-1.000000	-1.000000	-1.000000	-1.000000	-1.000000	-1.000000	-1.000000	78.551724	0.000000	-1.000000	-1.000000	1484061.000000	1770064464.576625
-4984.605000	-17643.645000	-3798.540000	9403.425000	-7661.565000	-3788.010000	6805.980000	-1125.630000	-0.933597	-3.941586	8.690279	2.075271	0.158619	-0.275813	-12.151927	-13.839909	-8.988140	0.183120	-2.960440	0.748899	0.675047	0.091491	-1.000000	-1.000000	-1.000000	-1.000000	-1.000000	-1.000000	-1.000000	78.551724	0.000000	-1.000000	-1.000000	1484062.000000	1770064464.576634
-4966.245000	-17574.435000	-3780.945000	9469.665000	-7598.295000	-3730.455000	6895.710000	-1116.765000	47.297606	51.261804	78.806522	68.484440	61.641598	51.825100	11.838817	28.192089	-8.988140	0.183120	-2.960440	0.748899	0.675047	0.091491	-1.000000	-1.000000	-1.000000	-1.000000	-1.000000	-1.000000	-1.000000	78.551724	0.000000	-1.000000	-1.000000	1484063.000000	1770064464.580271
-4899.015000	-17453.970000	-3742.965000	9538.155000	-7525.935000	-3657.780000	6993.045000	-1082.745000	67.817326	82.972555	109.016172	102.911938	93.650463	79.372603	32.010899	52.918466	-8.988140	0.183120	-2.960440	0.748899	0.675047	0.091491	-1.000000	-1.000000	-1.000000	-1.000000	-1.000000	-1.000000	-1.000000	78.551724	0.000000	-1.000000	-1.000000	1484064.000000	1770064464.580277
-4952.340000	-17475.615000	-3797.325000	9450.855000	-7598.880000	-3707.145000	6790.545000	-1266.345000	61.150592	86.321800	92.284208	95.668030	87.428905	74.508126	44.511299	53.371371	-8.988140	0.183120	-2.960440	0.748899	0.675047	0.091491	-1.000000	-1.000000	-1.000000	-1.000000	-1.000000	-1.000000	-1.000000	78.551724	0.000000	-1.000000	-1.000000	1484065.000000	1770064464.594379
-4872.870000	-17536.365000	-3751.065000	9456.975000	-7591.860000	-3696.435000	6911.370000	-1089.630000	40.391188	65.266987	46.408078	56.352768	52.058143	44.862122	43.592638	35.514691	-8.988140	0.183120	-2.960440	0.748899	0.675047	0.091491	-1.000000	-1.000000	-1.000000	-1.000000	-1.000000	-1.000000	-1.000000	78.551724	0.000000	-1.000000	-1.000000	1484066.000000	1770064464.594390
-4936.545000	-17714.610000	-3842.640000	9361.845000	-7696.755000	-3802.680000	7152.795000	-909.090000	16.013963	21.616591	-3.794452	2.986139	3.542583	3.814308	33.514065	16.144470	-8.988140	0.183120	-2.960440	0.748899	0.675047	0.091491	-1.000000	-1.000000	-1.000000	-1.000000	-1.000000	-1.000000	-1.000000	78.551724	0.000000	-1.000000	-1.000000	1484067.000000	1770064464.594700
-4890.915000	-17554.455000	-3772.125000	9454.860000	-7593.165000	-3712.995000	6928.200000	-1046.565000	-7.699894	-33.699100	-41.452484	-44.654431	-40.465158	-33.994114	23.665854	8.775973	-8.988140	0.183120	-2.960440	0.748899	0.675047	0.091491	-1.000000	-1.000000	-1.000000	-1.000000	-1.000000	-1.000000	-1.000000	78.551724	0.000000	-1.000000	-1.000000	1484068.000000	1770064464.594711
-4823.325000	-17482.410000	-3689.505000	9549.855000	-7497.540000	-3639.960000	6639.705000	-1092.465000	-28.151224	-73.567579	-60.687097	-70.133497	-64.238837	-55.467101	4.988616	4.398232	-8.988140	0.183120	-2.960440	0.748899	0.675047	0.091491	-1.000000	-1.000000	-1.000000	-1.000000	-1.000000	-1.000000	-1.000000	78.551724	0.000000	-1.000000	-1.000000	1484069.000000	1770064464.594723
-5002.560000	-17644.950000	-3764.970000	9377.460000	-7686.720000	-3791.340000	6773.310000	-1259.820000	-43.145271	-79.443700	-61.910428	-68.807190	-63.130981	-56.193820	-32.432658	-15.692730	-8.988140	0.183120	-2.960440	0.748899	0.675047	0.091491	-1.000000	-1.000000	-1.000000	-1.000000	-1.000000	-1.000000	-1.000000	78.551724	0.000000	-1.000000	-1.000000	1484070.000000	1770064464.594728
-5065.470000	-17737.920000	-3937.770000	9261.990000	-7837.290000	-3943.620000	7123.545000	-1235.745000	-53.429568	-61.390061	-52.224783	-53.540577	-50.545890	-46.495412	-63.271400	-51.058855	-23.973460	56.812980	-6.592320	0.768492	0.674193	0.074646	-1.000000	-1.000000	-1.000000	-1.000000	-1.000000	-1.000000	-1.000000	78.551724	0.000000	-1.000000	-1.000000	1484071.000000	1770064464.603348
-5079.240000	-17801.505000	-4056.480000	9225.540000	-7869.105000	-3984.480000	7132.770000	-1114.830000	-56.826319	-40.024806	-42.504413	-40.119910	-42.149163	-39.617337	-52.503824	-76.259075	-23.973460	56.812980	-6.592320	0.768492	0.674193	0.074646	-1.000000	-1.000000	-1.000000	-1.000000	-1.000000	-1.000000	-1.000000	78.551724	0.000000	-1.000000	-1.000000	1484072.000000	1770064464.603358
-5025.465000	-17715.960000	-3926.925000	9307.215000	-7795.575000	-3951.585000	6865.470000	-1110.375000	-44.497497	-21.664063	-32.604696	-27.198195	-34.186452	-33.492668	-9.032253	-63.343230	-23.973460	56.812980	-6.592320	0.768492	0.674193	0.074646	-1.000000	-1.000000	-1.000000	-1.000000	-1.000000	-1.000000	-1.000000	78.551724	0.000000	-1.000000	-1.000000	1484073.000000	1770064464.603367
-5177.025000	-17827.470000	-4071.465000	9189.135000	-7892.685000	-4040.055000	6880.455000	-1124.370000	-13.062043	1.057019	-10.825288	-2.724109	-11.380919	-15.503454	25.842758	-10.976645	-23.973460	56.812980	-6.592320	0.768492	0.674193	0.074646	-1.000000	-1.000000	-1.000000	-1.000000	-1.000000	-1.000000	-1.000000	78.551724	0.000000	-1.000000	-1.000000	1484074.000000	1770064464.603371
-5175.360000	-17773.830000	-4023.360000	9266.805000	-7799.175000	-3922.425000	7046.370000	-1237.455000	24.300068	32.128679	24.284069	33.944528	28.726739	18.825166	30.230044	46.899577	-23.973460	56.812980	-6.592320	0.768492	0.674193	0.074646	-1.000000	-1.000000	-1.000000	-1.000000	-1.000000	-1.000000	-1.000000	78.551724	0.000000	-1.000000	-1.000000	1484075.000000	1770064464.604379
-5117.130000	-17757.540000	-4040.595000	9239.085000	-7825.905000	-3927.420000	7108.335000	-1178.325000	50.752291	65.067731	59.028449	68.775091	71.224498	60.630923	14.211489	69.461722	-23.973460	56.812980	-6.592320	0.768492	0.674193	0.074646	-1.000000	-1.000000	-1.000000	-1.000000	-1.000000	-1.000000	-1.000000	78.551724	0.000000	-1.000000	-1.000000	1484076.000000	1770064464.604386
-5134.455000	-17833.905000	-4046.580000	9230.580000	-7838.370000	-3934.620000	7060.095000	-1164.150000	59.822750	82.935328	76.013429	82.433163	92.538584	89.353675	0.580327	51.074455	-23.973460	56.812980	-6.592320	0.768492	0.674193	0.074646	-1.000000	-1.000000	-1.000000	-1.000000	-1.000000	-1.000000	-1.000000	78.551724	0.000000	-1.000000	-1.000000	1484077.000000	1770064464.609518
-5166.720000	-17865.225000	-4031.910000	9226.935000	-7847.190000	-3959.550000	6979.005000	-1238.490000	50.582514	67.349784	63.741914	62.739702	75.565693	83.602126	3.340968	18.330524	-23.973460	56.812980	-6.592320	0.768492	0.674193	0.074646	-1.000000	-1.000000	-1.000000	-1.000000	-1.000000	-1.000000	-1.000000	78.551724	0.000000	-1.000000	-1.000000	1484078.000000	1770064464.609528
-5126.445000	-17819.505000	-4015.575000	9240.705000	-7831.215000	-3951.675000	7025.490000	-1169.415000	29.338570	23.946912	29.915535	20.997319	30.500804	45.059502	12.086725	-4.507351	-23.973460	56.812980	-6.592320	0.768492	0.674193	0.074646	-1.000000	-1.000000	-1.000000	-1.000000	-1.000000	-1.000000	-1.000000	78.551724	0.000000	-1.000000	-1.000000	1484079.000000	1770064464.617231
-5160.960000	-17856.000000	-4035.600000	9210.240000	-7871.715000	-4003.020000	6978.240000	-1192.365000	9.665342	-18.030335	-1.732985	-16.042553	-12.864493	-1.574449	3.428513	-10.572774	-23.973460	56.812980	-6.592320	0.768492	0.674193	0.074646	-1.000000	-1.000000	-1.000000	-1.000000	-1.000000	-1.000000	-1.000000	78.551724	0.000000	-1.000000	-1.000000	1484080.000000	1770064464.617237
-5138.370000	-17828.685000	-4027.275000	9228.645000	-7850.070000	-3976.110000	6972.255000	-1224.045000	-2.530699	-37.942528	-15.532452	-33.294885	-36.070639	-34.761718	-25.936785	-8.943948	-31.679760	38.531500	-33.190500	0.780271	0.635680	0.089294	-1.000000	-1.000000	-1.000000	-1.000000	-1.000000	-1.000000	-1.000000	78.551724	0.000000	-1.000000	-1.000000	1484081.000000	1770064464.617627
-5115.915000	-17790.075000	-3999.915000	9256.995000	-7823.025000	-3941.055000	6994.755000	-1183.050000	-9.920570	-35.831697	-14.921070	-32.784546	-39.662526	-47.206716	-47.733606	-9.879180	-31.679760	38.531500	-33.190500	0.780271	0.635680	0.089294	-1.000000	-1.000000	-1.000000	-1.000000	-1.000000	-1.000000	-1.000000	78.551724	0.000000	-1.000000	-1.000000	1484082.000000	1770064464.617638
-5093.190000	-17771.400000	-3989.160000	9270.000000	-7818.885000	-3946.365000	6983.550000	-1189.215000	-12.577804	-19.817159	-9.927869	-21.174209	-30.296049	-40.562754	-36.686546	-11.472748	-31.679760	38.531500	-33.190500	0.780271	0.635680	0.089294	-1.000000	-1.000000	-1.000000	-1.000000	-1.000000	-1.000000	-1.000000	78.551724	0.000000	-1.000000	-1.000000	1484083.000000	1770064464.632039
-5067.315000	-17743.770000	-3960.990000	9294.390000	-7800.345000	-3942.315000	6979.635000	-1202.445000	-9.939524	0.564409	-6.250469	-5.736939	-15.672625	-23.925963	-4.641072	-9.113729	-31.679760	38.531500	-33.190500	0.780271	0.635680	0.089294	-1.000000	-1.000000	-1.000000	-1.000000	-1.000000	-1.000000	-1.000000	78.551724	0.000000	-1.000000	-1.000000	1484084.000000	1770064464.632049
-5039.955000	-17698.095000	-3913.650000	9343.215000	-7746.570000	-3898.980000	6996.285000	-1160.820000	-6.793176	14.771879	-6.161462	5.533421	-3.386486	-8.977091	20.686723	-4.151244	-31.679760	38.531500	-33.190500	0.780271	0.635680	0.089294	-1.000000	-1.000000	-1.000000	-1.000000	-1.000000	-1.000000	-1.000000	78.551724	0.000000	-1.000000	-1.000000	1484085.000000	1770064464.632060
-4995.495000	-17652.105000	-3866.850000	9393.255000	-7693.020000	-3856.770000	6981.750000	-1113.660000	-7.921767	17.051714	-9.624594	8.461830	3.374269	-0.545250	31.773193	1.917565	-31.679760	38.531500	-33.190500	0.780271	0.635680	0.089294	-1.000000	-1.000000	-1.000000	-1.000000	-1.000000	-1.000000	-1.000000	78.551724	0.000000	-1.000000	-1.000000	1484086.000000	1770064464.632065
-5050.260000	-17715.330000	-3929.085000	9333.630000	-7754.445000	-3915.315000	6957.135000	-1166.580000	-12.036861	9.078786	-15.048431	3.982322	5.241858	3.251204	34.975955	9.067543	-31.679760	38.531500	-33.190500	0.780271	0.635680	0.089294	-1.000000	-1.000000	-1.000000	-1.000000	-1.000000	-1.000000	-1.000000	78.551724	0.000000	-1.000000	-1.000000	1484087.000000	1770064464.632071
-5029.605000	-17672.175000	-3884.940000	9380.520000	-7712.730000	-3888.990000	7015.545000	-1182.780000	-15.352281	-4.571490	-19.702944	-4.137549	3.649493	5.033266	30.029921	12.686976	-31.679760	38.531500	-33.190500	0.780271	0.635680	0.089294	-1.000000	-1.000000	-1.000000	-1.000000	-1.000000	-1.000000	-1.000000	78.551724	0.000000	-1.000000	-1.000000	1484088.000000	1770064464.632076
-4939.245000	-17582.580000	-3799.080000	9462.960000	-7643.430000	-3837.285000	7081.245000	-1042.155000	-14.281051	-16.510376	-17.504150	-9.424336	1.922261	7.160964	15.999500	8.542173	-31.679760	38.531500	-33.190500	0.780271	0.635680	0.089294	-1.000000	-1.000000	-1.000000	-1.000000	-1.000000	-1.000000	-1.000000	78.551724	0.000000	-1.000000	-1.000000	1484089.000000	1770064464.632392
-5002.650000	-17690.400000	-3907.980000	9354.870000	-7744.095000	-3922.695000	7028.820000	-1045.395000	-7.243337	-20.596242	-6.328540	-8.484649	1.581158	9.181922	1.105655	2.141077	-31.679760	38.531500	-33.190500	0.780271	0.635680	0.089294	-1.000000	-1.000000	-1.000000	-1.000000	-1.000000	-1.000000	-1.000000	78.551724	0.000000	-1.000000	-1.000000	1484090.000000	1770064464.632401
-5108.400000	-17800.110000	-4011.345000	9259.380000	-7837.605000	-4002.840000	6950.070000	-1181.430000	-0.459680	-21.468211	2.932719	-8.188772	-3.259981	4.694883	-8.766238	-2.295473	31.862880	3.479280	9.720620	0.698301	0.623411	0.110840	-1.000000	-1.000000	-1.000000	-1.000000	-1.000000	-1.000000	-1.000000	78.551724	0.000000	-1.000000	-1.000000	1484091.000000	1770064464.649368
-5143.950000	-17823.465000	-4034.475000	9244.845000	-7848.675000	-4008.465000	6941.520000	-1241.730000	-2.870552	-26.356542	-1.022238	-15.741338	-16.663514	-9.484541	-17.839489	-10.806207	31.862880	3.479280	9.720620	0.698301	0.623411	0.110840	-1.000000	-1.000000	-1.000000	-1.000000	-1.000000	-1.000000	-1.000000	78.551724	0.000000	-1.000000	-1.000000	1484092.000000	1770064464.649380
-5120.370000	-17805.465000	-4008.285000	9274.230000	-7820.145000	-3983.895000	6961.950000	-1199.745000	-13.157903	-31.138105	-13.750804	-25.652258	-30.298417	-24.561420	-28.122291	-24.511664	31.862880	3.479280	9.720620	0.698301	0.623411	0.110840	-1.000000	-1.000000	-1.000000	-1.000000	-1.000000	-1.000000	-1.000000	78.551724	0.000000	-1.000000	-1.000000	1484093.000000	1770064464.649393
-5096.430000	-17779.815000	-3980.520000	9300.960000	-7798.635000	-3964.770000	6966.405000	-1182.690000	-19.960157	-25.488428	-21.018712	-25.960128	-31.449791	-28.092479	-31.457922	-32.311993	31.862880	3.479280	9.720620	0.698301	0.623411	0.110840	-1.000000	-1.000000	-1.000000	-1.000000	-1.000000	-1.000000	-1.000000	78.551724	0.000000	-1.000000	-1.000000	1484094.000000	1770064464.649398
-5086.350000	-17772.345000	-3975.930000	9304.875000	-7795.440000	-3961.305000	6946.830000	-1176.840000	-13.551363	-5.225036	-13.770696	-11.524758	-15.999061	-15.927829	-20.045514	-24.371219	31.862880	3.479280	9.720620	0.698301	0.623411	0.110840	-1.000000	-1.000000	-1.000000	-1.000000	-1.000000	-1.000000	-1.000000	78.551724	0.000000	-1.000000	-1.000000	1484095.000000	1770064464.649404
-5056.470000	-17742.555000	-3944.250000	9337.050000	-7765.155000	-3933.360000	6957.180000	-1159.110000	6.523467	24.063071	6.688602	13.202988	10.484325	7.110540	1.559571	-1.616507	31.862880	3.479280	9.720620	0.698301	0.623411	0.110840	-1.000000	-1.000000	-1.000000	-1.000000	-1.000000	-1.000000	-1.000000	78.551724	0.000000	-1.000000	-1.000000	1484096.000000	1770064464.649409
-5051.430000	-17718.390000	-3916.170000	9364.095000	-7743.330000	-3911.355000	6996.420000	-1161.045000	30.535470	49.507598	30.793028	37.376784	36.679274	30.928687	19.770801	24.601242	31.862880	3.479280	9.720620	0.698301	0.623411	0.110840	-1.000000	-1.000000	-1.000000	-1.000000	-1.000000	-1.000000	-1.000000	78.551724	0.000000	-1.000000	-1.000000	1484097.000000	1770064464.649415
-5053.995000	-17699.490000	-3895.470000	9381.510000	-7734.555000	-3904.785000	6974.010000	-1124.415000	43.432909	57.725004	45.489171	48.619821	49.703871	43.646356	25.266169	38.619726	31.862880	3.479280	9.720620	0.698301	0.623411	0.110840	-1.000000	-1.000000	-1.000000	-1.000000	-1.000000	-1.000000	-1.000000	78.551724	0.000000	-1.000000	-1.000000	1484098.000000	1770064464.649420
-4983.255000	-17665.560000	-3866.220000	9406.080000	-7718.490000	-3909.780000	6885.900000	-1116.810000	38.617302	46.255056	44.492274	42.986357	44.624197	39.504728	18.749669	34.048154	31.862880	3.479280	9.720620	0.698301	0.623411	0.110840	-1.000000	-1.000000	-1.000000	-1.000000	-1.000000	-1.000000	-1.000000	78.551724	0.000000	-1.000000	-1.000000	1484099.000000	1770064464.653785
-4966.605000	-17643.915000	-3846.195000	9424.080000	-7697.205000	-3886.875000	6934.185000	-1097.415000	24.677754	25.678105	32.668994	27.727461	28.230858	23.227402	6.928085	19.932257	31.862880	3.479280	9.720620	0.698301	0.623411	0.110840	-1.000000	-1.000000	-1.000000	-1.000000	-1.000000	-1.000000	-1.000000	78.551724	0.000000	-1.000000	-1.000000	1484100.000000	1770064464.653797
-4929.165000	-17605.395000	-3808.170000	9461.385000	-7652.970000	-3823.200000	7097.940000	-950.490000	11.767128	6.511780	16.609999	10.643811	9.555462	4.094253	-0.353496	10.184864	-6.378680	-11.963840	3.280900	0.693724	0.685362	0.110229	-1.000000	-1.000000	-1.000000	-1.000000	-1.000000	-1.000000	-1.000000	78.551724	0.000000	-1.000000	-1.000000	1484101.000000	1770064464.657892
-4999.545000	-17685.585000	-3888.090000	9377.505000	-7731.945000	-3892.230000	7007.265000	-985.500000	-0.864720	-10.689712	-3.310276	-7.716842	-8.948924	-12.585357	2.848299	8.879319	-6.378680	-11.963840	3.280900	0.693724	0.685362	0.110229	-1.000000	-1.000000	-1.000000	-1.000000	-1.000000	-1.000000	-1.000000	78.551724	0.000000	-1.000000	-1.000000	1484102.000000	1770064464.657903
-5078.700000	-17760.420000	-3959.460000	9304.245000	-7798.770000	-3944.835000	6872.850000	-1271.565000	-19.654639	-30.894310	-29.322216	-30.333488	-29.657394	-27.844324	7.740586	2.865461	-6.378680	-11.963840	3.280900	0.693724	0.685362	0.110229	-1.000000	-1.000000	-1.000000	-1.000000	-1.000000	-1.000000	-1.000000	78.551724	0.000000	-1.000000	-1.000000	1484103.000000	1770064464.663597
-5025.690000	-17685.765000	-3879.585000	9384.030000	-7720.020000	-3889.305000	6906.555000	-1289.520000	-42.506065	-51.297629	-54.880836	-52.067895	-48.619362	-40.447805	0.902411	-22.976641	-6.378680	-11.963840	3.280900	0.693724	0.685362	0.110229	-1.000000	-1.000000	-1.000000	-1.000000	-1.000000	-1.000000	-1.000000	78.551724	0.000000	-1.000000	-1.000000	1484104.000000	1770064464.663605
-5007.015000	-17658.765000	-3853.440000	9405.630000	-7703.145000	-3879.180000	7001.235000	-1192.365000	-54.909580	-57.963640	-63.217970	-57.737422	-52.663291	-41.950488	-14.748864	-57.473992	-6.378680	-11.963840	3.280900	0.693724	0.685362	0.110229	-1.000000	-1.000000	-1.000000	-1.000000	-1.000000	-1.000000	-1.000000	78.551724	0.000000	-1.000000	-1.000000	1484105.000000	1770064464.667294
-4972.905000	-17605.215000	-3796.605000	9461.745000	-7646.670000	-3818.700000	7052.355000	-1071.720000	-44.835104	-41.508504	-44.639316	-38.815050	-34.498659	-27.051150	-23.468567	-68.435218	-6.378680	-11.963840	3.280900	0.693724	0.685362	0.110229	-1.000000	-1.000000	-1.000000	-1.000000	-1.000000	-1.000000	-1.000000	78.551724	0.000000	-1.000000	-1.000000	1484106.000000	1770064464.667306
-4758.840000	-17351.550000	-3536.640000	9720.360000	-7395.255000	-3595.680000	7009.470000	-850.005000	-12.803027	-4.929442	-4.030380	-0.019668	1.536806	2.153793	-15.966257	-36.565884	-6.378680	-11.963840	3.280900	0.693724	0.685362	0.110229	-1.000000	-1.000000	-1.000000	-1.000000	-1.000000	-1.000000	-1.000000	78.551724	0.000000	-1.000000	-1.000000	1484107.000000	1770064464.678386
-4782.555000	-17404.470000	-3597.570000	9654.210000	-7457.175000	-3640.860000	7143.705000	-808.695000	30.090936	40.195964	44.562362	45.862278	44.028646	38.077006	4.501538	27.121437	-6.378680	-11.963840	3.280900	0.693724	0.685362	0.110229	-1.000000	-1.000000	-1.000000	-1.000000	-1.000000	-1.000000	-1.000000	78.551724	0.000000	-1.000000	-1.000000	1484108.000000	1770064464.678396
-5213.655000	-17930.970000	-4135.770000	9115.830000	-7965.855000	-4075.335000	7062.390000	-1232.550000	56.657547	64.390619	69.521317	68.365546	64.321926	56.322538	25.228112	80.478427	-6.378680	-11.963840	3.280900	0.693724	0.685362	0.110229	-1.000000	-1.000000	-1.000000	-1.000000	-1.000000	-1.000000	-1.000000	78.551724	0.000000	-1.000000	-1.000000	1484109.000000	1770064464.678407
-5334.705000	-18020.385000	-4216.320000	9041.670000	-8027.640000	-4120.470000	6930.810000	-1394.190000	35.988484	34.066487	36.632846	34.116076	30.610650	27.748069	26.753489	72.695474	-6.378680	-11.963840	3.280900	0.693724	0.685362	0.110229	-1.000000	-1.000000	-1.000000	-1.000000	-1.000000	-1.000000	-1.000000	78.551724	0.000000	-1.000000	-1.000000	1484110.000000	1770064464.678413
-5278.680000	-17944.965000	-4141.665000	9113.715000	-7963.245000	-4087.485000	6895.170000	-1317.915000	-23.188543	-36.639540	-38.186708	-40.430524	-41.210346	-35.523213	1.489132	1.973838	-20.280540	0.381500	-13.215160	0.776060	0.664061	0.108398	-1.000000	-1.000000	-1.000000	-1.000000	-1.000000	-1.000000	-1.000000	78.551724	0.000000	-1.000000	-1.000000	1484111.000000	1770064464.678418
-5215.455000	-17884.530000	-4075.380000	9187.110000	-7888.590000	-4036.275000	6910.560000	-1270.530000	-68.877711	-85.997745	-90.558737	-91.194048	-89.804370	-80.636736	-30.285869	-68.037358	-20.280540	0.381500	-13.215160	0.776060	0.664061	0.108398	-1.000000	-1.000000	-1.000000	-1.000000	-1.000000	-1.000000	-1.000000	78.551724	0.000000	-1.000000	-1.000000	1484112.000000	1770064464.678423
-5170.185000	-17839.080000	-4033.170000	9226.305000	-7855.605000	-4005.900000	6926.985000	-1243.305000	-60.890414	-71.569817	-76.554511	-75.324877	-74.267398	-70.491479	-42.207602	-77.370155	-20.280540	0.381500	-13.215160	0.776060	0.664061	0.108398	-1.000000	-1.000000	-1.000000	-1.000000	-1.000000	-1.000000	-1.000000	78.551724	0.000000	-1.000000	-1.000000	1484113.000000	1770064464.680296
-5152.140000	-17819.280000	-4016.610000	9238.770000	-7849.125000	-3997.170000	6939.945000	-1218.330000	-6.561328	-6.465437	-9.531921	-7.447950	-8.700306	-14.467909	-29.571124	-28.500730	-20.280540	0.381500	-13.215160	0.776060	0.664061	0.108398	-1.000000	-1.000000	-1.000000	-1.000000	-1.000000	-1.000000	-1.000000	78.551724	0.000000	-1.000000	-1.000000	1484114.000000	1770064464.680305
-5140.080000	-17807.670000	-4005.495000	9252.810000	-7841.430000	-3987.045000	6935.805000	-1214.100000	54.378797	62.622535	62.336352	63.660964	59.948332	47.959471	-5.058476	31.408217	-20.280540	0.381500	-13.215160	0.776060	0.664061	0.108398	-1.000000	-1.000000	-1.000000	-1.000000	-1.000000	-1.000000	-1.000000	78.551724	0.000000	-1.000000	-1.000000	1484115.000000	1770064464.684522
-5124.510000	-17787.735000	-3986.280000	9270.945000	-7828.155000	-3980.655000	6900.660000	-1204.695000	82.587003	92.932897	94.812896	94.421518	89.696872	78.737151	17.673395	58.812660	-20.280540	0.381500	-13.215160	0.776060	0.664061	0.108398	-1.000000	-1.000000	-1.000000	-1.000000	-1.000000	-1.000000	-1.000000	78.551724	0.000000	-1.000000	-1.000000	1484116.000000	1770064464.684533
-5090.175000	-17726.895000	-3919.095000	9347.220000	-7746.345000	-3913.740000	6940.980000	-1181.520000	68.257471	77.113860	80.148802	78.426045	74.598111	69.728424	29.474234	46.265465	-20.280540	0.381500	-13.215160	0.776060	0.664061	0.108398	-1.000000	-1.000000	-1.000000	-1.000000	-1.000000	-1.000000	-1.000000	78.551724	0.000000	-1.000000	-1.000000	1484117.000000	1770064464.689745
-5025.420000	-17645.490000	-3831.795000	9440.550000	-7646.670000	-3815.280000	7055.595000	-1148.805000	37.421252	46.767474	50.432599	48.715617	46.867790	46.769458	30.237316	22.161403	-20.280540	0.381500	-13.215160	0.776060	0.664061	0.108398	-1.000000	-1.000000	-1.000000	-1.000000	-1.000000	-1.000000	-1.000000	78.551724	0.000000	-1.000000	-1.000000	1484118.000000	1770064464.689756
-5046.705000	-17689.545000	-3878.505000	9386.685000	-7708.545000	-3881.340000	7002.090000	-1106.370000	18.406844	30.498282	34.277597	33.633779	33.686941	33.594550	29.051038	15.034500	-20.280540	0.381500	-13.215160	0.776060	0.664061	0.108398	-1.000000	-1.000000	-1.000000	-1.000000	-1.000000	-1.000000	-1.000000	78.551724	0.000000	-1.000000	-1.000000	1484119.000000	1770064464.694046
-5191.785000	-17858.025000	-4049.640000	9214.335000	-7878.465000	-4038.300000	6899.085000	-1120.770000	7.487851	17.817728	20.370859	20.570266	22.036309	20.727364	28.040246	22.833045	-20.280540	0.381500	-13.215160	0.776060	0.664061	0.108398	-1.000000	-1.000000	-1.000000	-1.000000	-1.000000	-1.000000	-1.000000	78.551724	0.000000	-1.000000	-1.000000	1484120.000000	1770064464.694057
-5157.090000	-17840.115000	-4032.630000	9231.930000	-7858.170000	-4005.360000	6938.100000	-1178.730000	-16.182374	-16.313438	-16.538228	-16.595252	-13.833453	-12.115535	17.833750	22.637170	5.569900	3.677660	-12.894700	0.750120	0.612791	0.115112	-1.000000	-1.000000	-1.000000	-1.000000	-1.000000	-1.000000	-1.000000	78.551724	0.000000	-1.000000	-1.000000	1484121.000000	1770064464.697096
-5107.545000	-17812.215000	-4014.405000	9252.720000	-7840.080000	-3979.395000	6948.720000	-1236.420000	-52.726792	-67.682719	-71.067205	-72.008769	-67.796322	-58.396708	-4.766164	-1.569689	5.569900	3.677660	-12.894700	0.750120	0.612791	0.115112	-1.000000	-1.000000	-1.000000	-1.000000	-1.000000	-1.000000	-1.000000	78.551724	0.000000	-1.000000	-1.000000	1484122.000000	1770064464.697106
-5168.205000	-17809.200000	-4009.320000	9258.930000	-7831.305000	-3964.095000	6949.845000	-1231.110000	-79.698499	-104.520067	-109.811907	-111.137059	-105.737971	-89.228172	-29.721728	-43.506515	5.569900	3.677660	-12.894700	0.750120	0.612791	0.115112	-1.000000	-1.000000	-1.000000	-1.000000	-1.000000	-1.000000	-1.000000	78.551724	0.000000	-1.000000	-1.000000	1484123.000000	1770064464.702161
-5139.810000	-17829.360000	-3983.715000	9273.960000	-7824.780000	-3966.615000	6943.095000	-1213.560000	-80.040228	-102.814093	-107.147400	-107.995663	-102.492818	-85.129291	-43.468809	-79.209283	5.569900	3.677660	-12.894700	0.750120	0.612791	0.115112	-1.000000	-1.000000	-1.000000	-1.000000	-1.000000	-1.000000	-1.000000	78.551724	0.000000	-1.000000	-1.000000	1484124.000000	1770064464.702174
-5056.875000	-17764.605000	-3921.435000	9325.350000	-7777.395000	-3940.830000	6937.560000	-1198.440000	-52.555010	-63.464767	-63.210988	-63.607116	-59.799384	-49.635125	-39.270806	-85.257683	5.569900	3.677660	-12.894700	0.750120	0.612791	0.115112	-1.000000	-1.000000	-1.000000	-1.000000	-1.000000	-1.000000	-1.000000	78.551724	0.000000	-1.000000	-1.000000	1484125.000000	1770064464.712662
-5063.535000	-17730.675000	-3933.180000	9318.915000	-7774.065000	-3932.460000	6931.710000	-1196.415000	-5.178271	-2.152302	3.281124	2.482070	2.784071	0.304831	-22.198400	-53.927620	5.569900	3.677660	-12.894700	0.750120	0.612791	0.115112	-1.000000	-1.000000	-1.000000	-1.000000	-1.000000	-1.000000	-1.000000	78.551724	0.000000	-1.000000	-1.000000	1484126.000000	1770064464.712674
-5131.710000	-17776.260000	-3983.940000	9282.330000	-7803.180000	-3936.870000	6958.260000	-1208.025000	44.076362	58.376767	64.029699	62.702184	59.100813	44.639923	-3.021767	1.847148	5.569900	3.677660	-12.894700	0.750120	0.612791	0.115112	-1.000000	-1.000000	-1.000000	-1.000000	-1.000000	-1.000000	-1.000000	78.551724	0.000000	-1.000000	-1.000000	1484127.000000	1770064464.712687
-5126.760000	-17780.355000	-3984.795000	9289.170000	-7795.890000	-3927.105000	6975.135000	-1174.050000	72.235747	93.387554	93.299165	93.023439	87.368825	68.263124	13.647396	54.778333	5.569900	3.677660	-12.894700	0.750120	0.612791	0.115112	-1.000000	-1.000000	-1.000000	-1.000000	-1.000000	-1.000000	-1.000000	78.551724	0.000000	-1.000000	-1.000000	1484128.000000	1770064464.712692
-5110.560000	-17779.230000	-3983.445000	9294.795000	-7789.770000	-3919.005000	6971.220000	-1188.045000	69.837047	91.388115	84.718719	87.393130	82.563395	68.137830	28.468339	81.095194	5.569900	3.677660	-12.894700	0.750120	0.612791	0.115112	-1.000000	-1.000000	-1.000000	-1.000000	-1.000000	-1.000000	-1.000000	78.551724	0.000000	-1.000000	-1.000000	1484129.000000	1770064464.712699
-5101.245000	-17789.670000	-3970.305000	9302.490000	-7786.125000	-3919.725000	6956.820000	-1189.530000	44.074355	58.577005	50.114747	55.608411	53.413370	48.762580	36.605356	73.991216	5.569900	3.677660	-12.894700	0.750120	0.612791	0.115112	-1.000000	-1.000000	-1.000000	-1.000000	-1.000000	-1.000000	-1.000000	78.551724	0.000000	-1.000000	-1.000000	1484130.000000	1770064464.712704
-5106.915000	-17781.435000	-3978.405000	9304.920000	-7783.245000	-3918.285000	6948.000000	-1179.675000	7.642506	9.806736	5.908781	11.742981	12.168499	16.074835	29.708147	42.433139	15.656760	4.379620	2.258480	0.745970	0.628722	0.116211	-1.000000	-1.000000	-1.000000	-1.000000	-1.000000	-1.000000	-1.000000	78.551724	0.000000	-1.000000	-1.000000	1484131.000000	1770064464.719577
-5086.125000	-17743.185000	-3939.210000	9331.155000	-7756.560000	-3896.415000	6935.760000	-1155.555000	-25.190161	-35.569040	-32.270214	-29.022920	-27.065081	-19.629867	8.465614	2.725312	15.656760	4.379620	2.258480	0.745970	0.628722	0.116211	-1.000000	-1.000000	-1.000000	-1.000000	-1.000000	-1.000000	-1.000000	78.551724	0.000000	-1.000000	-1.000000	1484132.000000	1770064464.719589
-5056.830000	-17715.330000	-3886.425000	9361.980000	-7739.865000	-3894.480000	6849.270000	-1191.060000	-42.495690	-59.512728	-51.965156	-53.118888	-50.908471	-44.770050	-16.594287	-30.551506	15.656760	4.379620	2.258480	0.745970	0.628722	0.116211	-1.000000	-1.000000	-1.000000	-1.000000	-1.000000	-1.000000	-1.000000	78.551724	0.000000	-1.000000	-1.000000	1484133.000000	1770064464.722779
-5035.365000	-17721.720000	-3912.705000	9354.510000	-7752.465000	-3906.045000	6917.670000	-1095.345000	-40.980157	-56.035267	-49.036927	-54.498443	-53.365178	-50.660046	-33.868615	-47.473833	15.656760	4.379620	2.258480	0.745970	0.628722	0.116211	-1.000000	-1.000000	-1.000000	-1.000000	-1.000000	-1.000000	-1.000000	78.551724	0.000000	-1.000000	-1.000000	1484134.000000	1770064464.722789
-4993.515000	-17669.340000	-3850.965000	9391.950000	-7714.080000	-3866.130000	6902.100000	-1111.905000	-24.188243	-32.632216	-28.604019	-36.262657	-37.395616	-37.762211	-35.455425	-42.490980	15.656760	4.379620	2.258480	0.745970	0.628722	0.116211	-1.000000	-1.000000	-1.000000	-1.000000	-1.000000	-1.000000	-1.000000	78.551724	0.000000	-1.000000	-1.000000	1484135.000000	1770064464.724722
-5016.645000	-17708.625000	-3893.355000	9354.060000	-7745.040000	-3889.620000	7005.465000	-1164.960000	0.781049	-2.253354	-0.794715	-8.127334	-11.472841	-13.523278	-19.791902	-21.239038	15.656760	4.379620	2.258480	0.745970	0.628722	0.116211	-1.000000	-1.000000	-1.000000	-1.000000	-1.000000	-1.000000	-1.000000	78.551724	0.000000	-1.000000	-1.000000	1484136.000000	1770064464.724727
-5117.040000	-17783.415000	-4035.420000	9288.720000	-7788.645000	-3912.435000	7054.290000	-1212.705000	21.443952	21.380595	20.445037	16.224071	12.872097	11.011646	7.824238	-0.645304	15.656760	4.379620	2.258480	0.745970	0.628722	0.116211	-1.000000	-1.000000	-1.000000	-1.000000	-1.000000	-1.000000	-1.000000	78.551724	0.000000	-1.000000	-1.000000	1484137.000000	1770064464.728483
-5118.930000	-17801.190000	-3990.240000	9286.785000	-7799.580000	-3935.880000	6924.870000	-1168.560000	24.378465	27.396875	22.710067	24.948391	24.712471	25.029479	33.773673	7.775435	15.656760	4.379620	2.258480	0.745970	0.628722	0.116211	-1.000000	-1.000000	-1.000000	-1.000000	-1.000000	-1.000000	-1.000000	78.551724	0.000000	-1.000000	-1.000000	1484138.000000	1770064464.728495
-5128.290000	-17822.835000	-3964.410000	9295.425000	-7799.805000	-3942.315000	6937.290000	-1188.045000	8.221054	15.187486	8.367477	16.727134	20.654392	23.518540	39.896790	7.007939	15.656760	4.379620	2.258480	0.745970	0.628722	0.116211	-1.000000	-1.000000	-1.000000	-1.000000	-1.000000	-1.000000	-1.000000	78.551724	0.000000	-1.000000	-1.000000	1484139.000000	1770064464.733131
-5120.865000	-17787.015000	-3964.095000	9284.760000	-7814.925000	-3946.320000	7002.000000	-1225.935000	-13.390140	-4.262626	-7.423721	1.064825	6.842912	10.508174	22.289057	3.765537	15.656760	4.379620	2.258480	0.745970	0.628722	0.116211	-1.000000	-1.000000	-1.000000	-1.000000	-1.000000	-1.000000	-1.000000	78.551724	0.000000	-1.000000	-1.000000	1484140.000000	1770064464.733142
-5100.975000	-17782.110000	-3960.270000	9293.940000	-7803.360000	-3936.645000	6997.545000	-1217.340000	-24.674423	-17.173547	-14.002089	-11.222138	-7.078446	-4.373194	-2.650655	0.220472	-1.556520	-5.203660	-0.106820	0.734922	0.670286	0.113647	-1.000000	-1.000000	-1.000000	-1.000000	-1.000000	-1.000000	-1.000000	78.551724	0.000000	-1.000000	-1.000000	1484141.000000	1770064464.736490
-5048.955000	-17715.060000	-3907.620000	9361.800000	-7733.205000	-3870.720000	7043.715000	-1146.240000	-19.460178	-16.035052	-10.726687	-13.762348	-12.875698	-11.491122	-17.021348	-1.229228	-1.556520	-5.203660	-0.106820	0.734922	0.670286	0.113647	-1.000000	-1.000000	-1.000000	-1.000000	-1.000000	-1.000000	-1.000000	78.551724	0.000000	-1.000000	-1.000000	1484142.000000	1770064464.736499
-5082.750000	-17741.295000	-3924.720000	9343.035000	-7749.360000	-3870.720000	7008.570000	-1142.235000	-2.552273	-2.610650	-0.737788	-5.137557	-6.670910	-6.208421	-17.105840	2.659440	-1.556520	-5.203660	-0.106820	0.734922	0.670286	0.113647	-1.000000	-1.000000	-1.000000	-1.000000	-1.000000	-1.000000	-1.000000	78.551724	0.000000	-1.000000	-1.000000	1484143.000000	1770064464.740361
-5165.730000	-17829.315000	-4007.385000	9253.800000	-7836.930000	-3950.100000	6899.445000	-1219.905000	13.827281	12.304247	9.542143	7.878440	5.535948	5.415322	-13.122896	9.356275	-1.556520	-5.203660	-0.106820	0.734922	0.670286	0.113647	-1.000000	-1.000000	-1.000000	-1.000000	-1.000000	-1.000000	-1.000000	78.551724	0.000000	-1.000000	-1.000000	1484144.000000	1770064464.740372
-5157.315000	-17830.395000	-4010.625000	9247.365000	-7842.105000	-3959.820000	6859.125000	-1266.570000	19.561440	17.432624	13.276013	14.600934	12.292527	11.391751	-17.331191	11.802569	-1.556520	-5.203660	-0.106820	0.734922	0.670286	0.113647	-1.000000	-1.000000	-1.000000	-1.000000	-1.000000	-1.000000	-1.000000	78.551724	0.000000	-1.000000	-1.000000	1484145.000000	1770064464.747439
-5102.775000	-17751.420000	-3931.065000	9326.655000	-7769.835000	-3906.495000	6976.935000	-1233.855000	17.021556	14.052153	12.845350	13.654824	11.158241	8.379804	-27.041482	7.375632	-1.556520	-5.203660	-0.106820	0.734922	0.670286	0.113647	-1.000000	-1.000000	-1.000000	-1.000000	-1.000000	-1.000000	-1.000000	78.551724	0.000000	-1.000000	-1.000000	1484146.000000	1770064464.747455
-5039.910000	-17672.895000	-3853.665000	9399.960000	-7705.980000	-3861.945000	6972.660000	-1133.505000	15.399557	12.601182	15.272564	12.685490	9.580611	3.789119	-24.141201	1.706286	-1.556520	-5.203660	-0.106820	0.734922	0.670286	0.113647	-1.000000	-1.000000	-1.000000	-1.000000	-1.000000	-1.000000	-1.000000	78.551724	0.000000	-1.000000	-1.000000	1484147.000000	1770064464.757256
-5065.605000	-17745.840000	-3934.485000	9319.365000	-7776.990000	-3912.570000	6952.950000	-1057.500000	16.834283	15.798383	18.318335	13.968639	10.929713	3.004223	-0.937042	3.069314	-1.556520	-5.203660	-0.106820	0.734922	0.670286	0.113647	-1.000000	-1.000000	-1.000000	-1.000000	-1.000000	-1.000000	-1.000000	78.551724	0.000000	-1.000000	-1.000000	1484148.000000	1770064464.757267
-5149.755000	-17849.070000	-4041.045000	9216.450000	-7868.880000	-3990.825000	6918.255000	-1184.580000	13.597918	12.517527	10.800655	8.900602	7.895783	1.564829	26.324587	10.833281	-1.556520	-5.203660	-0.106820	0.734922	0.670286	0.113647	-1.000000	-1.000000	-1.000000	-1.000000	-1.000000	-1.000000	-1.000000	78.551724	0.000000	-1.000000	-1.000000	1484149.000000	1770064464.757278
-5095.575000	-17776.125000	-3971.925000	9281.070000	-7810.290000	-3941.280000	6948.945000	-1156.005000	-1.321645	-6.055902	-11.561065	-8.638058	-5.962408	-6.410379	38.117324	12.591298	-1.556520	-5.203660	-0.106820	0.734922	0.670286	0.113647	-1.000000	-1.000000	-1.000000	-1.000000	-1.000000	-1.000000	-1.000000	78.551724	0.000000	-1.000000	-1.000000	1484150.000000	1770064464.757283
-5045.895000	-17722.440000	-3917.340000	9335.520000	-7758.540000	-3892.005000	6999.120000	-1117.845000	-21.701824	-29.521984	-34.920330	-28.717880	-23.074947	-16.585361	31.242812	0.393397	-14.008680	-5.753020	-0.885080	0.728392	0.676817	0.111145	-1.000000	-1.000000	-1.000000	-1.000000	-1.000000	-1.000000	-1.000000	78.551724	0.000000	-1.000000	-1.000000	1484151.000000	1770064464.757289
-5135.670000	-17803.800000	-3985.335000	9275.040000	-7812.945000	-3942.045000	6870.285000	-1208.655000	-33.025397	-39.108076	-40.419709	-34.701461	-29.037050	-19.090530	14.298982	-18.714617	-14.008680	-5.753020	-0.885080	0.728392	0.676817	0.111145	-1.000000	-1.000000	-1.000000	-1.000000	-1.000000	-1.000000	-1.000000	78.551724	0.000000	-1.000000	-1.000000	1484152.000000	1770064464.757294
-5111.055000	-17767.215000	-3948.210000	9310.950000	-7775.865000	-3905.820000	6874.560000	-1225.935000	-28.111058	-27.782909	-23.458146	-20.807567	-17.992807	-10.008061	-3.881675	-31.795543	-14.008680	-5.753020	-0.885080	0.728392	0.676817	0.111145	-1.000000	-1.000000	-1.000000	-1.000000	-1.000000	-1.000000	-1.000000	78.551724	0.000000	-1.000000	-1.000000	1484153.000000	1770064464.760380
-4997.295000	-17650.305000	-3834.675000	9422.910000	-7660.530000	-3782.205000	7048.620000	-1138.005000	-9.151711	-1.011439	7.488696	6.517719	5.485941	8.090880	-14.873820	-28.952836	-14.008680	-5.753020	-0.885080	0.728392	0.676817	0.111145	-1.000000	-1.000000	-1.000000	-1.000000	-1.000000	-1.000000	-1.000000	78.551724	0.000000	-1.000000	-1.000000	1484154.000000	1770064464.760391
-5102.190000	-17756.865000	-3935.520000	9322.110000	-7760.430000	-3878.595000	6955.380000	-1243.485000	14.214354	26.927846	35.997557	32.073469	28.367865	26.386579	-13.127071	-10.952020	-14.008680	-5.753020	-0.885080	0.728392	0.676817	0.111145	-1.000000	-1.000000	-1.000000	-1.000000	-1.000000	-1.000000	-1.000000	78.551724	0.000000	-1.000000	-1.000000	1484155.000000	1770064464.772170
-5078.430000	-17747.505000	-3927.285000	9329.535000	-7753.680000	-3879.315000	7017.930000	-1139.085000	25.896733	36.869418	42.235480	37.320556	33.443623	30.459248	-3.903044	8.030328	-14.008680	-5.753020	-0.885080	0.728392	0.676817	0.111145	-1.000000	-1.000000	-1.000000	-1.000000	-1.000000	-1.000000	-1.000000	78.551724	0.000000	-1.000000	-1.000000	1484156.000000	1770064464.772182
-5111.415000	-17772.165000	-3959.370000	9293.040000	-7790.355000	-3919.410000	7018.875000	-1088.010000	18.632482	23.087610	22.249205	18.787465	16.667905	14.952202	3.713466	17.729896	-14.008680	-5.753020	-0.885080	0.728392	0.676817	0.111145	-1.000000	-1.000000	-1.000000	-1.000000	-1.000000	-1.000000	-1.000000	78.551724	0.000000	-1.000000	-1.000000	1484157.000000	1770064464.772386
-5095.395000	-17744.400000	-3942.360000	9305.505000	-7786.935000	-3927.465000	6932.385000	-1106.640000	1.973866	-0.002190	-6.290854	-7.171972	-7.602862	-9.011260	5.172950	21.669824	-14.008680	-5.753020	-0.885080	0.728392	0.676817	0.111145	-1.000000	-1.000000	-1.000000	-1.000000	-1.000000	-1.000000	-1.000000	78.551724	0.000000	-1.000000	-1.000000	1484158.000000	1770064464.772397
-4958.190000	-17624.700000	-3821.490000	9427.455000	-7668.090000	-3812.130000	7008.570000	-1141.155000	-10.010539	-15.262567	-23.944022	-22.877472	-23.007519	-25.939857	-1.257409	21.874477	-14.008680	-5.753020	-0.885080	0.728392	0.676817	0.111145	-1.000000	-1.000000	-1.000000	-1.000000	-1.000000	-1.000000	-1.000000	78.551724	0.000000	-1.000000	-1.000000	1484159.000000	1770064464.772408
-5016.420000	-17692.965000	-3871.125000	9391.455000	-7690.005000	-3817.035000	7046.100000	-1155.330000	-9.870059	-16.366610	-23.574969	-21.793871	-22.442211	-26.728179	-10.435734	13.553504	-14.008680	-5.753020	-0.885080	0.728392	0.676817	0.111145	-1.000000	-1.000000	-1.000000	-1.000000	-1.000000	-1.000000	-1.000000	78.551724	0.000000	-1.000000	-1.000000	1484160.000000	1770064464.772413
-5214.915000	-17911.755000	-4094.325000	9166.185000	-7909.740000	-4020.210000	6867.135000	-1291.230000	-2.755938	-10.569898	-13.285682	-11.443178	-11.949463	-15.121078	-13.224970	-2.876156	-3.815000	3.402980	-1.449700	0.739866	0.656737	0.108764	-1.000000	-1.000000	-1.000000	-1.000000	-1.000000	-1.000000	-1.000000	78.551724	0.000000	-1.000000	-1.000000	1484161.000000	1770064464.776481
-5172.705000	-17859.780000	-4048.065000	9210.195000	-7866.540000	-3984.165000	6937.695000	-1255.500000	-1.952861	-10.947333	-8.740003	-7.143618	-6.410549	-5.881949	-10.129619	-19.701876	-3.815000	3.402980	-1.449700	0.739866	0.656737	0.108764	-1.000000	-1.000000	-1.000000	-1.000000	-1.000000	-1.000000	-1.000000	78.551724	0.000000	-1.000000	-1.000000	1484162.000000	1770064464.776491
-5149.395000	-17817.480000	-3997.980000	9257.850000	-7822.845000	-3943.260000	6966.945000	-1201.995000	-10.694934	-18.428660	-13.329598	-12.583668	-10.587853	-6.294875	-7.610509	-27.473936	-3.815000	3.402980	-1.449700	0.739866	0.656737	0.108764	-1.000000	-1.000000	-1.000000	-1.000000	-1.000000	-1.000000	-1.000000	78.551724	0.000000	-1.000000	-1.000000	1484163.000000	1770064464.780495
-5128.380000	-17810.460000	-3978.000000	9286.515000	-7795.530000	-3920.895000	6959.115000	-1189.395000	-17.016178	-19.513852	-14.240506	-14.618038	-12.448252	-6.958846	-5.368285	-19.933474	-3.815000	3.402980	-1.449700	0.739866	0.656737	0.108764	-1.000000	-1.000000	-1.000000	-1.000000	-1.000000	-1.000000	-1.000000	78.551724	0.000000	-1.000000	-1.000000	1484164.000000	1770064464.780502
-5115.960000	-17779.005000	-3950.055000	9306.450000	-7777.755000	-3899.250000	6977.835000	-1203.975000	-9.889469	-4.641536	-1.001700	-1.856699	-0.685124	3.089193	0.084506	-2.230177	-3.815000	3.402980	-1.449700	0.739866	0.656737	0.108764	-1.000000	-1.000000	-1.000000	-1.000000	-1.000000	-1.000000	-1.000000	78.551724	0.000000	-1.000000	-1.000000	1484165.000000	1770064464.788216
-5129.730000	-17792.910000	-3992.580000	9263.115000	-7820.595000	-3940.605000	6939.360000	-1231.830000	8.543698	20.597391	21.840398	21.294111	20.968434	21.696719	7.913945	11.873945	-3.815000	3.402980	-1.449700	0.739866	0.656737	0.108764	-1.000000	-1.000000	-1.000000	-1.000000	-1.000000	-1.000000	-1.000000	78.551724	0.000000	-1.000000	-1.000000	1484166.000000	1770064464.788226
-5105.070000	-17779.365000	-3981.915000	9269.100000	-7812.450000	-3936.645000	6914.970000	-1238.445000	25.428246	39.723388	38.091521	38.007071	36.713165	35.058010	14.033642	14.902272	-3.815000	3.402980	-1.449700	0.739866	0.656737	0.108764	-1.000000	-1.000000	-1.000000	-1.000000	-1.000000	-1.000000	-1.000000	78.551724	0.000000	-1.000000	-1.000000	1484167.000000	1770064464.788693
-5084.775000	-17755.200000	-3947.580000	9307.080000	-7777.215000	-3912.390000	6918.930000	-1198.350000	27.951964	38.324022	34.105507	34.039852	32.930599	30.339169	13.496109	10.609596	-3.815000	3.402980	-1.449700	0.739866	0.656737	0.108764	-1.000000	-1.000000	-1.000000	-1.000000	-1.000000	-1.000000	-1.000000	78.551724	0.000000	-1.000000	-1.000000	1484168.000000	1770064464.788699
-5030.415000	-17709.930000	-3898.620000	9351.855000	-7731.540000	-3860.325000	6979.230000	-1125.315000	17.543235	20.115272	15.043652	14.320571	13.875358	10.875707	7.238925	8.746017	-3.815000	3.402980	-1.449700	0.739866	0.656737	0.108764	-1.000000	-1.000000	-1.000000	-1.000000	-1.000000	-1.000000	-1.000000	78.551724	0.000000	-1.000000	-1.000000	1484169.000000	1770064464.792479
-5022.990000	-17671.725000	-3859.605000	9381.105000	-7707.735000	-3832.290000	6973.965000	-1044.045000	9.001202	4.526837	0.962968	-0.855621	-1.299442	-4.853990	4.888643	17.358784	-3.815000	3.402980	-1.449700	0.739866	0.656737	0.108764	-1.000000	-1.000000	-1.000000	-1.000000	-1.000000	-1.000000	-1.000000	78.551724	0.000000	-1.000000	-1.000000	1484170.000000	1770064464.792484
-5084.820000	-17671.275000	-3877.875000	9372.105000	-7710.345000	-3834.765000	6995.205000	-1128.780000	7.508852	0.919514	0.374156	-2.176663	-3.270844	-6.632329	9.185544	30.284373	4.562740	4.730600	-2.548420	0.738768	0.647215	0.108825	-1.000000	-1.000000	-1.000000	-1.000000	-1.000000	-1.000000	-1.000000	78.551724	0.000000	-1.000000	-1.000000	1484171.000000	1770064464.796571
-5091.255000	-17728.785000	-3947.040000	9341.865000	-7721.415000	-3838.140000	7068.240000	-1167.705000	2.068276	-1.374328	0.282561	-1.082428	-2.064538	-3.392293	11.544723	27.761426	4.562740	4.730600	-2.548420	0.738768	0.647215	0.108825	-1.000000	-1.000000	-1.000000	-1.000000	-1.000000	-1.000000	-1.000000	78.551724	0.000000	-1.000000	-1.000000	1484172.000000	1770064464.796578
-5051.835000	-17750.070000	-4003.785000	9326.115000	-7735.860000	-3852.495000	7055.100000	-1193.490000	-12.822841	-13.595365	-12.872368	-9.703394	-8.646932	-6.414691	7.279208	0.017546	4.562740	4.730600	-2.548420	0.738768	0.647215	0.108825	-1.000000	-1.000000	-1.000000	-1.000000	-1.000000	-1.000000	-1.000000	78.551724	0.000000	-1.000000	-1.000000	1484173.000000	1770064464.801924
-5138.370000	-17835.615000	-4062.555000	9227.385000	-7839.945000	-3949.380000	6920.100000	-1210.725000	-28.845775	-33.221866	-35.626333	-26.346692	-22.448164	-16.950710	-3.530618	-38.831757	4.562740	4.730600	-2.548420	0.738768	0.647215	0.108825	-1.000000	-1.000000	-1.000000	-1.000000	-1.000000	-1.000000	-1.000000	78.551724	0.000000	-1.000000	-1.000000	1484174.000000	1770064464.801930
-5150.655000	-17868.420000	-4034.295000	9204.345000	-7863.345000	-3969.945000	6925.185000	-1162.440000	-36.900067	-49.058218	-51.375153	-40.593968	-35.636230	-29.001959	-19.527280	-62.913940	4.562740	4.730600	-2.548420	0.738768	0.647215	0.108825	-1.000000	-1.000000	-1.000000	-1.000000	-1.000000	-1.000000	-1.000000	78.551724	0.000000	-1.000000	-1.000000	1484175.000000	1770064464.804413
-5099.085000	-17766.810000	-3953.475000	9241.425000	-7832.925000	-3947.400000	6950.295000	-1190.385000	-33.731016	-49.642165	-45.039712	-42.376862	-39.397718	-34.211527	-32.277151	-55.938551	4.562740	4.730600	-2.548420	0.738768	0.647215	0.108825	-1.000000	-1.000000	-1.000000	-1.000000	-1.000000	-1.000000	-1.000000	78.551724	0.000000	-1.000000	-1.000000	1484176.000000	1770064464.804418
-5087.745000	-17740.215000	-3937.455000	9282.240000	-7792.380000	-3919.950000	6956.370000	-1201.095000	-19.172795	-28.406485	-15.381315	-27.061858	-28.141098	-26.544950	-31.593202	-24.115512	4.562740	4.730600	-2.548420	0.738768	0.647215	0.108825	-1.000000	-1.000000	-1.000000	-1.000000	-1.000000	-1.000000	-1.000000	78.551724	0.000000	-1.000000	-1.000000	1484177.000000	1770064464.808403
-5100.255000	-17766.540000	-3920.355000	9322.245000	-7764.840000	-3897.000000	6968.610000	-1206.540000	3.432862	9.238984	23.974846	2.644896	-2.527465	-5.903118	-16.054405	11.599502	4.562740	4.730600	-2.548420	0.738768	0.647215	0.108825	-1.000000	-1.000000	-1.000000	-1.000000	-1.000000	-1.000000	-1.000000	78.551724	0.000000	-1.000000	-1.000000	1484178.000000	1770064464.808411
-5098.185000	-17787.330000	-3952.170000	9315.225000	-7761.870000	-3881.070000	6978.735000	-1185.165000	25.556175	44.022244	52.805132	35.341115	28.058104	20.275938	6.515281	33.913225	4.562740	4.730600	-2.548420	0.738768	0.647215	0.108825	-1.000000	-1.000000	-1.000000	-1.000000	-1.000000	-1.000000	-1.000000	78.551724	0.000000	-1.000000	-1.000000	1484179.000000	1770064464.813187
-5090.580000	-17769.780000	-3946.770000	9313.515000	-7767.045000	-3881.790000	6975.135000	-1177.380000	38.147220	57.037843	56.578892	54.570008	48.260564	39.503953	23.823305	39.106856	4.562740	4.730600	-2.548420	0.738768	0.647215	0.108825	-1.000000	-1.000000	-1.000000	-1.000000	-1.000000	-1.000000	-1.000000	78.551724	0.000000	-1.000000	-1.000000	1484180.000000	1770064464.813197
-5073.930000	-17749.665000	-3929.715000	9330.885000	-7750.035000	-3863.970000	6992.955000	-1165.275000	37.315813	46.219642	37.310885	51.021934	48.023269	42.762923	26.970796	33.484222	0.122080	-0.564620	0.106820	0.732542	0.661192	0.105346	-1.000000	-1.000000	-1.000000	-1.000000	-1.000000	-1.000000	-1.000000	78.551724	0.000000	-1.000000	-1.000000	1484181.000000	1770064464.816367
-5056.155000	-17736.390000	-3918.600000	9337.545000	-7743.825000	-3857.895000	6986.205000	-1164.735000	24.958185	24.042374	10.563144	29.811312	30.570257	31.103857	17.833862	23.528452	0.122080	-0.564620	0.106820	0.732542	0.661192	0.105346	-1.000000	-1.000000	-1.000000	-1.000000	-1.000000	-1.000000	-1.000000	78.551724	0.000000	-1.000000	-1.000000	1484182.000000	1770064464.816373
-5047.110000	-17715.015000	-3899.430000	9355.050000	-7727.400000	-3844.755000	7008.570000	-1164.915000	8.134097	4.313074	-8.972656	4.977470	8.655311	13.787719	7.417663	11.762843	0.122080	-0.564620	0.106820	0.732542	0.661192	0.105346	-1.000000	-1.000000	-1.000000	-1.000000	-1.000000	-1.000000	-1.000000	78.551724	0.000000	-1.000000	-1.000000	1484183.000000	1770064464.824596
-5023.035000	-17680.905000	-3865.455000	9388.620000	-7696.080000	-3819.240000	7041.600000	-1114.290000	-5.535019	-6.736142	-17.204870	-11.857281	-6.588300	-0.263583	4.518501	-0.347470	0.122080	-0.564620	0.106820	0.732542	0.661192	0.105346	-1.000000	-1.000000	-1.000000	-1.000000	-1.000000	-1.000000	-1.000000	78.551724	0.000000	-1.000000	-1.000000	1484184.000000	1770064464.824617
-5051.115000	-17719.920000	-3906.990000	9344.655000	-7739.325000	-3861.225000	7001.460000	-1108.620000	-14.758411	-13.250696	-20.064091	-19.951279	-14.602765	-10.140619	6.265652	-9.752451	0.122080	-0.564620	0.106820	0.732542	0.661192	0.105346	-1.000000	-1.000000	-1.000000	-1.000000	-1.000000	-1.000000	-1.000000	78.551724	0.000000	-1.000000	-1.000000	1484185.000000	1770064464.824628
-5037.660000	-17704.710000	-3885.705000	9369.900000	-7709.130000	-3833.010000	7013.430000	-1116.900000	-21.582144	-21.630400	-23.828378	-25.364286	-21.167294	-19.521041	3.654052	-14.113693	0.122080	-0.564620	0.106820	0.732542	0.661192	0.105346	-1.000000	-1.000000	-1.000000	-1.000000	-1.000000	-1.000000	-1.000000	78.551724	0.000000	-1.000000	-1.000000	1484186.000000	1770064464.824633
-5087.385000	-17761.680000	-3939.660000	9319.185000	-7751.925000	-3877.425000	6971.490000	-1143.990000	-25.038707	-30.128006	-27.305512	-30.391860	-27.752594	-28.218511	-6.458058	-15.267737	0.122080	-0.564620	0.106820	0.732542	0.661192	0.105346	-1.000000	-1.000000	-1.000000	-1.000000	-1.000000	-1.000000	-1.000000	78.551724	0.000000	-1.000000	-1.000000	1484187.000000	1770064464.828945
-5099.400000	-17764.875000	-3947.220000	9308.430000	-7766.370000	-3890.790000	6940.755000	-1243.305000	-23.264469	-32.587760	-25.801883	-32.097384	-30.891778	-32.595947	-20.028579	-17.750445	0.122080	-0.564620	0.106820	0.732542	0.661192	0.105346	-1.000000	-1.000000	-1.000000	-1.000000	-1.000000	-1.000000	-1.000000	78.551724	0.000000	-1.000000	-1.000000	1484188.000000	1770064464.828955
-5057.775000	-17714.880000	-3901.005000	9350.010000	-7729.875000	-3855.555000	6959.205000	-1198.440000	-15.821496	-25.200095	-16.183529	-25.988842	-26.494517	-28.937324	-30.130746	-22.451627	0.122080	-0.564620	0.106820	0.732542	0.661192	0.105346	-1.000000	-1.000000	-1.000000	-1.000000	-1.000000	-1.000000	-1.000000	78.551724	0.000000	-1.000000	-1.000000	1484189.000000	1770064464.832577
-5074.515000	-17749.530000	-3941.865000	9305.010000	-7772.175000	-3897.495000	6904.485000	-1143.990000	-3.740532	-8.460367	0.881295	-10.354674	-13.081853	-15.719567	-30.348874	-22.229331	0.122080	-0.564620	0.106820	0.732542	0.661192	0.105346	-1.000000	-1.000000	-1.000000	-1.000000	-1.000000	-1.000000	-1.000000	78.551724	0.000000	-1.000000	-1.000000	1484190.000000	1770064464.832586
-5093.460000	-17752.725000	-3937.320000	9309.600000	-7768.440000	-3900.015000	6833.070000	-1158.480000	8.732222	10.875142	18.479198	9.540124	5.018120	2.909147	-19.901159	-9.820957	-9.293340	-4.013380	3.433500	0.729918	0.673399	0.104980	-1.000000	-1.000000	-1.000000	-1.000000	-1.000000	-1.000000	-1.000000	78.551724	0.000000	-1.000000	-1.000000	1484191.000000	1770064464.836424
-5080.140000	-17721.045000	-3903.615000	9350.460000	-7725.690000	-3854.250000	6947.955000	-1106.415000	16.377407	24.123358	28.159194	25.590739	20.903545	19.936864	-2.761461	11.059036	-9.293340	-4.013380	3.433500	0.729918	0.673399	0.104980	-1.000000	-1.000000	-1.000000	-1.000000	-1.000000	-1.000000	-1.000000	78.551724	0.000000	-1.000000	-1.000000	1484192.000000	1770064464.836434
-5059.845000	-17726.310000	-3910.770000	9336.285000	-7741.620000	-3863.340000	7028.685000	-1136.610000	17.342827	26.909765	26.525982	32.577585	29.576493	30.286829	18.412915	28.261242	-9.293340	-4.013380	3.433500	0.729918	0.673399	0.104980	-1.000000	-1.000000	-1.000000	-1.000000	-1.000000	-1.000000	-1.000000	78.551724	0.000000	-1.000000	-1.000000	1484193.000000	1770064464.840519
-5059.530000	-17744.805000	-3924.225000	9318.105000	-7761.240000	-3883.545000	7004.745000	-1201.680000	13.655052	19.739152	15.712072	28.398602	27.963292	30.691673	39.414827	30.854875	-9.293340	-4.013380	3.433500	0.729918	0.673399	0.104980	-1.000000	-1.000000	-1.000000	-1.000000	-1.000000	-1.000000	-1.000000	78.551724	0.000000	-1.000000	-1.000000	1484194.000000	1770064464.840527
-5072.040000	-17763.480000	-3941.280000	9316.260000	-7756.515000	-3874.005000	7007.895000	-1201.320000	8.559274	7.113083	1.350563	14.852795	16.501617	20.735877	49.728479	16.815779	-9.293340	-4.013380	3.433500	0.729918	0.673399	0.104980	-1.000000	-1.000000	-1.000000	-1.000000	-1.000000	-1.000000	-1.000000	78.551724	0.000000	-1.000000	-1.000000	1484195.000000	1770064464.844449
-5036.940000	-17716.545000	-3899.520000	9355.860000	-7717.770000	-3842.955000	6989.580000	-1166.085000	4.664327	-3.603451	-9.262451	-0.833977	1.658198	5.770925	40.745165	-3.210397	-9.293340	-4.013380	3.433500	0.729918	0.673399	0.104980	-1.000000	-1.000000	-1.000000	-1.000000	-1.000000	-1.000000	-1.000000	78.551724	0.000000	-1.000000	-1.000000	1484196.000000	1770064464.844459
-5054.715000	-17724.240000	-3917.070000	9329.310000	-7751.250000	-3891.780000	6939.765000	-1119.285000	3.036307	-6.749737	-11.018605	-10.424259	-8.366813	-6.684947	14.512897	-13.081234	-9.293340	-4.013380	3.433500	0.729918	0.673399	0.104980	-1.000000	-1.000000	-1.000000	-1.000000	-1.000000	-1.000000	-1.000000	78.551724	0.000000	-1.000000	-1.000000	1484197.000000	1770064464.848458
-5082.210000	-17761.140000	-3950.190000	9305.145000	-7766.415000	-3888.855000	7045.740000	-1106.415000	0.837662	-4.404589	-6.452152	-12.692114	-11.795579	-14.065219	-16.852188	-7.125405	-9.293340	-4.013380	3.433500	0.729918	0.673399	0.104980	-1.000000	-1.000000	-1.000000	-1.000000	-1.000000	-1.000000	-1.000000	78.551724	0.000000	-1.000000	-1.000000	1484198.000000	1770064464.848469
-5101.425000	-17774.730000	-3958.470000	9291.825000	-7779.915000	-3884.220000	7060.230000	-1172.745000	-5.452079	-3.145587	-2.480285	-11.688307	-11.702039	-16.553514	-35.570383	3.878885	-9.293340	-4.013380	3.433500	0.729918	0.673399	0.104980	-1.000000	-1.000000	-1.000000	-1.000000	-1.000000	-1.000000	-1.000000	78.551724	0.000000	-1.000000	-1.000000	1484199.000000	1770064464.855045
-5059.440000	-17725.320000	-3917.565000	9328.950000	-7743.870000	-3861.900000	7010.055000	-1199.295000	-12.932093	-4.533929	-1.540121	-9.191487	-9.351637	-13.146177	-32.376200	5.441837	-9.293340	-4.013380	3.433500	0.729918	0.673399	0.104980	-1.000000	-1.000000	-1.000000	-1.000000	-1.000000	-1.000000	-1.000000	78.551724	0.000000	-1.000000	-1.000000	1484200.000000	1770064464.855056
-5084.820000	-17757.765000	-3952.170000	9290.745000	-7780.995000	-3900.780000	6969.060000	-1197.810000	-15.425838	-5.685865	-2.190840	-5.572477	-5.452618	-5.959406	-18.832315	-5.619832	-2.594200	-4.181240	-1.754900	0.734190	0.659605	0.104797	-1.000000	-1.000000	-1.000000	-1.000000	-1.000000	-1.000000	-1.000000	78.551724	0.000000	-1.000000	-1.000000	1484201.000000	1770064464.859331
-5149.440000	-17809.740000	-3993.165000	9259.020000	-7807.815000	-3929.130000	6957.855000	-1234.890000	-12.641057	-6.182487	-4.118219	-2.937094	-2.529089	-0.714121	-12.709737	-19.582395	-2.594200	-4.181240	-1.754900	0.734190	0.659605	0.104797	-1.000000	-1.000000	-1.000000	-1.000000	-1.000000	-1.000000	-1.000000	78.551724	0.000000	-1.000000	-1.000000	1484202.000000	1770064464.859343
-5097.150000	-17757.315000	-3941.820000	9311.355000	-7761.870000	-3880.665000	7024.995000	-1169.595000	-8.202461	-6.254006	-6.009138	-1.614187	-1.133421	0.639369	-14.949377	-22.940631	-2.594200	-4.181240	-1.754900	0.734190	0.659605	0.104797	-1.000000	-1.000000	-1.000000	-1.000000	-1.000000	-1.000000	-1.000000	78.551724	0.000000	-1.000000	-1.000000	1484203.000000	1770064464.860513
-5062.185000	-17730.225000	-3919.815000	9327.060000	-7749.270000	-3862.440000	7011.900000	-1133.955000	-1.487056	-2.529943	-3.427583	1.587311	1.499989	1.811721	-12.806399	-9.333972	-2.594200	-4.181240	-1.754900	0.734190	0.659605	0.104797	-1.000000	-1.000000	-1.000000	-1.000000	-1.000000	-1.000000	-1.000000	78.551724	0.000000	-1.000000	-1.000000	1484204.000000	1770064464.860524
-5093.370000	-17769.825000	-3954.195000	9302.220000	-7764.795000	-3879.180000	6972.885000	-1144.980000	8.603988	5.578782	4.440370	7.286443	6.072439	5.294906	-0.052756	13.999104	-2.594200	-4.181240	-1.754900	0.734190	0.659605	0.104797	-1.000000	-1.000000	-1.000000	-1.000000	-1.000000	-1.000000	-1.000000	78.551724	0.000000	-1.000000	-1.000000	1484205.000000	1770064464.864670
-5066.145000	-17735.985000	-3917.430000	9342.585000	-7725.780000	-3856.005000	6986.520000	-1125.675000	17.384420	12.141902	11.919307	11.737691	9.976569	9.244925	16.276818	30.817280	-2.594200	-4.181240	-1.754900	0.734190	0.659605	0.104797	-1.000000	-1.000000	-1.000000	-1.000000	-1.000000	-1.000000	-1.000000	78.551724	0.000000	-1.000000	-1.000000	1484206.000000	1770064464.864676
-5054.490000	-17721.765000	-3904.785000	9353.475000	-7717.590000	-3851.415000	7009.245000	-1146.150000	20.191105	13.549060	14.992622	13.105631	11.955125	11.231871	25.525286	29.868453	-2.594200	-4.181240	-1.754900	0.734190	0.659605	0.104797	-1.000000	-1.000000	-1.000000	-1.000000	-1.000000	-1.000000	-1.000000	78.551724	0.000000	-1.000000	-1.000000	1484207.000000	1770064464.868371
-5104.845000	-17768.880000	-3949.200000	9310.320000	-7758.630000	-3885.030000	6977.745000	-1200.285000	16.175461	10.656563	13.110068	11.299310	11.179206	9.382346	23.440644	13.150480	-2.594200	-4.181240	-1.754900	0.734190	0.659605	0.104797	-1.000000	-1.000000	-1.000000	-1.000000	-1.000000	-1.000000	-1.000000	78.551724	0.000000	-1.000000	-1.000000	1484208.000000	1770064464.868379
-5079.690000	-17731.215000	-3913.560000	9344.880000	-7727.715000	-3856.770000	6960.195000	-1200.780000	5.537731	3.340868	5.211954	4.599393	5.194146	2.516152	13.193977	-8.853091	-2.594200	-4.181240	-1.754900	0.734190	0.659605	0.104797	-1.000000	-1.000000	-1.000000	-1.000000	-1.000000	-1.000000	-1.000000	78.551724	0.000000	-1.000000	-1.000000	1484209.000000	1770064464.872494
-5039.865000	-17698.995000	-3884.985000	9370.080000	-7704.765000	-3834.630000	7010.460000	-1174.860000	-7.220079	-5.574284	-5.560072	-4.874071	-4.135969	-5.784898	1.318529	-24.443629	-2.594200	-4.181240	-1.754900	0.734190	0.659605	0.104797	-1.000000	-1.000000	-1.000000	-1.000000	-1.000000	-1.000000	-1.000000	78.551724	0.000000	-1.000000	-1.000000	1484210.000000	1770064464.872504
-5084.730000	-17769.870000	-3959.865000	9290.025000	-7783.470000	-3898.980000	6980.445000	-1158.750000	-13.953712	-10.031388	-12.384231	-11.447749	-11.105989	-9.957610	-6.323328	-25.344117	-1.724380	3.830260	-6.836480	0.741026	0.647154	0.106384	-1.000000	-1.000000	-1.000000	-1.000000	-1.000000	-1.000000	-1.000000	78.551724	0.000000	-1.000000	-1.000000	1484211.000000	1770064464.876419
-5104.215000	-17782.965000	-3973.140000	9271.350000	-7803.045000	-3909.690000	6966.900000	-1181.160000	-13.603542	-10.457597	-14.797096	-15.206946	-15.330251	-10.971637	-9.364817	-13.193579	-1.724380	3.830260	-6.836480	0.741026	0.647154	0.106384	-1.000000	-1.000000	-1.000000	-1.000000	-1.000000	-1.000000	-1.000000	78.551724	0.000000	-1.000000	-1.000000	1484212.000000	1770064464.876427
-5099.580000	-17775.630000	-3971.790000	9274.095000	-7799.265000	-3906.990000	6974.460000	-1189.890000	-11.808748	-11.270854	-16.084182	-18.625333	-18.793231	-12.452980	-10.366582	0.820350	-1.724380	3.830260	-6.836480	0.741026	0.647154	0.106384	-1.000000	-1.000000	-1.000000	-1.000000	-1.000000	-1.000000	-1.000000	78.551724	0.000000	-1.000000	-1.000000	1484213.000000	1770064464.880576
-5100.615000	-17774.325000	-3973.230000	9286.110000	-7784.910000	-3911.040000	6965.685000	-1197.585000	-10.324118	-11.437006	-14.744305	-18.363177	-18.186907	-12.537368	-8.482521	7.434662	-1.724380	3.830260	-6.836480	0.741026	0.647154	0.106384	-1.000000	-1.000000	-1.000000	-1.000000	-1.000000	-1.000000	-1.000000	78.551724	0.000000	-1.000000	-1.000000	1484214.000000	1770064464.880587
-5096.835000	-17771.085000	-3954.465000	9307.980000	-7759.350000	-3891.240000	6965.145000	-1194.660000	-6.798589	-7.455756	-7.837199	-10.147223	-9.511445	-7.486204	-3.472461	5.995614	-1.724380	3.830260	-6.836480	0.741026	0.647154	0.106384	-1.000000	-1.000000	-1.000000	-1.000000	-1.000000	-1.000000	-1.000000	78.551724	0.000000	-1.000000	-1.000000	1484215.000000	1770064464.884561
-5066.370000	-17757.270000	-3939.120000	9316.080000	-7750.755000	-3885.435000	6964.605000	-1188.585000	0.054095	0.765406	3.838241	4.647774	5.693270	2.609325	1.152772	2.164793	-1.724380	3.830260	-6.836480	0.741026	0.647154	0.106384	-1.000000	-1.000000	-1.000000	-1.000000	-1.000000	-1.000000	-1.000000	78.551724	0.000000	-1.000000	-1.000000	1484216.000000	1770064464.884572
-5034.645000	-17712.090000	-3900.645000	9357.075000	-7711.875000	-3848.400000	6984.180000	-1181.880000	9.766637	10.885187	16.556417	20.235886	21.426961	14.231670	3.956558	2.572055	-1.724380	3.830260	-6.836480	0.741026	0.647154	0.106384	-1.000000	-1.000000	-1.000000	-1.000000	-1.000000	-1.000000	-1.000000	78.551724	0.000000	-1.000000	-1.000000	1484217.000000	1770064464.897599
-5050.845000	-17657.955000	-3847.320000	9410.850000	-7663.545000	-3799.305000	7004.385000	-1154.295000	18.499395	19.661988	25.527663	30.231979	31.004875	22.849383	6.576229	8.277230	-1.724380	3.830260	-6.836480	0.741026	0.647154	0.106384	-1.000000	-1.000000	-1.000000	-1.000000	-1.000000	-1.000000	-1.000000	78.551724	0.000000	-1.000000	-1.000000	1484218.000000	1770064464.897609
-5037.930000	-17616.420000	-3821.445000	9437.670000	-7642.980000	-3779.100000	7016.220000	-1087.740000	20.036449	24.157651	27.440185	31.208817	30.883161	25.375966	8.792625	14.844426	-1.724380	3.830260	-6.836480	0.741026	0.647154	0.106384	-1.000000	-1.000000	-1.000000	-1.000000	-1.000000	-1.000000	-1.000000	78.551724	0.000000	-1.000000	-1.000000	1484219.000000	1770064464.897619
-5051.295000	-17695.845000	-3901.995000	9342.090000	-7740.765000	-3869.190000	6968.160000	-1150.830000	12.721174	22.087967	21.104401	22.600506	20.820655	19.927344	7.802873	16.788260	-1.724380	3.830260	-6.836480	0.741026	0.647154	0.106384	-1.000000	-1.000000	-1.000000	-1.000000	-1.000000	-1.000000	-1.000000	78.551724	0.000000	-1.000000	-1.000000	1484220.000000	1770064464.897624
-5055.345000	-17782.470000	-3952.755000	9295.380000	-7776.630000	-3889.980000	7008.795000	-1181.475000	0.747311	9.654945	5.380602	4.034082	1.392130	4.821249	2.349550	9.260972	0.503580	3.631880	-4.471180	0.736570	0.651793	0.100281	-1.000000	-1.000000	-1.000000	-1.000000	-1.000000	-1.000000	-1.000000	78.551724	0.000000	-1.000000	-1.000000	1484221.000000	1770064464.897630
-5140.440000	-17818.515000	-3997.755000	9263.655000	-7800.075000	-3910.680000	7000.065000	-1123.515000	-11.580288	-13.856598	-17.592545	-21.091944	-22.937874	-16.582799	-4.161804	-6.231191	0.503580	3.631880	-4.471180	0.736570	0.651793	0.100281	-1.000000	-1.000000	-1.000000	-1.000000	-1.000000	-1.000000	-1.000000	78.551724	0.000000	-1.000000	-1.000000	1484222.000000	1770064464.897635
-5088.105000	-17798.895000	-4005.090000	9274.410000	-7786.755000	-3902.175000	6982.695000	-1163.520000	-21.207526	-38.115351	-38.444278	-42.028619	-41.499031	-33.807848	-7.675899	-20.027942	0.503580	3.631880	-4.471180	0.736570	0.651793	0.100281	-1.000000	-1.000000	-1.000000	-1.000000	-1.000000	-1.000000	-1.000000	78.551724	0.000000	-1.000000	-1.000000	1484223.000000	1770064464.900473
