Channel1	Channel2	Channel3	Channel4	Channel5	Channel6	Channel7	Channel8	FilteredChannel1	FilteredChannel2	FilteredChannel3	FilteredChannel4	FilteredChannel5	FilteredChannel6	FilteredChannel7	FilteredChannel8	GyroX	GyroY	GyroZ	AccX	AccY	AccZ	PPG1	PPG2	rawPPG1	rawPPG2	rawPPG3	Hr	Hrv	Battery	Trigger	PhysicalTrigger	AutoTrigger	NumMeasurements	Timestamp
-6760.530000	-21353.940000	-4884.795000	7940.925000	-12060.000000	-8565.030000	5479.335000	-883.215000	-16.456646	-20.983828	-24.066094	-29.362146	-32.966542	-27.945605	-7.335318	-25.028703	-0.930860	3.708180	2.670500	0.666929	0.704649	0.153320	-1.000000	-1.000000	-1.000000	-1.000000	-1.000000	-1.000000	-1.000000	78.758621	0.000000	-1.000000	-1.000000	1441072.000000	1770064378.560124
-6746.265000	-21353.940000	-4881.870000	7950.555000	-12049.065000	-8548.605000	5480.145000	-860.760000	-16.166523	-18.585878	-19.850083	-21.869939	-22.813789	-22.684490	-9.284051	-21.557345	-0.930860	3.708180	2.670500	0.666929	0.704649	0.153320	-1.000000	-1.000000	-1.000000	-1.000000	-1.000000	-1.000000	-1.000000	78.758621	0.000000	-1.000000	-1.000000	1441073.000000	1770064378.564229
-6788.655000	-21388.320000	-4916.880000	7925.040000	-12067.425000	-8546.895000	5464.530000	-869.670000	-6.039487	-5.432443	-4.215977	-1.797628	-0.116254	-3.620271	-4.762145	-5.849265	-0.930860	3.708180	2.670500	0.666929	0.704649	0.153320	-1.000000	-1.000000	-1.000000	-1.000000	-1.000000	-1.000000	-1.000000	78.758621	0.000000	-1.000000	-1.000000	1441074.000000	1770064378.564240
-6776.145000	-21388.005000	-4925.520000	7905.420000	-12086.595000	-8561.430000	5454.360000	-846.090000	7.056815	9.866727	12.640912	18.110550	21.293432	17.737852	2.154507	13.601576	-0.930860	3.708180	2.670500	0.666929	0.704649	0.153320	-1.000000	-1.000000	-1.000000	-1.000000	-1.000000	-1.000000	-1.000000	78.758621	0.000000	-1.000000	-1.000000	1441075.000000	1770064378.564740
-6764.085000	-21400.920000	-4940.550000	7881.120000	-12108.690000	-8586.945000	5462.505000	-852.120000	14.613602	17.248099	19.542460	24.673246	27.795065	26.980830	5.350006	26.186388	-0.930860	3.708180	2.670500	0.666929	0.704649	0.153320	-1.000000	-1.000000	-1.000000	-1.000000	-1.000000	-1.000000	-1.000000	78.758621	0.000000	-1.000000	-1.000000	1441076.000000	1770064378.564750
-6755.850000	-21370.185000	-4896.540000	7936.830000	-12047.940000	-8536.770000	5438.340000	-856.755000	14.391693	14.220371	14.605528	16.268139	17.952317	19.843887	3.162757	26.205946	-0.930860	3.708180	2.670500	0.666929	0.704649	0.153320	-1.000000	-1.000000	-1.000000	-1.000000	-1.000000	-1.000000	-1.000000	78.758621	0.000000	-1.000000	-1.000000	1441077.000000	1770064378.568734
-6730.830000	-21348.000000	-4873.950000	7961.535000	-12026.115000	-8518.995000	5439.015000	-849.870000	10.514113	7.487916	6.450578	4.343636	4.166842	6.313167	-0.945208	15.498883	-0.930860	3.708180	2.670500	0.666929	0.704649	0.153320	-1.000000	-1.000000	-1.000000	-1.000000	-1.000000	-1.000000	-1.000000	78.758621	0.000000	-1.000000	-1.000000	1441078.000000	1770064378.568743
-6770.970000	-21397.770000	-4933.170000	7898.490000	-12095.055000	-8583.480000	5481.900000	-876.645000	7.932199	4.604284	3.532605	-0.056695	-1.769667	-1.922834	-1.895830	1.645889	-0.930860	3.708180	2.670500	0.666929	0.704649	0.153320	-1.000000	-1.000000	-1.000000	-1.000000	-1.000000	-1.000000	-1.000000	78.758621	0.000000	-1.000000	-1.000000	1441079.000000	1770064378.573428
-6773.400000	-21382.560000	-4916.385000	7912.980000	-12077.190000	-8563.410000	5451.120000	-839.115000	6.359657	5.019134	4.383089	1.584444	-1.101798	-3.997526	1.856528	-8.213852	-0.930860	3.708180	2.670500	0.666929	0.704649	0.153320	-1.000000	-1.000000	-1.000000	-1.000000	-1.000000	-1.000000	-1.000000	78.758621	0.000000	-1.000000	-1.000000	1441080.000000	1770064378.573437
-6751.575000	-21344.220000	-4871.295000	7958.790000	-12033.675000	-8531.910000	5482.620000	-810.675000	2.723377	4.549498	3.956321	2.650730	-0.194165	-4.052068	6.585475	-11.132773	-2.502640	3.433500	1.632820	0.665526	0.706602	0.151672	-1.000000	-1.000000	-1.000000	-1.000000	-1.000000	-1.000000	-1.000000	78.758621	0.000000	-1.000000	-1.000000	1441081.000000	1770064378.576941
-6726.465000	-21322.215000	-4846.815000	7985.430000	-12008.655000	-8502.930000	5500.080000	-846.945000	-2.263055	3.181252	2.537132	2.207515	0.070593	-2.762468	8.946162	-8.676901	-2.502640	3.433500	1.632820	0.665526	0.706602	0.151672	-1.000000	-1.000000	-1.000000	-1.000000	-1.000000	-1.000000	-1.000000	78.758621	0.000000	-1.000000	-1.000000	1441082.000000	1770064378.576951
-6698.025000	-21303.990000	-4834.530000	7993.215000	-12001.455000	-8491.635000	5510.070000	-862.920000	-4.608923	3.045601	2.728997	2.522410	1.474414	0.229951	8.959380	-5.821986	-2.502640	3.433500	1.632820	0.665526	0.706602	0.151672	-1.000000	-1.000000	-1.000000	-1.000000	-1.000000	-1.000000	-1.000000	78.758621	0.000000	-1.000000	-1.000000	1441083.000000	1770064378.581359
-6707.520000	-21337.065000	-4873.905000	7950.780000	-12038.490000	-8522.010000	5423.220000	-832.860000	-3.112829	3.037695	3.238179	2.771754	2.686062	2.720849	5.552354	-5.743727	-2.502640	3.433500	1.632820	0.665526	0.706602	0.151672	-1.000000	-1.000000	-1.000000	-1.000000	-1.000000	-1.000000	-1.000000	78.758621	0.000000	-1.000000	-1.000000	1441084.000000	1770064378.581368
-6786.855000	-21418.830000	-4953.105000	7873.110000	-12112.470000	-8595.495000	5460.120000	-873.765000	-2.686989	-1.846296	-1.441200	-1.730945	-1.000202	0.383590	-3.193695	-6.853939	-2.502640	3.433500	1.632820	0.665526	0.706602	0.151672	-1.000000	-1.000000	-1.000000	-1.000000	-1.000000	-1.000000	-1.000000	78.758621	0.000000	-1.000000	-1.000000	1441085.000000	1770064378.598939
-6808.545000	-21428.055000	-4957.425000	7872.480000	-12115.440000	-8600.220000	5505.615000	-897.165000	-8.766325	-14.274158	-14.157570	-13.606260	-12.133706	-9.033968	-12.494738	-6.990347	-2.502640	3.433500	1.632820	0.665526	0.706602	0.151672	-1.000000	-1.000000	-1.000000	-1.000000	-1.000000	-1.000000	-1.000000	78.758621	0.000000	-1.000000	-1.000000	1441086.000000	1770064378.598960
-6774.030000	-21394.305000	-4925.610000	7902.540000	-12091.995000	-8570.565000	5494.635000	-887.985000	-17.892351	-26.995294	-27.276674	-25.741556	-23.905621	-19.418145	-13.875818	-5.244992	-2.502640	3.433500	1.632820	0.665526	0.706602	0.151672	-1.000000	-1.000000	-1.000000	-1.000000	-1.000000	-1.000000	-1.000000	78.758621	0.000000	-1.000000	-1.000000	1441087.000000	1770064378.598984
-6770.475000	-21381.480000	-4912.920000	7914.420000	-12073.590000	-8558.730000	5482.305000	-894.915000	-19.240450	-27.086249	-27.312005	-25.231463	-23.621625	-19.233764	-7.270175	-0.539626	-2.502640	3.433500	1.632820	0.665526	0.706602	0.151672	-1.000000	-1.000000	-1.000000	-1.000000	-1.000000	-1.000000	-1.000000	78.758621	0.000000	-1.000000	-1.000000	1441088.000000	1770064378.598996
-6806.070000	-21403.440000	-4929.840000	7898.850000	-12093.435000	-8572.815000	5470.605000	-897.795000	-8.271495	-11.122706	-10.767828	-8.821223	-7.772280	-5.360132	0.040779	5.690616	-2.502640	3.433500	1.632820	0.665526	0.706602	0.151672	-1.000000	-1.000000	-1.000000	-1.000000	-1.000000	-1.000000	-1.000000	78.758621	0.000000	-1.000000	-1.000000	1441089.000000	1770064378.599002
-6783.435000	-21402.180000	-4935.285000	7889.445000	-12119.670000	-8576.685000	5459.130000	-870.930000	7.438631	9.902042	10.741887	11.871742	12.066858	12.021858	2.785151	9.717689	-2.502640	3.433500	1.632820	0.665526	0.706602	0.151672	-1.000000	-1.000000	-1.000000	-1.000000	-1.000000	-1.000000	-1.000000	78.758621	0.000000	-1.000000	-1.000000	1441090.000000	1770064378.599007
-6737.310000	-21349.395000	-4878.540000	7945.335000	-12047.805000	-8541.045000	5467.725000	-834.255000	18.527811	23.501198	24.101500	23.840148	22.842732	21.181139	0.710046	11.371133	-6.607580	4.791640	-0.152600	0.666319	0.709898	0.152465	-1.000000	-1.000000	-1.000000	-1.000000	-1.000000	-1.000000	-1.000000	78.758621	0.000000	-1.000000	-1.000000	1441091.000000	1770064378.599013
-6676.740000	-21280.365000	-4817.115000	8002.125000	-11985.930000	-8489.430000	5530.320000	-820.845000	22.645803	27.254657	27.143882	25.434251	23.785723	20.227774	-1.394472	13.004675	-6.607580	4.791640	-0.152600	0.666319	0.709898	0.152465	-1.000000	-1.000000	-1.000000	-1.000000	-1.000000	-1.000000	-1.000000	78.758621	0.000000	-1.000000	-1.000000	1441092.000000	1770064378.599017
-6656.670000	-21261.420000	-4797.810000	8024.850000	-11965.185000	-8474.400000	5510.160000	-824.670000	22.192251	26.001906	25.442795	23.135954	22.143721	15.538193	2.413379	13.387485	-6.607580	4.791640	-0.152600	0.666319	0.709898	0.152465	-1.000000	-1.000000	-1.000000	-1.000000	-1.000000	-1.000000	-1.000000	78.758621	0.000000	-1.000000	-1.000000	1441093.000000	1770064378.602804
-6759.135000	-21373.875000	-4901.400000	7930.890000	-12049.920000	-8543.565000	5486.940000	-890.370000	17.946596	21.427713	20.969569	19.453948	19.823238	11.368976	9.961497	8.681507	-6.607580	4.791640	-0.152600	0.666319	0.709898	0.152465	-1.000000	-1.000000	-1.000000	-1.000000	-1.000000	-1.000000	-1.000000	78.758621	0.000000	-1.000000	-1.000000	1441094.000000	1770064378.602816
-6830.730000	-21448.395000	-4972.680000	7864.785000	-12120.570000	-8599.770000	5477.670000	-864.900000	6.097113	8.028522	8.112757	8.466451	9.985738	4.079151	11.853440	-1.742427	-6.607580	4.791640	-0.152600	0.666319	0.709898	0.152465	-1.000000	-1.000000	-1.000000	-1.000000	-1.000000	-1.000000	-1.000000	78.758621	0.000000	-1.000000	-1.000000	1441095.000000	1770064378.604720
-6794.730000	-21421.665000	-4952.430000	7879.950000	-12104.145000	-8586.045000	5467.365000	-891.675000	-14.020390	-15.760410	-15.005638	-12.749183	-10.761031	-9.789621	4.045291	-13.157990	-6.607580	4.791640	-0.152600	0.666319	0.709898	0.152465	-1.000000	-1.000000	-1.000000	-1.000000	-1.000000	-1.000000	-1.000000	78.758621	0.000000	-1.000000	-1.000000	1441096.000000	1770064378.604731
-6771.105000	-21387.420000	-4921.065000	7903.170000	-12084.930000	-8567.955000	5464.485000	-893.880000	-31.524455	-37.495153	-36.577758	-33.753799	-32.292498	-24.056116	-7.637962	-19.783933	-6.607580	4.791640	-0.152600	0.666319	0.709898	0.152465	-1.000000	-1.000000	-1.000000	-1.000000	-1.000000	-1.000000	-1.000000	78.758621	0.000000	-1.000000	-1.000000	1441097.000000	1770064378.609198
-6775.110000	-21384.855000	-4921.470000	7898.220000	-12077.820000	-8572.860000	5463.000000	-898.740000	-33.181795	-41.280515	-41.194116	-39.883116	-39.619257	-28.370071	-14.586475	-19.466445	-6.607580	4.791640	-0.152600	0.666319	0.709898	0.152465	-1.000000	-1.000000	-1.000000	-1.000000	-1.000000	-1.000000	-1.000000	78.758621	0.000000	-1.000000	-1.000000	1441098.000000	1770064378.609205
-6786.630000	-21373.290000	-4908.015000	7908.570000	-12077.460000	-8579.925000	5463.945000	-893.520000	-18.576483	-24.445273	-25.738768	-27.267080	-27.841005	-19.817663	-12.810120	-13.475032	-6.607580	4.791640	-0.152600	0.666319	0.709898	0.152465	-1.000000	-1.000000	-1.000000	-1.000000	-1.000000	-1.000000	-1.000000	78.758621	0.000000	-1.000000	-1.000000	1441099.000000	1770064378.612812
-6721.740000	-21303.630000	-4841.370000	7964.505000	-12052.260000	-8547.345000	5465.655000	-842.265000	1.130734	1.750140	-0.339206	-4.307013	-5.671381	-4.608123	-4.897095	-4.063641	-6.607580	4.791640	-0.152600	0.666319	0.709898	0.152465	-1.000000	-1.000000	-1.000000	-1.000000	-1.000000	-1.000000	-1.000000	78.758621	0.000000	-1.000000	-1.000000	1441100.000000	1770064378.612820
-6660.855000	-21258.765000	-4792.950000	8019.675000	-12007.845000	-8486.325000	5525.055000	-806.895000	16.108857	23.690211	22.191959	17.650785	13.941537	9.760801	4.128922	7.030381	-3.372460	7.217980	-2.807840	0.668333	0.705870	0.152282	-1.000000	-1.000000	-1.000000	-1.000000	-1.000000	-1.000000	-1.000000	78.758621	0.000000	-1.000000	-1.000000	1441101.000000	1770064378.619815
-6616.395000	-21216.375000	-4741.020000	8089.920000	-11900.160000	-8422.065000	5559.525000	-751.995000	24.635577	34.792401	35.153206	32.579534	26.068759	21.073265	12.160738	18.501154	-3.372460	7.217980	-2.807840	0.668333	0.705870	0.152282	-1.000000	-1.000000	-1.000000	-1.000000	-1.000000	-1.000000	-1.000000	78.758621	0.000000	-1.000000	-1.000000	1441102.000000	1770064378.619826
-6767.100000	-21411.675000	-4941.270000	7893.945000	-12068.325000	-8557.155000	5498.010000	-840.555000	27.511725	33.759117	36.071032	37.389253	31.894190	28.306671	17.555310	26.838660	-3.372460	7.217980	-2.807840	0.668333	0.705870	0.152282	-1.000000	-1.000000	-1.000000	-1.000000	-1.000000	-1.000000	-1.000000	78.758621	0.000000	-1.000000	-1.000000	1441103.000000	1770064378.620773
-6847.875000	-21489.525000	-5021.730000	7808.130000	-12171.870000	-8647.470000	5423.985000	-931.680000	20.129372	17.814649	20.646487	25.598277	26.551972	24.454139	14.695202	23.633854	-3.372460	7.217980	-2.807840	0.668333	0.705870	0.152282	-1.000000	-1.000000	-1.000000	-1.000000	-1.000000	-1.000000	-1.000000	78.758621	0.000000	-1.000000	-1.000000	1441104.000000	1770064378.620783
-6810.165000	-21434.310000	-4968.945000	7858.530000	-12130.830000	-8623.530000	5424.840000	-905.625000	-0.505667	-10.678987	-9.123891	-3.063417	5.289429	4.857919	0.766349	4.599936	-3.372460	7.217980	-2.807840	0.668333	0.705870	0.152282	-1.000000	-1.000000	-1.000000	-1.000000	-1.000000	-1.000000	-1.000000	78.758621	0.000000	-1.000000	-1.000000	1441105.000000	1770064378.625576
-6781.905000	-21401.235000	-4936.635000	7889.355000	-12096.180000	-8590.140000	5442.795000	-877.095000	-23.889648	-35.764890	-36.233164	-32.014413	-21.152319	-20.181084	-16.215980	-19.236227	-3.372460	7.217980	-2.807840	0.668333	0.705870	0.152282	-1.000000	-1.000000	-1.000000	-1.000000	-1.000000	-1.000000	-1.000000	78.758621	0.000000	-1.000000	-1.000000	1441106.000000	1770064378.625584
-6783.345000	-21408.210000	-4940.190000	7891.335000	-12087.405000	-8572.050000	5439.060000	-881.415000	-33.800398	-40.595780	-42.495785	-41.590598	-34.313218	-32.886894	-23.924335	-31.142756	-3.372460	7.217980	-2.807840	0.668333	0.705870	0.152282	-1.000000	-1.000000	-1.000000	-1.000000	-1.000000	-1.000000	-1.000000	78.758621	0.000000	-1.000000	-1.000000	1441107.000000	1770064378.632161
-6779.520000	-21402.675000	-4932.945000	7900.785000	-12080.520000	-8559.630000	5460.570000	-901.080000	-25.118103	-24.258280	-26.235544	-28.058000	-27.067347	-25.478278	-17.541805	-25.941534	-3.372460	7.217980	-2.807840	0.668333	0.705870	0.152282	-1.000000	-1.000000	-1.000000	-1.000000	-1.000000	-1.000000	-1.000000	78.758621	0.000000	-1.000000	-1.000000	1441108.000000	1770064378.632173
-6775.470000	-21394.845000	-4923.000000	7908.795000	-12068.325000	-8554.770000	5467.950000	-897.840000	-7.018085	-0.450074	-1.241569	-3.980051	-7.657649	-5.757078	-2.284923	-11.613888	-3.372460	7.217980	-2.807840	0.668333	0.705870	0.152282	-1.000000	-1.000000	-1.000000	-1.000000	-1.000000	-1.000000	-1.000000	78.758621	0.000000	-1.000000	-1.000000	1441109.000000	1770064378.632771
-6759.405000	-21383.190000	-4918.590000	7910.010000	-12068.820000	-8548.155000	5472.720000	-884.025000	7.493547	16.227271	16.894471	14.530356	9.728333	11.413539	11.664044	1.491378	-3.372460	7.217980	-2.807840	0.668333	0.705870	0.152282	-1.000000	-1.000000	-1.000000	-1.000000	-1.000000	-1.000000	-1.000000	78.758621	0.000000	-1.000000	-1.000000	1441110.000000	1770064378.632778
-6772.635000	-21380.580000	-4907.205000	7929.765000	-12052.395000	-8544.195000	5472.360000	-875.295000	13.638045	21.975322	23.102921	20.880040	16.675211	17.406954	16.778604	9.513742	-1.876980	6.622840	-5.127360	0.667662	0.706541	0.151367	-1.000000	-1.000000	-1.000000	-1.000000	-1.000000	-1.000000	-1.000000	78.758621	0.000000	-1.000000	-1.000000	1441111.000000	1770064378.636757
-6761.295000	-21379.230000	-4910.175000	7925.265000	-12061.935000	-8559.765000	5466.060000	-862.965000	17.068116	24.183899	24.588125	21.825434	17.140327	16.044710	13.871537	15.413243	-1.876980	6.622840	-5.127360	0.667662	0.706541	0.151367	-1.000000	-1.000000	-1.000000	-1.000000	-1.000000	-1.000000	-1.000000	78.758621	0.000000	-1.000000	-1.000000	1441112.000000	1770064378.636766
-6755.940000	-21367.125000	-4900.860000	7934.535000	-12056.895000	-8547.615000	5481.450000	-870.255000	23.102812	28.532916	27.973398	25.059829	19.132715	15.181279	9.349693	22.172718	-1.876980	6.622840	-5.127360	0.667662	0.706541	0.151367	-1.000000	-1.000000	-1.000000	-1.000000	-1.000000	-1.000000	-1.000000	78.758621	0.000000	-1.000000	-1.000000	1441113.000000	1770064378.641601
-6761.565000	-21372.345000	-4906.845000	7922.295000	-12075.390000	-8559.450000	5474.430000	-867.780000	26.668782	28.653187	27.666226	25.899553	20.495440	14.716702	6.806143	26.003675	-1.876980	6.622840	-5.127360	0.667662	0.706541	0.151367	-1.000000	-1.000000	-1.000000	-1.000000	-1.000000	-1.000000	-1.000000	78.758621	0.000000	-1.000000	-1.000000	1441114.000000	1770064378.641607
-6746.895000	-21359.520000	-4895.460000	7929.855000	-12068.820000	-8558.865000	5465.070000	-863.190000	18.968031	15.488887	14.725700	14.959046	12.670169	8.486906	3.914211	19.983136	-1.876980	6.622840	-5.127360	0.667662	0.706541	0.151367	-1.000000	-1.000000	-1.000000	-1.000000	-1.000000	-1.000000	-1.000000	78.758621	0.000000	-1.000000	-1.000000	1441115.000000	1770064378.644855
-6729.255000	-21343.320000	-4883.310000	7938.045000	-12061.755000	-8547.570000	5465.115000	-857.250000	0.614422	-8.222386	-8.500936	-6.691037	-4.809667	-4.838061	-2.239586	4.014369	-1.876980	6.622840	-5.127360	0.667662	0.706541	0.151367	-1.000000	-1.000000	-1.000000	-1.000000	-1.000000	-1.000000	-1.000000	78.758621	0.000000	-1.000000	-1.000000	1441116.000000	1770064378.644862
-6742.845000	-21360.015000	-4897.620000	7935.615000	-12055.410000	-8546.715000	5468.085000	-850.140000	-19.052398	-30.492762	-30.490303	-28.121984	-22.691388	-18.912271	-10.433734	-13.897480	-1.876980	6.622840	-5.127360	0.667662	0.706541	0.151367	-1.000000	-1.000000	-1.000000	-1.000000	-1.000000	-1.000000	-1.000000	78.758621	0.000000	-1.000000	-1.000000	1441117.000000	1770064378.648709
-6756.120000	-21366.540000	-4896.720000	7940.115000	-12048.165000	-8532.810000	5456.295000	-860.895000	-31.917690	-41.871717	-41.656320	-39.100629	-31.477904	-26.213778	-16.957326	-25.461385	-1.876980	6.622840	-5.127360	0.667662	0.706541	0.151367	-1.000000	-1.000000	-1.000000	-1.000000	-1.000000	-1.000000	-1.000000	78.758621	0.000000	-1.000000	-1.000000	1441118.000000	1770064378.648719
-6750.540000	-21356.280000	-4887.810000	7941.555000	-12051.180000	-8533.395000	5485.410000	-872.190000	-34.435652	-39.195150	-38.426480	-35.743201	-27.997018	-23.468581	-18.427525	-27.754648	-1.876980	6.622840	-5.127360	0.667662	0.706541	0.151367	-1.000000	-1.000000	-1.000000	-1.000000	-1.000000	-1.000000	-1.000000	78.758621	0.000000	-1.000000	-1.000000	1441119.000000	1770064378.657611
-6738.255000	-21347.100000	-4882.230000	7939.395000	-12058.965000	-8548.425000	5491.575000	-859.545000	-24.865870	-22.828594	-21.516654	-19.742790	-14.725640	-11.956700	-12.513663	-21.682939	-1.876980	6.622840	-5.127360	0.667662	0.706541	0.151367	-1.000000	-1.000000	-1.000000	-1.000000	-1.000000	-1.000000	-1.000000	78.758621	0.000000	-1.000000	-1.000000	1441120.000000	1770064378.657622
-6714.765000	-21326.895000	-4867.380000	7957.035000	-12025.755000	-8523.990000	5462.235000	-819.135000	-4.546837	2.859364	3.957496	3.387844	3.829084	4.300474	-0.415956	-8.527879	-3.250380	5.478340	-4.669560	0.667723	0.709654	0.152465	-1.000000	-1.000000	-1.000000	-1.000000	-1.000000	-1.000000	-1.000000	78.758621	0.000000	-1.000000	-1.000000	1441121.000000	1770064378.657633
-6714.855000	-21325.905000	-4869.180000	7954.695000	-12020.580000	-8520.255000	5476.455000	-817.740000	18.253007	27.197466	27.300042	24.472316	21.545154	19.227486	11.606465	8.638961	-3.250380	5.478340	-4.669560	0.667723	0.709654	0.152465	-1.000000	-1.000000	-1.000000	-1.000000	-1.000000	-1.000000	-1.000000	78.758621	0.000000	-1.000000	-1.000000	1441122.000000	1770064378.657638
-6721.920000	-21327.840000	-4871.655000	7942.725000	-12030.705000	-8509.050000	5506.065000	-828.945000	31.535242	37.860514	36.864736	33.569159	30.483422	26.121948	17.685912	22.179304	-3.250380	5.478340	-4.669560	0.667723	0.709654	0.152465	-1.000000	-1.000000	-1.000000	-1.000000	-1.000000	-1.000000	-1.000000	78.758621	0.000000	-1.000000	-1.000000	1441123.000000	1770064378.662472
-6727.005000	-21332.340000	-4872.870000	7940.520000	-12054.420000	-8522.820000	5511.960000	-846.225000	28.359334	30.029101	28.601518	26.673713	25.256558	21.569060	17.122839	24.055091	-3.250380	5.478340	-4.669560	0.667723	0.709654	0.152465	-1.000000	-1.000000	-1.000000	-1.000000	-1.000000	-1.000000	-1.000000	78.758621	0.000000	-1.000000	-1.000000	1441124.000000	1770064378.662483
-6754.815000	-21367.215000	-4905.405000	7920.630000	-12094.515000	-8561.205000	5487.255000	-846.990000	11.291916	8.975645	8.175500	8.453626	7.312344	7.172151	11.396323	13.245544	-3.250380	5.478340	-4.669560	0.667723	0.709654	0.152465	-1.000000	-1.000000	-1.000000	-1.000000	-1.000000	-1.000000	-1.000000	78.758621	0.000000	-1.000000	-1.000000	1441125.000000	1770064378.665550
-6753.510000	-21358.215000	-4892.220000	7952.535000	-12045.645000	-8548.065000	5458.680000	-817.965000	-9.947003	-14.144389	-13.604987	-11.010346	-14.456330	-11.135461	1.270651	-2.837052	-3.250380	5.478340	-4.669560	0.667723	0.709654	0.152465	-1.000000	-1.000000	-1.000000	-1.000000	-1.000000	-1.000000	-1.000000	78.758621	0.000000	-1.000000	-1.000000	1441126.000000	1770064378.665560
-6730.875000	-21322.620000	-4859.190000	7979.130000	-12011.265000	-8512.605000	5523.120000	-840.375000	-23.735693	-27.369129	-25.755326	-21.370761	-27.130661	-24.043782	-10.058719	-14.279729	-3.250380	5.478340	-4.669560	0.667723	0.709654	0.152465	-1.000000	-1.000000	-1.000000	-1.000000	-1.000000	-1.000000	-1.000000	78.758621	0.000000	-1.000000	-1.000000	1441127.000000	1770064378.668821
-6702.930000	-21302.550000	-4839.750000	7989.930000	-12006.720000	-8500.185000	5503.905000	-850.230000	-22.598535	-23.854102	-22.277254	-17.786322	-22.785711	-23.509630	-16.268188	-16.339058	-3.250380	5.478340	-4.669560	0.667723	0.709654	0.152465	-1.000000	-1.000000	-1.000000	-1.000000	-1.000000	-1.000000	-1.000000	78.758621	0.000000	-1.000000	-1.000000	1441128.000000	1770064378.668830
-6687.675000	-21285.630000	-4823.370000	8001.270000	-11998.935000	-8479.035000	5474.745000	-832.725000	-7.876506	-6.578617	-6.045705	-3.885905	-5.159113	-9.146005	-14.471309	-10.897081	-3.250380	5.478340	-4.669560	0.667723	0.709654	0.152465	-1.000000	-1.000000	-1.000000	-1.000000	-1.000000	-1.000000	-1.000000	78.758621	0.000000	-1.000000	-1.000000	1441129.000000	1770064378.681462
-6692.715000	-21276.720000	-4816.845000	8002.035000	-11995.515000	-8472.105000	5527.395000	-841.995000	10.522465	13.251522	12.654691	10.874884	13.660127	10.423484	-6.922953	-2.641972	-3.250380	5.478340	-4.669560	0.667723	0.709654	0.152465	-1.000000	-1.000000	-1.000000	-1.000000	-1.000000	-1.000000	-1.000000	78.758621	0.000000	-1.000000	-1.000000	1441130.000000	1770064378.681474
-6706.395000	-21309.030000	-4848.345000	7979.580000	-12025.890000	-8516.970000	5559.255000	-851.670000	20.809430	23.399909	22.336939	17.195892	21.973797	22.605841	3.434456	3.880605	-3.219860	3.631880	-3.189340	0.670286	0.709227	0.154846	-1.000000	-1.000000	-1.000000	-1.000000	-1.000000	-1.000000	-1.000000	78.758621	0.000000	-1.000000	-1.000000	1441131.000000	1770064378.681487
-6688.755000	-21293.190000	-4829.220000	8005.680000	-11995.380000	-8489.880000	5504.355000	-842.715000	17.989094	18.573376	17.787881	12.225997	16.466056	19.898729	11.999533	6.631866	-3.219860	3.631880	-3.189340	0.670286	0.709227	0.154846	-1.000000	-1.000000	-1.000000	-1.000000	-1.000000	-1.000000	-1.000000	78.758621	0.000000	-1.000000	-1.000000	1441132.000000	1770064378.681492
-6733.215000	-21348.990000	-4884.480000	7953.030000	-12030.525000	-8514.810000	5543.145000	-854.190000	5.806377	3.099675	2.960693	0.434222	3.466275	5.965439	13.072492	6.682065	-3.219860	3.631880	-3.189340	0.670286	0.709227	0.154846	-1.000000	-1.000000	-1.000000	-1.000000	-1.000000	-1.000000	-1.000000	78.758621	0.000000	-1.000000	-1.000000	1441133.000000	1770064378.689612
-6814.980000	-21444.300000	-4978.440000	7864.155000	-12109.230000	-8586.540000	5465.610000	-878.805000	-9.288907	-14.816358	-14.492789	-12.904276	-9.486968	-9.807976	6.191479	4.969649	-3.219860	3.631880	-3.189340	0.670286	0.709227	0.154846	-1.000000	-1.000000	-1.000000	-1.000000	-1.000000	-1.000000	-1.000000	78.758621	0.000000	-1.000000	-1.000000	1441134.000000	1770064378.689624
-6790.590000	-21412.305000	-4948.470000	7890.255000	-12093.480000	-8576.865000	5480.955000	-856.890000	-21.777044	-28.134821	-27.945930	-24.372732	-19.730678	-21.099998	-4.268917	1.432511	-3.219860	3.631880	-3.189340	0.670286	0.709227	0.154846	-1.000000	-1.000000	-1.000000	-1.000000	-1.000000	-1.000000	-1.000000	78.758621	0.000000	-1.000000	-1.000000	1441135.000000	1770064378.689634
-6719.940000	-21322.170000	-4863.735000	7965.495000	-12036.600000	-8522.550000	5515.065000	-848.430000	-24.898079	-29.243253	-29.776642	-27.455941	-24.107790	-23.888543	-12.884898	-1.655664	-3.219860	3.631880	-3.189340	0.670286	0.709227	0.154846	-1.000000	-1.000000	-1.000000	-1.000000	-1.000000	-1.000000	-1.000000	78.758621	0.000000	-1.000000	-1.000000	1441136.000000	1770064378.689639
-6706.620000	-21316.095000	-4859.730000	7962.975000	-12046.005000	-8506.080000	5501.385000	-819.765000	-13.865475	-13.370290	-14.773598	-15.436819	-17.229838	-14.856176	-14.258483	-0.825754	-3.219860	3.631880	-3.189340	0.670286	0.709227	0.154846	-1.000000	-1.000000	-1.000000	-1.000000	-1.000000	-1.000000	-1.000000	78.758621	0.000000	-1.000000	-1.000000	1441137.000000	1770064378.689645
-6784.875000	-21400.695000	-4946.805000	7879.005000	-12119.805000	-8575.110000	5467.680000	-884.745000	5.353295	11.298520	9.523323	6.587699	-1.269537	2.123424	-7.334807	2.675040	-3.219860	3.631880	-3.189340	0.670286	0.709227	0.154846	-1.000000	-1.000000	-1.000000	-1.000000	-1.000000	-1.000000	-1.000000	78.758621	0.000000	-1.000000	-1.000000	1441138.000000	1770064378.689650
-6777.630000	-21391.965000	-4939.605000	7891.605000	-12108.780000	-8600.265000	5472.225000	-883.980000	18.995613	27.528974	26.294639	23.441188	12.925359	15.374815	1.793245	3.285210	-3.219860	3.631880	-3.189340	0.670286	0.709227	0.154846	-1.000000	-1.000000	-1.000000	-1.000000	-1.000000	-1.000000	-1.000000	78.758621	0.000000	-1.000000	-1.000000	1441139.000000	1770064378.694090
-6756.570000	-21364.470000	-4910.715000	7917.570000	-12073.680000	-8577.360000	5474.430000	-879.255000	20.138667	27.279959	27.309595	26.695153	18.861519	17.690620	6.500849	-0.819691	-3.219860	3.631880	-3.189340	0.670286	0.709227	0.154846	-1.000000	-1.000000	-1.000000	-1.000000	-1.000000	-1.000000	-1.000000	78.758621	0.000000	-1.000000	-1.000000	1441140.000000	1770064378.694102
-6731.865000	-21327.345000	-4868.775000	7962.255000	-12023.910000	-8521.065000	5509.125000	-857.205000	13.377868	17.242523	18.653962	20.624042	19.332254	13.090887	7.019978	-5.149409	-6.027700	5.218920	-1.678600	0.677244	0.705687	0.155456	-1.000000	-1.000000	-1.000000	-1.000000	-1.000000	-1.000000	-1.000000	78.758621	0.000000	-1.000000	-1.000000	1441141.000000	1770064378.710008
-6742.305000	-21344.445000	-4882.815000	7954.920000	-12038.445000	-8519.040000	5492.475000	-841.455000	6.876117	8.097939	10.476331	13.665067	18.977499	9.835138	7.500409	-4.698837	-6.027700	5.218920	-1.678600	0.677244	0.705687	0.155456	-1.000000	-1.000000	-1.000000	-1.000000	-1.000000	-1.000000	-1.000000	78.758621	0.000000	-1.000000	-1.000000	1441142.000000	1770064378.710021
-6755.940000	-21365.865000	-4904.865000	7930.575000	-12063.105000	-8533.710000	5494.635000	-833.265000	4.752245	4.474938	7.068732	9.651614	17.791174	10.961181	9.453563	0.987502	-6.027700	5.218920	-1.678600	0.677244	0.705687	0.155456	-1.000000	-1.000000	-1.000000	-1.000000	-1.000000	-1.000000	-1.000000	78.758621	0.000000	-1.000000	-1.000000	1441143.000000	1770064378.710034
-6765.930000	-21371.940000	-4911.300000	7921.755000	-12057.030000	-8545.590000	5494.230000	-870.075000	3.849530	1.934786	3.877385	4.668922	11.163526	11.185984	10.316323	6.934788	-6.027700	5.218920	-1.678600	0.677244	0.705687	0.155456	-1.000000	-1.000000	-1.000000	-1.000000	-1.000000	-1.000000	-1.000000	78.758621	0.000000	-1.000000	-1.000000	1441144.000000	1770064378.710039
-6738.525000	-21347.145000	-4892.445000	7930.035000	-12051.135000	-8529.750000	5493.735000	-864.000000	-1.719389	-6.182666	-5.509948	-6.482468	-3.221970	3.701486	6.424637	6.969432	-6.027700	5.218920	-1.678600	0.677244	0.705687	0.155456	-1.000000	-1.000000	-1.000000	-1.000000	-1.000000	-1.000000	-1.000000	78.758621	0.000000	-1.000000	-1.000000	1441145.000000	1770064378.710045
-6725.745000	-21329.595000	-4876.290000	7950.735000	-12048.705000	-8532.180000	5493.780000	-831.870000	-11.031283	-17.672313	-18.426625	-20.164967	-19.349282	-10.083658	-1.563841	0.898125	-6.027700	5.218920	-1.678600	0.677244	0.705687	0.155456	-1.000000	-1.000000	-1.000000	-1.000000	-1.000000	-1.000000	-1.000000	78.758621	0.000000	-1.000000	-1.000000	1441146.000000	1770064378.710050
-6731.280000	-21320.145000	-4860.045000	7975.755000	-12023.145000	-8530.875000	5474.610000	-821.115000	-16.119068	-22.366310	-24.088217	-25.305116	-26.623218	-20.739150	-8.716378	-4.483434	-6.027700	5.218920	-1.678600	0.677244	0.705687	0.155456	-1.000000	-1.000000	-1.000000	-1.000000	-1.000000	-1.000000	-1.000000	78.758621	0.000000	-1.000000	-1.000000	1441147.000000	1770064378.710056
-6727.860000	-21328.290000	-4871.970000	7960.320000	-12032.370000	-8533.035000	5466.780000	-821.520000	-12.363330	-15.129220	-16.822980	-16.674099	-20.341460	-20.553327	-12.089901	-3.776769	-6.027700	5.218920	-1.678600	0.677244	0.705687	0.155456	-1.000000	-1.000000	-1.000000	-1.000000	-1.000000	-1.000000	-1.000000	78.758621	0.000000	-1.000000	-1.000000	1441148.000000	1770064378.710060
-6732.810000	-21331.080000	-4870.890000	7961.805000	-12027.330000	-8534.115000	5493.375000	-849.825000	-3.855778	-2.317369	-3.223903	-1.954497	-6.990589	-11.280763	-11.681715	0.357575	-6.027700	5.218920	-1.678600	0.677244	0.705687	0.155456	-1.000000	-1.000000	-1.000000	-1.000000	-1.000000	-1.000000	-1.000000	78.758621	0.000000	-1.000000	-1.000000	1441149.000000	1770064378.714767
-6723.855000	-21321.270000	-4860.135000	7974.495000	-12016.080000	-8511.480000	5525.820000	-865.350000	2.718155	6.615303	6.456780	7.698623	3.297874	-0.987833	-7.340627	1.258617	-6.027700	5.218920	-1.678600	0.677244	0.705687	0.155456	-1.000000	-1.000000	-1.000000	-1.000000	-1.000000	-1.000000	-1.000000	78.758621	0.000000	-1.000000	-1.000000	1441150.000000	1770064378.714777
-6730.740000	-21336.030000	-4876.020000	7960.635000	-12023.820000	-8513.370000	5502.555000	-851.805000	5.375267	9.086125	9.125590	9.202083	7.148001	5.423363	0.427895	-3.280613	-3.647140	4.654300	-1.113980	0.676939	0.701475	0.157226	-1.000000	-1.000000	-1.000000	-1.000000	-1.000000	-1.000000	-1.000000	78.758621	0.000000	-1.000000	-1.000000	1441151.000000	1770064378.722073
-6732.090000	-21338.640000	-4875.615000	7962.075000	-12033.315000	-8529.930000	5479.560000	-836.730000	5.826160	7.880949	7.662353	6.300660	7.069383	8.104164	7.815719	-8.530472	-3.647140	4.654300	-1.113980	0.676939	0.701475	0.157226	-1.000000	-1.000000	-1.000000	-1.000000	-1.000000	-1.000000	-1.000000	78.758621	0.000000	-1.000000	-1.000000	1441152.000000	1770064378.722084
-6744.735000	-21347.640000	-4886.820000	7951.545000	-12041.865000	-8540.505000	5507.370000	-844.470000	4.464178	4.525609	4.132056	2.282042	4.748228	7.298804	9.873497	-8.400378	-3.647140	4.654300	-1.113980	0.676939	0.701475	0.157226	-1.000000	-1.000000	-1.000000	-1.000000	-1.000000	-1.000000	-1.000000	78.758621	0.000000	-1.000000	-1.000000	1441153.000000	1770064378.722094
-6737.040000	-21331.350000	-4871.835000	7960.635000	-12028.320000	-8527.950000	5499.405000	-855.720000	0.364001	-0.850155	-0.927969	-1.772013	0.835470	3.087288	6.264825	-2.568923	-3.647140	4.654300	-1.113980	0.676939	0.701475	0.157226	-1.000000	-1.000000	-1.000000	-1.000000	-1.000000	-1.000000	-1.000000	78.758621	0.000000	-1.000000	-1.000000	1441154.000000	1770064378.722099
-6719.130000	-21314.430000	-4855.905000	7969.545000	-12016.125000	-8513.100000	5476.365000	-862.020000	-4.538499	-5.640487	-5.112010	-4.475282	-2.084648	-1.508929	0.733080	3.646536	-3.647140	4.654300	-1.113980	0.676939	0.701475	0.157226	-1.000000	-1.000000	-1.000000	-1.000000	-1.000000	-1.000000	-1.000000	78.758621	0.000000	-1.000000	-1.000000	1441155.000000	1770064378.725471
-6673.995000	-21271.140000	-4815.540000	8005.185000	-11990.880000	-8488.620000	5487.075000	-846.855000	-5.235709	-5.437119	-4.621030	-3.745550	-1.303514	-2.013828	-3.569698	6.190313	-3.647140	4.654300	-1.113980	0.676939	0.701475	0.157226	-1.000000	-1.000000	-1.000000	-1.000000	-1.000000	-1.000000	-1.000000	78.758621	0.000000	-1.000000	-1.000000	1441156.000000	1770064378.725479
-6668.955000	-21279.465000	-4826.340000	7999.290000	-12003.525000	-8497.035000	5543.505000	-783.855000	0.496321	0.769323	1.161139	0.769936	2.448977	2.260156	-4.318555	6.585308	-3.647140	4.654300	-1.113980	0.676939	0.701475	0.157226	-1.000000	-1.000000	-1.000000	-1.000000	-1.000000	-1.000000	-1.000000	78.758621	0.000000	-1.000000	-1.000000	1441157.000000	1770064378.737586
-6717.060000	-21312.765000	-4853.160000	7972.740000	-12017.655000	-8511.975000	5521.905000	-832.320000	7.700467	7.617574	7.146396	5.499734	4.968396	6.320371	-1.119242	8.052199	-3.647140	4.654300	-1.113980	0.676939	0.701475	0.157226	-1.000000	-1.000000	-1.000000	-1.000000	-1.000000	-1.000000	-1.000000	78.758621	0.000000	-1.000000	-1.000000	1441158.000000	1770064378.737597
-6732.855000	-21334.995000	-4877.640000	7937.325000	-12050.100000	-8539.155000	5526.585000	-843.750000	8.613018	8.111618	7.052095	5.275435	2.570552	4.444491	2.261924	8.931197	-3.647140	4.654300	-1.113980	0.676939	0.701475	0.157226	-1.000000	-1.000000	-1.000000	-1.000000	-1.000000	-1.000000	-1.000000	78.758621	0.000000	-1.000000	-1.000000	1441159.000000	1770064378.737608
-6760.080000	-21389.850000	-4931.640000	7896.195000	-12082.680000	-8552.925000	5488.245000	-866.835000	1.280139	0.802525	-0.138567	-1.131383	-4.078381	-3.432410	2.191612	4.622099	-3.647140	4.654300	-1.113980	0.676939	0.701475	0.157226	-1.000000	-1.000000	-1.000000	-1.000000	-1.000000	-1.000000	-1.000000	78.758621	0.000000	-1.000000	-1.000000	1441160.000000	1770064378.737614
-6769.035000	-21388.230000	-4925.655000	7915.635000	-12076.830000	-8539.470000	5486.580000	-875.205000	-9.066917	-9.741229	-9.946802	-9.332101	-10.520918	-11.246585	-1.200411	-4.993257	-2.075360	0.732480	1.648080	0.669371	0.702025	0.157653	-1.000000	-1.000000	-1.000000	-1.000000	-1.000000	-1.000000	-1.000000	78.758621	0.000000	-1.000000	-1.000000	1441161.000000	1770064378.737619
-6773.805000	-21372.435000	-4912.470000	7918.560000	-12089.880000	-8540.640000	5491.485000	-875.295000	-15.576221	-16.514342	-15.673106	-12.672557	-12.040366	-12.591858	-5.578097	-14.210078	-2.075360	0.732480	1.648080	0.669371	0.702025	0.157653	-1.000000	-1.000000	-1.000000	-1.000000	-1.000000	-1.000000	-1.000000	78.758621	0.000000	-1.000000	-1.000000	1441162.000000	1770064378.737624
-6757.695000	-21353.130000	-4892.040000	7926.570000	-12053.970000	-8536.545000	5472.270000	-866.115000	-14.244710	-14.189960	-12.459729	-7.767979	-6.824182	-6.538394	-7.798348	-16.549205	-2.075360	0.732480	1.648080	0.669371	0.702025	0.157653	-1.000000	-1.000000	-1.000000	-1.000000	-1.000000	-1.000000	-1.000000	78.758621	0.000000	-1.000000	-1.000000	1441163.000000	1770064378.740856
-6743.790000	-21321.990000	-4855.320000	7966.845000	-12025.080000	-8510.175000	5496.930000	-849.870000	-5.541930	-3.118976	-1.097324	2.862897	3.396068	2.836144	-5.464406	-9.879055	-2.075360	0.732480	1.648080	0.669371	0.702025	0.157653	-1.000000	-1.000000	-1.000000	-1.000000	-1.000000	-1.000000	-1.000000	78.758621	0.000000	-1.000000	-1.000000	1441164.000000	1770064378.740867
-6686.415000	-21271.995000	-4810.815000	8009.235000	-11976.840000	-8459.280000	5573.610000	-798.615000	6.461913	11.258246	12.887549	13.969120	14.645953	11.359321	1.795255	2.414756	-2.075360	0.732480	1.648080	0.669371	0.702025	0.157653	-1.000000	-1.000000	-1.000000	-1.000000	-1.000000	-1.000000	-1.000000	78.758621	0.000000	-1.000000	-1.000000	1441165.000000	1770064378.747112
-6650.055000	-21249.540000	-4791.555000	8039.205000	-11952.450000	-8451.270000	5552.145000	-776.520000	17.589130	22.865933	23.410587	21.379882	22.578227	16.879833	10.932665	14.253774	-2.075360	0.732480	1.648080	0.669371	0.702025	0.157653	-1.000000	-1.000000	-1.000000	-1.000000	-1.000000	-1.000000	-1.000000	78.758621	0.000000	-1.000000	-1.000000	1441166.000000	1770064378.747122
-6693.435000	-21284.775000	-4826.430000	8008.065000	-11996.865000	-8484.795000	5495.355000	-811.395000	24.483146	27.025393	25.858185	22.354053	23.252521	17.206959	14.750907	20.327166	-2.075360	0.732480	1.648080	0.669371	0.702025	0.157653	-1.000000	-1.000000	-1.000000	-1.000000	-1.000000	-1.000000	-1.000000	78.758621	0.000000	-1.000000	-1.000000	1441167.000000	1770064378.764353
-6728.670000	-21335.445000	-4879.170000	7953.120000	-12050.145000	-8523.315000	5454.810000	-873.540000	22.666660	20.452373	17.620965	14.872596	13.821101	9.998817	7.818367	16.862450	-2.075360	0.732480	1.648080	0.669371	0.702025	0.157653	-1.000000	-1.000000	-1.000000	-1.000000	-1.000000	-1.000000	-1.000000	78.758621	0.000000	-1.000000	-1.000000	1441168.000000	1770064378.764402
-6735.240000	-21356.865000	-4902.795000	7927.065000	-12067.290000	-8540.595000	5452.245000	-881.415000	10.138964	4.049273	0.533420	-0.524395	-3.962752	-3.596645	-6.163019	3.521323	-2.075360	0.732480	1.648080	0.669371	0.702025	0.157653	-1.000000	-1.000000	-1.000000	-1.000000	-1.000000	-1.000000	-1.000000	78.758621	0.000000	-1.000000	-1.000000	1441169.000000	1770064378.764415
-6745.365000	-21358.665000	-4901.580000	7931.070000	-12056.985000	-8541.090000	5495.220000	-854.595000	-7.866761	-15.340778	-18.172041	-18.413070	-21.956872	-17.612969	-16.615114	-12.671329	-2.075360	0.732480	1.648080	0.669371	0.702025	0.157653	-1.000000	-1.000000	-1.000000	-1.000000	-1.000000	-1.000000	-1.000000	78.758621	0.000000	-1.000000	-1.000000	1441170.000000	1770064378.764420
-6748.920000	-21360.915000	-4906.305000	7922.925000	-12065.355000	-8562.960000	5510.835000	-855.945000	-22.438717	-28.931767	-29.928705	-30.336270	-30.675977	-25.028470	-15.259606	-21.188949	-5.829320	2.090620	1.861720	0.670225	0.709471	0.155334	-1.000000	-1.000000	-1.000000	-1.000000	-1.000000	-1.000000	-1.000000	78.758621	0.000000	-1.000000	-1.000000	1441171.000000	1770064378.764426
-6750.720000	-21358.530000	-4905.765000	7922.160000	-12085.965000	-8570.070000	5495.940000	-855.945000	-27.562757	-31.389452	-30.212088	-30.568612	-27.086264	-22.757024	-2.932534	-17.759109	-5.829320	2.090620	1.861720	0.670225	0.709471	0.155334	-1.000000	-1.000000	-1.000000	-1.000000	-1.000000	-1.000000	-1.000000	78.758621	0.000000	-1.000000	-1.000000	1441172.000000	1770064378.764431
-6705.450000	-21326.355000	-4880.925000	7946.055000	-12062.340000	-8556.255000	5468.805000	-825.345000	-22.355725	-22.864111	-20.367833	-19.995591	-15.723702	-12.997653	10.236285	-6.674610	-5.829320	2.090620	1.861720	0.670225	0.709471	0.155334	-1.000000	-1.000000	-1.000000	-1.000000	-1.000000	-1.000000	-1.000000	78.758621	0.000000	-1.000000	-1.000000	1441173.000000	1770064378.764437
-6665.490000	-21281.760000	-4834.845000	7993.575000	-12004.245000	-8497.485000	5468.760000	-810.855000	-9.749997	-7.277171	-4.884463	-3.772981	-1.946555	0.060882	12.920113	4.507226	-5.829320	2.090620	1.861720	0.670225	0.709471	0.155334	-1.000000	-1.000000	-1.000000	-1.000000	-1.000000	-1.000000	-1.000000	78.758621	0.000000	-1.000000	-1.000000	1441174.000000	1770064378.764441
-6685.155000	-21313.665000	-4861.800000	7972.740000	-12007.755000	-8479.755000	5462.910000	-853.065000	5.126325	9.787035	11.289323	12.441746	11.724581	13.585738	4.109778	10.053599	-5.829320	2.090620	1.861720	0.670225	0.709471	0.155334	-1.000000	-1.000000	-1.000000	-1.000000	-1.000000	-1.000000	-1.000000	78.758621	0.000000	-1.000000	-1.000000	1441175.000000	1770064378.764939
-6686.730000	-21330.945000	-4876.740000	7957.080000	-12028.635000	-8509.815000	5544.045000	-826.020000	16.872357	22.247195	23.103922	23.642772	22.896563	24.705435	-4.801733	9.537244	-5.829320	2.090620	1.861720	0.670225	0.709471	0.155334	-1.000000	-1.000000	-1.000000	-1.000000	-1.000000	-1.000000	-1.000000	78.758621	0.000000	-1.000000	-1.000000	1441176.000000	1770064378.764950
-6719.130000	-21362.355000	-4902.525000	7934.265000	-12060.270000	-8545.320000	5526.090000	-840.240000	21.816705	26.130568	27.037214	26.905625	27.848538	28.412066	-2.391580	7.546816	-5.829320	2.090620	1.861720	0.670225	0.709471	0.155334	-1.000000	-1.000000	-1.000000	-1.000000	-1.000000	-1.000000	-1.000000	78.758621	0.000000	-1.000000	-1.000000	1441177.000000	1770064378.771857
-6757.110000	-21400.920000	-4949.730000	7879.320000	-12096.945000	-8573.580000	5478.255000	-877.905000	18.005384	20.657471	21.878803	21.330701	23.087857	20.675132	8.366355	6.582961	-5.829320	2.090620	1.861720	0.670225	0.709471	0.155334	-1.000000	-1.000000	-1.000000	-1.000000	-1.000000	-1.000000	-1.000000	78.758621	0.000000	-1.000000	-1.000000	1441178.000000	1770064378.771871
-6742.845000	-21384.405000	-4938.345000	7889.265000	-12086.280000	-8575.290000	5476.230000	-871.515000	6.516993	7.853464	8.658155	7.782373	8.737054	3.561420	13.348767	3.748865	-5.829320	2.090620	1.861720	0.670225	0.709471	0.155334	-1.000000	-1.000000	-1.000000	-1.000000	-1.000000	-1.000000	-1.000000	78.758621	0.000000	-1.000000	-1.000000	1441179.000000	1770064378.773005
-6753.645000	-21366.405000	-4936.815000	7879.860000	-12090.825000	-8585.505000	5470.695000	-864.720000	-6.725483	-6.264388	-7.208078	-8.362670	-8.727546	-14.363315	5.330741	-2.283760	-5.829320	2.090620	1.861720	0.670225	0.709471	0.155334	-1.000000	-1.000000	-1.000000	-1.000000	-1.000000	-1.000000	-1.000000	78.758621	0.000000	-1.000000	-1.000000	1441180.000000	1770064378.773014
-6754.320000	-21342.240000	-4917.960000	7913.970000	-12066.615000	-8567.955000	5469.660000	-864.045000	-15.201438	-14.440564	-17.924116	-18.933956	-20.173680	-23.981515	-8.960650	-8.069277	-9.308600	7.233240	0.717220	0.673216	0.713072	0.152160	-1.000000	-1.000000	-1.000000	-1.000000	-1.000000	-1.000000	-1.000000	78.758621	0.000000	-1.000000	-1.000000	1441181.000000	1770064378.797646
-6752.565000	-21358.350000	-4932.720000	7904.970000	-12073.095000	-8565.705000	5472.945000	-869.310000	-17.207943	-14.771494	-19.937984	-19.824839	-21.394597	-22.318631	-18.584147	-10.827996	-9.308600	7.233240	0.717220	0.673216	0.713072	0.152160	-1.000000	-1.000000	-1.000000	-1.000000	-1.000000	-1.000000	-1.000000	78.758621	0.000000	-1.000000	-1.000000	1441182.000000	1770064378.797658
-6714.000000	-21372.570000	-4920.390000	7922.385000	-12058.830000	-8549.415000	5452.245000	-822.645000	-14.027066	-11.319103	-15.381711	-13.352058	-15.353213	-13.361753	-18.275300	-9.812395	-9.308600	7.233240	0.717220	0.673216	0.713072	0.152160	-1.000000	-1.000000	-1.000000	-1.000000	-1.000000	-1.000000	-1.000000	78.758621	0.000000	-1.000000	-1.000000	1441183.000000	1770064378.797671
-6683.715000	-21385.080000	-4914.585000	7923.555000	-12061.755000	-8536.590000	5463.765000	-825.345000	-5.331702	-7.362360	-6.881558	-3.554777	-6.547733	-2.461956	-9.964843	-3.612355	-9.308600	7.233240	0.717220	0.673216	0.713072	0.152160	-1.000000	-1.000000	-1.000000	-1.000000	-1.000000	-1.000000	-1.000000	78.758621	0.000000	-1.000000	-1.000000	1441184.000000	1770064378.797676
-6708.150000	-21376.305000	-4909.365000	7929.990000	-12060.720000	-8539.290000	5511.285000	-860.445000	8.240856	-1.830439	4.592176	7.300401	3.394910	8.100373	1.355196	6.142574	-9.308600	7.233240	0.717220	0.673216	0.713072	0.152160	-1.000000	-1.000000	-1.000000	-1.000000	-1.000000	-1.000000	-1.000000	78.758621	0.000000	-1.000000	-1.000000	1441185.000000	1770064378.797682
-6744.105000	-21370.995000	-4897.215000	7943.715000	-12039.705000	-8535.690000	5506.740000	-879.435000	20.291120	6.780177	16.657424	17.097393	13.601588	17.088502	11.992882	12.836654	-9.308600	7.233240	0.717220	0.673216	0.713072	0.152160	-1.000000	-1.000000	-1.000000	-1.000000	-1.000000	-1.000000	-1.000000	78.758621	0.000000	-1.000000	-1.000000	1441186.000000	1770064378.797687
-6689.790000	-21307.410000	-4848.390000	7981.965000	-12023.190000	-8525.790000	5474.925000	-861.795000	23.709756	16.856611	25.171415	23.109570	21.449543	21.788604	18.879932	12.235683	-9.308600	7.233240	0.717220	0.673216	0.713072	0.152160	-1.000000	-1.000000	-1.000000	-1.000000	-1.000000	-1.000000	-1.000000	78.758621	0.000000	-1.000000	-1.000000	1441187.000000	1770064378.797693
-6632.010000	-21258.180000	-4808.475000	8013.240000	-12011.445000	-8496.090000	5399.145000	-827.415000	18.663852	24.393512	26.742637	23.122572	23.027897	19.936255	17.162970	6.733045	-9.308600	7.233240	0.717220	0.673216	0.713072	0.152160	-1.000000	-1.000000	-1.000000	-1.000000	-1.000000	-1.000000	-1.000000	78.758621	0.000000	-1.000000	-1.000000	1441188.000000	1770064378.797698
-6703.290000	-21285.405000	-4816.395000	8014.500000	-11977.785000	-8458.650000	5456.745000	-837.180000	9.224608	24.056109	19.442522	15.752218	16.210489	12.450715	5.500776	0.914717	-9.308600	7.233240	0.717220	0.673216	0.713072	0.152160	-1.000000	-1.000000	-1.000000	-1.000000	-1.000000	-1.000000	-1.000000	78.758621	0.000000	-1.000000	-1.000000	1441189.000000	1770064378.797704
-6813.495000	-21354.615000	-4875.075000	7966.800000	-12016.215000	-8511.345000	5567.355000	-871.200000	-5.063107	10.778274	2.624737	0.491633	2.574632	1.493642	-6.805226	-3.873030	-9.308600	7.233240	0.717220	0.673216	0.713072	0.152160	-1.000000	-1.000000	-1.000000	-1.000000	-1.000000	-1.000000	-1.000000	78.758621	0.000000	-1.000000	-1.000000	1441190.000000	1770064378.797709
-6837.930000	-21418.335000	-4948.875000	7885.980000	-12103.605000	-8600.130000	5512.905000	-875.115000	-25.511762	-14.568500	-21.334673	-21.022408	-15.256080	-13.315886	-8.560947	-9.080225	-5.981920	4.578000	-0.457800	0.672850	0.706907	0.156128	-1.000000	-1.000000	-1.000000	-1.000000	-1.000000	-1.000000	-1.000000	78.758621	0.000000	-1.000000	-1.000000	1441191.000000	1770064378.797714
-6793.965000	-21392.460000	-4928.130000	7901.595000	-12100.005000	-8568.495000	5487.165000	-876.420000	-43.620383	-40.075003	-43.666836	-41.661949	-33.121192	-30.444999	-1.670852	-14.156121	-5.981920	4.578000	-0.457800	0.672850	0.706907	0.156128	-1.000000	-1.000000	-1.000000	-1.000000	-1.000000	-1.000000	-1.000000	78.758621	0.000000	-1.000000	-1.000000	1441192.000000	1770064378.797718
-6736.095000	-21327.030000	-4879.080000	7946.955000	-12051.720000	-8538.930000	5495.760000	-864.000000	-43.821625	-47.732828	-50.276089	-48.388848	-41.077663	-39.813851	2.817126	-15.076969	-5.981920	4.578000	-0.457800	0.672850	0.706907	0.156128	-1.000000	-1.000000	-1.000000	-1.000000	-1.000000	-1.000000	-1.000000	78.758621	0.000000	-1.000000	-1.000000	1441193.000000	1770064378.801000
-6725.925000	-21323.160000	-4894.965000	7940.565000	-12037.770000	-8554.005000	5476.140000	-867.420000	-18.896752	-28.698057	-32.978592	-32.362987	-29.523245	-30.946985	-1.047141	-8.217727	-5.981920	4.578000	-0.457800	0.672850	0.706907	0.156128	-1.000000	-1.000000	-1.000000	-1.000000	-1.000000	-1.000000	-1.000000	78.758621	0.000000	-1.000000	-1.000000	1441194.000000	1770064378.801013
-6728.715000	-21350.385000	-4931.910000	7904.925000	-12066.660000	-8560.530000	5452.695000	-875.970000	20.264945	5.913989	-0.538287	-0.729091	-2.224125	-6.440664	-9.896868	4.686620	-5.981920	4.578000	-0.457800	0.672850	0.706907	0.156128	-1.000000	-1.000000	-1.000000	-1.000000	-1.000000	-1.000000	-1.000000	78.758621	0.000000	-1.000000	-1.000000	1441195.000000	1770064378.804927
-6691.770000	-21341.700000	-4926.015000	7907.310000	-12067.785000	-8549.730000	5470.560000	-857.025000	50.930698	33.041408	27.162171	27.614050	24.365100	19.850200	-15.248339	16.216287	-5.981920	4.578000	-0.457800	0.672850	0.706907	0.156128	-1.000000	-1.000000	-1.000000	-1.000000	-1.000000	-1.000000	-1.000000	78.758621	0.000000	-1.000000	-1.000000	1441196.000000	1770064378.804936
-6683.310000	-21398.580000	-4942.260000	7896.240000	-12085.785000	-8571.870000	5473.530000	-852.840000	56.078654	36.567891	36.068318	38.154379	35.417512	34.247695	-10.425639	19.337224	-5.981920	4.578000	-0.457800	0.672850	0.706907	0.156128	-1.000000	-1.000000	-1.000000	-1.000000	-1.000000	-1.000000	-1.000000	78.758621	0.000000	-1.000000	-1.000000	1441197.000000	1770064378.819489
-6642.090000	-21385.980000	-4888.890000	7942.635000	-12047.580000	-8516.340000	5447.520000	-829.530000	37.614363	18.587468	27.657256	30.728273	28.260417	31.806620	1.370637	13.584028	-5.981920	4.578000	-0.457800	0.672850	0.706907	0.156128	-1.000000	-1.000000	-1.000000	-1.000000	-1.000000	-1.000000	-1.000000	78.758621	0.000000	-1.000000	-1.000000	1441198.000000	1770064378.819502
-6580.035000	-21235.545000	-4754.925000	8060.085000	-11934.180000	-8354.520000	5405.085000	-759.465000	12.456462	-1.922326	16.508269	18.113207	13.818595	21.389557	8.339448	5.367992	-5.981920	4.578000	-0.457800	0.672850	0.706907	0.156128	-1.000000	-1.000000	-1.000000	-1.000000	-1.000000	-1.000000	-1.000000	78.758621	0.000000	-1.000000	-1.000000	1441199.000000	1770064378.819516
-6629.760000	-21188.700000	-4720.320000	8085.960000	-11930.040000	-8325.855000	5375.610000	-770.985000	-5.763117	-4.373087	16.521284	14.129620	7.003945	17.589685	4.530976	1.125384	-5.981920	4.578000	-0.457800	0.672850	0.706907	0.156128	-1.000000	-1.000000	-1.000000	-1.000000	-1.000000	-1.000000	-1.000000	78.758621	0.000000	-1.000000	-1.000000	1441200.000000	1770064378.819522
-6757.200000	-21287.430000	-4855.140000	7958.925000	-12054.330000	-8548.245000	5384.160000	-890.145000	-19.810817	10.049819	22.709101	16.429631	8.200216	17.913234	-3.415077	-1.360147	-4.837420	0.656180	-1.358140	0.666868	0.703306	0.160156	-1.000000	-1.000000	-1.000000	-1.000000	-1.000000	-1.000000	-1.000000	78.758621	0.000000	-1.000000	-1.000000	1441201.000000	1770064378.819528
-6655.680000	-21169.170000	-4790.160000	8011.575000	-11972.115000	-8535.105000	5440.095000	-848.475000	-36.572715	20.184450	16.493770	9.521561	4.039265	3.963342	-5.590086	-8.695887	-4.837420	0.656180	-1.358140	0.666868	0.703306	0.160156	-1.000000	-1.000000	-1.000000	-1.000000	-1.000000	-1.000000	-1.000000	78.758621	0.000000	-1.000000	-1.000000	1441202.000000	1770064378.819533
-6619.905000	-21205.485000	-4769.955000	8046.945000	-11893.365000	-8384.130000	5401.305000	-770.490000	-47.652732	13.569405	-6.022934	-9.965673	-8.480866	-24.308612	1.603164	-17.388818	-4.837420	0.656180	-1.358140	0.666868	0.703306	0.160156	-1.000000	-1.000000	-1.000000	-1.000000	-1.000000	-1.000000	-1.000000	78.758621	0.000000	-1.000000	-1.000000	1441203.000000	1770064378.845145
-6677.505000	-21314.790000	-4856.265000	7958.340000	-12005.640000	-8493.930000	5526.270000	-801.180000	-40.366458	-6.105241	-30.370037	-29.235026	-19.169774	-44.011222	14.662918	-17.042824	-4.837420	0.656180	-1.358140	0.666868	0.703306	0.160156	-1.000000	-1.000000	-1.000000	-1.000000	-1.000000	-1.000000	-1.000000	78.758621	0.000000	-1.000000	-1.000000	1441204.000000	1770064378.845158
-6729.525000	-21383.190000	-4920.345000	7906.410000	-12109.320000	-8610.030000	5520.420000	-840.330000	-19.299980	-31.469122	-45.388265	-39.245822	-24.825493	-44.057051	27.353606	-7.768404	-4.837420	0.656180	-1.358140	0.666868	0.703306	0.160156	-1.000000	-1.000000	-1.000000	-1.000000	-1.000000	-1.000000	-1.000000	78.758621	0.000000	-1.000000	-1.000000	1441205.000000	1770064378.845172
-6739.425000	-21392.415000	-4962.105000	7878.465000	-12093.075000	-8551.260000	5550.885000	-832.995000	0.867417	-51.465971	-48.959596	-39.711808	-29.248212	-32.552515	32.187323	0.735768	-4.837420	0.656180	-1.358140	0.666868	0.703306	0.160156	-1.000000	-1.000000	-1.000000	-1.000000	-1.000000	-1.000000	-1.000000	78.758621	0.000000	-1.000000	-1.000000	1441206.000000	1770064378.845178
-6817.905000	-21437.235000	-5009.040000	7802.325000	-12091.140000	-8609.355000	5498.505000	-886.230000	11.866163	-53.542592	-41.826579	-32.794067	-30.240392	-17.464825	22.601934	2.296198	-4.837420	0.656180	-1.358140	0.666868	0.703306	0.160156	-1.000000	-1.000000	-1.000000	-1.000000	-1.000000	-1.000000	-1.000000	78.758621	0.000000	-1.000000	-1.000000	1441207.000000	1770064378.845184
-6806.250000	-21400.875000	-5027.760000	7668.585000	-12066.570000	-8566.020000	5518.710000	-864.720000	13.530713	-35.648693	-26.974306	-23.520216	-22.275720	-3.098939	0.246981	-2.495280	-4.837420	0.656180	-1.358140	0.666868	0.703306	0.160156	-1.000000	-1.000000	-1.000000	-1.000000	-1.000000	-1.000000	-1.000000	78.758621	0.000000	-1.000000	-1.000000	1441208.000000	1770064378.845189
-6784.245000	-21399.030000	-5050.710000	7663.410000	-12070.845000	-8554.230000	5565.285000	-848.790000	12.591091	-5.482685	-7.175021	-15.147794	-3.776345	9.976543	-22.670774	-6.827564	-4.837420	0.656180	-1.358140	0.666868	0.703306	0.160156	-1.000000	-1.000000	-1.000000	-1.000000	-1.000000	-1.000000	-1.000000	78.758621	0.000000	-1.000000	-1.000000	1441209.000000	1770064378.845194
-6789.870000	-21405.420000	-5007.915000	7854.300000	-12082.995000	-8554.095000	5522.625000	-888.030000	17.405706	27.059385	17.577753	0.600599	21.055213	26.556308	-34.242552	-2.318823	-4.837420	0.656180	-1.358140	0.666868	0.703306	0.160156	-1.000000	-1.000000	-1.000000	-1.000000	-1.000000	-1.000000	-1.000000	78.758621	0.000000	-1.000000	-1.000000	1441210.000000	1770064378.845199
-6694.200000	-21272.490000	-4921.200000	8076.645000	-11930.490000	-8404.470000	5438.970000	-855.270000	26.976097	51.720427	44.846093	35.251923	42.555535	46.338852	-34.573146	9.791951	-14.527520	-3.067260	-2.487380	0.670347	0.707579	0.159545	-1.000000	-1.000000	-1.000000	-1.000000	-1.000000	-1.000000	-1.000000	78.758621	0.000000	-1.000000	-1.000000	1441211.000000	1770064378.845205
-6515.505000	-21063.375000	-4641.615000	8272.845000	-11727.225000	-8268.030000	5540.265000	-698.265000	35.205983	65.339329	69.402700	83.802268	54.530019	60.322246	-29.195711	21.358627	-14.527520	-3.067260	-2.487380	0.670347	0.707579	0.159545	-1.000000	-1.000000	-1.000000	-1.000000	-1.000000	-1.000000	-1.000000	78.758621	0.000000	-1.000000	-1.000000	1441212.000000	1770064378.845210
-6573.690000	-21185.865000	-4686.255000	8115.345000	-11909.520000	-8448.570000	5663.610000	-724.860000	39.227750	70.473106	86.249581	119.294077	56.678146	58.607487	-17.033341	28.589095	-14.527520	-3.067260	-2.487380	0.670347	0.707579	0.159545	-1.000000	-1.000000	-1.000000	-1.000000	-1.000000	-1.000000	-1.000000	78.758621	0.000000	-1.000000	-1.000000	1441213.000000	1770064378.845216
-6693.570000	-21284.640000	-4824.405000	7980.480000	-12050.055000	-8542.620000	5519.070000	-848.970000	32.014845	59.229451	82.117992	106.963421	41.660809	33.344436	2.196128	27.300810	-14.527520	-3.067260	-2.487380	0.670347	0.707579	0.159545	-1.000000	-1.000000	-1.000000	-1.000000	-1.000000	-1.000000	-1.000000	78.758621	0.000000	-1.000000	-1.000000	1441214.000000	1770064378.845220
-6793.920000	-21394.395000	-4938.390000	7871.895000	-12156.390000	-8653.590000	5453.730000	-898.245000	4.447694	20.046636	40.772216	34.724352	0.483476	-15.240130	16.952571	10.238687	-14.527520	-3.067260	-2.487380	0.670347	0.707579	0.159545	-1.000000	-1.000000	-1.000000	-1.000000	-1.000000	-1.000000	-1.000000	78.758621	0.000000	-1.000000	-1.000000	1441215.000000	1770064378.845226
-6831.945000	-21470.445000	-4972.905000	7869.375000	-12158.100000	-8647.425000	5478.120000	-920.835000	-37.577745	-40.066020	-31.389228	-65.936876	-55.776816	-69.613133	17.148994	-19.394286	-14.527520	-3.067260	-2.487380	0.670347	0.707579	0.159545	-1.000000	-1.000000	-1.000000	-1.000000	-1.000000	-1.000000	-1.000000	78.758621	0.000000	-1.000000	-1.000000	1441216.000000	1770064378.845231
-6748.155000	-21353.220000	-4914.315000	7908.165000	-12093.120000	-8552.655000	5528.205000	-863.190000	-70.707868	-93.005053	-99.309773	-138.115857	-95.564431	-99.916845	9.036173	-44.300001	-14.527520	-3.067260	-2.487380	0.670347	0.707579	0.159545	-1.000000	-1.000000	-1.000000	-1.000000	-1.000000	-1.000000	-1.000000	78.758621	0.000000	-1.000000	-1.000000	1441217.000000	1770064378.863927
-6807.240000	-21451.095000	-5036.130000	7749.720000	-12109.815000	-8592.840000	5482.260000	-872.460000	-72.816736	-107.982944	-125.719951	-145.305229	-91.048214	-84.637950	3.824086	-47.034885	-14.527520	-3.067260	-2.487380	0.670347	0.707579	0.159545	-1.000000	-1.000000	-1.000000	-1.000000	-1.000000	-1.000000	-1.000000	78.758621	0.000000	-1.000000	-1.000000	1441218.000000	1770064378.863941
-6772.095000	-21435.840000	-5033.565000	7702.965000	-12097.755000	-8599.545000	5465.520000	-857.115000	-43.053236	-77.775104	-101.785407	-100.383355	-43.391568	-31.171460	4.132273	-24.670570	-14.527520	-3.067260	-2.487380	0.670347	0.707579	0.159545	-1.000000	-1.000000	-1.000000	-1.000000	-1.000000	-1.000000	-1.000000	78.758621	0.000000	-1.000000	-1.000000	1441219.000000	1770064378.863957
-6787.575000	-21413.970000	-4954.095000	7855.830000	-12074.040000	-8579.835000	5461.200000	-880.290000	-2.058016	-24.182656	-47.828876	-41.422695	16.173314	26.608351	7.139104	7.315032	-14.527520	-3.067260	-2.487380	0.670347	0.707579	0.159545	-1.000000	-1.000000	-1.000000	-1.000000	-1.000000	-1.000000	-1.000000	78.758621	0.000000	-1.000000	-1.000000	1441220.000000	1770064378.863962
-6799.140000	-21424.095000	-4965.930000	7932.645000	-12069.540000	-8572.050000	5468.175000	-887.445000	26.392158	24.307172	8.367836	11.190782	54.208214	58.102769	7.747512	26.821718	-17.762640	-9.919000	-7.797860	0.676329	0.700010	0.159423	-1.000000	-1.000000	-1.000000	-1.000000	-1.000000	-1.000000	-1.000000	78.758621	0.000000	-1.000000	-1.000000	1441221.000000	1770064378.863969
-6777.045000	-21413.745000	-4973.490000	7910.415000	-12070.170000	-8584.110000	5476.095000	-878.940000	34.887482	54.208115	48.831444	58.214324	63.170689	60.771123	1.484707	25.736093	-17.762640	-9.919000	-7.797860	0.676329	0.700010	0.159423	-1.000000	-1.000000	-1.000000	-1.000000	-1.000000	-1.000000	-1.000000	78.758621	0.000000	-1.000000	-1.000000	1441222.000000	1770064378.863974
-6747.480000	-21375.045000	-4903.695000	7952.355000	-12051.090000	-8570.340000	5474.475000	-872.730000	34.852509	68.668559	71.900791	98.267010	57.410688	50.597411	-6.555653	15.744435	-17.762640	-9.919000	-7.797860	0.676329	0.700010	0.159423	-1.000000	-1.000000	-1.000000	-1.000000	-1.000000	-1.000000	-1.000000	78.758621	0.000000	-1.000000	-1.000000	1441223.000000	1770064378.863980
-6730.515000	-21331.530000	-4841.955000	7994.835000	-12023.010000	-8554.050000	5494.230000	-857.520000	38.430112	73.672128	83.755960	119.512217	48.541601	38.807569	-5.816961	11.121212	-17.762640	-9.919000	-7.797860	0.676329	0.700010	0.159423	-1.000000	-1.000000	-1.000000	-1.000000	-1.000000	-1.000000	-1.000000	78.758621	0.000000	-1.000000	-1.000000	1441224.000000	1770064378.863985
-6697.395000	-21291.210000	-4815.135000	8008.560000	-11992.905000	-8531.055000	5512.545000	-822.825000	43.250668	67.617207	83.393015	109.023388	35.318416	24.926415	4.472932	13.581637	-17.762640	-9.919000	-7.797860	0.676329	0.700010	0.159423	-1.000000	-1.000000	-1.000000	-1.000000	-1.000000	-1.000000	-1.000000	78.758621	0.000000	-1.000000	-1.000000	1441225.000000	1770064378.880614
-6686.595000	-21267.045000	-4828.950000	7951.635000	-11975.940000	-8502.075000	5500.170000	-799.740000	37.587752	44.688217	62.827146	63.823568	12.817043	4.783991	13.942443	15.428841	-17.762640	-9.919000	-7.797860	0.676329	0.700010	0.159423	-1.000000	-1.000000	-1.000000	-1.000000	-1.000000	-1.000000	-1.000000	78.758621	0.000000	-1.000000	-1.000000	1441226.000000	1770064378.880627
-6719.760000	-21344.445000	-5027.625000	7693.785000	-12076.920000	-8534.205000	5447.880000	-831.465000	15.353037	5.622845	19.212608	-5.960709	-17.856869	-19.188759	13.220985	9.943854	-17.762640	-9.919000	-7.797860	0.676329	0.700010	0.159423	-1.000000	-1.000000	-1.000000	-1.000000	-1.000000	-1.000000	-1.000000	78.758621	0.000000	-1.000000	-1.000000	1441227.000000	1770064378.880643
-6749.145000	-21440.115000	-5269.095000	7442.280000	-12142.935000	-8523.810000	5531.310000	-834.255000	-18.380274	-40.665613	-42.473032	-84.805649	-50.667475	-39.177296	3.591155	-3.689356	-17.762640	-9.919000	-7.797860	0.676329	0.700010	0.159423	-1.000000	-1.000000	-1.000000	-1.000000	-1.000000	-1.000000	-1.000000	78.758621	0.000000	-1.000000	-1.000000	1441228.000000	1770064378.880648
-6717.960000	-21440.025000	-5214.915000	7639.965000	-12070.530000	-8544.195000	5507.370000	-839.115000	-50.945677	-81.481605	-106.858692	-150.109345	-75.534280	-49.821302	-6.278668	-20.726096	-17.762640	-9.919000	-7.797860	0.676329	0.700010	0.159423	-1.000000	-1.000000	-1.000000	-1.000000	-1.000000	-1.000000	-1.000000	78.758621	0.000000	-1.000000	-1.000000	1441229.000000	1770064378.880655
-6739.875000	-21422.655000	-5077.440000	7905.555000	-12065.175000	-8520.210000	5479.020000	-890.100000	-66.793483	-99.089505	-139.384005	-161.962724	-76.547334	-47.346433	-12.510084	-33.485342	-17.762640	-9.919000	-7.797860	0.676329	0.700010	0.159423	-1.000000	-1.000000	-1.000000	-1.000000	-1.000000	-1.000000	-1.000000	78.758621	0.000000	-1.000000	-1.000000	1441230.000000	1770064378.880660
-6681.555000	-21334.185000	-5121.675000	7711.695000	-12048.930000	-8527.725000	5531.400000	-836.100000	-56.207015	-78.109622	-108.108573	-94.606540	-44.566735	-29.008743	-15.816039	-34.791500	-10.651480	-5.707240	-2.151660	0.677061	0.698973	0.159607	-1.000000	-1.000000	-1.000000	-1.000000	-1.000000	-1.000000	-1.000000	78.758621	0.000000	-1.000000	-1.000000	1441231.000000	1770064378.880666
-6700.680000	-21349.395000	-5066.370000	7595.955000	-12084.480000	-8564.715000	5538.240000	-819.810000	-23.033509	-22.917128	-22.914392	17.096193	7.613565	-0.501785	-13.321023	-21.019649	-10.651480	-5.707240	-2.151660	0.677061	0.698973	0.159607	-1.000000	-1.000000	-1.000000	-1.000000	-1.000000	-1.000000	-1.000000	78.758621	0.000000	-1.000000	-1.000000	1441232.000000	1770064378.880671
-6688.530000	-21321.315000	-4994.280000	7782.975000	-12053.610000	-8548.155000	5526.675000	-820.665000	16.223108	39.204525	69.961433	106.291245	52.389845	24.055210	-4.141847	2.943706	-10.651480	-5.707240	-2.151660	0.677061	0.698973	0.159607	-1.000000	-1.000000	-1.000000	-1.000000	-1.000000	-1.000000	-1.000000	78.758621	0.000000	-1.000000	-1.000000	1441233.000000	1770064378.893301
-6656.580000	-21234.915000	-4750.470000	8160.660000	-11950.830000	-8512.650000	5549.220000	-815.355000	42.407676	77.600961	129.072191	142.896139	69.774917	33.607815	5.393086	23.638433	-10.651480	-5.707240	-2.151660	0.677061	0.698973	0.159607	-1.000000	-1.000000	-1.000000	-1.000000	-1.000000	-1.000000	-1.000000	78.758621	0.000000	-1.000000	-1.000000	1441234.000000	1770064378.893313
-6641.955000	-21252.555000	-4722.120000	8146.620000	-11904.705000	-8472.690000	5533.110000	-790.740000	46.628115	79.708868	141.273771	140.707652	60.450925	28.589158	9.834025	30.271519	-10.651480	-5.707240	-2.151660	0.677061	0.698973	0.159607	-1.000000	-1.000000	-1.000000	-1.000000	-1.000000	-1.000000	-1.000000	78.758621	0.000000	-1.000000	-1.000000	1441235.000000	1770064378.893326
-6635.340000	-21189.420000	-4666.140000	8175.690000	-11863.755000	-8435.430000	5480.235000	-823.365000	33.392425	54.257881	114.858129	115.899550	38.518789	17.974194	8.579965	22.989457	-10.651480	-5.707240	-2.151660	0.677061	0.698973	0.159607	-1.000000	-1.000000	-1.000000	-1.000000	-1.000000	-1.000000	-1.000000	78.758621	0.000000	-1.000000	-1.000000	1441236.000000	1770064378.893331
-6527.205000	-21065.355000	-4569.300000	8302.725000	-11759.580000	-8329.095000	5481.540000	-713.295000	14.046461	21.232852	64.991007	70.761693	16.647514	10.241612	1.882312	9.718717	-10.651480	-5.707240	-2.151660	0.677061	0.698973	0.159607	-1.000000	-1.000000	-1.000000	-1.000000	-1.000000	-1.000000	-1.000000	78.758621	0.000000	-1.000000	-1.000000	1441237.000000	1770064378.893337
-6492.960000	-21076.515000	-4576.320000	8206.020000	-11772.405000	-8350.245000	5462.910000	-652.005000	-0.392174	-3.042720	3.844291	2.414758	-1.400629	7.812178	-7.965360	0.937500	-10.651480	-5.707240	-2.151660	0.677061	0.698973	0.159607	-1.000000	-1.000000	-1.000000	-1.000000	-1.000000	-1.000000	-1.000000	78.758621	0.000000	-1.000000	-1.000000	1441238.000000	1770064378.893342
-6709.860000	-21340.485000	-4871.925000	7850.565000	-12037.725000	-8566.290000	5575.320000	-818.505000	-8.896284	-20.753731	-64.208147	-88.637761	-21.493880	3.592530	-13.238623	-0.082494	-10.651480	-5.707240	-2.151660	0.677061	0.698973	0.159607	-1.000000	-1.000000	-1.000000	-1.000000	-1.000000	-1.000000	-1.000000	78.758621	0.000000	-1.000000	-1.000000	1441239.000000	1770064378.894749
-6869.565000	-21492.225000	-5013.045000	7770.555000	-12160.710000	-8668.530000	5409.810000	-979.650000	-22.998656	-47.159861	-132.941317	-179.301967	-51.118091	-13.860641	-8.921463	-5.288547	-10.651480	-5.707240	-2.151660	0.677061	0.698973	0.159607	-1.000000	-1.000000	-1.000000	-1.000000	-1.000000	-1.000000	-1.000000	78.758621	0.000000	-1.000000	-1.000000	1441240.000000	1770064378.894760
-6853.185000	-21475.215000	-5081.130000	7754.310000	-12105.630000	-8622.000000	5419.170000	-967.275000	-46.371594	-81.098186	-180.167454	-220.868584	-81.130483	-40.741698	-1.681729	-24.643899	-12.360600	-17.915240	2.380560	0.673277	0.704222	0.157348	-1.000000	-1.000000	-1.000000	-1.000000	-1.000000	-1.000000	-1.000000	78.758621	0.000000	-1.000000	-1.000000	1441241.000000	1770064378.909347
-6759.630000	-21404.880000	-5126.940000	7605.540000	-12019.140000	-8535.240000	5442.345000	-862.470000	-60.202028	-95.730056	-178.551406	-184.695435	-85.754574	-54.465930	1.113188	-44.568504	-12.360600	-17.915240	2.380560	0.673277	0.704222	0.157348	-1.000000	-1.000000	-1.000000	-1.000000	-1.000000	-1.000000	-1.000000	78.758621	0.000000	-1.000000	-1.000000	1441242.000000	1770064378.909360
-6750.630000	-21405.105000	-5224.635000	7476.390000	-12062.295000	-8552.835000	5591.835000	-785.565000	-43.860225	-68.775369	-122.124386	-94.972467	-51.942436	-38.912842	3.826374	-40.747135	-12.360600	-17.915240	2.380560	0.673277	0.704222	0.157348	-1.000000	-1.000000	-1.000000	-1.000000	-1.000000	-1.000000	-1.000000	78.758621	0.000000	-1.000000	-1.000000	1441243.000000	1770064378.909372
-6828.750000	-21483.630000	-5388.750000	7342.875000	-12146.805000	-8614.215000	5481.720000	-868.275000	-1.381729	-8.254690	-32.048464	3.919157	3.248517	-3.085192	13.009713	-8.503809	-12.360600	-17.915240	2.380560	0.673277	0.704222	0.157348	-1.000000	-1.000000	-1.000000	-1.000000	-1.000000	-1.000000	-1.000000	78.758621	0.000000	-1.000000	-1.000000	1441244.000000	1770064378.909378
-6712.785000	-21367.080000	-5293.485000	7395.480000	-12060.675000	-8531.955000	5511.555000	-819.450000	42.713300	55.515722	60.926590	85.839131	50.424058	29.768644	23.509907	31.009780	-12.360600	-17.915240	2.380560	0.673277	0.704222	0.157348	-1.000000	-1.000000	-1.000000	-1.000000	-1.000000	-1.000000	-1.000000	78.758621	0.000000	-1.000000	-1.000000	1441245.000000	1770064378.909384
-6533.595000	-21138.480000	-4914.090000	7946.460000	-11785.455000	-8298.855000	5621.175000	-732.915000	68.787069	97.195454	136.676099	146.740536	75.551926	47.228621	26.134016	53.339536	-12.360600	-17.915240	2.380560	0.673277	0.704222	0.157348	-1.000000	-1.000000	-1.000000	-1.000000	-1.000000	-1.000000	-1.000000	78.758621	0.000000	-1.000000	-1.000000	1441246.000000	1770064378.909389
-6481.530000	-21022.920000	-4831.740000	8142.570000	-11701.080000	-8289.855000	5747.220000	-659.430000	74.584390	112.597143	188.831775	194.985985	86.002817	54.985569	21.615200	51.947832	-12.360600	-17.915240	2.380560	0.673277	0.704222	0.157348	-1.000000	-1.000000	-1.000000	-1.000000	-1.000000	-1.000000	-1.000000	78.758621	0.000000	-1.000000	-1.000000	1441247.000000	1770064378.909395
-6774.480000	-21314.745000	-4945.545000	7870.320000	-12032.145000	-8558.550000	5585.355000	-793.620000	62.778762	104.400101	207.351493	223.558666	86.422390	55.817980	12.779395	36.159493	-12.360600	-17.915240	2.380560	0.673277	0.704222	0.157348	-1.000000	-1.000000	-1.000000	-1.000000	-1.000000	-1.000000	-1.000000	78.758621	0.000000	-1.000000	-1.000000	1441248.000000	1770064378.909400
-6772.500000	-21345.030000	-4818.465000	7972.245000	-12060.945000	-8595.270000	5499.000000	-852.390000	30.953120	66.246736	175.344305	198.402963	62.710000	38.058369	-4.325316	14.583838	-12.360600	-17.915240	2.380560	0.673277	0.704222	0.157348	-1.000000	-1.000000	-1.000000	-1.000000	-1.000000	-1.000000	-1.000000	78.758621	0.000000	-1.000000	-1.000000	1441249.000000	1770064378.919022
-6748.605000	-21319.380000	-4840.110000	8047.395000	-12052.305000	-8614.530000	5503.905000	-957.690000	-15.897143	-0.621818	91.353980	102.234021	6.990647	-3.571976	-29.051622	-12.061406	-12.360600	-17.915240	2.380560	0.673277	0.704222	0.157348	-1.000000	-1.000000	-1.000000	-1.000000	-1.000000	-1.000000	-1.000000	78.758621	0.000000	-1.000000	-1.000000	1441250.000000	1770064378.919032
-6901.965000	-21426.930000	-4989.195000	7958.205000	-12120.930000	-8678.520000	5495.130000	-998.730000	-61.311098	-73.638275	-23.134680	-34.773995	-61.410068	-53.728000	-50.230036	-43.543715	-9.186520	-40.774720	-0.808780	0.664854	0.702879	0.162963	-1.000000	-1.000000	-1.000000	-1.000000	-1.000000	-1.000000	-1.000000	78.758621	0.000000	-1.000000	-1.000000	1441251.000000	1770064378.919043
-6810.660000	-21395.880000	-4982.490000	7928.415000	-12160.170000	-8726.580000	5421.870000	-939.015000	-88.100308	-122.355310	-132.212932	-157.982191	-109.969254	-87.644259	-57.029286	-68.963250	-9.186520	-40.774720	-0.808780	0.664854	0.702879	0.162963	-1.000000	-1.000000	-1.000000	-1.000000	-1.000000	-1.000000	-1.000000	78.758621	0.000000	-1.000000	-1.000000	1441252.000000	1770064378.919048
-6743.520000	-21336.795000	-4848.480000	8014.770000	-12063.150000	-8639.235000	5368.995000	-920.430000	-81.069929	-123.547732	-192.159898	-218.885595	-113.054484	-85.801114	-45.656610	-68.221583	-9.186520	-40.774720	-0.808780	0.664854	0.702879	0.162963	-1.000000	-1.000000	-1.000000	-1.000000	-1.000000	-1.000000	-1.000000	78.758621	0.000000	-1.000000	-1.000000	1441253.000000	1770064378.920857
-6781.365000	-21289.365000	-4726.080000	8140.545000	-11858.355000	-8444.790000	5491.305000	-875.025000	-40.708561	-77.183114	-177.762711	-200.511471	-66.792186	-45.069392	-17.837360	-34.117678	-9.186520	-40.774720	-0.808780	0.664854	0.702879	0.162963	-1.000000	-1.000000	-1.000000	-1.000000	-1.000000	-1.000000	-1.000000	78.758621	0.000000	-1.000000	-1.000000	1441254.000000	1770064378.920868
-6781.005000	-21283.605000	-4798.305000	7987.095000	-11815.245000	-8384.265000	5626.710000	-712.845000	6.622224	-12.270711	-110.184688	-133.267876	4.325950	16.247897	19.585811	16.706985	-9.186520	-40.774720	-0.808780	0.664854	0.702879	0.162963	-1.000000	-1.000000	-1.000000	-1.000000	-1.000000	-1.000000	-1.000000	78.758621	0.000000	-1.000000	-1.000000	1441255.000000	1770064378.926780
-6738.750000	-21206.205000	-4830.030000	7878.960000	-11881.260000	-8450.100000	5637.150000	-805.005000	37.433199	40.509753	-34.779285	-64.718120	64.166395	69.476156	54.190337	59.967791	-9.186520	-40.774720	-0.808780	0.664854	0.702879	0.162963	-1.000000	-1.000000	-1.000000	-1.000000	-1.000000	-1.000000	-1.000000	78.758621	0.000000	-1.000000	-1.000000	1441256.000000	1770064378.926788
-6606.405000	-21138.705000	-4927.365000	7933.680000	-11851.020000	-8408.115000	5392.530000	-646.380000	56.265816	75.402890	20.813465	-9.898548	92.846156	95.521814	70.286778	80.935956	-9.186520	-40.774720	-0.808780	0.664854	0.702879	0.162963	-1.000000	-1.000000	-1.000000	-1.000000	-1.000000	-1.000000	-1.000000	78.758621	0.000000	-1.000000	-1.000000	1441257.000000	1770064378.928905
-6657.705000	-21390.975000	-5405.715000	7369.380000	-11997.450000	-8471.610000	5019.795000	-661.050000	72.494656	92.515785	44.037981	34.092668	87.829342	89.112910	52.199205	78.541920	-9.186520	-40.774720	-0.808780	0.664854	0.702879	0.162963	-1.000000	-1.000000	-1.000000	-1.000000	-1.000000	-1.000000	-1.000000	78.758621	0.000000	-1.000000	-1.000000	1441258.000000	1770064378.928916
-6647.670000	-21591.495000	-5577.840000	7151.130000	-12167.550000	-8645.490000	5554.620000	-955.170000	74.506906	74.355298	26.719640	50.130961	47.632992	49.214178	4.388455	52.548956	-9.186520	-40.774720	-0.808780	0.664854	0.702879	0.162963	-1.000000	-1.000000	-1.000000	-1.000000	-1.000000	-1.000000	-1.000000	78.758621	0.000000	-1.000000	-1.000000	1441259.000000	1770064378.939086
-6762.870000	-21578.535000	-5519.700000	7086.105000	-12131.775000	-8594.415000	5809.995000	-822.330000	47.250914	15.009388	-10.224999	32.330549	-17.582324	-14.510610	-29.537334	1.198483	-9.186520	-40.774720	-0.808780	0.664854	0.702879	0.162963	-1.000000	-1.000000	-1.000000	-1.000000	-1.000000	-1.000000	-1.000000	78.758621	0.000000	-1.000000	-1.000000	1441260.000000	1770064378.939099
-6886.350000	-21527.730000	-5634.675000	7091.820000	-12130.920000	-8555.355000	5546.790000	-874.710000	-7.091200	-52.242521	-23.023386	13.748321	-73.803930	-71.618987	-14.818532	-57.992640	-22.981560	-14.558040	-7.904680	0.697142	0.722044	0.143921	-1.000000	-1.000000	-1.000000	-1.000000	-1.000000	-1.000000	-1.000000	78.758621	0.000000	-1.000000	-1.000000	1441261.000000	1770064378.939112
-6754.500000	-21494.565000	-5337.450000	7707.330000	-12097.980000	-8595.045000	5383.485000	-952.740000	-68.307962	-85.010688	7.345026	32.312625	-90.933536	-94.054845	20.087913	-95.501535	-22.981560	-14.558040	-7.904680	0.697142	0.722044	0.143921	-1.000000	-1.000000	-1.000000	-1.000000	-1.000000	-1.000000	-1.000000	78.758621	0.000000	-1.000000	-1.000000	1441262.000000	1770064378.939117
-7032.555000	-21570.075000	-5221.305000	7825.095000	-12133.080000	-8691.120000	5466.060000	-931.950000	-107.716959	-71.744706	63.851658	93.952178	-71.037707	-84.102758	23.523631	-98.238147	-22.981560	-14.558040	-7.904680	0.697142	0.722044	0.143921	-1.000000	-1.000000	-1.000000	-1.000000	-1.000000	-1.000000	-1.000000	78.758621	0.000000	-1.000000	-1.000000	1441263.000000	1770064378.954125
-6997.005000	-21384.315000	-4801.320000	8012.160000	-12051.270000	-8653.275000	5591.205000	-1011.195000	-109.071314	-29.345533	119.973786	163.235977	-33.570079	-59.019706	-12.798002	-71.806002	-22.981560	-14.558040	-7.904680	0.697142	0.722044	0.143921	-1.000000	-1.000000	-1.000000	-1.000000	-1.000000	-1.000000	-1.000000	78.758621	0.000000	-1.000000	-1.000000	1441264.000000	1770064378.954138
-6597.405000	-21161.475000	-4617.990000	8224.020000	-12038.895000	-8674.830000	5522.445000	-871.290000	-67.674987	24.633408	157.630002	192.062848	11.117356	-23.117983	-52.832004	-26.203233	-22.981560	-14.558040	-7.904680	0.697142	0.722044	0.143921	-1.000000	-1.000000	-1.000000	-1.000000	-1.000000	-1.000000	-1.000000	78.758621	0.000000	-1.000000	-1.000000	1441265.000000	1770064378.954150
-6569.145000	-21188.745000	-4643.820000	8245.710000	-11991.690000	-8636.850000	5514.165000	-887.670000	13.578442	77.097818	161.224650	157.120250	57.291276	23.912842	-57.297605	27.997022	-22.981560	-14.558040	-7.904680	0.697142	0.722044	0.143921	-1.000000	-1.000000	-1.000000	-1.000000	-1.000000	-1.000000	-1.000000	78.758621	0.000000	-1.000000	-1.000000	1441266.000000	1770064378.954156
-6704.145000	-21250.935000	-4780.935000	8055.090000	-12099.195000	-8745.570000	5503.545000	-877.455000	100.378812	107.727327	115.525242	66.298418	89.917278	68.763120	-18.646627	75.310900	-22.981560	-14.558040	-7.904680	0.697142	0.722044	0.143921	-1.000000	-1.000000	-1.000000	-1.000000	-1.000000	-1.000000	-1.000000	78.758621	0.000000	-1.000000	-1.000000	1441267.000000	1770064378.954163
-6642.540000	-21209.085000	-4756.815000	8085.870000	-12016.935000	-8667.900000	5484.645000	-797.265000	140.327773	99.012810	22.551479	-50.692115	93.291778	92.677890	26.663231	101.929244	-22.981560	-14.558040	-7.904680	0.697142	0.722044	0.143921	-1.000000	-1.000000	-1.000000	-1.000000	-1.000000	-1.000000	-1.000000	78.758621	0.000000	-1.000000	-1.000000	1441268.000000	1770064378.954168
-6856.335000	-21520.620000	-4933.755000	7962.570000	-12080.970000	-8704.080000	5408.820000	-990.495000	111.844172	47.638369	-92.256651	-155.460823	64.567371	86.360480	33.866925	97.590886	-22.981560	-14.558040	-7.904680	0.697142	0.722044	0.143921	-1.000000	-1.000000	-1.000000	-1.000000	-1.000000	-1.000000	-1.000000	78.758621	0.000000	-1.000000	-1.000000	1441269.000000	1770064378.954173
-6929.415000	-21541.905000	-4978.350000	7886.385000	-12131.280000	-8738.190000	5335.020000	-1058.670000	32.652977	-36.817343	-192.722440	-221.418842	12.116299	50.926777	4.167955	54.553333	-22.981560	-14.558040	-7.904680	0.697142	0.722044	0.143921	-1.000000	-1.000000	-1.000000	-1.000000	-1.000000	-1.000000	-1.000000	78.758621	0.000000	-1.000000	-1.000000	1441270.000000	1770064378.954178
-6759.540000	-21228.795000	-4982.805000	7885.395000	-12066.030000	-8657.370000	5391.405000	-986.985000	-56.059740	-118.159593	-246.937611	-244.445723	-47.505528	-1.145051	-23.711564	-13.483680	-29.802780	39.706520	-20.768860	0.765928	0.729185	0.113159	-1.000000	-1.000000	-1.000000	-1.000000	-1.000000	-1.000000	-1.000000	78.758621	0.000000	-1.000000	-1.000000	1441271.000000	1770064378.963947
-6513.120000	-21332.205000	-5145.930000	7732.935000	-12163.365000	-8743.365000	5523.660000	-567.135000	-100.703842	-144.640123	-239.318035	-225.967501	-91.292490	-46.898285	-23.805490	-64.916086	-29.802780	39.706520	-20.768860	0.765928	0.729185	0.113159	-1.000000	-1.000000	-1.000000	-1.000000	-1.000000	-1.000000	-1.000000	78.758621	0.000000	-1.000000	-1.000000	1441272.000000	1770064378.963958
-6630.930000	-21564.945000	-5092.740000	7777.305000	-12184.830000	-8756.955000	5477.760000	-846.720000	-76.261447	-107.593688	-175.720686	-160.328912	-102.125328	-68.295927	-0.981636	-66.661762	-29.802780	39.706520	-20.768860	0.765928	0.729185	0.113159	-1.000000	-1.000000	-1.000000	-1.000000	-1.000000	-1.000000	-1.000000	78.758621	0.000000	-1.000000	-1.000000	1441273.000000	1770064378.963970
-6740.370000	-21473.370000	-5080.095000	7809.705000	-12190.365000	-8772.885000	5384.295000	-1004.490000	-22.021585	-48.238505	-73.327019	-50.100906	-77.894157	-62.417054	25.220209	-36.430839	-29.802780	39.706520	-20.768860	0.765928	0.729185	0.113159	-1.000000	-1.000000	-1.000000	-1.000000	-1.000000	-1.000000	-1.000000	78.758621	0.000000	-1.000000	-1.000000	1441274.000000	1770064378.963975
-6578.865000	-21282.390000	-4913.010000	7932.645000	-12100.005000	-8727.795000	5322.915000	-901.035000	8.049676	6.160361	52.258350	84.446652	-27.513473	-36.193191	38.797374	-16.256965	-29.802780	39.706520	-20.768860	0.765928	0.729185	0.113159	-1.000000	-1.000000	-1.000000	-1.000000	-1.000000	-1.000000	-1.000000	78.758621	0.000000	-1.000000	-1.000000	1441275.000000	1770064378.969683
-6774.615000	-21308.670000	-4877.325000	8003.835000	-11939.265000	-8541.855000	5541.480000	-912.555000	7.134780	59.414881	179.392905	211.290448	35.735844	2.528647	34.850369	-14.442085	-29.802780	39.706520	-20.768860	0.765928	0.729185	0.113159	-1.000000	-1.000000	-1.000000	-1.000000	-1.000000	-1.000000	-1.000000	78.758621	0.000000	-1.000000	-1.000000	1441276.000000	1770064378.969698
-6883.245000	-21429.495000	-5097.555000	7730.730000	-12010.095000	-8532.180000	5527.395000	-876.915000	-4.926689	104.667193	263.649953	284.689889	91.325527	43.755896	19.569344	-12.690553	-29.802780	39.706520	-20.768860	0.765928	0.729185	0.113159	-1.000000	-1.000000	-1.000000	-1.000000	-1.000000	-1.000000	-1.000000	78.758621	0.000000	-1.000000	-1.000000	1441277.000000	1770064378.969711
-6696.045000	-21472.470000	-5102.415000	7744.815000	-12056.670000	-8594.865000	5554.215000	-760.680000	-10.130276	118.384901	258.122601	261.499384	111.094157	67.701546	4.660499	2.403525	-29.802780	39.706520	-20.768860	0.765928	0.729185	0.113159	-1.000000	-1.000000	-1.000000	-1.000000	-1.000000	-1.000000	-1.000000	78.758621	0.000000	-1.000000	-1.000000	1441278.000000	1770064378.969717
-6518.655000	-21438.630000	-5009.355000	7980.165000	-12123.450000	-8665.470000	5538.150000	-754.650000	7.497655	88.617869	160.739879	146.235465	79.432089	55.185202	-2.012766	31.390481	-29.802780	39.706520	-20.768860	0.765928	0.729185	0.113159	-1.000000	-1.000000	-1.000000	-1.000000	-1.000000	-1.000000	-1.000000	78.758621	0.000000	-1.000000	-1.000000	1441279.000000	1770064378.986216
-6536.565000	-21156.840000	-4792.680000	8100.855000	-12006.630000	-8577.090000	5511.510000	-911.160000	42.379907	28.010801	23.390780	-0.447256	11.806564	9.641942	-5.412069	52.243417	-29.802780	39.706520	-20.768860	0.765928	0.729185	0.113159	-1.000000	-1.000000	-1.000000	-1.000000	-1.000000	-1.000000	-1.000000	78.758621	0.000000	-1.000000	-1.000000	1441280.000000	1770064378.986227
-6575.535000	-21075.120000	-4660.110000	8143.110000	-11963.970000	-8549.505000	5494.455000	-778.140000	61.931395	-28.218927	-85.709472	-108.699667	-51.668069	-39.216853	-17.904777	36.289938	38.363640	57.804880	-26.537140	0.740171	0.658873	0.095154	-1.000000	-1.000000	-1.000000	-1.000000	-1.000000	-1.000000	-1.000000	78.758621	0.000000	-1.000000	-1.000000	1441281.000000	1770064378.986238
-6520.230000	-21064.095000	-4614.975000	8234.370000	-11881.440000	-8473.230000	5538.285000	-822.555000	43.702357	-48.887223	-129.151562	-146.591926	-75.299263	-59.256601	-37.193662	-7.193081	38.363640	57.804880	-26.537140	0.740171	0.658873	0.095154	-1.000000	-1.000000	-1.000000	-1.000000	-1.000000	-1.000000	-1.000000	78.758621	0.000000	-1.000000	-1.000000	1441282.000000	1770064378.986243
-6738.120000	-21091.095000	-4623.885000	8243.010000	-11871.990000	-8437.185000	5466.150000	-814.320000	-2.794188	-39.115787	-116.514799	-126.233552	-54.742150	-42.262249	-43.494133	-38.816391	38.363640	57.804880	-26.537140	0.740171	0.658873	0.095154	-1.000000	-1.000000	-1.000000	-1.000000	-1.000000	-1.000000	-1.000000	78.758621	0.000000	-1.000000	-1.000000	1441283.000000	1770064378.986249
-6854.310000	-21447.225000	-5041.800000	7816.680000	-12268.530000	-8744.175000	5491.665000	-879.840000	-54.824155	-32.614590	-85.720366	-84.818654	-20.502264	-10.591501	-27.310312	-39.732436	38.363640	57.804880	-26.537140	0.740171	0.658873	0.095154	-1.000000	-1.000000	-1.000000	-1.000000	-1.000000	-1.000000	-1.000000	78.758621	0.000000	-1.000000	-1.000000	1441284.000000	1770064378.986254
-6667.110000	-21568.500000	-5242.680000	7607.745000	-12456.540000	-8926.020000	5285.925000	-837.270000	-85.111320	-52.973860	-73.146826	-60.963980	-14.286121	-1.508582	-5.868650	-21.345827	38.363640	57.804880	-26.537140	0.740171	0.658873	0.095154	-1.000000	-1.000000	-1.000000	-1.000000	-1.000000	-1.000000	-1.000000	78.758621	0.000000	-1.000000	-1.000000	1441285.000000	1770064378.986260
-7053.795000	-21575.655000	-5217.975000	7669.170000	-12304.215000	-8778.105000	5371.020000	-1171.125000	-71.891678	-82.970428	-77.996796	-58.506881	-40.818554	-25.335886	0.361044	-4.929959	38.363640	57.804880	-26.537140	0.740171	0.658873	0.095154	-1.000000	-1.000000	-1.000000	-1.000000	-1.000000	-1.000000	-1.000000	78.758621	0.000000	-1.000000	-1.000000	1441286.000000	1770064378.986264
-6977.655000	-21517.920000	-5361.840000	7497.045000	-12259.260000	-8720.280000	5390.370000	-1128.690000	-29.657496	-81.479865	-67.559311	-48.796218	-55.889214	-45.703722	-2.803619	-6.548415	38.363640	57.804880	-26.537140	0.740171	0.658873	0.095154	-1.000000	-1.000000	-1.000000	-1.000000	-1.000000	-1.000000	-1.000000	78.758621	0.000000	-1.000000	-1.000000	1441287.000000	1770064378.990274
-6764.535000	-21503.835000	-5581.530000	7152.480000	-12334.230000	-8753.265000	5422.680000	-740.340000	9.914078	-34.633966	-30.990586	-25.357900	-25.389357	-26.588849	3.628265	-15.049786	38.363640	57.804880	-26.537140	0.740171	0.658873	0.095154	-1.000000	-1.000000	-1.000000	-1.000000	-1.000000	-1.000000	-1.000000	78.758621	0.000000	-1.000000	-1.000000	1441288.000000	1770064378.990284
-6843.780000	-21553.695000	-5457.375000	7302.735000	-12265.245000	-8709.075000	5451.975000	-868.410000	37.639758	28.008968	10.917184	-5.389066	34.016019	23.732929	22.725704	-1.638251	38.363640	57.804880	-26.537140	0.740171	0.658873	0.095154	-1.000000	-1.000000	-1.000000	-1.000000	-1.000000	-1.000000	-1.000000	78.758621	0.000000	-1.000000	-1.000000	1441289.000000	1770064378.993013
-6862.095000	-21462.525000	-5135.895000	7839.675000	-12177.945000	-8683.335000	5388.210000	-880.920000	54.037877	70.302554	48.380782	21.623864	84.266332	70.525447	40.806016	32.063023	38.363640	57.804880	-26.537140	0.740171	0.658873	0.095154	-1.000000	-1.000000	-1.000000	-1.000000	-1.000000	-1.000000	-1.000000	78.758621	0.000000	-1.000000	-1.000000	1441290.000000	1770064378.993029
-6750.765000	-21353.445000	-4835.745000	8028.810000	-12156.390000	-8699.085000	5089.860000	-908.280000	56.818810	83.515055	92.973155	82.428523	101.478803	86.252924	39.958941	55.955719	67.494980	-5.661460	10.147900	0.604002	0.661741	0.132324	-1.000000	-1.000000	-1.000000	-1.000000	-1.000000	-1.000000	-1.000000	78.758621	0.000000	-1.000000	-1.000000	1441291.000000	1770064378.996960
-6639.975000	-21220.155000	-4695.165000	8106.660000	-12093.930000	-8652.420000	5389.335000	-934.740000	53.305997	81.377636	146.951513	163.995353	83.960541	65.975173	16.073606	51.904165	67.494980	-5.661460	10.147900	0.604002	0.661741	0.132324	-1.000000	-1.000000	-1.000000	-1.000000	-1.000000	-1.000000	-1.000000	78.758621	0.000000	-1.000000	-1.000000	1441292.000000	1770064378.996967
-6611.265000	-21043.170000	-4547.835000	8296.785000	-11889.990000	-8477.910000	5666.355000	-891.675000	52.155466	81.134474	189.151489	218.815100	52.619578	31.552151	-5.454383	24.313317	67.494980	-5.661460	10.147900	0.604002	0.661741	0.132324	-1.000000	-1.000000	-1.000000	-1.000000	-1.000000	-1.000000	-1.000000	78.758621	0.000000	-1.000000	-1.000000	1441293.000000	1770064379.000975
-6742.845000	-21143.025000	-4707.135000	8154.900000	-11988.630000	-8519.715000	5380.380000	-806.220000	45.427348	84.653325	186.522602	207.731944	29.791497	9.693844	-0.015784	-7.114689	67.494980	-5.661460	10.147900	0.604002	0.661741	0.132324	-1.000000	-1.000000	-1.000000	-1.000000	-1.000000	-1.000000	-1.000000	78.758621	0.000000	-1.000000	-1.000000	1441294.000000	1770064379.000983
-6742.170000	-21228.345000	-4826.655000	8042.265000	-12057.975000	-8561.475000	5409.180000	-847.710000	20.651864	68.436058	111.641175	114.455166	8.067795	-1.198550	16.227887	-20.596794	67.494980	-5.661460	10.147900	0.604002	0.661741	0.132324	-1.000000	-1.000000	-1.000000	-1.000000	-1.000000	-1.000000	-1.000000	78.758621	0.000000	-1.000000	-1.000000	1441295.000000	1770064379.015993
-7055.730000	-21512.880000	-5077.395000	7806.420000	-12268.440000	-8747.370000	5488.560000	-1157.040000	-25.515553	6.314600	-29.578699	-42.759876	-34.441142	-22.808190	14.118356	-19.678147	67.494980	-5.661460	10.147900	0.604002	0.661741	0.132324	-1.000000	-1.000000	-1.000000	-1.000000	-1.000000	-1.000000	-1.000000	78.758621	0.000000	-1.000000	-1.000000	1441296.000000	1770064379.016005
-7011.225000	-21571.740000	-5238.855000	7621.290000	-12445.695000	-8929.755000	5180.760000	-1022.130000	-87.564236	-95.056268	-185.965601	-204.278335	-96.331671	-63.383906	-11.457305	-31.255708	67.494980	-5.661460	10.147900	0.604002	0.661741	0.132324	-1.000000	-1.000000	-1.000000	-1.000000	-1.000000	-1.000000	-1.000000	78.758621	0.000000	-1.000000	-1.000000	1441297.000000	1770064379.016018
-6721.470000	-21595.995000	-5451.840000	7413.255000	-12441.645000	-8875.035000	5275.395000	-849.915000	-132.883994	-186.801081	-293.924503	-306.302570	-148.578507	-104.886335	-48.653984	-54.185413	67.494980	-5.661460	10.147900	0.604002	0.661741	0.132324	-1.000000	-1.000000	-1.000000	-1.000000	-1.000000	-1.000000	-1.000000	78.758621	0.000000	-1.000000	-1.000000	1441298.000000	1770064379.016024
-6834.465000	-21622.905000	-5671.980000	7012.125000	-12433.590000	-8846.055000	5386.995000	-973.395000	-117.091862	-211.984787	-318.803419	-326.478886	-156.051434	-114.703941	-70.200523	-54.391715	67.494980	-5.661460	10.147900	0.604002	0.661741	0.132324	-1.000000	-1.000000	-1.000000	-1.000000	-1.000000	-1.000000	-1.000000	78.758621	0.000000	-1.000000	-1.000000	1441299.000000	1770064379.016030
-6914.790000	-21649.095000	-5781.420000	6934.635000	-12343.770000	-8738.145000	5439.015000	-929.025000	-43.701811	-153.274350	-260.205746	-274.404118	-102.106964	-72.673074	-46.720038	-19.902914	67.494980	-5.661460	10.147900	0.604002	0.661741	0.132324	-1.000000	-1.000000	-1.000000	-1.000000	-1.000000	-1.000000	-1.000000	78.758621	0.000000	-1.000000	-1.000000	1441300.000000	1770064379.016036
-7026.120000	-21654.495000	-5826.915000	7265.160000	-12331.530000	-8771.670000	5335.020000	-965.025000	35.427413	-40.736798	-133.862859	-151.225084	-2.487702	7.998570	8.833369	26.972187	57.499680	-57.774360	21.119840	0.571898	0.700194	0.173950	-1.000000	-1.000000	-1.000000	-1.000000	-1.000000	-1.000000	-1.000000	78.758621	0.000000	-1.000000	-1.000000	1441301.000000	1770064379.030731
-6966.630000	-21542.535000	-5273.145000	7653.645000	-12264.660000	-8785.440000	5073.210000	-1178.640000	77.774572	77.336945	40.584419	43.929373	100.739227	86.049579	44.165333	54.976228	57.499680	-57.774360	21.119840	0.571898	0.700194	0.173950	-1.000000	-1.000000	-1.000000	-1.000000	-1.000000	-1.000000	-1.000000	78.758621	0.000000	-1.000000	-1.000000	1441302.000000	1770064379.030744
-6998.220000	-21334.320000	-4673.340000	8100.135000	-12086.235000	-8646.705000	5134.770000	-1015.020000	81.266288	165.155873	239.564295	272.736875	166.262823	123.663303	32.247964	47.357027	57.499680	-57.774360	21.119840	0.571898	0.700194	0.173950	-1.000000	-1.000000	-1.000000	-1.000000	-1.000000	-1.000000	-1.000000	78.758621	0.000000	-1.000000	-1.000000	1441303.000000	1770064379.030756
-6566.715000	-21157.155000	-4600.485000	8229.195000	-12030.435000	-8614.980000	5461.605000	-833.940000	72.087930	209.041264	413.262258	451.525850	178.049364	114.606376	2.120226	23.030506	57.499680	-57.774360	21.119840	0.571898	0.700194	0.173950	-1.000000	-1.000000	-1.000000	-1.000000	-1.000000	-1.000000	-1.000000	78.758621	0.000000	-1.000000	-1.000000	1441304.000000	1770064379.030762
-6767.910000	-21227.265000	-4692.600000	8185.635000	-12003.390000	-8586.720000	5364.900000	-978.300000	71.689154	203.858566	477.002461	491.766210	143.015972	78.077224	-3.974788	13.020880	57.499680	-57.774360	21.119840	0.571898	0.700194	0.173950	-1.000000	-1.000000	-1.000000	-1.000000	-1.000000	-1.000000	-1.000000	78.758621	0.000000	-1.000000	-1.000000	1441305.000000	1770064379.030768
-6481.305000	-20772.675000	-4268.880000	8610.975000	-11536.740000	-8200.980000	5510.430000	-581.265000	70.535014	149.402891	374.239733	361.844995	82.691414	39.666903	22.230307	19.493401	57.499680	-57.774360	21.119840	0.571898	0.700194	0.173950	-1.000000	-1.000000	-1.000000	-1.000000	-1.000000	-1.000000	-1.000000	78.758621	0.000000	-1.000000	-1.000000	1441306.000000	1770064379.030772
-6688.395000	-21267.180000	-4888.215000	7940.790000	-12157.830000	-8713.035000	5747.805000	-709.245000	42.660451	56.250626	132.933031	108.582577	14.645438	8.858798	58.883428	25.838076	57.499680	-57.774360	21.119840	0.571898	0.700194	0.173950	-1.000000	-1.000000	-1.000000	-1.000000	-1.000000	-1.000000	-1.000000	78.758621	0.000000	-1.000000	-1.000000	1441307.000000	1770064379.030778
-7054.740000	-21628.890000	-5225.670000	7615.620000	-12433.455000	-8953.695000	5388.075000	-1194.705000	-23.142657	-66.926920	-165.130538	-184.250040	-70.966434	-36.609355	74.280300	12.458380	57.499680	-57.774360	21.119840	0.571898	0.700194	0.173950	-1.000000	-1.000000	-1.000000	-1.000000	-1.000000	-1.000000	-1.000000	78.758621	0.000000	-1.000000	-1.000000	1441308.000000	1770064379.030783
-7305.255000	-21764.250000	-5337.405000	7508.700000	-12514.455000	-9035.775000	5291.685000	-1008.540000	-111.024638	-200.301647	-418.653872	-423.785328	-174.725139	-109.861125	39.391978	-32.101903	57.499680	-57.774360	21.119840	0.571898	0.700194	0.173950	-1.000000	-1.000000	-1.000000	-1.000000	-1.000000	-1.000000	-1.000000	78.758621	0.000000	-1.000000	-1.000000	1441309.000000	1770064379.046329
-7083.270000	-21744.360000	-5353.470000	7494.480000	-12514.635000	-9044.055000	5264.550000	-1051.200000	-175.546683	-287.634174	-527.931221	-525.670010	-247.176685	-172.861773	-40.134580	-81.837166	57.499680	-57.774360	21.119840	0.571898	0.700194	0.173950	-1.000000	-1.000000	-1.000000	-1.000000	-1.000000	-1.000000	-1.000000	78.758621	0.000000	-1.000000	-1.000000	1441310.000000	1770064379.046366
-7190.730000	-21689.055000	-5295.870000	7558.785000	-12447.720000	-8992.305000	5233.770000	-1211.265000	-166.451195	-272.164284	-454.421269	-456.830127	-231.101605	-171.779669	-111.142447	-94.642614	60.261740	-75.216540	-6.241340	0.609679	0.656676	0.184875	-1.000000	-1.000000	-1.000000	-1.000000	-1.000000	-1.000000	-1.000000	78.758621	0.000000	-1.000000	-1.000000	1441311.000000	1770064379.046387
-7139.835000	-21524.490000	-5149.845000	7692.705000	-12319.830000	-8899.740000	5288.310000	-1102.140000	-79.483498	-149.715097	-245.661901	-251.634983	-118.777629	-92.245124	-124.688954	-63.206487	60.261740	-75.216540	-6.241340	0.609679	0.656676	0.184875	-1.000000	-1.000000	-1.000000	-1.000000	-1.000000	-1.000000	-1.000000	78.758621	0.000000	-1.000000	-1.000000	1441312.000000	1770064379.046393
-6924.555000	-21607.470000	-5228.055000	7628.895000	-12360.330000	-8928.765000	5255.550000	-1001.610000	38.000802	26.460372	11.240801	11.806973	42.757782	31.001335	-82.422790	-8.087398	60.261740	-75.216540	-6.241340	0.609679	0.656676	0.184875	-1.000000	-1.000000	-1.000000	-1.000000	-1.000000	-1.000000	-1.000000	78.758621	0.000000	-1.000000	-1.000000	1441313.000000	1770064379.046399
-7039.665000	-21601.665000	-5212.170000	7645.095000	-12346.740000	-8916.345000	5089.680000	-1019.205000	131.219181	176.362487	230.266199	240.699658	179.096843	137.956744	-19.169923	47.599279	60.261740	-75.216540	-6.241340	0.609679	0.656676	0.184875	-1.000000	-1.000000	-1.000000	-1.000000	-1.000000	-1.000000	-1.000000	78.758621	0.000000	-1.000000	-1.000000	1441314.000000	1770064379.046404
-7002.855000	-21509.325000	-5116.230000	7742.070000	-12257.685000	-8851.815000	5192.370000	-1040.850000	162.672694	238.397321	346.729455	361.552469	231.102224	179.629583	31.640946	77.371644	60.261740	-75.216540	-6.241340	0.609679	0.656676	0.184875	-1.000000	-1.000000	-1.000000	-1.000000	-1.000000	-1.000000	-1.000000	78.758621	0.000000	-1.000000	-1.000000	1441315.000000	1770064379.061439
-6890.310000	-21500.235000	-5129.460000	7720.605000	-12282.345000	-8875.035000	5093.955000	-1038.825000	129.343704	210.694432	348.367353	361.042193	197.488973	153.189435	54.211638	69.526131	60.261740	-75.216540	-6.241340	0.609679	0.656676	0.184875	-1.000000	-1.000000	-1.000000	-1.000000	-1.000000	-1.000000	-1.000000	78.758621	0.000000	-1.000000	-1.000000	1441316.000000	1770064379.061449
-6834.240000	-21356.820000	-4969.305000	7887.060000	-12117.870000	-8731.395000	5028.885000	-982.440000	72.303348	141.831982	273.640278	281.228928	125.021879	95.774621	55.128488	46.409267	60.261740	-75.216540	-6.241340	0.609679	0.656676	0.184875	-1.000000	-1.000000	-1.000000	-1.000000	-1.000000	-1.000000	-1.000000	78.758621	0.000000	-1.000000	-1.000000	1441317.000000	1770064379.061461
-6822.450000	-21350.610000	-4972.950000	7877.565000	-12134.970000	-8737.920000	5434.830000	-917.190000	31.742588	74.293022	164.590915	164.770021	53.294536	40.243974	55.637248	31.797485	60.261740	-75.216540	-6.241340	0.609679	0.656676	0.184875	-1.000000	-1.000000	-1.000000	-1.000000	-1.000000	-1.000000	-1.000000	78.758621	0.000000	-1.000000	-1.000000	1441318.000000	1770064379.061466
-6758.865000	-21279.465000	-4924.170000	7920.720000	-12098.160000	-8719.605000	5585.355000	-809.190000	6.558315	14.522122	40.059579	30.056567	-9.858490	-6.838681	73.965373	25.859205	60.261740	-75.216540	-6.241340	0.609679	0.656676	0.184875	-1.000000	-1.000000	-1.000000	-1.000000	-1.000000	-1.000000	-1.000000	78.758621	0.000000	-1.000000	-1.000000	1441319.000000	1770064379.061472
-6669.405000	-21132.540000	-4735.620000	8130.150000	-11874.015000	-8500.635000	5615.910000	-656.145000	-20.859110	-45.432485	-87.435765	-104.517132	-66.483827	-48.675033	101.060481	22.441431	60.261740	-75.216540	-6.241340	0.609679	0.656676	0.184875	-1.000000	-1.000000	-1.000000	-1.000000	-1.000000	-1.000000	-1.000000	78.758621	0.000000	-1.000000	-1.000000	1441320.000000	1770064379.061477
-7103.700000	-21376.530000	-4966.920000	7877.925000	-12132.855000	-8700.255000	5372.775000	-823.590000	-60.442236	-104.490832	-192.477108	-207.185877	-110.894915	-82.196661	95.383981	12.025524	75.735380	-74.300940	1.022420	0.594725	0.640806	0.179687	-1.000000	-1.000000	-1.000000	-1.000000	-1.000000	-1.000000	-1.000000	78.758621	0.000000	-1.000000	-1.000000	1441321.000000	1770064379.061482
-6937.740000	-21714.345000	-5365.980000	7474.005000	-12521.430000	-9055.575000	5344.380000	-1083.960000	-112.764467	-155.371030	-250.384647	-255.936302	-141.464729	-107.568760	27.655334	-22.974561	75.735380	-74.300940	1.022420	0.594725	0.640806	0.179687	-1.000000	-1.000000	-1.000000	-1.000000	-1.000000	-1.000000	-1.000000	78.758621	0.000000	-1.000000	-1.000000	1441322.000000	1770064379.061487
-6994.665000	-21707.730000	-5337.855000	7521.165000	-12462.660000	-9001.845000	5378.220000	-1094.355000	-151.431927	-186.650716	-252.977893	-249.722671	-160.164879	-128.101780	-74.857071	-83.973940	75.735380	-74.300940	1.022420	0.594725	0.640806	0.179687	-1.000000	-1.000000	-1.000000	-1.000000	-1.000000	-1.000000	-1.000000	78.758621	0.000000	-1.000000	-1.000000	1441323.000000	1770064379.064196
-7003.170000	-21622.860000	-5209.245000	7642.170000	-12330.270000	-8890.515000	5349.195000	-985.545000	-139.308199	-174.491878	-194.078867	-185.663160	-147.548109	-126.258343	-153.151500	-134.764899	75.735380	-74.300940	1.022420	0.594725	0.640806	0.179687	-1.000000	-1.000000	-1.000000	-1.000000	-1.000000	-1.000000	-1.000000	78.758621	0.000000	-1.000000	-1.000000	1441324.000000	1770064379.064223
-6921.180000	-21582.405000	-5221.845000	7668.945000	-12286.575000	-8862.390000	5352.795000	-1035.045000	-69.810110	-97.605591	-72.058957	-61.264649	-76.311532	-74.633796	-166.242178	-127.512907	75.735380	-74.300940	1.022420	0.594725	0.640806	0.179687	-1.000000	-1.000000	-1.000000	-1.000000	-1.000000	-1.000000	-1.000000	78.758621	0.000000	-1.000000	-1.000000	1441325.000000	1770064379.064991
-7149.510000	-21487.905000	-5075.640000	7745.355000	-12179.385000	-8772.750000	5401.665000	-1075.005000	27.763375	27.851601	79.497242	89.788492	40.647582	19.726832	-110.788259	-55.997892	75.735380	-74.300940	1.022420	0.594725	0.640806	0.179687	-1.000000	-1.000000	-1.000000	-1.000000	-1.000000	-1.000000	-1.000000	78.758621	0.000000	-1.000000	-1.000000	1441326.000000	1770064379.064997
-6825.870000	-21563.775000	-5150.070000	7699.095000	-12238.965000	-8821.260000	5366.970000	-856.665000	108.980150	146.245009	197.765784	202.307281	148.131555	111.775650	-23.534457	38.861003	75.735380	-74.300940	1.022420	0.594725	0.640806	0.179687	-1.000000	-1.000000	-1.000000	-1.000000	-1.000000	-1.000000	-1.000000	78.758621	0.000000	-1.000000	-1.000000	1441327.000000	1770064379.076193
-6795.180000	-21421.710000	-5009.445000	7867.935000	-12137.220000	-8740.665000	5029.920000	-896.985000	145.830047	200.796850	231.589332	227.617571	191.875639	154.905108	40.187705	111.271372	75.735380	-74.300940	1.022420	0.594725	0.640806	0.179687	-1.000000	-1.000000	-1.000000	-1.000000	-1.000000	-1.000000	-1.000000	78.758621	0.000000	-1.000000	-1.000000	1441328.000000	1770064379.076202
-6705.855000	-21245.445000	-4872.645000	8012.115000	-11991.690000	-8639.325000	4773.465000	-878.805000	137.550118	174.619417	174.955145	166.935556	156.176050	132.148055	47.194377	132.826518	75.735380	-74.300940	1.022420	0.594725	0.640806	0.179687	-1.000000	-1.000000	-1.000000	-1.000000	-1.000000	-1.000000	-1.000000	78.758621	0.000000	-1.000000	-1.000000	1441329.000000	1770064379.076211
-6823.080000	-21434.670000	-5037.975000	7828.245000	-12215.565000	-8846.550000	5384.025000	-888.300000	95.962519	98.590662	71.961637	66.644048	72.534455	65.514855	21.026708	101.566473	75.735380	-74.300940	1.022420	0.594725	0.640806	0.179687	-1.000000	-1.000000	-1.000000	-1.000000	-1.000000	-1.000000	-1.000000	78.758621	0.000000	-1.000000	-1.000000	1441330.000000	1770064379.076216
-6874.200000	-21461.715000	-5069.835000	7773.795000	-12267.180000	-8860.140000	5745.645000	-905.625000	32.791483	16.716405	-20.284438	-20.787164	-11.619003	-5.484556	28.561099	44.803452	51.166780	-61.116300	-1.327620	0.612120	0.680479	0.145080	-1.000000	-1.000000	-1.000000	-1.000000	-1.000000	-1.000000	-1.000000	78.758621	0.000000	-1.000000	-1.000000	1441331.000000	1770064379.091245
-6805.530000	-21322.935000	-4900.635000	7962.705000	-12065.625000	-8694.405000	5639.355000	-761.535000	-37.913508	-44.865844	-71.638484	-70.260597	-66.809027	-52.315071	93.400066	-6.067458	51.166780	-61.116300	-1.327620	0.612120	0.680479	0.145080	-1.000000	-1.000000	-1.000000	-1.000000	-1.000000	-1.000000	-1.000000	78.758621	0.000000	-1.000000	-1.000000	1441332.000000	1770064379.091257
-6897.645000	-21421.935000	-4965.390000	7926.120000	-12071.295000	-8685.585000	5469.120000	-847.620000	-92.827075	-78.242807	-82.142484	-81.750912	-83.994490	-65.109590	153.340892	-36.758473	51.166780	-61.116300	-1.327620	0.612120	0.680479	0.145080	-1.000000	-1.000000	-1.000000	-1.000000	-1.000000	-1.000000	-1.000000	78.758621	0.000000	-1.000000	-1.000000	1441333.000000	1770064379.091269
-6857.685000	-21457.980000	-5029.065000	7862.805000	-12111.030000	-8672.355000	5299.155000	-970.650000	-111.146826	-88.847060	-70.458242	-70.537831	-72.032892	-52.009960	134.717449	-50.178435	51.166780	-61.116300	-1.327620	0.612120	0.680479	0.145080	-1.000000	-1.000000	-1.000000	-1.000000	-1.000000	-1.000000	-1.000000	78.758621	0.000000	-1.000000	-1.000000	1441334.000000	1770064379.091274
-6823.395000	-21386.880000	-4950.540000	7927.650000	-12062.790000	-8655.570000	5354.325000	-909.495000	-87.828148	-85.242830	-57.215213	-55.974489	-50.494772	-31.322088	29.127681	-56.198499	51.166780	-61.116300	-1.327620	0.612120	0.680479	0.145080	-1.000000	-1.000000	-1.000000	-1.000000	-1.000000	-1.000000	-1.000000	78.758621	0.000000	-1.000000	-1.000000	1441335.000000	1770064379.091281
-7017.030000	-21497.490000	-5070.015000	7774.380000	-12194.685000	-8771.220000	5508.810000	-1080.900000	-41.675659	-68.932286	-48.559130	-46.553143	-32.421044	-17.184072	-100.499991	-60.476959	51.166780	-61.116300	-1.327620	0.612120	0.680479	0.145080	-1.000000	-1.000000	-1.000000	-1.000000	-1.000000	-1.000000	-1.000000	78.758621	0.000000	-1.000000	-1.000000	1441336.000000	1770064379.091285
-6903.630000	-21568.275000	-5252.040000	7507.530000	-12267.855000	-8818.290000	5409.180000	-868.770000	-4.954784	-45.979842	-45.739771	-47.760554	-24.786671	-17.153137	-168.912353	-59.348111	51.166780	-61.116300	-1.327620	0.612120	0.680479	0.145080	-1.000000	-1.000000	-1.000000	-1.000000	-1.000000	-1.000000	-1.000000	78.758621	0.000000	-1.000000	-1.000000	1441337.000000	1770064379.091291
-6924.195000	-21614.130000	-5385.105000	7291.305000	-12236.895000	-8756.505000	5188.950000	-771.795000	12.581493	-26.682176	-50.127703	-62.789160	-26.486057	-26.717172	-144.638933	-38.400186	51.166780	-61.116300	-1.327620	0.612120	0.680479	0.145080	-1.000000	-1.000000	-1.000000	-1.000000	-1.000000	-1.000000	-1.000000	78.758621	0.000000	-1.000000	-1.000000	1441338.000000	1770064379.091296
-6996.015000	-21598.470000	-5363.820000	7598.745000	-12168.495000	-8709.840000	5061.600000	-1050.615000	24.609825	-4.687212	-44.762382	-65.192019	-15.979808	-22.334566	-78.034408	6.513392	51.166780	-61.116300	-1.327620	0.612120	0.680479	0.145080	-1.000000	-1.000000	-1.000000	-1.000000	-1.000000	-1.000000	-1.000000	78.758621	0.000000	-1.000000	-1.000000	1441339.000000	1770064379.103281
-6715.170000	-21366.945000	-5030.730000	8057.295000	-12026.250000	-8620.020000	5091.030000	-1087.290000	41.058200	33.964068	-3.860110	-10.623096	24.698301	11.492453	-34.994982	48.277956	51.166780	-61.116300	-1.327620	0.612120	0.680479	0.145080	-1.000000	-1.000000	-1.000000	-1.000000	-1.000000	-1.000000	-1.000000	78.758621	0.000000	-1.000000	-1.000000	1441340.000000	1770064379.103291
-6664.095000	-21286.755000	-4833.540000	8038.755000	-11996.325000	-8635.770000	5339.475000	-744.480000	62.559586	83.522301	72.462178	99.041514	76.849528	54.753668	-18.200266	61.308792	4.043900	-43.445220	-25.285820	0.680052	0.750059	0.106201	-1.000000	-1.000000	-1.000000	-1.000000	-1.000000	-1.000000	-1.000000	78.758621	0.000000	-1.000000	-1.000000	1441341.000000	1770064379.103302
-6685.470000	-21306.195000	-4808.115000	7995.780000	-12006.495000	-8636.130000	5668.110000	-731.790000	78.753003	117.980654	148.788617	195.236117	102.032697	72.958657	21.268548	56.628394	4.043900	-43.445220	-25.285820	0.680052	0.750059	0.106201	-1.000000	-1.000000	-1.000000	-1.000000	-1.000000	-1.000000	-1.000000	78.758621	0.000000	-1.000000	-1.000000	1441342.000000	1770064379.103306
-6753.285000	-21292.515000	-4790.655000	8034.705000	-11996.100000	-8625.195000	5491.125000	-767.520000	70.095616	111.536246	176.814635	205.989311	80.456184	52.516209	101.163201	52.582469	4.043900	-43.445220	-25.285820	0.680052	0.750059	0.106201	-1.000000	-1.000000	-1.000000	-1.000000	-1.000000	-1.000000	-1.000000	78.758621	0.000000	-1.000000	-1.000000	1441343.000000	1770064379.103312
-7008.705000	-21561.300000	-5075.010000	7812.495000	-12321.765000	-8891.550000	5420.250000	-959.805000	24.336525	55.886798	126.632056	117.080381	19.893646	4.994997	167.161454	40.583765	4.043900	-43.445220	-25.285820	0.680052	0.750059	0.106201	-1.000000	-1.000000	-1.000000	-1.000000	-1.000000	-1.000000	-1.000000	78.758621	0.000000	-1.000000	-1.000000	1441344.000000	1770064379.103317
-7085.655000	-21685.905000	-5225.535000	7636.635000	-12422.295000	-8967.510000	5285.520000	-1008.945000	-48.677515	-33.541580	8.603666	-28.588956	-56.488004	-48.454156	153.737262	4.445271	4.043900	-43.445220	-25.285820	0.680052	0.750059	0.106201	-1.000000	-1.000000	-1.000000	-1.000000	-1.000000	-1.000000	-1.000000	78.758621	0.000000	-1.000000	-1.000000	1441345.000000	1770064379.106222
-7169.580000	-21748.635000	-5285.115000	7587.540000	-12436.785000	-8981.415000	5334.885000	-1094.625000	-115.900243	-119.076502	-122.965349	-159.298659	-115.569513	-84.560156	62.047951	-50.992257	4.043900	-43.445220	-25.285820	0.680052	0.750059	0.106201	-1.000000	-1.000000	-1.000000	-1.000000	-1.000000	-1.000000	-1.000000	78.758621	0.000000	-1.000000	-1.000000	1441346.000000	1770064379.106241
-7086.195000	-21659.625000	-5198.940000	7687.575000	-12323.745000	-8885.340000	5329.890000	-1044.945000	-137.969739	-154.244120	-195.471949	-208.621261	-122.882370	-82.044937	-46.366633	-97.800331	4.043900	-43.445220	-25.285820	0.680052	0.750059	0.106201	-1.000000	-1.000000	-1.000000	-1.000000	-1.000000	-1.000000	-1.000000	78.758621	0.000000	-1.000000	-1.000000	1441347.000000	1770064379.109063
-7028.145000	-21599.280000	-5160.555000	7711.470000	-12259.710000	-8830.080000	5314.995000	-1004.220000	-95.584554	-115.158504	-170.249548	-160.884271	-67.794348	-36.141978	-113.902483	-99.444356	4.043900	-43.445220	-25.285820	0.680052	0.750059	0.106201	-1.000000	-1.000000	-1.000000	-1.000000	-1.000000	-1.000000	-1.000000	78.758621	0.000000	-1.000000	-1.000000	1441348.000000	1770064379.109072
-7008.660000	-21581.235000	-5201.550000	7608.645000	-12236.400000	-8809.380000	5336.055000	-960.570000	-9.715239	-26.205104	-76.993722	-65.809091	19.380468	29.959384	-124.268425	-45.425842	4.043900	-43.445220	-25.285820	0.680052	0.750059	0.106201	-1.000000	-1.000000	-1.000000	-1.000000	-1.000000	-1.000000	-1.000000	78.758621	0.000000	-1.000000	-1.000000	1441349.000000	1770064379.119122
-6981.165000	-21561.930000	-5230.620000	7612.560000	-12238.920000	-8809.335000	5326.920000	-922.320000	71.869218	59.356975	16.897092	14.452685	88.508536	79.465553	-94.403835	28.663000	4.043900	-43.445220	-25.285820	0.680052	0.750059	0.106201	-1.000000	-1.000000	-1.000000	-1.000000	-1.000000	-1.000000	-1.000000	78.758621	0.000000	-1.000000	-1.000000	1441350.000000	1770064379.119133
-6939.945000	-21513.915000	-5160.420000	7708.545000	-12223.080000	-8784.405000	5337.270000	-963.675000	114.397827	104.072518	68.778387	59.608970	108.392757	89.452449	-51.104700	76.382243	-25.484200	-26.949160	-18.968180	0.704954	0.793333	0.083130	-1.000000	-1.000000	-1.000000	-1.000000	-1.000000	-1.000000	-1.000000	78.758621	0.000000	-1.000000	-1.000000	1441351.000000	1770064379.120790
-6870.330000	-21430.215000	-5044.455000	7739.775000	-12156.165000	-8730.540000	5355.270000	-906.210000	114.060069	104.072192	82.316661	81.881511	83.092879	63.653979	-8.921127	81.634486	-25.484200	-26.949160	-18.968180	0.704954	0.793333	0.083130	-1.000000	-1.000000	-1.000000	-1.000000	-1.000000	-1.000000	-1.000000	78.758621	0.000000	-1.000000	-1.000000	1441352.000000	1770064379.120798
-6864.165000	-21371.805000	-4904.640000	7872.795000	-12033.720000	-8631.945000	5187.600000	-931.995000	87.160019	79.308164	84.960703	96.001098	43.618312	27.656955	29.108149	59.008222	-25.484200	-26.949160	-18.968180	0.704954	0.793333	0.083130	-1.000000	-1.000000	-1.000000	-1.000000	-1.000000	-1.000000	-1.000000	78.758621	0.000000	-1.000000	-1.000000	1441353.000000	1770064379.121115
-6828.165000	-21350.205000	-4867.695000	8026.020000	-12025.530000	-8646.120000	5258.925000	-887.850000	50.550283	51.336883	94.084466	109.022014	18.885356	5.218257	57.220078	29.538481	-25.484200	-26.949160	-18.968180	0.704954	0.793333	0.083130	-1.000000	-1.000000	-1.000000	-1.000000	-1.000000	-1.000000	-1.000000	78.758621	0.000000	-1.000000	-1.000000	1441354.000000	1770064379.121132
-7136.460000	-21746.385000	-5286.465000	7590.555000	-12432.330000	-8961.615000	5402.250000	-1099.710000	6.834508	19.624912	92.561120	107.833189	2.688441	-8.869355	71.526268	0.735254	-25.484200	-26.949160	-18.968180	0.704954	0.793333	0.083130	-1.000000	-1.000000	-1.000000	-1.000000	-1.000000	-1.000000	-1.000000	78.758621	0.000000	-1.000000	-1.000000	1441355.000000	1770064379.137731
-7125.705000	-21713.130000	-5263.650000	7608.600000	-12415.095000	-8925.390000	5273.595000	-1106.730000	-48.659148	-30.768531	46.684189	60.953646	-33.320316	-36.681885	71.335624	-29.509725	-25.484200	-26.949160	-18.968180	0.704954	0.793333	0.083130	-1.000000	-1.000000	-1.000000	-1.000000	-1.000000	-1.000000	-1.000000	78.758621	0.000000	-1.000000	-1.000000	1441356.000000	1770064379.137741
-7110.270000	-21687.030000	-5244.750000	7621.380000	-12395.205000	-8876.205000	5282.685000	-1073.970000	-104.401262	-92.316725	-41.758322	-34.953568	-88.760503	-76.250159	51.131290	-55.513303	-25.484200	-26.949160	-18.968180	0.704954	0.793333	0.083130	-1.000000	-1.000000	-1.000000	-1.000000	-1.000000	-1.000000	-1.000000	78.758621	0.000000	-1.000000	-1.000000	1441357.000000	1770064379.138566
-7089.120000	-21646.440000	-5202.495000	7663.320000	-12325.680000	-8839.710000	5256.720000	-1097.280000	-131.177325	-129.202928	-124.221634	-129.871915	-124.917613	-97.074461	10.466441	-65.387351	-25.484200	-26.949160	-18.968180	0.704954	0.793333	0.083130	-1.000000	-1.000000	-1.000000	-1.000000	-1.000000	-1.000000	-1.000000	78.758621	0.000000	-1.000000	-1.000000	1441358.000000	1770064379.138577
-7047.090000	-21593.385000	-5148.090000	7727.670000	-12262.140000	-8823.195000	5230.935000	-1086.030000	-108.337370	-112.696884	-150.000301	-164.417625	-106.782273	-76.170131	-36.857652	-54.501862	-25.484200	-26.949160	-18.968180	0.704954	0.793333	0.083130	-1.000000	-1.000000	-1.000000	-1.000000	-1.000000	-1.000000	-1.000000	78.758621	0.000000	-1.000000	-1.000000	1441359.000000	1770064379.138587
-7063.605000	-21633.300000	-5197.455000	7674.030000	-12319.560000	-8904.285000	5218.290000	-1007.505000	-43.196890	-48.391426	-107.958997	-123.008270	-37.584671	-22.187048	-70.311930	-25.002505	-25.484200	-26.949160	-18.968180	0.704954	0.793333	0.083130	-1.000000	-1.000000	-1.000000	-1.000000	-1.000000	-1.000000	-1.000000	78.758621	0.000000	-1.000000	-1.000000	1441360.000000	1770064379.138592
-7109.190000	-21683.655000	-5245.605000	7627.230000	-12368.565000	-8956.800000	5212.980000	-1003.455000	32.948093	28.422714	-29.966786	-39.023600	43.867084	33.690037	-73.183268	16.112155	-7.187460	-6.195560	-12.787880	0.699766	0.755186	0.082153	-1.000000	-1.000000	-1.000000	-1.000000	-1.000000	-1.000000	-1.000000	78.758621	0.000000	-1.000000	-1.000000	1441361.000000	1770064379.138597
-7137.675000	-21707.865000	-5263.695000	7611.480000	-12371.040000	-8937.630000	5209.965000	-1075.590000	85.505580	80.082602	39.425857	38.602917	94.703410	64.557026	-41.850788	52.504145	-7.187460	-6.195560	-12.787880	0.699766	0.755186	0.082153	-1.000000	-1.000000	-1.000000	-1.000000	-1.000000	-1.000000	-1.000000	78.758621	0.000000	-1.000000	-1.000000	1441362.000000	1770064379.138602
-7102.665000	-21675.465000	-5239.440000	7635.510000	-12346.245000	-8895.510000	5215.095000	-1057.680000	98.599232	92.909009	77.140854	80.654792	99.902111	67.231404	7.245011	65.840235	-7.187460	-6.195560	-12.787880	0.699766	0.755186	0.082153	-1.000000	-1.000000	-1.000000	-1.000000	-1.000000	-1.000000	-1.000000	78.758621	0.000000	-1.000000	-1.000000	1441363.000000	1770064379.141324
-7074.405000	-21640.725000	-5212.530000	7658.280000	-12322.305000	-8868.960000	5212.980000	-1051.290000	82.187048	81.030259	89.581906	90.435362	77.041635	57.985693	45.094620	53.804725	-7.187460	-6.195560	-12.787880	0.699766	0.755186	0.082153	-1.000000	-1.000000	-1.000000	-1.000000	-1.000000	-1.000000	-1.000000	78.758621	0.000000	-1.000000	-1.000000	1441364.000000	1770064379.141334
-7052.490000	-21607.245000	-5177.340000	7690.005000	-12285.495000	-8842.365000	5191.785000	-1022.895000	53.998625	61.436490	87.707916	82.198774	48.463519	47.911968	53.823064	29.355395	-7.187460	-6.195560	-12.787880	0.699766	0.755186	0.082153	-1.000000	-1.000000	-1.000000	-1.000000	-1.000000	-1.000000	-1.000000	78.758621	0.000000	-1.000000	-1.000000	1441365.000000	1770064379.149010
-7028.460000	-21597.750000	-5172.570000	7694.010000	-12295.305000	-8865.405000	5109.480000	-924.885000	20.701126	34.255331	67.642520	58.446069	18.204695	30.722373	36.156815	4.011085	-7.187460	-6.195560	-12.787880	0.699766	0.755186	0.082153	-1.000000	-1.000000	-1.000000	-1.000000	-1.000000	-1.000000	-1.000000	78.758621	0.000000	-1.000000	-1.000000	1441366.000000	1770064379.149019
-7037.055000	-21618.945000	-5197.320000	7665.705000	-12322.170000	-8910.630000	5108.760000	-879.030000	-15.596278	-4.244488	25.066730	18.916045	-17.668211	-0.806490	4.606051	-15.535523	-7.187460	-6.195560	-12.787880	0.699766	0.755186	0.082153	-1.000000	-1.000000	-1.000000	-1.000000	-1.000000	-1.000000	-1.000000	78.758621	0.000000	-1.000000	-1.000000	1441367.000000	1770064379.150928
-7032.150000	-21592.395000	-5159.925000	7708.320000	-12283.560000	-8883.180000	5112.045000	-1015.020000	-47.637763	-46.064646	-28.713145	-26.766206	-53.649462	-38.739438	-24.312306	-27.564818	-7.187460	-6.195560	-12.787880	0.699766	0.755186	0.082153	-1.000000	-1.000000	-1.000000	-1.000000	-1.000000	-1.000000	-1.000000	78.758621	0.000000	-1.000000	-1.000000	1441368.000000	1770064379.150935
-6999.120000	-21534.030000	-5094.945000	7762.905000	-12249.540000	-8819.865000	5035.995000	-1129.365000	-64.564558	-72.990174	-69.656836	-59.679922	-73.119915	-62.192016	-36.276085	-39.132727	-7.187460	-6.195560	-12.787880	0.699766	0.755186	0.082153	-1.000000	-1.000000	-1.000000	-1.000000	-1.000000	-1.000000	-1.000000	78.758621	0.000000	-1.000000	-1.000000	1441369.000000	1770064379.167719
-6961.500000	-21519.945000	-5090.040000	7760.790000	-12237.120000	-8765.460000	5171.445000	-842.310000	-57.541002	-69.300805	-77.083677	-63.333192	-62.744706	-54.429178	-26.734204	-49.371428	-7.187460	-6.195560	-12.787880	0.699766	0.755186	0.082153	-1.000000	-1.000000	-1.000000	-1.000000	-1.000000	-1.000000	-1.000000	78.758621	0.000000	-1.000000	-1.000000	1441370.000000	1770064379.167729
-6971.355000	-21498.615000	-5059.575000	7798.680000	-12168.720000	-8696.880000	5329.305000	-955.080000	-28.913358	-36.941097	-50.751962	-39.442790	-27.197091	-19.696815	1.920456	-40.934018	1.876980	15.137920	-23.607220	0.702391	0.734556	0.074707	-1.000000	-1.000000	-1.000000	-1.000000	-1.000000	-1.000000	-1.000000	78.758621	0.000000	-1.000000	-1.000000	1441371.000000	1770064379.167741
-7066.260000	-21613.140000	-5180.940000	7668.315000	-12332.520000	-8846.280000	5174.595000	-1088.415000	4.667306	3.968121	-10.071626	-6.258561	13.376908	18.663673	35.997339	-11.316557	1.876980	15.137920	-23.607220	0.702391	0.734556	0.074707	-1.000000	-1.000000	-1.000000	-1.000000	-1.000000	-1.000000	-1.000000	78.758621	0.000000	-1.000000	-1.000000	1441372.000000	1770064379.167746
-6992.955000	-21576.870000	-5158.215000	7666.470000	-12346.875000	-8844.165000	5194.170000	-796.275000	24.505355	29.818643	20.487774	15.494916	35.561915	34.842848	50.116970	20.638886	1.876980	15.137920	-23.607220	0.702391	0.734556	0.074707	-1.000000	-1.000000	-1.000000	-1.000000	-1.000000	-1.000000	-1.000000	78.758621	0.000000	-1.000000	-1.000000	1441373.000000	1770064379.167752
-6930.675000	-21499.875000	-5072.445000	7763.085000	-12198.915000	-8742.825000	5224.455000	-892.530000	25.459659	30.786433	28.007112	16.925348	30.413165	21.638206	33.206495	41.915847	1.876980	15.137920	-23.607220	0.702391	0.734556	0.074707	-1.000000	-1.000000	-1.000000	-1.000000	-1.000000	-1.000000	-1.000000	78.758621	0.000000	-1.000000	-1.000000	1441374.000000	1770064379.167757
-7060.770000	-21656.700000	-5232.780000	7598.880000	-12409.425000	-8956.080000	4757.805000	-1032.705000	14.051417	13.944546	16.487465	5.148682	9.467314	-6.005690	-5.554985	42.495721	1.876980	15.137920	-23.607220	0.702391	0.734556	0.074707	-1.000000	-1.000000	-1.000000	-1.000000	-1.000000	-1.000000	-1.000000	78.758621	0.000000	-1.000000	-1.000000	1441375.000000	1770064379.167762
-7076.925000	-21691.620000	-5278.905000	7545.555000	-12453.480000	-9044.055000	4612.770000	-920.655000	-3.451800	-9.796926	-4.810764	-10.550948	-14.227726	-32.131831	-56.677224	16.862425	1.876980	15.137920	-23.607220	0.702391	0.734556	0.074707	-1.000000	-1.000000	-1.000000	-1.000000	-1.000000	-1.000000	-1.000000	78.758621	0.000000	-1.000000	-1.000000	1441376.000000	1770064379.167767
-6828.795000	-21416.490000	-4983.480000	7877.655000	-12143.655000	-8730.675000	5065.650000	-483.075000	-16.922916	-26.541292	-22.335608	-19.911248	-28.695474	-43.595528	-95.466040	-9.479110	1.876980	15.137920	-23.607220	0.702391	0.734556	0.074707	-1.000000	-1.000000	-1.000000	-1.000000	-1.000000	-1.000000	-1.000000	78.758621	0.000000	-1.000000	-1.000000	1441377.000000	1770064379.168943
-6928.470000	-21492.855000	-5041.755000	7805.115000	-12177.045000	-8673.930000	5560.200000	-908.370000	-12.650562	-20.086917	-18.174660	-8.358903	-17.785657	-24.718799	-72.532135	-6.857299	1.876980	15.137920	-23.607220	0.702391	0.734556	0.074707	-1.000000	-1.000000	-1.000000	-1.000000	-1.000000	-1.000000	-1.000000	78.758621	0.000000	-1.000000	-1.000000	1441378.000000	1770064379.168954
-7174.845000	-21743.505000	-5303.970000	7484.850000	-12421.980000	-8859.645000	5464.080000	-1444.140000	2.761922	3.170969	3.634125	16.199398	11.803506	17.225703	23.720868	-0.752127	1.876980	15.137920	-23.607220	0.702391	0.734556	0.074707	-1.000000	-1.000000	-1.000000	-1.000000	-1.000000	-1.000000	-1.000000	78.758621	0.000000	-1.000000	-1.000000	1441379.000000	1770064379.175254
-7106.985000	-21744.900000	-5331.195000	7424.460000	-12460.995000	-8890.290000	5288.760000	-1217.745000	7.427166	16.310229	16.152571	22.707824	28.035152	46.920982	123.572834	-30.665407	1.876980	15.137920	-23.607220	0.702391	0.734556	0.074707	-1.000000	-1.000000	-1.000000	-1.000000	-1.000000	-1.000000	-1.000000	78.758621	0.000000	-1.000000	-1.000000	1441380.000000	1770064379.175263
-7084.755000	-21711.645000	-5286.105000	7450.650000	-12437.730000	-8856.045000	5288.535000	-1161.270000	-0.241158	11.105564	9.952964	3.580207	18.322908	44.216408	144.904225	-70.841538	-33.144720	10.620960	-53.455780	0.705931	0.755491	0.062195	-1.000000	-1.000000	-1.000000	-1.000000	-1.000000	-1.000000	-1.000000	78.758621	0.000000	-1.000000	-1.000000	1441381.000000	1770064379.182739
