Channel1	Channel2	Channel3	Channel4	Channel5	Channel6	Channel7	Channel8	FilteredChannel1	FilteredChannel2	FilteredChannel3	FilteredChannel4	FilteredChannel5	FilteredChannel6	FilteredChannel7	FilteredChannel8	GyroX	GyroY	GyroZ	AccX	AccY	AccZ	PPG1	PPG2	rawPPG1	rawPPG2	rawPPG3	Hr	Hrv	Battery	Trigger	PhysicalTrigger	AutoTrigger	NumMeasurements	Timestamp
10039.140000	12611.655000	18802.980000	33277.590000	5614.695000	-8933.670000	-20477.295000	-6467.040000	-4.997126	-7.774521	-8.844240	-9.267296	-8.188563	1.016242	11.461662	1.401607	-3.433500	2.685760	6.867000	-0.828123	-0.240966	0.414245	-1.000000	-1.000000	-1.000000	-1.000000	-1.000000	-1.000000	-1.000000	82.206897	0.000000	-1.000000	-1.000000	1098973.000000	1769636009.178232
10076.445000	12646.665000	18836.460000	33309.585000	5637.690000	-8936.280000	-20504.115000	-6449.220000	-5.000540	-9.010512	-11.070993	-11.589169	-9.126375	-4.239132	4.722426	0.879956	-3.433500	2.685760	6.867000	-0.828123	-0.240966	0.414245	-1.000000	-1.000000	-1.000000	-1.000000	-1.000000	-1.000000	-1.000000	82.206897	0.000000	-1.000000	-1.000000	1098974.000000	1769636009.178244
10030.140000	12595.860000	18792.360000	33276.825000	5614.920000	-8943.480000	-20500.425000	-6468.660000	-3.462872	-6.626580	-8.123216	-7.321719	-4.688644	-8.316997	-3.551506	-0.296656	-3.433500	2.685760	6.867000	-0.828123	-0.240966	0.414245	-1.000000	-1.000000	-1.000000	-1.000000	-1.000000	-1.000000	-1.000000	82.206897	0.000000	-1.000000	-1.000000	1098975.000000	1769636009.182775
10019.385000	12591.135000	18786.600000	33267.780000	5606.370000	-8949.915000	-20505.600000	-6477.120000	-2.776217	-4.071290	-4.052030	-1.286173	0.695384	-11.241595	-11.258029	-2.307952	-3.433500	2.685760	6.867000	-0.828123	-0.240966	0.414245	-1.000000	-1.000000	-1.000000	-1.000000	-1.000000	-1.000000	-1.000000	82.206897	0.000000	-1.000000	-1.000000	1098976.000000	1769636009.182787
10027.440000	12595.005000	18786.510000	33265.710000	5611.185000	-8938.305000	-20497.860000	-6468.795000	-3.808677	-3.157741	-1.815702	2.114750	3.200236	-11.546664	-15.071179	-4.602131	-6.454980	3.082520	4.928980	-0.823179	-0.239074	0.411132	-1.000000	-1.000000	-1.000000	-1.000000	-1.000000	-1.000000	-1.000000	82.206897	0.000000	-1.000000	-1.000000	1098977.000000	1769636009.185497
10034.235000	12601.845000	18788.715000	33260.580000	5598.450000	-8949.015000	-20501.145000	-6464.925000	-4.103179	-2.205491	-0.773981	2.308172	2.577043	-7.705608	-12.058705	-5.083064	-6.454980	3.082520	4.928980	-0.823179	-0.239074	0.411132	-1.000000	-1.000000	-1.000000	-1.000000	-1.000000	-1.000000	-1.000000	82.206897	0.000000	-1.000000	-1.000000	1098978.000000	1769636009.185506
10050.210000	12622.860000	18808.875000	33277.185000	5608.350000	-8942.715000	-20495.340000	-6460.245000	-1.545302	0.562019	0.737265	0.909376	0.321507	-0.976112	-3.437943	-2.711218	-6.454980	3.082520	4.928980	-0.823179	-0.239074	0.411132	-1.000000	-1.000000	-1.000000	-1.000000	-1.000000	-1.000000	-1.000000	82.206897	0.000000	-1.000000	-1.000000	1098979.000000	1769636009.189615
10050.795000	12637.305000	18833.895000	33310.935000	5647.185000	-8908.425000	-20475.405000	-6462.720000	2.635128	4.502632	3.250211	0.021733	-1.556647	5.501697	6.081192	0.714659	-6.454980	3.082520	4.928980	-0.823179	-0.239074	0.411132	-1.000000	-1.000000	-1.000000	-1.000000	-1.000000	-1.000000	-1.000000	82.206897	0.000000	-1.000000	-1.000000	1098980.000000	1769636009.189626
10028.430000	12607.920000	18802.080000	33276.600000	5609.970000	-8949.420000	-20505.600000	-6471.855000	5.490970	7.442989	6.062960	1.208944	-0.983545	9.313833	11.793331	2.641043	-6.454980	3.082520	4.928980	-0.823179	-0.239074	0.411132	-1.000000	-1.000000	-1.000000	-1.000000	-1.000000	-1.000000	-1.000000	82.206897	0.000000	-1.000000	-1.000000	1098981.000000	1769636009.197597
10025.370000	12589.110000	18778.995000	33253.650000	5587.920000	-8970.570000	-20521.980000	-6468.165000	5.081481	7.062534	7.050908	3.366321	1.485036	8.824881	10.712810	2.232690	-6.454980	3.082520	4.928980	-0.823179	-0.239074	0.411132	-1.000000	-1.000000	-1.000000	-1.000000	-1.000000	-1.000000	-1.000000	82.206897	0.000000	-1.000000	-1.000000	1098982.000000	1769636009.197610
10017.090000	12579.975000	18773.640000	33254.325000	5593.455000	-8964.495000	-20514.645000	-6474.465000	1.588432	2.436258	4.082510	3.458519	2.893053	4.235795	4.041784	0.484615	-6.454980	3.082520	4.928980	-0.823179	-0.239074	0.411132	-1.000000	-1.000000	-1.000000	-1.000000	-1.000000	-1.000000	-1.000000	82.206897	0.000000	-1.000000	-1.000000	1098983.000000	1769636009.199528
10031.625000	12602.115000	18797.445000	33273.450000	5611.050000	-8940.915000	-20501.460000	-6467.985000	-2.111778	-3.378569	-1.047843	1.311711	2.460804	-1.018713	-3.031089	-0.842139	-6.454980	3.082520	4.928980	-0.823179	-0.239074	0.411132	-1.000000	-1.000000	-1.000000	-1.000000	-1.000000	-1.000000	-1.000000	82.206897	0.000000	-1.000000	-1.000000	1098984.000000	1769636009.199538
10025.685000	12603.600000	18801.270000	33270.345000	5594.400000	-8941.905000	-20493.810000	-6469.740000	-2.363953	-5.071140	-3.317445	0.165808	2.033074	-2.942165	-5.980020	-0.357484	-6.454980	3.082520	4.928980	-0.823179	-0.239074	0.411132	-1.000000	-1.000000	-1.000000	-1.000000	-1.000000	-1.000000	-1.000000	82.206897	0.000000	-1.000000	-1.000000	1098985.000000	1769636009.201602
10022.400000	12590.505000	18783.945000	33260.490000	5569.560000	-8948.520000	-20517.255000	-6470.910000	0.734235	-1.713509	-1.226835	1.240425	1.710871	-1.118347	-4.216212	1.561342	-6.454980	3.082520	4.928980	-0.823179	-0.239074	0.411132	-1.000000	-1.000000	-1.000000	-1.000000	-1.000000	-1.000000	-1.000000	82.206897	0.000000	-1.000000	-1.000000	1098986.000000	1769636009.201612
10035.810000	12604.545000	18797.445000	33276.870000	5573.430000	-8940.645000	-20489.490000	-6461.370000	3.612523	2.416874	1.639352	2.374427	-0.106893	1.600189	-0.431969	3.106871	-6.500760	3.326680	4.043900	-0.822569	-0.236389	0.408385	-1.000000	-1.000000	-1.000000	-1.000000	-1.000000	-1.000000	-1.000000	82.206897	0.000000	-1.000000	-1.000000	1098987.000000	1769636009.205445
10054.260000	12631.545000	18827.010000	33286.860000	5589.405000	-8947.890000	-20517.300000	-6456.870000	3.848591	3.681953	2.061148	1.553303	-3.188291	2.356541	2.284088	3.085531	-6.500760	3.326680	4.043900	-0.822569	-0.236389	0.408385	-1.000000	-1.000000	-1.000000	-1.000000	-1.000000	-1.000000	-1.000000	82.206897	0.000000	-1.000000	-1.000000	1098988.000000	1769636009.205455
10053.945000	12620.970000	18809.955000	33254.460000	5585.985000	-8950.275000	-20522.745000	-6449.985000	2.020748	2.129170	0.126462	-1.686458	-5.457944	-0.013744	1.957416	1.793166	-6.500760	3.326680	4.043900	-0.822569	-0.236389	0.408385	-1.000000	-1.000000	-1.000000	-1.000000	-1.000000	-1.000000	-1.000000	82.206897	0.000000	-1.000000	-1.000000	1098989.000000	1769636009.209451
10022.805000	12587.670000	18782.685000	33251.445000	5617.800000	-8953.020000	-20489.985000	-6460.830000	-0.261014	-0.426040	-2.386123	-5.766919	-4.179809	-3.557615	-0.442460	0.178994	-6.500760	3.326680	4.043900	-0.822569	-0.236389	0.408385	-1.000000	-1.000000	-1.000000	-1.000000	-1.000000	-1.000000	-1.000000	82.206897	0.000000	-1.000000	-1.000000	1098990.000000	1769636009.209462
10013.805000	12577.185000	18776.070000	33267.240000	5643.585000	-8951.715000	-20493.315000	-6467.220000	-2.741675	-2.914091	-4.045400	-7.117144	2.397777	-4.428345	-0.915253	-1.461292	-6.500760	3.326680	4.043900	-0.822569	-0.236389	0.408385	-1.000000	-1.000000	-1.000000	-1.000000	-1.000000	-1.000000	-1.000000	82.206897	0.000000	-1.000000	-1.000000	1098991.000000	1769636009.215919
10020.420000	12585.735000	18785.205000	33274.035000	5628.825000	-8950.095000	-20497.365000	-6466.410000	-5.270492	-4.635107	-4.143541	-3.652872	11.083680	-1.776718	1.677895	-3.142224	-6.500760	3.326680	4.043900	-0.822569	-0.236389	0.408385	-1.000000	-1.000000	-1.000000	-1.000000	-1.000000	-1.000000	-1.000000	82.206897	0.000000	-1.000000	-1.000000	1098992.000000	1769636009.215930
10022.895000	12592.440000	18794.745000	33278.895000	5623.335000	-8941.680000	-20488.230000	-6466.950000	-6.048275	-4.380844	-2.417874	2.578209	14.586709	1.540808	3.780389	-4.089774	-6.500760	3.326680	4.043900	-0.822569	-0.236389	0.408385	-1.000000	-1.000000	-1.000000	-1.000000	-1.000000	-1.000000	-1.000000	82.206897	0.000000	-1.000000	-1.000000	1098993.000000	1769636009.217745
10012.995000	12593.790000	18801.405000	33287.535000	5635.755000	-8918.460000	-20458.035000	-6473.970000	-3.924389	-1.794951	0.675685	7.602342	9.366018	3.339675	3.280497	-3.572404	-6.500760	3.326680	4.043900	-0.822569	-0.236389	0.408385	-1.000000	-1.000000	-1.000000	-1.000000	-1.000000	-1.000000	-1.000000	82.206897	0.000000	-1.000000	-1.000000	1098994.000000	1769636009.217757
10038.285000	12626.505000	18832.725000	33313.005000	5654.655000	-8913.690000	-20476.980000	-6464.340000	0.062631	2.275973	4.358581	9.198531	-0.383805	3.972239	1.588967	-1.839126	-6.500760	3.326680	4.043900	-0.822569	-0.236389	0.408385	-1.000000	-1.000000	-1.000000	-1.000000	-1.000000	-1.000000	-1.000000	82.206897	0.000000	-1.000000	-1.000000	1098995.000000	1769636009.221640
10076.445000	12642.795000	18836.595000	33312.105000	5650.785000	-8925.165000	-20509.110000	-6435.090000	4.409032	6.346555	7.325038	7.212513	-8.330672	3.698792	-0.917022	0.683207	-6.500760	3.326680	4.043900	-0.822569	-0.236389	0.408385	-1.000000	-1.000000	-1.000000	-1.000000	-1.000000	-1.000000	-1.000000	82.206897	0.000000	-1.000000	-1.000000	1098996.000000	1769636009.221653
10031.445000	12587.220000	18780.930000	33260.130000	5606.235000	-8947.170000	-20498.265000	-6456.060000	7.167441	7.228573	6.314193	1.421898	-12.847366	1.211855	-4.881366	3.372231	-6.134520	4.257540	2.166920	-0.821104	-0.237060	0.408019	-1.000000	-1.000000	-1.000000	-1.000000	-1.000000	-1.000000	-1.000000	82.206897	0.000000	-1.000000	-1.000000	1098997.000000	1769636009.225659
10013.715000	12574.755000	18770.535000	33246.360000	5589.000000	-8965.260000	-20509.065000	-6469.020000	5.675395	2.271711	-0.644572	-7.255411	-15.763660	-3.838445	-8.337846	4.392447	-6.134520	4.257540	2.166920	-0.821104	-0.237060	0.408019	-1.000000	-1.000000	-1.000000	-1.000000	-1.000000	-1.000000	-1.000000	82.206897	0.000000	-1.000000	-1.000000	1098998.000000	1769636009.225672
10043.415000	12613.185000	18810.540000	33285.555000	5622.345000	-8951.985000	-20515.995000	-6456.510000	0.627494	-4.979270	-8.627131	-13.887764	-16.603918	-8.587443	-8.852927	2.658488	-6.134520	4.257540	2.166920	-0.821104	-0.237060	0.408019	-1.000000	-1.000000	-1.000000	-1.000000	-1.000000	-1.000000	-1.000000	82.206897	0.000000	-1.000000	-1.000000	1098999.000000	1769636009.229612
10051.020000	12620.070000	18818.460000	33296.310000	5633.280000	-8948.565000	-20517.030000	-6452.730000	-3.005730	-7.136672	-9.716462	-12.864820	-12.218506	-9.093868	-6.263473	0.019254	-6.134520	4.257540	2.166920	-0.821104	-0.237060	0.408019	-1.000000	-1.000000	-1.000000	-1.000000	-1.000000	-1.000000	-1.000000	82.206897	0.000000	-1.000000	-1.000000	1099000.000000	1769636009.229621
10039.950000	12612.735000	18812.430000	33288.210000	5623.470000	-8946.945000	-20504.250000	-6457.050000	-2.472623	-2.421591	-2.871307	-4.452751	-1.850277	-4.561937	-1.449189	-1.230687	-6.134520	4.257540	2.166920	-0.821104	-0.237060	0.408019	-1.000000	-1.000000	-1.000000	-1.000000	-1.000000	-1.000000	-1.000000	82.206897	0.000000	-1.000000	-1.000000	1099001.000000	1769636009.233581
10029.015000	12597.930000	18793.710000	33270.255000	5608.305000	-8948.655000	-20498.085000	-6459.615000	-0.239580	3.534610	5.043236	5.010529	10.125664	1.825518	4.136620	-0.998962	-6.134520	4.257540	2.166920	-0.821104	-0.237060	0.408019	-1.000000	-1.000000	-1.000000	-1.000000	-1.000000	-1.000000	-1.000000	82.206897	0.000000	-1.000000	-1.000000	1099002.000000	1769636009.233587
10046.025000	12615.345000	18807.930000	33282.135000	5619.195000	-8937.990000	-20496.420000	-6452.640000	0.581141	5.119647	7.388553	9.309322	17.441136	6.116764	8.265918	-0.303915	-6.134520	4.257540	2.166920	-0.821104	-0.237060	0.408019	-1.000000	-1.000000	-1.000000	-1.000000	-1.000000	-1.000000	-1.000000	82.206897	0.000000	-1.000000	-1.000000	1099003.000000	1769636009.242085
10039.815000	12608.505000	18800.415000	33275.610000	5612.670000	-8955.315000	-20517.615000	-6459.525000	-0.767997	1.571302	3.313725	7.042155	16.956948	6.597286	9.246504	-0.116550	-6.134520	4.257540	2.166920	-0.821104	-0.237060	0.408019	-1.000000	-1.000000	-1.000000	-1.000000	-1.000000	-1.000000	-1.000000	82.206897	0.000000	-1.000000	-1.000000	1099004.000000	1769636009.242096
10035.810000	12611.070000	18808.335000	33285.105000	5621.535000	-8952.255000	-20519.910000	-6463.440000	-3.792646	-4.249022	-3.298458	1.435639	10.361697	4.178730	7.136146	-1.327803	-6.134520	4.257540	2.166920	-0.821104	-0.237060	0.408019	-1.000000	-1.000000	-1.000000	-1.000000	-1.000000	-1.000000	-1.000000	82.206897	0.000000	-1.000000	-1.000000	1099005.000000	1769636009.242543
10023.660000	12600.045000	18802.530000	33282.405000	5624.280000	-8929.080000	-20471.895000	-6461.595000	-6.337008	-7.676007	-6.735696	-2.033250	2.794585	1.783818	3.976173	-3.234559	-6.134520	4.257540	2.166920	-0.821104	-0.237060	0.408019	-1.000000	-1.000000	-1.000000	-1.000000	-1.000000	-1.000000	-1.000000	82.206897	0.000000	-1.000000	-1.000000	1099006.000000	1769636009.242548
10041.570000	12614.175000	18811.260000	33288.705000	5626.125000	-8932.860000	-20488.500000	-6455.205000	-5.135955	-5.302567	-3.762601	-0.250345	-1.421682	2.132804	2.224928	-3.367181	-7.736820	5.203660	1.175020	-0.821714	-0.236144	0.407226	-1.000000	-1.000000	-1.000000	-1.000000	-1.000000	-1.000000	-1.000000	82.206897	0.000000	-1.000000	-1.000000	1099007.000000	1769636009.247285
10052.595000	12622.410000	18814.005000	33287.400000	5622.300000	-8943.255000	-20506.995000	-6453.630000	0.259407	1.287544	2.781811	3.792435	-2.914175	4.051656	1.467327	-0.722886	-7.736820	5.203660	1.175020	-0.821714	-0.236144	0.407226	-1.000000	-1.000000	-1.000000	-1.000000	-1.000000	-1.000000	-1.000000	82.206897	0.000000	-1.000000	-1.000000	1099008.000000	1769636009.247297
10045.080000	12612.420000	18800.820000	33269.940000	5602.005000	-8961.615000	-20509.695000	-6456.555000	6.407246	7.005722	6.974179	4.568322	-4.893365	3.398699	-0.945540	2.835338	-7.736820	5.203660	1.175020	-0.821714	-0.236144	0.407226	-1.000000	-1.000000	-1.000000	-1.000000	-1.000000	-1.000000	-1.000000	82.206897	0.000000	-1.000000	-1.000000	1099009.000000	1769636009.254064
10038.330000	12598.605000	18786.060000	33261.345000	5597.955000	-8978.445000	-20533.140000	-6459.345000	9.320037	7.995365	5.630519	0.423300	-7.882961	-1.783080	-5.920511	4.844791	-7.736820	5.203660	1.175020	-0.821714	-0.236144	0.407226	-1.000000	-1.000000	-1.000000	-1.000000	-1.000000	-1.000000	-1.000000	82.206897	0.000000	-1.000000	-1.000000	1099010.000000	1769636009.254075
10043.415000	12599.640000	18785.295000	33265.665000	5611.410000	-8946.090000	-20502.720000	-6451.245000	7.636865	4.133047	0.217699	-5.331772	-9.164031	-8.636528	-11.164012	4.433629	-7.736820	5.203660	1.175020	-0.821714	-0.236144	0.407226	-1.000000	-1.000000	-1.000000	-1.000000	-1.000000	-1.000000	-1.000000	82.206897	0.000000	-1.000000	-1.000000	1099011.000000	1769636009.254386
10024.380000	12593.205000	18791.775000	33274.755000	5618.295000	-8935.065000	-20474.280000	-6457.815000	2.432728	-1.930631	-5.303627	-8.292560	-6.414785	-11.535409	-11.917346	2.258114	-7.736820	5.203660	1.175020	-0.821714	-0.236144	0.407226	-1.000000	-1.000000	-1.000000	-1.000000	-1.000000	-1.000000	-1.000000	82.206897	0.000000	-1.000000	-1.000000	1099012.000000	1769636009.254407
10013.760000	12582.045000	18778.320000	33259.635000	5605.020000	-8936.055000	-20468.520000	-6462.270000	-4.469499	-7.205788	-7.811251	-6.852493	-0.697348	-7.313977	-4.814395	-0.732572	-7.736820	5.203660	1.175020	-0.821714	-0.236144	0.407226	-1.000000	-1.000000	-1.000000	-1.000000	-1.000000	-1.000000	-1.000000	82.206897	0.000000	-1.000000	-1.000000	1099013.000000	1769636009.260966
10022.535000	12592.530000	18784.170000	33259.230000	5597.820000	-8949.690000	-20495.385000	-6466.230000	-9.930744	-9.059223	-6.352379	-2.500960	4.448486	1.208221	6.443503	-3.488184	-7.736820	5.203660	1.175020	-0.821714	-0.236144	0.407226	-1.000000	-1.000000	-1.000000	-1.000000	-1.000000	-1.000000	-1.000000	82.206897	0.000000	-1.000000	-1.000000	1099014.000000	1769636009.260978
10033.110000	12603.825000	18799.155000	33280.785000	5619.960000	-8947.350000	-20521.710000	-6462.810000	-9.903531	-5.539598	-1.326432	2.776719	6.709684	7.853500	12.463110	-4.681409	-7.736820	5.203660	1.175020	-0.821714	-0.236144	0.407226	-1.000000	-1.000000	-1.000000	-1.000000	-1.000000	-1.000000	-1.000000	82.206897	0.000000	-1.000000	-1.000000	1099015.000000	1769636009.261695
10021.770000	12598.245000	18798.525000	33281.505000	5622.120000	-8946.045000	-20508.030000	-6467.355000	-4.020129	1.888821	5.219577	7.394007	6.443033	8.958345	8.410995	-3.765807	-7.736820	5.203660	1.175020	-0.821714	-0.236144	0.407226	-1.000000	-1.000000	-1.000000	-1.000000	-1.000000	-1.000000	-1.000000	82.206897	0.000000	-1.000000	-1.000000	1099016.000000	1769636009.261706
9995.985000	12572.325000	18767.385000	33245.235000	5589.540000	-8941.995000	-20458.485000	-6477.120000	2.692406	7.802554	9.138675	8.864275	4.317619	5.712833	0.107344	-1.701242	-11.918060	5.371520	-0.274680	-0.824339	-0.232116	0.406188	-1.000000	-1.000000	-1.000000	-1.000000	-1.000000	-1.000000	-1.000000	82.206897	0.000000	-1.000000	-1.000000	1099017.000000	1769636009.269663
10057.905000	12639.825000	18832.860000	33299.820000	5634.945000	-8906.670000	-20475.855000	-6449.895000	6.157211	8.875610	8.300944	6.162226	1.189494	2.130147	-3.646299	0.530375	-11.918060	5.371520	-0.274680	-0.824339	-0.232116	0.406188	-1.000000	-1.000000	-1.000000	-1.000000	-1.000000	-1.000000	-1.000000	82.206897	0.000000	-1.000000	-1.000000	1099018.000000	1769636009.269676
10122.120000	12699.540000	18884.250000	33339.510000	5660.145000	-8887.680000	-20489.715000	-6406.965000	8.557229	8.487971	6.455241	3.036654	-0.128347	1.520870	-1.607052	3.600067	-11.918060	5.371520	-0.274680	-0.824339	-0.232116	0.406188	-1.000000	-1.000000	-1.000000	-1.000000	-1.000000	-1.000000	-1.000000	82.206897	0.000000	-1.000000	-1.000000	1099019.000000	1769636009.269707
10062.945000	12628.710000	18814.005000	33278.985000	5599.530000	-8940.555000	-20492.370000	-6433.290000	12.034439	9.493328	6.499842	2.332574	0.900116	2.259385	0.637636	7.510942	-11.918060	5.371520	-0.274680	-0.824339	-0.232116	0.406188	-1.000000	-1.000000	-1.000000	-1.000000	-1.000000	-1.000000	-1.000000	82.206897	0.000000	-1.000000	-1.000000	1099020.000000	1769636009.269717
10007.505000	12573.135000	18766.485000	33250.860000	5591.835000	-8991.450000	-20531.655000	-6469.920000	11.467517	6.758426	3.542282	0.239525	-0.123141	-1.381397	-1.545589	8.582077	-11.918060	5.371520	-0.274680	-0.824339	-0.232116	0.406188	-1.000000	-1.000000	-1.000000	-1.000000	-1.000000	-1.000000	-1.000000	82.206897	0.000000	-1.000000	-1.000000	1099021.000000	1769636009.274935
10020.510000	12592.170000	18788.310000	33277.320000	5623.290000	-8967.240000	-20520.585000	-6463.530000	1.969493	-4.076200	-6.277162	-6.044501	-4.670573	-10.399116	-7.221240	3.500707	-11.918060	5.371520	-0.274680	-0.824339	-0.232116	0.406188	-1.000000	-1.000000	-1.000000	-1.000000	-1.000000	-1.000000	-1.000000	82.206897	0.000000	-1.000000	-1.000000	1099022.000000	1769636009.274947
10039.275000	12615.435000	18810.135000	33292.755000	5634.855000	-8933.850000	-20494.935000	-6452.145000	-11.456104	-16.723758	-16.719441	-11.681304	-7.680386	-16.889994	-10.417486	-4.901879	-11.918060	5.371520	-0.274680	-0.824339	-0.232116	0.406188	-1.000000	-1.000000	-1.000000	-1.000000	-1.000000	-1.000000	-1.000000	82.206897	0.000000	-1.000000	-1.000000	1099023.000000	1769636009.277670
10037.430000	12620.115000	18821.835000	33309.000000	5654.205000	-8915.760000	-20481.165000	-6450.120000	-19.083918	-21.122271	-18.803588	-11.043749	-5.321649	-12.744126	-5.661672	-10.353811	-11.918060	5.371520	-0.274680	-0.824339	-0.232116	0.406188	-1.000000	-1.000000	-1.000000	-1.000000	-1.000000	-1.000000	-1.000000	82.206897	0.000000	-1.000000	-1.000000	1099024.000000	1769636009.277676
10016.595000	12589.695000	18787.095000	33268.950000	5613.345000	-8954.730000	-20506.680000	-6461.460000	-16.698708	-14.616814	-11.115627	-4.757131	0.216684	0.358385	4.916537	-9.739245	-11.918060	5.371520	-0.274680	-0.824339	-0.232116	0.406188	-1.000000	-1.000000	-1.000000	-1.000000	-1.000000	-1.000000	-1.000000	82.206897	0.000000	-1.000000	-1.000000	1099025.000000	1769636009.281616
10024.785000	12590.685000	18784.485000	33265.170000	5609.160000	-8959.905000	-20519.640000	-6457.140000	-7.340722	-2.771824	0.251915	2.080200	4.063152	12.382203	12.322958	-4.689399	-11.918060	5.371520	-0.274680	-0.824339	-0.232116	0.406188	-1.000000	-1.000000	-1.000000	-1.000000	-1.000000	-1.000000	-1.000000	82.206897	0.000000	-1.000000	-1.000000	1099026.000000	1769636009.281624
10024.335000	12602.880000	18804.240000	33290.595000	5639.760000	-8920.665000	-20480.985000	-6458.310000	2.363942	6.574580	7.955713	5.097461	3.628270	15.489444	11.300309	0.777912	-12.558980	5.005280	-0.534100	-0.827085	-0.233093	0.407653	-1.000000	-1.000000	-1.000000	-1.000000	-1.000000	-1.000000	-1.000000	82.206897	0.000000	-1.000000	-1.000000	1099027.000000	1769636009.285720
10039.455000	12605.175000	18793.305000	33266.070000	5606.460000	-8958.375000	-20507.040000	-6447.420000	7.037092	9.232848	8.909865	3.675313	0.217837	10.095590	5.331116	3.330150	-12.558980	5.005280	-0.534100	-0.827085	-0.233093	0.407653	-1.000000	-1.000000	-1.000000	-1.000000	-1.000000	-1.000000	-1.000000	82.206897	0.000000	-1.000000	-1.000000	1099028.000000	1769636009.285730
10048.635000	12611.790000	18798.345000	33271.470000	5610.960000	-8961.165000	-20527.830000	-6440.625000	7.677357	7.906574	6.241195	0.897943	-2.811349	1.649287	-0.823323	3.399074	-12.558980	5.005280	-0.534100	-0.827085	-0.233093	0.407653	-1.000000	-1.000000	-1.000000	-1.000000	-1.000000	-1.000000	-1.000000	82.206897	0.000000	-1.000000	-1.000000	1099029.000000	1769636009.289612
10027.305000	12609.990000	18812.340000	33293.430000	5633.820000	-8939.430000	-20522.340000	-6458.085000	8.971441	8.184264	5.532260	0.944848	-2.496012	-3.705920	-5.193232	3.871503	-12.558980	5.005280	-0.534100	-0.827085	-0.233093	0.407653	-1.000000	-1.000000	-1.000000	-1.000000	-1.000000	-1.000000	-1.000000	82.206897	0.000000	-1.000000	-1.000000	1099030.000000	1769636009.289623
10025.640000	12599.055000	18788.715000	33261.390000	5596.020000	-8971.695000	-20521.395000	-6456.420000	10.818463	10.257856	7.507741	4.077973	0.651365	-3.720827	-6.572050	5.063247	-12.558980	5.005280	-0.534100	-0.827085	-0.233093	0.407653	-1.000000	-1.000000	-1.000000	-1.000000	-1.000000	-1.000000	-1.000000	82.206897	0.000000	-1.000000	-1.000000	1099031.000000	1769636009.293564
10028.655000	12601.215000	18785.610000	33256.755000	5591.160000	-8970.210000	-20511.585000	-6454.440000	8.976217	9.046434	7.082154	5.413669	2.206841	-2.383020	-5.071866	4.691059	-12.558980	5.005280	-0.534100	-0.827085	-0.233093	0.407653	-1.000000	-1.000000	-1.000000	-1.000000	-1.000000	-1.000000	-1.000000	82.206897	0.000000	-1.000000	-1.000000	1099032.000000	1769636009.293574
10017.855000	12596.715000	18787.365000	33264.675000	5607.315000	-8935.875000	-20480.355000	-6459.075000	2.393374	2.377653	1.324629	1.883547	-0.029737	-2.965163	-1.719073	1.899349	-12.558980	5.005280	-0.534100	-0.827085	-0.233093	0.407653	-1.000000	-1.000000	-1.000000	-1.000000	-1.000000	-1.000000	-1.000000	82.206897	0.000000	-1.000000	-1.000000	1099033.000000	1769636009.302616
10002.645000	12585.060000	18779.940000	33259.680000	5603.355000	-8939.655000	-20495.970000	-6475.050000	-5.466424	-5.915278	-5.929059	-2.966200	-2.268088	-2.849320	2.705951	-1.928767	-12.558980	5.005280	-0.534100	-0.827085	-0.233093	0.407653	-1.000000	-1.000000	-1.000000	-1.000000	-1.000000	-1.000000	-1.000000	82.206897	0.000000	-1.000000	-1.000000	1099034.000000	1769636009.302628
10023.795000	12597.255000	18792.045000	33272.010000	5612.985000	-8945.595000	-20502.945000	-6453.900000	-10.631098	-11.026334	-9.465618	-4.439150	-0.751522	0.027466	6.030487	-4.881096	-12.558980	5.005280	-0.534100	-0.827085	-0.233093	0.407653	-1.000000	-1.000000	-1.000000	-1.000000	-1.000000	-1.000000	-1.000000	82.206897	0.000000	-1.000000	-1.000000	1099035.000000	1769636009.303973
10053.900000	12623.895000	18821.835000	33305.310000	5643.495000	-8927.100000	-20494.620000	-6426.540000	-10.954168	-11.210180	-8.002725	-2.113479	3.328260	2.883389	5.489392	-5.247924	-12.558980	5.005280	-0.534100	-0.827085	-0.233093	0.407653	-1.000000	-1.000000	-1.000000	-1.000000	-1.000000	-1.000000	-1.000000	82.206897	0.000000	-1.000000	-1.000000	1099036.000000	1769636009.303979
10065.735000	12643.380000	18841.320000	33322.455000	5658.840000	-8908.110000	-20490.750000	-6422.670000	-6.134508	-6.561353	-2.481254	2.572385	7.616943	3.946823	1.654813	-2.341454	-10.666740	5.478340	-1.022420	-0.829222	-0.235595	0.411986	-1.000000	-1.000000	-1.000000	-1.000000	-1.000000	-1.000000	-1.000000	82.206897	0.000000	-1.000000	-1.000000	1099037.000000	1769636009.305734
10048.815000	12624.570000	18819.945000	33301.935000	5643.900000	-8918.955000	-20489.445000	-6432.660000	1.722021	1.357504	4.904592	7.486339	10.347247	4.599526	-1.736103	2.226059	-10.666740	5.478340	-1.022420	-0.829222	-0.235595	0.411986	-1.000000	-1.000000	-1.000000	-1.000000	-1.000000	-1.000000	-1.000000	82.206897	0.000000	-1.000000	-1.000000	1099038.000000	1769636009.305745
10020.735000	12593.655000	18790.740000	33269.085000	5604.885000	-8965.665000	-20516.085000	-6450.930000	7.945072	7.805694	9.102871	8.071135	8.032760	3.917425	-2.772378	5.222513	-10.666740	5.478340	-1.022420	-0.829222	-0.235595	0.411986	-1.000000	-1.000000	-1.000000	-1.000000	-1.000000	-1.000000	-1.000000	82.206897	0.000000	-1.000000	-1.000000	1099039.000000	1769636009.309709
10030.995000	12615.210000	18810.405000	33282.405000	5607.180000	-8945.865000	-20507.040000	-6455.520000	8.330623	8.117352	6.351332	1.836736	-0.801904	-0.478291	-3.126640	4.183878	-10.666740	5.478340	-1.022420	-0.829222	-0.235595	0.411986	-1.000000	-1.000000	-1.000000	-1.000000	-1.000000	-1.000000	-1.000000	82.206897	0.000000	-1.000000	-1.000000	1099040.000000	1769636009.309720
10056.285000	12643.515000	18838.305000	33306.255000	5604.525000	-8929.170000	-20516.580000	-6442.155000	3.564641	3.454360	-0.407439	-6.805331	-11.487708	-6.552907	-4.433089	-0.248913	-10.666740	5.478340	-1.022420	-0.829222	-0.235595	0.411986	-1.000000	-1.000000	-1.000000	-1.000000	-1.000000	-1.000000	-1.000000	82.206897	0.000000	-1.000000	-1.000000	1099041.000000	1769636009.313670
10043.055000	12623.940000	18813.375000	33273.090000	5559.795000	-8951.985000	-20492.325000	-6438.645000	-1.400986	-0.970886	-5.172074	-11.373272	-17.871507	-9.951789	-5.837553	-4.280147	-10.666740	5.478340	-1.022420	-0.829222	-0.235595	0.411986	-1.000000	-1.000000	-1.000000	-1.000000	-1.000000	-1.000000	-1.000000	82.206897	0.000000	-1.000000	-1.000000	1099042.000000	1769636009.313679
10035.360000	12603.870000	18792.045000	33260.805000	5569.650000	-8965.035000	-20511.495000	-6441.255000	-3.357163	-2.800052	-6.108471	-10.367068	-17.514728	-9.367855	-5.069061	-4.703860	-10.666740	5.478340	-1.022420	-0.829222	-0.235595	0.411986	-1.000000	-1.000000	-1.000000	-1.000000	-1.000000	-1.000000	-1.000000	82.206897	0.000000	-1.000000	-1.000000	1099043.000000	1769636009.317652
10022.985000	12592.530000	18787.005000	33257.880000	5605.335000	-8956.305000	-20515.545000	-6447.690000	-3.843305	-4.140207	-5.940883	-6.917069	-10.780188	-6.096532	-1.533490	-2.490349	-10.666740	5.478340	-1.022420	-0.829222	-0.235595	0.411986	-1.000000	-1.000000	-1.000000	-1.000000	-1.000000	-1.000000	-1.000000	82.206897	0.000000	-1.000000	-1.000000	1099044.000000	1769636009.317661
10021.005000	12592.710000	18792.810000	33274.485000	5627.475000	-8924.175000	-20479.770000	-6444.180000	-5.613721	-6.941307	-6.737747	-3.767589	0.596385	-1.137589	3.060660	-1.050128	-10.666740	5.478340	-1.022420	-0.829222	-0.235595	0.411986	-1.000000	-1.000000	-1.000000	-1.000000	-1.000000	-1.000000	-1.000000	82.206897	0.000000	-1.000000	-1.000000	1099045.000000	1769636009.322073
10024.740000	12596.400000	18793.530000	33276.735000	5615.505000	-8937.675000	-20480.580000	-6440.490000	-7.978218	-9.371164	-6.949687	-0.625322	12.589456	4.914500	7.365574	-1.431672	-10.666740	5.478340	-1.022420	-0.829222	-0.235595	0.411986	-1.000000	-1.000000	-1.000000	-1.000000	-1.000000	-1.000000	-1.000000	82.206897	0.000000	-1.000000	-1.000000	1099046.000000	1769636009.322084
10020.735000	12596.220000	18791.685000	33271.920000	5632.830000	-8937.990000	-20488.815000	-6446.250000	-7.104499	-7.492863	-3.696090	3.818339	20.006873	10.209917	10.146235	-1.448920	-10.804080	5.096840	-1.815940	-0.832823	-0.234008	0.415892	-1.000000	-1.000000	-1.000000	-1.000000	-1.000000	-1.000000	-1.000000	82.206897	0.000000	-1.000000	-1.000000	1099047.000000	1769636009.327387
10041.255000	12616.785000	18810.405000	33288.795000	5643.180000	-8930.430000	-20498.490000	-6436.440000	-0.723900	0.247328	3.635315	9.327904	20.605702	12.708642	9.410610	0.846519	-10.804080	5.096840	-1.815940	-0.832823	-0.234008	0.415892	-1.000000	-1.000000	-1.000000	-1.000000	-1.000000	-1.000000	-1.000000	82.206897	0.000000	-1.000000	-1.000000	1099048.000000	1769636009.327399
10066.545000	12644.685000	18831.510000	33301.305000	5637.285000	-8935.470000	-20504.025000	-6428.340000	8.778091	10.608768	12.038489	13.704970	15.400805	11.329917	4.376521	4.792510	-10.804080	5.096840	-1.815940	-0.832823	-0.234008	0.415892	-1.000000	-1.000000	-1.000000	-1.000000	-1.000000	-1.000000	-1.000000	82.206897	0.000000	-1.000000	-1.000000	1099049.000000	1769636009.330132
10052.145000	12632.895000	18823.320000	33293.115000	5627.430000	-8938.395000	-20509.605000	-6437.115000	15.754428	17.452271	16.496841	13.813262	5.964602	5.471406	-3.370787	7.596356	-10.804080	5.096840	-1.815940	-0.832823	-0.234008	0.415892	-1.000000	-1.000000	-1.000000	-1.000000	-1.000000	-1.000000	-1.000000	82.206897	0.000000	-1.000000	-1.000000	1099050.000000	1769636009.330150
10026.045000	12603.645000	18797.445000	33274.485000	5614.245000	-8940.015000	-20502.000000	-6445.215000	15.268765	16.216114	13.818700	8.415396	-4.987166	-2.951320	-10.354023	6.607715	-10.804080	5.096840	-1.815940	-0.832823	-0.234008	0.415892	-1.000000	-1.000000	-1.000000	-1.000000	-1.000000	-1.000000	-1.000000	82.206897	0.000000	-1.000000	-1.000000	1099051.000000	1769636009.333772
10037.070000	12619.980000	18812.655000	33288.840000	5624.955000	-8931.555000	-20490.705000	-6444.180000	6.939098	7.401798	5.271921	-0.171814	-13.845585	-9.315153	-12.438851	1.797281	-10.804080	5.096840	-1.815940	-0.832823	-0.234008	0.415892	-1.000000	-1.000000	-1.000000	-1.000000	-1.000000	-1.000000	-1.000000	82.206897	0.000000	-1.000000	-1.000000	1099052.000000	1769636009.333794
10034.640000	12617.685000	18809.730000	33288.120000	5625.360000	-8931.105000	-20495.700000	-6444.495000	-4.430263	-3.801689	-4.608167	-8.061980	-18.631496	-10.819285	-8.116039	-4.161444	-10.804080	5.096840	-1.815940	-0.832823	-0.234008	0.415892	-1.000000	-1.000000	-1.000000	-1.000000	-1.000000	-1.000000	-1.000000	82.206897	0.000000	-1.000000	-1.000000	1099053.000000	1769636009.339978
10019.520000	12594.330000	18785.880000	33262.965000	5600.880000	-8952.885000	-20508.480000	-6445.305000	-12.873748	-12.092445	-11.824022	-12.879574	-19.106810	-8.864526	-1.006388	-8.119473	-10.804080	5.096840	-1.815940	-0.832823	-0.234008	0.415892	-1.000000	-1.000000	-1.000000	-1.000000	-1.000000	-1.000000	-1.000000	82.206897	0.000000	-1.000000	-1.000000	1099054.000000	1769636009.339989
9998.550000	12571.605000	18762.255000	33231.555000	5572.845000	-8951.535000	-20487.195000	-6453.045000	-15.515715	-15.609684	-15.082556	-14.643289	-15.813059	-6.057486	4.077042	-8.365577	-10.804080	5.096840	-1.815940	-0.832823	-0.234008	0.415892	-1.000000	-1.000000	-1.000000	-1.000000	-1.000000	-1.000000	-1.000000	82.206897	0.000000	-1.000000	-1.000000	1099055.000000	1769636009.347457
9975.690000	12552.030000	18743.580000	33211.845000	5550.030000	-8945.415000	-20457.270000	-6464.610000	-12.950290	-14.869936	-14.574340	-13.876927	-9.936866	-2.767849	6.693878	-5.259195	-10.804080	5.096840	-1.815940	-0.832823	-0.234008	0.415892	-1.000000	-1.000000	-1.000000	-1.000000	-1.000000	-1.000000	-1.000000	82.206897	0.000000	-1.000000	-1.000000	1099056.000000	1769636009.347470
10049.355000	12631.230000	18820.755000	33287.715000	5602.095000	-8963.145000	-20550.105000	-6440.895000	-6.761684	-10.088685	-9.934415	-9.465633	-2.065037	1.342147	7.672198	-0.559041	-8.972880	4.501700	-2.044840	-0.837217	-0.234252	0.419555	-1.000000	-1.000000	-1.000000	-1.000000	-1.000000	-1.000000	-1.000000	82.275862	0.000000	-1.000000	-1.000000	1099057.000000	1769636009.347650
10065.420000	12645.990000	18841.635000	33328.260000	5666.310000	-8938.755000	-20527.785000	-6425.910000	2.308322	-0.847544	-0.394458	0.628533	9.070587	5.016512	4.854656	4.196579	-8.972880	4.501700	-2.044840	-0.837217	-0.234252	0.419555	-1.000000	-1.000000	-1.000000	-1.000000	-1.000000	-1.000000	-1.000000	82.275862	0.000000	-1.000000	-1.000000	1099058.000000	1769636009.347659
10018.125000	12586.815000	18777.915000	33266.880000	5620.095000	-8935.470000	-20474.190000	-6441.930000	11.830394	10.152822	11.163367	14.100054	22.440930	7.318878	-0.904162	7.815217	-8.972880	4.501700	-2.044840	-0.837217	-0.234252	0.419555	-1.000000	-1.000000	-1.000000	-1.000000	-1.000000	-1.000000	-1.000000	82.275862	0.000000	-1.000000	-1.000000	1099059.000000	1769636009.349488
10028.880000	12602.160000	18792.990000	33273.945000	5620.095000	-8929.170000	-20483.640000	-6440.850000	16.567801	16.592764	17.737556	22.556677	30.429183	8.380866	-3.830302	8.647999	-8.972880	4.501700	-2.044840	-0.837217	-0.234252	0.419555	-1.000000	-1.000000	-1.000000	-1.000000	-1.000000	-1.000000	-1.000000	82.275862	0.000000	-1.000000	-1.000000	1099060.000000	1769636009.349495
10070.505000	12642.345000	18829.665000	33310.530000	5654.610000	-8905.275000	-20483.190000	-6417.315000	14.110967	15.423190	15.809904	20.133457	25.699872	7.894880	-1.864143	6.145556	-8.972880	4.501700	-2.044840	-0.837217	-0.234252	0.419555	-1.000000	-1.000000	-1.000000	-1.000000	-1.000000	-1.000000	-1.000000	82.275862	0.000000	-1.000000	-1.000000	1099061.000000	1769636009.353538
10073.970000	12647.655000	18833.580000	33312.195000	5650.695000	-8915.535000	-20502.720000	-6419.745000	7.625298	9.724211	8.761453	9.707836	10.119673	5.465010	1.222880	2.026472	-8.972880	4.501700	-2.044840	-0.837217	-0.234252	0.419555	-1.000000	-1.000000	-1.000000	-1.000000	-1.000000	-1.000000	-1.000000	82.275862	0.000000	-1.000000	-1.000000	1099062.000000	1769636009.353546
10023.255000	12604.365000	18797.670000	33274.845000	5608.395000	-8958.420000	-20547.990000	-6456.195000	0.617303	3.199431	1.220853	-2.165393	-8.061329	0.884023	1.074494	-2.194765	-8.972880	4.501700	-2.044840	-0.837217	-0.234252	0.419555	-1.000000	-1.000000	-1.000000	-1.000000	-1.000000	-1.000000	-1.000000	82.275862	0.000000	-1.000000	-1.000000	1099063.000000	1769636009.358390
10022.580000	12609.405000	18805.545000	33285.060000	5620.905000	-8941.365000	-20511.405000	-6453.270000	-6.031067	-3.027264	-4.745845	-10.783216	-21.132502	-5.379822	-3.319228	-6.216397	-8.972880	4.501700	-2.044840	-0.837217	-0.234252	0.419555	-1.000000	-1.000000	-1.000000	-1.000000	-1.000000	-1.000000	-1.000000	82.275862	0.000000	-1.000000	-1.000000	1099064.000000	1769636009.358402
10025.955000	12609.360000	18807.570000	33294.375000	5640.660000	-8916.840000	-20464.920000	-6440.580000	-11.361316	-8.369903	-8.493419	-13.882877	-24.342697	-10.169645	-7.056258	-8.639384	-8.972880	4.501700	-2.044840	-0.837217	-0.234252	0.419555	-1.000000	-1.000000	-1.000000	-1.000000	-1.000000	-1.000000	-1.000000	82.275862	0.000000	-1.000000	-1.000000	1099065.000000	1769636009.363181
10032.030000	12607.605000	18802.935000	33292.215000	5641.335000	-8925.030000	-20481.255000	-6437.160000	-14.299613	-12.686503	-10.944066	-12.848512	-18.277179	-9.726088	-3.310317	-7.758380	-8.972880	4.501700	-2.044840	-0.837217	-0.234252	0.419555	-1.000000	-1.000000	-1.000000	-1.000000	-1.000000	-1.000000	-1.000000	82.275862	0.000000	-1.000000	-1.000000	1099066.000000	1769636009.363190
10035.945000	12608.730000	18794.880000	33273.585000	5610.735000	-8962.830000	-20528.415000	-6442.695000	-14.140051	-15.378856	-12.985375	-11.137502	-9.134238	-5.237007	5.820257	-4.164479	-9.506980	2.685760	-1.953280	-0.839903	-0.234191	0.422912	-1.000000	-1.000000	-1.000000	-1.000000	-1.000000	-1.000000	-1.000000	82.275862	0.000000	-1.000000	-1.000000	1099067.000000	1769636009.366049
9987.930000	12573.585000	18774.180000	33260.355000	5603.940000	-8958.150000	-20527.380000	-6474.735000	-9.632805	-13.459468	-12.142907	-8.890773	-2.148852	-1.574483	9.692687	-0.113979	-9.506980	2.685760	-1.953280	-0.839903	-0.234191	0.422912	-1.000000	-1.000000	-1.000000	-1.000000	-1.000000	-1.000000	-1.000000	82.275862	0.000000	-1.000000	-1.000000	1099068.000000	1769636009.366059
10024.020000	12606.885000	18800.640000	33280.830000	5614.605000	-8976.195000	-20583.630000	-6462.270000	-1.723471	-5.813203	-6.159393	-3.993831	2.299696	-1.028129	2.868888	2.292238	-9.506980	2.685760	-1.953280	-0.839903	-0.234191	0.422912	-1.000000	-1.000000	-1.000000	-1.000000	-1.000000	-1.000000	-1.000000	82.275862	0.000000	-1.000000	-1.000000	1099069.000000	1769636009.370445
10047.510000	12628.260000	18821.295000	33305.670000	5643.720000	-8936.595000	-20517.840000	-6430.815000	6.298983	4.208835	2.865232	3.175039	5.564534	-1.795951	-8.563168	2.937872	-9.506980	2.685760	-1.953280	-0.839903	-0.234191	0.422912	-1.000000	-1.000000	-1.000000	-1.000000	-1.000000	-1.000000	-1.000000	82.275862	0.000000	-1.000000	-1.000000	1099070.000000	1769636009.370453
10031.985000	12605.490000	18790.155000	33268.230000	5610.510000	-8924.670000	-20448.720000	-6428.115000	12.168355	12.393472	10.766126	9.862388	8.378341	0.055606	-12.254027	3.970969	-9.506980	2.685760	-1.953280	-0.839903	-0.234191	0.422912	-1.000000	-1.000000	-1.000000	-1.000000	-1.000000	-1.000000	-1.000000	82.275862	0.000000	-1.000000	-1.000000	1099071.000000	1769636009.376733
10056.330000	12629.070000	18808.020000	33282.270000	5618.385000	-8934.930000	-20481.300000	-6421.950000	15.346922	16.437090	14.597647	13.461369	10.605153	6.471522	-1.813116	6.808272	-9.506980	2.685760	-1.953280	-0.839903	-0.234191	0.422912	-1.000000	-1.000000	-1.000000	-1.000000	-1.000000	-1.000000	-1.000000	82.275862	0.000000	-1.000000	-1.000000	1099072.000000	1769636009.376740
10059.435000	12643.335000	18827.820000	33302.430000	5635.755000	-8925.345000	-20480.985000	-6422.670000	15.860448	16.267235	14.078772	13.302092	11.398767	13.400962	13.591271	9.689069	-9.506980	2.685760	-1.953280	-0.839903	-0.234191	0.422912	-1.000000	-1.000000	-1.000000	-1.000000	-1.000000	-1.000000	-1.000000	82.275862	0.000000	-1.000000	-1.000000	1099073.000000	1769636009.377703
10027.035000	12608.775000	18794.520000	33271.515000	5606.505000	-8950.770000	-20489.715000	-6440.445000	11.990549	11.624987	9.695875	9.413607	9.103970	14.188809	19.206875	8.724645	-9.506980	2.685760	-1.953280	-0.839903	-0.234191	0.422912	-1.000000	-1.000000	-1.000000	-1.000000	-1.000000	-1.000000	-1.000000	82.275862	0.000000	-1.000000	-1.000000	1099074.000000	1769636009.377714
10027.530000	12604.320000	18784.845000	33262.830000	5598.585000	-8963.820000	-20515.275000	-6444.180000	1.699397	1.632510	1.204014	1.395353	2.245902	6.618297	10.998976	1.854689	-9.506980	2.685760	-1.953280	-0.839903	-0.234191	0.422912	-1.000000	-1.000000	-1.000000	-1.000000	-1.000000	-1.000000	-1.000000	82.275862	0.000000	-1.000000	-1.000000	1099075.000000	1769636009.381674
10001.025000	12571.380000	18759.735000	33248.970000	5599.440000	-8925.435000	-20464.920000	-6447.105000	-11.620275	-10.746371	-8.933251	-8.098600	-6.553445	-4.284675	-3.258527	-7.670813	-9.506980	2.685760	-1.953280	-0.839903	-0.234191	0.422912	-1.000000	-1.000000	-1.000000	-1.000000	-1.000000	-1.000000	-1.000000	82.275862	0.000000	-1.000000	-1.000000	1099076.000000	1769636009.381687
10020.285000	12610.755000	18810.720000	33302.790000	5649.795000	-8893.575000	-20457.270000	-6444.045000	-19.977427	-18.500734	-14.718224	-12.861660	-10.768148	-10.103204	-12.446616	-13.427054	-10.086860	1.327620	-0.915600	-0.843992	-0.230224	0.425780	-1.000000	-1.000000	-1.000000	-1.000000	-1.000000	-1.000000	-1.000000	82.275862	0.000000	-1.000000	-1.000000	1099077.000000	1769636009.394159
10091.385000	12677.310000	18865.485000	33343.605000	5670.810000	-8913.645000	-20517.705000	-6407.190000	-17.913749	-16.270021	-11.630553	-8.983629	-6.916114	-7.602281	-12.003675	-11.796178	-10.086860	1.327620	-0.915600	-0.843992	-0.230224	0.425780	-1.000000	-1.000000	-1.000000	-1.000000	-1.000000	-1.000000	-1.000000	82.275862	0.000000	-1.000000	-1.000000	1099078.000000	1769636009.394174
10041.660000	12597.480000	18776.205000	33254.010000	5589.045000	-8972.055000	-20537.280000	-6425.775000	-7.006800	-5.742045	-2.101745	-0.114149	0.469582	-2.790925	-8.226128	-4.781349	-10.086860	1.327620	-0.915600	-0.843992	-0.230224	0.425780	-1.000000	-1.000000	-1.000000	-1.000000	-1.000000	-1.000000	-1.000000	82.275862	0.000000	-1.000000	-1.000000	1099079.000000	1769636009.394188
10028.520000	12602.520000	18789.885000	33268.005000	5601.780000	-8954.415000	-20516.805000	-6437.745000	4.943136	4.734020	5.636612	5.492401	3.677591	-2.891469	-8.355940	2.274912	-10.086860	1.327620	-0.915600	-0.843992	-0.230224	0.425780	-1.000000	-1.000000	-1.000000	-1.000000	-1.000000	-1.000000	-1.000000	82.275862	0.000000	-1.000000	-1.000000	1099080.000000	1769636009.394194
10025.910000	12603.690000	18795.285000	33277.905000	5611.860000	-8945.595000	-20512.440000	-6441.075000	10.385728	8.459798	6.562592	4.421839	1.114677	-6.652102	-10.113867	5.294484	-10.086860	1.327620	-0.915600	-0.843992	-0.230224	0.425780	-1.000000	-1.000000	-1.000000	-1.000000	-1.000000	-1.000000	-1.000000	82.275862	0.000000	-1.000000	-1.000000	1099081.000000	1769636009.394200
10020.465000	12597.120000	18787.680000	33271.875000	5609.970000	-8945.595000	-20515.680000	-6445.440000	8.050181	5.686401	2.526422	-0.090587	-2.876869	-7.795856	-7.245932	4.104796	-10.086860	1.327620	-0.915600	-0.843992	-0.230224	0.425780	-1.000000	-1.000000	-1.000000	-1.000000	-1.000000	-1.000000	-1.000000	82.275862	0.000000	-1.000000	-1.000000	1099082.000000	1769636009.394205
10028.835000	12604.185000	18791.730000	33270.255000	5603.985000	-8950.230000	-20514.330000	-6439.545000	2.235443	0.843277	-2.032097	-3.779545	-4.488453	-3.442831	1.439804	1.373343	-10.086860	1.327620	-0.915600	-0.843992	-0.230224	0.425780	-1.000000	-1.000000	-1.000000	-1.000000	-1.000000	-1.000000	-1.000000	82.275862	0.000000	-1.000000	-1.000000	1099083.000000	1769636009.397645
10042.200000	12617.775000	18804.780000	33283.395000	5619.195000	-8934.345000	-20500.470000	-6429.375000	-1.467372	-1.180343	-3.049317	-3.768137	-2.402956	4.485435	12.136660	0.133485	-10.086860	1.327620	-0.915600	-0.843992	-0.230224	0.425780	-1.000000	-1.000000	-1.000000	-1.000000	-1.000000	-1.000000	-1.000000	82.275862	0.000000	-1.000000	-1.000000	1099084.000000	1769636009.397658
10055.295000	12639.960000	18833.220000	33315.120000	5649.075000	-8915.940000	-20495.520000	-6422.310000	0.046616	1.976908	1.081220	0.703387	2.685081	11.462028	19.078969	1.714194	-10.086860	1.327620	-0.915600	-0.843992	-0.230224	0.425780	-1.000000	-1.000000	-1.000000	-1.000000	-1.000000	-1.000000	-1.000000	82.275862	0.000000	-1.000000	-1.000000	1099085.000000	1769636009.401586
10068.840000	12658.635000	18848.970000	33326.685000	5656.635000	-8912.970000	-20486.205000	-6414.705000	4.630082	7.339954	6.961141	6.432511	7.513960	13.280077	18.582368	4.557837	-10.086860	1.327620	-0.915600	-0.843992	-0.230224	0.425780	-1.000000	-1.000000	-1.000000	-1.000000	-1.000000	-1.000000	-1.000000	82.275862	0.000000	-1.000000	-1.000000	1099086.000000	1769636009.401599
10018.935000	12601.305000	18793.440000	33274.935000	5606.280000	-8969.040000	-20546.415000	-6445.125000	5.706640	8.014156	7.972688	7.659788	7.633045	8.719817	11.566284	4.826883	-6.256600	0.854560	-2.197440	-0.845884	-0.231262	0.428038	-1.000000	-1.000000	-1.000000	-1.000000	-1.000000	-1.000000	-1.000000	82.275862	0.000000	-1.000000	-1.000000	1099087.000000	1769636009.407968
10007.370000	12582.945000	18774.720000	33259.095000	5595.255000	-8968.455000	-20551.635000	-6449.670000	-0.290795	0.918471	1.642314	2.460035	2.235819	0.053371	0.454231	0.346246	-6.256600	0.854560	-2.197440	-0.845884	-0.231262	0.428038	-1.000000	-1.000000	-1.000000	-1.000000	-1.000000	-1.000000	-1.000000	82.275862	0.000000	-1.000000	-1.000000	1099088.000000	1769636009.407981
10018.845000	12583.170000	18764.145000	33241.320000	5575.185000	-8973.405000	-20516.670000	-6436.755000	-8.644416	-9.094003	-7.541810	-5.262252	-4.867530	-8.206213	-11.146476	-5.772648	-6.256600	0.854560	-2.197440	-0.845884	-0.231262	0.428038	-1.000000	-1.000000	-1.000000	-1.000000	-1.000000	-1.000000	-1.000000	82.275862	0.000000	-1.000000	-1.000000	1099089.000000	1769636009.409660
10022.535000	12597.930000	18784.755000	33261.480000	5593.995000	-8957.205000	-20509.605000	-6435.045000	-11.912623	-14.702919	-13.378510	-10.688697	-9.689908	-12.006523	-17.159703	-8.181762	-6.256600	0.854560	-2.197440	-0.845884	-0.231262	0.428038	-1.000000	-1.000000	-1.000000	-1.000000	-1.000000	-1.000000	-1.000000	82.275862	0.000000	-1.000000	-1.000000	1099090.000000	1769636009.409672
10010.655000	12580.650000	18769.635000	33249.375000	5585.220000	-8959.005000	-20513.655000	-6441.210000	-7.740165	-12.359240	-12.263958	-10.802804	-9.879100	-9.725010	-14.145318	-5.170587	-6.256600	0.854560	-2.197440	-0.845884	-0.231262	0.428038	-1.000000	-1.000000	-1.000000	-1.000000	-1.000000	-1.000000	-1.000000	82.275862	0.000000	-1.000000	-1.000000	1099091.000000	1769636009.413682
10026.855000	12587.895000	18777.285000	33260.130000	5602.680000	-8942.445000	-20515.590000	-6429.645000	0.427640	-4.013154	-4.810792	-5.189078	-4.858523	-2.520895	-4.983080	0.538593	-6.256600	0.854560	-2.197440	-0.845884	-0.231262	0.428038	-1.000000	-1.000000	-1.000000	-1.000000	-1.000000	-1.000000	-1.000000	82.275862	0.000000	-1.000000	-1.000000	1099092.000000	1769636009.413691
10018.575000	12566.160000	18751.815000	33219.765000	5570.055000	-8954.550000	-20490.930000	-6425.010000	7.552756	4.959620	4.275029	2.587357	2.499464	5.447783	4.279046	5.272896	-6.256600	0.854560	-2.197440	-0.845884	-0.231262	0.428038	-1.000000	-1.000000	-1.000000	-1.000000	-1.000000	-1.000000	-1.000000	82.275862	0.000000	-1.000000	-1.000000	1099093.000000	1769636009.417655
9993.870000	12524.445000	18707.175000	33182.910000	5529.735000	-8989.605000	-20480.895000	-6434.595000	9.712015	8.738153	8.451553	6.068507	6.046232	8.370452	9.304266	6.698887	-6.256600	0.854560	-2.197440	-0.845884	-0.231262	0.428038	-1.000000	-1.000000	-1.000000	-1.000000	-1.000000	-1.000000	-1.000000	82.275862	0.000000	-1.000000	-1.000000	1099094.000000	1769636009.417666
10080.180000	12569.175000	18752.400000	33254.370000	5584.680000	-8983.350000	-20569.140000	-6388.740000	6.506723	5.208429	4.907782	2.935576	2.974625	4.099893	8.626990	4.781309	-6.256600	0.854560	-2.197440	-0.845884	-0.231262	0.428038	-1.000000	-1.000000	-1.000000	-1.000000	-1.000000	-1.000000	-1.000000	82.275862	0.000000	-1.000000	-1.000000	1099095.000000	1769636009.421618
10117.935000	12551.040000	18723.645000	33291.810000	5601.420000	-8994.015000	-20609.415000	-6348.600000	3.924538	0.081185	-0.454117	0.843392	-0.179182	-2.183457	2.186267	2.943942	-6.256600	0.854560	-2.197440	-0.845884	-0.231262	0.428038	-1.000000	-1.000000	-1.000000	-1.000000	-1.000000	-1.000000	-1.000000	82.275862	0.000000	-1.000000	-1.000000	1099096.000000	1769636009.421624
10066.320000	12491.865000	18638.820000	33319.665000	5594.085000	-8981.010000	-20552.490000	-6375.870000	6.620013	-0.274768	-1.259346	7.845596	3.795136	-3.863503	-6.721080	4.044091	-0.564620	1.785420	-0.061040	-0.845396	-0.235778	0.432311	-1.000000	-1.000000	-1.000000	-1.000000	-1.000000	-1.000000	-1.000000	82.275862	0.000000	-1.000000	-1.000000	1099097.000000	1769636009.425584
10011.960000	12451.455000	18601.155000	33362.145000	5594.670000	-8982.360000	-20546.730000	-6424.425000	8.353364	1.510372	-0.407333	20.242185	11.747951	-0.295940	-11.282116	4.421971	-0.564620	1.785420	-0.061040	-0.845396	-0.235778	0.432311	-1.000000	-1.000000	-1.000000	-1.000000	-1.000000	-1.000000	-1.000000	82.275862	0.000000	-1.000000	-1.000000	1099098.000000	1769636009.425595
10015.380000	12401.550000	18465.210000	33364.080000	5595.930000	-8976.195000	-20549.925000	-6435.855000	1.069858	-0.628667	-4.330956	26.906255	14.998235	4.350132	-7.887941	-1.367243	-0.564620	1.785420	-0.061040	-0.845396	-0.235778	0.432311	-1.000000	-1.000000	-1.000000	-1.000000	-1.000000	-1.000000	-1.000000	82.275862	0.000000	-1.000000	-1.000000	1099099.000000	1769636009.429643
10089.585000	12422.385000	18346.230000	33294.285000	5599.260000	-8934.795000	-20555.640000	-6393.195000	-11.266874	-6.277931	-14.978437	19.354350	9.547509	6.766477	0.565191	-10.981709	-0.564620	1.785420	-0.061040	-0.845396	-0.235778	0.432311	-1.000000	-1.000000	-1.000000	-1.000000	-1.000000	-1.000000	-1.000000	82.275862	0.000000	-1.000000	-1.000000	1099100.000000	1769636009.429648
10053.090000	12398.490000	18306.270000	33186.960000	5529.555000	-8983.845000	-20559.960000	-6427.935000	-17.664154	-9.259207	-27.114587	-3.854845	-2.525206	6.048402	8.266757	-16.520218	-0.564620	1.785420	-0.061040	-0.845396	-0.235778	0.432311	-1.000000	-1.000000	-1.000000	-1.000000	-1.000000	-1.000000	-1.000000	82.275862	0.000000	-1.000000	-1.000000	1099101.000000	1769636009.433650
10022.895000	12390.480000	18350.865000	33196.590000	5519.430000	-8997.705000	-20586.780000	-6454.215000	-14.479371	-5.323013	-28.546834	-33.830834	-16.262056	1.482315	10.093926	-14.656116	-0.564620	1.785420	-0.061040	-0.845396	-0.235778	0.432311	-1.000000	-1.000000	-1.000000	-1.000000	-1.000000	-1.000000	-1.000000	82.275862	0.000000	-1.000000	-1.000000	1099102.000000	1769636009.433656
9950.490000	12208.410000	18313.020000	33242.220000	5476.545000	-9029.790000	-20560.455000	-6429.060000	-8.115145	1.348521	-10.464610	-52.504539	-25.535040	-6.007080	5.580164	-8.040967	-0.564620	1.785420	-0.061040	-0.845396	-0.235778	0.432311	-1.000000	-1.000000	-1.000000	-1.000000	-1.000000	-1.000000	-1.000000	82.275862	0.000000	-1.000000	-1.000000	1099103.000000	1769636009.437648
9915.525000	12022.695000	18021.915000	33193.530000	5428.755000	-9028.260000	-20595.690000	-6407.550000	-6.814701	-0.880269	16.594645	-47.072637	-26.767674	-12.187050	0.830424	0.179935	-0.564620	1.785420	-0.061040	-0.845396	-0.235778	0.432311	-1.000000	-1.000000	-1.000000	-1.000000	-1.000000	-1.000000	-1.000000	82.275862	0.000000	-1.000000	-1.000000	1099104.000000	1769636009.437660
10008.540000	12150.225000	17814.960000	33082.200000	5490.405000	-8997.930000	-20647.350000	-6405.165000	-9.825041	-13.907606	27.593496	-23.658546	-19.646504	-12.261078	0.176070	7.864921	-0.564620	1.785420	-0.061040	-0.845396	-0.235778	0.432311	-1.000000	-1.000000	-1.000000	-1.000000	-1.000000	-1.000000	-1.000000	82.275862	0.000000	-1.000000	-1.000000	1099105.000000	1769636009.444763
10062.135000	12348.405000	18056.700000	33186.195000	5638.095000	-8941.635000	-20579.715000	-6428.610000	-5.296317	-16.668048	16.636052	1.773529	-2.138329	-4.210561	0.416944	13.147188	-0.564620	1.785420	-0.061040	-0.845396	-0.235778	0.432311	-1.000000	-1.000000	-1.000000	-1.000000	-1.000000	-1.000000	-1.000000	82.275862	0.000000	-1.000000	-1.000000	1099106.000000	1769636009.444775
10093.905000	12431.070000	18309.645000	33344.460000	5708.205000	-8904.465000	-20573.775000	-6404.355000	14.123379	11.276661	12.415924	23.286694	25.898412	9.328966	-0.897868	15.306446	-6.302380	-6.210820	11.887540	-0.848570	-0.223693	0.450316	-1.000000	-1.000000	-1.000000	-1.000000	-1.000000	-1.000000	-1.000000	82.275862	0.000000	-1.000000	-1.000000	1099107.000000	1769636009.446973
9976.680000	12353.805000	18516.465000	33438.555000	5755.320000	-8817.300000	-20490.615000	-6461.955000	36.381243	56.861651	42.793141	44.932657	53.423356	22.119987	-0.585264	13.823881	-6.302380	-6.210820	11.887540	-0.848570	-0.223693	0.450316	-1.000000	-1.000000	-1.000000	-1.000000	-1.000000	-1.000000	-1.000000	82.275862	0.000000	-1.000000	-1.000000	1099108.000000	1769636009.446990
9871.155000	12244.095000	18384.885000	33175.665000	5513.310000	-9005.940000	-20557.755000	-6558.120000	38.065788	80.302803	93.008461	61.246257	59.715999	25.190066	3.308082	5.604084	-6.302380	-6.210820	11.887540	-0.848570	-0.223693	0.450316	-1.000000	-1.000000	-1.000000	-1.000000	-1.000000	-1.000000	-1.000000	82.275862	0.000000	-1.000000	-1.000000	1099109.000000	1769636009.451544
10057.680000	12372.705000	18302.220000	33018.030000	5410.125000	-9041.805000	-20614.365000	-6454.665000	13.428960	56.932852	111.938062	52.441624	29.654704	10.300805	5.446547	-8.467190	-6.302380	-6.210820	11.887540	-0.848570	-0.223693	0.450316	-1.000000	-1.000000	-1.000000	-1.000000	-1.000000	-1.000000	-1.000000	82.275862	0.000000	-1.000000	-1.000000	1099110.000000	1769636009.451554
10251.495000	12560.805000	18411.705000	33154.695000	5534.910000	-8884.395000	-20463.255000	-6300.540000	-11.381011	6.011116	65.263457	11.878196	-24.546690	-15.434698	1.578942	-15.171610	-6.302380	-6.210820	11.887540	-0.848570	-0.223693	0.450316	-1.000000	-1.000000	-1.000000	-1.000000	-1.000000	-1.000000	-1.000000	82.275862	0.000000	-1.000000	-1.000000	1099111.000000	1769636009.453664
10166.085000	12439.080000	18214.110000	33160.275000	5478.795000	-8965.305000	-20481.435000	-6344.865000	-10.363486	-32.150097	-27.418642	-35.802248	-66.043090	-30.318313	-2.054152	-4.038503	-6.302380	-6.210820	11.887540	-0.848570	-0.223693	0.450316	-1.000000	-1.000000	-1.000000	-1.000000	-1.000000	-1.000000	-1.000000	82.275862	0.000000	-1.000000	-1.000000	1099112.000000	1769636009.453671
9899.280000	12055.680000	17680.455000	32773.410000	5267.880000	-9115.650000	-20577.105000	-6480.630000	4.368147	-45.883984	-119.550758	-63.658633	-71.840359	-26.738622	-0.429347	12.525084	-6.302380	-6.210820	11.887540	-0.848570	-0.223693	0.450316	-1.000000	-1.000000	-1.000000	-1.000000	-1.000000	-1.000000	-1.000000	82.275862	0.000000	-1.000000	-1.000000	1099113.000000	1769636009.457790
10001.520000	12129.840000	17402.940000	32534.595000	5326.695000	-9009.495000	-20682.180000	-6430.770000	1.098556	-57.107247	-180.401189	-72.395489	-51.696670	-16.776820	-0.885354	13.964098	-6.302380	-6.210820	11.887540	-0.848570	-0.223693	0.450316	-1.000000	-1.000000	-1.000000	-1.000000	-1.000000	-1.000000	-1.000000	82.275862	0.000000	-1.000000	-1.000000	1099114.000000	1769636009.457800
10148.895000	12345.480000	17776.620000	32589.000000	5453.730000	-8938.800000	-20533.635000	-6303.420000	-22.182863	-73.249859	-192.500426	-72.780216	-22.458344	-7.066566	-9.743121	1.227200	-6.302380	-6.210820	11.887540	-0.848570	-0.223693	0.450316	-1.000000	-1.000000	-1.000000	-1.000000	-1.000000	-1.000000	-1.000000	82.275862	0.000000	-1.000000	-1.000000	1099115.000000	1769636009.461745
10010.970000	12335.130000	18172.980000	32779.395000	5330.160000	-9122.895000	-20442.645000	-6390.585000	-38.747736	-70.772164	-134.488046	-57.926670	7.840952	2.388627	-17.609034	-8.705113	-6.302380	-6.210820	11.887540	-0.848570	-0.223693	0.450316	-1.000000	-1.000000	-1.000000	-1.000000	-1.000000	-1.000000	-1.000000	82.275862	0.000000	-1.000000	-1.000000	1099116.000000	1769636009.461757
10089.810000	12580.020000	18577.260000	33315.030000	5582.520000	-8986.680000	-20478.555000	-6425.865000	-31.879411	-30.212213	-1.852709	-5.688563	35.028187	7.344568	-12.360269	-9.108058	-21.104580	-1.892240	-2.182180	-0.884397	-0.204467	0.462950	-1.000000	-1.000000	-1.000000	-1.000000	-1.000000	-1.000000	-1.000000	82.275862	0.000000	-1.000000	-1.000000	1099117.000000	1769636009.466327
10165.230000	12759.525000	18807.885000	33483.780000	5731.110000	-8852.940000	-20463.390000	-6397.515000	-4.549161	41.473724	164.621454	93.842791	63.784511	13.188002	3.553480	-4.870612	-21.104580	-1.892240	-2.182180	-0.884397	-0.204467	0.462950	-1.000000	-1.000000	-1.000000	-1.000000	-1.000000	-1.000000	-1.000000	82.275862	0.000000	-1.000000	-1.000000	1099118.000000	1769636009.466337
10114.470000	12769.515000	18773.910000	33243.300000	5642.460000	-8973.000000	-20621.340000	-6454.440000	25.917815	109.436827	285.625306	198.145880	93.359484	28.480683	16.536467	-2.538520	-21.104580	-1.892240	-2.182180	-0.884397	-0.204467	0.462950	-1.000000	-1.000000	-1.000000	-1.000000	-1.000000	-1.000000	-1.000000	82.275862	0.000000	-1.000000	-1.000000	1099119.000000	1769636009.469611
10187.145000	12908.835000	19050.255000	33181.335000	5645.565000	-8916.795000	-20544.840000	-6366.150000	36.508269	129.903644	290.319370	221.571464	97.615258	40.210591	13.450602	-7.049765	-21.104580	-1.892240	-2.182180	-0.884397	-0.204467	0.462950	-1.000000	-1.000000	-1.000000	-1.000000	-1.000000	-1.000000	-1.000000	82.275862	0.000000	-1.000000	-1.000000	1099120.000000	1769636009.469620
10153.035000	12896.775000	19100.970000	33014.070000	5535.225000	-8920.305000	-20461.455000	-6357.690000	24.113794	92.878091	178.877918	122.126453	55.255328	32.865362	-1.794738	-13.097741	-21.104580	-1.892240	-2.182180	-0.884397	-0.204467	0.462950	-1.000000	-1.000000	-1.000000	-1.000000	-1.000000	-1.000000	-1.000000	82.275862	0.000000	-1.000000	-1.000000	1099121.000000	1769636009.479842
10165.230000	12956.670000	19145.925000	33010.470000	5588.370000	-8822.745000	-20378.880000	-6354.135000	7.697276	28.971674	23.714057	-44.392981	-17.038688	13.141983	-7.320071	-8.425084	-21.104580	-1.892240	-2.182180	-0.884397	-0.204467	0.462950	-1.000000	-1.000000	-1.000000	-1.000000	-1.000000	-1.000000	-1.000000	82.275862	0.000000	-1.000000	-1.000000	1099122.000000	1769636009.479854
10136.700000	12884.085000	19087.290000	33217.560000	5687.505000	-8803.305000	-20356.245000	-6356.970000	-1.739542	-33.004392	-104.587359	-173.841984	-80.963538	-5.911468	8.107203	6.824340	-21.104580	-1.892240	-2.182180	-0.884397	-0.204467	0.462950	-1.000000	-1.000000	-1.000000	-1.000000	-1.000000	-1.000000	-1.000000	82.275862	0.000000	-1.000000	-1.000000	1099123.000000	1769636009.479868
10223.550000	12944.205000	19117.620000	33338.295000	5782.725000	-8763.705000	-20394.450000	-6298.605000	-8.897899	-85.929741	-189.957890	-200.594109	-107.296540	-19.977861	27.228637	19.339257	-21.104580	-1.892240	-2.182180	-0.884397	-0.204467	0.462950	-1.000000	-1.000000	-1.000000	-1.000000	-1.000000	-1.000000	-1.000000	82.275862	0.000000	-1.000000	-1.000000	1099124.000000	1769636009.479873
10105.560000	12777.300000	18939.645000	33050.745000	5556.465000	-8866.755000	-20377.665000	-6344.955000	-15.378914	-124.208192	-247.797199	-143.522482	-92.338697	-28.554344	24.800811	21.114693	-21.104580	-1.892240	-2.182180	-0.884397	-0.204467	0.462950	-1.000000	-1.000000	-1.000000	-1.000000	-1.000000	-1.000000	-1.000000	82.275862	0.000000	-1.000000	-1.000000	1099125.000000	1769636009.481668
10135.800000	12793.770000	18973.260000	33147.180000	5595.975000	-8801.280000	-20406.465000	-6346.710000	-18.169382	-137.072055	-277.528871	-73.780416	-58.126109	-32.869803	-1.800467	14.664712	-21.104580	-1.892240	-2.182180	-0.884397	-0.204467	0.462950	-1.000000	-1.000000	-1.000000	-1.000000	-1.000000	-1.000000	-1.000000	82.275862	0.000000	-1.000000	-1.000000	1099126.000000	1769636009.481679
10185.795000	12840.120000	19056.015000	33352.785000	5737.905000	-8768.070000	-20416.905000	-6321.645000	-17.263735	-117.221819	-250.239837	-29.669125	-24.980304	-33.057331	-31.727041	4.587842	-20.021120	28.917700	4.837420	-0.862974	-0.169982	0.491454	-1.000000	-1.000000	-1.000000	-1.000000	-1.000000	-1.000000	-1.000000	82.275862	0.000000	-1.000000	-1.000000	1099127.000000	1769636009.487481
10138.140000	12767.805000	18985.905000	33358.905000	5688.855000	-8913.015000	-20484.270000	-6359.130000	-13.321380	-65.210660	-144.199452	9.198123	7.441290	-26.730146	-44.468792	-6.549396	-20.021120	28.917700	4.837420	-0.862974	-0.169982	0.491454	-1.000000	-1.000000	-1.000000	-1.000000	-1.000000	-1.000000	-1.000000	82.275862	0.000000	-1.000000	-1.000000	1099128.000000	1769636009.487493
10102.995000	12716.595000	18928.170000	33327.360000	5666.310000	-8902.980000	-20472.570000	-6378.165000	-7.826443	4.532459	13.332722	61.313670	40.175830	-16.131315	-36.885287	-17.958959	-20.021120	28.917700	4.837420	-0.862974	-0.169982	0.491454	-1.000000	-1.000000	-1.000000	-1.000000	-1.000000	-1.000000	-1.000000	82.275862	0.000000	-1.000000	-1.000000	1099129.000000	1769636009.489677
10036.620000	12605.085000	18808.245000	33238.125000	5583.060000	-8962.695000	-20457.045000	-6415.425000	-2.081022	68.768030	160.042482	109.567690	62.951315	-5.603064	-18.543495	-27.004919	-20.021120	28.917700	4.837420	-0.862974	-0.169982	0.491454	-1.000000	-1.000000	-1.000000	-1.000000	-1.000000	-1.000000	-1.000000	82.275862	0.000000	-1.000000	-1.000000	1099130.000000	1769636009.489685
9985.050000	12429.135000	18582.570000	33235.335000	5569.785000	-9000.270000	-20556.900000	-6458.625000	3.413419	105.443916	242.147813	124.943812	63.557130	2.270164	-0.177209	-28.573720	-20.021120	28.917700	4.837420	-0.862974	-0.169982	0.491454	-1.000000	-1.000000	-1.000000	-1.000000	-1.000000	-1.000000	-1.000000	82.275862	0.000000	-1.000000	-1.000000	1099131.000000	1769636009.493795
10029.150000	12399.120000	18373.230000	33353.595000	5695.740000	-8902.620000	-20597.040000	-6442.020000	6.629967	100.998303	232.460879	92.190859	38.677760	6.688030	9.693035	-21.052214	-20.021120	28.917700	4.837420	-0.862974	-0.169982	0.491454	-1.000000	-1.000000	-1.000000	-1.000000	-1.000000	-1.000000	-1.000000	82.275862	0.000000	-1.000000	-1.000000	1099132.000000	1769636009.493802
10052.505000	12444.975000	18441.540000	33399.945000	5730.075000	-8828.145000	-20499.975000	-6413.940000	8.799176	64.827394	141.872042	24.253612	3.755621	14.374027	10.631677	-6.431640	-20.021120	28.917700	4.837420	-0.862974	-0.169982	0.491454	-1.000000	-1.000000	-1.000000	-1.000000	-1.000000	-1.000000	-1.000000	82.275862	0.000000	-1.000000	-1.000000	1099133.000000	1769636009.497829
10009.620000	12495.555000	18572.715000	33356.880000	5646.780000	-8825.220000	-20448.900000	-6440.850000	14.415706	27.118391	26.237023	-43.915923	-18.138645	31.465949	13.036650	12.812207	-20.021120	28.917700	4.837420	-0.862974	-0.169982	0.491454	-1.000000	-1.000000	-1.000000	-1.000000	-1.000000	-1.000000	-1.000000	82.275862	0.000000	-1.000000	-1.000000	1099134.000000	1769636009.497836
9992.520000	12579.255000	18689.220000	33319.530000	5600.385000	-8897.490000	-20452.365000	-6463.800000	20.690761	10.356618	-48.942588	-85.538171	-22.486592	46.973862	24.333715	30.222295	-20.021120	28.917700	4.837420	-0.862974	-0.169982	0.491454	-1.000000	-1.000000	-1.000000	-1.000000	-1.000000	-1.000000	-1.000000	82.275862	0.000000	-1.000000	-1.000000	1099135.000000	1769636009.501840
9987.345000	12551.580000	18545.895000	32995.170000	5490.360000	-9015.525000	-20531.205000	-6460.470000	18.704802	11.801331	-60.358583	-100.092318	-23.463043	41.433638	37.574790	36.292724	-20.021120	28.917700	4.837420	-0.862974	-0.169982	0.491454	-1.000000	-1.000000	-1.000000	-1.000000	-1.000000	-1.000000	-1.000000	82.275862	0.000000	-1.000000	-1.000000	1099136.000000	1769636009.501851
10049.400000	12670.155000	18734.535000	32860.980000	5439.420000	-9075.105000	-20567.025000	-6424.560000	8.001727	16.553600	-30.607625	-99.064529	-29.676744	11.471326	38.469402	28.369038	-70.180740	13.230420	-16.084040	-0.856016	-0.142456	0.411559	-1.000000	-1.000000	-1.000000	-1.000000	-1.000000	-1.000000	-1.000000	82.275862	0.000000	-1.000000	-1.000000	1099137.000000	1769636009.505728
10080.810000	12693.600000	18820.395000	33037.290000	5509.890000	-9015.795000	-20537.370000	-6400.575000	-0.430096	17.275919	10.786544	-78.415460	-31.426276	-24.327328	20.553192	13.891107	-70.180740	13.230420	-16.084040	-0.856016	-0.142456	0.411559	-1.000000	-1.000000	-1.000000	-1.000000	-1.000000	-1.000000	-1.000000	82.275862	0.000000	-1.000000	-1.000000	1099138.000000	1769636009.505741
10072.935000	12655.755000	18786.645000	33179.085000	5580.450000	-8964.135000	-20527.200000	-6404.625000	1.886830	14.086683	46.183175	-19.566187	-13.202160	-41.481951	-7.333399	2.282113	-70.180740	13.230420	-16.084040	-0.856016	-0.142456	0.411559	-1.000000	-1.000000	-1.000000	-1.000000	-1.000000	-1.000000	-1.000000	82.275862	0.000000	-1.000000	-1.000000	1099139.000000	1769636009.512218
10082.475000	12660.075000	18790.380000	33260.535000	5652.720000	-8902.530000	-20545.785000	-6408.315000	10.050450	5.396786	61.528476	70.599790	23.181412	-29.919609	-28.447129	-3.513706	-70.180740	13.230420	-16.084040	-0.856016	-0.142456	0.411559	-1.000000	-1.000000	-1.000000	-1.000000	-1.000000	-1.000000	-1.000000	82.275862	0.000000	-1.000000	-1.000000	1099140.000000	1769636009.512229
10098.900000	12631.410000	18719.055000	33267.915000	5638.005000	-8913.060000	-20506.905000	-6389.280000	11.733891	-11.571398	45.867377	144.150820	54.004092	-2.154474	-32.642743	-7.107354	-70.180740	13.230420	-16.084040	-0.856016	-0.142456	0.411559	-1.000000	-1.000000	-1.000000	-1.000000	-1.000000	-1.000000	-1.000000	82.275862	0.000000	-1.000000	-1.000000	1099141.000000	1769636009.516901
10107.810000	12612.645000	18672.345000	33299.235000	5657.130000	-8899.830000	-20551.230000	-6394.905000	1.696807	-35.828552	-2.632993	154.728367	57.481481	19.316891	-23.862303	-11.658546	-70.180740	13.230420	-16.084040	-0.856016	-0.142456	0.411559	-1.000000	-1.000000	-1.000000	-1.000000	-1.000000	-1.000000	-1.000000	82.275862	0.000000	-1.000000	-1.000000	1099142.000000	1769636009.516914
10294.875000	12741.885000	18800.595000	33487.830000	5842.035000	-8759.880000	-20558.925000	-6259.815000	-11.163276	-58.610791	-69.221499	101.086558	37.038134	23.941246	-13.749293	-13.912879	-70.180740	13.230420	-16.084040	-0.856016	-0.142456	0.411559	-1.000000	-1.000000	-1.000000	-1.000000	-1.000000	-1.000000	-1.000000	82.275862	0.000000	-1.000000	-1.000000	1099143.000000	1769636009.518149
10219.860000	12580.290000	18618.435000	33366.555000	5722.785000	-8824.410000	-20419.155000	-6235.380000	-14.594333	-68.094263	-122.735217	20.582190	11.838513	18.576575	-5.808583	-7.716468	-70.180740	13.230420	-16.084040	-0.856016	-0.142456	0.411559	-1.000000	-1.000000	-1.000000	-1.000000	-1.000000	-1.000000	-1.000000	82.275862	0.000000	-1.000000	-1.000000	1099144.000000	1769636009.518159
9911.070000	12340.485000	18334.170000	33103.395000	5471.415000	-9031.500000	-20472.165000	-6464.655000	-14.205868	-64.160955	-139.351537	-49.191825	-11.281803	9.928474	6.845250	1.666309	-70.180740	13.230420	-16.084040	-0.856016	-0.142456	0.411559	-1.000000	-1.000000	-1.000000	-1.000000	-1.000000	-1.000000	-1.000000	82.275862	0.000000	-1.000000	-1.000000	1099145.000000	1769636009.521771
9931.725000	12469.860000	18421.020000	33063.300000	5461.380000	-9025.020000	-20507.895000	-6502.545000	-27.167498	-53.828942	-117.858289	-92.518677	-37.834397	-4.719704	22.770316	-2.628951	-70.180740	13.230420	-16.084040	-0.856016	-0.142456	0.411559	-1.000000	-1.000000	-1.000000	-1.000000	-1.000000	-1.000000	-1.000000	82.275862	0.000000	-1.000000	-1.000000	1099146.000000	1769636009.521780
9958.455000	12542.940000	18644.310000	33195.240000	5583.465000	-8974.440000	-20546.685000	-6484.140000	-48.620427	-30.612912	-61.203623	-106.497207	-61.036042	-23.680494	27.694223	-23.188874	-30.382660	-31.984960	5.432560	-0.883115	-0.280151	0.292602	-1.000000	-1.000000	-1.000000	-1.000000	-1.000000	-1.000000	-1.000000	82.275862	0.000000	-1.000000	-1.000000	1099147.000000	1769636009.528422
10104.435000	12632.490000	18706.410000	33288.345000	5659.245000	-8918.865000	-20547.000000	-6383.655000	-50.410811	16.517631	28.737709	-89.751733	-61.976540	-35.102646	14.209787	-38.355003	-30.382660	-31.984960	5.432560	-0.883115	-0.280151	0.292602	-1.000000	-1.000000	-1.000000	-1.000000	-1.000000	-1.000000	-1.000000	82.275862	0.000000	-1.000000	-1.000000	1099148.000000	1769636009.528435
10212.615000	12677.310000	18791.685000	33398.055000	5683.275000	-8896.635000	-20537.595000	-6288.030000	-15.548102	76.723355	127.533991	-47.228055	-34.893715	-30.266029	-8.177873	-26.438542	-30.382660	-31.984960	5.432560	-0.883115	-0.280151	0.292602	-1.000000	-1.000000	-1.000000	-1.000000	-1.000000	-1.000000	-1.000000	82.275862	0.000000	-1.000000	-1.000000	1099149.000000	1769636009.532503
10089.405000	12478.095000	18683.775000	33366.510000	5560.110000	-9000.360000	-20541.420000	-6319.575000	39.753574	116.221581	187.975106	4.970469	3.690772	-13.455586	-24.601843	10.189093	-30.382660	-31.984960	5.432560	-0.883115	-0.280151	0.292602	-1.000000	-1.000000	-1.000000	-1.000000	-1.000000	-1.000000	-1.000000	82.275862	0.000000	-1.000000	-1.000000	1099150.000000	1769636009.532511
9936.045000	12352.500000	18562.635000	33277.500000	5470.695000	-9108.495000	-20647.170000	-6454.620000	74.908223	101.737179	170.367477	43.084376	28.663273	0.632945	-28.556038	44.464359	-30.382660	-31.984960	5.432560	-0.883115	-0.280151	0.292602	-1.000000	-1.000000	-1.000000	-1.000000	-1.000000	-1.000000	-1.000000	82.275862	0.000000	-1.000000	-1.000000	1099151.000000	1769636009.533768
9959.265000	12480.975000	18600.435000	33279.705000	5553.180000	-8980.695000	-20561.895000	-6479.010000	60.338856	33.320615	74.675314	48.455652	27.306938	2.343734	-22.458983	47.190595	-30.382660	-31.984960	5.432560	-0.883115	-0.280151	0.292602	-1.000000	-1.000000	-1.000000	-1.000000	-1.000000	-1.000000	-1.000000	82.275862	0.000000	-1.000000	-1.000000	1099152.000000	1769636009.533775
10019.520000	12620.385000	18655.605000	33209.640000	5567.850000	-8936.640000	-20462.580000	-6429.105000	11.301767	-41.572782	-45.208595	28.305310	14.083550	3.047276	-8.642763	17.452050	-30.382660	-31.984960	5.432560	-0.883115	-0.280151	0.292602	-1.000000	-1.000000	-1.000000	-1.000000	-1.000000	-1.000000	-1.000000	82.275862	0.000000	-1.000000	-1.000000	1099153.000000	1769636009.537696
10063.485000	12650.670000	18504.270000	32999.130000	5547.780000	-8930.295000	-20476.800000	-6395.715000	-25.167818	-67.958073	-119.562040	9.158811	14.863054	20.649648	12.406316	-13.919105	-30.382660	-31.984960	5.432560	-0.883115	-0.280151	0.292602	-1.000000	-1.000000	-1.000000	-1.000000	-1.000000	-1.000000	-1.000000	82.275862	0.000000	-1.000000	-1.000000	1099154.000000	1769636009.537708
10092.825000	12714.930000	18694.800000	33001.065000	5601.105000	-8863.425000	-20495.385000	-6379.830000	-21.823382	-39.289371	-123.151656	2.421744	32.954556	49.982387	33.563317	-19.187259	-30.382660	-31.984960	5.432560	-0.883115	-0.280151	0.292602	-1.000000	-1.000000	-1.000000	-1.000000	-1.000000	-1.000000	-1.000000	82.275862	0.000000	-1.000000	-1.000000	1099155.000000	1769636009.545847
10158.075000	12797.280000	18890.730000	33255.180000	5724.180000	-8774.415000	-20455.785000	-6343.245000	6.310826	6.581821	-76.037026	1.936306	47.174318	66.434537	42.580132	-1.205524	-30.382660	-31.984960	5.432560	-0.883115	-0.280151	0.292602	-1.000000	-1.000000	-1.000000	-1.000000	-1.000000	-1.000000	-1.000000	82.275862	0.000000	-1.000000	-1.000000	1099156.000000	1769636009.545861
10095.975000	12657.240000	18693.135000	33165.090000	5567.040000	-8930.070000	-20457.990000	-6369.750000	25.802749	30.384481	-12.793218	3.412367	36.919632	50.588785	34.063170	16.680724	82.022500	-11.551820	45.932600	-0.744200	-0.424620	0.423400	-1.000000	-1.000000	-1.000000	-1.000000	-1.000000	-1.000000	-1.000000	82.275862	0.000000	-1.000000	-1.000000	1099157.000000	1769636009.545875
10077.750000	12563.010000	18452.160000	33114.600000	5540.940000	-8992.035000	-20598.165000	-6414.345000	15.593865	15.471463	27.401751	1.521951	-1.200555	1.562220	10.201269	14.841125	82.022500	-11.551820	45.932600	-0.744200	-0.424620	0.423400	-1.000000	-1.000000	-1.000000	-1.000000	-1.000000	-1.000000	-1.000000	82.275862	0.000000	-1.000000	-1.000000	1099158.000000	1769636009.545882
10110.735000	12544.605000	18397.890000	33151.275000	5574.015000	-8963.865000	-20545.515000	-6393.375000	-15.046005	-23.582379	23.003477	-7.137840	-46.330436	-56.701277	-21.474769	-5.604433	82.022500	-11.551820	45.932600	-0.744200	-0.424620	0.423400	-1.000000	-1.000000	-1.000000	-1.000000	-1.000000	-1.000000	-1.000000	82.275862	0.000000	-1.000000	-1.000000	1099159.000000	1769636009.550956
9986.445000	12420.630000	18423.180000	33175.485000	5576.985000	-8945.730000	-20513.340000	-6459.300000	-39.004075	-55.188457	-7.624161	-13.610271	-67.751392	-88.251704	-44.104658	-25.693115	82.022500	-11.551820	45.932600	-0.744200	-0.424620	0.423400	-1.000000	-1.000000	-1.000000	-1.000000	-1.000000	-1.000000	-1.000000	82.275862	0.000000	-1.000000	-1.000000	1099160.000000	1769636009.550970
9933.480000	12386.205000	18546.615000	33260.085000	5638.725000	-8909.415000	-20537.730000	-6460.200000	-43.588715	-63.031412	-26.293926	-6.594529	-53.837219	-76.518341	-44.663594	-30.657303	82.022500	-11.551820	45.932600	-0.744200	-0.424620	0.423400	-1.000000	-1.000000	-1.000000	-1.000000	-1.000000	-1.000000	-1.000000	82.275862	0.000000	-1.000000	-1.000000	1099161.000000	1769636009.553718
10054.620000	12450.330000	18492.570000	33199.560000	5554.710000	-8979.480000	-20582.010000	-6392.430000	-32.073631	-48.667575	-10.237383	16.207489	-16.504223	-33.833950	-29.316457	-19.549575	82.022500	-11.551820	45.932600	-0.744200	-0.424620	0.423400	-1.000000	-1.000000	-1.000000	-1.000000	-1.000000	-1.000000	-1.000000	82.275862	0.000000	-1.000000	-1.000000	1099162.000000	1769636009.553729
10163.430000	12399.570000	18354.960000	33411.600000	5637.780000	-8924.580000	-20537.280000	-6312.960000	-6.586056	-17.616383	28.770430	47.293343	22.964535	14.423321	-10.329869	2.637519	82.022500	-11.551820	45.932600	-0.744200	-0.424620	0.423400	-1.000000	-1.000000	-1.000000	-1.000000	-1.000000	-1.000000	-1.000000	82.275862	0.000000	-1.000000	-1.000000	1099163.000000	1769636009.557882
10041.345000	12242.880000	17991.180000	33416.145000	5590.845000	-8967.240000	-20481.255000	-6370.380000	24.773948	16.114966	48.201463	68.667248	44.350485	45.139147	8.806252	25.901748	82.022500	-11.551820	45.932600	-0.744200	-0.424620	0.423400	-1.000000	-1.000000	-1.000000	-1.000000	-1.000000	-1.000000	-1.000000	82.275862	0.000000	-1.000000	-1.000000	1099164.000000	1769636009.557892
9943.785000	12310.335000	18064.620000	33295.860000	5588.910000	-8959.275000	-20562.030000	-6448.095000	40.155318	35.186366	17.078547	54.525852	37.016943	47.344269	25.792884	34.184776	82.022500	-11.551820	45.932600	-0.744200	-0.424620	0.423400	-1.000000	-1.000000	-1.000000	-1.000000	-1.000000	-1.000000	-1.000000	82.275862	0.000000	-1.000000	-1.000000	1099165.000000	1769636009.561809
10027.395000	12635.685000	18560.025000	33131.160000	5630.085000	-8860.275000	-20527.695000	-6418.080000	26.946279	44.371879	-30.448372	-5.866051	10.118276	30.450077	33.584298	19.206055	82.022500	-11.551820	45.932600	-0.744200	-0.424620	0.423400	-1.000000	-1.000000	-1.000000	-1.000000	-1.000000	-1.000000	-1.000000	82.275862	0.000000	-1.000000	-1.000000	1099166.000000	1769636009.561820
10151.055000	12932.685000	19094.310000	33111.270000	5688.945000	-8761.590000	-20458.980000	-6360.300000	2.159857	68.159761	-17.425235	-85.397740	-11.790066	17.444651	31.138005	-6.477596	35.464240	7.919940	-5.234180	-0.780271	-0.335693	0.470092	-1.000000	-1.000000	-1.000000	-1.000000	-1.000000	-1.000000	-1.000000	82.275862	0.000000	-1.000000	-1.000000	1099167.000000	1769636009.570172
10266.525000	13073.040000	19356.840000	33182.685000	5683.905000	-8785.080000	-20484.315000	-6288.390000	-5.789945	110.874937	80.152762	-134.602379	-13.372714	19.085729	24.202900	-20.167460	35.464240	7.919940	-5.234180	-0.780271	-0.335693	0.470092	-1.000000	-1.000000	-1.000000	-1.000000	-1.000000	-1.000000	-1.000000	82.275862	0.000000	-1.000000	-1.000000	1099168.000000	1769636009.570185
10157.940000	12828.915000	18997.515000	33150.870000	5580.630000	-8922.150000	-20513.565000	-6329.880000	10.483828	135.068047	184.331441	-121.434483	-3.126077	20.699299	12.762199	-11.913530	35.464240	7.919940	-5.234180	-0.780271	-0.335693	0.470092	-1.000000	-1.000000	-1.000000	-1.000000	-1.000000	-1.000000	-1.000000	82.275862	0.000000	-1.000000	-1.000000	1099169.000000	1769636009.570198
10002.150000	12597.705000	18731.700000	33029.865000	5447.475000	-8976.510000	-20442.015000	-6410.430000	28.209868	91.053566	180.987027	-55.125635	-0.542067	2.777096	-4.718678	5.827834	35.464240	7.919940	-5.234180	-0.780271	-0.335693	0.470092	-1.000000	-1.000000	-1.000000	-1.000000	-1.000000	-1.000000	-1.000000	82.275862	0.000000	-1.000000	-1.000000	1099170.000000	1769636009.570204
10012.860000	12605.580000	18735.345000	33082.245000	5487.210000	-8964.405000	-20497.320000	-6423.165000	18.389513	-27.059326	38.957172	26.611548	-12.018870	-30.962497	-21.215405	11.548530	35.464240	7.919940	-5.234180	-0.780271	-0.335693	0.470092	-1.000000	-1.000000	-1.000000	-1.000000	-1.000000	-1.000000	-1.000000	82.275862	0.000000	-1.000000	-1.000000	1099171.000000	1769636009.573749
10032.345000	12638.880000	18778.680000	33185.070000	5579.145000	-8951.220000	-20588.040000	-6441.300000	-19.953108	-158.482453	-151.611024	87.229262	-23.955460	-57.014976	-30.828737	-2.425378	35.464240	7.919940	-5.234180	-0.780271	-0.335693	0.470092	-1.000000	-1.000000	-1.000000	-1.000000	-1.000000	-1.000000	-1.000000	82.275862	0.000000	-1.000000	-1.000000	1099172.000000	1769636009.573765
10056.960000	12648.510000	18780.255000	33219.675000	5604.930000	-8927.325000	-20554.065000	-6419.205000	-55.921562	-222.041480	-265.189553	108.124462	-20.169636	-57.051626	-34.720321	-22.575083	35.464240	7.919940	-5.234180	-0.780271	-0.335693	0.470092	-1.000000	-1.000000	-1.000000	-1.000000	-1.000000	-1.000000	-1.000000	82.275862	0.000000	-1.000000	-1.000000	1099173.000000	1769636009.577741
10058.130000	12617.730000	18722.250000	33170.265000	5547.330000	-8919.315000	-20484.810000	-6401.925000	-58.922331	-185.577039	-247.307223	91.747946	-0.136808	-30.638423	-29.641587	-28.729681	35.464240	7.919940	-5.234180	-0.780271	-0.335693	0.470092	-1.000000	-1.000000	-1.000000	-1.000000	-1.000000	-1.000000	-1.000000	82.275862	0.000000	-1.000000	-1.000000	1099174.000000	1769636009.577750
10049.715000	12585.870000	18685.035000	33170.220000	5568.345000	-8900.640000	-20523.780000	-6398.640000	-28.550394	-85.629507	-140.987234	54.841149	21.489541	6.952144	-10.832745	-14.265429	35.464240	7.919940	-5.234180	-0.780271	-0.335693	0.470092	-1.000000	-1.000000	-1.000000	-1.000000	-1.000000	-1.000000	-1.000000	82.275862	0.000000	-1.000000	-1.000000	1099175.000000	1769636009.582453
10039.995000	12590.955000	18694.935000	33203.655000	5604.660000	-8880.345000	-20519.730000	-6412.185000	9.285543	13.801055	-28.751365	14.751568	30.733902	35.653747	13.625213	8.794244	35.464240	7.919940	-5.234180	-0.780271	-0.335693	0.470092	-1.000000	-1.000000	-1.000000	-1.000000	-1.000000	-1.000000	-1.000000	82.275862	0.000000	-1.000000	-1.000000	1099176.000000	1769636009.582462
10020.555000	12552.705000	18648.000000	33157.890000	5540.760000	-8936.415000	-20479.680000	-6410.205000	30.449651	73.902305	41.302794	-19.660351	25.115034	44.466697	29.948021	23.790308	-46.466700	-3.402980	21.592900	-0.865293	-0.189086	0.420897	-1.000000	-1.000000	-1.000000	-1.000000	-1.000000	-1.000000	-1.000000	82.275862	0.000000	-1.000000	-1.000000	1099177.000000	1769636009.592234
10029.105000	12560.220000	18659.295000	33188.040000	5587.605000	-8878.230000	-20478.105000	-6402.960000	32.851450	97.680775	77.997370	-44.003639	12.120948	36.937762	32.894200	25.183107	-46.466700	-3.402980	21.592900	-0.865293	-0.189086	0.420897	-1.000000	-1.000000	-1.000000	-1.000000	-1.000000	-1.000000	-1.000000	82.275862	0.000000	-1.000000	-1.000000	1099178.000000	1769636009.592248
10062.405000	12600.135000	18687.690000	33208.920000	5601.645000	-8862.345000	-20497.860000	-6391.395000	29.650338	105.990523	110.818762	-50.997719	3.423985	24.822914	24.020328	18.965693	-46.466700	-3.402980	21.592900	-0.865293	-0.189086	0.420897	-1.000000	-1.000000	-1.000000	-1.000000	-1.000000	-1.000000	-1.000000	82.275862	0.000000	-1.000000	-1.000000	1099179.000000	1769636009.592261
10044.045000	12592.170000	18680.715000	33199.245000	5581.260000	-8916.660000	-20551.365000	-6412.770000	27.360164	105.589011	143.229705	-39.536519	2.337780	13.971616	7.659935	11.173663	-46.466700	-3.402980	21.592900	-0.865293	-0.189086	0.420897	-1.000000	-1.000000	-1.000000	-1.000000	-1.000000	-1.000000	-1.000000	82.275862	0.000000	-1.000000	-1.000000	1099180.000000	1769636009.592267
10008.990000	12566.880000	18664.920000	33192.855000	5573.385000	-8938.170000	-20538.135000	-6434.640000	20.047068	86.234326	150.236728	-23.455383	-1.202020	-0.034671	-8.733070	2.357292	-46.466700	-3.402980	21.592900	-0.865293	-0.189086	0.420897	-1.000000	-1.000000	-1.000000	-1.000000	-1.000000	-1.000000	-1.000000	82.275862	0.000000	-1.000000	-1.000000	1099181.000000	1769636009.594562
10064.880000	12641.535000	18753.660000	33298.110000	5674.275000	-8866.530000	-20520.405000	-6404.715000	4.230109	43.288245	113.840045	-13.755673	-12.343255	-18.106580	-18.060343	-7.229163	-46.466700	-3.402980	21.592900	-0.865293	-0.189086	0.420897	-1.000000	-1.000000	-1.000000	-1.000000	-1.000000	-1.000000	-1.000000	82.275862	0.000000	-1.000000	-1.000000	1099182.000000	1769636009.594577
10042.065000	12611.295000	18709.515000	33230.565000	5553.720000	-8949.915000	-20595.645000	-6433.965000	-13.428777	-10.938385	42.602134	-5.167500	-22.370525	-32.177336	-19.255723	-14.650946	-46.466700	-3.402980	21.592900	-0.865293	-0.189086	0.420897	-1.000000	-1.000000	-1.000000	-1.000000	-1.000000	-1.000000	-1.000000	82.275862	0.000000	-1.000000	-1.000000	1099183.000000	1769636009.600280
10013.760000	12550.815000	18628.425000	33119.145000	5377.770000	-8992.440000	-20561.445000	-6424.515000	-25.523708	-59.196468	-41.245177	5.833164	-27.610198	-37.425345	-16.029659	-17.627330	-46.466700	-3.402980	21.592900	-0.865293	-0.189086	0.420897	-1.000000	-1.000000	-1.000000	-1.000000	-1.000000	-1.000000	-1.000000	82.275862	0.000000	-1.000000	-1.000000	1099184.000000	1769636009.600293
9973.890000	12499.020000	18586.530000	33101.550000	5365.485000	-8977.050000	-20499.480000	-6430.365000	-30.498458	-89.819479	-113.852320	10.581400	-33.491741	-34.274916	-9.290685	-15.741869	-46.466700	-3.402980	21.592900	-0.865293	-0.189086	0.420897	-1.000000	-1.000000	-1.000000	-1.000000	-1.000000	-1.000000	-1.000000	82.275862	0.000000	-1.000000	-1.000000	1099185.000000	1769636009.606491
9996.795000	12548.790000	18651.285000	33206.985000	5578.380000	-8920.305000	-20511.630000	-6435.765000	-27.678975	-92.946137	-147.597214	6.779633	-32.662438	-20.016813	1.776262	-9.469515	-46.466700	-3.402980	21.592900	-0.865293	-0.189086	0.420897	-1.000000	-1.000000	-1.000000	-1.000000	-1.000000	-1.000000	-1.000000	82.275862	0.000000	-1.000000	-1.000000	1099186.000000	1769636009.606503
10048.410000	12593.745000	18679.545000	33230.205000	5714.100000	-8886.600000	-20529.405000	-6398.055000	-14.425339	-61.943071	-121.544190	5.841870	-6.799417	6.179286	12.550448	-0.127705	-110.360320	2.060100	15.321040	-0.833677	-0.124756	0.394530	-1.000000	-1.000000	-1.000000	-1.000000	-1.000000	-1.000000	-1.000000	82.275862	0.000000	-1.000000	-1.000000	1099187.000000	1769636009.606516
10004.760000	12534.615000	18627.885000	33185.610000	5647.860000	-8915.670000	-20525.130000	-6407.055000	6.362900	-7.825867	-46.490970	13.356975	40.884166	33.989474	16.957704	9.837463	-110.360320	2.060100	15.321040	-0.833677	-0.124756	0.394530	-1.000000	-1.000000	-1.000000	-1.000000	-1.000000	-1.000000	-1.000000	82.275862	0.000000	-1.000000	-1.000000	1099188.000000	1769636009.606522
10034.505000	12568.905000	18658.620000	33201.360000	5610.420000	-8924.175000	-20514.690000	-6392.115000	23.684605	41.473023	36.248552	19.769148	77.048194	48.044435	15.269466	16.826448	-110.360320	2.060100	15.321040	-0.833677	-0.124756	0.394530	-1.000000	-1.000000	-1.000000	-1.000000	-1.000000	-1.000000	-1.000000	82.275862	0.000000	-1.000000	-1.000000	1099189.000000	1769636009.609850
10069.110000	12610.035000	18679.185000	33200.550000	5585.085000	-8916.930000	-20500.380000	-6386.040000	29.554739	64.283463	87.339493	15.089020	71.106781	40.823600	10.871226	18.043464	-110.360320	2.060100	15.321040	-0.833677	-0.124756	0.394530	-1.000000	-1.000000	-1.000000	-1.000000	-1.000000	-1.000000	-1.000000	82.275862	0.000000	-1.000000	-1.000000	1099190.000000	1769636009.609861
10108.485000	12670.335000	18748.665000	33274.935000	5658.120000	-8841.375000	-20445.705000	-6364.665000	24.618697	57.994777	92.049444	1.555438	25.632862	17.814627	5.635830	13.124758	-110.360320	2.060100	15.321040	-0.833677	-0.124756	0.394530	-1.000000	-1.000000	-1.000000	-1.000000	-1.000000	-1.000000	-1.000000	82.275862	0.000000	-1.000000	-1.000000	1099191.000000	1769636009.613917
10081.575000	12651.750000	18746.010000	33286.275000	5662.845000	-8828.370000	-20443.275000	-6380.145000	13.005580	32.948539	60.118863	-8.477001	-26.528865	-6.071329	1.694442	3.992122	-110.360320	2.060100	15.321040	-0.833677	-0.124756	0.394530	-1.000000	-1.000000	-1.000000	-1.000000	-1.000000	-1.000000	-1.000000	82.275862	0.000000	-1.000000	-1.000000	1099192.000000	1769636009.613928
10060.740000	12616.785000	18706.410000	33241.545000	5606.955000	-8880.120000	-20490.750000	-6382.080000	-1.173086	3.009413	13.895727	-6.027930	-52.165943	-18.972142	-1.482213	-6.189694	-110.360320	2.060100	15.321040	-0.833677	-0.124756	0.394530	-1.000000	-1.000000	-1.000000	-1.000000	-1.000000	-1.000000	-1.000000	82.275862	0.000000	-1.000000	-1.000000	1099193.000000	1769636009.619480
10054.395000	12587.895000	18659.205000	33175.845000	5542.335000	-8925.165000	-20519.190000	-6378.795000	-13.731361	-21.022278	-26.456997	2.286106	-46.665220	-22.260348	-9.184225	-14.027701	-110.360320	2.060100	15.321040	-0.833677	-0.124756	0.394530	-1.000000	-1.000000	-1.000000	-1.000000	-1.000000	-1.000000	-1.000000	82.275862	0.000000	-1.000000	-1.000000	1099194.000000	1769636009.619493
9932.895000	12464.820000	18544.320000	33070.320000	5446.980000	-9016.650000	-20602.215000	-6464.520000	-22.511008	-35.363023	-51.117744	0.501128	-32.608879	-24.999506	-22.797679	-17.775004	-110.360320	2.060100	15.321040	-0.833677	-0.124756	0.394530	-1.000000	-1.000000	-1.000000	-1.000000	-1.000000	-1.000000	-1.000000	82.275862	0.000000	-1.000000	-1.000000	1099195.000000	1769636009.626275
9913.770000	12466.935000	18545.715000	33060.960000	5425.335000	-9064.035000	-20656.215000	-6504.345000	-29.062355	-41.757540	-58.580508	-16.967991	-30.327753	-31.725744	-35.351884	-19.401239	-110.360320	2.060100	15.321040	-0.833677	-0.124756	0.394530	-1.000000	-1.000000	-1.000000	-1.000000	-1.000000	-1.000000	-1.000000	82.275862	0.000000	-1.000000	-1.000000	1099196.000000	1769636009.626288
9967.995000	12544.740000	18617.940000	33122.340000	5481.045000	-8965.395000	-20578.095000	-6468.615000	-31.064910	-37.948583	-47.294966	-35.396457	-33.707095	-34.691803	-36.106705	-19.471047	-28.765100	2.746800	-9.323860	-0.822996	-0.239196	0.396178	-1.000000	-1.000000	-1.000000	-1.000000	-1.000000	-1.000000	-1.000000	82.275862	0.000000	-1.000000	-1.000000	1099197.000000	1769636009.626499
10037.610000	12617.550000	18674.820000	33151.230000	5468.985000	-8883.450000	-20506.635000	-6400.530000	-20.136026	-17.862233	-16.610099	-34.349406	-21.911098	-19.673030	-17.220504	-12.452254	-28.765100	2.746800	-9.323860	-0.822996	-0.239196	0.396178	-1.000000	-1.000000	-1.000000	-1.000000	-1.000000	-1.000000	-1.000000	82.275862	0.000000	-1.000000	-1.000000	1099198.000000	1769636009.626511
10090.710000	12680.955000	18750.645000	33238.215000	5511.105000	-8900.280000	-20584.755000	-6388.470000	5.034246	14.251373	23.094429	-9.297107	10.275991	13.673365	15.386162	4.893477	-28.765100	2.746800	-9.323860	-0.822996	-0.239196	0.396178	-1.000000	-1.000000	-1.000000	-1.000000	-1.000000	-1.000000	-1.000000	82.275862	0.000000	-1.000000	-1.000000	1099199.000000	1769636009.629739
10118.340000	12676.635000	18762.210000	33309.630000	5646.780000	-8862.480000	-20500.605000	-6347.970000	32.804939	41.671888	52.426524	26.546018	48.254242	45.459039	42.328326	25.627080	-28.765100	2.746800	-9.323860	-0.822996	-0.239196	0.396178	-1.000000	-1.000000	-1.000000	-1.000000	-1.000000	-1.000000	-1.000000	82.275862	0.000000	-1.000000	-1.000000	1099200.000000	1769636009.629746
10069.290000	12622.725000	18704.880000	33303.420000	5735.070000	-8881.515000	-20521.440000	-6377.490000	47.953542	48.844185	56.499201	54.743949	76.582924	55.897765	49.649285	38.007673	-28.765100	2.746800	-9.323860	-0.822996	-0.239196	0.396178	-1.000000	-1.000000	-1.000000	-1.000000	-1.000000	-1.000000	-1.000000	82.275862	0.000000	-1.000000	-1.000000	1099201.000000	1769636009.634214
9893.070000	12429.720000	18507.690000	33100.965000	5543.505000	-8990.820000	-20540.340000	-6480.315000	39.820416	30.602130	32.380890	59.109534	83.585555	40.657924	37.471928	32.933104	-28.765100	2.746800	-9.323860	-0.822996	-0.239196	0.396178	-1.000000	-1.000000	-1.000000	-1.000000	-1.000000	-1.000000	-1.000000	82.275862	0.000000	-1.000000	-1.000000	1099202.000000	1769636009.634221
9895.680000	12530.385000	18578.430000	33078.285000	5486.400000	-9028.755000	-20687.805000	-6549.165000	8.841556	-4.048928	-8.305254	32.373128	57.548278	8.093978	12.108912	8.977190	-28.765100	2.746800	-9.323860	-0.822996	-0.239196	0.396178	-1.000000	-1.000000	-1.000000	-1.000000	-1.000000	-1.000000	-1.000000	82.275862	0.000000	-1.000000	-1.000000	1099203.000000	1769636009.641250
10108.035000	12858.345000	18855.945000	33274.035000	5623.200000	-8944.785000	-20735.955000	-6447.600000	-24.020099	-27.505460	-36.565080	-9.643106	3.671498	-23.962958	-17.727979	-20.632705	-28.765100	2.746800	-9.323860	-0.822996	-0.239196	0.396178	-1.000000	-1.000000	-1.000000	-1.000000	-1.000000	-1.000000	-1.000000	82.275862	0.000000	-1.000000	-1.000000	1099204.000000	1769636009.641263
10174.905000	12945.915000	18898.560000	33317.730000	5669.325000	-8851.410000	-20527.695000	-6359.490000	-30.018600	-13.528236	-26.275561	-35.132765	-47.490360	-35.322321	-37.122721	-33.107633	-28.765100	2.746800	-9.323860	-0.822996	-0.239196	0.396178	-1.000000	-1.000000	-1.000000	-1.000000	-1.000000	-1.000000	-1.000000	82.275862	0.000000	-1.000000	-1.000000	1099205.000000	1769636009.641995
10104.345000	12728.880000	18758.160000	33294.015000	5680.935000	-8814.015000	-20396.925000	-6339.690000	-7.297895	23.545244	10.268468	-31.229963	-68.351813	-21.221382	-30.412912	-18.887289	-28.765100	2.746800	-9.323860	-0.822996	-0.239196	0.396178	-1.000000	-1.000000	-1.000000	-1.000000	-1.000000	-1.000000	-1.000000	82.275862	0.000000	-1.000000	-1.000000	1099206.000000	1769636009.642005
9997.020000	12378.735000	18585.945000	33263.640000	5703.705000	-8871.705000	-20521.395000	-6395.355000	13.992601	32.630598	28.952408	-14.842360	-57.066665	1.328781	-1.513197	6.425705	65.907940	-8.743980	-7.797860	-0.858030	-0.316772	0.392760	-1.000000	-1.000000	-1.000000	-1.000000	-1.000000	-1.000000	-1.000000	82.275862	0.000000	-1.000000	-1.000000	1099207.000000	1769636009.648328
10072.260000	12541.050000	18706.185000	33293.790000	5731.920000	-8821.575000	-20526.255000	-6371.775000	8.602882	-13.278711	4.862081	-7.281491	-30.043340	11.788683	23.642387	19.468323	65.907940	-8.743980	-7.797860	-0.858030	-0.316772	0.392760	-1.000000	-1.000000	-1.000000	-1.000000	-1.000000	-1.000000	-1.000000	82.275862	0.000000	-1.000000	-1.000000	1099208.000000	1769636009.648339
10107.405000	12614.580000	18725.085000	33245.550000	5636.835000	-8817.525000	-20402.865000	-6316.515000	-15.479464	-76.179056	-38.992219	-13.658917	-8.013345	5.775037	26.019047	13.242932	65.907940	-8.743980	-7.797860	-0.858030	-0.316772	0.392760	-1.000000	-1.000000	-1.000000	-1.000000	-1.000000	-1.000000	-1.000000	82.275862	0.000000	-1.000000	-1.000000	1099209.000000	1769636009.651267
10072.485000	12624.795000	18722.385000	33244.785000	5598.945000	-8832.645000	-20426.805000	-6358.500000	-31.057319	-93.794211	-59.659882	-22.866440	-2.904295	-6.176930	10.995271	-1.068674	65.907940	-8.743980	-7.797860	-0.858030	-0.316772	0.392760	-1.000000	-1.000000	-1.000000	-1.000000	-1.000000	-1.000000	-1.000000	82.275862	0.000000	-1.000000	-1.000000	1099210.000000	1769636009.651278
10082.115000	12641.715000	18731.880000	33261.345000	5600.655000	-8864.460000	-20477.565000	-6363.180000	-21.761378	-45.184979	-36.910063	-18.252456	-6.600159	-11.856777	-6.309294	-9.873740	65.907940	-8.743980	-7.797860	-0.858030	-0.316772	0.392760	-1.000000	-1.000000	-1.000000	-1.000000	-1.000000	-1.000000	-1.000000	82.275862	0.000000	-1.000000	-1.000000	1099211.000000	1769636009.655141
10001.610000	12507.570000	18603.270000	33146.235000	5518.485000	-8944.380000	-20521.935000	-6404.130000	4.236599	32.904017	10.408449	3.145574	-3.522059	-8.475118	-16.134601	-8.808297	65.907940	-8.743980	-7.797860	-0.858030	-0.316772	0.392760	-1.000000	-1.000000	-1.000000	-1.000000	-1.000000	-1.000000	-1.000000	82.275862	0.000000	-1.000000	-1.000000	1099212.000000	1769636009.655151
10006.020000	12517.470000	18635.760000	33192.405000	5627.655000	-8860.275000	-20479.995000	-6413.265000	21.875216	79.516054	41.285658	22.429395	7.602919	-3.114911	-16.159196	-4.473449	65.907940	-8.743980	-7.797860	-0.858030	-0.316772	0.392760	-1.000000	-1.000000	-1.000000	-1.000000	-1.000000	-1.000000	-1.000000	82.275862	0.000000	-1.000000	-1.000000	1099213.000000	1769636009.657929
10033.785000	12619.845000	18733.455000	33272.190000	5689.395000	-8810.415000	-20469.465000	-6411.870000	15.884131	67.416586	36.121784	23.838724	19.686892	-1.243101	-12.815617	-6.001055	65.907940	-8.743980	-7.797860	-0.858030	-0.316772	0.392760	-1.000000	-1.000000	-1.000000	-1.000000	-1.000000	-1.000000	-1.000000	82.275862	0.000000	-1.000000	-1.000000	1099214.000000	1769636009.657938
10068.480000	12685.680000	18733.320000	33215.985000	5554.530000	-8873.325000	-20504.160000	-6395.445000	-1.936770	27.964785	15.424860	13.328425	27.400940	-2.021174	-14.936105	-12.916462	65.907940	-8.743980	-7.797860	-0.858030	-0.316772	0.392760	-1.000000	-1.000000	-1.000000	-1.000000	-1.000000	-1.000000	-1.000000	82.275862	0.000000	-1.000000	-1.000000	1099215.000000	1769636009.661691
10130.580000	12750.525000	18794.295000	33259.005000	5517.630000	-8854.470000	-20477.205000	-6367.095000	-9.442672	7.996882	6.630135	3.053928	23.218256	-3.303048	-19.468786	-15.361205	65.907940	-8.743980	-7.797860	-0.858030	-0.316772	0.392760	-1.000000	-1.000000	-1.000000	-1.000000	-1.000000	-1.000000	-1.000000	82.275862	0.000000	-1.000000	-1.000000	1099216.000000	1769636009.661698
10097.595000	12675.645000	18789.210000	33305.940000	5609.925000	-8791.380000	-20416.275000	-6385.590000	-0.596214	14.796103	12.059503	-1.379966	6.197978	-2.400589	-14.693298	-7.298470	57.072400	-9.690100	-13.413540	-0.854185	-0.259155	0.411010	-1.000000	-1.000000	-1.000000	-1.000000	-1.000000	-1.000000	-1.000000	82.275862	0.000000	-1.000000	-1.000000	1099217.000000	1769636009.665806
9959.895000	12521.070000	18622.080000	33125.445000	5523.030000	-9024.705000	-20661.795000	-6491.655000	10.388016	17.200236	14.030204	-0.918365	-10.223673	0.302997	-1.763953	4.731986	57.072400	-9.690100	-13.413540	-0.854185	-0.259155	0.411010	-1.000000	-1.000000	-1.000000	-1.000000	-1.000000	-1.000000	-1.000000	82.275862	0.000000	-1.000000	-1.000000	1099218.000000	1769636009.665817
9891.270000	12463.650000	18519.120000	33020.505000	5463.990000	-9082.620000	-20724.390000	-6534.765000	8.298789	-7.706678	-1.524112	-3.033781	-14.229767	-1.691460	3.970495	10.169528	57.072400	-9.690100	-13.413540	-0.854185	-0.259155	0.411010	-1.000000	-1.000000	-1.000000	-1.000000	-1.000000	-1.000000	-1.000000	82.275862	0.000000	-1.000000	-1.000000	1099219.000000	1769636009.670407
9990.000000	12548.970000	18620.955000	33164.145000	5598.720000	-8947.350000	-20550.915000	-6448.905000	-4.184749	-46.071759	-27.333358	-9.611769	-5.090537	-6.724873	1.470161	9.170150	57.072400	-9.690100	-13.413540	-0.854185	-0.259155	0.411010	-1.000000	-1.000000	-1.000000	-1.000000	-1.000000	-1.000000	-1.000000	82.275862	0.000000	-1.000000	-1.000000	1099220.000000	1769636009.670419
10042.875000	12517.470000	18650.430000	33270.930000	5691.645000	-8862.660000	-20509.380000	-6407.280000	-10.532847	-66.095858	-40.223989	-8.060505	13.718389	-0.278556	9.435237	11.270917	57.072400	-9.690100	-13.413540	-0.854185	-0.259155	0.411010	-1.000000	-1.000000	-1.000000	-1.000000	-1.000000	-1.000000	-1.000000	82.275862	0.000000	-1.000000	-1.000000	1099221.000000	1769636009.674050
10057.770000	12533.085000	18690.030000	33305.175000	5691.510000	-8858.430000	-20563.965000	-6418.395000	-2.050257	-53.675150	-27.715294	8.860365	31.826497	20.479931	31.467019	19.326858	57.072400	-9.690100	-13.413540	-0.854185	-0.259155	0.411010	-1.000000	-1.000000	-1.000000	-1.000000	-1.000000	-1.000000	-1.000000	82.275862	0.000000	-1.000000	-1.000000	1099222.000000	1769636009.674062
10129.365000	12657.780000	18800.595000	33357.510000	5734.620000	-8834.985000	-20571.165000	-6378.480000	13.574314	-18.752888	1.205439	28.586424	33.982406	37.703002	45.281835	24.752826	57.072400	-9.690100	-13.413540	-0.854185	-0.259155	0.411010	-1.000000	-1.000000	-1.000000	-1.000000	-1.000000	-1.000000	-1.000000	82.275862	0.000000	-1.000000	-1.000000	1099223.000000	1769636009.677950
10148.670000	12683.430000	18807.660000	33357.285000	5769.900000	-8735.400000	-20413.395000	-6325.245000	24.205033	22.768627	30.524610	34.906925	18.311494	37.623630	36.933748	20.445726	57.072400	-9.690100	-13.413540	-0.854185	-0.259155	0.411010	-1.000000	-1.000000	-1.000000	-1.000000	-1.000000	-1.000000	-1.000000	82.275862	0.000000	-1.000000	-1.000000	1099224.000000	1769636009.677960
10009.125000	12520.665000	18634.230000	33190.110000	5587.785000	-8858.475000	-20398.320000	-6395.670000	20.330205	52.474170	43.129832	19.821205	-5.924619	21.367658	16.757873	7.022197	57.072400	-9.690100	-13.413540	-0.854185	-0.259155	0.411010	-1.000000	-1.000000	-1.000000	-1.000000	-1.000000	-1.000000	-1.000000	82.275862	0.000000	-1.000000	-1.000000	1099225.000000	1769636009.682680
10018.575000	12573.135000	18694.395000	33250.005000	5610.285000	-8871.570000	-20557.305000	-6442.155000	-0.607753	53.781507	27.736731	-13.726877	-33.382290	-5.829868	-4.113356	-11.914308	57.072400	-9.690100	-13.413540	-0.854185	-0.259155	0.411010	-1.000000	-1.000000	-1.000000	-1.000000	-1.000000	-1.000000	-1.000000	82.275862	0.000000	-1.000000	-1.000000	1099226.000000	1769636009.682690
10102.860000	12688.290000	18819.045000	33381.630000	5758.470000	-8745.165000	-20555.865000	-6404.445000	-23.327422	33.594896	-0.445696	-41.970947	-52.036111	-29.892832	-22.844005	-28.075868	8.026760	0.991900	-9.278080	-0.834532	-0.198303	0.432738	-1.000000	-1.000000	-1.000000	-1.000000	-1.000000	-1.000000	-1.000000	82.275862	0.000000	-1.000000	-1.000000	1099227.000000	1769636009.687420
10022.760000	12590.055000	18703.710000	33251.265000	5634.360000	-8849.880000	-20457.540000	-6445.845000	-27.198065	13.791509	-13.806265	-39.220222	-44.720131	-32.860224	-32.371394	-30.898157	8.026760	0.991900	-9.278080	-0.834532	-0.198303	0.432738	-1.000000	-1.000000	-1.000000	-1.000000	-1.000000	-1.000000	-1.000000	82.275862	0.000000	-1.000000	-1.000000	1099228.000000	1769636009.687434
9949.950000	12518.955000	18619.560000	33143.355000	5542.380000	-8936.865000	-20486.880000	-6509.160000	-14.962851	-1.076178	-11.537192	-15.444689	-19.029367	-20.703990	-27.895215	-21.743833	8.026760	0.991900	-9.278080	-0.834532	-0.198303	0.432738	-1.000000	-1.000000	-1.000000	-1.000000	-1.000000	-1.000000	-1.000000	82.275862	0.000000	-1.000000	-1.000000	1099229.000000	1769636009.689844
10023.840000	12578.445000	18676.395000	33200.865000	5592.600000	-8930.430000	-20528.190000	-6430.095000	-5.195820	-18.289880	-12.354147	-1.740488	-0.729897	-15.882404	-17.692456	-11.297913	8.026760	0.991900	-9.278080	-0.834532	-0.198303	0.432738	-1.000000	-1.000000	-1.000000	-1.000000	-1.000000	-1.000000	-1.000000	82.275862	0.000000	-1.000000	-1.000000	1099230.000000	1769636009.689854
10116.045000	12690.855000	18806.535000	33342.075000	5720.805000	-8800.740000	-20503.530000	-6359.940000	-2.903905	-33.261397	-19.828701	-5.405865	3.468582	-21.937570	-11.245399	-2.099278	8.026760	0.991900	-9.278080	-0.834532	-0.198303	0.432738	-1.000000	-1.000000	-1.000000	-1.000000	-1.000000	-1.000000	-1.000000	82.275862	0.000000	-1.000000	-1.000000	1099231.000000	1769636009.693707
10014.030000	12542.670000	18638.955000	33174.945000	5566.095000	-8898.660000	-20512.890000	-6411.555000	-1.485576	-37.315046	-24.299066	-10.625036	5.633882	-23.456893	-8.463434	8.422267	8.026760	0.991900	-9.278080	-0.834532	-0.198303	0.432738	-1.000000	-1.000000	-1.000000	-1.000000	-1.000000	-1.000000	-1.000000	82.275862	0.000000	-1.000000	-1.000000	1099232.000000	1769636009.693718
10000.845000	12539.250000	18634.995000	33171.975000	5564.115000	-8954.235000	-20592.945000	-6444.045000	0.036134	-32.273538	-22.563784	-8.178217	10.992250	-13.866123	-7.974426	15.422496	8.026760	0.991900	-9.278080	-0.834532	-0.198303	0.432738	-1.000000	-1.000000	-1.000000	-1.000000	-1.000000	-1.000000	-1.000000	82.275862	0.000000	-1.000000	-1.000000	1099233.000000	1769636009.697865
10040.130000	12588.795000	18686.565000	33218.325000	5606.235000	-8929.215000	-20517.165000	-6408.765000	1.928313	-20.136484	-13.489451	2.259449	18.206144	1.386011	-9.231768	14.466774	8.026760	0.991900	-9.278080	-0.834532	-0.198303	0.432738	-1.000000	-1.000000	-1.000000	-1.000000	-1.000000	-1.000000	-1.000000	82.275862	0.000000	-1.000000	-1.000000	1099234.000000	1769636009.697875
10038.420000	12591.045000	18681.300000	33202.845000	5578.245000	-8970.075000	-20593.485000	-6427.260000	8.584793	1.036905	5.381359	19.024729	26.381148	18.233671	-3.909012	10.565243	8.026760	0.991900	-9.278080	-0.834532	-0.198303	0.432738	-1.000000	-1.000000	-1.000000	-1.000000	-1.000000	-1.000000	-1.000000	82.275862	0.000000	-1.000000	-1.000000	1099235.000000	1769636009.701756
10030.185000	12585.780000	18676.170000	33195.150000	5568.210000	-8951.310000	-20531.655000	-6412.905000	18.155495	24.349756	26.843843	33.397715	29.121027	32.187466	13.779106	9.089988	8.026760	0.991900	-9.278080	-0.834532	-0.198303	0.432738	-1.000000	-1.000000	-1.000000	-1.000000	-1.000000	-1.000000	-1.000000	82.275862	0.000000	-1.000000	-1.000000	1099236.000000	1769636009.701766
10047.735000	12600.810000	18698.625000	33228.540000	5615.955000	-8871.930000	-20444.220000	-6391.980000	23.368606	38.163017	39.615413	36.994335	22.112299	39.006592	34.514200	9.552790	3.189340	4.074420	-6.744920	-0.818662	-0.219238	0.435302	-1.000000	-1.000000	-1.000000	-1.000000	-1.000000	-1.000000	-1.000000	82.275862	0.000000	-1.000000	-1.000000	1099237.000000	1769636009.705861
10027.125000	12582.315000	18688.455000	33229.260000	5627.880000	-8850.915000	-20428.965000	-6407.415000	20.409069	38.273328	39.731810	30.512383	11.176858	39.818406	45.041276	9.066719	3.189340	4.074420	-6.744920	-0.818662	-0.219238	0.435302	-1.000000	-1.000000	-1.000000	-1.000000	-1.000000	-1.000000	-1.000000	82.275862	0.000000	-1.000000	-1.000000	1099238.000000	1769636009.705871
9935.820000	12482.730000	18586.485000	33128.505000	5543.910000	-8898.345000	-20422.080000	-6452.190000	6.681677	23.436540	24.730144	13.927521	-0.778852	32.586424	39.799923	2.785503	3.189340	4.074420	-6.744920	-0.818662	-0.219238	0.435302	-1.000000	-1.000000	-1.000000	-1.000000	-1.000000	-1.000000	-1.000000	82.275862	0.000000	-1.000000	-1.000000	1099239.000000	1769636009.709801
10007.235000	12572.640000	18679.950000	33210.900000	5606.325000	-8891.865000	-20523.915000	-6436.080000	-17.095916	-4.883201	-5.327463	-13.683326	-16.841278	10.912353	18.815220	-11.993017	3.189340	4.074420	-6.744920	-0.818662	-0.219238	0.435302	-1.000000	-1.000000	-1.000000	-1.000000	-1.000000	-1.000000	-1.000000	82.275862	0.000000	-1.000000	-1.000000	1099240.000000	1769636009.709812
10122.120000	12714.075000	18826.290000	33352.875000	5724.000000	-8844.075000	-20557.305000	-6378.705000	-35.467982	-29.107881	-32.128799	-36.649115	-28.643589	-19.479526	-13.815040	-26.694255	3.189340	4.074420	-6.744920	-0.818662	-0.219238	0.435302	-1.000000	-1.000000	-1.000000	-1.000000	-1.000000	-1.000000	-1.000000	82.275862	0.000000	-1.000000	-1.000000	1099241.000000	1769636009.713764
10087.830000	12680.460000	18787.680000	33308.055000	5674.275000	-8836.335000	-20472.030000	-6394.590000	-29.590827	-27.335192	-31.804611	-33.342136	-21.693952	-39.463374	-44.694809	-27.332936	3.189340	4.074420	-6.744920	-0.818662	-0.219238	0.435302	-1.000000	-1.000000	-1.000000	-1.000000	-1.000000	-1.000000	-1.000000	82.275862	0.000000	-1.000000	-1.000000	1099242.000000	1769636009.713775
10008.810000	12593.430000	18692.145000	33207.480000	5579.955000	-8855.820000	-20474.595000	-6450.210000	-4.106824	-4.572315	-8.980624	-9.156541	-1.772156	-37.656643	-54.660750	-12.294931	3.189340	4.074420	-6.744920	-0.818662	-0.219238	0.435302	-1.000000	-1.000000	-1.000000	-1.000000	-1.000000	-1.000000	-1.000000	82.275862	0.000000	-1.000000	-1.000000	1099243.000000	1769636009.718299
10058.445000	12629.745000	18727.740000	33248.835000	5629.905000	-8813.970000	-20497.140000	-6415.155000	18.125942	13.397824	9.685613	10.015486	10.680399	-19.908938	-36.390459	6.632432	3.189340	4.074420	-6.744920	-0.818662	-0.219238	0.435302	-1.000000	-1.000000	-1.000000	-1.000000	-1.000000	-1.000000	-1.000000	82.275862	0.000000	-1.000000	-1.000000	1099244.000000	1769636009.718310
10052.595000	12604.905000	18702.135000	33232.005000	5612.265000	-8898.975000	-20511.405000	-6400.935000	23.955180	12.871081	10.259865	11.529514	8.048048	-0.555028	-4.440694	19.047995	3.189340	4.074420	-6.744920	-0.818662	-0.219238	0.435302	-1.000000	-1.000000	-1.000000	-1.000000	-1.000000	-1.000000	-1.000000	82.275862	0.000000	-1.000000	-1.000000	1099245.000000	1769636009.721828
10041.030000	12627.495000	18736.920000	33264.270000	5630.625000	-8973.765000	-20636.415000	-6449.490000	16.210693	0.406496	-0.530701	2.227373	-1.984343	6.246307	16.262880	21.368680	3.189340	4.074420	-6.744920	-0.818662	-0.219238	0.435302	-1.000000	-1.000000	-1.000000	-1.000000	-1.000000	-1.000000	-1.000000	82.275862	0.000000	-1.000000	-1.000000	1099246.000000	1769636009.721836
10098.135000	12684.015000	18789.165000	33306.345000	5680.125000	-8860.815000	-20494.800000	-6392.970000	3.775986	-10.100217	-9.199597	-5.963570	-9.425030	-2.152238	14.836206	14.525178	37.676940	9.476460	-7.050120	-0.829283	-0.242553	0.440306	-1.000000	-1.000000	-1.000000	-1.000000	-1.000000	-1.000000	-1.000000	82.275862	0.000000	-1.000000	-1.000000	1099247.000000	1769636009.725911
10036.530000	12577.455000	18666.135000	33177.420000	5551.920000	-8950.860000	-20442.240000	-6399.360000	-5.470008	-11.020123	-9.230198	-7.708619	-9.971679	-12.851544	5.659497	4.098918	37.676940	9.476460	-7.050120	-0.829283	-0.242553	0.440306	-1.000000	-1.000000	-1.000000	-1.000000	-1.000000	-1.000000	-1.000000	82.275862	0.000000	-1.000000	-1.000000	1099248.000000	1769636009.725922
10025.145000	12563.730000	18663.300000	33193.215000	5589.495000	-8894.025000	-20490.390000	-6413.580000	-11.110199	-8.469185	-7.374484	-8.324459	-8.001138	-13.636771	7.603844	-4.417577	37.676940	9.476460	-7.050120	-0.829283	-0.242553	0.440306	-1.000000	-1.000000	-1.000000	-1.000000	-1.000000	-1.000000	-1.000000	82.275862	0.000000	-1.000000	-1.000000	1099249.000000	1769636009.735363
10123.335000	12701.520000	18813.420000	33342.120000	5732.820000	-8774.820000	-20501.145000	-6376.365000	-15.777020	-9.621555	-9.536377	-10.982564	-6.130865	-1.680229	19.482558	-9.687621	37.676940	9.476460	-7.050120	-0.829283	-0.242553	0.440306	-1.000000	-1.000000	-1.000000	-1.000000	-1.000000	-1.000000	-1.000000	82.275862	0.000000	-1.000000	-1.000000	1099250.000000	1769636009.735377
10069.830000	12655.890000	18770.850000	33292.845000	5666.130000	-8878.545000	-20562.390000	-6415.290000	-15.420114	-8.567464	-7.922399	-7.401682	1.485005	18.496896	24.799177	-10.907232	37.676940	9.476460	-7.050120	-0.829283	-0.242553	0.440306	-1.000000	-1.000000	-1.000000	-1.000000	-1.000000	-1.000000	-1.000000	82.275862	0.000000	-1.000000	-1.000000	1099251.000000	1769636009.735389
10051.065000	12641.535000	18751.005000	33263.190000	5629.140000	-8930.295000	-20537.595000	-6432.795000	-6.565753	1.212136	3.941125	6.579436	14.890210	32.705700	13.997468	-7.677780	37.676940	9.476460	-7.050120	-0.829283	-0.242553	0.440306	-1.000000	-1.000000	-1.000000	-1.000000	-1.000000	-1.000000	-1.000000	82.275862	0.000000	-1.000000	-1.000000	1099252.000000	1769636009.735396
10035.270000	12614.850000	18725.085000	33245.370000	5625.135000	-8895.240000	-20440.575000	-6417.720000	4.905915	13.735703	18.160826	20.785945	22.974654	28.382445	-4.042193	-2.680480	37.676940	9.476460	-7.050120	-0.829283	-0.242553	0.440306	-1.000000	-1.000000	-1.000000	-1.000000	-1.000000	-1.000000	-1.000000	82.275862	0.000000	-1.000000	-1.000000	1099253.000000	1769636009.737913
9965.520000	12511.575000	18614.295000	33134.490000	5528.250000	-8949.150000	-20460.330000	-6430.815000	10.137906	17.726624	21.584379	21.961991	16.644795	9.945518	-13.599028	0.967815	37.676940	9.476460	-7.050120	-0.829283	-0.242553	0.440306	-1.000000	-1.000000	-1.000000	-1.000000	-1.000000	-1.000000	-1.000000	82.275862	0.000000	-1.000000	-1.000000	1099254.000000	1769636009.737925
10004.220000	12563.460000	18669.060000	33182.460000	5554.305000	-8993.070000	-20582.055000	-6437.430000	6.334335	8.498116	9.091521	6.556609	-2.712980	-9.707172	-11.695211	2.523010	37.676940	9.476460	-7.050120	-0.829283	-0.242553	0.440306	-1.000000	-1.000000	-1.000000	-1.000000	-1.000000	-1.000000	-1.000000	82.275862	0.000000	-1.000000	-1.000000	1099255.000000	1769636009.741918
10035.405000	12604.950000	18715.680000	33236.280000	5613.885000	-8933.985000	-20554.470000	-6437.385000	-0.573375	-5.698876	-9.292080	-13.529792	-22.146699	-22.571409	-9.970420	2.166529	37.676940	9.476460	-7.050120	-0.829283	-0.242553	0.440306	-1.000000	-1.000000	-1.000000	-1.000000	-1.000000	-1.000000	-1.000000	82.275862	0.000000	-1.000000	-1.000000	1099256.000000	1769636009.741926
10072.125000	12637.440000	18751.500000	33276.780000	5661.450000	-8842.590000	-20445.390000	-6381.720000	-1.414126	-10.071309	-15.756523	-19.212716	-24.330669	-22.666482	-13.968104	1.128945	43.857240	10.285240	-12.131700	-0.841429	-0.219787	0.448912	-1.000000	-1.000000	-1.000000	-1.000000	-1.000000	-1.000000	-1.000000	82.275862	0.000000	-1.000000	-1.000000	1099257.000000	1769636009.745914
9988.110000	12542.310000	18654.930000	33184.845000	5569.380000	-8962.155000	-20559.420000	-6449.310000	4.448954	-1.980097	-6.462577	-7.078091	-7.698618	-9.874011	-14.535912	1.223056	43.857240	10.285240	-12.131700	-0.841429	-0.219787	0.448912	-1.000000	-1.000000	-1.000000	-1.000000	-1.000000	-1.000000	-1.000000	82.275862	0.000000	-1.000000	-1.000000	1099258.000000	1769636009.745920
9984.645000	12538.035000	18652.140000	33172.515000	5540.040000	-9021.690000	-20612.295000	-6460.470000	7.102810	4.630878	2.961122	5.232266	8.397809	1.680659	-7.473351	0.898216	43.857240	10.285240	-12.131700	-0.841429	-0.219787	0.448912	-1.000000	-1.000000	-1.000000	-1.000000	-1.000000	-1.000000	-1.000000	82.275862	0.000000	-1.000000	-1.000000	1099259.000000	1769636009.752567
9952.605000	12504.915000	18623.160000	33147.000000	5530.680000	-8974.170000	-20602.170000	-6477.975000	1.383683	0.462447	1.181564	4.742827	9.904663	1.960343	0.885742	-1.349790	43.857240	10.285240	-12.131700	-0.841429	-0.219787	0.448912	-1.000000	-1.000000	-1.000000	-1.000000	-1.000000	-1.000000	-1.000000	82.275862	0.000000	-1.000000	-1.000000	1099260.000000	1769636009.752577
10016.505000	12591.180000	18708.345000	33228.945000	5618.205000	-8890.830000	-20689.965000	-6465.285000	-5.450625	-6.635552	-4.483020	-1.401395	4.197863	0.432648	5.335449	-2.761060	43.857240	10.285240	-12.131700	-0.841429	-0.219787	0.448912	-1.000000	-1.000000	-1.000000	-1.000000	-1.000000	-1.000000	-1.000000	82.275862	0.000000	-1.000000	-1.000000	1099261.000000	1769636009.754007
10135.755000	12731.895000	18856.980000	33380.955000	5772.555000	-8772.390000	-20580.615000	-6371.460000	-2.721284	-2.282156	0.603723	1.958316	6.690712	9.714249	4.359987	0.111601	43.857240	10.285240	-12.131700	-0.841429	-0.219787	0.448912	-1.000000	-1.000000	-1.000000	-1.000000	-1.000000	-1.000000	-1.000000	82.275862	0.000000	-1.000000	-1.000000	1099262.000000	1769636009.754014
10019.565000	12562.335000	18667.035000	33174.585000	5543.685000	-8976.915000	-20375.190000	-6381.585000	11.152034	16.069424	18.835105	17.750183	19.826964	26.357130	6.205341	8.145047	43.857240	10.285240	-12.131700	-0.841429	-0.219787	0.448912	-1.000000	-1.000000	-1.000000	-1.000000	-1.000000	-1.000000	-1.000000	82.275862	0.000000	-1.000000	-1.000000	1099263.000000	1769636009.757985
9971.910000	12515.175000	18619.695000	33137.235000	5520.645000	-8994.195000	-20480.355000	-6442.155000	21.495011	29.103289	30.247845	26.919542	25.087332	31.209795	21.524222	15.824621	43.857240	10.285240	-12.131700	-0.841429	-0.219787	0.448912	-1.000000	-1.000000	-1.000000	-1.000000	-1.000000	-1.000000	-1.000000	82.275862	0.000000	-1.000000	-1.000000	1099264.000000	1769636009.757997
10023.570000	12575.610000	18674.505000	33186.330000	5568.030000	-8927.325000	-20470.455000	-6417.000000	13.260029	18.074270	16.358110	12.232964	7.496600	12.307132	38.589470	13.733362	43.857240	10.285240	-12.131700	-0.841429	-0.219787	0.448912	-1.000000	-1.000000	-1.000000	-1.000000	-1.000000	-1.000000	-1.000000	82.275862	0.000000	-1.000000	-1.000000	1099265.000000	1769636009.761750
10042.470000	12607.650000	18712.935000	33230.160000	5615.865000	-8888.805000	-20463.300000	-6403.365000	-7.884559	-8.494543	-12.563755	-15.635527	-20.668680	-17.808330	34.875836	0.820283	43.857240	10.285240	-12.131700	-0.841429	-0.219787	0.448912	-1.000000	-1.000000	-1.000000	-1.000000	-1.000000	-1.000000	-1.000000	82.275862	0.000000	-1.000000	-1.000000	1099266.000000	1769636009.761758
10023.480000	12596.580000	18708.390000	33222.915000	5596.470000	-8945.730000	-20571.885000	-6429.240000	-24.092094	-27.862136	-32.005156	-32.917343	-36.063740	-36.726189	8.138856	-13.422556	24.599120	10.483620	-12.406380	-0.844724	-0.196899	0.431456	-1.000000	-1.000000	-1.000000	-1.000000	-1.000000	-1.000000	-1.000000	82.275862	0.000000	-1.000000	-1.000000	1099267.000000	1769636009.765873
10029.915000	12591.045000	18697.770000	33215.895000	5597.910000	-8920.890000	-20542.770000	-6422.265000	-24.937850	-28.321289	-30.038434	-28.522881	-28.803845	-33.565613	-24.912495	-19.452436	24.599120	10.483620	-12.406380	-0.844724	-0.196899	0.431456	-1.000000	-1.000000	-1.000000	-1.000000	-1.000000	-1.000000	-1.000000	82.275862	0.000000	-1.000000	-1.000000	1099268.000000	1769636009.765881
10009.575000	12562.650000	18669.105000	33190.110000	5580.405000	-8889.165000	-20427.255000	-6409.440000	-12.626311	-14.409318	-12.789840	-9.176642	-6.723388	-13.484153	-43.783783	-14.509900	24.599120	10.483620	-12.406380	-0.844724	-0.196899	0.431456	-1.000000	-1.000000	-1.000000	-1.000000	-1.000000	-1.000000	-1.000000	82.275862	0.000000	-1.000000	-1.000000	1099269.000000	1769636009.775011
10053.405000	12634.200000	18748.845000	33267.645000	5646.870000	-8852.850000	-20425.545000	-6399.765000	2.344987	1.062066	5.029457	9.626402	13.376175	8.613663	-36.639751	-3.244280	24.599120	10.483620	-12.406380	-0.844724	-0.196899	0.431456	-1.000000	-1.000000	-1.000000	-1.000000	-1.000000	-1.000000	-1.000000	82.275862	0.000000	-1.000000	-1.000000	1099270.000000	1769636009.775023
10075.050000	12664.710000	18781.920000	33295.680000	5654.970000	-8918.820000	-20574.810000	-6414.615000	10.779428	9.672441	14.329969	18.078889	20.532574	19.281160	-14.954154	5.351479	24.599120	10.483620	-12.406380	-0.844724	-0.196899	0.431456	-1.000000	-1.000000	-1.000000	-1.000000	-1.000000	-1.000000	-1.000000	82.275862	0.000000	-1.000000	-1.000000	1099271.000000	1769636009.775304
10032.255000	12590.640000	18691.470000	33199.785000	5560.830000	-8977.995000	-20567.340000	-6421.275000	12.298379	12.911254	16.810644	18.100621	17.274754	16.525335	-3.889807	6.102811	24.599120	10.483620	-12.406380	-0.844724	-0.196899	0.431456	-1.000000	-1.000000	-1.000000	-1.000000	-1.000000	-1.000000	-1.000000	82.275862	0.000000	-1.000000	-1.000000	1099272.000000	1769636009.775310
10032.480000	12584.295000	18684.945000	33199.245000	5561.910000	-8911.980000	-20500.290000	-6405.345000	10.287141	12.989938	14.845187	13.283626	9.651061	7.562814	-8.649157	2.413752	24.599120	10.483620	-12.406380	-0.844724	-0.196899	0.431456	-1.000000	-1.000000	-1.000000	-1.000000	-1.000000	-1.000000	-1.000000	82.275862	0.000000	-1.000000	-1.000000	1099273.000000	1769636009.779517
10006.245000	12567.375000	18677.115000	33196.635000	5557.410000	-8931.150000	-20542.140000	-6431.940000	4.836959	7.324471	6.481764	3.121861	-0.957049	-1.338502	-12.168696	-0.404239	24.599120	10.483620	-12.406380	-0.844724	-0.196899	0.431456	-1.000000	-1.000000	-1.000000	-1.000000	-1.000000	-1.000000	-1.000000	82.275862	0.000000	-1.000000	-1.000000	1099274.000000	1769636009.779527
10035.900000	12597.525000	18706.185000	33222.600000	5585.535000	-8917.830000	-20543.175000	-6414.300000	-3.737357	-3.887772	-6.772264	-10.131271	-12.242952	-7.794345	-3.095452	-1.215364	24.599120	10.483620	-12.406380	-0.844724	-0.196899	0.431456	-1.000000	-1.000000	-1.000000	-1.000000	-1.000000	-1.000000	-1.000000	82.275862	0.000000	-1.000000	-1.000000	1099275.000000	1769636009.783245
10043.460000	12610.125000	18726.165000	33237.405000	5619.870000	-8884.845000	-20448.315000	-6394.230000	-10.046983	-13.091865	-16.553139	-18.618946	-17.073698	-8.595925	17.199451	0.321754	24.599120	10.483620	-12.406380	-0.844724	-0.196899	0.431456	-1.000000	-1.000000	-1.000000	-1.000000	-1.000000	-1.000000	-1.000000	82.275862	0.000000	-1.000000	-1.000000	1099276.000000	1769636009.783257
9975.195000	12544.515000	18657.495000	33166.035000	5551.245000	-8915.130000	-20459.385000	-6445.530000	-9.446180	-13.320980	-15.913644	-16.565673	-10.920043	-2.160501	39.935778	4.037086	13.276200	11.979100	-3.891300	-0.840940	-0.199584	0.435546	-1.000000	-1.000000	-1.000000	-1.000000	-1.000000	-1.000000	-1.000000	82.275862	0.000000	-1.000000	-1.000000	1099277.000000	1769636009.787858
10048.320000	12632.535000	18743.985000	33250.590000	5630.130000	-8916.750000	-20597.220000	-6439.950000	-4.013232	-5.823351	-6.774369	-6.704470	1.042979	4.747864	47.279752	5.868056	13.276200	11.979100	-3.891300	-0.840940	-0.199584	0.435546	-1.000000	-1.000000	-1.000000	-1.000000	-1.000000	-1.000000	-1.000000	82.275862	0.000000	-1.000000	-1.000000	1099278.000000	1769636009.787872
10070.550000	12642.300000	18749.295000	33270.705000	5659.965000	-8887.950000	-20566.845000	-6411.195000	2.075644	3.387178	3.608032	3.947960	10.130582	4.502081	26.496763	2.789244	13.276200	11.979100	-3.891300	-0.840940	-0.199584	0.435546	-1.000000	-1.000000	-1.000000	-1.000000	-1.000000	-1.000000	-1.000000	82.275862	0.000000	-1.000000	-1.000000	1099279.000000	1769636009.789768
10038.150000	12600.090000	18711.180000	33250.545000	5655.060000	-8893.890000	-20548.890000	-6410.880000	6.572541	9.319690	9.670422	11.101940	13.668778	0.670578	-9.747706	-2.037392	13.276200	11.979100	-3.891300	-0.840940	-0.199584	0.435546	-1.000000	-1.000000	-1.000000	-1.000000	-1.000000	-1.000000	-1.000000	82.275862	0.000000	-1.000000	-1.000000	1099280.000000	1769636009.789781
10087.650000	12652.200000	18772.110000	33316.020000	5732.280000	-8774.505000	-20451.735000	-6364.800000	9.026422	11.245197	11.710018	15.630417	15.436205	3.088476	-34.110440	-3.174421	13.276200	11.979100	-3.891300	-0.840940	-0.199584	0.435546	-1.000000	-1.000000	-1.000000	-1.000000	-1.000000	-1.000000	-1.000000	82.275862	0.000000	-1.000000	-1.000000	1099281.000000	1769636009.795707
10016.010000	12557.610000	18662.310000	33187.590000	5581.350000	-8924.130000	-20434.635000	-6391.170000	9.319178	10.431005	11.787305	17.566776	15.888696	10.989698	-32.152861	0.654546	13.276200	11.979100	-3.891300	-0.840940	-0.199584	0.435546	-1.000000	-1.000000	-1.000000	-1.000000	-1.000000	-1.000000	-1.000000	82.275862	0.000000	-1.000000	-1.000000	1099282.000000	1769636009.795718
