Channel1	Channel2	Channel3	Channel4	Channel5	Channel6	Channel7	Channel8	FilteredChannel1	FilteredChannel2	FilteredChannel3	FilteredChannel4	FilteredChannel5	FilteredChannel6	FilteredChannel7	FilteredChannel8	GyroX	GyroY	GyroZ	AccX	AccY	AccZ	PPG1	PPG2	rawPPG1	rawPPG2	rawPPG3	Hr	Hrv	Battery	Trigger	PhysicalTrigger	AutoTrigger	NumMeasurements	Timestamp
13240.260000	-19817.280000	2412.360000	17094.915000	5943.375000	-42128.145000	-34080.255000	-24613.110000	0.174180	7.809681	12.651304	12.539115	9.040081	6.960242	7.885791	13.197179	-2.029580	3.036740	-2.243220	0.877805	-0.087402	0.448851	-1.000000	-1.000000	-1.000000	-1.000000	-1.000000	-1.000000	-1.000000	78.965517	0.000000	-1.000000	-1.000000	1016843.000000	1774905968.424387
13261.545000	-19821.735000	2434.005000	17105.220000	5951.205000	-42121.800000	-34075.980000	-24592.455000	-6.545773	-0.930924	2.553944	2.627746	-0.191871	-2.013365	2.247483	5.741866	-2.029580	3.036740	-2.243220	0.877805	-0.087402	0.448851	-1.000000	-1.000000	-1.000000	-1.000000	-1.000000	-1.000000	-1.000000	78.965517	0.000000	-1.000000	-1.000000	1016844.000000	1774905968.424399
13297.680000	-19798.965000	2434.680000	17107.695000	5957.415000	-42111.810000	-34069.635000	-24577.020000	-13.519549	-12.498282	-8.913101	-9.565375	-10.804075	-11.444593	-4.406093	-5.335197	-2.029580	3.036740	-2.243220	0.877805	-0.087402	0.448851	-1.000000	-1.000000	-1.000000	-1.000000	-1.000000	-1.000000	-1.000000	78.965517	0.000000	-1.000000	-1.000000	1016845.000000	1774905968.424412
13304.025000	-19784.880000	2433.735000	17108.730000	5960.925000	-42107.040000	-34069.545000	-24581.745000	-14.088063	-19.037461	-17.800605	-19.133429	-18.575924	-17.786397	-9.415649	-13.404028	-2.029580	3.036740	-2.243220	0.877805	-0.087402	0.448851	-1.000000	-1.000000	-1.000000	-1.000000	-1.000000	-1.000000	-1.000000	78.965517	0.000000	-1.000000	-1.000000	1016846.000000	1774905968.424417
13320.720000	-19765.575000	2448.720000	17121.465000	5972.085000	-42101.100000	-34078.365000	-24577.290000	-6.128851	-15.850385	-21.204911	-21.997129	-19.990231	-18.264451	-11.244746	-14.503673	-2.029580	3.036740	-2.243220	0.877805	-0.087402	0.448851	-1.000000	-1.000000	-1.000000	-1.000000	-1.000000	-1.000000	-1.000000	78.965517	0.000000	-1.000000	-1.000000	1016847.000000	1774905968.427924
13343.040000	-19738.170000	2476.485000	17144.235000	5993.010000	-42084.585000	-34071.210000	-24563.025000	4.873518	-5.574481	-18.024377	-17.426577	-14.701607	-13.029657	-10.303460	-10.554202	-2.029580	3.036740	-2.243220	0.877805	-0.087402	0.448851	-1.000000	-1.000000	-1.000000	-1.000000	-1.000000	-1.000000	-1.000000	78.965517	0.000000	-1.000000	-1.000000	1016848.000000	1774905968.427933
13341.690000	-19724.580000	2487.555000	17154.270000	6005.925000	-42069.375000	-34051.275000	-24541.065000	12.362344	6.317366	-8.319712	-6.881075	-4.427374	-3.720935	-6.700904	-4.761849	-2.029580	3.036740	-2.243220	0.877805	-0.087402	0.448851	-1.000000	-1.000000	-1.000000	-1.000000	-1.000000	-1.000000	-1.000000	78.965517	0.000000	-1.000000	-1.000000	1016849.000000	1774905968.433728
13289.445000	-19760.175000	2452.545000	17122.545000	5973.840000	-42098.040000	-34051.815000	-24562.710000	13.759421	15.472462	5.346597	6.275026	7.570186	7.156508	0.344563	2.434863	-2.029580	3.036740	-2.243220	0.877805	-0.087402	0.448851	-1.000000	-1.000000	-1.000000	-1.000000	-1.000000	-1.000000	-1.000000	78.965517	0.000000	-1.000000	-1.000000	1016850.000000	1774905968.433738
13260.645000	-19798.425000	2426.220000	17096.625000	5944.725000	-42124.095000	-34062.255000	-24598.935000	9.611484	18.226951	16.722837	16.218539	16.052130	15.194462	9.388809	10.160951	-4.333840	2.792580	-2.395820	0.878294	-0.085998	0.447753	-1.000000	-1.000000	-1.000000	-1.000000	-1.000000	-1.000000	-1.000000	78.965517	0.000000	-1.000000	-1.000000	1016851.000000	1774905968.435882
13324.005000	-19769.490000	2461.365000	17139.780000	5985.630000	-42086.430000	-34040.970000	-24568.920000	2.740690	13.047692	19.746301	18.265075	17.075048	16.572219	15.948672	14.419231	-4.333840	2.792580	-2.395820	0.878294	-0.085998	0.447753	-1.000000	-1.000000	-1.000000	-1.000000	-1.000000	-1.000000	-1.000000	78.965517	0.000000	-1.000000	-1.000000	1016852.000000	1774905968.435890
13368.330000	-19737.270000	2491.380000	17168.625000	6015.735000	-42056.055000	-34026.345000	-24549.300000	-2.224906	3.451015	14.041206	13.370788	11.994956	12.057658	16.337374	12.374600	-4.333840	2.792580	-2.395820	0.878294	-0.085998	0.447753	-1.000000	-1.000000	-1.000000	-1.000000	-1.000000	-1.000000	-1.000000	78.965517	0.000000	-1.000000	-1.000000	1016853.000000	1774905968.451573
13355.145000	-19736.370000	2483.955000	17159.670000	6005.835000	-42067.980000	-34035.345000	-24558.930000	-3.146815	-4.888631	4.237401	5.859897	4.922501	5.124110	10.190420	5.356227	-4.333840	2.792580	-2.395820	0.878294	-0.085998	0.447753	-1.000000	-1.000000	-1.000000	-1.000000	-1.000000	-1.000000	-1.000000	78.965517	0.000000	-1.000000	-1.000000	1016854.000000	1774905968.451586
13295.655000	-19786.140000	2439.540000	17117.235000	5965.200000	-42105.240000	-34073.460000	-24588.765000	-3.589713	-10.325796	-5.747899	-2.221362	-2.603061	-2.762732	-0.665041	-3.625089	-4.333840	2.792580	-2.395820	0.878294	-0.085998	0.447753	-1.000000	-1.000000	-1.000000	-1.000000	-1.000000	-1.000000	-1.000000	78.965517	0.000000	-1.000000	-1.000000	1016855.000000	1774905968.451599
13274.145000	-19814.805000	2404.485000	17077.635000	5925.330000	-42143.265000	-34097.895000	-24605.595000	-8.583928	-15.404011	-15.190034	-11.639013	-11.549813	-11.942217	-13.196618	-12.263354	-4.333840	2.792580	-2.395820	0.878294	-0.085998	0.447753	-1.000000	-1.000000	-1.000000	-1.000000	-1.000000	-1.000000	-1.000000	78.965517	0.000000	-1.000000	-1.000000	1016856.000000	1774905968.451604
13280.670000	-19805.940000	2410.155000	17076.015000	5926.860000	-42142.365000	-34088.490000	-24619.680000	-17.077529	-20.451140	-22.704552	-21.142901	-20.600996	-20.534362	-22.638577	-18.530573	-4.333840	2.792580	-2.395820	0.878294	-0.085998	0.447753	-1.000000	-1.000000	-1.000000	-1.000000	-1.000000	-1.000000	-1.000000	78.965517	0.000000	-1.000000	-1.000000	1016857.000000	1774905968.451610
13267.530000	-19811.430000	2398.545000	17077.455000	5928.975000	-42138.945000	-34081.245000	-24633.405000	-20.963784	-20.405869	-23.370420	-24.762492	-23.886057	-23.023585	-23.577276	-19.593197	-4.333840	2.792580	-2.395820	0.878294	-0.085998	0.447753	-1.000000	-1.000000	-1.000000	-1.000000	-1.000000	-1.000000	-1.000000	78.965517	0.000000	-1.000000	-1.000000	1016858.000000	1774905968.451615
13268.520000	-19801.170000	2403.990000	17091.000000	5937.705000	-42132.150000	-34074.720000	-24611.400000	-12.823327	-9.985833	-12.843465	-16.342227	-15.516988	-14.409509	-13.767649	-12.302726	-4.333840	2.792580	-2.395820	0.878294	-0.085998	0.447753	-1.000000	-1.000000	-1.000000	-1.000000	-1.000000	-1.000000	-1.000000	78.965517	0.000000	-1.000000	-1.000000	1016859.000000	1774905968.455094
13298.490000	-19772.955000	2453.445000	17127.090000	5968.845000	-42102.090000	-34057.710000	-24568.875000	6.133783	9.607089	7.018771	3.328331	3.607392	3.977494	3.186667	3.800321	-4.333840	2.792580	-2.395820	0.878294	-0.085998	0.447753	-1.000000	-1.000000	-1.000000	-1.000000	-1.000000	-1.000000	-1.000000	78.965517	0.000000	-1.000000	-1.000000	1016860.000000	1774905968.455107
13342.635000	-19733.715000	2482.965000	17163.630000	6014.655000	-42050.205000	-34041.375000	-24535.845000	25.524532	29.438844	27.336130	24.764119	24.370240	23.567511	19.218409	22.694230	-4.013380	3.525060	-1.922760	0.879881	-0.086426	0.447936	-1.000000	-1.000000	-1.000000	-1.000000	-1.000000	-1.000000	-1.000000	78.965517	0.000000	-1.000000	-1.000000	1016861.000000	1774905968.455839
13352.985000	-19722.330000	2474.505000	17165.430000	6018.480000	-42045.570000	-34046.055000	-24537.195000	33.583299	38.293261	36.798392	35.898285	35.378192	34.023490	26.380969	33.687225	-4.013380	3.525060	-1.922760	0.879881	-0.086426	0.447936	-1.000000	-1.000000	-1.000000	-1.000000	-1.000000	-1.000000	-1.000000	78.965517	0.000000	-1.000000	-1.000000	1016862.000000	1774905968.455850
13325.130000	-19746.045000	2437.155000	17127.225000	5978.520000	-42083.955000	-34064.775000	-24564.555000	26.187566	30.570846	29.267801	30.437790	30.449423	29.582403	21.658074	29.448418	-4.013380	3.525060	-1.922760	0.879881	-0.086426	0.447936	-1.000000	-1.000000	-1.000000	-1.000000	-1.000000	-1.000000	-1.000000	78.965517	0.000000	-1.000000	-1.000000	1016863.000000	1774905968.467377
13276.170000	-19802.520000	2351.385000	17059.995000	5928.930000	-42137.730000	-34079.670000	-24594.930000	8.044738	9.460543	7.622578	10.813158	11.577719	11.647573	8.582927	11.373289	-4.013380	3.525060	-1.922760	0.879881	-0.086426	0.447936	-1.000000	-1.000000	-1.000000	-1.000000	-1.000000	-1.000000	-1.000000	78.965517	0.000000	-1.000000	-1.000000	1016864.000000	1774905968.467395
13284.045000	-19788.705000	2381.850000	17078.040000	5951.970000	-42120.630000	-34054.245000	-24570.900000	-12.151953	-15.477922	-17.948663	-13.549007	-11.956059	-11.436901	-5.277509	-11.403419	-4.013380	3.525060	-1.922760	0.879881	-0.086426	0.447936	-1.000000	-1.000000	-1.000000	-1.000000	-1.000000	-1.000000	-1.000000	78.965517	0.000000	-1.000000	-1.000000	1016865.000000	1774905968.467407
13289.760000	-19769.715000	2475.945000	17147.295000	5998.095000	-42071.670000	-34030.710000	-24556.410000	-25.505182	-32.472072	-32.847341	-29.285223	-27.403420	-27.312799	-13.025000	-26.822933	-4.013380	3.525060	-1.922760	0.879881	-0.086426	0.447936	-1.000000	-1.000000	-1.000000	-1.000000	-1.000000	-1.000000	-1.000000	78.965517	0.000000	-1.000000	-1.000000	1016866.000000	1774905968.467412
13269.105000	-19775.160000	2510.730000	17161.425000	5995.170000	-42072.615000	-34051.095000	-24583.860000	-26.257254	-33.463208	-26.021135	-26.715068	-26.598777	-27.260399	-12.741712	-27.755937	-4.013380	3.525060	-1.922760	0.879881	-0.086426	0.447936	-1.000000	-1.000000	-1.000000	-1.000000	-1.000000	-1.000000	-1.000000	78.965517	0.000000	-1.000000	-1.000000	1016867.000000	1774905968.472742
13246.785000	-19806.435000	2457.135000	17113.680000	5951.160000	-42113.565000	-34082.055000	-24623.145000	-15.916318	-20.127798	-2.440395	-9.603393	-13.191464	-14.031958	-8.430979	-17.775734	-4.013380	3.525060	-1.922760	0.879881	-0.086426	0.447936	-1.000000	-1.000000	-1.000000	-1.000000	-1.000000	-1.000000	-1.000000	78.965517	0.000000	-1.000000	-1.000000	1016868.000000	1774905968.472753
13242.150000	-19836.045000	2411.910000	17081.325000	5923.890000	-42132.600000	-34096.770000	-24636.420000	-2.944624	-3.284616	17.317549	6.261283	-0.060359	-0.096199	-5.897934	-7.181563	-4.013380	3.525060	-1.922760	0.879881	-0.086426	0.447936	-1.000000	-1.000000	-1.000000	-1.000000	-1.000000	-1.000000	-1.000000	78.965517	0.000000	-1.000000	-1.000000	1016869.000000	1774905968.472766
13240.305000	-19820.025000	2426.670000	17101.935000	5946.750000	-42120.945000	-34081.380000	-24626.970000	4.132716	6.326289	16.919404	8.556665	3.048132	4.246916	-6.819703	-2.509606	-4.013380	3.525060	-1.922760	0.879881	-0.086426	0.447936	-1.000000	-1.000000	-1.000000	-1.000000	-1.000000	-1.000000	-1.000000	78.965517	0.000000	-1.000000	-1.000000	1016870.000000	1774905968.472771
13259.205000	-19777.590000	2460.870000	17135.955000	5980.680000	-42107.040000	-34059.465000	-24620.670000	4.248270	7.686608	0.882528	0.577541	-0.962752	0.375840	-7.076772	-1.319434	-4.013380	3.509800	-1.541260	0.881223	-0.089599	0.447570	-1.000000	-1.000000	-1.000000	-1.000000	-1.000000	-1.000000	-1.000000	78.965517	0.000000	-1.000000	-1.000000	1016871.000000	1774905968.482587
13296.645000	-19757.880000	2469.330000	17132.085000	5974.245000	-42103.980000	-34063.920000	-24616.260000	4.281074	8.489562	-12.381263	-4.599849	-1.558277	-1.989008	-1.822474	2.772185	-4.013380	3.509800	-1.541260	0.881223	-0.089599	0.447570	-1.000000	-1.000000	-1.000000	-1.000000	-1.000000	-1.000000	-1.000000	78.965517	0.000000	-1.000000	-1.000000	1016872.000000	1774905968.482598
13325.085000	-19776.690000	2445.795000	17110.755000	5955.930000	-42116.355000	-34064.640000	-24589.845000	10.790802	14.024443	-10.611405	0.384517	5.943616	3.521394	8.063655	12.041724	-4.013380	3.509800	-1.541260	0.881223	-0.089599	0.447570	-1.000000	-1.000000	-1.000000	-1.000000	-1.000000	-1.000000	-1.000000	78.965517	0.000000	-1.000000	-1.000000	1016873.000000	1774905968.499296
13311.360000	-19789.020000	2435.580000	17101.980000	5946.930000	-42123.645000	-34069.365000	-24581.790000	20.980794	19.745071	1.282833	9.986917	15.049559	12.835713	15.823288	21.975582	-4.013380	3.509800	-1.541260	0.881223	-0.089599	0.447570	-1.000000	-1.000000	-1.000000	-1.000000	-1.000000	-1.000000	-1.000000	78.965517	0.000000	-1.000000	-1.000000	1016874.000000	1774905968.499311
13321.080000	-19785.105000	2432.160000	17097.255000	5940.810000	-42129.180000	-34072.920000	-24566.580000	25.066252	17.520501	8.904007	13.141105	16.160139	16.442995	15.315211	25.624615	-4.013380	3.509800	-1.541260	0.881223	-0.089599	0.447570	-1.000000	-1.000000	-1.000000	-1.000000	-1.000000	-1.000000	-1.000000	78.965517	0.000000	-1.000000	-1.000000	1016875.000000	1774905968.499332
13320.585000	-19783.080000	2433.285000	17096.085000	5940.990000	-42124.320000	-34066.755000	-24550.920000	17.755457	6.465783	5.160636	5.961429	7.522264	10.561065	7.276871	20.481772	-4.013380	3.509800	-1.541260	0.881223	-0.089599	0.447570	-1.000000	-1.000000	-1.000000	-1.000000	-1.000000	-1.000000	-1.000000	78.965517	0.000000	-1.000000	-1.000000	1016876.000000	1774905968.499337
13306.455000	-19780.785000	2443.095000	17108.010000	5952.510000	-42115.365000	-34064.055000	-24559.605000	2.277776	-6.466070	-3.635030	-4.691446	-3.504793	0.604891	-1.765478	9.508809	-4.013380	3.509800	-1.541260	0.881223	-0.089599	0.447570	-1.000000	-1.000000	-1.000000	-1.000000	-1.000000	-1.000000	-1.000000	78.965517	0.000000	-1.000000	-1.000000	1016877.000000	1774905968.499343
13300.560000	-19780.200000	2442.060000	17114.580000	5966.775000	-42100.650000	-34058.745000	-24578.865000	-14.964909	-14.350258	-7.534486	-9.855360	-9.018167	-6.175979	-6.461695	-3.796269	-4.013380	3.509800	-1.541260	0.881223	-0.089599	0.447570	-1.000000	-1.000000	-1.000000	-1.000000	-1.000000	-1.000000	-1.000000	78.965517	0.000000	-1.000000	-1.000000	1016878.000000	1774905968.499348
13294.260000	-19786.365000	2433.780000	17109.945000	5967.585000	-42097.455000	-34059.195000	-24586.965000	-27.957209	-15.875318	-4.179357	-7.685282	-7.886229	-7.589416	-6.676080	-17.072224	-4.013380	3.509800	-1.541260	0.881223	-0.089599	0.447570	-1.000000	-1.000000	-1.000000	-1.000000	-1.000000	-1.000000	-1.000000	78.965517	0.000000	-1.000000	-1.000000	1016879.000000	1774905968.499353
13317.345000	-19760.895000	2463.975000	17137.800000	5990.220000	-42077.700000	-34051.680000	-24570.450000	-31.725768	-13.623779	1.826642	-2.325650	-3.919318	-5.453756	-5.080635	-26.317201	-4.013380	3.509800	-1.541260	0.881223	-0.089599	0.447570	-1.000000	-1.000000	-1.000000	-1.000000	-1.000000	-1.000000	-1.000000	78.965517	0.000000	-1.000000	-1.000000	1016880.000000	1774905968.499358
13359.195000	-19717.470000	2506.455000	17178.930000	6027.030000	-42044.085000	-34031.430000	-24537.690000	-23.859211	-8.444692	7.405407	3.674347	0.739863	-1.196685	-2.974443	-26.268555	-3.296160	3.280900	-1.663340	0.880857	-0.090149	0.447753	-1.000000	-1.000000	-1.000000	-1.000000	-1.000000	-1.000000	-1.000000	78.965517	0.000000	-1.000000	-1.000000	1016881.000000	1774905968.499363
13364.235000	-19712.250000	2507.625000	17181.810000	6033.330000	-42036.480000	-34018.200000	-24542.370000	-6.834757	0.633872	12.578301	10.236222	6.229960	4.417775	-0.000513	-15.918795	-3.296160	3.280900	-1.663340	0.880857	-0.090149	0.447753	-1.000000	-1.000000	-1.000000	-1.000000	-1.000000	-1.000000	-1.000000	78.965517	0.000000	-1.000000	-1.000000	1016882.000000	1774905968.499368
13312.845000	-19764.990000	2441.835000	17120.070000	5979.330000	-42085.800000	-34043.940000	-24583.815000	11.029369	10.225515	13.981559	13.574393	9.563589	7.800289	2.794598	-1.800814	-3.296160	3.280900	-1.663340	0.880857	-0.090149	0.447753	-1.000000	-1.000000	-1.000000	-1.000000	-1.000000	-1.000000	-1.000000	78.965517	0.000000	-1.000000	-1.000000	1016883.000000	1774905968.500777
13245.885000	-19830.465000	2375.955000	17052.480000	5910.750000	-42154.290000	-34084.305000	-24626.115000	19.270997	12.196646	5.287938	6.909248	4.834762	3.325058	2.371425	6.802053	-3.296160	3.280900	-1.663340	0.880857	-0.090149	0.447753	-1.000000	-1.000000	-1.000000	-1.000000	-1.000000	-1.000000	-1.000000	78.965517	0.000000	-1.000000	-1.000000	1016884.000000	1774905968.500790
13249.530000	-19817.505000	2399.445000	17069.670000	5923.035000	-42144.390000	-34083.990000	-24616.980000	13.728579	3.159804	-12.352715	-9.433701	-8.344369	-9.248046	-2.457653	6.394929	-3.296160	3.280900	-1.663340	0.880857	-0.090149	0.447753	-1.000000	-1.000000	-1.000000	-1.000000	-1.000000	-1.000000	-1.000000	78.965517	0.000000	-1.000000	-1.000000	1016885.000000	1774905968.514050
13275.900000	-19776.105000	2450.295000	17107.830000	5955.030000	-42114.600000	-34064.595000	-24579.315000	1.543989	-9.058488	-26.302925	-23.975344	-20.709261	-20.987740	-7.987544	2.499741	-3.296160	3.280900	-1.663340	0.880857	-0.090149	0.447753	-1.000000	-1.000000	-1.000000	-1.000000	-1.000000	-1.000000	-1.000000	78.965517	0.000000	-1.000000	-1.000000	1016886.000000	1774905968.514062
13289.850000	-19759.320000	2471.760000	17130.735000	5976.360000	-42096.690000	-34050.375000	-24542.730000	-5.592968	-12.902951	-23.943659	-24.427375	-21.617214	-21.534298	-8.696506	3.537125	-3.296160	3.280900	-1.663340	0.880857	-0.090149	0.447753	-1.000000	-1.000000	-1.000000	-1.000000	-1.000000	-1.000000	-1.000000	78.965517	0.000000	-1.000000	-1.000000	1016887.000000	1774905968.514076
13287.285000	-19778.670000	2452.905000	17120.430000	5971.995000	-42099.300000	-34060.950000	-24566.580000	-2.845935	-5.667526	-6.179114	-9.929338	-9.629905	-9.299188	-3.226895	11.074526	-3.296160	3.280900	-1.663340	0.880857	-0.090149	0.447753	-1.000000	-1.000000	-1.000000	-1.000000	-1.000000	-1.000000	-1.000000	78.965517	0.000000	-1.000000	-1.000000	1016888.000000	1774905968.514082
13315.995000	-19764.900000	2447.100000	17126.460000	5976.720000	-42090.615000	-34055.370000	-24570.045000	5.173392	5.025178	13.436190	8.950687	7.014628	7.873463	4.440192	17.586557	-3.296160	3.280900	-1.663340	0.880857	-0.090149	0.447753	-1.000000	-1.000000	-1.000000	-1.000000	-1.000000	-1.000000	-1.000000	78.965517	0.000000	-1.000000	-1.000000	1016889.000000	1774905968.514984
13332.735000	-19759.320000	2450.745000	17143.470000	5995.305000	-42071.805000	-34041.465000	-24563.430000	10.994222	10.738787	21.884814	20.606856	18.482618	20.195563	9.371708	15.086657	-3.296160	3.280900	-1.663340	0.880857	-0.090149	0.447753	-1.000000	-1.000000	-1.000000	-1.000000	-1.000000	-1.000000	-1.000000	78.965517	0.000000	-1.000000	-1.000000	1016890.000000	1774905968.514993
13330.035000	-19760.040000	2448.270000	17135.640000	5990.130000	-42073.695000	-34047.495000	-24584.130000	10.985285	9.586484	17.000602	21.042391	20.557763	22.896746	9.536004	3.701244	-5.844580	2.258480	-1.953280	0.880613	-0.087951	0.446715	-1.000000	-1.000000	-1.000000	-1.000000	-1.000000	-1.000000	-1.000000	78.965517	0.000000	-1.000000	-1.000000	1016891.000000	1774905968.515868
13328.685000	-19760.445000	2430.135000	17127.720000	5980.095000	-42080.895000	-34046.550000	-24581.475000	6.987531	5.690265	6.273043	14.081177	15.607903	17.728498	6.345024	-9.059110	-5.844580	2.258480	-1.953280	0.880613	-0.087951	0.446715	-1.000000	-1.000000	-1.000000	-1.000000	-1.000000	-1.000000	-1.000000	78.965517	0.000000	-1.000000	-1.000000	1016892.000000	1774905968.515875
13305.285000	-19782.180000	2427.480000	17116.110000	5954.760000	-42114.465000	-34062.750000	-24595.065000	2.774200	3.593130	-1.668578	5.929847	8.360548	9.260567	2.758130	-15.270918	-5.844580	2.258480	-1.953280	0.880613	-0.087951	0.446715	-1.000000	-1.000000	-1.000000	-1.000000	-1.000000	-1.000000	-1.000000	78.965517	0.000000	-1.000000	-1.000000	1016893.000000	1774905968.519960
13268.295000	-19817.730000	2443.860000	17101.125000	5944.770000	-42123.645000	-34060.275000	-24612.930000	-1.329670	2.410387	-4.155169	-0.897349	0.777570	-0.173872	0.090020	-13.354923	-5.844580	2.258480	-1.953280	0.880613	-0.087951	0.446715	-1.000000	-1.000000	-1.000000	-1.000000	-1.000000	-1.000000	-1.000000	78.965517	0.000000	-1.000000	-1.000000	1016894.000000	1774905968.519970
13296.645000	-19763.415000	2479.635000	17131.545000	5977.710000	-42091.650000	-34037.370000	-24572.970000	-7.414231	-1.649836	-3.814250	-7.517448	-7.339844	-9.868183	-2.249206	-7.650104	-5.844580	2.258480	-1.953280	0.880613	-0.087951	0.446715	-1.000000	-1.000000	-1.000000	-1.000000	-1.000000	-1.000000	-1.000000	78.965517	0.000000	-1.000000	-1.000000	1016895.000000	1774905968.530828
13311.360000	-19750.365000	2482.155000	17142.255000	5987.115000	-42082.290000	-34037.280000	-24555.015000	-13.595827	-7.181013	-3.094171	-13.042788	-13.807930	-16.680502	-4.204917	-1.661889	-5.844580	2.258480	-1.953280	0.880613	-0.087951	0.446715	-1.000000	-1.000000	-1.000000	-1.000000	-1.000000	-1.000000	-1.000000	78.965517	0.000000	-1.000000	-1.000000	1016896.000000	1774905968.530838
13287.870000	-19771.155000	2469.780000	17137.080000	5984.505000	-42081.840000	-34049.655000	-24602.355000	-15.368280	-9.350003	-2.554358	-14.232313	-15.080037	-16.881395	-5.069007	3.473547	-5.844580	2.258480	-1.953280	0.880613	-0.087951	0.446715	-1.000000	-1.000000	-1.000000	-1.000000	-1.000000	-1.000000	-1.000000	78.965517	0.000000	-1.000000	-1.000000	1016897.000000	1774905968.530848
13256.685000	-19781.370000	2461.770000	17130.015000	5977.530000	-42089.040000	-34058.655000	-24653.835000	-12.765738	-7.676445	-2.719580	-10.515440	-10.937022	-10.970562	-5.177596	4.997179	-5.844580	2.258480	-1.953280	0.880613	-0.087951	0.446715	-1.000000	-1.000000	-1.000000	-1.000000	-1.000000	-1.000000	-1.000000	78.965517	0.000000	-1.000000	-1.000000	1016898.000000	1774905968.530853
13232.880000	-19775.925000	2466.045000	17134.380000	5980.095000	-42089.130000	-34053.570000	-24642.000000	-9.488392	-4.986578	-3.874077	-4.659449	-4.580722	-3.225469	-5.280779	0.853813	-5.844580	2.258480	-1.953280	0.880613	-0.087951	0.446715	-1.000000	-1.000000	-1.000000	-1.000000	-1.000000	-1.000000	-1.000000	78.965517	0.000000	-1.000000	-1.000000	1016899.000000	1774905968.532098
13293.855000	-19758.870000	2469.510000	17138.700000	5990.445000	-42077.565000	-34056.270000	-24562.890000	-5.490458	-1.855000	-4.428815	1.196994	1.485469	3.082980	-4.680850	-3.649622	-5.844580	2.258480	-1.953280	0.880613	-0.087951	0.446715	-1.000000	-1.000000	-1.000000	-1.000000	-1.000000	-1.000000	-1.000000	78.965517	0.000000	-1.000000	-1.000000	1016900.000000	1774905968.532108
13356.540000	-19747.755000	2471.535000	17135.055000	5987.070000	-42077.520000	-34057.080000	-24523.200000	4.225549	3.296049	-1.955039	6.847622	7.205366	8.040542	-1.856347	0.358544	-5.142620	2.105880	-1.953280	0.882017	-0.087280	0.447326	-1.000000	-1.000000	-1.000000	-1.000000	-1.000000	-1.000000	-1.000000	78.965517	0.000000	-1.000000	-1.000000	1016901.000000	1774905968.536022
13389.120000	-19707.480000	2501.145000	17156.925000	6003.630000	-42064.425000	-34035.525000	-24514.290000	21.240808	10.725962	3.558473	11.737398	12.401256	12.404497	3.395235	13.267134	-5.142620	2.105880	-1.953280	0.882017	-0.087280	0.447326	-1.000000	-1.000000	-1.000000	-1.000000	-1.000000	-1.000000	-1.000000	78.965517	0.000000	-1.000000	-1.000000	1016902.000000	1774905968.536035
13362.570000	-19734.345000	2475.855000	17138.385000	5982.255000	-42089.265000	-34036.200000	-24536.790000	36.809260	16.993222	8.094823	13.541171	14.416118	14.138267	8.917472	24.204068	-5.142620	2.105880	-1.953280	0.882017	-0.087280	0.447326	-1.000000	-1.000000	-1.000000	-1.000000	-1.000000	-1.000000	-1.000000	78.965517	0.000000	-1.000000	-1.000000	1016903.000000	1774905968.545123
13280.220000	-19814.130000	2399.490000	17080.605000	5933.250000	-42128.190000	-34058.475000	-24584.895000	36.181570	14.495332	5.492680	8.570825	8.982705	8.928219	10.583902	20.512151	-5.142620	2.105880	-1.953280	0.882017	-0.087280	0.447326	-1.000000	-1.000000	-1.000000	-1.000000	-1.000000	-1.000000	-1.000000	78.965517	0.000000	-1.000000	-1.000000	1016904.000000	1774905968.545134
13246.245000	-19831.500000	2364.255000	17059.455000	5919.435000	-42140.655000	-34087.545000	-24620.085000	12.371130	-1.230714	-6.327030	-4.277151	-4.625911	-4.052017	5.540548	-0.326157	-5.142620	2.105880	-1.953280	0.882017	-0.087280	0.447326	-1.000000	-1.000000	-1.000000	-1.000000	-1.000000	-1.000000	-1.000000	78.965517	0.000000	-1.000000	-1.000000	1016905.000000	1774905968.545146
13263.615000	-19819.395000	2377.800000	17061.885000	5921.235000	-42142.140000	-34096.095000	-24624.405000	-23.122676	-21.834108	-19.843235	-18.624625	-19.230302	-18.026707	-4.023726	-26.014926	-5.142620	2.105880	-1.953280	0.882017	-0.087280	0.447326	-1.000000	-1.000000	-1.000000	-1.000000	-1.000000	-1.000000	-1.000000	78.965517	0.000000	-1.000000	-1.000000	1016906.000000	1774905968.545151
13285.080000	-19804.455000	2422.080000	17081.550000	5930.460000	-42139.890000	-34086.465000	-24612.300000	-47.158636	-31.680850	-22.606600	-24.057711	-24.541835	-23.553394	-11.898929	-38.642659	-5.142620	2.105880	-1.953280	0.882017	-0.087280	0.447326	-1.000000	-1.000000	-1.000000	-1.000000	-1.000000	-1.000000	-1.000000	78.965517	0.000000	-1.000000	-1.000000	1016907.000000	1774905968.560105
13285.440000	-19799.415000	2450.385000	17101.575000	5943.285000	-42129.540000	-34079.895000	-24592.140000	-44.747222	-23.091746	-8.816636	-15.308788	-16.193996	-16.581436	-12.736475	-30.159421	-5.142620	2.105880	-1.953280	0.882017	-0.087280	0.447326	-1.000000	-1.000000	-1.000000	-1.000000	-1.000000	-1.000000	-1.000000	78.965517	0.000000	-1.000000	-1.000000	1016908.000000	1774905968.560189
13283.730000	-19792.710000	2436.750000	17108.820000	5958.630000	-42109.065000	-34065.765000	-24586.740000	-20.877257	-1.843228	14.656390	3.567206	1.571803	-0.563055	-5.699701	-8.082444	-5.142620	2.105880	-1.953280	0.882017	-0.087280	0.447326	-1.000000	-1.000000	-1.000000	-1.000000	-1.000000	-1.000000	-1.000000	78.965517	0.000000	-1.000000	-1.000000	1016909.000000	1774905968.560286
13270.995000	-19794.600000	2412.495000	17098.830000	5956.155000	-42104.790000	-34057.710000	-24599.295000	6.434320	19.189194	32.698677	21.983057	19.502864	16.671314	5.355847	12.760800	-5.142620	2.105880	-1.953280	0.882017	-0.087280	0.447326	-1.000000	-1.000000	-1.000000	-1.000000	-1.000000	-1.000000	-1.000000	78.965517	0.000000	-1.000000	-1.000000	1016910.000000	1774905968.560338
13281.120000	-19784.970000	2423.430000	17101.485000	5957.685000	-42102.540000	-34057.980000	-24596.820000	22.470276	29.216899	33.347442	29.478572	28.481701	26.905322	14.032816	22.419701	-5.554640	0.885080	-3.219860	0.884031	-0.088684	0.447081	-1.000000	-1.000000	-1.000000	-1.000000	-1.000000	-1.000000	-1.000000	78.965517	0.000000	-1.000000	-1.000000	1016911.000000	1774905968.560402
13285.485000	-19776.555000	2453.535000	17117.235000	5969.430000	-42093.990000	-34057.665000	-24592.815000	25.063669	25.858644	17.948730	23.139481	24.865905	25.794171	15.291928	20.780796	-5.554640	0.885080	-3.219860	0.884031	-0.088684	0.447081	-1.000000	-1.000000	-1.000000	-1.000000	-1.000000	-1.000000	-1.000000	78.965517	0.000000	-1.000000	-1.000000	1016912.000000	1774905968.560451
13307.760000	-19766.295000	2483.730000	17141.895000	5990.445000	-42081.570000	-34046.865000	-24571.890000	21.169572	15.137896	-0.199154	9.559153	12.921164	15.558802	9.450950	14.190091	-5.554640	0.885080	-3.219860	0.884031	-0.088684	0.447081	-1.000000	-1.000000	-1.000000	-1.000000	-1.000000	-1.000000	-1.000000	78.965517	0.000000	-1.000000	-1.000000	1016913.000000	1774905968.560512
13342.095000	-19737.090000	2501.730000	17168.805000	6019.695000	-42060.465000	-34032.330000	-24533.910000	17.635534	4.852291	-8.988344	-1.862238	0.606438	2.557464	1.739839	9.587868	-5.554640	0.885080	-3.219860	0.884031	-0.088684	0.447081	-1.000000	-1.000000	-1.000000	-1.000000	-1.000000	-1.000000	-1.000000	78.965517	0.000000	-1.000000	-1.000000	1016914.000000	1774905968.560561
13349.565000	-19709.865000	2520.495000	17195.085000	6052.680000	-42029.730000	-34018.290000	-24515.730000	15.088783	-1.546388	-7.849072	-6.846656	-6.788291	-7.428629	-2.961964	9.477154	-5.554640	0.885080	-3.219860	0.884031	-0.088684	0.447081	-1.000000	-1.000000	-1.000000	-1.000000	-1.000000	-1.000000	-1.000000	78.965517	0.000000	-1.000000	-1.000000	1016915.000000	1774905968.569872
13344.705000	-19705.635000	2528.550000	17201.070000	6064.020000	-42022.575000	-34027.200000	-24538.770000	9.449716	-5.173462	-4.785459	-7.518813	-8.926699	-11.883120	-4.274512	9.616397	-5.554640	0.885080	-3.219860	0.884031	-0.088684	0.447081	-1.000000	-1.000000	-1.000000	-1.000000	-1.000000	-1.000000	-1.000000	78.965517	0.000000	-1.000000	-1.000000	1016916.000000	1774905968.569885
13330.755000	-19729.305000	2508.480000	17168.535000	6021.630000	-42052.770000	-34037.145000	-24562.125000	-1.926668	-8.854272	-6.592290	-8.654238	-9.442336	-12.531419	-5.143859	2.886306	-5.554640	0.885080	-3.219860	0.884031	-0.088684	0.447081	-1.000000	-1.000000	-1.000000	-1.000000	-1.000000	-1.000000	-1.000000	78.965517	0.000000	-1.000000	-1.000000	1016917.000000	1774905968.569900
13306.905000	-19767.870000	2468.700000	17126.865000	5967.540000	-42089.085000	-34039.530000	-24561.405000	-16.770499	-14.522700	-13.457054	-13.346349	-13.005856	-13.612556	-7.618024	-12.041511	-5.554640	0.885080	-3.219860	0.884031	-0.088684	0.447081	-1.000000	-1.000000	-1.000000	-1.000000	-1.000000	-1.000000	-1.000000	78.965517	0.000000	-1.000000	-1.000000	1016918.000000	1774905968.569905
13287.015000	-19790.910000	2437.110000	17105.445000	5957.280000	-42105.645000	-34041.600000	-24568.740000	-29.205367	-21.319995	-20.864762	-20.170881	-20.124629	-16.922404	-10.644553	-27.167361	-5.554640	0.885080	-3.219860	0.884031	-0.088684	0.447081	-1.000000	-1.000000	-1.000000	-1.000000	-1.000000	-1.000000	-1.000000	78.965517	0.000000	-1.000000	-1.000000	1016919.000000	1774905968.575380
13301.550000	-19775.070000	2418.255000	17105.085000	5975.370000	-42080.715000	-34041.465000	-24574.275000	-32.877183	-24.905711	-24.038234	-23.753157	-24.683895	-18.804802	-11.487453	-32.386425	-5.554640	0.885080	-3.219860	0.884031	-0.088684	0.447081	-1.000000	-1.000000	-1.000000	-1.000000	-1.000000	-1.000000	-1.000000	78.965517	0.000000	-1.000000	-1.000000	1016920.000000	1774905968.575392
13294.305000	-19773.495000	2413.305000	17100.810000	5973.705000	-42078.510000	-34051.365000	-24589.305000	-24.431399	-19.921384	-20.172146	-19.100450	-19.546627	-13.748474	-8.422556	-24.387212	-4.196500	-0.732480	-2.716280	0.884214	-0.095459	0.446288	-1.000000	-1.000000	-1.000000	-1.000000	-1.000000	-1.000000	-1.000000	78.965517	0.000000	-1.000000	-1.000000	1016921.000000	1774905968.575976
13258.755000	-19803.465000	2415.645000	17084.700000	5939.145000	-42110.820000	-34077.780000	-24613.965000	-7.319091	-6.041746	-9.041970	-6.450876	-5.084021	-1.689512	-2.575975	-8.260770	-4.196500	-0.732480	-2.716280	0.884214	-0.095459	0.446288	-1.000000	-1.000000	-1.000000	-1.000000	-1.000000	-1.000000	-1.000000	78.965517	0.000000	-1.000000	-1.000000	1016922.000000	1774905968.575985
13248.090000	-19827.540000	2413.935000	17063.685000	5909.895000	-42153.525000	-34090.605000	-24624.270000	8.966042	9.256660	6.182471	8.042835	9.978705	9.987776	2.694335	7.058315	-4.196500	-0.732480	-2.716280	0.884214	-0.095459	0.446288	-1.000000	-1.000000	-1.000000	-1.000000	-1.000000	-1.000000	-1.000000	78.965517	0.000000	-1.000000	-1.000000	1016923.000000	1774905968.592451
13275.450000	-19793.700000	2446.380000	17096.265000	5940.000000	-42137.190000	-34071.705000	-24605.820000	17.366019	17.775248	19.931160	17.681623	17.482003	13.989173	5.302431	15.727208	-4.196500	-0.732480	-2.716280	0.884214	-0.095459	0.446288	-1.000000	-1.000000	-1.000000	-1.000000	-1.000000	-1.000000	-1.000000	78.965517	0.000000	-1.000000	-1.000000	1016924.000000	1774905968.592463
13301.190000	-19751.670000	2481.885000	17137.395000	5985.630000	-42084.495000	-34034.085000	-24564.015000	19.029372	19.190965	28.083732	21.434772	18.052244	11.673881	7.009015	18.806131	-4.196500	-0.732480	-2.716280	0.884214	-0.095459	0.446288	-1.000000	-1.000000	-1.000000	-1.000000	-1.000000	-1.000000	-1.000000	78.965517	0.000000	-1.000000	-1.000000	1016925.000000	1774905968.592477
13314.555000	-19737.720000	2493.135000	17149.320000	5999.310000	-42069.240000	-34020.990000	-24550.470000	18.642838	18.886740	30.092585	22.875337	18.300536	10.757515	10.569912	20.308407	-4.196500	-0.732480	-2.716280	0.884214	-0.095459	0.446288	-1.000000	-1.000000	-1.000000	-1.000000	-1.000000	-1.000000	-1.000000	78.965517	0.000000	-1.000000	-1.000000	1016926.000000	1774905968.592482
13313.115000	-19754.145000	2475.180000	17138.970000	5993.145000	-42071.400000	-34040.385000	-24577.830000	17.933612	19.264579	26.628416	23.486663	21.153739	14.782651	14.503025	20.318496	-4.196500	-0.732480	-2.716280	0.884214	-0.095459	0.446288	-1.000000	-1.000000	-1.000000	-1.000000	-1.000000	-1.000000	-1.000000	78.965517	0.000000	-1.000000	-1.000000	1016927.000000	1774905968.592488
13328.055000	-19763.370000	2464.155000	17139.195000	5987.430000	-42082.515000	-34050.105000	-24597.765000	15.235189	16.940607	17.366408	20.256096	21.940290	18.697140	13.710472	14.952631	-4.196500	-0.732480	-2.716280	0.884214	-0.095459	0.446288	-1.000000	-1.000000	-1.000000	-1.000000	-1.000000	-1.000000	-1.000000	78.965517	0.000000	-1.000000	-1.000000	1016928.000000	1774905968.592493
13307.580000	-19769.265000	2463.255000	17135.100000	5981.895000	-42087.780000	-34051.455000	-24629.760000	8.413848	7.987165	2.901043	10.173232	14.306718	14.978456	5.904762	2.665737	-4.196500	-0.732480	-2.716280	0.884214	-0.095459	0.446288	-1.000000	-1.000000	-1.000000	-1.000000	-1.000000	-1.000000	-1.000000	78.965517	0.000000	-1.000000	-1.000000	1016929.000000	1774905968.592499
13284.495000	-19778.715000	2450.385000	17125.065000	5977.170000	-42090.570000	-34055.325000	-24634.125000	-2.624400	-6.245827	-13.098071	-5.260303	-1.765758	2.127188	-5.137575	-12.183363	-4.196500	-0.732480	-2.716280	0.884214	-0.095459	0.446288	-1.000000	-1.000000	-1.000000	-1.000000	-1.000000	-1.000000	-1.000000	78.965517	0.000000	-1.000000	-1.000000	1016930.000000	1774905968.592504
13306.500000	-19768.725000	2445.120000	17112.195000	5961.375000	-42108.165000	-34076.340000	-24593.850000	-14.199023	-19.011583	-25.430360	-20.348389	-18.916700	-13.345714	-13.285975	-21.441490	-0.137340	-1.876980	-2.289000	0.884214	-0.100342	0.445189	-1.000000	-1.000000	-1.000000	-1.000000	-1.000000	-1.000000	-1.000000	78.965517	0.000000	-1.000000	-1.000000	1016931.000000	1774905968.603456
13309.920000	-19773.270000	2433.735000	17098.515000	5952.015000	-42117.345000	-34089.255000	-24564.870000	-20.483422	-23.751965	-30.325116	-29.147374	-28.914081	-23.055421	-15.488291	-18.917958	-0.137340	-1.876980	-2.289000	0.884214	-0.100342	0.445189	-1.000000	-1.000000	-1.000000	-1.000000	-1.000000	-1.000000	-1.000000	78.965517	0.000000	-1.000000	-1.000000	1016932.000000	1774905968.603469
13320.855000	-19755.540000	2475.450000	17139.060000	5999.580000	-42065.640000	-34038.045000	-24523.155000	-18.894562	-19.665084	-26.730420	-28.815681	-28.337301	-23.009056	-12.317208	-6.005494	-0.137340	-1.876980	-2.289000	0.884214	-0.100342	0.445189	-1.000000	-1.000000	-1.000000	-1.000000	-1.000000	-1.000000	-1.000000	78.965517	0.000000	-1.000000	-1.000000	1016933.000000	1774905968.603482
13321.620000	-19770.570000	2465.055000	17150.355000	6012.450000	-42052.455000	-34013.970000	-24534.585000	-11.957152	-11.139207	-15.978509	-19.706627	-18.391013	-14.362055	-5.131526	8.527319	-0.137340	-1.876980	-2.289000	0.884214	-0.100342	0.445189	-1.000000	-1.000000	-1.000000	-1.000000	-1.000000	-1.000000	-1.000000	78.965517	0.000000	-1.000000	-1.000000	1016934.000000	1774905968.603487
13316.130000	-19791.900000	2426.670000	17117.595000	5976.135000	-42086.970000	-34032.915000	-24565.815000	-3.818866	-3.011643	-2.023251	-5.225810	-3.707203	-2.213715	3.617678	14.787734	-0.137340	-1.876980	-2.289000	0.884214	-0.100342	0.445189	-1.000000	-1.000000	-1.000000	-1.000000	-1.000000	-1.000000	-1.000000	78.965517	0.000000	-1.000000	-1.000000	1016935.000000	1774905968.604640
13294.170000	-19805.850000	2427.705000	17087.760000	5938.830000	-42123.780000	-34062.480000	-24589.125000	2.408968	2.577506	9.882598	8.215359	8.454766	6.503361	9.432119	9.209075	-0.137340	-1.876980	-2.289000	0.884214	-0.100342	0.445189	-1.000000	-1.000000	-1.000000	-1.000000	-1.000000	-1.000000	-1.000000	78.965517	0.000000	-1.000000	-1.000000	1016936.000000	1774905968.604650
13266.945000	-19800.990000	2435.670000	17085.420000	5932.350000	-42133.590000	-34082.640000	-24609.510000	4.785451	6.055309	16.913746	14.944104	12.578381	7.737354	8.822411	-3.079267	-0.137340	-1.876980	-2.289000	0.884214	-0.100342	0.445189	-1.000000	-1.000000	-1.000000	-1.000000	-1.000000	-1.000000	-1.000000	78.965517	0.000000	-1.000000	-1.000000	1016937.000000	1774905968.622004
13282.695000	-19772.955000	2461.185000	17118.585000	5966.775000	-42101.190000	-34062.345000	-24587.820000	3.896934	8.926256	19.406011	14.755535	9.825054	3.890026	2.985979	-12.742123	-0.137340	-1.876980	-2.289000	0.884214	-0.100342	0.445189	-1.000000	-1.000000	-1.000000	-1.000000	-1.000000	-1.000000	-1.000000	78.965517	0.000000	-1.000000	-1.000000	1016938.000000	1774905968.622025
13314.510000	-19764.495000	2460.105000	17116.920000	5968.620000	-42097.320000	-34056.045000	-24573.780000	3.791522	12.221118	18.438445	12.035983	6.417274	1.380593	-2.545414	-13.098565	-0.137340	-1.876980	-2.289000	0.884214	-0.100342	0.445189	-1.000000	-1.000000	-1.000000	-1.000000	-1.000000	-1.000000	-1.000000	78.965517	0.000000	-1.000000	-1.000000	1016939.000000	1774905968.622039
13313.295000	-19775.655000	2438.100000	17099.145000	5962.860000	-42098.625000	-34061.760000	-24578.820000	7.152301	14.473482	13.908010	9.812578	6.442598	3.925097	-3.042428	-5.277051	-0.137340	-1.876980	-2.289000	0.884214	-0.100342	0.445189	-1.000000	-1.000000	-1.000000	-1.000000	-1.000000	-1.000000	-1.000000	78.965517	0.000000	-1.000000	-1.000000	1016940.000000	1774905968.622045
13286.250000	-19780.020000	2418.930000	17087.355000	5948.010000	-42124.365000	-34069.680000	-24584.310000	10.580385	12.135416	4.782791	6.718426	7.729764	8.466721	0.524032	3.077849	0.106820	-2.121140	-2.533160	0.886289	-0.094543	0.443480	-1.000000	-1.000000	-1.000000	-1.000000	-1.000000	-1.000000	-1.000000	78.965517	0.000000	-1.000000	-1.000000	1016941.000000	1774905968.622051
13282.695000	-19788.210000	2404.890000	17080.515000	5941.035000	-42124.950000	-34066.620000	-24597.045000	8.521298	3.652958	-8.276896	0.113706	4.994794	8.146776	2.690804	5.258232	0.106820	-2.121140	-2.533160	0.886289	-0.094543	0.443480	-1.000000	-1.000000	-1.000000	-1.000000	-1.000000	-1.000000	-1.000000	78.965517	0.000000	-1.000000	-1.000000	1016942.000000	1774905968.622056
13295.970000	-19801.530000	2437.785000	17107.380000	5967.000000	-42098.580000	-34056.540000	-24595.785000	0.719522	-7.682105	-19.714910	-8.516547	-2.652107	0.962911	0.135669	1.389619	0.106820	-2.121140	-2.533160	0.886289	-0.094543	0.443480	-1.000000	-1.000000	-1.000000	-1.000000	-1.000000	-1.000000	-1.000000	78.965517	0.000000	-1.000000	-1.000000	1016943.000000	1774905968.622062
13332.420000	-19751.220000	2500.695000	17163.360000	6020.325000	-42047.370000	-34019.865000	-24543.765000	-6.581809	-14.811455	-20.280195	-11.963763	-8.118144	-5.764976	-3.609350	-1.721853	0.106820	-2.121140	-2.533160	0.886289	-0.094543	0.443480	-1.000000	-1.000000	-1.000000	-1.000000	-1.000000	-1.000000	-1.000000	78.965517	0.000000	-1.000000	-1.000000	1016944.000000	1774905968.622067
13392.720000	-19666.665000	2561.805000	17235.450000	6093.855000	-41973.030000	-33961.365000	-24479.595000	-6.215592	-11.027251	-5.654528	-3.778509	-3.208154	-2.798178	-1.590890	3.344529	0.106820	-2.121140	-2.533160	0.886289	-0.094543	0.443480	-1.000000	-1.000000	-1.000000	-1.000000	-1.000000	-1.000000	-1.000000	78.965517	0.000000	-1.000000	-1.000000	1016945.000000	1774905968.625640
13390.065000	-19678.050000	2528.235000	17207.775000	6066.000000	-41993.280000	-33975.630000	-24499.305000	2.927319	3.005678	15.751650	12.245652	10.268783	9.344214	7.582209	15.881272	0.106820	-2.121140	-2.533160	0.886289	-0.094543	0.443480	-1.000000	-1.000000	-1.000000	-1.000000	-1.000000	-1.000000	-1.000000	78.965517	0.000000	-1.000000	-1.000000	1016946.000000	1774905968.625651
13310.820000	-19760.085000	2463.345000	17126.460000	5972.985000	-42092.055000	-34050.645000	-24591.420000	12.091512	15.288183	26.747834	21.324261	18.306604	17.405854	14.966624	23.775086	0.106820	-2.121140	-2.533160	0.886289	-0.094543	0.443480	-1.000000	-1.000000	-1.000000	-1.000000	-1.000000	-1.000000	-1.000000	78.965517	0.000000	-1.000000	-1.000000	1016947.000000	1774905968.634936
13232.835000	-19839.825000	2418.210000	17063.010000	5903.325000	-42169.815000	-34104.600000	-24645.060000	8.425400	11.654147	16.317866	11.042210	7.820476	7.636758	9.398001	13.761745	0.106820	-2.121140	-2.533160	0.886289	-0.094543	0.443480	-1.000000	-1.000000	-1.000000	-1.000000	-1.000000	-1.000000	-1.000000	78.965517	0.000000	-1.000000	-1.000000	1016948.000000	1774905968.634947
13218.345000	-19856.070000	2402.145000	17053.515000	5902.020000	-42168.780000	-34104.060000	-24640.470000	-10.508227	-8.671985	-9.254024	-14.318715	-17.556412	-17.506399	-8.724147	-12.445030	0.106820	-2.121140	-2.533160	0.886289	-0.094543	0.443480	-1.000000	-1.000000	-1.000000	-1.000000	-1.000000	-1.000000	-1.000000	78.965517	0.000000	-1.000000	-1.000000	1016949.000000	1774905968.634959
13257.000000	-19817.010000	2421.855000	17078.985000	5932.260000	-42134.805000	-34077.015000	-24616.485000	-30.498192	-30.127616	-31.714009	-36.402942	-38.931291	-39.140148	-26.134891	-36.838352	0.106820	-2.121140	-2.533160	0.886289	-0.094543	0.443480	-1.000000	-1.000000	-1.000000	-1.000000	-1.000000	-1.000000	-1.000000	78.965517	0.000000	-1.000000	-1.000000	1016950.000000	1774905968.634964
13270.725000	-19813.725000	2424.780000	17085.555000	5940.765000	-42122.340000	-34063.020000	-24604.335000	-33.692508	-34.547596	-35.980779	-39.032601	-39.443688	-39.670918	-29.433035	-41.318195	-3.769220	-2.868880	-3.067260	0.884885	-0.086303	0.440856	-1.000000	-1.000000	-1.000000	-1.000000	-1.000000	-1.000000	-1.000000	78.965517	0.000000	-1.000000	-1.000000	1016951.000000	1774905968.637482
13283.415000	-19807.290000	2433.645000	17099.325000	5956.875000	-42107.580000	-34059.780000	-24594.975000	-15.978831	-17.143255	-20.708064	-20.649638	-18.104417	-17.971880	-16.298037	-22.621622	-3.769220	-2.868880	-3.067260	0.884885	-0.086303	0.440856	-1.000000	-1.000000	-1.000000	-1.000000	-1.000000	-1.000000	-1.000000	78.965517	0.000000	-1.000000	-1.000000	1016952.000000	1774905968.637493
13320.855000	-19771.650000	2460.915000	17128.170000	5983.605000	-42082.380000	-34044.750000	-24569.865000	11.126152	10.592237	2.944544	6.775884	11.628504	12.078582	4.412242	6.865415	-3.769220	-2.868880	-3.067260	0.884885	-0.086303	0.440856	-1.000000	-1.000000	-1.000000	-1.000000	-1.000000	-1.000000	-1.000000	78.965517	0.000000	-1.000000	-1.000000	1016953.000000	1774905968.639882
13328.910000	-19746.990000	2476.170000	17142.705000	5994.540000	-42071.490000	-34032.870000	-24557.715000	31.893465	31.785052	21.591869	28.227004	33.405354	33.764157	20.766407	30.064183	-3.769220	-2.868880	-3.067260	0.884885	-0.086303	0.440856	-1.000000	-1.000000	-1.000000	-1.000000	-1.000000	-1.000000	-1.000000	78.965517	0.000000	-1.000000	-1.000000	1016954.000000	1774905968.639894
13317.210000	-19756.080000	2470.140000	17131.995000	5984.370000	-42083.370000	-34043.850000	-24563.745000	37.115328	36.982347	28.843363	35.566332	38.817928	38.625765	26.257802	37.461829	-3.769220	-2.868880	-3.067260	0.884885	-0.086303	0.440856	-1.000000	-1.000000	-1.000000	-1.000000	-1.000000	-1.000000	-1.000000	78.965517	0.000000	-1.000000	-1.000000	1016955.000000	1774905968.649054
13307.625000	-19755.900000	2469.735000	17134.560000	5985.855000	-42082.515000	-34051.005000	-24580.395000	27.914284	28.442669	26.325438	30.452341	30.725337	29.920801	22.341127	30.610235	-3.769220	-2.868880	-3.067260	0.884885	-0.086303	0.440856	-1.000000	-1.000000	-1.000000	-1.000000	-1.000000	-1.000000	-1.000000	78.965517	0.000000	-1.000000	-1.000000	1016956.000000	1774905968.649067
13266.855000	-19779.300000	2430.855000	17116.245000	5971.680000	-42093.315000	-34072.155000	-24618.105000	11.787612	14.426329	18.235963	19.382048	17.311027	16.509007	13.990076	15.903242	-3.769220	-2.868880	-3.067260	0.884885	-0.086303	0.440856	-1.000000	-1.000000	-1.000000	-1.000000	-1.000000	-1.000000	-1.000000	78.965517	0.000000	-1.000000	-1.000000	1016957.000000	1774905968.650575
13282.785000	-19746.945000	2467.530000	17148.195000	6004.080000	-42061.230000	-34060.590000	-24610.905000	-4.466979	0.993272	7.342266	7.039691	3.982380	4.017298	4.223062	-1.622820	-3.769220	-2.868880	-3.067260	0.884885	-0.086303	0.440856	-1.000000	-1.000000	-1.000000	-1.000000	-1.000000	-1.000000	-1.000000	78.965517	0.000000	-1.000000	-1.000000	1016958.000000	1774905968.650595
13356.090000	-19684.440000	2553.255000	17204.310000	6054.075000	-42016.095000	-34009.290000	-24548.220000	-16.066989	-9.137957	-2.752943	-4.070994	-7.166836	-6.236256	-5.353042	-16.765436	-3.769220	-2.868880	-3.067260	0.884885	-0.086303	0.440856	-1.000000	-1.000000	-1.000000	-1.000000	-1.000000	-1.000000	-1.000000	78.965517	0.000000	-1.000000	-1.000000	1016959.000000	1774905968.652942
13363.695000	-19689.570000	2574.360000	17209.260000	6056.775000	-42013.890000	-33988.725000	-24535.125000	-19.200079	-14.064970	-7.271016	-11.581950	-14.437938	-13.608193	-11.662669	-22.914066	-3.769220	-2.868880	-3.067260	0.884885	-0.086303	0.440856	-1.000000	-1.000000	-1.000000	-1.000000	-1.000000	-1.000000	-1.000000	78.965517	0.000000	-1.000000	-1.000000	1016960.000000	1774905968.652956
13298.085000	-19781.820000	2468.745000	17113.905000	5974.110000	-42090.255000	-34031.205000	-24555.015000	-15.576934	-15.820188	-7.913984	-16.587018	-18.877204	-19.058522	-13.167026	-18.582993	-4.440660	-3.692920	-2.746800	0.881101	-0.084289	0.441100	-1.000000	-1.000000	-1.000000	-1.000000	-1.000000	-1.000000	-1.000000	78.965517	0.000000	-1.000000	-1.000000	1016961.000000	1774905968.657846
13254.075000	-19841.490000	2391.390000	17044.470000	5901.255000	-42165.000000	-34088.175000	-24596.415000	-13.303813	-21.212652	-14.060378	-24.457915	-25.229346	-26.164418	-13.555324	-10.804204	-4.440660	-3.692920	-2.746800	0.881101	-0.084289	0.441100	-1.000000	-1.000000	-1.000000	-1.000000	-1.000000	-1.000000	-1.000000	78.965517	0.000000	-1.000000	-1.000000	1016962.000000	1774905968.657866
13232.520000	-19863.000000	2372.310000	17044.110000	5900.580000	-42167.475000	-34096.455000	-24636.645000	-16.654238	-31.558440	-28.661281	-35.080797	-33.579034	-34.370151	-16.431113	-7.456711	-4.440660	-3.692920	-2.746800	0.881101	-0.084289	0.441100	-1.000000	-1.000000	-1.000000	-1.000000	-1.000000	-1.000000	-1.000000	78.965517	0.000000	-1.000000	-1.000000	1016963.000000	1774905968.659857
13246.110000	-19836.720000	2399.985000	17072.190000	5934.960000	-42129.900000	-34072.335000	-24620.670000	-19.308451	-36.222619	-39.527427	-37.310601	-33.925114	-34.003477	-17.873672	-8.286057	-4.440660	-3.692920	-2.746800	0.881101	-0.084289	0.441100	-1.000000	-1.000000	-1.000000	-1.000000	-1.000000	-1.000000	-1.000000	78.965517	0.000000	-1.000000	-1.000000	1016964.000000	1774905968.659867
13265.010000	-19813.680000	2398.455000	17079.120000	5941.890000	-42123.240000	-34064.145000	-24606.270000	-11.539931	-22.795318	-31.526292	-20.589374	-16.559347	-15.816620	-10.367077	-5.819911	-4.440660	-3.692920	-2.746800	0.881101	-0.084289	0.441100	-1.000000	-1.000000	-1.000000	-1.000000	-1.000000	-1.000000	-1.000000	78.965517	0.000000	-1.000000	-1.000000	1016965.000000	1774905968.669370
13328.595000	-19781.235000	2431.665000	17097.075000	5949.270000	-42120.315000	-34058.295000	-24579.720000	9.003405	8.382261	-3.150381	11.274287	14.251853	15.459571	6.474895	4.959476	-4.440660	-3.692920	-2.746800	0.881101	-0.084289	0.441100	-1.000000	-1.000000	-1.000000	-1.000000	-1.000000	-1.000000	-1.000000	78.965517	0.000000	-1.000000	-1.000000	1016966.000000	1774905968.669380
13341.240000	-19778.355000	2448.495000	17109.405000	5965.380000	-42099.885000	-34045.560000	-24578.145000	33.125187	41.428551	30.988377	41.355082	41.615097	42.544708	23.350834	19.364817	-4.440660	-3.692920	-2.746800	0.881101	-0.084289	0.441100	-1.000000	-1.000000	-1.000000	-1.000000	-1.000000	-1.000000	-1.000000	78.965517	0.000000	-1.000000	-1.000000	1016967.000000	1774905968.669391
13318.335000	-19764.630000	2445.525000	17121.195000	5989.095000	-42073.020000	-34035.165000	-24582.240000	44.510166	56.524185	50.693547	52.640631	50.077309	50.297911	29.225702	26.332478	-4.440660	-3.692920	-2.746800	0.881101	-0.084289	0.441100	-1.000000	-1.000000	-1.000000	-1.000000	-1.000000	-1.000000	-1.000000	78.965517	0.000000	-1.000000	-1.000000	1016968.000000	1774905968.669396
13319.145000	-19753.785000	2454.660000	17126.595000	5992.020000	-42073.245000	-34048.395000	-24574.860000	33.348217	46.433251	45.732775	40.860064	37.418485	37.112826	20.600509	19.482519	-4.440660	-3.692920	-2.746800	0.881101	-0.084289	0.441100	-1.000000	-1.000000	-1.000000	-1.000000	-1.000000	-1.000000	-1.000000	78.965517	0.000000	-1.000000	-1.000000	1016969.000000	1774905968.673395
13307.625000	-19775.160000	2460.780000	17121.015000	5973.300000	-42090.570000	-34064.280000	-24584.130000	6.695635	20.768373	23.899791	16.531452	14.078991	13.483441	3.776692	3.480439	-4.440660	-3.692920	-2.746800	0.881101	-0.084289	0.441100	-1.000000	-1.000000	-1.000000	-1.000000	-1.000000	-1.000000	-1.000000	78.965517	0.000000	-1.000000	-1.000000	1016970.000000	1774905968.673406
13319.010000	-19766.565000	2485.080000	17137.215000	5988.555000	-42073.605000	-34044.840000	-24565.635000	-18.465984	-5.266402	1.954720	-5.351942	-6.700019	-7.481057	-10.488101	-10.820303	-3.402980	-3.402980	-2.258480	0.881345	-0.085998	0.440306	-1.000000	-1.000000	-1.000000	-1.000000	-1.000000	-1.000000	-1.000000	78.965517	0.000000	-1.000000	-1.000000	1016971.000000	1774905968.684079
13359.510000	-19726.020000	2513.295000	17173.305000	6027.525000	-42035.400000	-34001.730000	-24513.345000	-29.013231	-21.269758	-9.532253	-16.320584	-17.208093	-17.919151	-14.348103	-14.495020	-3.402980	-3.402980	-2.258480	0.881345	-0.085998	0.440306	-1.000000	-1.000000	-1.000000	-1.000000	-1.000000	-1.000000	-1.000000	78.965517	0.000000	-1.000000	-1.000000	1016972.000000	1774905968.684089
13366.080000	-19707.750000	2527.830000	17184.465000	6035.895000	-42024.690000	-33989.715000	-24512.940000	-22.599284	-24.279421	-11.161455	-16.823360	-17.373047	-17.706266	-7.612788	-6.475555	-3.402980	-3.402980	-2.258480	0.881345	-0.085998	0.440306	-1.000000	-1.000000	-1.000000	-1.000000	-1.000000	-1.000000	-1.000000	78.965517	0.000000	-1.000000	-1.000000	1016973.000000	1774905968.684100
13332.960000	-19738.440000	2501.595000	17148.510000	5995.755000	-42061.455000	-34029.945000	-24552.540000	-7.895126	-18.811280	-9.734059	-12.971287	-12.925198	-12.710695	2.217993	4.558799	-3.402980	-3.402980	-2.258480	0.881345	-0.085998	0.440306	-1.000000	-1.000000	-1.000000	-1.000000	-1.000000	-1.000000	-1.000000	78.965517	0.000000	-1.000000	-1.000000	1016974.000000	1774905968.684106
13281.705000	-19781.910000	2461.455000	17118.675000	5971.725000	-42079.500000	-34068.870000	-24608.790000	1.369436	-13.774509	-12.195184	-11.941912	-11.023831	-10.157520	5.306254	6.653956	-3.402980	-3.402980	-2.258480	0.881345	-0.085998	0.440306	-1.000000	-1.000000	-1.000000	-1.000000	-1.000000	-1.000000	-1.000000	78.965517	0.000000	-1.000000	-1.000000	1016975.000000	1774905968.684112
13219.380000	-19847.565000	2393.910000	17056.530000	5911.335000	-42154.470000	-34104.825000	-24660.765000	-2.957827	-15.599925	-21.583764	-17.232272	-15.272283	-14.041718	-2.832019	-4.892114	-3.402980	-3.402980	-2.258480	0.881345	-0.085998	0.440306	-1.000000	-1.000000	-1.000000	-1.000000	-1.000000	-1.000000	-1.000000	78.965517	0.000000	-1.000000	-1.000000	1016976.000000	1774905968.684117
13234.320000	-19837.170000	2393.100000	17051.625000	5905.080000	-42179.715000	-34098.165000	-24648.795000	-15.787446	-22.253532	-33.441881	-25.536531	-22.944661	-22.680877	-16.958050	-22.554196	-3.402980	-3.402980	-2.258480	0.881345	-0.085998	0.440306	-1.000000	-1.000000	-1.000000	-1.000000	-1.000000	-1.000000	-1.000000	78.965517	0.000000	-1.000000	-1.000000	1016977.000000	1774905968.689369
13279.230000	-19810.710000	2421.945000	17080.875000	5937.570000	-42135.030000	-34079.400000	-24617.925000	-22.057013	-23.460449	-36.232194	-27.286202	-25.033475	-27.202271	-24.873259	-31.415934	-3.402980	-3.402980	-2.258480	0.881345	-0.085998	0.440306	-1.000000	-1.000000	-1.000000	-1.000000	-1.000000	-1.000000	-1.000000	78.965517	0.000000	-1.000000	-1.000000	1016978.000000	1774905968.689379
13294.350000	-19805.130000	2423.160000	17089.020000	5946.435000	-42123.375000	-34064.370000	-24604.875000	-10.686963	-10.252180	-21.037472	-14.195793	-12.824148	-16.846194	-17.246092	-21.355289	-3.402980	-3.402980	-2.258480	0.881345	-0.085998	0.440306	-1.000000	-1.000000	-1.000000	-1.000000	-1.000000	-1.000000	-1.000000	78.965517	0.000000	-1.000000	-1.000000	1016979.000000	1774905968.692075
13301.550000	-19779.390000	2440.395000	17110.035000	5969.070000	-42099.840000	-34041.510000	-24587.145000	13.875757	14.341605	7.815271	10.767056	11.479697	8.247506	3.349612	3.709326	-3.402980	-3.402980	-2.258480	0.881345	-0.085998	0.440306	-1.000000	-1.000000	-1.000000	-1.000000	-1.000000	-1.000000	-1.000000	78.965517	0.000000	-1.000000	-1.000000	1016980.000000	1774905968.692081
13303.530000	-19762.110000	2449.395000	17122.320000	5980.770000	-42087.780000	-34034.715000	-24570.045000	35.409107	36.765638	35.214755	34.170657	34.418582	34.301788	24.148398	28.959539	-1.175020	-2.777320	-2.502640	0.884519	-0.088928	0.438964	-1.000000	-1.000000	-1.000000	-1.000000	-1.000000	-1.000000	-1.000000	78.965517	0.000000	-1.000000	-1.000000	1016981.000000	1774905968.696019
13290.210000	-19779.885000	2455.245000	17116.695000	5969.205000	-42099.120000	-34048.800000	-24583.230000	40.198170	44.083438	47.559148	43.378985	42.887433	46.137084	32.814742	40.567121	-1.175020	-2.777320	-2.502640	0.884519	-0.088928	0.438964	-1.000000	-1.000000	-1.000000	-1.000000	-1.000000	-1.000000	-1.000000	78.965517	0.000000	-1.000000	-1.000000	1016982.000000	1774905968.696025
13278.780000	-19810.530000	2445.435000	17099.460000	5951.070000	-42120.090000	-34071.210000	-24604.020000	26.701865	32.641997	41.216692	35.104453	33.536142	38.372234	26.048825	34.415886	-1.175020	-2.777320	-2.502640	0.884519	-0.088928	0.438964	-1.000000	-1.000000	-1.000000	-1.000000	-1.000000	-1.000000	-1.000000	78.965517	0.000000	-1.000000	-1.000000	1016983.000000	1774905968.701899
13266.855000	-19823.310000	2419.695000	17077.500000	5930.685000	-42140.250000	-34087.950000	-24613.065000	4.218150	9.360812	21.831992	15.137092	12.595663	16.508330	9.524776	16.231514	-1.175020	-2.777320	-2.502640	0.884519	-0.088928	0.438964	-1.000000	-1.000000	-1.000000	-1.000000	-1.000000	-1.000000	-1.000000	78.965517	0.000000	-1.000000	-1.000000	1016984.000000	1774905968.701912
13290.210000	-19802.700000	2428.110000	17094.420000	5950.935000	-42117.975000	-34074.855000	-24588.765000	-14.581839	-12.946075	-0.688964	-6.278631	-9.121952	-7.507070	-7.561212	-3.490800	-1.175020	-2.777320	-2.502640	0.884519	-0.088928	0.438964	-1.000000	-1.000000	-1.000000	-1.000000	-1.000000	-1.000000	-1.000000	78.965517	0.000000	-1.000000	-1.000000	1016985.000000	1774905968.704451
13311.630000	-19782.540000	2424.420000	17106.255000	5967.045000	-42100.155000	-34062.255000	-24574.320000	-21.721544	-23.867860	-17.409945	-19.826060	-21.908960	-21.981333	-17.627978	-16.223422	-1.175020	-2.777320	-2.502640	0.884519	-0.088928	0.438964	-1.000000	-1.000000	-1.000000	-1.000000	-1.000000	-1.000000	-1.000000	78.965517	0.000000	-1.000000	-1.000000	1016986.000000	1774905968.704463
13306.590000	-19776.645000	2434.770000	17114.130000	5974.560000	-42093.135000	-34055.955000	-24585.705000	-18.231032	-21.596274	-24.395667	-22.164368	-22.512740	-23.035554	-18.015246	-20.106400	-1.175020	-2.777320	-2.502640	0.884519	-0.088928	0.438964	-1.000000	-1.000000	-1.000000	-1.000000	-1.000000	-1.000000	-1.000000	78.965517	0.000000	-1.000000	-1.000000	1016987.000000	1774905968.707989
13319.910000	-19757.250000	2487.960000	17142.840000	5994.990000	-42076.260000	-34051.590000	-24577.695000	-10.680376	-11.599911	-21.887227	-16.152884	-14.672913	-15.442752	-11.535198	-18.330648	-1.175020	-2.777320	-2.502640	0.884519	-0.088928	0.438964	-1.000000	-1.000000	-1.000000	-1.000000	-1.000000	-1.000000	-1.000000	78.965517	0.000000	-1.000000	-1.000000	1016988.000000	1774905968.707999
13311.630000	-19756.170000	2519.280000	17162.910000	6008.535000	-42061.770000	-34033.680000	-24575.760000	-4.524037	-1.457721	-11.911912	-6.930820	-4.832663	-6.425909	-3.624455	-14.358661	-1.175020	-2.777320	-2.502640	0.884519	-0.088928	0.438964	-1.000000	-1.000000	-1.000000	-1.000000	-1.000000	-1.000000	-1.000000	78.965517	0.000000	-1.000000	-1.000000	1016989.000000	1774905968.712067
13289.355000	-19770.075000	2490.255000	17145.540000	5995.395000	-42073.830000	-34033.590000	-24588.495000	-1.897801	3.150394	0.317540	0.583406	1.726106	-0.825172	1.792872	-9.964695	-1.175020	-2.777320	-2.502640	0.884519	-0.088928	0.438964	-1.000000	-1.000000	-1.000000	-1.000000	-1.000000	-1.000000	-1.000000	78.965517	0.000000	-1.000000	-1.000000	1016990.000000	1774905968.712077
13267.395000	-19796.895000	2436.570000	17102.160000	5959.485000	-42109.155000	-34047.405000	-24596.505000	-2.319258	1.320145	6.825740	2.895030	2.831605	0.068206	4.112447	-5.249354	-2.929920	-1.464960	-1.632820	0.886839	-0.089538	0.438353	-1.000000	-1.000000	-1.000000	-1.000000	-1.000000	-1.000000	-1.000000	78.965517	0.000000	-1.000000	-1.000000	1016991.000000	1774905968.716040
13280.760000	-19794.645000	2438.055000	17102.655000	5960.745000	-42109.290000	-34038.765000	-24573.870000	-2.998335	-2.841623	3.721331	0.066778	0.024567	-1.869860	4.829391	1.056979	-2.929920	-1.464960	-1.632820	0.886839	-0.089538	0.438353	-1.000000	-1.000000	-1.000000	-1.000000	-1.000000	-1.000000	-1.000000	78.965517	0.000000	-1.000000	-1.000000	1016992.000000	1774905968.716047
13343.355000	-19731.195000	2507.130000	17160.480000	6017.670000	-42054.030000	-34006.365000	-24528.105000	0.175421	-3.267824	-3.018883	-2.842739	-1.868007	-2.225901	5.803754	9.835776	-2.929920	-1.464960	-1.632820	0.886839	-0.089538	0.438353	-1.000000	-1.000000	-1.000000	-1.000000	-1.000000	-1.000000	-1.000000	78.965517	0.000000	-1.000000	-1.000000	1016993.000000	1774905968.720040
13351.185000	-19722.780000	2519.820000	17169.660000	6024.780000	-42047.055000	-34009.785000	-24544.260000	8.431847	2.775904	-3.564153	-0.253767	1.286565	2.439312	7.215538	18.279052	-2.929920	-1.464960	-1.632820	0.886839	-0.089538	0.438353	-1.000000	-1.000000	-1.000000	-1.000000	-1.000000	-1.000000	-1.000000	78.965517	0.000000	-1.000000	-1.000000	1016994.000000	1774905968.720049
13304.295000	-19764.540000	2466.045000	17123.985000	5982.030000	-42089.895000	-34049.565000	-24602.130000	15.706314	10.216863	2.928041	5.991285	6.802617	8.841796	6.068297	19.257983	-2.929920	-1.464960	-1.632820	0.886839	-0.089538	0.438353	-1.000000	-1.000000	-1.000000	-1.000000	-1.000000	-1.000000	-1.000000	78.965517	0.000000	-1.000000	-1.000000	1016995.000000	1774905968.724034
13271.985000	-19815.570000	2399.265000	17075.160000	5941.080000	-42127.380000	-34074.720000	-24624.585000	13.287093	9.964842	6.638973	7.495073	6.967361	8.995491	-0.808244	8.159691	-2.929920	-1.464960	-1.632820	0.886839	-0.089538	0.438353	-1.000000	-1.000000	-1.000000	-1.000000	-1.000000	-1.000000	-1.000000	78.965517	0.000000	-1.000000	-1.000000	1016996.000000	1774905968.724041
13295.655000	-19807.065000	2415.600000	17090.505000	5957.145000	-42110.145000	-34073.730000	-24614.595000	0.503273	-0.873540	-0.328308	-0.271554	-1.311520	0.112686	-11.611468	-9.901733	-2.929920	-1.464960	-1.632820	0.886839	-0.089538	0.438353	-1.000000	-1.000000	-1.000000	-1.000000	-1.000000	-1.000000	-1.000000	78.965517	0.000000	-1.000000	-1.000000	1016997.000000	1774905968.728089
13318.830000	-19773.360000	2453.850000	17117.280000	5979.420000	-42083.010000	-34069.365000	-24588.630000	-12.938798	-14.344531	-12.953338	-11.443060	-11.748270	-10.965107	-19.652370	-22.939230	-2.929920	-1.464960	-1.632820	0.886839	-0.089538	0.438353	-1.000000	-1.000000	-1.000000	-1.000000	-1.000000	-1.000000	-1.000000	78.965517	0.000000	-1.000000	-1.000000	1016998.000000	1774905968.728096
13309.245000	-19758.555000	2459.205000	17130.645000	5988.150000	-42064.290000	-34060.590000	-24567.210000	-16.386697	-18.328966	-17.677210	-14.969782	-14.462623	-13.986672	-18.540350	-21.545433	-2.929920	-1.464960	-1.632820	0.886839	-0.089538	0.438353	-1.000000	-1.000000	-1.000000	-1.000000	-1.000000	-1.000000	-1.000000	78.965517	0.000000	-1.000000	-1.000000	1016999.000000	1774905968.732009
13296.195000	-19776.645000	2442.060000	17112.555000	5973.480000	-42085.845000	-34047.000000	-24573.780000	-8.298900	-8.251717	-7.356950	-5.783627	-5.631286	-5.131934	-6.864996	-6.233819	-2.929920	-1.464960	-1.632820	0.886839	-0.089538	0.438353	-1.000000	-1.000000	-1.000000	-1.000000	-1.000000	-1.000000	-1.000000	78.965517	0.000000	-1.000000	-1.000000	1017000.000000	1774905968.732015
13282.290000	-19777.320000	2450.340000	17111.745000	5967.405000	-42119.370000	-34033.815000	-24580.170000	3.381161	8.324428	11.152111	9.759685	8.514558	8.488922	10.164449	12.286980	-2.075360	0.167860	-0.747740	0.885252	-0.089721	0.438231	-1.000000	-1.000000	-1.000000	-1.000000	-1.000000	-1.000000	-1.000000	78.965517	0.000000	-1.000000	-1.000000	1017001.000000	1774905968.735987
13268.880000	-19779.705000	2468.475000	17134.380000	5986.035000	-42090.345000	-34029.540000	-24582.690000	8.812589	18.722743	24.246011	19.971015	17.347805	15.439208	23.224149	21.379481	-2.075360	0.167860	-0.747740	0.885252	-0.089721	0.438231	-1.000000	-1.000000	-1.000000	-1.000000	-1.000000	-1.000000	-1.000000	78.965517	0.000000	-1.000000	-1.000000	1017002.000000	1774905968.735999
13296.555000	-19783.080000	2487.195000	17137.395000	5985.000000	-42084.090000	-34036.065000	-24577.425000	5.146087	16.368398	24.301127	18.791101	15.682199	11.826839	25.314270	17.038005	-2.075360	0.167860	-0.747740	0.885252	-0.089721	0.438231	-1.000000	-1.000000	-1.000000	-1.000000	-1.000000	-1.000000	-1.000000	78.965517	0.000000	-1.000000	-1.000000	1017003.000000	1774905968.740291
13315.185000	-19790.865000	2462.355000	17113.590000	5969.745000	-42094.170000	-34048.755000	-24592.815000	-0.701267	5.587210	14.529866	9.420565	7.073363	3.449512	16.666810	5.789457	-2.075360	0.167860	-0.747740	0.885252	-0.089721	0.438231	-1.000000	-1.000000	-1.000000	-1.000000	-1.000000	-1.000000	-1.000000	78.965517	0.000000	-1.000000	-1.000000	1017004.000000	1774905968.740304
13285.530000	-19813.005000	2419.875000	17091.720000	5953.770000	-42111.945000	-34063.335000	-24623.100000	-1.185537	-4.539020	1.884781	-1.642711	-1.990246	-2.950827	2.916260	-4.157291	-2.075360	0.167860	-0.747740	0.885252	-0.089721	0.438231	-1.000000	-1.000000	-1.000000	-1.000000	-1.000000	-1.000000	-1.000000	78.965517	0.000000	-1.000000	-1.000000	1017005.000000	1774905968.743907
13299.705000	-19798.245000	2403.720000	17083.710000	5948.190000	-42120.945000	-34059.330000	-24605.775000	2.467723	-9.199617	-10.561811	-10.757335	-8.359898	-6.172829	-9.891169	-9.946186	-2.075360	0.167860	-0.747740	0.885252	-0.089721	0.438231	-1.000000	-1.000000	-1.000000	-1.000000	-1.000000	-1.000000	-1.000000	78.965517	0.000000	-1.000000	-1.000000	1017006.000000	1774905968.743921
13306.005000	-19779.705000	2415.420000	17095.365000	5968.215000	-42092.190000	-34046.955000	-24584.490000	4.792439	-8.807636	-21.134070	-16.487274	-11.593298	-7.868870	-17.332082	-11.529835	-2.075360	0.167860	-0.747740	0.885252	-0.089721	0.438231	-1.000000	-1.000000	-1.000000	-1.000000	-1.000000	-1.000000	-1.000000	78.965517	0.000000	-1.000000	-1.000000	1017007.000000	1774905968.749584
13297.860000	-19774.080000	2448.855000	17108.145000	5971.365000	-42094.440000	-34045.605000	-24578.415000	4.042170	-4.844632	-24.531413	-16.429808	-10.513991	-7.473144	-17.105022	-8.622525	-2.075360	0.167860	-0.747740	0.885252	-0.089721	0.438231	-1.000000	-1.000000	-1.000000	-1.000000	-1.000000	-1.000000	-1.000000	78.965517	0.000000	-1.000000	-1.000000	1017008.000000	1774905968.749593
13315.815000	-19757.520000	2494.890000	17138.295000	5978.115000	-42100.515000	-34030.980000	-24557.130000	1.952976	1.392367	-15.360013	-8.487853	-4.352646	-3.372366	-10.337860	-2.006423	-2.075360	0.167860	-0.747740	0.885252	-0.089721	0.438231	-1.000000	-1.000000	-1.000000	-1.000000	-1.000000	-1.000000	-1.000000	78.965517	0.000000	-1.000000	-1.000000	1017009.000000	1774905968.751943
13344.795000	-19726.380000	2529.090000	17173.080000	6022.170000	-42050.925000	-34002.000000	-24537.240000	0.721216	7.729844	3.887290	5.072342	4.600698	3.698454	-0.883443	5.734543	-2.075360	0.167860	-0.747740	0.885252	-0.089721	0.438231	-1.000000	-1.000000	-1.000000	-1.000000	-1.000000	-1.000000	-1.000000	78.965517	0.000000	-1.000000	-1.000000	1017010.000000	1774905968.751954
13345.290000	-19727.280000	2526.255000	17172.045000	6019.605000	-42048.855000	-34019.325000	-24551.595000	0.963959	11.152428	21.915415	17.004364	11.823756	10.427262	7.035611	10.918109	-4.059160	0.350980	-2.380560	0.884763	-0.085022	0.435485	-1.000000	-1.000000	-1.000000	-1.000000	-1.000000	-1.000000	-1.000000	78.965517	0.000000	-1.000000	-1.000000	1017011.000000	1774905968.755917
13328.640000	-19745.235000	2498.130000	17144.820000	5995.035000	-42069.510000	-34025.220000	-24557.445000	0.617445	9.339151	27.154641	19.905201	13.108593	12.434275	10.322828	10.543123	-4.059160	0.350980	-2.380560	0.884763	-0.085022	0.435485	-1.000000	-1.000000	-1.000000	-1.000000	-1.000000	-1.000000	-1.000000	78.965517	0.000000	-1.000000	-1.000000	1017012.000000	1774905968.755927
13308.975000	-19765.080000	2476.260000	17124.120000	5971.860000	-42097.095000	-34044.345000	-24573.825000	-2.683561	2.489645	17.063961	12.094124	7.240078	7.387730	8.321063	4.934144	-4.059160	0.350980	-2.380560	0.884763	-0.085022	0.435485	-1.000000	-1.000000	-1.000000	-1.000000	-1.000000	-1.000000	-1.000000	78.965517	0.000000	-1.000000	-1.000000	1017013.000000	1774905968.761731
13296.510000	-19781.865000	2454.030000	17106.390000	5958.450000	-42113.430000	-34065.090000	-24586.200000	-8.114586	-6.535592	-1.090585	-1.659301	-2.912820	-2.673919	2.673645	-2.671260	-4.059160	0.350980	-2.380560	0.884763	-0.085022	0.435485	-1.000000	-1.000000	-1.000000	-1.000000	-1.000000	-1.000000	-1.000000	78.965517	0.000000	-1.000000	-1.000000	1017014.000000	1774905968.761741
13264.200000	-19802.520000	2443.185000	17106.435000	5965.110000	-42106.905000	-34067.160000	-24613.740000	-12.724371	-14.456897	-17.357125	-14.292627	-12.244323	-12.670420	-4.165044	-9.639677	-4.059160	0.350980	-2.380560	0.884763	-0.085022	0.435485	-1.000000	-1.000000	-1.000000	-1.000000	-1.000000	-1.000000	-1.000000	78.965517	0.000000	-1.000000	-1.000000	1017015.000000	1774905968.765126
13261.815000	-19810.575000	2439.360000	17103.825000	5962.545000	-42109.155000	-34074.990000	-24619.410000	-14.099771	-18.906385	-25.255639	-20.337619	-16.271881	-17.610170	-9.377713	-14.846432	-4.059160	0.350980	-2.380560	0.884763	-0.085022	0.435485	-1.000000	-1.000000	-1.000000	-1.000000	-1.000000	-1.000000	-1.000000	78.965517	0.000000	-1.000000	-1.000000	1017016.000000	1774905968.765135
13305.465000	-19762.425000	2474.640000	17131.185000	5987.295000	-42085.890000	-34059.015000	-24591.375000	-9.892042	-17.066993	-22.801635	-17.530221	-12.930482	-14.644283	-10.344785	-16.073370	-4.059160	0.350980	-2.380560	0.884763	-0.085022	0.435485	-1.000000	-1.000000	-1.000000	-1.000000	-1.000000	-1.000000	-1.000000	78.965517	0.000000	-1.000000	-1.000000	1017017.000000	1774905968.767938
13327.335000	-19746.585000	2476.755000	17131.455000	5988.510000	-42082.470000	-34047.720000	-24581.340000	0.853220	-7.012542	-12.107712	-7.695643	-3.662736	-4.394186	-6.307908	-10.623598	-4.059160	0.350980	-2.380560	0.884763	-0.085022	0.435485	-1.000000	-1.000000	-1.000000	-1.000000	-1.000000	-1.000000	-1.000000	78.965517	0.000000	-1.000000	-1.000000	1017018.000000	1774905968.767948
13309.335000	-19767.555000	2452.905000	17112.240000	5972.265000	-42097.905000	-34044.795000	-24582.735000	13.569272	7.274254	0.713622	3.157559	5.920338	7.312712	0.630882	0.300721	-4.059160	0.350980	-2.380560	0.884763	-0.085022	0.435485	-1.000000	-1.000000	-1.000000	-1.000000	-1.000000	-1.000000	-1.000000	78.965517	0.000000	-1.000000	-1.000000	1017019.000000	1774905968.773086
13326.705000	-19765.845000	2442.780000	17127.900000	5995.080000	-42072.975000	-34019.955000	-24541.740000	20.505619	17.481656	9.271082	9.371761	10.346255	13.375819	7.492018	12.089744	-4.059160	0.350980	-2.380560	0.884763	-0.085022	0.435485	-1.000000	-1.000000	-1.000000	-1.000000	-1.000000	-1.000000	-1.000000	78.965517	0.000000	-1.000000	-1.000000	1017020.000000	1774905968.773098
13335.930000	-19733.310000	2452.005000	17151.435000	6024.600000	-42041.340000	-34003.710000	-24541.470000	18.636892	19.722195	12.499484	11.384969	10.520717	13.360791	12.870165	20.863382	-5.753020	3.052000	-2.273740	0.885252	-0.081970	0.432921	-1.000000	-1.000000	-1.000000	-1.000000	-1.000000	-1.000000	-1.000000	78.965517	0.000000	-1.000000	-1.000000	1017021.000000	1774905968.775950
13291.605000	-19744.695000	2476.395000	17148.645000	6010.380000	-42057.315000	-34024.365000	-24586.830000	10.652788	16.583806	14.137286	12.938403	10.587743	11.715826	15.586832	23.198702	-5.753020	3.052000	-2.273740	0.885252	-0.081970	0.432921	-1.000000	-1.000000	-1.000000	-1.000000	-1.000000	-1.000000	-1.000000	78.965517	0.000000	-1.000000	-1.000000	1017022.000000	1774905968.775961
13244.445000	-19812.420000	2468.385000	17106.480000	5958.540000	-42112.305000	-34065.045000	-24627.915000	-0.481106	10.085082	16.458000	13.626780	9.832322	8.959316	12.845614	15.691035	-5.753020	3.052000	-2.273740	0.885252	-0.081970	0.432921	-1.000000	-1.000000	-1.000000	-1.000000	-1.000000	-1.000000	-1.000000	78.965517	0.000000	-1.000000	-1.000000	1017023.000000	1774905968.779864
13231.845000	-19853.370000	2419.425000	17061.255000	5914.035000	-42157.890000	-34086.285000	-24641.190000	-12.095450	-0.906925	16.280761	8.754857	3.379923	1.102176	2.815233	-0.476898	-5.753020	3.052000	-2.273740	0.885252	-0.081970	0.432921	-1.000000	-1.000000	-1.000000	-1.000000	-1.000000	-1.000000	-1.000000	78.965517	0.000000	-1.000000	-1.000000	1017024.000000	1774905968.779874
13294.845000	-19813.860000	2437.200000	17090.595000	5945.895000	-42126.525000	-34058.070000	-24588.225000	-18.860287	-14.266289	8.888823	-2.914574	-8.893060	-11.659252	-10.782005	-16.822257	-5.753020	3.052000	-2.273740	0.885252	-0.081970	0.432921	-1.000000	-1.000000	-1.000000	-1.000000	-1.000000	-1.000000	-1.000000	78.965517	0.000000	-1.000000	-1.000000	1017025.000000	1774905968.783980
13341.195000	-19757.160000	2491.380000	17149.770000	6007.050000	-42065.145000	-34016.490000	-24546.195000	-15.494914	-21.974549	-4.118520	-14.371390	-18.426010	-20.585169	-19.399606	-22.929564	-5.753020	3.052000	-2.273740	0.885252	-0.081970	0.432921	-1.000000	-1.000000	-1.000000	-1.000000	-1.000000	-1.000000	-1.000000	78.965517	0.000000	-1.000000	-1.000000	1017026.000000	1774905968.783990
13336.470000	-19741.590000	2503.260000	17163.495000	6019.965000	-42051.285000	-34020.990000	-24577.920000	-3.239430	-17.547456	-14.596490	-16.515449	-16.267110	-16.875790	-17.336719	-15.900328	-5.753020	3.052000	-2.273740	0.885252	-0.081970	0.432921	-1.000000	-1.000000	-1.000000	-1.000000	-1.000000	-1.000000	-1.000000	78.965517	0.000000	-1.000000	-1.000000	1017027.000000	1774905968.787941
13327.695000	-19746.495000	2495.340000	17151.885000	6008.850000	-42059.655000	-34025.490000	-24591.555000	9.727448	-3.093498	-16.251971	-8.025687	-3.373973	-2.298540	-7.222633	-3.173377	-5.753020	3.052000	-2.273740	0.885252	-0.081970	0.432921	-1.000000	-1.000000	-1.000000	-1.000000	-1.000000	-1.000000	-1.000000	78.965517	0.000000	-1.000000	-1.000000	1017028.000000	1774905968.787951
13285.305000	-19784.340000	2465.685000	17113.770000	5974.155000	-42090.705000	-34043.850000	-24610.365000	14.575752	11.682121	-10.311309	3.190619	9.880214	11.892359	3.097097	5.197856	-5.753020	3.052000	-2.273740	0.885252	-0.081970	0.432921	-1.000000	-1.000000	-1.000000	-1.000000	-1.000000	-1.000000	-1.000000	78.965517	0.000000	-1.000000	-1.000000	1017029.000000	1774905968.791961
13286.925000	-19784.115000	2468.160000	17114.940000	5974.110000	-42092.145000	-34046.820000	-24588.180000	8.533142	16.875887	-2.914058	8.015310	13.646018	15.574671	7.634295	6.018704	-5.753020	3.052000	-2.273740	0.885252	-0.081970	0.432921	-1.000000	-1.000000	-1.000000	-1.000000	-1.000000	-1.000000	-1.000000	78.965517	0.000000	-1.000000	-1.000000	1017030.000000	1774905968.791972
13303.935000	-19782.045000	2457.270000	17109.360000	5971.725000	-42094.215000	-34044.030000	-24565.005000	-1.947495	11.133813	1.056528	4.825123	7.588809	8.728347	6.705877	4.660399	-2.334780	3.692920	-1.388660	0.884641	-0.086670	0.431212	-1.000000	-1.000000	-1.000000	-1.000000	-1.000000	-1.000000	-1.000000	78.965517	0.000000	-1.000000	-1.000000	1017031.000000	1774905968.795933
13290.480000	-19796.265000	2437.155000	17109.180000	5974.605000	-42093.000000	-34045.335000	-24583.275000	-6.933699	2.184757	1.140174	-0.411236	-0.256403	-0.072716	4.969756	7.003269	-2.334780	3.692920	-1.388660	0.884641	-0.086670	0.431212	-1.000000	-1.000000	-1.000000	-1.000000	-1.000000	-1.000000	-1.000000	78.965517	0.000000	-1.000000	-1.000000	1017032.000000	1774905968.795941
13260.645000	-19802.295000	2430.270000	17095.635000	5954.130000	-42122.250000	-34068.780000	-24620.355000	-4.177587	-2.682905	-0.078468	-1.911548	-3.113185	-3.785235	4.898416	10.745668	-2.334780	3.692920	-1.388660	0.884641	-0.086670	0.431212	-1.000000	-1.000000	-1.000000	-1.000000	-1.000000	-1.000000	-1.000000	78.965517	0.000000	-1.000000	-1.000000	1017033.000000	1774905968.800253
13277.700000	-19797.255000	2430.630000	17086.050000	5946.660000	-42129.765000	-34078.050000	-24615.225000	-0.653696	-3.773465	-0.811757	-0.470924	-2.227602	-3.668054	3.827670	8.138744	-2.334780	3.692920	-1.388660	0.884641	-0.086670	0.431212	-1.000000	-1.000000	-1.000000	-1.000000	-1.000000	-1.000000	-1.000000	78.965517	0.000000	-1.000000	-1.000000	1017034.000000	1774905968.800263
13303.305000	-19798.560000	2420.685000	17088.750000	5954.085000	-42116.085000	-34059.105000	-24580.440000	-1.970652	-5.634399	-1.972854	-1.050100	-3.049861	-4.837416	-1.076961	-2.536434	-2.334780	3.692920	-1.388660	0.884641	-0.086670	0.431212	-1.000000	-1.000000	-1.000000	-1.000000	-1.000000	-1.000000	-1.000000	78.965517	0.000000	-1.000000	-1.000000	1017035.000000	1774905968.803936
13299.210000	-19785.330000	2446.740000	17109.450000	5968.710000	-42100.920000	-34050.555000	-24592.455000	-5.526412	-9.223567	-3.601604	-4.567283	-6.480177	-7.699224	-7.143077	-13.078840	-2.334780	3.692920	-1.388660	0.884641	-0.086670	0.431212	-1.000000	-1.000000	-1.000000	-1.000000	-1.000000	-1.000000	-1.000000	78.965517	0.000000	-1.000000	-1.000000	1017036.000000	1774905968.803945
13321.080000	-19732.410000	2524.905000	17173.395000	6028.740000	-42044.940000	-34018.470000	-24568.695000	-5.407188	-9.554525	-1.336221	-5.214912	-6.935159	-6.987054	-8.474402	-14.756109	-2.334780	3.692920	-1.388660	0.884641	-0.086670	0.431212	-1.000000	-1.000000	-1.000000	-1.000000	-1.000000	-1.000000	-1.000000	78.965517	0.000000	-1.000000	-1.000000	1017037.000000	1774905968.808197
13326.570000	-19717.605000	2537.910000	17188.110000	6043.365000	-42032.070000	-34012.980000	-24566.805000	0.808164	-1.779630	8.664463	2.359557	0.578228	1.295483	-2.534094	-6.695794	-2.334780	3.692920	-1.388660	0.884641	-0.086670	0.431212	-1.000000	-1.000000	-1.000000	-1.000000	-1.000000	-1.000000	-1.000000	78.965517	0.000000	-1.000000	-1.000000	1017038.000000	1774905968.808208
13330.260000	-19750.995000	2491.515000	17148.690000	6012.045000	-42049.080000	-34023.645000	-24565.320000	9.991289	10.781936	20.859247	14.219066	12.522917	13.342890	6.921946	4.928360	-2.334780	3.692920	-1.388660	0.884641	-0.086670	0.431212	-1.000000	-1.000000	-1.000000	-1.000000	-1.000000	-1.000000	-1.000000	78.965517	0.000000	-1.000000	-1.000000	1017039.000000	1774905968.811960
13328.325000	-19776.105000	2455.695000	17112.780000	5978.430000	-42072.615000	-34037.415000	-24544.845000	15.865916	18.133997	23.079029	19.188818	18.565109	19.741488	12.832121	12.751094	-2.334780	3.692920	-1.388660	0.884641	-0.086670	0.431212	-1.000000	-1.000000	-1.000000	-1.000000	-1.000000	-1.000000	-1.000000	78.965517	0.000000	-1.000000	-1.000000	1017040.000000	1774905968.811971
13306.725000	-19794.285000	2428.830000	17080.560000	5944.590000	-42097.815000	-34066.305000	-24571.755000	14.182943	14.120806	10.199733	10.773109	12.114867	14.586030	10.650543	13.603311	1.907500	4.440660	-1.205540	0.881651	-0.089782	0.431640	-1.000000	-1.000000	-1.000000	-1.000000	-1.000000	-1.000000	-1.000000	78.965517	0.000000	-1.000000	-1.000000	1017041.000000	1774905968.815948
13291.560000	-19788.480000	2446.380000	17098.785000	5961.510000	-42087.195000	-34065.675000	-24595.785000	5.086182	1.546700	-10.313656	-6.222400	-3.178523	0.761184	1.588813	8.022588	1.907500	4.440660	-1.205540	0.881651	-0.089782	0.431640	-1.000000	-1.000000	-1.000000	-1.000000	-1.000000	-1.000000	-1.000000	78.965517	0.000000	-1.000000	-1.000000	1017042.000000	1774905968.815958
13278.915000	-19808.145000	2431.080000	17085.915000	5942.970000	-42136.335000	-34079.625000	-24614.955000	-8.344480	-12.292844	-26.193819	-20.805662	-17.480495	-14.006639	-9.066214	-2.523461	1.907500	4.440660	-1.205540	0.881651	-0.089782	0.431640	-1.000000	-1.000000	-1.000000	-1.000000	-1.000000	-1.000000	-1.000000	78.965517	0.000000	-1.000000	-1.000000	1017043.000000	1774905968.819911
13295.610000	-19797.210000	2426.580000	17088.930000	5945.535000	-42145.245000	-34082.370000	-24605.595000	-20.592996	-20.824516	-29.904164	-25.125081	-23.302950	-23.984303	-16.136060	-14.317803	1.907500	4.440660	-1.205540	0.881651	-0.089782	0.431640	-1.000000	-1.000000	-1.000000	-1.000000	-1.000000	-1.000000	-1.000000	78.965517	0.000000	-1.000000	-1.000000	1017044.000000	1774905968.819921
13318.560000	-19764.090000	2436.120000	17114.670000	5983.560000	-42094.800000	-34053.930000	-24580.575000	-24.442517	-20.023805	-21.829335	-18.430794	-18.837926	-25.739122	-16.543619	-20.332237	1.907500	4.440660	-1.205540	0.881651	-0.089782	0.431640	-1.000000	-1.000000	-1.000000	-1.000000	-1.000000	-1.000000	-1.000000	78.965517	0.000000	-1.000000	-1.000000	1017045.000000	1774905968.823908
13305.510000	-19764.090000	2436.705000	17113.365000	5982.930000	-42091.200000	-34042.230000	-24576.975000	-16.406898	-10.204331	-7.897490	-5.328860	-6.848489	-17.214547	-9.621443	-15.495767	1.907500	4.440660	-1.205540	0.881651	-0.089782	0.431640	-1.000000	-1.000000	-1.000000	-1.000000	-1.000000	-1.000000	-1.000000	78.965517	0.000000	-1.000000	-1.000000	1017046.000000	1774905968.823918
13272.120000	-19799.145000	2428.695000	17086.815000	5950.170000	-42122.925000	-34046.820000	-24598.935000	-1.474444	2.922533	5.394249	7.373575	6.320708	-1.624643	1.797142	-2.625263	1.907500	4.440660	-1.205540	0.881651	-0.089782	0.431640	-1.000000	-1.000000	-1.000000	-1.000000	-1.000000	-1.000000	-1.000000	78.965517	0.000000	-1.000000	-1.000000	1017047.000000	1774905968.828851
13265.010000	-19813.770000	2447.685000	17093.745000	5949.090000	-42123.105000	-34044.345000	-24601.860000	10.948166	12.379458	15.361256	15.097819	14.650244	13.307502	12.399038	9.739433	1.907500	4.440660	-1.205540	0.881651	-0.089782	0.431640	-1.000000	-1.000000	-1.000000	-1.000000	-1.000000	-1.000000	-1.000000	78.965517	0.000000	-1.000000	-1.000000	1017048.000000	1774905968.828860
13278.870000	-19796.535000	2465.325000	17108.820000	5959.530000	-42109.245000	-34046.460000	-24592.455000	15.773434	15.766235	22.701764	18.180756	17.146900	22.238621	17.900731	15.213426	1.907500	4.440660	-1.205540	0.881651	-0.089782	0.431640	-1.000000	-1.000000	-1.000000	-1.000000	-1.000000	-1.000000	-1.000000	78.965517	0.000000	-1.000000	-1.000000	1017049.000000	1774905968.833359
13306.050000	-19758.825000	2487.015000	17136.135000	5987.925000	-42080.715000	-34029.675000	-24557.940000	15.197352	15.480823	27.085429	18.893820	16.539065	24.737164	17.260098	14.507817	1.907500	4.440660	-1.205540	0.881651	-0.089782	0.431640	-1.000000	-1.000000	-1.000000	-1.000000	-1.000000	-1.000000	-1.000000	78.965517	0.000000	-1.000000	-1.000000	1017050.000000	1774905968.833369
13347.450000	-19714.680000	2530.305000	17180.685000	6039.045000	-42031.620000	-34002.270000	-24519.195000	13.811429	14.363103	25.758749	17.609287	14.911440	22.609630	12.247621	12.610156	-0.152600	3.570840	-0.885080	0.879636	-0.084778	0.431029	-1.000000	-1.000000	-1.000000	-1.000000	-1.000000	-1.000000	-1.000000	78.965517	0.000000	-1.000000	-1.000000	1017051.000000	1774905968.835959
13352.760000	-19714.095000	2530.485000	17187.885000	6057.585000	-42010.245000	-33993.090000	-24528.330000	12.917807	12.617090	17.122743	13.211081	12.359896	17.802144	5.480218	11.667204	-0.152600	3.570840	-0.885080	0.879636	-0.084778	0.431029	-1.000000	-1.000000	-1.000000	-1.000000	-1.000000	-1.000000	-1.000000	78.965517	0.000000	-1.000000	-1.000000	1017052.000000	1774905968.835970
13287.555000	-19763.415000	2481.120000	17141.895000	6012.045000	-42052.455000	-34021.395000	-24575.265000	8.841442	7.069454	2.048465	4.064983	6.649824	9.890907	-1.937128	7.943386	-0.152600	3.570840	-0.885080	0.879636	-0.084778	0.431029	-1.000000	-1.000000	-1.000000	-1.000000	-1.000000	-1.000000	-1.000000	78.965517	0.000000	-1.000000	-1.000000	1017053.000000	1774905968.841164
13221.315000	-19822.545000	2426.220000	17078.715000	5938.830000	-42124.950000	-34063.065000	-24642.630000	-3.334316	-6.294831	-17.689580	-11.440953	-6.288004	-5.050962	-11.085072	-3.639133	-0.152600	3.570840	-0.885080	0.879636	-0.084778	0.431029	-1.000000	-1.000000	-1.000000	-1.000000	-1.000000	-1.000000	-1.000000	78.965517	0.000000	-1.000000	-1.000000	1017054.000000	1774905968.841178
13271.940000	-19784.430000	2455.875000	17097.300000	5950.530000	-42111.990000	-34054.290000	-24627.150000	-20.597920	-24.391571	-36.443047	-29.696427	-25.207706	-26.454872	-21.239555	-21.064480	-0.152600	3.570840	-0.885080	0.879636	-0.084778	0.431029	-1.000000	-1.000000	-1.000000	-1.000000	-1.000000	-1.000000	-1.000000	78.965517	0.000000	-1.000000	-1.000000	1017055.000000	1774905968.847382
13330.935000	-19755.270000	2475.045000	17130.195000	5983.425000	-42084.315000	-34032.375000	-24582.465000	-29.302486	-34.046613	-43.119676	-38.816867	-37.965328	-42.059450	-26.210108	-32.430168	-0.152600	3.570840	-0.885080	0.879636	-0.084778	0.431029	-1.000000	-1.000000	-1.000000	-1.000000	-1.000000	-1.000000	-1.000000	78.965517	0.000000	-1.000000	-1.000000	1017056.000000	1774905968.847395
13325.445000	-19768.680000	2430.765000	17105.310000	5980.680000	-42090.390000	-34037.505000	-24580.170000	-19.337912	-24.900381	-31.327461	-29.340226	-32.080442	-38.514235	-19.751016	-26.654024	-0.152600	3.570840	-0.885080	0.879636	-0.084778	0.431029	-1.000000	-1.000000	-1.000000	-1.000000	-1.000000	-1.000000	-1.000000	78.965517	0.000000	-1.000000	-1.000000	1017057.000000	1774905968.850140
13293.000000	-19806.390000	2398.950000	17075.430000	5947.155000	-42124.320000	-34059.330000	-24588.720000	2.345889	-2.864198	-8.362607	-6.476113	-9.775033	-17.100267	-3.860508	-6.185175	-0.152600	3.570840	-0.885080	0.879636	-0.084778	0.431029	-1.000000	-1.000000	-1.000000	-1.000000	-1.000000	-1.000000	-1.000000	78.965517	0.000000	-1.000000	-1.000000	1017058.000000	1774905968.850152
13304.610000	-19789.155000	2427.885000	17094.555000	5958.765000	-42108.840000	-34046.235000	-24570.945000	18.873538	15.780329	12.197244	14.900801	13.855764	7.865459	12.277105	15.501172	-0.152600	3.570840	-0.885080	0.879636	-0.084778	0.431029	-1.000000	-1.000000	-1.000000	-1.000000	-1.000000	-1.000000	-1.000000	78.965517	0.000000	-1.000000	-1.000000	1017059.000000	1774905968.853166
13312.485000	-19764.990000	2460.915000	17109.360000	5967.360000	-42100.830000	-34046.910000	-24582.555000	20.173718	20.986096	23.065730	24.473109	25.457071	23.187019	20.448200	26.218506	-0.152600	3.570840	-0.885080	0.879636	-0.084778	0.431029	-1.000000	-1.000000	-1.000000	-1.000000	-1.000000	-1.000000	-1.000000	78.965517	0.000000	-1.000000	-1.000000	1017060.000000	1774905968.853175
13302.855000	-19767.195000	2482.830000	17119.755000	5969.520000	-42103.350000	-34056.405000	-24597.990000	9.270411	15.343152	25.732567	22.415563	22.838669	25.382949	18.626515	22.732824	-2.411080	3.906560	-1.190280	0.880552	-0.079895	0.432067	-1.000000	-1.000000	-1.000000	-1.000000	-1.000000	-1.000000	-1.000000	78.965517	0.000000	-1.000000	-1.000000	1017061.000000	1774905968.861635
13268.790000	-19812.825000	2476.890000	17119.935000	5971.545000	-42098.670000	-34057.890000	-24616.305000	-3.576341	6.763219	24.616321	15.396711	13.173428	19.182976	10.563505	10.586615	-2.411080	3.906560	-1.190280	0.880552	-0.079895	0.432067	-1.000000	-1.000000	-1.000000	-1.000000	-1.000000	-1.000000	-1.000000	78.965517	0.000000	-1.000000	-1.000000	1017062.000000	1774905968.861647
13255.965000	-19828.170000	2448.180000	17102.295000	5962.635000	-42103.080000	-34063.560000	-24630.840000	-10.119000	0.076335	20.936897	9.306513	5.159932	11.681397	2.198098	-1.469881	-2.411080	3.906560	-1.190280	0.880552	-0.079895	0.432067	-1.000000	-1.000000	-1.000000	-1.000000	-1.000000	-1.000000	-1.000000	78.965517	0.000000	-1.000000	-1.000000	1017063.000000	1774905968.861659
13281.075000	-19807.560000	2451.915000	17104.680000	5968.080000	-42095.880000	-34058.430000	-24616.530000	-9.240358	-3.872726	12.303164	4.760110	1.920980	6.450603	-2.818421	-8.138335	-2.411080	3.906560	-1.190280	0.880552	-0.079895	0.432067	-1.000000	-1.000000	-1.000000	-1.000000	-1.000000	-1.000000	-1.000000	78.965517	0.000000	-1.000000	-1.000000	1017064.000000	1774905968.861664
13285.305000	-19786.365000	2463.255000	17104.455000	5966.100000	-42099.165000	-34049.520000	-24595.155000	-4.748121	-4.839521	-1.235347	-0.487173	0.690901	2.305229	-4.453369	-9.214609	-2.411080	3.906560	-1.190280	0.880552	-0.079895	0.432067	-1.000000	-1.000000	-1.000000	-1.000000	-1.000000	-1.000000	-1.000000	78.965517	0.000000	-1.000000	-1.000000	1017065.000000	1774905968.866134
13260.870000	-19768.410000	2468.745000	17107.020000	5964.120000	-42109.650000	-34046.640000	-24593.040000	-0.314052	-1.897979	-13.519387	-6.150652	-1.515871	-2.500359	-3.755305	-6.495331	-2.411080	3.906560	-1.190280	0.880552	-0.079895	0.432067	-1.000000	-1.000000	-1.000000	-1.000000	-1.000000	-1.000000	-1.000000	78.965517	0.000000	-1.000000	-1.000000	1017066.000000	1774905968.866144
13324.950000	-19733.760000	2482.650000	17125.020000	5987.025000	-42081.705000	-34031.115000	-24556.950000	3.335699	4.527714	-17.876598	-9.198830	-4.179199	-6.944256	-1.351286	-1.661265	-2.411080	3.906560	-1.190280	0.880552	-0.079895	0.432067	-1.000000	-1.000000	-1.000000	-1.000000	-1.000000	-1.000000	-1.000000	78.965517	0.000000	-1.000000	-1.000000	1017067.000000	1774905968.869493
13375.080000	-19718.280000	2491.740000	17159.040000	6026.310000	-42042.735000	-34004.025000	-24523.740000	7.789490	10.641590	-14.365558	-8.068294	-5.094779	-8.478584	1.678025	3.707889	-2.411080	3.906560	-1.190280	0.880552	-0.079895	0.432067	-1.000000	-1.000000	-1.000000	-1.000000	-1.000000	-1.000000	-1.000000	78.965517	0.000000	-1.000000	-1.000000	1017068.000000	1774905968.869507
13345.785000	-19735.695000	2491.650000	17164.665000	6030.225000	-42039.180000	-34013.250000	-24575.670000	12.389936	10.834759	-8.618913	-4.332465	-3.652712	-6.265089	3.556192	7.219726	-2.411080	3.906560	-1.190280	0.880552	-0.079895	0.432067	-1.000000	-1.000000	-1.000000	-1.000000	-1.000000	-1.000000	-1.000000	78.965517	0.000000	-1.000000	-1.000000	1017069.000000	1774905968.873694
13337.820000	-19743.390000	2514.105000	17174.385000	6036.075000	-42030.000000	-34011.000000	-24601.815000	12.872584	3.152387	-4.673308	-0.634274	-1.352124	-2.190407	2.913017	5.799491	-2.411080	3.906560	-1.190280	0.880552	-0.079895	0.432067	-1.000000	-1.000000	-1.000000	-1.000000	-1.000000	-1.000000	-1.000000	78.965517	0.000000	-1.000000	-1.000000	1017070.000000	1774905968.873706
13303.485000	-19763.055000	2495.970000	17143.920000	6000.885000	-42064.965000	-34031.295000	-24618.105000	7.010773	-7.614677	-1.813424	1.255868	-0.260271	0.716677	-0.228744	-0.687435	-1.617560	3.174080	-1.876980	0.881162	-0.081177	0.433837	-1.000000	-1.000000	-1.000000	-1.000000	-1.000000	-1.000000	-1.000000	78.965517	0.000000	-1.000000	-1.000000	1017071.000000	1774905968.884977
13312.845000	-19762.470000	2481.705000	17132.040000	5991.885000	-42073.335000	-34053.615000	-24584.445000	-2.936102	-14.767232	1.362121	0.537493	-1.750235	0.082163	-4.883267	-7.510552	-1.617560	3.174080	-1.876980	0.881162	-0.081177	0.433837	-1.000000	-1.000000	-1.000000	-1.000000	-1.000000	-1.000000	-1.000000	78.965517	0.000000	-1.000000	-1.000000	1017072.000000	1774905968.884988
13318.380000	-19768.680000	2477.250000	17126.190000	5989.725000	-42076.845000	-34053.390000	-24548.760000	-12.965179	-15.928111	3.601733	-2.520066	-5.355645	-3.977560	-9.645800	-9.249430	-1.617560	3.174080	-1.876980	0.881162	-0.081177	0.433837	-1.000000	-1.000000	-1.000000	-1.000000	-1.000000	-1.000000	-1.000000	78.965517	0.000000	-1.000000	-1.000000	1017073.000000	1774905968.885137
13271.085000	-19797.570000	2458.890000	17105.985000	5962.230000	-42113.430000	-34051.185000	-24576.705000	-19.346672	-13.068991	3.227040	-6.087575	-8.684190	-8.584159	-12.109513	-5.237364	-1.617560	3.174080	-1.876980	0.881162	-0.081177	0.433837	-1.000000	-1.000000	-1.000000	-1.000000	-1.000000	-1.000000	-1.000000	78.965517	0.000000	-1.000000	-1.000000	1017074.000000	1774905968.885147
13241.835000	-19825.290000	2435.670000	17091.585000	5949.720000	-42122.610000	-34048.755000	-24617.565000	-20.343601	-9.328990	0.447972	-7.902497	-9.492390	-10.634574	-9.834449	-0.566202	-1.617560	3.174080	-1.876980	0.881162	-0.081177	0.433837	-1.000000	-1.000000	-1.000000	-1.000000	-1.000000	-1.000000	-1.000000	78.965517	0.000000	-1.000000	-1.000000	1017075.000000	1774905968.885159
13245.030000	-19825.380000	2427.930000	17083.755000	5944.545000	-42123.645000	-34053.750000	-24628.005000	-17.103347	-6.565657	-3.390147	-7.303664	-7.527434	-9.077697	-3.340343	-1.084008	-1.617560	3.174080	-1.876980	0.881162	-0.081177	0.433837	-1.000000	-1.000000	-1.000000	-1.000000	-1.000000	-1.000000	-1.000000	78.965517	0.000000	-1.000000	-1.000000	1017076.000000	1774905968.885166
13263.615000	-19792.665000	2444.355000	17098.335000	5960.565000	-42105.420000	-34050.870000	-24609.465000	-11.027018	-3.517989	-6.203430	-5.022355	-3.890567	-4.672040	3.686724	-6.228610	-1.617560	3.174080	-1.876980	0.881162	-0.081177	0.433837	-1.000000	-1.000000	-1.000000	-1.000000	-1.000000	-1.000000	-1.000000	78.965517	0.000000	-1.000000	-1.000000	1017077.000000	1774905968.887978
13304.295000	-19759.365000	2471.670000	17126.640000	5991.480000	-42074.820000	-34028.415000	-24572.475000	-0.676823	3.538580	-5.099762	-0.857420	1.337793	2.057084	8.510880	-7.778046	-1.617560	3.174080	-1.876980	0.881162	-0.081177	0.433837	-1.000000	-1.000000	-1.000000	-1.000000	-1.000000	-1.000000	-1.000000	78.965517	0.000000	-1.000000	-1.000000	1017078.000000	1774905968.887995
13353.255000	-19712.565000	2519.145000	17171.280000	6034.050000	-42034.860000	-34003.665000	-24521.850000	15.676406	16.290508	1.750909	6.599889	9.401533	11.264913	11.617920	1.759408	-1.617560	3.174080	-1.876980	0.881162	-0.081177	0.433837	-1.000000	-1.000000	-1.000000	-1.000000	-1.000000	-1.000000	-1.000000	78.965517	0.000000	-1.000000	-1.000000	1017079.000000	1774905968.893312
13384.080000	-19710.765000	2526.750000	17177.670000	6035.175000	-42034.140000	-34007.490000	-24510.015000	34.215062	30.249017	12.787424	16.899956	19.542038	21.263330	13.949407	19.449833	-1.617560	3.174080	-1.876980	0.881162	-0.081177	0.433837	-1.000000	-1.000000	-1.000000	-1.000000	-1.000000	-1.000000	-1.000000	78.965517	0.000000	-1.000000	-1.000000	1017080.000000	1774905968.893322
13365.675000	-19728.495000	2510.145000	17161.740000	6017.760000	-42050.970000	-34018.380000	-24533.685000	44.259256	35.661736	21.967372	24.825865	26.156164	26.541938	13.993876	31.763144	-0.213640	2.731540	-2.136400	0.881834	-0.083252	0.434142	-1.000000	-1.000000	-1.000000	-1.000000	-1.000000	-1.000000	-1.000000	78.965517	0.000000	-1.000000	-1.000000	1017081.000000	1774905968.897272
13286.610000	-19791.585000	2433.555000	17092.080000	5951.700000	-42118.335000	-34050.960000	-24597.315000	34.943576	24.505998	20.947679	22.441353	21.658091	20.573779	8.732294	25.330947	-0.213640	2.731540	-2.136400	0.881834	-0.083252	0.434142	-1.000000	-1.000000	-1.000000	-1.000000	-1.000000	-1.000000	-1.000000	78.965517	0.000000	-1.000000	-1.000000	1017082.000000	1774905968.897282
13235.535000	-19828.485000	2372.580000	17057.205000	5924.700000	-42144.030000	-34075.620000	-24654.240000	6.005782	-1.451738	5.819358	6.561892	4.259154	2.700494	-2.628039	-0.195616	-0.213640	2.731540	-2.136400	0.881834	-0.083252	0.434142	-1.000000	-1.000000	-1.000000	-1.000000	-1.000000	-1.000000	-1.000000	78.965517	0.000000	-1.000000	-1.000000	1017083.000000	1774905968.900260
13258.395000	-19811.070000	2387.880000	17071.245000	5944.140000	-42118.830000	-34058.115000	-24615.180000	-28.525851	-29.456532	-16.734010	-15.661246	-17.661811	-18.417817	-15.686709	-29.545431	-0.213640	2.731540	-2.136400	0.881834	-0.083252	0.434142	-1.000000	-1.000000	-1.000000	-1.000000	-1.000000	-1.000000	-1.000000	78.965517	0.000000	-1.000000	-1.000000	1017084.000000	1774905968.900270
13290.030000	-19784.970000	2450.385000	17104.005000	5965.695000	-42097.005000	-34045.605000	-24581.295000	-49.519344	-43.882989	-31.730243	-30.666895	-31.060080	-30.478449	-22.653028	-42.997605	-0.213640	2.731540	-2.136400	0.881834	-0.083252	0.434142	-1.000000	-1.000000	-1.000000	-1.000000	-1.000000	-1.000000	-1.000000	78.965517	0.000000	-1.000000	-1.000000	1017085.000000	1774905968.918593
13293.945000	-19792.890000	2488.050000	17117.145000	5966.145000	-42097.995000	-34047.045000	-24578.505000	-46.504019	-37.852681	-27.700271	-29.421718	-28.890354	-27.497263	-18.875520	-32.149242	-0.213640	2.731540	-2.136400	0.881834	-0.083252	0.434142	-1.000000	-1.000000	-1.000000	-1.000000	-1.000000	-1.000000	-1.000000	78.965517	0.000000	-1.000000	-1.000000	1017086.000000	1774905968.918606
13265.505000	-19813.905000	2462.580000	17104.815000	5960.385000	-42098.715000	-34054.785000	-24605.775000	-24.529919	-17.806831	-7.858709	-14.669258	-15.000407	-13.800739	-7.293142	-6.252382	-0.213640	2.731540	-2.136400	0.881834	-0.083252	0.434142	-1.000000	-1.000000	-1.000000	-1.000000	-1.000000	-1.000000	-1.000000	78.965517	0.000000	-1.000000	-1.000000	1017087.000000	1774905968.918620
13260.510000	-19793.160000	2460.645000	17109.135000	5969.295000	-42091.560000	-34047.405000	-24606.315000	1.223862	3.682500	12.583593	2.763984	1.069273	1.438791	4.794451	16.793481	-0.213640	2.731540	-2.136400	0.881834	-0.083252	0.434142	-1.000000	-1.000000	-1.000000	-1.000000	-1.000000	-1.000000	-1.000000	78.965517	0.000000	-1.000000	-1.000000	1017088.000000	1774905968.918625
13298.805000	-19750.275000	2492.775000	17142.750000	6000.480000	-42084.270000	-34015.185000	-24567.390000	18.490479	18.809960	21.626919	14.449957	12.827984	12.007891	12.772830	25.864628	-0.213640	2.731540	-2.136400	0.881834	-0.083252	0.434142	-1.000000	-1.000000	-1.000000	-1.000000	-1.000000	-1.000000	-1.000000	78.965517	0.000000	-1.000000	-1.000000	1017089.000000	1774905968.918632
13310.010000	-19756.395000	2493.000000	17143.470000	6000.795000	-42077.970000	-34016.715000	-24568.020000	25.553281	26.920922	19.576398	19.480483	19.512242	17.048767	16.578172	22.743282	-0.213640	2.731540	-2.136400	0.881834	-0.083252	0.434142	-1.000000	-1.000000	-1.000000	-1.000000	-1.000000	-1.000000	-1.000000	78.965517	0.000000	-1.000000	-1.000000	1017090.000000	1774905968.918637
13302.585000	-19781.010000	2466.135000	17118.135000	5980.725000	-42089.490000	-34037.820000	-24593.580000	27.221998	28.905143	13.325009	20.183071	22.067169	18.514923	16.658667	15.186965	0.473060	2.823100	-1.999060	0.884458	-0.082214	0.433837	-1.000000	-1.000000	-1.000000	-1.000000	-1.000000	-1.000000	-1.000000	78.965517	0.000000	-1.000000	-1.000000	1017091.000000	1774905968.918642
13281.300000	-19803.555000	2436.165000	17087.625000	5950.305000	-42118.740000	-34063.110000	-24623.505000	26.033876	23.818069	7.139066	16.635320	19.310404	16.802294	11.829333	7.953068	0.473060	2.823100	-1.999060	0.884458	-0.082214	0.433837	-1.000000	-1.000000	-1.000000	-1.000000	-1.000000	-1.000000	-1.000000	78.965517	0.000000	-1.000000	-1.000000	1017092.000000	1774905968.918648
13271.220000	-19804.095000	2433.960000	17085.150000	5945.985000	-42125.490000	-34063.155000	-24623.730000	18.866680	10.823408	0.044849	7.051927	9.055620	9.375342	1.678530	0.388248	0.473060	2.823100	-1.999060	0.884458	-0.082214	0.433837	-1.000000	-1.000000	-1.000000	-1.000000	-1.000000	-1.000000	-1.000000	78.965517	0.000000	-1.000000	-1.000000	1017093.000000	1774905968.932398
13275.720000	-19793.925000	2450.655000	17103.330000	5965.470000	-42106.545000	-34051.275000	-24618.915000	3.202361	-7.020447	-9.706698	-7.200915	-6.659182	-3.756007	-10.325983	-8.775468	0.473060	2.823100	-1.999060	0.884458	-0.082214	0.433837	-1.000000	-1.000000	-1.000000	-1.000000	-1.000000	-1.000000	-1.000000	78.965517	0.000000	-1.000000	-1.000000	1017094.000000	1774905968.932419
13297.185000	-19773.315000	2469.915000	17119.980000	5982.075000	-42090.345000	-34044.390000	-24611.490000	-15.518082	-21.758157	-19.223990	-19.493941	-19.946298	-16.188986	-17.775120	-16.397521	0.473060	2.823100	-1.999060	0.884458	-0.082214	0.433837	-1.000000	-1.000000	-1.000000	-1.000000	-1.000000	-1.000000	-1.000000	78.965517	0.000000	-1.000000	-1.000000	1017095.000000	1774905968.932432
13302.360000	-19769.355000	2465.370000	17113.545000	5978.745000	-42090.480000	-34044.660000	-24603.120000	-26.814583	-25.704721	-22.169213	-22.905309	-23.420763	-20.611185	-16.585545	-17.279178	0.473060	2.823100	-1.999060	0.884458	-0.082214	0.433837	-1.000000	-1.000000	-1.000000	-1.000000	-1.000000	-1.000000	-1.000000	78.965517	0.000000	-1.000000	-1.000000	1017096.000000	1774905968.932437
13302.720000	-19767.105000	2463.480000	17104.320000	5968.530000	-42098.175000	-34044.255000	-24580.485000	-25.190802	-18.432223	-15.651713	-16.578039	-16.821036	-15.667182	-8.472117	-10.119781	0.473060	2.823100	-1.999060	0.884458	-0.082214	0.433837	-1.000000	-1.000000	-1.000000	-1.000000	-1.000000	-1.000000	-1.000000	78.965517	0.000000	-1.000000	-1.000000	1017097.000000	1774905968.932443
13295.475000	-19775.070000	2452.185000	17101.080000	5964.345000	-42101.775000	-34042.185000	-24583.995000	-14.577996	-6.657259	-3.626627	-5.747886	-5.985996	-5.736239	1.058420	0.673788	0.473060	2.823100	-1.999060	0.884458	-0.082214	0.433837	-1.000000	-1.000000	-1.000000	-1.000000	-1.000000	-1.000000	-1.000000	78.965517	0.000000	-1.000000	-1.000000	1017098.000000	1774905968.932448
13280.985000	-19786.905000	2429.010000	17101.305000	5969.295000	-42097.770000	-34049.880000	-24609.690000	-2.644933	2.984930	7.424493	4.216382	3.663892	4.051682	7.464643	8.807189	0.473060	2.823100	-1.999060	0.884458	-0.082214	0.433837	-1.000000	-1.000000	-1.000000	-1.000000	-1.000000	-1.000000	-1.000000	78.965517	0.000000	-1.000000	-1.000000	1017099.000000	1774905968.932454
13318.470000	-19754.055000	2453.445000	17131.680000	5997.510000	-42074.055000	-34041.240000	-24586.920000	6.759198	9.174999	14.508385	12.074463	11.115602	11.438265	9.993510	11.710208	0.473060	2.823100	-1.999060	0.884458	-0.082214	0.433837	-1.000000	-1.000000	-1.000000	-1.000000	-1.000000	-1.000000	-1.000000	78.965517	0.000000	-1.000000	-1.000000	1017100.000000	1774905968.932458
13363.380000	-19718.190000	2516.805000	17179.695000	6040.080000	-42034.140000	-34007.130000	-24544.350000	14.309102	13.981970	19.031049	18.810903	17.442953	16.462558	10.567644	11.720931	-1.007160	3.158820	-1.953280	0.886228	-0.082214	0.435424	-1.000000	-1.000000	-1.000000	-1.000000	-1.000000	-1.000000	-1.000000	78.965517	0.000000	-1.000000	-1.000000	1017101.000000	1774905968.953208
13370.670000	-19688.940000	2582.820000	17225.505000	6083.325000	-41989.185000	-33959.160000	-24498.495000	19.942390	17.649481	22.480067	23.475323	21.779516	18.852977	10.996307	11.602980	-1.007160	3.158820	-1.953280	0.886228	-0.082214	0.435424	-1.000000	-1.000000	-1.000000	-1.000000	-1.000000	-1.000000	-1.000000	78.965517	0.000000	-1.000000	-1.000000	1017102.000000	1774905968.953221
13355.955000	-19706.265000	2556.810000	17200.620000	6056.460000	-42013.845000	-33967.755000	-24500.925000	19.801424	16.851151	21.976357	21.826397	20.246083	16.334306	10.727476	10.725662	-1.007160	3.158820	-1.953280	0.886228	-0.082214	0.435424	-1.000000	-1.000000	-1.000000	-1.000000	-1.000000	-1.000000	-1.000000	78.965517	0.000000	-1.000000	-1.000000	1017103.000000	1774905968.953235
13332.465000	-19753.290000	2496.105000	17142.030000	5996.835000	-42071.400000	-34019.865000	-24552.630000	10.197770	7.774040	11.580368	9.300119	8.495356	5.511762	6.292322	5.488127	-1.007160	3.158820	-1.953280	0.886228	-0.082214	0.435424	-1.000000	-1.000000	-1.000000	-1.000000	-1.000000	-1.000000	-1.000000	78.965517	0.000000	-1.000000	-1.000000	1017104.000000	1774905968.953240
13278.915000	-19794.285000	2453.535000	17099.145000	5953.995000	-42115.770000	-34054.155000	-24605.010000	-7.202671	-9.262937	-9.887911	-12.944389	-12.630584	-13.304524	-5.028886	-7.067768	-1.007160	3.158820	-1.953280	0.886228	-0.082214	0.435424	-1.000000	-1.000000	-1.000000	-1.000000	-1.000000	-1.000000	-1.000000	78.965517	0.000000	-1.000000	-1.000000	1017105.000000	1774905968.953246
13243.815000	-19818.720000	2430.495000	17080.920000	5944.500000	-42124.545000	-34063.290000	-24628.545000	-25.528778	-27.551142	-33.720535	-35.241266	-33.805168	-32.098490	-19.864821	-24.387392	-1.007160	3.158820	-1.953280	0.886228	-0.082214	0.435424	-1.000000	-1.000000	-1.000000	-1.000000	-1.000000	-1.000000	-1.000000	78.965517	0.000000	-1.000000	-1.000000	1017106.000000	1774905968.953251
13267.170000	-19806.300000	2429.280000	17087.535000	5956.110000	-42110.055000	-34054.965000	-24616.215000	-35.383393	-36.512082	-46.092725	-44.726799	-42.182823	-39.018497	-29.244418	-36.702325	-1.007160	3.158820	-1.953280	0.886228	-0.082214	0.435424	-1.000000	-1.000000	-1.000000	-1.000000	-1.000000	-1.000000	-1.000000	78.965517	0.000000	-1.000000	-1.000000	1017107.000000	1774905968.953257
13277.610000	-19800.360000	2422.170000	17088.030000	5947.920000	-42119.730000	-34063.785000	-24602.040000	-29.078002	-28.554941	-38.041198	-34.457411	-31.258459	-27.938289	-25.685349	-32.959367	-1.007160	3.158820	-1.953280	0.886228	-0.082214	0.435424	-1.000000	-1.000000	-1.000000	-1.000000	-1.000000	-1.000000	-1.000000	78.965517	0.000000	-1.000000	-1.000000	1017108.000000	1774905968.953262
13281.120000	-19814.985000	2428.830000	17092.485000	5949.045000	-42118.065000	-34066.755000	-24594.120000	-8.155731	-6.598355	-12.911831	-9.145954	-6.671462	-4.365565	-10.055070	-11.689070	-1.007160	3.158820	-1.953280	0.886228	-0.082214	0.435424	-1.000000	-1.000000	-1.000000	-1.000000	-1.000000	-1.000000	-1.000000	78.965517	0.000000	-1.000000	-1.000000	1017109.000000	1774905968.955264
13328.145000	-19780.560000	2437.200000	17120.565000	6006.735000	-42048.765000	-34011.675000	-24566.265000	16.025124	16.944245	15.031368	17.758278	18.531376	19.379880	9.267975	15.629524	-1.007160	3.158820	-1.953280	0.886228	-0.082214	0.435424	-1.000000	-1.000000	-1.000000	-1.000000	-1.000000	-1.000000	-1.000000	78.965517	0.000000	-1.000000	-1.000000	1017110.000000	1774905968.955276
13350.420000	-19744.335000	2443.410000	17134.740000	6031.395000	-42019.065000	-33986.565000	-24548.400000	32.317076	31.125915	31.253204	33.888175	34.076936	34.010058	23.659456	34.214174	-0.030520	3.448760	-2.884140	0.887266	-0.083008	0.438231	-1.000000	-1.000000	-1.000000	-1.000000	-1.000000	-1.000000	-1.000000	78.965517	0.000000	-1.000000	-1.000000	1017111.000000	1774905968.956062
13328.730000	-19747.845000	2458.350000	17125.515000	6001.740000	-42045.255000	-34014.555000	-24563.520000	35.782426	33.333041	31.787530	35.318618	36.561798	36.407213	28.591814	36.844537	-0.030520	3.448760	-2.884140	0.887266	-0.083008	0.438231	-1.000000	-1.000000	-1.000000	-1.000000	-1.000000	-1.000000	-1.000000	78.965517	0.000000	-1.000000	-1.000000	1017112.000000	1774905968.956073
13260.555000	-19810.215000	2461.050000	17093.205000	5945.085000	-42116.040000	-34063.425000	-24611.760000	25.846377	25.661890	23.698866	25.869360	27.102298	26.862282	23.156770	25.574957	-0.030520	3.448760	-2.884140	0.887266	-0.083008	0.438231	-1.000000	-1.000000	-1.000000	-1.000000	-1.000000	-1.000000	-1.000000	78.965517	0.000000	-1.000000	-1.000000	1017113.000000	1774905968.964080
13215.555000	-19831.635000	2453.130000	17089.110000	5934.735000	-42151.095000	-34072.920000	-24630.255000	5.871795	10.789261	15.290354	11.897024	9.748581	8.149986	9.770677	7.350620	-0.030520	3.448760	-2.884140	0.887266	-0.083008	0.438231	-1.000000	-1.000000	-1.000000	-1.000000	-1.000000	-1.000000	-1.000000	78.965517	0.000000	-1.000000	-1.000000	1017114.000000	1774905968.964089
13226.670000	-19799.640000	2461.410000	17106.210000	5955.435000	-42120.315000	-34052.805000	-24629.265000	-15.543393	-6.132322	8.892731	-1.055429	-8.334001	-12.628552	-5.479828	-9.824912	-0.030520	3.448760	-2.884140	0.887266	-0.083008	0.438231	-1.000000	-1.000000	-1.000000	-1.000000	-1.000000	-1.000000	-1.000000	78.965517	0.000000	-1.000000	-1.000000	1017115.000000	1774905968.964254
13259.070000	-19785.060000	2473.245000	17111.565000	5962.455000	-42111.315000	-34051.500000	-24633.990000	-27.626555	-17.288804	3.155514	-9.320408	-19.356890	-25.532065	-15.316128	-19.615442	-0.030520	3.448760	-2.884140	0.887266	-0.083008	0.438231	-1.000000	-1.000000	-1.000000	-1.000000	-1.000000	-1.000000	-1.000000	78.965517	0.000000	-1.000000	-1.000000	1017116.000000	1774905968.964264
13297.230000	-19789.065000	2467.395000	17112.150000	5969.880000	-42097.095000	-34044.390000	-24599.655000	-24.312515	-18.396861	-2.987008	-12.230234	-19.802119	-24.651834	-16.001896	-19.589389	-0.030520	3.448760	-2.884140	0.887266	-0.083008	0.438231	-1.000000	-1.000000	-1.000000	-1.000000	-1.000000	-1.000000	-1.000000	78.965517	0.000000	-1.000000	-1.000000	1017117.000000	1774905968.967986
13337.055000	-19771.695000	2487.465000	17137.710000	5999.265000	-42065.415000	-34020.495000	-24547.770000	-8.546403	-12.090023	-9.769933	-11.710391	-12.315223	-12.691127	-9.483924	-11.137367	-0.030520	3.448760	-2.884140	0.887266	-0.083008	0.438231	-1.000000	-1.000000	-1.000000	-1.000000	-1.000000	-1.000000	-1.000000	78.965517	0.000000	-1.000000	-1.000000	1017118.000000	1774905968.967994
13321.170000	-19772.460000	2482.065000	17133.210000	5997.195000	-42067.215000	-34025.220000	-24550.740000	9.125185	-4.603258	-16.423720	-10.285168	-3.507073	1.124354	-1.842315	0.895623	-0.030520	3.448760	-2.884140	0.887266	-0.083008	0.438231	-1.000000	-1.000000	-1.000000	-1.000000	-1.000000	-1.000000	-1.000000	78.965517	0.000000	-1.000000	-1.000000	1017119.000000	1774905968.976351
13300.695000	-19775.790000	2469.150000	17116.020000	5972.220000	-42105.690000	-34039.440000	-24570.675000	17.273706	-1.015799	-21.010350	-9.575604	0.652136	7.627968	1.214366	9.142439	-0.030520	3.448760	-2.884140	0.887266	-0.083008	0.438231	-1.000000	-1.000000	-1.000000	-1.000000	-1.000000	-1.000000	-1.000000	78.965517	0.000000	-1.000000	-1.000000	1017120.000000	1774905968.976364
13282.605000	-19790.190000	2449.440000	17095.455000	5950.395000	-42125.265000	-34055.010000	-24602.805000	12.518226	-1.482550	-21.329603	-9.004094	-0.207946	5.131292	-0.308701	9.019274	-0.900340	3.525060	-2.441600	0.890318	-0.081604	0.439269	-1.000000	-1.000000	-1.000000	-1.000000	-1.000000	-1.000000	-1.000000	78.965517	0.000000	-1.000000	-1.000000	1017121.000000	1774905968.976377
13287.510000	-19790.370000	2448.855000	17096.400000	5956.740000	-42113.070000	-34047.675000	-24598.215000	2.136861	-1.473064	-15.979882	-6.062031	-1.025967	0.659796	-1.255537	3.132667	-0.900340	3.525060	-2.441600	0.890318	-0.081604	0.439269	-1.000000	-1.000000	-1.000000	-1.000000	-1.000000	-1.000000	-1.000000	78.965517	0.000000	-1.000000	-1.000000	1017122.000000	1774905968.976383
13306.770000	-19771.875000	2467.890000	17115.885000	5977.710000	-42093.045000	-34030.800000	-24570.855000	-3.727888	2.564933	-5.151950	0.632822	2.369590	1.781161	2.000744	-1.757628	-0.900340	3.525060	-2.441600	0.890318	-0.081604	0.439269	-1.000000	-1.000000	-1.000000	-1.000000	-1.000000	-1.000000	-1.000000	78.965517	0.000000	-1.000000	-1.000000	1017123.000000	1774905968.979985
13299.660000	-19769.445000	2466.630000	17115.660000	5981.085000	-42090.840000	-34034.490000	-24579.090000	-2.234604	8.543888	8.309664	8.810594	8.384480	7.909230	7.385856	-1.689153	-0.900340	3.525060	-2.441600	0.890318	-0.081604	0.439269	-1.000000	-1.000000	-1.000000	-1.000000	-1.000000	-1.000000	-1.000000	78.965517	0.000000	-1.000000	-1.000000	1017124.000000	1774905968.979995
13290.210000	-19776.555000	2453.850000	17106.795000	5970.600000	-42100.110000	-34046.955000	-24595.965000	0.693514	11.004672	18.767930	13.754253	11.655392	11.899299	9.783802	0.970453	-0.900340	3.525060	-2.441600	0.890318	-0.081604	0.439269	-1.000000	-1.000000	-1.000000	-1.000000	-1.000000	-1.000000	-1.000000	78.965517	0.000000	-1.000000	-1.000000	1017125.000000	1774905968.983904
13281.525000	-19786.005000	2446.470000	17104.005000	5969.925000	-42093.495000	-34055.100000	-24612.795000	-1.720311	6.971508	20.884639	12.052430	8.396620	8.411223	6.110815	0.479633	-0.900340	3.525060	-2.441600	0.890318	-0.081604	0.439269	-1.000000	-1.000000	-1.000000	-1.000000	-1.000000	-1.000000	-1.000000	78.965517	0.000000	-1.000000	-1.000000	1017126.000000	1774905968.983912
13303.755000	-19760.265000	2484.855000	17143.470000	6004.620000	-42065.730000	-34038.630000	-24596.325000	-9.500754	-1.477429	14.152168	4.646201	-0.341842	-1.509269	-2.358973	-5.711411	-0.900340	3.525060	-2.441600	0.890318	-0.081604	0.439269	-1.000000	-1.000000	-1.000000	-1.000000	-1.000000	-1.000000	-1.000000	78.965517	0.000000	-1.000000	-1.000000	1017127.000000	1774905968.993054
13322.925000	-19732.905000	2524.455000	17171.685000	6028.695000	-42045.615000	-34010.055000	-24575.760000	-15.516631	-8.794357	4.321607	-2.986592	-8.770020	-11.397626	-10.281106	-12.852112	-0.900340	3.525060	-2.441600	0.890318	-0.081604	0.439269	-1.000000	-1.000000	-1.000000	-1.000000	-1.000000	-1.000000	-1.000000	78.965517	0.000000	-1.000000	-1.000000	1017128.000000	1774905968.993065
13297.995000	-19758.600000	2479.230000	17137.440000	5997.735000	-42071.265000	-34015.320000	-24595.065000	-12.644276	-10.262320	-2.023920	-5.532366	-10.784935	-14.180747	-11.455379	-13.044401	-0.900340	3.525060	-2.441600	0.890318	-0.081604	0.439269	-1.000000	-1.000000	-1.000000	-1.000000	-1.000000	-1.000000	-1.000000	78.965517	0.000000	-1.000000	-1.000000	1017129.000000	1774905968.993077
13289.985000	-19763.955000	2452.725000	17128.305000	5994.090000	-42071.220000	-34020.990000	-24601.815000	-1.269226	-5.838306	-4.365497	-3.174980	-5.694445	-8.224640	-4.520279	-3.844763	-0.900340	3.525060	-2.441600	0.890318	-0.081604	0.439269	-1.000000	-1.000000	-1.000000	-1.000000	-1.000000	-1.000000	-1.000000	78.965517	0.000000	-1.000000	-1.000000	1017130.000000	1774905968.993082
13339.125000	-19723.230000	2500.155000	17168.220000	6034.140000	-42034.275000	-33997.275000	-24538.455000	12.313062	1.342296	-5.474376	0.463652	2.298906	2.117599	5.583855	10.063752	-2.746800	3.799740	-0.885080	0.890867	-0.083191	0.439330	-1.000000	-1.000000	-1.000000	-1.000000	-1.000000	-1.000000	-1.000000	78.965517	0.000000	-1.000000	-1.000000	1017131.000000	1774905968.995996
13409.145000	-19670.805000	2576.520000	17221.320000	6082.785000	-41990.580000	-33954.525000	-24446.160000	22.612862	8.513450	-4.483262	3.579323	9.030729	11.193885	12.735221	22.771228	-2.746800	3.799740	-0.885080	0.890867	-0.083191	0.439330	-1.000000	-1.000000	-1.000000	-1.000000	-1.000000	-1.000000	-1.000000	78.965517	0.000000	-1.000000	-1.000000	1017132.000000	1774905968.996006
13386.420000	-19684.665000	2582.190000	17214.480000	6068.205000	-42009.975000	-33980.265000	-24494.130000	26.258288	13.146384	0.917623	5.954354	11.984311	14.853053	13.822587	29.508903	-2.746800	3.799740	-0.885080	0.890867	-0.083191	0.439330	-1.000000	-1.000000	-1.000000	-1.000000	-1.000000	-1.000000	-1.000000	78.965517	0.000000	-1.000000	-1.000000	1017133.000000	1774905969.000113
13309.200000	-19759.590000	2505.105000	17139.960000	5999.400000	-42071.850000	-34035.930000	-24584.310000	19.110057	11.251208	6.991057	5.087977	8.468341	10.068570	7.714516	23.776475	-2.746800	3.799740	-0.885080	0.890867	-0.083191	0.439330	-1.000000	-1.000000	-1.000000	-1.000000	-1.000000	-1.000000	-1.000000	78.965517	0.000000	-1.000000	-1.000000	1017134.000000	1774905969.000123
13209.075000	-19830.915000	2420.955000	17058.465000	5920.740000	-42145.515000	-34068.240000	-24655.365000	-1.764191	-0.653971	4.418880	-3.672511	-4.077870	-4.471856	-5.195174	1.264202	-2.746800	3.799740	-0.885080	0.890867	-0.083191	0.439330	-1.000000	-1.000000	-1.000000	-1.000000	-1.000000	-1.000000	-1.000000	78.965517	0.000000	-1.000000	-1.000000	1017135.000000	1774905969.004104
13242.330000	-19792.395000	2440.170000	17084.745000	5946.615000	-42119.775000	-34040.790000	-24613.065000	-30.173350	-19.176302	-10.508802	-19.761213	-22.611983	-24.056942	-19.894356	-29.988662	-2.746800	3.799740	-0.885080	0.890867	-0.083191	0.439330	-1.000000	-1.000000	-1.000000	-1.000000	-1.000000	-1.000000	-1.000000	78.965517	0.000000	-1.000000	-1.000000	1017136.000000	1774905969.004114
13294.395000	-19757.205000	2453.670000	17124.480000	5990.355000	-42076.575000	-34017.930000	-24576.840000	-48.300999	-31.643638	-27.566013	-31.739725	-34.582865	-35.475363	-26.934861	-50.030573	-2.746800	3.799740	-0.885080	0.890867	-0.083191	0.439330	-1.000000	-1.000000	-1.000000	-1.000000	-1.000000	-1.000000	-1.000000	78.965517	0.000000	-1.000000	-1.000000	1017137.000000	1774905969.009863
13298.265000	-19771.695000	2449.170000	17123.850000	5989.995000	-42074.820000	-34024.815000	-24581.745000	-40.004606	-26.151331	-30.656037	-25.996844	-26.910490	-26.416895	-19.740197	-43.157735	-2.746800	3.799740	-0.885080	0.890867	-0.083191	0.439330	-1.000000	-1.000000	-1.000000	-1.000000	-1.000000	-1.000000	-1.000000	78.965517	0.000000	-1.000000	-1.000000	1017138.000000	1774905969.009875
13250.070000	-19820.205000	2433.330000	17073.630000	5932.485000	-42130.710000	-34066.665000	-24625.620000	-8.570415	-4.993998	-14.361131	-2.936101	-1.736528	-0.270365	-2.047660	-13.522624	-2.746800	3.799740	-0.885080	0.890867	-0.083191	0.439330	-1.000000	-1.000000	-1.000000	-1.000000	-1.000000	-1.000000	-1.000000	78.965517	0.000000	-1.000000	-1.000000	1017139.000000	1774905969.011987
13228.785000	-19857.240000	2424.150000	17061.885000	5922.090000	-42135.120000	-34076.745000	-24653.340000	23.898078	15.897878	10.179311	21.076674	22.886046	24.464798	13.978551	17.291129	-2.746800	3.799740	-0.885080	0.890867	-0.083191	0.439330	-1.000000	-1.000000	-1.000000	-1.000000	-1.000000	-1.000000	-1.000000	78.965517	0.000000	-1.000000	-1.000000	1017140.000000	1774905969.011998
13268.295000	-19830.870000	2436.525000	17084.295000	5954.535000	-42099.795000	-34051.005000	-24624.900000	37.233879	22.692453	26.288591	30.343266	31.299532	32.586787	19.118194	30.140866	-0.946120	3.219860	-1.251320	0.888486	-0.087036	0.439696	-1.000000	-1.000000	-1.000000	-1.000000	-1.000000	-1.000000	-1.000000	78.965517	0.000000	-1.000000	-1.000000	1017141.000000	1774905969.016012
13286.475000	-19813.005000	2419.650000	17067.195000	5935.320000	-42141.465000	-34053.975000	-24609.555000	30.614613	16.895448	27.068371	23.914133	23.989882	24.647390	15.218621	25.376645	-0.946120	3.219860	-1.251320	0.888486	-0.087036	0.439696	-1.000000	-1.000000	-1.000000	-1.000000	-1.000000	-1.000000	-1.000000	78.965517	0.000000	-1.000000	-1.000000	1017142.000000	1774905969.016019
13292.640000	-19810.305000	2412.045000	17073.900000	5940.315000	-42131.475000	-34055.595000	-24601.635000	17.822362	10.578220	18.576098	12.271343	12.077815	11.015380	10.169311	17.310970	-0.946120	3.219860	-1.251320	0.888486	-0.087036	0.439696	-1.000000	-1.000000	-1.000000	-1.000000	-1.000000	-1.000000	-1.000000	78.965517	0.000000	-1.000000	-1.000000	1017143.000000	1774905969.020040
13297.005000	-19799.145000	2450.205000	17098.560000	5956.560000	-42113.475000	-34052.715000	-24592.140000	10.136792	11.090069	10.700558	5.405764	4.852353	1.303369	7.997207	15.306975	-0.946120	3.219860	-1.251320	0.888486	-0.087036	0.439696	-1.000000	-1.000000	-1.000000	-1.000000	-1.000000	-1.000000	-1.000000	78.965517	0.000000	-1.000000	-1.000000	1017144.000000	1774905969.020049
13299.705000	-19783.800000	2474.325000	17115.210000	5972.220000	-42096.015000	-34040.115000	-24592.500000	6.962191	14.268508	7.608591	4.675222	3.175104	-1.629845	6.423597	15.581558	-0.946120	3.219860	-1.251320	0.888486	-0.087036	0.439696	-1.000000	-1.000000	-1.000000	-1.000000	-1.000000	-1.000000	-1.000000	78.965517	0.000000	-1.000000	-1.000000	1017145.000000	1774905969.025700
13306.320000	-19777.365000	2480.715000	17129.610000	5991.480000	-42073.965000	-34021.800000	-24574.185000	1.276190	11.970898	6.488835	4.490186	2.086778	-1.347172	2.359355	10.009183	-0.946120	3.219860	-1.251320	0.888486	-0.087036	0.439696	-1.000000	-1.000000	-1.000000	-1.000000	-1.000000	-1.000000	-1.000000	78.965517	0.000000	-1.000000	-1.000000	1017146.000000	1774905969.025710
13323.870000	-19762.155000	2499.210000	17148.735000	6013.350000	-42052.905000	-33998.130000	-24547.545000	-8.635408	2.751464	3.562927	1.123631	-1.035851	-1.167732	-2.820102	-1.698216	-0.946120	3.219860	-1.251320	0.888486	-0.087036	0.439696	-1.000000	-1.000000	-1.000000	-1.000000	-1.000000	-1.000000	-1.000000	78.965517	0.000000	-1.000000	-1.000000	1017147.000000	1774905969.030637
13324.995000	-19755.180000	2505.555000	17158.860000	6024.960000	-42039.720000	-33989.310000	-24539.265000	-16.890074	-7.434042	-1.859024	-3.641232	-4.024185	-0.906303	-5.142371	-12.247273	-0.946120	3.219860	-1.251320	0.888486	-0.087036	0.439696	-1.000000	-1.000000	-1.000000	-1.000000	-1.000000	-1.000000	-1.000000	78.965517	0.000000	-1.000000	-1.000000	1017148.000000	1774905969.030647
13329.495000	-19722.825000	2515.095000	17164.395000	6024.150000	-42043.455000	-34001.415000	-24549.795000	-18.668374	-12.794544	-8.755339	-7.439850	-5.519556	-0.945909	-4.221178	-16.829519	-0.946120	3.219860	-1.251320	0.888486	-0.087036	0.439696	-1.000000	-1.000000	-1.000000	-1.000000	-1.000000	-1.000000	-1.000000	78.965517	0.000000	-1.000000	-1.000000	1017149.000000	1774905969.035306
13286.925000	-19736.235000	2491.200000	17130.015000	5983.470000	-42086.430000	-34031.340000	-24590.025000	-15.909187	-12.919153	-15.774815	-10.922671	-7.993266	-4.188703	-4.297145	-17.508542	-0.946120	3.219860	-1.251320	0.888486	-0.087036	0.439696	-1.000000	-1.000000	-1.000000	-1.000000	-1.000000	-1.000000	-1.000000	78.965517	0.000000	-1.000000	-1.000000	1017150.000000	1774905969.035316
13255.020000	-19789.065000	2446.335000	17087.310000	5945.805000	-42119.910000	-34051.950000	-24616.530000	-13.303194	-11.767590	-20.823139	-15.153237	-13.300818	-11.400165	-8.162916	-17.838486	-1.831200	3.509800	-0.854560	0.890989	-0.086609	0.439635	-1.000000	-1.000000	-1.000000	-1.000000	-1.000000	-1.000000	-1.000000	78.965517	0.000000	-1.000000	-1.000000	1017151.000000	1774905969.036087
13272.795000	-19798.065000	2436.255000	17084.475000	5947.200000	-42118.785000	-34054.515000	-24607.710000	-11.296528	-12.600045	-21.570121	-18.481719	-18.537514	-18.287836	-13.129033	-17.165964	-1.831200	3.509800	-0.854560	0.890989	-0.086609	0.439635	-1.000000	-1.000000	-1.000000	-1.000000	-1.000000	-1.000000	-1.000000	78.965517	0.000000	-1.000000	-1.000000	1017152.000000	1774905969.036096
