Channel1	Channel2	Channel3	Channel4	Channel5	Channel6	Channel7	Channel8	FilteredChannel1	FilteredChannel2	FilteredChannel3	FilteredChannel4	FilteredChannel5	FilteredChannel6	FilteredChannel7	FilteredChannel8	GyroX	GyroY	GyroZ	AccX	AccY	AccZ	PPG1	PPG2	rawPPG1	rawPPG2	rawPPG3	Hr	Hrv	Battery	Trigger	PhysicalTrigger	AutoTrigger	NumMeasurements	Timestamp
19588.500000	-3094.200000	24479.460000	30982.005000	12573.225000	-47599.200000	-41815.980000	-17736.570000	2.733014	3.423830	10.048761	6.309496	4.705452	4.167533	2.093409	-6.595290	-4.623780	5.249440	-1.083460	0.869383	-0.263366	0.408202	-1.000000	-1.000000	-1.000000	-1.000000	-1.000000	-1.000000	-1.000000	84.000000	0.000000	-1.000000	-1.000000	425988.000000	1774904786.467453
19621.260000	-3025.170000	24534.360000	31046.985000	12635.460000	-47540.655000	-41758.785000	-17668.215000	-2.430680	-2.375621	3.885798	1.739846	1.406355	0.724623	1.573768	-7.762701	-4.623780	5.249440	-1.083460	0.869383	-0.263366	0.408202	-1.000000	-1.000000	-1.000000	-1.000000	-1.000000	-1.000000	-1.000000	84.000000	0.000000	-1.000000	-1.000000	425989.000000	1774904786.479113
19634.445000	-3009.420000	24550.020000	31067.010000	12654.585000	-47520.945000	-41742.855000	-17654.265000	-4.014675	-1.886682	0.148822	0.659656	1.176408	0.017481	2.280541	-3.172214	-4.623780	5.249440	-1.083460	0.869383	-0.263366	0.408202	-1.000000	-1.000000	-1.000000	-1.000000	-1.000000	-1.000000	-1.000000	84.000000	0.000000	-1.000000	-1.000000	425990.000000	1774904786.479127
19613.970000	-3051.090000	24509.250000	31011.930000	12600.720000	-47572.065000	-41793.030000	-17711.955000	-0.179783	5.544273	1.487681	4.220901	5.197181	3.820814	4.467225	3.895861	-1.907500	4.898460	-1.129240	0.868833	-0.267822	0.408324	-1.000000	-1.000000	-1.000000	-1.000000	-1.000000	-1.000000	-1.000000	84.000000	0.000000	-1.000000	-1.000000	425991.000000	1774904786.479139
19554.570000	-3136.680000	24429.555000	30919.995000	12520.305000	-47646.630000	-41858.955000	-17801.865000	3.745119	9.402303	1.238480	3.944622	5.550557	4.846420	2.841040	5.684669	-1.907500	4.898460	-1.129240	0.868833	-0.267822	0.408324	-1.000000	-1.000000	-1.000000	-1.000000	-1.000000	-1.000000	-1.000000	84.000000	0.000000	-1.000000	-1.000000	425992.000000	1774904786.479144
19532.655000	-3168.630000	24390.315000	30879.855000	12485.880000	-47677.995000	-41881.770000	-17805.420000	-0.533097	-1.620753	-9.823142	-9.485855	-6.592121	-5.699038	-7.389609	-3.298304	-1.907500	4.898460	-1.129240	0.868833	-0.267822	0.408324	-1.000000	-1.000000	-1.000000	-1.000000	-1.000000	-1.000000	-1.000000	84.000000	0.000000	-1.000000	-1.000000	425993.000000	1774904786.479524
19565.550000	-3155.715000	24389.010000	30889.935000	12492.675000	-47670.030000	-41876.055000	-17761.410000	-12.573139	-23.764170	-28.956640	-31.063742	-26.892977	-24.271590	-21.419259	-17.005551	-1.907500	4.898460	-1.129240	0.868833	-0.267822	0.408324	-1.000000	-1.000000	-1.000000	-1.000000	-1.000000	-1.000000	-1.000000	84.000000	0.000000	-1.000000	-1.000000	425994.000000	1774904786.479534
19605.285000	-3130.245000	24398.685000	30910.320000	12509.145000	-47657.385000	-41866.785000	-17760.420000	-21.272049	-39.058273	-41.267554	-43.311136	-39.379072	-36.055222	-27.642936	-22.027647	-1.907500	4.898460	-1.129240	0.868833	-0.267822	0.408324	-1.000000	-1.000000	-1.000000	-1.000000	-1.000000	-1.000000	-1.000000	84.000000	0.000000	-1.000000	-1.000000	425995.000000	1774904786.483799
19606.770000	-3101.040000	24418.620000	30931.245000	12526.200000	-47644.515000	-41865.480000	-17778.015000	-17.081103	-32.887350	-34.664931	-33.875024	-32.363085	-30.008391	-19.440525	-12.544809	-1.907500	4.898460	-1.129240	0.868833	-0.267822	0.408324	-1.000000	-1.000000	-1.000000	-1.000000	-1.000000	-1.000000	-1.000000	84.000000	0.000000	-1.000000	-1.000000	425996.000000	1774904786.483811
19608.120000	-3090.285000	24454.215000	30955.680000	12544.695000	-47625.885000	-41852.295000	-17741.295000	-2.002470	-7.328894	-10.241320	-6.437350	-8.607728	-8.461494	-1.175400	4.575031	-1.907500	4.898460	-1.129240	0.868833	-0.267822	0.408324	-1.000000	-1.000000	-1.000000	-1.000000	-1.000000	-1.000000	-1.000000	84.000000	0.000000	-1.000000	-1.000000	425997.000000	1774904786.487337
19615.545000	-3088.845000	24482.520000	30975.885000	12564.045000	-47607.795000	-41827.590000	-17723.745000	13.689954	21.649309	20.206742	24.109354	18.784176	16.745725	16.759629	18.249505	-1.907500	4.898460	-1.129240	0.868833	-0.267822	0.408324	-1.000000	-1.000000	-1.000000	-1.000000	-1.000000	-1.000000	-1.000000	84.000000	0.000000	-1.000000	-1.000000	425998.000000	1774904786.487348
19606.185000	-3093.390000	24460.740000	30957.705000	12548.745000	-47621.475000	-41823.720000	-17731.125000	21.349796	38.276639	42.850548	43.400331	37.072799	33.996166	26.773886	22.375090	-1.907500	4.898460	-1.129240	0.868833	-0.267822	0.408324	-1.000000	-1.000000	-1.000000	-1.000000	-1.000000	-1.000000	-1.000000	84.000000	0.000000	-1.000000	-1.000000	425999.000000	1774904786.491556
19593.855000	-3108.915000	24435.135000	30940.245000	12532.410000	-47636.685000	-41826.510000	-17727.795000	19.185138	37.735199	48.790963	45.455580	40.825983	38.115455	27.860585	18.756360	-1.907500	4.898460	-1.129240	0.868833	-0.267822	0.408324	-1.000000	-1.000000	-1.000000	-1.000000	-1.000000	-1.000000	-1.000000	84.000000	0.000000	-1.000000	-1.000000	426000.000000	1774904786.491568
19605.780000	-3093.030000	24455.970000	30960.585000	12551.715000	-47618.595000	-41827.095000	-17722.890000	10.988137	25.289218	37.661419	33.491880	32.206497	30.722315	22.727743	13.153624	0.030520	4.852680	-1.129240	0.868955	-0.270385	0.409179	-1.000000	-1.000000	-1.000000	-1.000000	-1.000000	-1.000000	-1.000000	84.000000	0.000000	-1.000000	-1.000000	426001.000000	1774904786.498180
19612.980000	-3082.770000	24473.925000	30974.445000	12566.160000	-47603.745000	-41826.195000	-17717.535000	2.065714	9.330864	17.121096	15.567298	17.366263	17.155280	13.732791	8.064101	0.030520	4.852680	-1.129240	0.868955	-0.270385	0.409179	-1.000000	-1.000000	-1.000000	-1.000000	-1.000000	-1.000000	-1.000000	84.000000	0.000000	-1.000000	-1.000000	426002.000000	1774904786.498193
19612.530000	-3082.860000	24478.335000	30977.955000	12570.435000	-47596.635000	-41815.080000	-17714.925000	-5.105725	-4.682824	-3.486676	-1.863287	1.604472	2.289456	2.201792	1.203199	0.030520	4.852680	-1.129240	0.868955	-0.270385	0.409179	-1.000000	-1.000000	-1.000000	-1.000000	-1.000000	-1.000000	-1.000000	84.000000	0.000000	-1.000000	-1.000000	426003.000000	1774904786.499429
19594.845000	-3098.925000	24463.170000	30967.830000	12558.960000	-47608.200000	-41818.320000	-17737.605000	-11.227753	-15.618795	-19.189316	-16.570787	-12.786787	-11.442318	-9.880669	-8.689696	0.030520	4.852680	-1.129240	0.868955	-0.270385	0.409179	-1.000000	-1.000000	-1.000000	-1.000000	-1.000000	-1.000000	-1.000000	84.000000	0.000000	-1.000000	-1.000000	426004.000000	1774904786.499440
19602.225000	-3096.270000	24449.310000	30957.435000	12554.235000	-47613.330000	-41824.800000	-17727.300000	-16.018638	-23.535342	-29.242050	-27.900480	-24.581933	-22.660630	-19.614791	-18.415202	0.030520	4.852680	-1.129240	0.868955	-0.270385	0.409179	-1.000000	-1.000000	-1.000000	-1.000000	-1.000000	-1.000000	-1.000000	84.000000	0.000000	-1.000000	-1.000000	426005.000000	1774904786.504434
19594.080000	-3097.980000	24420.915000	30942.000000	12553.650000	-47612.880000	-41828.040000	-17741.520000	-16.777682	-26.901794	-34.183018	-34.338963	-31.539335	-29.350322	-24.749138	-23.821686	0.030520	4.852680	-1.129240	0.868955	-0.270385	0.409179	-1.000000	-1.000000	-1.000000	-1.000000	-1.000000	-1.000000	-1.000000	84.000000	0.000000	-1.000000	-1.000000	426006.000000	1774904786.504448
19588.545000	-3094.650000	24426.405000	30946.680000	12551.130000	-47617.650000	-41832.765000	-17754.930000	-11.877923	-23.281016	-33.194587	-33.314351	-30.763059	-28.964537	-24.308523	-23.302614	0.030520	4.852680	-1.129240	0.868955	-0.270385	0.409179	-1.000000	-1.000000	-1.000000	-1.000000	-1.000000	-1.000000	-1.000000	84.000000	0.000000	-1.000000	-1.000000	426007.000000	1774904786.508370
19580.355000	-3100.005000	24452.865000	30954.555000	12541.905000	-47627.820000	-41845.095000	-17770.545000	-2.730889	-11.991591	-22.937258	-22.153739	-20.596502	-19.969623	-17.975559	-16.670876	0.030520	4.852680	-1.129240	0.868955	-0.270385	0.409179	-1.000000	-1.000000	-1.000000	-1.000000	-1.000000	-1.000000	-1.000000	84.000000	0.000000	-1.000000	-1.000000	426008.000000	1774904786.508382
19558.395000	-3128.130000	24439.680000	30928.275000	12518.010000	-47647.080000	-41860.305000	-17791.470000	7.162347	3.533581	-2.372917	-2.089999	-3.408629	-4.355237	-6.661880	-4.778951	0.030520	4.852680	-1.129240	0.868955	-0.270385	0.409179	-1.000000	-1.000000	-1.000000	-1.000000	-1.000000	-1.000000	-1.000000	84.000000	0.000000	-1.000000	-1.000000	426009.000000	1774904786.511499
19571.265000	-3117.645000	24444.360000	30943.305000	12532.815000	-47631.195000	-41837.715000	-17773.650000	13.684419	16.434777	20.928678	18.784343	13.754857	11.692979	6.643592	8.890917	0.030520	4.852680	-1.129240	0.868955	-0.270385	0.409179	-1.000000	-1.000000	-1.000000	-1.000000	-1.000000	-1.000000	-1.000000	84.000000	0.000000	-1.000000	-1.000000	426010.000000	1774904786.511509
19586.430000	-3101.175000	24453.270000	30958.650000	12548.295000	-47617.380000	-41821.875000	-17751.420000	14.625751	21.414869	34.986752	30.869223	23.836031	21.691768	17.989605	19.625490	-1.266580	4.211760	-2.182180	0.866880	-0.265197	0.409606	-1.000000	-1.000000	-1.000000	-1.000000	-1.000000	-1.000000	-1.000000	84.000000	0.000000	-1.000000	-1.000000	426011.000000	1774904786.515490
19574.595000	-3109.590000	24446.475000	30952.260000	12540.195000	-47626.020000	-41827.995000	-17750.565000	10.749011	18.214987	33.490018	30.093159	24.226603	22.794398	23.569242	24.282540	-1.266580	4.211760	-2.182180	0.866880	-0.265197	0.409606	-1.000000	-1.000000	-1.000000	-1.000000	-1.000000	-1.000000	-1.000000	84.000000	0.000000	-1.000000	-1.000000	426012.000000	1774904786.515501
19579.320000	-3104.685000	24459.930000	30964.455000	12553.875000	-47615.805000	-41828.220000	-17740.890000	4.402023	9.965164	19.407247	18.885447	16.739837	16.218951	20.930288	22.195984	-1.266580	4.211760	-2.182180	0.866880	-0.265197	0.409606	-1.000000	-1.000000	-1.000000	-1.000000	-1.000000	-1.000000	-1.000000	84.000000	0.000000	-1.000000	-1.000000	426013.000000	1774904786.519379
19581.525000	-3106.845000	24449.985000	30962.610000	12557.475000	-47611.260000	-41824.530000	-17742.825000	-1.620461	0.555663	1.331168	3.700802	5.872972	6.053189	11.208213	14.390000	-1.266580	4.211760	-2.182180	0.866880	-0.265197	0.409606	-1.000000	-1.000000	-1.000000	-1.000000	-1.000000	-1.000000	-1.000000	84.000000	0.000000	-1.000000	-1.000000	426014.000000	1774904786.519389
19592.685000	-3079.845000	24467.310000	30975.750000	12571.335000	-47597.130000	-41811.840000	-17750.745000	-4.986665	-6.400386	-12.341473	-8.632573	-3.579744	-2.992026	-0.889172	2.913273	-1.266580	4.211760	-2.182180	0.866880	-0.265197	0.409606	-1.000000	-1.000000	-1.000000	-1.000000	-1.000000	-1.000000	-1.000000	84.000000	0.000000	-1.000000	-1.000000	426015.000000	1774904786.523584
19594.620000	-3065.490000	24476.760000	30979.440000	12572.505000	-47594.655000	-41817.555000	-17765.505000	-4.716011	-8.134231	-17.144225	-14.037014	-8.446965	-7.608105	-9.932583	-8.627549	-1.266580	4.211760	-2.182180	0.866880	-0.265197	0.409606	-1.000000	-1.000000	-1.000000	-1.000000	-1.000000	-1.000000	-1.000000	84.000000	0.000000	-1.000000	-1.000000	426016.000000	1774904786.523594
19607.850000	-3078.135000	24476.175000	30974.130000	12564.945000	-47602.260000	-41829.120000	-17750.835000	-1.404576	-4.455076	-13.618854	-12.240195	-7.933464	-6.940891	-12.834135	-15.535782	-1.266580	4.211760	-2.182180	0.866880	-0.265197	0.409606	-1.000000	-1.000000	-1.000000	-1.000000	-1.000000	-1.000000	-1.000000	84.000000	0.000000	-1.000000	-1.000000	426017.000000	1774904786.527428
19593.405000	-3114.810000	24445.980000	30952.485000	12543.435000	-47622.600000	-41841.045000	-17712.315000	2.735601	0.783228	-6.455721	-6.448484	-4.289957	-3.399950	-10.328866	-14.348734	-1.266580	4.211760	-2.182180	0.866880	-0.265197	0.409606	-1.000000	-1.000000	-1.000000	-1.000000	-1.000000	-1.000000	-1.000000	84.000000	0.000000	-1.000000	-1.000000	426018.000000	1774904786.527438
19601.505000	-3096.180000	24450.255000	30953.070000	12541.320000	-47625.030000	-41837.940000	-17714.880000	4.267000	2.344066	-1.261707	-1.599231	-1.818924	-1.378098	-5.918462	-6.254898	-1.266580	4.211760	-2.182180	0.866880	-0.265197	0.409606	-1.000000	-1.000000	-1.000000	-1.000000	-1.000000	-1.000000	-1.000000	84.000000	0.000000	-1.000000	-1.000000	426019.000000	1774904786.531420
19618.380000	-3061.665000	24480.585000	30980.655000	12569.310000	-47597.985000	-41811.705000	-17712.495000	1.413308	-0.586090	0.040043	-0.376287	-2.627853	-2.777611	-2.406695	2.257825	-1.266580	4.211760	-2.182180	0.866880	-0.265197	0.409606	-1.000000	-1.000000	-1.000000	-1.000000	-1.000000	-1.000000	-1.000000	84.000000	0.000000	-1.000000	-1.000000	426020.000000	1774904786.531431
19599.030000	-3053.205000	24498.180000	31000.995000	12598.785000	-47569.275000	-41787.405000	-17721.675000	-3.729946	-3.607387	0.267637	-0.761764	-3.922367	-4.478241	0.624821	5.148272	-3.631880	3.586100	-2.456860	0.863889	-0.260192	0.409301	-1.000000	-1.000000	-1.000000	-1.000000	-1.000000	-1.000000	-1.000000	84.000000	0.000000	-1.000000	-1.000000	426021.000000	1774904786.544614
19610.325000	-3051.540000	24485.625000	30989.610000	12593.205000	-47573.595000	-41785.335000	-17714.115000	-7.749177	-3.303270	1.987856	0.147929	-2.279401	-2.831997	4.446095	1.864432	-3.631880	3.586100	-2.456860	0.863889	-0.260192	0.409301	-1.000000	-1.000000	-1.000000	-1.000000	-1.000000	-1.000000	-1.000000	84.000000	0.000000	-1.000000	-1.000000	426022.000000	1774904786.544627
19624.455000	-3053.385000	24475.230000	30990.195000	12588.255000	-47576.835000	-41789.610000	-17693.370000	-8.433379	-0.883965	3.904800	1.917076	1.209905	1.063932	7.531426	-3.500701	-3.631880	3.586100	-2.456860	0.863889	-0.260192	0.409301	-1.000000	-1.000000	-1.000000	-1.000000	-1.000000	-1.000000	-1.000000	84.000000	0.000000	-1.000000	-1.000000	426023.000000	1774904786.544641
19617.435000	-3076.470000	24482.475000	30981.510000	12568.860000	-47596.860000	-41829.255000	-17719.470000	-5.354582	0.135384	3.553261	2.394434	2.769651	3.144489	6.464534	-6.101748	-3.631880	3.586100	-2.456860	0.863889	-0.260192	0.409301	-1.000000	-1.000000	-1.000000	-1.000000	-1.000000	-1.000000	-1.000000	84.000000	0.000000	-1.000000	-1.000000	426024.000000	1774904786.544647
19625.310000	-3066.885000	24499.035000	30990.105000	12574.035000	-47594.655000	-41838.930000	-17725.455000	-0.301925	-1.944866	1.013811	1.045428	1.003748	1.573440	0.214856	-4.494728	-3.631880	3.586100	-2.456860	0.863889	-0.260192	0.409301	-1.000000	-1.000000	-1.000000	-1.000000	-1.000000	-1.000000	-1.000000	84.000000	0.000000	-1.000000	-1.000000	426025.000000	1774904786.544652
19585.980000	-3112.875000	24436.215000	30932.280000	12523.005000	-47645.505000	-41857.515000	-17736.480000	3.663049	-4.946174	-1.888247	-1.051156	-2.151909	-1.983829	-7.523850	-1.158897	-3.631880	3.586100	-2.456860	0.863889	-0.260192	0.409301	-1.000000	-1.000000	-1.000000	-1.000000	-1.000000	-1.000000	-1.000000	84.000000	0.000000	-1.000000	-1.000000	426026.000000	1774904786.544657
19580.355000	-3123.720000	24419.745000	30922.785000	12521.385000	-47643.705000	-41835.105000	-17723.115000	4.046724	-5.879102	-4.534252	-3.299331	-4.517952	-5.086368	-11.139387	0.751701	-3.631880	3.586100	-2.456860	0.863889	-0.260192	0.409301	-1.000000	-1.000000	-1.000000	-1.000000	-1.000000	-1.000000	-1.000000	84.000000	0.000000	-1.000000	-1.000000	426027.000000	1774904786.547577
19572.840000	-3121.155000	24427.125000	30930.165000	12525.255000	-47641.050000	-41828.040000	-17727.660000	0.734063	-4.417079	-6.733915	-5.217368	-4.996998	-5.989199	-7.934816	0.479642	-3.631880	3.586100	-2.456860	0.863889	-0.260192	0.409301	-1.000000	-1.000000	-1.000000	-1.000000	-1.000000	-1.000000	-1.000000	84.000000	0.000000	-1.000000	-1.000000	426028.000000	1774904786.547589
19560.015000	-3128.625000	24425.640000	30928.815000	12521.160000	-47644.200000	-41840.460000	-17763.885000	-3.703679	-1.997619	-7.170863	-5.518921	-3.420192	-4.150100	-0.530340	-0.726537	-3.631880	3.586100	-2.456860	0.863889	-0.260192	0.409301	-1.000000	-1.000000	-1.000000	-1.000000	-1.000000	-1.000000	-1.000000	84.000000	0.000000	-1.000000	-1.000000	426029.000000	1774904786.551361
19549.350000	-3133.845000	24421.545000	30924.000000	12513.510000	-47651.040000	-41850.990000	-17786.115000	-5.951818	0.323459	-4.873353	-3.564967	-0.967050	-0.918222	5.324662	-2.124860	-3.631880	3.586100	-2.456860	0.863889	-0.260192	0.409301	-1.000000	-1.000000	-1.000000	-1.000000	-1.000000	-1.000000	-1.000000	84.000000	0.000000	-1.000000	-1.000000	426030.000000	1774904786.551376
19556.505000	-3119.265000	24431.085000	30931.695000	12522.780000	-47641.815000	-41843.835000	-17771.040000	-4.326505	2.770810	0.108678	0.311855	1.373541	2.221495	6.328446	-3.222571	-3.143560	4.074420	-1.968540	0.865049	-0.259643	0.408690	-1.000000	-1.000000	-1.000000	-1.000000	-1.000000	-1.000000	-1.000000	84.000000	0.000000	-1.000000	-1.000000	426031.000000	1774904786.555465
19585.620000	-3089.160000	24450.210000	30946.050000	12548.385000	-47616.390000	-41825.070000	-17738.280000	0.740669	6.462006	7.032134	5.537587	4.443001	5.587787	4.511889	-1.889457	-3.143560	4.074420	-1.968540	0.865049	-0.259643	0.408690	-1.000000	-1.000000	-1.000000	-1.000000	-1.000000	-1.000000	-1.000000	84.000000	0.000000	-1.000000	-1.000000	426032.000000	1774904786.555474
19602.855000	-3086.415000	24439.995000	30949.155000	12562.245000	-47601.180000	-41816.700000	-17722.575000	7.763208	11.455933	13.211916	10.644149	9.183053	9.984307	4.277014	4.241899	-3.143560	4.074420	-1.968540	0.865049	-0.259643	0.408690	-1.000000	-1.000000	-1.000000	-1.000000	-1.000000	-1.000000	-1.000000	84.000000	0.000000	-1.000000	-1.000000	426033.000000	1774904786.559527
19602.225000	-3073.140000	24441.795000	30953.385000	12559.770000	-47604.060000	-41820.390000	-17714.070000	14.110063	15.423238	14.856208	13.426127	14.053461	14.222481	7.117161	13.585845	-3.143560	4.074420	-1.968540	0.865049	-0.259643	0.408690	-1.000000	-1.000000	-1.000000	-1.000000	-1.000000	-1.000000	-1.000000	84.000000	0.000000	-1.000000	-1.000000	426034.000000	1774904786.559537
19585.530000	-3059.820000	24461.505000	30978.225000	12572.955000	-47592.765000	-41824.575000	-17728.065000	16.290047	15.969960	11.774857	13.280693	16.019447	15.616522	9.833785	19.642165	-3.143560	4.074420	-1.968540	0.865049	-0.259643	0.408690	-1.000000	-1.000000	-1.000000	-1.000000	-1.000000	-1.000000	-1.000000	84.000000	0.000000	-1.000000	-1.000000	426035.000000	1774904786.564558
19591.065000	-3074.535000	24481.260000	30990.870000	12579.435000	-47588.085000	-41826.555000	-17746.920000	12.137923	12.036630	7.477715	11.121386	13.088682	12.207507	7.895321	15.950656	-3.143560	4.074420	-1.968540	0.865049	-0.259643	0.408690	-1.000000	-1.000000	-1.000000	-1.000000	-1.000000	-1.000000	-1.000000	84.000000	0.000000	-1.000000	-1.000000	426036.000000	1774904786.564569
19565.055000	-3127.005000	24435.495000	30938.130000	12531.420000	-47632.995000	-41847.165000	-17784.765000	2.454357	2.208036	2.855448	5.746077	4.245279	3.062557	-0.154578	2.181188	-3.143560	4.074420	-1.968540	0.865049	-0.259643	0.408690	-1.000000	-1.000000	-1.000000	-1.000000	-1.000000	-1.000000	-1.000000	84.000000	0.000000	-1.000000	-1.000000	426037.000000	1774904786.568085
19545.885000	-3154.905000	24403.950000	30902.310000	12492.270000	-47674.575000	-41863.590000	-17792.955000	-9.188580	-13.172178	-4.948798	-5.444854	-10.164030	-11.194305	-11.119144	-14.470373	-3.143560	4.074420	-1.968540	0.865049	-0.259643	0.408690	-1.000000	-1.000000	-1.000000	-1.000000	-1.000000	-1.000000	-1.000000	84.000000	0.000000	-1.000000	-1.000000	426038.000000	1774904786.568098
19553.490000	-3145.095000	24410.655000	30908.655000	12498.975000	-47669.175000	-41858.370000	-17784.225000	-17.830799	-27.897600	-15.662411	-19.974160	-25.268645	-25.713131	-19.007693	-24.172151	-3.143560	4.074420	-1.968540	0.865049	-0.259643	0.408690	-1.000000	-1.000000	-1.000000	-1.000000	-1.000000	-1.000000	-1.000000	84.000000	0.000000	-1.000000	-1.000000	426039.000000	1774904786.571519
19564.920000	-3129.840000	24417.090000	30916.935000	12510.630000	-47654.730000	-41849.280000	-17775.315000	-19.500033	-32.808320	-23.087683	-29.152326	-32.274932	-32.051035	-18.952912	-21.946073	-3.143560	4.074420	-1.968540	0.865049	-0.259643	0.408690	-1.000000	-1.000000	-1.000000	-1.000000	-1.000000	-1.000000	-1.000000	84.000000	0.000000	-1.000000	-1.000000	426040.000000	1774904786.571531
19574.280000	-3110.400000	24434.370000	30933.855000	12526.110000	-47639.565000	-41846.400000	-17770.500000	-13.797415	-23.587873	-21.238459	-25.839883	-25.579960	-24.830148	-10.577587	-10.632894	-1.770160	4.440660	-2.441600	0.865659	-0.261291	0.408873	-1.000000	-1.000000	-1.000000	-1.000000	-1.000000	-1.000000	-1.000000	84.000000	0.000000	-1.000000	-1.000000	426041.000000	1774904786.575574
19574.685000	-3098.070000	24448.680000	30949.290000	12541.680000	-47622.960000	-41847.030000	-17775.090000	-4.036534	-4.101627	-9.757658	-10.579215	-7.620681	-6.569640	1.923056	2.736478	-1.770160	4.440660	-2.441600	0.865659	-0.261291	0.408873	-1.000000	-1.000000	-1.000000	-1.000000	-1.000000	-1.000000	-1.000000	84.000000	0.000000	-1.000000	-1.000000	426042.000000	1774904786.575584
19572.885000	-3081.690000	24457.995000	30965.715000	12563.235000	-47599.740000	-41831.505000	-17768.070000	5.528873	16.705179	6.444936	9.538858	13.628413	14.712204	12.970433	12.086636	-1.770160	4.440660	-2.441600	0.865659	-0.261291	0.408873	-1.000000	-1.000000	-1.000000	-1.000000	-1.000000	-1.000000	-1.000000	84.000000	0.000000	-1.000000	-1.000000	426043.000000	1774904786.579535
19581.480000	-3072.600000	24445.980000	30970.530000	12568.005000	-47596.230000	-41819.400000	-17745.345000	12.105752	30.012428	19.544063	25.080466	29.186131	30.070266	18.718604	15.399191	-1.770160	4.440660	-2.441600	0.865659	-0.261291	0.408873	-1.000000	-1.000000	-1.000000	-1.000000	-1.000000	-1.000000	-1.000000	84.000000	0.000000	-1.000000	-1.000000	426044.000000	1774904786.579544
19587.420000	-3093.885000	24429.600000	30953.115000	12550.410000	-47616.795000	-41826.915000	-17755.515000	14.507389	31.021233	22.540220	28.827407	32.389061	32.832472	17.692352	14.327062	-1.770160	4.440660	-2.441600	0.865659	-0.261291	0.408873	-1.000000	-1.000000	-1.000000	-1.000000	-1.000000	-1.000000	-1.000000	84.000000	0.000000	-1.000000	-1.000000	426045.000000	1774904786.583430
19588.320000	-3089.655000	24454.845000	30952.935000	12548.070000	-47620.800000	-41829.795000	-17764.155000	12.938454	20.902264	15.153158	20.345995	22.671164	22.380097	10.739454	11.015261	-1.770160	4.440660	-2.441600	0.865659	-0.261291	0.408873	-1.000000	-1.000000	-1.000000	-1.000000	-1.000000	-1.000000	-1.000000	84.000000	0.000000	-1.000000	-1.000000	426046.000000	1774904786.583440
19584.945000	-3086.415000	24484.050000	30967.830000	12559.680000	-47608.875000	-41831.685000	-17741.700000	8.629153	5.773736	4.770691	6.293982	6.524145	5.429003	1.063634	6.519333	-1.770160	4.440660	-2.441600	0.865659	-0.261291	0.408873	-1.000000	-1.000000	-1.000000	-1.000000	-1.000000	-1.000000	-1.000000	84.000000	0.000000	-1.000000	-1.000000	426047.000000	1774904786.587832
19608.210000	-3087.405000	24479.055000	30969.765000	12564.360000	-47600.865000	-41824.305000	-17717.940000	2.774808	-8.047033	-1.771189	-5.711943	-7.904487	-9.334762	-7.466162	1.582563	-1.770160	4.440660	-2.441600	0.865659	-0.261291	0.408873	-1.000000	-1.000000	-1.000000	-1.000000	-1.000000	-1.000000	-1.000000	84.000000	0.000000	-1.000000	-1.000000	426048.000000	1774904786.587841
19645.110000	-3056.355000	24493.635000	30991.005000	12583.710000	-47581.515000	-41799.555000	-17692.515000	-3.053108	-17.085598	-4.333056	-12.270223	-16.231354	-17.217165	-12.020715	-2.915059	-1.770160	4.440660	-2.441600	0.865659	-0.261291	0.408873	-1.000000	-1.000000	-1.000000	-1.000000	-1.000000	-1.000000	-1.000000	84.000000	0.000000	-1.000000	-1.000000	426049.000000	1774904786.591550
19647.360000	-3045.375000	24499.845000	30998.745000	12589.560000	-47576.205000	-41794.065000	-17693.415000	-6.815979	-19.637899	-5.957887	-13.536653	-17.933029	-18.000635	-11.261017	-6.275545	-1.770160	4.440660	-2.441600	0.865659	-0.261291	0.408873	-1.000000	-1.000000	-1.000000	-1.000000	-1.000000	-1.000000	-1.000000	84.000000	0.000000	-1.000000	-1.000000	426050.000000	1774904786.591558
19661.760000	-3028.905000	24515.820000	31015.755000	12608.415000	-47556.495000	-41792.760000	-17680.770000	-7.693695	-15.668832	-7.780780	-11.011084	-14.436134	-13.725576	-6.298120	-8.266937	-1.175020	4.227020	-1.571780	0.865904	-0.260131	0.409606	-1.000000	-1.000000	-1.000000	-1.000000	-1.000000	-1.000000	-1.000000	84.000000	0.000000	-1.000000	-1.000000	426051.000000	1774904786.597073
19641.060000	-3048.480000	24498.315000	31003.155000	12600.270000	-47561.310000	-41799.330000	-17709.840000	-6.589629	-8.007783	-8.922476	-6.871183	-8.245866	-7.238268	-0.789723	-9.386825	-1.175020	4.227020	-1.571780	0.865904	-0.260131	0.409606	-1.000000	-1.000000	-1.000000	-1.000000	-1.000000	-1.000000	-1.000000	84.000000	0.000000	-1.000000	-1.000000	426052.000000	1774904786.597083
19612.305000	-3075.975000	24466.320000	30972.420000	12571.290000	-47590.740000	-41813.235000	-17736.120000	-5.800219	-1.314938	-8.976516	-3.792866	-2.634800	-1.696358	1.562588	-10.831951	-1.175020	4.227020	-1.571780	0.865904	-0.260131	0.409606	-1.000000	-1.000000	-1.000000	-1.000000	-1.000000	-1.000000	-1.000000	84.000000	0.000000	-1.000000	-1.000000	426053.000000	1774904786.599968
19565.595000	-3124.665000	24413.895000	30924.630000	12524.895000	-47637.405000	-41834.070000	-17747.820000	-7.592931	1.165196	-8.874295	-3.537904	-0.246298	0.482357	-0.100103	-12.309759	-1.175020	4.227020	-1.571780	0.865904	-0.260131	0.409606	-1.000000	-1.000000	-1.000000	-1.000000	-1.000000	-1.000000	-1.000000	84.000000	0.000000	-1.000000	-1.000000	426054.000000	1774904786.599979
19505.520000	-3179.115000	24362.595000	30870.495000	12468.240000	-47693.745000	-41864.175000	-17777.070000	-11.811654	-0.870557	-9.937503	-5.870024	-1.733696	-1.295033	-3.725742	-11.353762	-1.175020	4.227020	-1.571780	0.865904	-0.260131	0.409606	-1.000000	-1.000000	-1.000000	-1.000000	-1.000000	-1.000000	-1.000000	84.000000	0.000000	-1.000000	-1.000000	426055.000000	1774904786.603468
19537.470000	-3145.860000	24399.765000	30903.525000	12496.590000	-47667.690000	-41851.935000	-17748.450000	-14.943879	-4.740934	-11.267402	-8.349820	-5.087275	-5.077483	-6.304229	-6.640800	-1.175020	4.227020	-1.571780	0.865904	-0.260131	0.409606	-1.000000	-1.000000	-1.000000	-1.000000	-1.000000	-1.000000	-1.000000	84.000000	0.000000	-1.000000	-1.000000	426056.000000	1774904786.603481
19541.880000	-3120.975000	24430.725000	30925.800000	12516.660000	-47650.140000	-41844.015000	-17744.355000	-12.035883	-5.044063	-7.906012	-6.413315	-5.487709	-6.146452	-5.358120	0.731557	-1.175020	4.227020	-1.571780	0.865904	-0.260131	0.409606	-1.000000	-1.000000	-1.000000	-1.000000	-1.000000	-1.000000	-1.000000	84.000000	0.000000	-1.000000	-1.000000	426057.000000	1774904786.607546
19538.955000	-3114.540000	24433.335000	30933.720000	12528.225000	-47636.865000	-41838.390000	-17746.380000	-1.946486	1.318306	3.411540	2.291237	0.500934	-0.929069	-0.573892	8.256220	-1.175020	4.227020	-1.571780	0.865904	-0.260131	0.409606	-1.000000	-1.000000	-1.000000	-1.000000	-1.000000	-1.000000	-1.000000	84.000000	0.000000	-1.000000	-1.000000	426058.000000	1774904786.607556
19561.635000	-3102.975000	24435.360000	30940.560000	12536.370000	-47628.315000	-41833.890000	-17741.430000	11.040472	10.880957	17.818458	13.732654	10.388469	8.617651	5.754950	13.151126	-1.175020	4.227020	-1.571780	0.865904	-0.260131	0.409606	-1.000000	-1.000000	-1.000000	-1.000000	-1.000000	-1.000000	-1.000000	84.000000	0.000000	-1.000000	-1.000000	426059.000000	1774904786.612117
19604.070000	-3085.650000	24445.485000	30953.070000	12551.940000	-47611.620000	-41820.300000	-17710.830000	22.177495	17.667791	26.600422	21.105403	18.154514	16.853095	10.776546	14.560391	-1.175020	4.227020	-1.571780	0.865904	-0.260131	0.409606	-1.000000	-1.000000	-1.000000	-1.000000	-1.000000	-1.000000	-1.000000	84.000000	0.000000	-1.000000	-1.000000	426060.000000	1774904786.612128
19622.295000	-3081.825000	24453.495000	30957.750000	12556.620000	-47606.355000	-41817.870000	-17712.495000	29.023937	18.703562	25.577159	20.902700	19.709979	19.464172	12.751652	13.914000	-2.334780	4.181240	-1.098720	0.867613	-0.258788	0.410643	-1.000000	-1.000000	-1.000000	-1.000000	-1.000000	-1.000000	-1.000000	84.000000	0.000000	-1.000000	-1.000000	426061.000000	1774904786.623437
19606.320000	-3095.055000	24446.970000	30942.720000	12539.160000	-47623.815000	-41831.505000	-17740.935000	29.590697	14.671666	17.157049	14.510753	15.145346	16.006880	11.105826	11.931498	-2.334780	4.181240	-1.098720	0.867613	-0.258788	0.410643	-1.000000	-1.000000	-1.000000	-1.000000	-1.000000	-1.000000	-1.000000	84.000000	0.000000	-1.000000	-1.000000	426062.000000	1774904786.623448
19569.015000	-3119.670000	24436.440000	30930.075000	12519.855000	-47644.830000	-41844.375000	-17793.765000	21.900689	7.788016	6.486480	5.840818	7.278032	8.831062	6.324894	6.846044	-2.334780	4.181240	-1.098720	0.867613	-0.258788	0.410643	-1.000000	-1.000000	-1.000000	-1.000000	-1.000000	-1.000000	-1.000000	84.000000	0.000000	-1.000000	-1.000000	426063.000000	1774904786.623460
19547.280000	-3118.095000	24439.500000	30939.075000	12531.915000	-47630.295000	-41834.970000	-17811.675000	6.358585	-0.016647	-2.882658	-1.759754	-0.722015	0.884604	0.196572	-2.793507	-2.334780	4.181240	-1.098720	0.867613	-0.258788	0.410643	-1.000000	-1.000000	-1.000000	-1.000000	-1.000000	-1.000000	-1.000000	84.000000	0.000000	-1.000000	-1.000000	426064.000000	1774904786.623465
19561.005000	-3103.740000	24444.675000	30954.600000	12550.635000	-47613.105000	-41825.970000	-17783.190000	-12.922480	-7.679363	-10.475670	-7.332126	-7.020658	-5.870938	-4.994902	-14.177219	-2.334780	4.181240	-1.098720	0.867613	-0.258788	0.410643	-1.000000	-1.000000	-1.000000	-1.000000	-1.000000	-1.000000	-1.000000	84.000000	0.000000	-1.000000	-1.000000	426065.000000	1774904786.623471
19566.315000	-3096.180000	24443.055000	30950.955000	12546.450000	-47618.235000	-41830.245000	-17755.020000	-28.884901	-14.274235	-16.915257	-11.688233	-11.521716	-11.063891	-8.160896	-20.449974	-2.334780	4.181240	-1.098720	0.867613	-0.258788	0.410643	-1.000000	-1.000000	-1.000000	-1.000000	-1.000000	-1.000000	-1.000000	84.000000	0.000000	-1.000000	-1.000000	426066.000000	1774904786.623476
19584.495000	-3089.340000	24457.320000	30966.075000	12557.655000	-47610.540000	-41824.440000	-17734.185000	-34.441246	-18.004871	-20.849128	-14.879683	-14.398345	-14.721959	-9.400715	-16.220895	-2.334780	4.181240	-1.098720	0.867613	-0.258788	0.410643	-1.000000	-1.000000	-1.000000	-1.000000	-1.000000	-1.000000	-1.000000	84.000000	0.000000	-1.000000	-1.000000	426067.000000	1774904786.634037
19579.905000	-3092.130000	24439.725000	30963.465000	12566.835000	-47600.505000	-41818.995000	-17733.105000	-27.502811	-17.159301	-19.676994	-15.376187	-14.737573	-15.827113	-8.702852	-3.373600	-2.334780	4.181240	-1.098720	0.867613	-0.258788	0.410643	-1.000000	-1.000000	-1.000000	-1.000000	-1.000000	-1.000000	-1.000000	84.000000	0.000000	-1.000000	-1.000000	426068.000000	1774904786.634050
19580.805000	-3098.745000	24418.305000	30941.730000	12547.800000	-47616.390000	-41830.335000	-17735.940000	-13.010956	-12.002216	-13.452764	-12.453769	-11.859738	-13.388255	-6.232666	9.733160	-2.334780	4.181240	-1.098720	0.867613	-0.258788	0.410643	-1.000000	-1.000000	-1.000000	-1.000000	-1.000000	-1.000000	-1.000000	84.000000	0.000000	-1.000000	-1.000000	426069.000000	1774904786.634065
19604.385000	-3082.545000	24446.790000	30946.860000	12539.205000	-47627.730000	-41841.360000	-17737.335000	2.027354	-4.094513	-4.568280	-7.100476	-6.702097	-8.012318	-3.031945	15.693623	-2.334780	4.181240	-1.098720	0.867613	-0.258788	0.410643	-1.000000	-1.000000	-1.000000	-1.000000	-1.000000	-1.000000	-1.000000	84.000000	0.000000	-1.000000	-1.000000	426070.000000	1774904786.634070
19623.150000	-3063.330000	24486.030000	30971.970000	12562.695000	-47605.635000	-41824.170000	-17712.180000	14.398401	5.686972	6.115904	0.433831	0.093339	-0.452041	0.427493	14.206802	-3.326680	5.051060	-0.289940	0.868772	-0.260558	0.411315	-1.000000	-1.000000	-1.000000	-1.000000	-1.000000	-1.000000	-1.000000	84.000000	0.000000	-1.000000	-1.000000	426071.000000	1774904786.635583
19668.375000	-3012.930000	24537.825000	31034.160000	12622.230000	-47544.930000	-41773.275000	-17653.320000	24.242232	16.597764	18.457050	10.849440	9.364047	9.680471	5.366181	10.992674	-3.326680	5.051060	-0.289940	0.868772	-0.260558	0.411315	-1.000000	-1.000000	-1.000000	-1.000000	-1.000000	-1.000000	-1.000000	84.000000	0.000000	-1.000000	-1.000000	426072.000000	1774904786.635593
19679.400000	-2999.115000	24544.710000	31045.050000	12640.230000	-47526.705000	-41758.020000	-17645.715000	30.291769	25.325575	28.554484	21.746106	19.648985	20.577109	11.940859	10.182432	-3.326680	5.051060	-0.289940	0.868772	-0.260558	0.411315	-1.000000	-1.000000	-1.000000	-1.000000	-1.000000	-1.000000	-1.000000	84.000000	0.000000	-1.000000	-1.000000	426073.000000	1774904786.639524
19636.065000	-3036.285000	24502.680000	31000.140000	12600.810000	-47566.080000	-41794.920000	-17706.195000	27.268588	25.189134	28.563266	25.487523	24.052412	25.221356	15.795577	7.685935	-3.326680	5.051060	-0.289940	0.868772	-0.260558	0.411315	-1.000000	-1.000000	-1.000000	-1.000000	-1.000000	-1.000000	-1.000000	84.000000	0.000000	-1.000000	-1.000000	426074.000000	1774904786.639534
19550.835000	-3131.685000	24392.925000	30904.020000	12510.270000	-47651.490000	-41855.580000	-17793.045000	10.028573	10.493676	12.450723	14.337296	14.761293	15.909706	10.571406	-4.523275	-3.326680	5.051060	-0.289940	0.868772	-0.260558	0.411315	-1.000000	-1.000000	-1.000000	-1.000000	-1.000000	-1.000000	-1.000000	84.000000	0.000000	-1.000000	-1.000000	426075.000000	1774904786.646336
19511.190000	-3159.630000	24366.960000	30881.880000	12481.380000	-47678.760000	-41878.710000	-17830.890000	-18.606838	-16.134336	-16.591553	-10.589746	-8.171057	-7.058611	-4.747612	-26.493205	-3.326680	5.051060	-0.289940	0.868772	-0.260558	0.411315	-1.000000	-1.000000	-1.000000	-1.000000	-1.000000	-1.000000	-1.000000	84.000000	0.000000	-1.000000	-1.000000	426076.000000	1774904786.646347
19539.225000	-3115.530000	24439.950000	30928.680000	12520.440000	-47641.455000	-41860.530000	-17820.450000	-44.741993	-40.402006	-42.369261	-35.151983	-32.358095	-31.349319	-21.922558	-45.620440	-3.326680	5.051060	-0.289940	0.868772	-0.260558	0.411315	-1.000000	-1.000000	-1.000000	-1.000000	-1.000000	-1.000000	-1.000000	84.000000	0.000000	-1.000000	-1.000000	426077.000000	1774904786.647517
19553.040000	-3101.715000	24451.695000	30940.065000	12533.940000	-47628.045000	-41849.955000	-17810.370000	-51.334259	-44.895497	-45.381911	-41.009680	-40.197518	-39.752628	-28.586149	-45.962592	-3.326680	5.051060	-0.289940	0.868772	-0.260558	0.411315	-1.000000	-1.000000	-1.000000	-1.000000	-1.000000	-1.000000	-1.000000	84.000000	0.000000	-1.000000	-1.000000	426078.000000	1774904786.647527
19562.895000	-3097.215000	24447.330000	30942.270000	12535.875000	-47627.865000	-41845.950000	-17786.025000	-32.467829	-24.822880	-22.257219	-22.547068	-24.401387	-25.015501	-18.815067	-22.326937	-3.326680	5.051060	-0.289940	0.868772	-0.260558	0.411315	-1.000000	-1.000000	-1.000000	-1.000000	-1.000000	-1.000000	-1.000000	84.000000	0.000000	-1.000000	-1.000000	426079.000000	1774904786.651457
19585.395000	-3108.195000	24428.655000	30940.560000	12532.500000	-47633.715000	-41845.410000	-17736.255000	1.774498	7.275582	10.172119	7.719110	4.852673	3.195959	1.380970	15.132349	-3.326680	5.051060	-0.289940	0.868772	-0.260558	0.411315	-1.000000	-1.000000	-1.000000	-1.000000	-1.000000	-1.000000	-1.000000	84.000000	0.000000	-1.000000	-1.000000	426080.000000	1774904786.651467
19585.485000	-3112.155000	24426.135000	30936.780000	12528.765000	-47637.360000	-41848.290000	-17718.975000	33.453794	32.181843	31.131667	30.450384	28.716700	26.530097	18.955186	47.917491	-3.479280	4.837420	-0.534100	0.869444	-0.262878	0.412780	-1.000000	-1.000000	-1.000000	-1.000000	-1.000000	-1.000000	-1.000000	84.000000	0.000000	-1.000000	-1.000000	426081.000000	1774904786.657003
19578.645000	-3101.085000	24439.095000	30956.760000	12548.295000	-47615.445000	-41831.235000	-17732.205000	47.835807	38.135585	32.174227	34.573420	34.768279	32.813770	24.564936	60.175923	-3.479280	4.837420	-0.534100	0.869444	-0.262878	0.412780	-1.000000	-1.000000	-1.000000	-1.000000	-1.000000	-1.000000	-1.000000	84.000000	0.000000	-1.000000	-1.000000	426082.000000	1774904786.657013
19579.500000	-3080.205000	24451.965000	30971.970000	12561.840000	-47599.380000	-41808.015000	-17714.430000	41.605355	27.993426	20.487964	24.129448	25.440261	24.500527	19.615799	48.329105	-3.479280	4.837420	-0.534100	0.869444	-0.262878	0.412780	-1.000000	-1.000000	-1.000000	-1.000000	-1.000000	-1.000000	-1.000000	84.000000	0.000000	-1.000000	-1.000000	426083.000000	1774904786.659432
19557.900000	-3099.825000	24428.970000	30944.835000	12541.185000	-47615.040000	-41815.620000	-17730.765000	22.963660	13.582826	9.062400	10.927571	12.072001	12.586012	12.016642	22.267688	-3.479280	4.837420	-0.534100	0.869444	-0.262878	0.412780	-1.000000	-1.000000	-1.000000	-1.000000	-1.000000	-1.000000	-1.000000	84.000000	0.000000	-1.000000	-1.000000	426084.000000	1774904786.659442
19578.645000	-3092.490000	24432.030000	30938.220000	12541.230000	-47614.455000	-41833.170000	-17738.055000	2.871377	2.928514	3.530764	1.339799	1.976170	3.772029	5.979460	-4.730212	-3.479280	4.837420	-0.534100	0.869444	-0.262878	0.412780	-1.000000	-1.000000	-1.000000	-1.000000	-1.000000	-1.000000	-1.000000	84.000000	0.000000	-1.000000	-1.000000	426085.000000	1774904786.663555
19638.135000	-3053.790000	24488.730000	30982.770000	12585.510000	-47572.650000	-41821.830000	-17694.855000	-11.478552	-3.910837	0.635268	-5.631139	-4.787977	-2.482017	-0.187983	-24.210796	-3.479280	4.837420	-0.534100	0.869444	-0.262878	0.412780	-1.000000	-1.000000	-1.000000	-1.000000	-1.000000	-1.000000	-1.000000	84.000000	0.000000	-1.000000	-1.000000	426086.000000	1774904786.663567
19678.995000	-3019.455000	24534.990000	31035.600000	12635.685000	-47525.175000	-41776.920000	-17656.425000	-16.809685	-8.448544	-2.421393	-10.168516	-8.601763	-6.876846	-7.082240	-31.874337	-3.479280	4.837420	-0.534100	0.869444	-0.262878	0.412780	-1.000000	-1.000000	-1.000000	-1.000000	-1.000000	-1.000000	-1.000000	84.000000	0.000000	-1.000000	-1.000000	426087.000000	1774904786.667862
19669.410000	-3004.380000	24542.910000	31049.955000	12639.420000	-47528.010000	-41768.190000	-17684.460000	-14.363769	-10.172731	-4.473409	-9.970524	-8.327519	-8.068359	-11.353344	-28.265632	-3.479280	4.837420	-0.534100	0.869444	-0.262878	0.412780	-1.000000	-1.000000	-1.000000	-1.000000	-1.000000	-1.000000	-1.000000	84.000000	0.000000	-1.000000	-1.000000	426088.000000	1774904786.667876
19583.505000	-3053.520000	24497.280000	30999.870000	12588.480000	-47576.700000	-41797.845000	-17763.750000	-11.097643	-9.852353	-5.801789	-6.670328	-6.344656	-7.719721	-11.456146	-21.297261	-3.479280	4.837420	-0.534100	0.869444	-0.262878	0.412780	-1.000000	-1.000000	-1.000000	-1.000000	-1.000000	-1.000000	-1.000000	84.000000	0.000000	-1.000000	-1.000000	426089.000000	1774904786.673842
19533.870000	-3096.540000	24447.240000	30947.535000	12539.790000	-47623.590000	-41832.045000	-17802.900000	-14.534063	-11.258947	-9.992238	-6.759790	-8.526037	-10.785158	-10.657385	-19.541747	-3.479280	4.837420	-0.534100	0.869444	-0.262878	0.412780	-1.000000	-1.000000	-1.000000	-1.000000	-1.000000	-1.000000	-1.000000	84.000000	0.000000	-1.000000	-1.000000	426090.000000	1774904786.673865
19553.445000	-3121.380000	24418.845000	30916.935000	12508.920000	-47653.965000	-41852.880000	-17784.135000	-22.916950	-16.374462	-18.321039	-13.587877	-16.759407	-18.655596	-12.077359	-21.222998	-4.196500	5.051060	-0.579880	0.869871	-0.264404	0.413573	-1.000000	-1.000000	-1.000000	-1.000000	-1.000000	-1.000000	-1.000000	84.000000	0.000000	-1.000000	-1.000000	426091.000000	1774904786.675340
19550.745000	-3162.060000	24386.580000	30889.125000	12481.875000	-47677.860000	-41862.105000	-17764.695000	-24.995799	-21.312473	-25.510312	-21.829997	-24.837546	-25.480243	-14.061125	-15.989336	-4.196500	5.051060	-0.579880	0.869871	-0.264404	0.413573	-1.000000	-1.000000	-1.000000	-1.000000	-1.000000	-1.000000	-1.000000	84.000000	0.000000	-1.000000	-1.000000	426092.000000	1774904786.675358
19583.595000	-3120.660000	24430.860000	30936.330000	12529.125000	-47629.620000	-41824.755000	-17725.545000	-12.534919	-19.103871	-23.190244	-21.477159	-23.081030	-22.402294	-11.315659	2.239705	-4.196500	5.051060	-0.579880	0.869871	-0.264404	0.413573	-1.000000	-1.000000	-1.000000	-1.000000	-1.000000	-1.000000	-1.000000	84.000000	0.000000	-1.000000	-1.000000	426093.000000	1774904786.679421
19585.665000	-3087.225000	24460.965000	30967.560000	12562.155000	-47596.095000	-41810.445000	-17718.075000	10.083893	-5.970271	-7.923061	-7.151431	-7.067766	-5.612310	-0.356461	27.472916	-4.196500	5.051060	-0.579880	0.869871	-0.264404	0.413573	-1.000000	-1.000000	-1.000000	-1.000000	-1.000000	-1.000000	-1.000000	84.000000	0.000000	-1.000000	-1.000000	426094.000000	1774904786.679438
19570.275000	-3097.305000	24443.685000	30948.075000	12544.740000	-47614.320000	-41830.740000	-17740.440000	28.625806	13.264592	13.073629	14.617197	16.015222	17.578003	14.573367	44.660020	-4.196500	5.051060	-0.579880	0.869871	-0.264404	0.413573	-1.000000	-1.000000	-1.000000	-1.000000	-1.000000	-1.000000	-1.000000	84.000000	0.000000	-1.000000	-1.000000	426095.000000	1774904786.683852
19551.870000	-3118.185000	24421.770000	30924.900000	12522.510000	-47638.620000	-41846.625000	-17779.050000	30.894871	26.958702	26.317968	29.013112	31.297462	32.517181	23.046428	40.888921	-4.196500	5.051060	-0.579880	0.869871	-0.264404	0.413573	-1.000000	-1.000000	-1.000000	-1.000000	-1.000000	-1.000000	-1.000000	84.000000	0.000000	-1.000000	-1.000000	426096.000000	1774904786.683864
19554.705000	-3130.830000	24410.250000	30913.785000	12511.035000	-47649.465000	-41850.630000	-17777.070000	17.608274	26.962673	24.588729	26.827479	29.689583	30.416567	18.819015	17.364999	-4.196500	5.051060	-0.579880	0.869871	-0.264404	0.413573	-1.000000	-1.000000	-1.000000	-1.000000	-1.000000	-1.000000	-1.000000	84.000000	0.000000	-1.000000	-1.000000	426097.000000	1774904786.690512
19573.335000	-3120.165000	24420.060000	30926.610000	12520.260000	-47642.130000	-41841.990000	-17755.965000	1.531050	16.157146	13.151259	13.002995	15.853560	16.065840	6.443286	-9.862923	-4.196500	5.051060	-0.579880	0.869871	-0.264404	0.413573	-1.000000	-1.000000	-1.000000	-1.000000	-1.000000	-1.000000	-1.000000	84.000000	0.000000	-1.000000	-1.000000	426098.000000	1774904786.690524
19572.030000	-3112.470000	24427.665000	30934.035000	12528.405000	-47633.220000	-41838.255000	-17764.830000	-5.139354	4.436773	3.103725	0.240139	1.949664	1.545952	-4.024252	-23.870353	-4.196500	5.051060	-0.579880	0.869871	-0.264404	0.413573	-1.000000	-1.000000	-1.000000	-1.000000	-1.000000	-1.000000	-1.000000	84.000000	0.000000	-1.000000	-1.000000	426099.000000	1774904786.693469
19562.085000	-3110.355000	24420.240000	30927.735000	12526.245000	-47633.040000	-41843.520000	-17776.935000	-1.875397	-1.017242	0.767667	-3.479718	-3.844478	-4.895485	-6.644246	-21.236406	-4.196500	5.051060	-0.579880	0.869871	-0.264404	0.413573	-1.000000	-1.000000	-1.000000	-1.000000	-1.000000	-1.000000	-1.000000	84.000000	0.000000	-1.000000	-1.000000	426100.000000	1774904786.693480
19580.715000	-3083.130000	24436.845000	30946.815000	12544.425000	-47616.165000	-41832.900000	-17753.805000	3.275415	0.072626	4.173441	0.313818	-1.960771	-3.416072	-3.003682	-10.499406	-2.716280	4.669560	-1.022420	0.868284	-0.265624	0.413146	-1.000000	-1.000000	-1.000000	-1.000000	-1.000000	-1.000000	-1.000000	84.000000	0.000000	-1.000000	-1.000000	426101.000000	1774904786.695316
19620.450000	-3049.920000	24479.010000	30982.995000	12576.330000	-47585.070000	-41809.950000	-17709.120000	4.233572	3.200050	7.187694	4.930671	1.745479	0.271763	1.612084	-0.308984	-2.716280	4.669560	-1.022420	0.868284	-0.265624	0.413146	-1.000000	-1.000000	-1.000000	-1.000000	-1.000000	-1.000000	-1.000000	84.000000	0.000000	-1.000000	-1.000000	426102.000000	1774904786.695328
19634.580000	-3044.745000	24493.680000	30993.705000	12585.375000	-47575.755000	-41805.540000	-17705.835000	0.761793	2.877853	5.115288	4.761002	1.659821	0.563544	3.329023	5.981150	-2.716280	4.669560	-1.022420	0.868284	-0.265624	0.413146	-1.000000	-1.000000	-1.000000	-1.000000	-1.000000	-1.000000	-1.000000	84.000000	0.000000	-1.000000	-1.000000	426103.000000	1774904786.699471
19596.915000	-3080.790000	24471.000000	30968.550000	12562.335000	-47599.200000	-41824.170000	-17746.965000	-4.915196	-3.441839	-2.425024	-1.363378	-3.643841	-3.966147	1.345320	7.409005	-2.716280	4.669560	-1.022420	0.868284	-0.265624	0.413146	-1.000000	-1.000000	-1.000000	-1.000000	-1.000000	-1.000000	-1.000000	84.000000	0.000000	-1.000000	-1.000000	426104.000000	1774904786.699483
19555.245000	-3113.055000	24429.510000	30931.695000	12528.765000	-47632.770000	-41848.380000	-17780.040000	-11.395904	-13.727260	-12.483911	-10.814883	-11.593612	-10.882244	-3.366628	3.482501	-2.716280	4.669560	-1.022420	0.868284	-0.265624	0.413146	-1.000000	-1.000000	-1.000000	-1.000000	-1.000000	-1.000000	-1.000000	84.000000	0.000000	-1.000000	-1.000000	426105.000000	1774904786.703436
19559.430000	-3110.670000	24425.010000	30927.015000	12524.715000	-47636.955000	-41850.360000	-17764.830000	-16.847312	-22.325733	-20.707399	-19.051963	-17.828186	-16.212632	-8.711788	-3.705942	-2.716280	4.669560	-1.022420	0.868284	-0.265624	0.413146	-1.000000	-1.000000	-1.000000	-1.000000	-1.000000	-1.000000	-1.000000	83.931034	0.000000	-1.000000	-1.000000	426106.000000	1774904786.703447
19580.985000	-3090.825000	24446.970000	30949.380000	12545.505000	-47618.145000	-41836.905000	-17748.990000	-17.173961	-22.801824	-22.236346	-20.891909	-17.910599	-16.011096	-11.336430	-8.856412	-2.716280	4.669560	-1.022420	0.868284	-0.265624	0.413146	-1.000000	-1.000000	-1.000000	-1.000000	-1.000000	-1.000000	-1.000000	83.931034	0.000000	-1.000000	-1.000000	426107.000000	1774904786.713236
19583.955000	-3083.670000	24455.520000	30959.325000	12557.475000	-47604.780000	-41825.790000	-17759.970000	-9.445026	-12.713346	-14.249704	-13.332514	-9.806078	-8.472351	-8.401785	-7.806289	-2.716280	4.669560	-1.022420	0.868284	-0.265624	0.413146	-1.000000	-1.000000	-1.000000	-1.000000	-1.000000	-1.000000	-1.000000	83.931034	0.000000	-1.000000	-1.000000	426108.000000	1774904786.713258
19588.275000	-3081.645000	24458.895000	30963.735000	12562.425000	-47596.860000	-41823.135000	-17764.245000	3.691284	3.625340	0.695078	1.162339	3.672660	3.891391	-0.445016	-1.798659	-2.716280	4.669560	-1.022420	0.868284	-0.265624	0.413146	-1.000000	-1.000000	-1.000000	-1.000000	-1.000000	-1.000000	-1.000000	83.931034	0.000000	-1.000000	-1.000000	426109.000000	1774904786.713282
19599.705000	-3068.955000	24469.650000	30971.610000	12567.960000	-47592.810000	-41836.275000	-17748.315000	15.073622	17.468714	14.864952	14.891022	15.391230	14.596509	7.747483	4.003894	-2.716280	4.669560	-1.022420	0.868284	-0.265624	0.413146	-1.000000	-1.000000	-1.000000	-1.000000	-1.000000	-1.000000	-1.000000	83.931034	0.000000	-1.000000	-1.000000	426110.000000	1774904786.713293
19597.590000	-3054.915000	24467.850000	30974.175000	12571.335000	-47588.715000	-41846.310000	-17733.600000	18.039700	21.471708	19.969634	19.735672	18.305016	17.080148	10.239261	5.582934	-2.746800	3.830260	-2.441600	0.865904	-0.265563	0.412230	-1.000000	-1.000000	-1.000000	-1.000000	-1.000000	-1.000000	-1.000000	83.931034	0.000000	-1.000000	-1.000000	426111.000000	1774904786.715481
19610.055000	-3043.080000	24458.985000	30981.780000	12584.745000	-47572.560000	-41816.700000	-17723.970000	11.650989	15.261638	13.495432	13.739668	11.443691	10.464270	5.961580	3.538134	-2.746800	3.830260	-2.441600	0.865904	-0.265563	0.412230	-1.000000	-1.000000	-1.000000	-1.000000	-1.000000	-1.000000	-1.000000	83.931034	0.000000	-1.000000	-1.000000	426112.000000	1774904786.715491
19638.135000	-3030.345000	24478.920000	30992.850000	12592.755000	-47567.205000	-41789.115000	-17706.015000	2.419381	5.520517	1.560224	3.097836	1.276619	1.005671	0.678587	2.305958	-2.746800	3.830260	-2.441600	0.865904	-0.265563	0.412230	-1.000000	-1.000000	-1.000000	-1.000000	-1.000000	-1.000000	-1.000000	83.931034	0.000000	-1.000000	-1.000000	426113.000000	1774904786.719419
19578.420000	-3114.315000	24425.955000	30930.570000	12525.975000	-47633.355000	-41822.370000	-17749.080000	-2.390511	-1.650094	-6.738227	-4.566315	-5.317081	-4.884849	-0.072997	4.377555	-2.746800	3.830260	-2.441600	0.865904	-0.265563	0.412230	-1.000000	-1.000000	-1.000000	-1.000000	-1.000000	-1.000000	-1.000000	83.931034	0.000000	-1.000000	-1.000000	426114.000000	1774904786.719431
19509.840000	-3188.205000	24370.560000	30874.095000	12470.220000	-47688.210000	-41863.905000	-17792.505000	-3.923750	-7.624390	-8.993158	-8.386831	-8.462361	-7.740111	1.658536	5.501675	-2.746800	3.830260	-2.441600	0.865904	-0.265563	0.412230	-1.000000	-1.000000	-1.000000	-1.000000	-1.000000	-1.000000	-1.000000	83.931034	0.000000	-1.000000	-1.000000	426115.000000	1774904786.723464
19514.835000	-3170.880000	24384.330000	30891.960000	12488.715000	-47670.930000	-41862.015000	-17779.590000	-7.989525	-15.567692	-9.126368	-11.562569	-11.559533	-11.002825	0.098955	0.514724	-2.746800	3.830260	-2.441600	0.865904	-0.265563	0.412230	-1.000000	-1.000000	-1.000000	-1.000000	-1.000000	-1.000000	-1.000000	83.931034	0.000000	-1.000000	-1.000000	426116.000000	1774904786.723474
19540.890000	-3133.620000	24422.985000	30926.790000	12523.230000	-47637.045000	-41843.655000	-17753.895000	-13.500537	-20.792079	-7.986850	-12.681480	-12.802725	-12.751625	-5.149177	-7.515229	-2.746800	3.830260	-2.441600	0.865904	-0.265563	0.412230	-1.000000	-1.000000	-1.000000	-1.000000	-1.000000	-1.000000	-1.000000	83.931034	0.000000	-1.000000	-1.000000	426117.000000	1774904786.727362
19604.655000	-3059.370000	24490.755000	30989.565000	12585.510000	-47574.630000	-41797.890000	-17707.905000	-12.723519	-14.627198	-1.823019	-6.619289	-6.765037	-7.402607	-8.252189	-10.305710	-2.746800	3.830260	-2.441600	0.865904	-0.265563	0.412230	-1.000000	-1.000000	-1.000000	-1.000000	-1.000000	-1.000000	-1.000000	83.931034	0.000000	-1.000000	-1.000000	426118.000000	1774904786.727370
19617.075000	-3038.985000	24499.530000	31001.490000	12595.320000	-47566.530000	-41799.510000	-17732.340000	-2.010584	3.682186	9.688091	6.788971	6.825349	5.661290	-4.488679	-5.151785	-2.746800	3.830260	-2.441600	0.865904	-0.265563	0.412230	-1.000000	-1.000000	-1.000000	-1.000000	-1.000000	-1.000000	-1.000000	83.931034	0.000000	-1.000000	-1.000000	426119.000000	1774904786.731338
19571.085000	-3084.705000	24453.945000	30957.345000	12552.570000	-47607.390000	-41838.795000	-17793.315000	12.084279	22.949771	19.149537	19.174341	19.531755	18.352567	3.363442	1.375212	-2.746800	3.830260	-2.441600	0.865904	-0.265563	0.412230	-1.000000	-1.000000	-1.000000	-1.000000	-1.000000	-1.000000	-1.000000	83.931034	0.000000	-1.000000	-1.000000	426120.000000	1774904786.731349
19523.655000	-3144.915000	24394.590000	30896.280000	12491.730000	-47667.645000	-41875.065000	-17806.320000	17.882850	28.359633	17.188346	19.766488	20.359441	19.748442	6.919634	1.529196	-4.043900	3.647140	-2.105880	0.865476	-0.264159	0.411681	-1.000000	-1.000000	-1.000000	-1.000000	-1.000000	-1.000000	-1.000000	83.931034	0.000000	-1.000000	-1.000000	426121.000000	1774904786.735539
19536.615000	-3145.635000	24389.235000	30890.340000	12488.130000	-47672.100000	-41871.240000	-17779.455000	10.590207	15.447926	2.529927	6.268388	6.946605	7.262331	1.826742	-3.551777	-4.043900	3.647140	-2.105880	0.865476	-0.264159	0.411681	-1.000000	-1.000000	-1.000000	-1.000000	-1.000000	-1.000000	-1.000000	83.931034	0.000000	-1.000000	-1.000000	426122.000000	1774904786.735553
19564.695000	-3117.555000	24409.305000	30913.785000	12518.235000	-47641.275000	-41849.595000	-17752.545000	-1.380418	-3.907922	-14.111312	-10.441720	-9.553675	-8.397703	-6.030680	-5.006799	-4.043900	3.647140	-2.105880	0.865476	-0.264159	0.411681	-1.000000	-1.000000	-1.000000	-1.000000	-1.000000	-1.000000	-1.000000	83.931034	0.000000	-1.000000	-1.000000	426123.000000	1774904786.747209
19559.925000	-3118.410000	24396.075000	30914.145000	12517.245000	-47639.610000	-41848.470000	-17749.890000	-5.734211	-13.271451	-19.516736	-16.332931	-14.990469	-13.466054	-7.189403	2.611636	-4.043900	3.647140	-2.105880	0.865476	-0.264159	0.411681	-1.000000	-1.000000	-1.000000	-1.000000	-1.000000	-1.000000	-1.000000	83.931034	0.000000	-1.000000	-1.000000	426124.000000	1774904786.747222
19558.620000	-3112.740000	24427.260000	30933.180000	12525.705000	-47633.220000	-41849.730000	-17758.890000	-0.562538	-8.813686	-11.235593	-8.674142	-7.281324	-5.942011	0.024407	14.112893	-4.043900	3.647140	-2.105880	0.865476	-0.264159	0.411681	-1.000000	-1.000000	-1.000000	-1.000000	-1.000000	-1.000000	-1.000000	83.931034	0.000000	-1.000000	-1.000000	426125.000000	1774904786.747235
19560.240000	-3106.980000	24449.580000	30950.190000	12541.770000	-47618.415000	-41841.270000	-17738.595000	5.428033	-0.153793	2.281643	3.487309	3.718623	4.386196	8.517516	19.073774	-4.043900	3.647140	-2.105880	0.865476	-0.264159	0.411681	-1.000000	-1.000000	-1.000000	-1.000000	-1.000000	-1.000000	-1.000000	83.931034	0.000000	-1.000000	-1.000000	426126.000000	1774904786.747240
19555.335000	-3085.065000	24449.265000	30955.590000	12555.630000	-47603.340000	-41833.035000	-17731.620000	3.833704	2.391053	10.788391	9.759119	8.129232	7.853384	10.943425	12.529502	-4.043900	3.647140	-2.105880	0.865476	-0.264159	0.411681	-1.000000	-1.000000	-1.000000	-1.000000	-1.000000	-1.000000	-1.000000	83.931034	0.000000	-1.000000	-1.000000	426127.000000	1774904786.747335
19538.505000	-3070.620000	24447.105000	30954.915000	12560.805000	-47594.475000	-41824.620000	-17757.495000	-5.534104	-2.512233	9.667464	6.650627	4.159946	3.183503	6.489134	-1.263752	-4.043900	3.647140	-2.105880	0.865476	-0.264159	0.411681	-1.000000	-1.000000	-1.000000	-1.000000	-1.000000	-1.000000	-1.000000	83.931034	0.000000	-1.000000	-1.000000	426128.000000	1774904786.747344
19575.270000	-3040.920000	24477.480000	30977.685000	12579.030000	-47576.745000	-41808.240000	-17740.980000	-14.286684	-7.337984	3.303237	-0.498945	-2.054868	-3.079875	0.454020	-13.094421	-4.043900	3.647140	-2.105880	0.865476	-0.264159	0.411681	-1.000000	-1.000000	-1.000000	-1.000000	-1.000000	-1.000000	-1.000000	83.931034	0.000000	-1.000000	-1.000000	426129.000000	1774904786.751984
19622.115000	-3041.190000	24506.955000	31012.380000	12602.925000	-47557.215000	-41793.300000	-17686.980000	-12.482235	-4.453805	0.501500	-2.902760	-2.903564	-3.519769	-1.730733	-15.347806	-4.043900	3.647140	-2.105880	0.865476	-0.264159	0.411681	-1.000000	-1.000000	-1.000000	-1.000000	-1.000000	-1.000000	-1.000000	83.931034	0.000000	-1.000000	-1.000000	426130.000000	1774904786.751997
19646.055000	-3056.355000	24475.545000	31002.210000	12608.460000	-47550.060000	-41791.995000	-17712.045000	1.365174	4.915899	4.073915	2.352099	3.064976	2.809611	0.267575	-7.786728	-2.426340	4.852680	-2.289000	0.864744	-0.263915	0.410338	-1.000000	-1.000000	-1.000000	-1.000000	-1.000000	-1.000000	-1.000000	83.931034	0.000000	-1.000000	-1.000000	426131.000000	1774904786.755445
19627.380000	-3071.880000	24441.615000	30968.910000	12569.085000	-47590.425000	-41828.895000	-17771.220000	17.586149	12.051055	7.471231	8.711918	9.262448	9.101534	1.911801	1.140137	-2.426340	4.852680	-2.289000	0.864744	-0.263915	0.410338	-1.000000	-1.000000	-1.000000	-1.000000	-1.000000	-1.000000	-1.000000	83.931034	0.000000	-1.000000	-1.000000	426132.000000	1774904786.755454
19573.380000	-3123.495000	24420.150000	30932.055000	12510.720000	-47649.060000	-41869.755000	-17787.150000	23.070769	9.511057	3.222662	6.973001	6.886995	6.657023	-1.650948	2.244556	-2.426340	4.852680	-2.289000	0.864744	-0.263915	0.410338	-1.000000	-1.000000	-1.000000	-1.000000	-1.000000	-1.000000	-1.000000	83.931034	0.000000	-1.000000	-1.000000	426133.000000	1774904786.759335
19553.445000	-3146.535000	24419.250000	30907.035000	12478.500000	-47679.840000	-41875.830000	-17762.130000	11.763121	-3.167398	-8.734084	-5.414397	-6.684274	-6.920385	-10.462636	-4.350263	-2.426340	4.852680	-2.289000	0.864744	-0.263915	0.410338	-1.000000	-1.000000	-1.000000	-1.000000	-1.000000	-1.000000	-1.000000	83.931034	0.000000	-1.000000	-1.000000	426134.000000	1774904786.759344
19560.645000	-3121.245000	24445.305000	30930.705000	12513.645000	-47643.345000	-41835.420000	-17738.685000	-10.140907	-18.852545	-21.201844	-21.545540	-23.925043	-23.879564	-18.310548	-10.465775	-2.426340	4.852680	-2.289000	0.864744	-0.263915	0.410338	-1.000000	-1.000000	-1.000000	-1.000000	-1.000000	-1.000000	-1.000000	83.931034	0.000000	-1.000000	-1.000000	426135.000000	1774904786.763533
19598.985000	-3088.485000	24464.430000	30949.380000	12550.185000	-47605.545000	-41814.675000	-17713.350000	-27.943385	-26.655292	-24.940207	-29.632684	-31.511026	-30.940279	-17.410242	-8.896259	-2.426340	4.852680	-2.289000	0.864744	-0.263915	0.410338	-1.000000	-1.000000	-1.000000	-1.000000	-1.000000	-1.000000	-1.000000	83.931034	0.000000	-1.000000	-1.000000	426136.000000	1774904786.763544
19583.820000	-3095.865000	24456.825000	30952.485000	12556.845000	-47597.130000	-41820.570000	-17733.915000	-29.458444	-20.051590	-15.678420	-22.089593	-21.211615	-20.236698	-5.974917	1.066461	-2.426340	4.852680	-2.289000	0.864744	-0.263915	0.410338	-1.000000	-1.000000	-1.000000	-1.000000	-1.000000	-1.000000	-1.000000	83.931034	0.000000	-1.000000	-1.000000	426137.000000	1774904786.767411
19550.655000	-3121.785000	24432.930000	30942.765000	12541.410000	-47612.655000	-41840.145000	-17767.125000	-15.550407	-2.763674	1.337437	-2.342885	2.089117	3.066874	9.125474	12.386388	-2.426340	4.852680	-2.289000	0.864744	-0.263915	0.410338	-1.000000	-1.000000	-1.000000	-1.000000	-1.000000	-1.000000	-1.000000	83.931034	0.000000	-1.000000	-1.000000	426138.000000	1774904786.767424
19532.835000	-3130.470000	24415.380000	30925.440000	12520.935000	-47636.730000	-41861.295000	-17789.580000	1.444654	14.740768	15.419228	17.708802	23.934367	24.540856	18.022842	15.089661	-2.426340	4.852680	-2.289000	0.864744	-0.263915	0.410338	-1.000000	-1.000000	-1.000000	-1.000000	-1.000000	-1.000000	-1.000000	83.931034	0.000000	-1.000000	-1.000000	426139.000000	1774904786.771381
19554.120000	-3103.470000	24431.445000	30936.105000	12529.935000	-47632.230000	-41857.965000	-17791.695000	11.183319	24.611548	20.412364	27.782827	32.380822	32.296726	16.325437	7.012843	-2.426340	4.852680	-2.289000	0.864744	-0.263915	0.410338	-1.000000	-1.000000	-1.000000	-1.000000	-1.000000	-1.000000	-1.000000	83.931034	0.000000	-1.000000	-1.000000	426140.000000	1774904786.771394
19572.525000	-3089.070000	24441.030000	30942.000000	12533.130000	-47631.465000	-41852.835000	-17785.215000	14.011756	26.082421	18.577042	26.445982	26.754489	25.718830	8.345641	-3.217583	-2.624720	4.593260	-3.204600	0.863157	-0.259948	0.408385	-1.000000	-1.000000	-1.000000	-1.000000	-1.000000	-1.000000	-1.000000	83.931034	0.000000	-1.000000	-1.000000	426141.000000	1774904786.775380
19577.745000	-3095.820000	24429.780000	30929.535000	12521.385000	-47638.980000	-41856.165000	-17758.845000	15.770420	21.957359	14.179182	18.337561	14.692026	12.898873	1.738188	-6.242904	-2.624720	4.593260	-3.204600	0.863157	-0.259948	0.408385	-1.000000	-1.000000	-1.000000	-1.000000	-1.000000	-1.000000	-1.000000	83.931034	0.000000	-1.000000	-1.000000	426142.000000	1774904786.775390
19576.440000	-3113.910000	24417.630000	30921.750000	12519.810000	-47636.820000	-41853.735000	-17742.735000	18.149513	13.529296	7.565350	7.458134	2.813732	1.168992	-0.507587	-1.250937	-2.624720	4.593260	-3.204600	0.863157	-0.259948	0.408385	-1.000000	-1.000000	-1.000000	-1.000000	-1.000000	-1.000000	-1.000000	83.931034	0.000000	-1.000000	-1.000000	426143.000000	1774904786.781111
19566.315000	-3112.830000	24424.110000	30932.145000	12533.805000	-47622.420000	-41851.485000	-17761.905000	16.824942	0.318094	-2.271425	-4.291665	-7.195342	-7.621900	-1.310053	4.984777	-2.624720	4.593260	-3.204600	0.863157	-0.259948	0.408385	-1.000000	-1.000000	-1.000000	-1.000000	-1.000000	-1.000000	-1.000000	83.931034	0.000000	-1.000000	-1.000000	426144.000000	1774904786.781118
19574.865000	-3089.565000	24438.015000	30948.795000	12550.770000	-47604.915000	-41837.445000	-17759.070000	8.121756	-15.174564	-12.520744	-14.191398	-14.991629	-13.878345	-3.624476	5.900624	-2.624720	4.593260	-3.204600	0.863157	-0.259948	0.408385	-1.000000	-1.000000	-1.000000	-1.000000	-1.000000	-1.000000	-1.000000	83.931034	0.000000	-1.000000	-1.000000	426145.000000	1774904786.783413
19604.430000	-3058.200000	24466.455000	30973.410000	12568.905000	-47589.165000	-41821.200000	-17732.655000	-4.541755	-25.169840	-16.975981	-17.996010	-18.165355	-16.223543	-6.027509	1.910673	-2.624720	4.593260	-3.204600	0.863157	-0.259948	0.408385	-1.000000	-1.000000	-1.000000	-1.000000	-1.000000	-1.000000	-1.000000	83.931034	0.000000	-1.000000	-1.000000	426146.000000	1774904786.783422
19598.220000	-3061.845000	24474.195000	30979.035000	12567.825000	-47595.375000	-41818.545000	-17717.445000	-13.224851	-22.705350	-11.724704	-13.446861	-14.316765	-12.749297	-5.182462	-1.346095	-2.624720	4.593260	-3.204600	0.863157	-0.259948	0.408385	-1.000000	-1.000000	-1.000000	-1.000000	-1.000000	-1.000000	-1.000000	83.931034	0.000000	-1.000000	-1.000000	426147.000000	1774904786.787960
19582.110000	-3086.145000	24465.465000	30964.590000	12554.685000	-47607.390000	-41824.890000	-17732.565000	-14.315972	-9.814837	0.238046	-3.501699	-5.169375	-4.810967	-0.785326	-0.687569	-2.624720	4.593260	-3.204600	0.863157	-0.259948	0.408385	-1.000000	-1.000000	-1.000000	-1.000000	-1.000000	-1.000000	-1.000000	83.931034	0.000000	-1.000000	-1.000000	426148.000000	1774904786.787969
19563.885000	-3107.520000	24441.030000	30947.130000	12543.075000	-47614.095000	-41828.220000	-17756.010000	-11.254422	3.312086	10.427465	5.083465	3.644631	2.978893	3.798135	1.434280	-2.624720	4.593260	-3.204600	0.863157	-0.259948	0.408385	-1.000000	-1.000000	-1.000000	-1.000000	-1.000000	-1.000000	-1.000000	83.931034	0.000000	-1.000000	-1.000000	426149.000000	1774904786.791733
19571.805000	-3105.270000	24438.690000	30944.970000	12541.410000	-47615.490000	-41841.495000	-17770.725000	-8.384608	8.329236	11.744399	7.243744	7.576174	6.893536	5.074936	0.593803	-2.624720	4.593260	-3.204600	0.863157	-0.259948	0.408385	-1.000000	-1.000000	-1.000000	-1.000000	-1.000000	-1.000000	-1.000000	83.931034	0.000000	-1.000000	-1.000000	426150.000000	1774904786.791740
19587.555000	-3095.415000	24442.515000	30948.705000	12545.595000	-47611.755000	-41854.455000	-17767.980000	-5.838565	5.888588	4.505607	3.698089	6.667072	6.701054	2.103241	-4.817260	-5.066320	5.737760	-2.990960	0.864317	-0.256835	0.405822	-1.000000	-1.000000	-1.000000	-1.000000	-1.000000	-1.000000	-1.000000	83.931034	0.000000	-1.000000	-1.000000	426151.000000	1774904786.795438
19586.835000	-3095.595000	24441.930000	30949.425000	12546.270000	-47612.070000	-41847.255000	-17767.215000	-1.694980	1.935217	-5.017678	-1.204368	3.420149	3.899119	-3.468405	-11.786168	-5.066320	5.737760	-2.990960	0.864317	-0.256835	0.405822	-1.000000	-1.000000	-1.000000	-1.000000	-1.000000	-1.000000	-1.000000	83.931034	0.000000	-1.000000	-1.000000	426152.000000	1774904786.795448
19588.590000	-3094.245000	24447.060000	30956.580000	12552.885000	-47605.500000	-41829.705000	-17758.530000	3.684806	0.041671	-10.918945	-4.295370	-0.526997	-0.415621	-8.193887	-14.676271	-5.066320	5.737760	-2.990960	0.864317	-0.256835	0.405822	-1.000000	-1.000000	-1.000000	-1.000000	-1.000000	-1.000000	-1.000000	83.931034	0.000000	-1.000000	-1.000000	426153.000000	1774904786.799394
19558.620000	-3121.920000	24418.890000	30923.460000	12522.240000	-47635.065000	-41847.705000	-17769.015000	7.196706	-0.756940	-11.512390	-5.402137	-4.646644	-5.352898	-9.084151	-10.142822	-5.066320	5.737760	-2.990960	0.864317	-0.256835	0.405822	-1.000000	-1.000000	-1.000000	-1.000000	-1.000000	-1.000000	-1.000000	83.931034	0.000000	-1.000000	-1.000000	426154.000000	1774904786.799402
19561.455000	-3099.555000	24438.600000	30937.455000	12534.795000	-47623.815000	-41838.705000	-17762.805000	6.064641	-2.209661	-8.435665	-5.760326	-8.053137	-9.252872	-6.065554	-0.572053	-5.066320	5.737760	-2.990960	0.864317	-0.256835	0.405822	-1.000000	-1.000000	-1.000000	-1.000000	-1.000000	-1.000000	-1.000000	83.931034	0.000000	-1.000000	-1.000000	426155.000000	1774904786.806573
19585.170000	-3076.515000	24458.265000	30958.200000	12552.975000	-47606.040000	-41822.010000	-17728.155000	1.832253	-2.573843	-2.915914	-4.688098	-8.122252	-9.004491	-0.622451	9.052485	-5.066320	5.737760	-2.990960	0.864317	-0.256835	0.405822	-1.000000	-1.000000	-1.000000	-1.000000	-1.000000	-1.000000	-1.000000	83.931034	0.000000	-1.000000	-1.000000	426156.000000	1774904786.806587
19610.910000	-3060.765000	24476.895000	30979.530000	12571.605000	-47588.130000	-41801.355000	-17688.915000	-0.159868	1.465226	5.105507	0.327392	-2.274794	-2.249804	6.142716	16.517366	-5.066320	5.737760	-2.990960	0.864317	-0.256835	0.405822	-1.000000	-1.000000	-1.000000	-1.000000	-1.000000	-1.000000	-1.000000	83.931034	0.000000	-1.000000	-1.000000	426157.000000	1774904786.807634
19671.300000	-3008.070000	24528.105000	31027.950000	12619.980000	-47541.285000	-41763.015000	-17632.800000	3.717659	9.674566	14.495787	9.567506	8.490711	9.269911	12.880977	22.135163	-5.066320	5.737760	-2.990960	0.864317	-0.256835	0.405822	-1.000000	-1.000000	-1.000000	-1.000000	-1.000000	-1.000000	-1.000000	83.931034	0.000000	-1.000000	-1.000000	426158.000000	1774904786.807640
19694.925000	-2978.505000	24549.255000	31051.260000	12648.510000	-47511.045000	-41744.880000	-17621.685000	11.667631	17.903382	22.013932	19.349149	19.545507	20.387047	17.599876	24.575100	-5.066320	5.737760	-2.990960	0.864317	-0.256835	0.405822	-1.000000	-1.000000	-1.000000	-1.000000	-1.000000	-1.000000	-1.000000	83.931034	0.000000	-1.000000	-1.000000	426159.000000	1774904786.813130
19624.005000	-3020.310000	24504.930000	31010.535000	12607.200000	-47553.480000	-41789.205000	-17688.195000	16.128678	19.941945	22.437994	22.987841	24.038062	24.376433	17.049155	18.813660	-5.066320	5.737760	-2.990960	0.864317	-0.256835	0.405822	-1.000000	-1.000000	-1.000000	-1.000000	-1.000000	-1.000000	-1.000000	83.931034	0.000000	-1.000000	-1.000000	426160.000000	1774904786.813142
19503.585000	-3141.720000	24391.035000	30905.775000	12502.755000	-47655.720000	-41870.565000	-17788.680000	7.641223	9.229004	10.073111	13.342506	14.726813	14.513147	6.748436	-0.043486	-2.426340	6.958560	-2.258480	0.866636	-0.259277	0.407531	-1.000000	-1.000000	-1.000000	-1.000000	-1.000000	-1.000000	-1.000000	83.931034	0.000000	-1.000000	-1.000000	426161.000000	1774904786.816154
19440.180000	-3217.545000	24328.350000	30847.140000	12449.700000	-47705.265000	-41905.080000	-17845.695000	-15.460821	-15.300539	-15.062637	-10.496240	-9.384532	-9.742002	-13.557172	-28.788402	-2.426340	6.958560	-2.258480	0.866636	-0.259277	0.407531	-1.000000	-1.000000	-1.000000	-1.000000	-1.000000	-1.000000	-1.000000	83.931034	0.000000	-1.000000	-1.000000	426162.000000	1774904786.816169
19497.105000	-3167.190000	24380.730000	30888.270000	12487.410000	-47670.660000	-41878.530000	-17817.840000	-39.725527	-41.815101	-40.609627	-36.561524	-36.027046	-36.038002	-33.809666	-52.768721	-2.426340	6.958560	-2.258480	0.866636	-0.259277	0.407531	-1.000000	-1.000000	-1.000000	-1.000000	-1.000000	-1.000000	-1.000000	83.931034	0.000000	-1.000000	-1.000000	426163.000000	1774904786.819472
19536.480000	-3132.315000	24409.845000	30913.605000	12508.200000	-47654.325000	-41865.435000	-17788.860000	-44.715383	-50.430058	-47.769720	-46.047612	-46.047122	-45.632596	-39.215445	-54.683162	-2.426340	6.958560	-2.258480	0.866636	-0.259277	0.407531	-1.000000	-1.000000	-1.000000	-1.000000	-1.000000	-1.000000	-1.000000	83.931034	0.000000	-1.000000	-1.000000	426164.000000	1774904786.819479
19540.530000	-3122.370000	24417.855000	30924.405000	12519.090000	-47645.145000	-41858.730000	-17774.865000	-22.813398	-31.463682	-28.824094	-30.397101	-30.801831	-30.395173	-24.195859	-29.777144	-2.426340	6.958560	-2.258480	0.866636	-0.259277	0.407531	-1.000000	-1.000000	-1.000000	-1.000000	-1.000000	-1.000000	-1.000000	83.931034	0.000000	-1.000000	-1.000000	426165.000000	1774904786.828354
19550.835000	-3124.395000	24419.745000	30931.425000	12530.745000	-47629.260000	-41847.480000	-17773.875000	12.690102	4.608382	5.086349	0.971555	0.416225	0.379790	2.617186	8.846040	-2.426340	6.958560	-2.258480	0.866636	-0.259277	0.407531	-1.000000	-1.000000	-1.000000	-1.000000	-1.000000	-1.000000	-1.000000	83.931034	0.000000	-1.000000	-1.000000	426166.000000	1774904786.828377
19609.965000	-3067.740000	24476.715000	30988.080000	12586.455000	-47572.830000	-41807.025000	-17730.225000	40.640362	37.032447	34.608259	30.137341	29.836784	29.443273	26.740308	40.853790	-2.426340	6.958560	-2.258480	0.866636	-0.259277	0.407531	-1.000000	-1.000000	-1.000000	-1.000000	-1.000000	-1.000000	-1.000000	83.931034	0.000000	-1.000000	-1.000000	426167.000000	1774904786.828406
19669.005000	-3005.145000	24530.580000	31039.155000	12636.810000	-47522.970000	-41767.470000	-17682.930000	49.564335	51.768359	47.589997	44.867847	44.948619	44.629793	38.748732	54.036390	-2.426340	6.958560	-2.258480	0.866636	-0.259277	0.407531	-1.000000	-1.000000	-1.000000	-1.000000	-1.000000	-1.000000	-1.000000	83.931034	0.000000	-1.000000	-1.000000	426168.000000	1774904786.828420
19660.185000	-3015.810000	24512.985000	31019.220000	12614.985000	-47546.955000	-41783.625000	-17699.400000	42.203467	48.246947	44.001454	43.602189	43.682449	43.653552	37.660476	49.376861	-2.426340	6.958560	-2.258480	0.866636	-0.259277	0.407531	-1.000000	-1.000000	-1.000000	-1.000000	-1.000000	-1.000000	-1.000000	83.931034	0.000000	-1.000000	-1.000000	426169.000000	1774904786.831601
19584.855000	-3093.750000	24440.850000	30950.325000	12545.280000	-47617.155000	-41844.780000	-17760.690000	26.167256	32.487332	29.136186	30.047214	29.623025	29.675752	26.213815	33.371655	-2.426340	6.958560	-2.258480	0.866636	-0.259277	0.407531	-1.000000	-1.000000	-1.000000	-1.000000	-1.000000	-1.000000	-1.000000	83.931034	0.000000	-1.000000	-1.000000	426170.000000	1774904786.831614
19499.850000	-3172.815000	24365.250000	30875.130000	12472.110000	-47687.670000	-41896.395000	-17818.875000	4.362618	8.608315	6.510739	7.480794	6.416954	6.230173	6.622815	10.200406	-0.976640	6.363420	-2.990960	0.869383	-0.263671	0.409789	-1.000000	-1.000000	-1.000000	-1.000000	-1.000000	-1.000000	-1.000000	83.931034	0.000000	-1.000000	-1.000000	426171.000000	1774904786.835573
19539.495000	-3132.540000	24397.065000	30906.855000	12503.790000	-47656.890000	-41880.060000	-17789.580000	-22.087959	-19.866213	-20.465286	-19.658562	-20.839556	-21.198951	-16.985319	-16.447814	-0.976640	6.363420	-2.990960	0.869383	-0.263671	0.409789	-1.000000	-1.000000	-1.000000	-1.000000	-1.000000	-1.000000	-1.000000	83.931034	0.000000	-1.000000	-1.000000	426172.000000	1774904786.835583
19584.630000	-3096.990000	24416.505000	30942.135000	12544.335000	-47615.085000	-41866.020000	-17763.615000	-44.542140	-43.325129	-42.580400	-41.126878	-41.396185	-41.417161	-35.362198	-38.185845	-0.976640	6.363420	-2.990960	0.869383	-0.263671	0.409789	-1.000000	-1.000000	-1.000000	-1.000000	-1.000000	-1.000000	-1.000000	83.931034	0.000000	-1.000000	-1.000000	426173.000000	1774904786.839569
19601.505000	-3081.825000	24417.720000	30943.710000	12552.750000	-47606.760000	-41849.415000	-17748.090000	-49.919684	-49.363807	-48.260841	-45.404904	-43.939929	-43.228553	-38.948463	-45.125068	-0.976640	6.363420	-2.990960	0.869383	-0.263671	0.409789	-1.000000	-1.000000	-1.000000	-1.000000	-1.000000	-1.000000	-1.000000	83.931034	0.000000	-1.000000	-1.000000	426174.000000	1774904786.839587
19580.220000	-3085.920000	24410.070000	30928.770000	12536.685000	-47620.575000	-41827.005000	-17745.525000	-35.075063	-35.048677	-34.832869	-31.205445	-28.190047	-26.972989	-26.149521	-34.781020	-0.976640	6.363420	-2.990960	0.869383	-0.263671	0.409789	-1.000000	-1.000000	-1.000000	-1.000000	-1.000000	-1.000000	-1.000000	83.931034	0.000000	-1.000000	-1.000000	426175.000000	1774904786.843418
19533.060000	-3113.370000	24421.635000	30914.505000	12509.595000	-47646.990000	-41831.190000	-17773.425000	-11.801602	-11.230714	-11.503122	-9.468988	-6.436829	-5.398885	-5.050030	-15.131509	-0.976640	6.363420	-2.990960	0.869383	-0.263671	0.409789	-1.000000	-1.000000	-1.000000	-1.000000	-1.000000	-1.000000	-1.000000	83.931034	0.000000	-1.000000	-1.000000	426176.000000	1774904786.843424
19517.130000	-3139.020000	24426.765000	30915.540000	12508.695000	-47648.340000	-41839.020000	-17794.395000	5.076694	7.085583	9.612087	7.458241	8.332498	8.624489	12.765313	2.088729	-0.976640	6.363420	-2.990960	0.869383	-0.263671	0.409789	-1.000000	-1.000000	-1.000000	-1.000000	-1.000000	-1.000000	-1.000000	83.931034	0.000000	-1.000000	-1.000000	426177.000000	1774904786.847545
19535.580000	-3130.065000	24404.895000	30927.015000	12526.785000	-47630.970000	-41837.580000	-17783.235000	12.537742	14.627642	22.848342	16.603336	14.321368	13.757157	21.129169	11.969344	-0.976640	6.363420	-2.990960	0.869383	-0.263671	0.409789	-1.000000	-1.000000	-1.000000	-1.000000	-1.000000	-1.000000	-1.000000	83.931034	0.000000	-1.000000	-1.000000	426178.000000	1774904786.847555
19556.055000	-3107.565000	24407.325000	30927.195000	12526.200000	-47632.680000	-41843.295000	-17767.440000	19.094254	18.511348	29.488929	23.072980	18.881608	17.702442	22.078934	18.635781	-0.976640	6.363420	-2.990960	0.869383	-0.263671	0.409789	-1.000000	-1.000000	-1.000000	-1.000000	-1.000000	-1.000000	-1.000000	83.931034	0.000000	-1.000000	-1.000000	426179.000000	1774904786.854312
19573.965000	-3095.370000	24430.905000	30932.955000	12522.510000	-47637.900000	-41848.650000	-17751.960000	30.100365	25.511348	31.707667	29.409001	25.581393	24.131869	19.464805	25.812016	-0.976640	6.363420	-2.990960	0.869383	-0.263671	0.409789	-1.000000	-1.000000	-1.000000	-1.000000	-1.000000	-1.000000	-1.000000	83.931034	0.000000	-1.000000	-1.000000	426180.000000	1774904786.854321
19564.110000	-3110.940000	24443.460000	30947.895000	12537.495000	-47625.165000	-41847.975000	-17751.690000	38.097714	30.700189	27.931588	30.368654	28.355473	27.000606	13.402905	29.277074	-2.456860	6.287120	-1.220800	0.869566	-0.265868	0.411376	-1.000000	-1.000000	-1.000000	-1.000000	-1.000000	-1.000000	-1.000000	83.931034	0.000000	-1.000000	-1.000000	426181.000000	1774904786.855417
19570.095000	-3098.115000	24445.800000	30959.820000	12547.305000	-47615.760000	-41844.645000	-17761.455000	31.218413	24.027820	15.512515	20.045321	19.976257	19.071066	2.962987	21.805875	-2.456860	6.287120	-1.220800	0.869566	-0.265868	0.411376	-1.000000	-1.000000	-1.000000	-1.000000	-1.000000	-1.000000	-1.000000	83.931034	0.000000	-1.000000	-1.000000	426182.000000	1774904786.855426
19599.525000	-3065.040000	24476.895000	30988.665000	12570.930000	-47593.530000	-41828.715000	-17754.210000	8.719496	5.119317	-2.831854	0.955867	2.051537	1.792889	-9.351580	3.173663	-2.456860	6.287120	-1.220800	0.869566	-0.265868	0.411376	-1.000000	-1.000000	-1.000000	-1.000000	-1.000000	-1.000000	-1.000000	83.931034	0.000000	-1.000000	-1.000000	426183.000000	1774904786.863878
19612.215000	-3050.865000	24489.765000	30986.865000	12573.630000	-47587.545000	-41814.315000	-17719.065000	-16.730297	-15.199093	-19.114019	-17.339420	-15.953937	-15.598842	-18.379662	-17.333052	-2.456860	6.287120	-1.220800	0.869566	-0.265868	0.411376	-1.000000	-1.000000	-1.000000	-1.000000	-1.000000	-1.000000	-1.000000	83.931034	0.000000	-1.000000	-1.000000	426184.000000	1774904786.863891
19605.150000	-3055.095000	24480.270000	30970.215000	12570.840000	-47588.670000	-41814.630000	-17711.145000	-31.143204	-26.046775	-27.185525	-27.202799	-25.381542	-24.512519	-20.100609	-27.851424	-2.456860	6.287120	-1.220800	0.869566	-0.265868	0.411376	-1.000000	-1.000000	-1.000000	-1.000000	-1.000000	-1.000000	-1.000000	83.931034	0.000000	-1.000000	-1.000000	426185.000000	1774904786.863905
19603.485000	-3078.270000	24454.260000	30951.495000	12558.150000	-47600.055000	-41827.140000	-17714.430000	-29.751073	-24.436053	-26.431507	-27.389907	-24.078126	-22.747577	-14.170685	-23.330867	-2.456860	6.287120	-1.220800	0.869566	-0.265868	0.411376	-1.000000	-1.000000	-1.000000	-1.000000	-1.000000	-1.000000	-1.000000	83.931034	0.000000	-1.000000	-1.000000	426186.000000	1774904786.863911
19582.065000	-3105.630000	24430.995000	30939.210000	12540.555000	-47616.075000	-41841.270000	-17750.205000	-17.475726	-14.785474	-19.013772	-20.311289	-15.443570	-13.790046	-3.860706	-9.127017	-2.456860	6.287120	-1.220800	0.869566	-0.265868	0.411376	-1.000000	-1.000000	-1.000000	-1.000000	-1.000000	-1.000000	-1.000000	83.931034	0.000000	-1.000000	-1.000000	426187.000000	1774904786.867557
19582.920000	-3092.805000	24446.970000	30958.020000	12551.985000	-47609.280000	-41832.270000	-17746.470000	-3.257293	-3.907344	-7.576555	-8.713053	-4.322798	-2.761575	6.299617	4.224181	-2.456860	6.287120	-1.220800	0.869566	-0.265868	0.411376	-1.000000	-1.000000	-1.000000	-1.000000	-1.000000	-1.000000	-1.000000	83.931034	0.000000	-1.000000	-1.000000	426188.000000	1774904786.867570
19597.950000	-3080.565000	24452.370000	30964.140000	12555.810000	-47608.470000	-41826.105000	-17722.485000	6.006330	3.837808	4.144288	4.156000	5.430813	6.234461	12.841379	9.852228	-2.456860	6.287120	-1.220800	0.869566	-0.265868	0.411376	-1.000000	-1.000000	-1.000000	-1.000000	-1.000000	-1.000000	-1.000000	83.931034	0.000000	-1.000000	-1.000000	426189.000000	1774904786.871642
19582.695000	-3094.245000	24422.940000	30938.805000	12538.665000	-47621.475000	-41829.615000	-17736.165000	8.161650	7.235353	11.368837	13.135786	10.378268	9.992834	13.832293	7.928549	-2.456860	6.287120	-1.220800	0.869566	-0.265868	0.411376	-1.000000	-1.000000	-1.000000	-1.000000	-1.000000	-1.000000	-1.000000	83.931034	0.000000	-1.000000	-1.000000	426190.000000	1774904786.871652
19571.715000	-3116.430000	24388.605000	30908.070000	12515.625000	-47642.220000	-41841.675000	-17740.890000	4.489998	5.997991	10.685349	13.282257	8.106834	6.865561	8.878997	2.192214	-1.815940	5.676720	-1.358140	0.868467	-0.267455	0.412841	-1.000000	-1.000000	-1.000000	-1.000000	-1.000000	-1.000000	-1.000000	83.931034	0.000000	-1.000000	-1.000000	426191.000000	1774904786.877517
19551.645000	-3126.645000	24396.255000	30907.845000	12512.880000	-47644.245000	-41847.705000	-17765.640000	-2.244466	0.487298	3.110215	4.794099	0.105795	-1.139027	-0.392655	-4.017342	-1.815940	5.676720	-1.358140	0.868467	-0.267455	0.412841	-1.000000	-1.000000	-1.000000	-1.000000	-1.000000	-1.000000	-1.000000	83.931034	0.000000	-1.000000	-1.000000	426192.000000	1774904786.877540
19551.870000	-3114.900000	24434.145000	30936.780000	12533.085000	-47626.290000	-41840.730000	-17780.220000	-8.042113	-6.037840	-4.929712	-5.147141	-7.507886	-8.215522	-9.945137	-8.938476	-1.815940	5.676720	-1.358140	0.868467	-0.267455	0.412841	-1.000000	-1.000000	-1.000000	-1.000000	-1.000000	-1.000000	-1.000000	83.931034	0.000000	-1.000000	-1.000000	426193.000000	1774904786.879399
19571.355000	-3090.960000	24466.095000	30964.860000	12548.430000	-47615.130000	-41836.995000	-17779.725000	-8.182191	-7.521716	-5.300216	-7.219478	-7.939405	-8.314435	-14.387191	-10.839530	-1.815940	5.676720	-1.358140	0.868467	-0.267455	0.412841	-1.000000	-1.000000	-1.000000	-1.000000	-1.000000	-1.000000	-1.000000	83.931034	0.000000	-1.000000	-1.000000	426194.000000	1774904786.879409
19590.750000	-3067.785000	24476.670000	30981.870000	12569.940000	-47595.420000	-41821.965000	-17766.405000	-0.264167	0.133684	4.868324	1.850505	0.706591	0.074098	-10.246848	-7.024497	-1.815940	5.676720	-1.358140	0.868467	-0.267455	0.412841	-1.000000	-1.000000	-1.000000	-1.000000	-1.000000	-1.000000	-1.000000	83.931034	0.000000	-1.000000	-1.000000	426195.000000	1774904786.886264
19592.415000	-3069.270000	24473.250000	30979.710000	12570.660000	-47592.855000	-41818.455000	-17752.860000	12.613115	13.953176	19.414016	15.850947	13.627017	12.512417	0.965085	3.388388	-1.815940	5.676720	-1.358140	0.868467	-0.267455	0.412841	-1.000000	-1.000000	-1.000000	-1.000000	-1.000000	-1.000000	-1.000000	83.931034	0.000000	-1.000000	-1.000000	426196.000000	1774904786.886277
19600.020000	-3054.330000	24489.405000	30996.585000	12587.085000	-47578.635000	-41805.225000	-17722.800000	22.625262	24.468847	27.117573	23.951294	22.413820	21.367882	12.898936	16.291632	-1.815940	5.676720	-1.358140	0.868467	-0.267455	0.412841	-1.000000	-1.000000	-1.000000	-1.000000	-1.000000	-1.000000	-1.000000	83.931034	0.000000	-1.000000	-1.000000	426197.000000	1774904786.887392
19594.845000	-3053.070000	24489.900000	31000.770000	12594.645000	-47569.320000	-41794.470000	-17717.715000	22.532382	23.331420	20.984335	19.532907	20.897525	20.810995	18.569547	24.175554	-1.815940	5.676720	-1.358140	0.868467	-0.267455	0.412841	-1.000000	-1.000000	-1.000000	-1.000000	-1.000000	-1.000000	-1.000000	83.931034	0.000000	-1.000000	-1.000000	426198.000000	1774904786.887400
19613.745000	-3036.555000	24499.125000	31008.825000	12604.230000	-47557.395000	-41781.240000	-17686.440000	11.726042	10.610675	4.200065	5.140797	9.695726	10.964947	15.399403	22.246942	-1.815940	5.676720	-1.358140	0.868467	-0.267455	0.412841	-1.000000	-1.000000	-1.000000	-1.000000	-1.000000	-1.000000	-1.000000	83.931034	0.000000	-1.000000	-1.000000	426199.000000	1774904786.891317
19645.425000	-3023.190000	24514.110000	31026.960000	12626.190000	-47531.070000	-41765.850000	-17658.315000	-2.891220	-5.943973	-13.242747	-10.458826	-4.639985	-2.410886	6.231279	12.482057	-1.815940	5.676720	-1.358140	0.868467	-0.267455	0.412841	-1.000000	-1.000000	-1.000000	-1.000000	-1.000000	-1.000000	-1.000000	83.931034	0.000000	-1.000000	-1.000000	426200.000000	1774904786.891328
19616.760000	-3045.825000	24491.205000	30999.960000	12596.220000	-47561.535000	-41795.010000	-17699.040000	-13.217121	-18.178419	-23.611209	-20.014432	-15.454886	-13.108843	-4.306193	0.103268	-3.036740	4.379620	-1.785420	0.867674	-0.264526	0.414794	-1.000000	-1.000000	-1.000000	-1.000000	-1.000000	-1.000000	-1.000000	83.931034	0.000000	-1.000000	-1.000000	426201.000000	1774904786.896806
19591.110000	-3088.305000	24444.720000	30950.145000	12543.615000	-47617.830000	-41835.330000	-17747.010000	-16.968897	-23.590080	-26.780021	-23.123284	-21.333885	-19.752433	-13.668176	-12.159725	-3.036740	4.379620	-1.785420	0.867674	-0.264526	0.414794	-1.000000	-1.000000	-1.000000	-1.000000	-1.000000	-1.000000	-1.000000	83.931034	0.000000	-1.000000	-1.000000	426202.000000	1774904786.896815
19533.645000	-3140.595000	24378.120000	30890.340000	12491.280000	-47672.505000	-41871.735000	-17797.860000	-17.565697	-24.556028	-26.768514	-23.746333	-24.674005	-24.475338	-20.889616	-23.591307	-3.036740	4.379620	-1.785420	0.867674	-0.264526	0.414794	-1.000000	-1.000000	-1.000000	-1.000000	-1.000000	-1.000000	-1.000000	83.931034	0.000000	-1.000000	-1.000000	426203.000000	1774904786.906791
19522.395000	-3145.500000	24352.245000	30879.990000	12495.555000	-47666.475000	-41871.195000	-17809.245000	-18.109696	-22.804826	-24.920059	-23.262328	-25.513715	-26.750870	-23.742897	-31.455035	-3.036740	4.379620	-1.785420	0.867674	-0.264526	0.414794	-1.000000	-1.000000	-1.000000	-1.000000	-1.000000	-1.000000	-1.000000	83.931034	0.000000	-1.000000	-1.000000	426204.000000	1774904786.906803
19515.375000	-3155.445000	24349.680000	30877.470000	12484.845000	-47678.445000	-41879.835000	-17805.015000	-17.084359	-16.742036	-18.332380	-18.256158	-20.113824	-22.183260	-19.241468	-30.931271	-3.036740	4.379620	-1.785420	0.867674	-0.264526	0.414794	-1.000000	-1.000000	-1.000000	-1.000000	-1.000000	-1.000000	-1.000000	83.931034	0.000000	-1.000000	-1.000000	426205.000000	1774904786.906816
19538.145000	-3127.140000	24409.980000	30918.780000	12510.270000	-47655.450000	-41859.405000	-17792.595000	-10.657823	-4.766103	-3.949741	-5.396107	-6.455145	-8.443017	-7.209928	-19.624204	-3.036740	4.379620	-1.785420	0.867674	-0.264526	0.414794	-1.000000	-1.000000	-1.000000	-1.000000	-1.000000	-1.000000	-1.000000	83.931034	0.000000	-1.000000	-1.000000	426206.000000	1774904786.906821
19569.105000	-3099.690000	24448.230000	30947.085000	12536.235000	-47628.450000	-41849.820000	-17789.040000	2.389534	11.472916	17.393883	13.904725	12.283779	11.034821	8.422326	-0.742996	-3.036740	4.379620	-1.785420	0.867674	-0.264526	0.414794	-1.000000	-1.000000	-1.000000	-1.000000	-1.000000	-1.000000	-1.000000	83.931034	0.000000	-1.000000	-1.000000	426207.000000	1774904786.908431
19583.055000	-3070.575000	24467.130000	30973.230000	12563.190000	-47600.955000	-41858.460000	-17787.330000	18.172001	27.087799	38.857317	33.050696	29.533755	29.138995	21.320970	18.078807	-3.036740	4.379620	-1.785420	0.867674	-0.264526	0.414794	-1.000000	-1.000000	-1.000000	-1.000000	-1.000000	-1.000000	-1.000000	83.931034	0.000000	-1.000000	-1.000000	426208.000000	1774904786.908437
19606.950000	-3054.780000	24471.630000	30975.120000	12567.735000	-47595.195000	-41850.315000	-17734.905000	29.330754	35.837024	49.531730	43.071901	38.263295	38.456522	25.963641	29.845747	-3.036740	4.379620	-1.785420	0.867674	-0.264526	0.414794	-1.000000	-1.000000	-1.000000	-1.000000	-1.000000	-1.000000	-1.000000	83.931034	0.000000	-1.000000	-1.000000	426209.000000	1774904786.911542
19589.940000	-3061.080000	24470.685000	30976.020000	12565.260000	-47601.180000	-41836.455000	-17710.380000	30.528735	33.701567	42.339206	38.409217	34.666792	35.128887	21.908706	33.514310	-3.036740	4.379620	-1.785420	0.867674	-0.264526	0.414794	-1.000000	-1.000000	-1.000000	-1.000000	-1.000000	-1.000000	-1.000000	83.931034	0.000000	-1.000000	-1.000000	426210.000000	1774904786.911553
19513.260000	-3137.265000	24407.505000	30925.485000	12518.055000	-47646.135000	-41849.955000	-17748.405000	20.802414	20.619459	19.662218	20.811452	20.434998	21.055062	13.666258	31.237089	-5.188400	3.860780	-1.678600	0.867307	-0.262084	0.415709	-1.000000	-1.000000	-1.000000	-1.000000	-1.000000	-1.000000	-1.000000	83.931034	0.000000	-1.000000	-1.000000	426211.000000	1774904786.916867
19489.455000	-3172.500000	24370.020000	30887.640000	12485.700000	-47672.730000	-41865.120000	-17791.515000	2.720337	-0.218049	-9.090253	-2.859449	0.653359	1.629153	5.167724	22.171750	-5.188400	3.860780	-1.678600	0.867307	-0.262084	0.415709	-1.000000	-1.000000	-1.000000	-1.000000	-1.000000	-1.000000	-1.000000	83.931034	0.000000	-1.000000	-1.000000	426212.000000	1774904786.916874
19553.805000	-3116.655000	24406.155000	30910.815000	12505.950000	-47654.280000	-41859.315000	-17782.650000	-15.693058	-21.000265	-32.018808	-23.952801	-18.212370	-16.680946	-2.693263	5.200396	-5.188400	3.860780	-1.678600	0.867307	-0.262084	0.415709	-1.000000	-1.000000	-1.000000	-1.000000	-1.000000	-1.000000	-1.000000	83.931034	0.000000	-1.000000	-1.000000	426213.000000	1774904786.920173
19593.495000	-3090.555000	24429.735000	30937.410000	12531.645000	-47632.230000	-41837.805000	-17749.395000	-23.449463	-30.927599	-39.648368	-34.321995	-28.921493	-27.171269	-9.314966	-14.774177	-5.188400	3.860780	-1.678600	0.867307	-0.262084	0.415709	-1.000000	-1.000000	-1.000000	-1.000000	-1.000000	-1.000000	-1.000000	83.931034	0.000000	-1.000000	-1.000000	426214.000000	1774904786.920183
19585.395000	-3095.955000	24432.345000	30939.660000	12532.905000	-47631.870000	-41823.180000	-17730.540000	-17.106644	-25.692165	-31.414757	-30.998953	-27.582443	-26.473422	-13.089492	-28.532968	-5.188400	3.860780	-1.678600	0.867307	-0.262084	0.415709	-1.000000	-1.000000	-1.000000	-1.000000	-1.000000	-1.000000	-1.000000	83.931034	0.000000	-1.000000	-1.000000	426215.000000	1774904786.923575
19559.610000	-3112.290000	24420.330000	30925.485000	12520.305000	-47641.230000	-41826.600000	-17746.560000	-5.103179	-12.267215	-15.777864	-18.801991	-17.623102	-17.858090	-13.222635	-30.411825	-5.188400	3.860780	-1.678600	0.867307	-0.262084	0.415709	-1.000000	-1.000000	-1.000000	-1.000000	-1.000000	-1.000000	-1.000000	83.931034	0.000000	-1.000000	-1.000000	426216.000000	1774904786.923586
19566.360000	-3092.445000	24437.565000	30943.170000	12537.945000	-47622.285000	-41824.035000	-17751.330000	1.575312	-0.875413	-1.879269	-5.537415	-6.226317	-7.759931	-10.555614	-22.697307	-5.188400	3.860780	-1.678600	0.867307	-0.262084	0.415709	-1.000000	-1.000000	-1.000000	-1.000000	-1.000000	-1.000000	-1.000000	83.931034	0.000000	-1.000000	-1.000000	426217.000000	1774904786.927634
19573.110000	-3075.615000	24460.020000	30970.485000	12565.485000	-47596.545000	-41819.040000	-17746.290000	0.235388	4.597378	7.088040	4.786184	2.731127	0.626893	-6.485060	-11.953575	-5.188400	3.860780	-1.678600	0.867307	-0.262084	0.415709	-1.000000	-1.000000	-1.000000	-1.000000	-1.000000	-1.000000	-1.000000	83.931034	0.000000	-1.000000	-1.000000	426218.000000	1774904786.927644
19584.045000	-3081.780000	24456.150000	30985.020000	12580.920000	-47583.000000	-41814.090000	-17735.445000	-2.931760	7.054069	12.852222	12.852964	10.146455	8.359232	-1.930157	-2.238208	-5.188400	3.860780	-1.678600	0.867307	-0.262084	0.415709	-1.000000	-1.000000	-1.000000	-1.000000	-1.000000	-1.000000	-1.000000	83.931034	0.000000	-1.000000	-1.000000	426219.000000	1774904786.931586
19585.125000	-3078.675000	24462.360000	30984.885000	12580.065000	-47583.270000	-41815.080000	-17740.755000	-0.411165	10.580583	17.690845	19.840049	17.259557	16.337729	2.771669	6.851452	-5.188400	3.860780	-1.678600	0.867307	-0.262084	0.415709	-1.000000	-1.000000	-1.000000	-1.000000	-1.000000	-1.000000	-1.000000	83.931034	0.000000	-1.000000	-1.000000	426220.000000	1774904786.931595
19573.785000	-3067.245000	24457.950000	30971.655000	12562.785000	-47602.125000	-41825.340000	-17751.825000	8.052941	15.357095	21.166337	23.745307	21.588812	21.505841	6.772342	15.644005	-3.769220	2.685760	-2.121140	0.865904	-0.263244	0.415648	-1.000000	-1.000000	-1.000000	-1.000000	-1.000000	-1.000000	-1.000000	83.931034	0.000000	-1.000000	-1.000000	426221.000000	1774904786.936282
19560.960000	-3086.775000	24430.635000	30944.745000	12532.950000	-47631.330000	-41838.525000	-17771.670000	13.812567	16.135541	18.811139	19.515323	17.662299	18.061946	7.846406	20.193518	-3.769220	2.685760	-2.121140	0.865904	-0.263244	0.415648	-1.000000	-1.000000	-1.000000	-1.000000	-1.000000	-1.000000	-1.000000	83.931034	0.000000	-1.000000	-1.000000	426222.000000	1774904786.936296
19575.045000	-3104.865000	24412.230000	30930.660000	12520.710000	-47643.165000	-41840.055000	-17763.705000	9.093192	7.436255	6.308525	4.378007	3.049106	3.754958	4.137584	15.620209	-3.769220	2.685760	-2.121140	0.865904	-0.263244	0.415648	-1.000000	-1.000000	-1.000000	-1.000000	-1.000000	-1.000000	-1.000000	83.931034	0.000000	-1.000000	-1.000000	426223.000000	1774904786.939790
19570.950000	-3108.690000	24386.040000	30910.905000	12518.370000	-47641.455000	-41842.440000	-17762.355000	-3.346131	-8.575923	-13.339806	-16.437679	-16.315103	-15.227703	-2.950075	3.220723	-3.769220	2.685760	-2.121140	0.865904	-0.263244	0.415648	-1.000000	-1.000000	-1.000000	-1.000000	-1.000000	-1.000000	-1.000000	83.931034	0.000000	-1.000000	-1.000000	426224.000000	1774904786.939802
19587.285000	-3087.540000	24384.690000	30923.505000	12541.545000	-47618.055000	-41832.090000	-17726.580000	-13.672414	-22.193527	-29.915306	-31.703112	-29.025568	-27.625772	-8.719010	-8.800330	-3.769220	2.685760	-2.121140	0.865904	-0.263244	0.415648	-1.000000	-1.000000	-1.000000	-1.000000	-1.000000	-1.000000	-1.000000	83.931034	0.000000	-1.000000	-1.000000	426225.000000	1774904786.943597
19590.030000	-3077.730000	24429.780000	30944.925000	12554.640000	-47607.030000	-41827.140000	-17720.730000	-15.019821	-24.737191	-33.314252	-32.434758	-27.280957	-26.034303	-8.861310	-12.579252	-3.769220	2.685760	-2.121140	0.865904	-0.263244	0.415648	-1.000000	-1.000000	-1.000000	-1.000000	-1.000000	-1.000000	-1.000000	83.931034	0.000000	-1.000000	-1.000000	426226.000000	1774904786.943606
19579.635000	-3088.755000	24485.895000	30971.970000	12561.255000	-47604.915000	-41832.855000	-17747.055000	-8.108482	-15.440236	-19.723391	-17.955016	-12.739933	-12.283408	-3.295557	-7.907933	-3.769220	2.685760	-2.121140	0.865904	-0.263244	0.415648	-1.000000	-1.000000	-1.000000	-1.000000	-1.000000	-1.000000	-1.000000	83.931034	0.000000	-1.000000	-1.000000	426227.000000	1774904786.950837
19549.080000	-3112.695000	24452.820000	30950.235000	12536.325000	-47629.485000	-41849.055000	-17784.090000	1.302426	-0.427343	5.374342	4.176689	5.735872	5.075577	3.938821	-1.373496	-3.769220	2.685760	-2.121140	0.865904	-0.263244	0.415648	-1.000000	-1.000000	-1.000000	-1.000000	-1.000000	-1.000000	-1.000000	83.931034	0.000000	-1.000000	-1.000000	426228.000000	1774904786.950847
19536.255000	-3113.415000	24416.415000	30929.220000	12521.025000	-47641.815000	-41849.820000	-17774.325000	7.517922	12.534549	27.978568	22.651119	18.682839	17.201652	8.471448	1.697808	-3.769220	2.685760	-2.121140	0.865904	-0.263244	0.415648	-1.000000	-1.000000	-1.000000	-1.000000	-1.000000	-1.000000	-1.000000	83.931034	0.000000	-1.000000	-1.000000	426229.000000	1774904786.951554
19574.145000	-3067.875000	24428.790000	30960.945000	12560.985000	-47601.405000	-41817.690000	-17740.530000	8.768191	18.691634	34.835518	29.481197	22.076295	20.595237	9.287476	2.338940	-3.769220	2.685760	-2.121140	0.865904	-0.263244	0.415648	-1.000000	-1.000000	-1.000000	-1.000000	-1.000000	-1.000000	-1.000000	83.931034	0.000000	-1.000000	-1.000000	426230.000000	1774904786.951564
19615.995000	-3032.865000	24454.305000	30995.010000	12602.430000	-47557.170000	-41780.655000	-17703.225000	7.693273	18.627824	24.642279	25.081266	19.009569	18.399568	8.723468	4.477529	-1.434440	2.945180	-1.037680	0.864927	-0.265075	0.413451	-1.000000	-1.000000	-1.000000	-1.000000	-1.000000	-1.000000	-1.000000	83.931034	0.000000	-1.000000	-1.000000	426231.000000	1774904786.955692
19614.780000	-3044.385000	24470.325000	30993.660000	12598.470000	-47560.815000	-41789.745000	-17721.900000	7.206713	15.339596	7.226131	15.187218	14.216359	14.832445	8.322922	8.319007	-1.434440	2.945180	-1.037680	0.864927	-0.265075	0.413451	-1.000000	-1.000000	-1.000000	-1.000000	-1.000000	-1.000000	-1.000000	83.931034	0.000000	-1.000000	-1.000000	426232.000000	1774904786.955702
19600.290000	-3082.140000	24472.620000	30970.170000	12562.740000	-47598.435000	-41828.895000	-17761.005000	6.443128	8.934898	-6.736832	3.952421	7.745476	9.102690	5.764540	8.830393	-1.434440	2.945180	-1.037680	0.864927	-0.265075	0.413451	-1.000000	-1.000000	-1.000000	-1.000000	-1.000000	-1.000000	-1.000000	83.931034	0.000000	-1.000000	-1.000000	426233.000000	1774904786.959724
19562.085000	-3130.785000	24433.830000	30924.630000	12508.245000	-47654.865000	-41867.820000	-17789.985000	2.133480	-2.854280	-13.736526	-8.189707	-3.693017	-2.653491	-2.257137	1.300657	-1.434440	2.945180	-1.037680	0.864927	-0.265075	0.413451	-1.000000	-1.000000	-1.000000	-1.000000	-1.000000	-1.000000	-1.000000	83.931034	0.000000	-1.000000	-1.000000	426234.000000	1774904786.959734
19584.135000	-3097.980000	24445.845000	30946.590000	12534.480000	-47628.270000	-41844.825000	-17751.330000	-6.188554	-17.952804	-17.178386	-20.659215	-19.228547	-19.265248	-13.951217	-11.310639	-1.434440	2.945180	-1.037680	0.864927	-0.265075	0.413451	-1.000000	-1.000000	-1.000000	-1.000000	-1.000000	-1.000000	-1.000000	83.931034	0.000000	-1.000000	-1.000000	426235.000000	1774904786.963681
19596.960000	-3065.040000	24467.040000	30972.780000	12570.615000	-47590.830000	-41821.650000	-17724.555000	-13.055254	-26.637408	-19.331448	-28.229942	-29.713662	-30.612187	-21.100308	-18.215729	-1.434440	2.945180	-1.037680	0.864927	-0.265075	0.413451	-1.000000	-1.000000	-1.000000	-1.000000	-1.000000	-1.000000	-1.000000	83.931034	0.000000	-1.000000	-1.000000	426236.000000	1774904786.963691
19595.340000	-3070.035000	24457.635000	30962.925000	12559.455000	-47602.305000	-41828.535000	-17735.445000	-11.891613	-20.200913	-16.784467	-24.173846	-25.362562	-26.272414	-16.687055	-11.584599	-1.434440	2.945180	-1.037680	0.864927	-0.265075	0.413451	-1.000000	-1.000000	-1.000000	-1.000000	-1.000000	-1.000000	-1.000000	83.931034	0.000000	-1.000000	-1.000000	426237.000000	1774904786.968818
19573.065000	-3098.205000	24429.195000	30933.585000	12526.470000	-47639.970000	-41851.890000	-17758.755000	-3.268946	-2.539400	-7.122395	-9.107357	-7.739892	-8.132271	-3.261398	3.645339	-1.434440	2.945180	-1.037680	0.864927	-0.265075	0.413451	-1.000000	-1.000000	-1.000000	-1.000000	-1.000000	-1.000000	-1.000000	83.931034	0.000000	-1.000000	-1.000000	426238.000000	1774904786.968830
19542.915000	-3127.320000	24404.085000	30910.725000	12505.230000	-47660.715000	-41864.130000	-17778.690000	4.448352	12.141449	4.685106	7.144372	10.254057	10.190163	8.974452	14.275200	-1.434440	2.945180	-1.037680	0.864927	-0.265075	0.413451	-1.000000	-1.000000	-1.000000	-1.000000	-1.000000	-1.000000	-1.000000	83.931034	0.000000	-1.000000	-1.000000	426239.000000	1774904786.971535
19550.790000	-3113.595000	24417.720000	30926.565000	12522.330000	-47641.995000	-41844.870000	-17764.200000	3.926083	13.844344	11.133770	14.803651	17.205722	17.072179	12.310079	12.263968	-1.434440	2.945180	-1.037680	0.864927	-0.265075	0.413451	-1.000000	-1.000000	-1.000000	-1.000000	-1.000000	-1.000000	-1.000000	83.931034	0.000000	-1.000000	-1.000000	426240.000000	1774904786.971548
19573.155000	-3083.895000	24448.320000	30956.760000	12551.760000	-47612.430000	-41831.730000	-17751.690000	-2.589140	6.236601	10.769873	13.547328	13.562532	13.303645	8.377611	1.980847	-0.915600	2.227960	-1.068200	0.866270	-0.262756	0.412841	-1.000000	-1.000000	-1.000000	-1.000000	-1.000000	-1.000000	-1.000000	83.931034	0.000000	-1.000000	-1.000000	426241.000000	1774904786.975588
19614.285000	-3040.740000	24494.670000	31004.145000	12598.695000	-47565.720000	-41816.025000	-17736.120000	-5.667075	1.043359	8.821308	10.920590	8.756237	8.649117	4.658552	-5.641932	-0.915600	2.227960	-1.068200	0.866270	-0.262756	0.412841	-1.000000	-1.000000	-1.000000	-1.000000	-1.000000	-1.000000	-1.000000	83.931034	0.000000	-1.000000	-1.000000	426242.000000	1774904786.975599
19645.920000	-3010.545000	24523.965000	31035.105000	12631.770000	-47530.080000	-41788.395000	-17721.675000	0.913788	5.202499	10.254373	12.759507	10.092284	10.474563	5.938131	-4.456329	-0.915600	2.227960	-1.068200	0.866270	-0.262756	0.412841	-1.000000	-1.000000	-1.000000	-1.000000	-1.000000	-1.000000	-1.000000	83.931034	0.000000	-1.000000	-1.000000	426243.000000	1774904786.979502
19665.765000	-2990.700000	24539.310000	31047.435000	12641.805000	-47522.880000	-41771.880000	-17719.740000	13.618859	14.391608	13.619814	16.550063	15.108081	16.101358	10.121676	2.313586	-0.915600	2.227960	-1.068200	0.866270	-0.262756	0.412841	-1.000000	-1.000000	-1.000000	-1.000000	-1.000000	-1.000000	-1.000000	83.931034	0.000000	-1.000000	-1.000000	426244.000000	1774904786.979513
19600.020000	-3055.410000	24470.505000	30977.955000	12574.305000	-47586.735000	-41803.470000	-17744.670000	21.699913	17.549480	12.159116	13.984704	14.212629	15.524013	10.856057	6.946973	-0.915600	2.227960	-1.068200	0.866270	-0.262756	0.412841	-1.000000	-1.000000	-1.000000	-1.000000	-1.000000	-1.000000	-1.000000	83.931034	0.000000	-1.000000	-1.000000	426245.000000	1774904786.983718
19532.295000	-3122.955000	24405.030000	30914.955000	12514.590000	-47642.445000	-41840.550000	-17760.330000	15.654698	6.827399	0.913751	-0.124864	0.998833	2.166084	3.625737	4.904307	-0.915600	2.227960	-1.068200	0.866270	-0.262756	0.412841	-1.000000	-1.000000	-1.000000	-1.000000	-1.000000	-1.000000	-1.000000	83.931034	0.000000	-1.000000	-1.000000	426246.000000	1774904786.983729
19513.170000	-3144.825000	24381.360000	30888.855000	12484.665000	-47674.665000	-41869.890000	-17779.230000	-4.004192	-14.716601	-16.868906	-21.111544	-20.073259	-19.286712	-9.844287	-2.183811	-0.915600	2.227960	-1.068200	0.866270	-0.262756	0.412841	-1.000000	-1.000000	-1.000000	-1.000000	-1.000000	-1.000000	-1.000000	83.931034	0.000000	-1.000000	-1.000000	426247.000000	1774904786.987681
19533.825000	-3135.915000	24389.235000	30897.810000	12491.865000	-47671.110000	-41868.045000	-17765.730000	-25.055734	-33.824258	-30.520863	-36.623763	-36.395226	-36.180511	-22.536210	-9.217276	-0.915600	2.227960	-1.068200	0.866270	-0.262756	0.412841	-1.000000	-1.000000	-1.000000	-1.000000	-1.000000	-1.000000	-1.000000	83.931034	0.000000	-1.000000	-1.000000	426248.000000	1774904786.987691
19554.975000	-3112.515000	24415.155000	30926.205000	12521.025000	-47643.840000	-41845.365000	-17747.730000	-32.985784	-37.216907	-30.408685	-36.052331	-36.980652	-37.735214	-26.779315	-11.492548	-0.915600	2.227960	-1.068200	0.866270	-0.262756	0.412841	-1.000000	-1.000000	-1.000000	-1.000000	-1.000000	-1.000000	-1.000000	83.931034	0.000000	-1.000000	-1.000000	426249.000000	1774904786.991615
19560.420000	-3106.080000	24419.880000	30933.945000	12531.645000	-47629.935000	-41837.040000	-17747.775000	-22.971515	-22.111467	-15.915675	-18.661208	-20.329765	-22.189896	-18.924762	-7.414035	-0.915600	2.227960	-1.068200	0.866270	-0.262756	0.412841	-1.000000	-1.000000	-1.000000	-1.000000	-1.000000	-1.000000	-1.000000	83.931034	0.000000	-1.000000	-1.000000	426250.000000	1774904786.991625
19552.905000	-3108.780000	24416.370000	30932.280000	12532.005000	-47626.425000	-41835.870000	-17746.470000	-2.684795	2.354730	4.320636	5.844936	4.588438	2.312484	-2.270784	0.351268	-4.639040	2.853620	-1.098720	0.865659	-0.259216	0.412413	-1.000000	-1.000000	-1.000000	-1.000000	-1.000000	-1.000000	-1.000000	83.931034	0.000000	-1.000000	-1.000000	426251.000000	1774904786.997042
19559.880000	-3095.280000	24429.285000	30946.320000	12544.920000	-47615.670000	-41833.890000	-17737.785000	15.119874	22.605770	19.345687	24.488831	24.667297	23.136266	14.221547	6.913331	-4.639040	2.853620	-1.098720	0.865659	-0.259216	0.412413	-1.000000	-1.000000	-1.000000	-1.000000	-1.000000	-1.000000	-1.000000	83.931034	0.000000	-1.000000	-1.000000	426252.000000	1774904786.997058
19556.955000	-3090.465000	24430.005000	30952.305000	12554.595000	-47604.960000	-41832.360000	-17734.545000	22.517944	30.315752	23.871611	30.294716	31.963916	31.877696	22.289283	9.219024	-4.639040	2.853620	-1.098720	0.865659	-0.259216	0.412413	-1.000000	-1.000000	-1.000000	-1.000000	-1.000000	-1.000000	-1.000000	83.931034	0.000000	-1.000000	-1.000000	426253.000000	1774904786.999607
19569.195000	-3073.995000	24449.895000	30966.300000	12567.420000	-47593.845000	-41828.220000	-17744.265000	20.923421	27.021998	21.061179	26.007372	28.263517	29.376003	20.519818	7.797378	-4.639040	2.853620	-1.098720	0.865659	-0.259216	0.412413	-1.000000	-1.000000	-1.000000	-1.000000	-1.000000	-1.000000	-1.000000	83.931034	0.000000	-1.000000	-1.000000	426254.000000	1774904786.999614
19603.260000	-3051.180000	24481.980000	30989.655000	12587.985000	-47576.070000	-41811.570000	-17726.130000	17.204125	20.128159	17.935561	19.258347	20.830132	22.191969	13.931855	5.143374	-4.639040	2.853620	-1.098720	0.865659	-0.259216	0.412413	-1.000000	-1.000000	-1.000000	-1.000000	-1.000000	-1.000000	-1.000000	83.931034	0.000000	-1.000000	-1.000000	426255.000000	1774904787.003485
19606.275000	-3063.420000	24472.980000	30974.130000	12571.515000	-47590.425000	-41816.250000	-17733.870000	15.107075	13.997316	16.932082	13.788214	13.779621	14.520884	7.746252	3.125888	-4.639040	2.853620	-1.098720	0.865659	-0.259216	0.412413	-1.000000	-1.000000	-1.000000	-1.000000	-1.000000	-1.000000	-1.000000	83.931034	0.000000	-1.000000	-1.000000	426256.000000	1774904787.003496
19601.910000	-3072.465000	24445.485000	30944.295000	12540.780000	-47619.090000	-41828.130000	-17741.790000	11.275963	6.259492	12.724330	6.145756	4.571411	4.632316	2.398422	1.031916	-4.639040	2.853620	-1.098720	0.865659	-0.259216	0.412413	-1.000000	-1.000000	-1.000000	-1.000000	-1.000000	-1.000000	-1.000000	83.931034	0.000000	-1.000000	-1.000000	426257.000000	1774904787.010110
19607.535000	-3048.300000	24469.020000	30968.730000	12567.870000	-47592.405000	-41812.515000	-17721.045000	1.080450	-5.958322	-0.151868	-7.408396	-9.691071	-9.713644	-4.307342	-2.698602	-4.639040	2.853620	-1.098720	0.865659	-0.259216	0.412413	-1.000000	-1.000000	-1.000000	-1.000000	-1.000000	-1.000000	-1.000000	83.931034	0.000000	-1.000000	-1.000000	426258.000000	1774904787.010120
19622.880000	-3029.445000	24493.995000	31009.545000	12606.030000	-47556.855000	-41792.580000	-17703.000000	-13.598924	-19.235722	-17.947469	-22.453432	-24.331927	-24.057889	-11.445490	-6.585412	-4.639040	2.853620	-1.098720	0.865659	-0.259216	0.412413	-1.000000	-1.000000	-1.000000	-1.000000	-1.000000	-1.000000	-1.000000	83.931034	0.000000	-1.000000	-1.000000	426259.000000	1774904787.011744
19582.290000	-3069.315000	24464.925000	30988.755000	12585.465000	-47576.340000	-41812.155000	-17755.425000	-25.744812	-27.181651	-30.765605	-29.901517	-30.672103	-30.364968	-15.383906	-8.270299	-4.639040	2.853620	-1.098720	0.865659	-0.259216	0.412413	-1.000000	-1.000000	-1.000000	-1.000000	-1.000000	-1.000000	-1.000000	83.931034	0.000000	-1.000000	-1.000000	426260.000000	1774904787.011753
19568.160000	-3103.245000	24425.820000	30939.255000	12538.125000	-47619.405000	-41838.975000	-17771.850000	-30.368369	-27.904134	-33.310996	-27.016895	-26.598641	-26.601065	-15.076687	-8.792965	-4.455920	3.769220	-0.076300	0.863340	-0.260192	0.411803	-1.000000	-1.000000	-1.000000	-1.000000	-1.000000	-1.000000	-1.000000	83.931034	0.000000	-1.000000	-1.000000	426261.000000	1774904787.015661
19533.555000	-3139.830000	24386.625000	30897.675000	12497.535000	-47661.480000	-41867.280000	-17802.675000	-26.520917	-23.482001	-27.182779	-18.717409	-17.451043	-17.651381	-12.467791	-9.637076	-4.455920	3.769220	-0.076300	0.863340	-0.260192	0.411803	-1.000000	-1.000000	-1.000000	-1.000000	-1.000000	-1.000000	-1.000000	83.931034	0.000000	-1.000000	-1.000000	426262.000000	1774904787.015672
19544.760000	-3125.520000	24381.945000	30901.770000	12509.595000	-47652.165000	-41856.345000	-17789.940000	-15.416680	-14.975058	-15.713394	-9.459551	-7.781105	-7.931240	-8.574573	-9.008266	-4.455920	3.769220	-0.076300	0.863340	-0.260192	0.411803	-1.000000	-1.000000	-1.000000	-1.000000	-1.000000	-1.000000	-1.000000	83.931034	0.000000	-1.000000	-1.000000	426263.000000	1774904787.020971
19541.115000	-3120.390000	24362.730000	30894.750000	12520.530000	-47639.790000	-41842.845000	-17787.960000	-0.240731	-2.185985	-1.777042	0.254149	2.350212	2.274842	-2.383802	-4.198683	-4.455920	3.769220	-0.076300	0.863340	-0.260192	0.411803	-1.000000	-1.000000	-1.000000	-1.000000	-1.000000	-1.000000	-1.000000	83.931034	0.000000	-1.000000	-1.000000	426264.000000	1774904787.020981
19541.340000	-3109.230000	24374.970000	30912.480000	12531.330000	-47629.170000	-41830.920000	-17765.550000	14.007876	13.141535	11.850583	10.887732	13.716055	13.639976	6.461852	4.807945	-4.455920	3.769220	-0.076300	0.863340	-0.260192	0.411803	-1.000000	-1.000000	-1.000000	-1.000000	-1.000000	-1.000000	-1.000000	83.931034	0.000000	-1.000000	-1.000000	426265.000000	1774904787.026470
19541.880000	-3086.325000	24426.810000	30955.590000	12550.410000	-47612.880000	-41823.225000	-17752.095000	22.549870	26.246156	23.269863	21.480722	24.137293	23.966813	15.332180	14.700146	-4.455920	3.769220	-0.076300	0.863340	-0.260192	0.411803	-1.000000	-1.000000	-1.000000	-1.000000	-1.000000	-1.000000	-1.000000	83.931034	0.000000	-1.000000	-1.000000	426266.000000	1774904787.026480
19602.585000	-3036.420000	24512.445000	31017.015000	12593.565000	-47573.370000	-41805.720000	-17703.450000	23.835988	32.041172	31.530573	29.269293	29.004884	28.581832	19.738014	20.933574	-4.455920	3.769220	-0.076300	0.863340	-0.260192	0.411803	-1.000000	-1.000000	-1.000000	-1.000000	-1.000000	-1.000000	-1.000000	83.931034	0.000000	-1.000000	-1.000000	426267.000000	1774904787.027453
19699.245000	-2975.040000	24550.920000	31063.365000	12648.645000	-47517.165000	-41772.645000	-17640.630000	21.461097	29.333430	35.222007	30.854353	25.615539	24.877003	17.336847	21.625877	-4.455920	3.769220	-0.076300	0.863340	-0.260192	0.411803	-1.000000	-1.000000	-1.000000	-1.000000	-1.000000	-1.000000	-1.000000	83.931034	0.000000	-1.000000	-1.000000	426268.000000	1774904787.027462
19696.185000	-2971.440000	24527.880000	31036.185000	12641.355000	-47520.045000	-41773.275000	-17667.945000	20.149038	21.233843	31.539149	24.305383	15.980409	15.224565	10.194581	18.068262	-4.455920	3.769220	-0.076300	0.863340	-0.260192	0.411803	-1.000000	-1.000000	-1.000000	-1.000000	-1.000000	-1.000000	-1.000000	83.931034	0.000000	-1.000000	-1.000000	426269.000000	1774904787.031632
19610.685000	-3044.340000	24462.495000	30960.090000	12569.130000	-47592.540000	-41815.845000	-17737.380000	17.469075	9.834219	17.562972	9.548194	3.380035	3.154573	1.699142	9.742117	-4.455920	3.769220	-0.076300	0.863340	-0.260192	0.411803	-1.000000	-1.000000	-1.000000	-1.000000	-1.000000	-1.000000	-1.000000	83.931034	0.000000	-1.000000	-1.000000	426270.000000	1774904787.031647
19507.725000	-3151.620000	24395.760000	30883.050000	12480.435000	-47681.865000	-41861.115000	-17780.940000	4.928230	-6.766990	-6.126027	-11.605864	-11.561645	-10.943949	-7.104076	-5.484631	-2.807840	4.379620	-1.693860	0.865171	-0.260497	0.410277	-1.000000	-1.000000	-1.000000	-1.000000	-1.000000	-1.000000	-1.000000	83.931034	0.000000	-1.000000	-1.000000	426271.000000	1774904787.035626
19559.205000	-3111.705000	24448.050000	30945.780000	12536.820000	-47628.045000	-41829.570000	-17748.945000	-18.579016	-27.772825	-31.590474	-32.455399	-26.959041	-25.695855	-15.484678	-23.894966	-2.807840	4.379620	-1.693860	0.865171	-0.260497	0.410277	-1.000000	-1.000000	-1.000000	-1.000000	-1.000000	-1.000000	-1.000000	83.931034	0.000000	-1.000000	-1.000000	426272.000000	1774904787.035640
19584.810000	-3083.310000	24460.965000	30968.910000	12559.995000	-47605.545000	-41813.640000	-17750.475000	-39.511777	-42.754092	-45.146721	-41.116753	-34.689977	-33.392445	-19.681886	-35.220857	-2.807840	4.379620	-1.693860	0.865171	-0.260497	0.410277	-1.000000	-1.000000	-1.000000	-1.000000	-1.000000	-1.000000	-1.000000	83.931034	0.000000	-1.000000	-1.000000	426273.000000	1774904787.039456
19531.710000	-3129.435000	24405.345000	30914.460000	12508.605000	-47654.820000	-41847.255000	-17800.335000	-42.884805	-40.578271	-39.485523	-31.605427	-28.152140	-27.450490	-16.550614	-32.849968	-2.807840	4.379620	-1.693860	0.865171	-0.260497	0.410277	-1.000000	-1.000000	-1.000000	-1.000000	-1.000000	-1.000000	-1.000000	83.931034	0.000000	-1.000000	-1.000000	426274.000000	1774904787.039462
19529.910000	-3141.630000	24383.745000	30891.510000	12490.110000	-47670.615000	-41868.855000	-17799.660000	-28.329708	-23.238265	-22.520094	-12.781764	-12.372810	-12.365841	-8.787256	-20.236204	-2.807840	4.379620	-1.693860	0.865171	-0.260497	0.410277	-1.000000	-1.000000	-1.000000	-1.000000	-1.000000	-1.000000	-1.000000	83.931034	0.000000	-1.000000	-1.000000	426275.000000	1774904787.043603
19555.740000	-3110.895000	24413.130000	30918.960000	12516.705000	-47644.830000	-41852.970000	-17785.170000	-7.074069	-2.201312	-7.335945	1.755547	1.885122	1.678740	-1.700341	-5.155653	-2.807840	4.379620	-1.693860	0.865171	-0.260497	0.410277	-1.000000	-1.000000	-1.000000	-1.000000	-1.000000	-1.000000	-1.000000	83.931034	0.000000	-1.000000	-1.000000	426276.000000	1774904787.043613
19564.335000	-3093.750000	24431.355000	30935.970000	12530.385000	-47631.780000	-41845.095000	-17776.710000	10.233080	14.050427	2.237808	8.068433	9.719942	9.690273	2.857907	7.579256	-2.807840	4.379620	-1.693860	0.865171	-0.260497	0.410277	-1.000000	-1.000000	-1.000000	-1.000000	-1.000000	-1.000000	-1.000000	83.931034	0.000000	-1.000000	-1.000000	426277.000000	1774904787.047565
19570.185000	-3091.095000	24436.170000	30942.360000	12536.415000	-47625.705000	-41846.940000	-17767.485000	20.104443	23.905096	11.214246	11.973359	13.835181	13.777913	6.626709	17.690453	-2.807840	4.379620	-1.693860	0.865171	-0.260497	0.410277	-1.000000	-1.000000	-1.000000	-1.000000	-1.000000	-1.000000	-1.000000	83.931034	0.000000	-1.000000	-1.000000	426278.000000	1774904787.047575
19586.610000	-3069.630000	24455.520000	30962.790000	12556.980000	-47607.075000	-41830.110000	-17731.845000	26.107326	30.039075	23.870128	19.948939	19.442022	18.882883	11.842280	27.173803	-2.807840	4.379620	-1.693860	0.865171	-0.260497	0.410277	-1.000000	-1.000000	-1.000000	-1.000000	-1.000000	-1.000000	-1.000000	83.931034	0.000000	-1.000000	-1.000000	426279.000000	1774904787.059664
19610.280000	-3045.510000	24477.840000	30987.855000	12588.120000	-47575.890000	-41801.850000	-17701.605000	31.909413	34.631958	37.462370	31.332151	27.841640	26.685346	18.486661	35.437843	-2.807840	4.379620	-1.693860	0.865171	-0.260497	0.410277	-1.000000	-1.000000	-1.000000	-1.000000	-1.000000	-1.000000	-1.000000	83.931034	0.000000	-1.000000	-1.000000	426280.000000	1774904787.059676
19605.870000	-3051.945000	24470.460000	30980.295000	12581.010000	-47582.145000	-41807.790000	-17715.330000	33.495430	33.867617	42.495088	36.666150	32.214171	30.959146	22.206701	36.305312	-4.928980	3.708180	-3.097780	0.864561	-0.260436	0.408751	-1.000000	-1.000000	-1.000000	-1.000000	-1.000000	-1.000000	-1.000000	83.931034	0.000000	-1.000000	-1.000000	426281.000000	1774904787.059689
19580.985000	-3074.670000	24449.670000	30959.955000	12560.130000	-47602.980000	-41821.785000	-17760.240000	23.063342	20.894748	30.737817	26.194392	23.340573	22.686478	17.126859	23.087693	-4.928980	3.708180	-3.097780	0.864561	-0.260436	0.408751	-1.000000	-1.000000	-1.000000	-1.000000	-1.000000	-1.000000	-1.000000	83.931034	0.000000	-1.000000	-1.000000	426282.000000	1774904787.059694
19570.275000	-3086.505000	24436.530000	30948.840000	12548.745000	-47614.590000	-41832.315000	-17771.085000	0.825514	-3.467649	4.745857	1.474082	1.365845	1.621265	3.049045	-2.421398	-4.928980	3.708180	-3.097780	0.864561	-0.260436	0.408751	-1.000000	-1.000000	-1.000000	-1.000000	-1.000000	-1.000000	-1.000000	83.931034	0.000000	-1.000000	-1.000000	426283.000000	1774904787.059700
19564.380000	-3096.045000	24420.780000	30943.260000	12542.985000	-47619.945000	-41837.220000	-17760.645000	-23.502186	-28.933795	-23.759009	-25.370091	-23.230794	-22.334196	-13.244518	-28.962709	-4.928980	3.708180	-3.097780	0.864561	-0.260436	0.408751	-1.000000	-1.000000	-1.000000	-1.000000	-1.000000	-1.000000	-1.000000	83.931034	0.000000	-1.000000	-1.000000	426284.000000	1774904787.059705
19563.435000	-3092.355000	24414.795000	30949.605000	12549.150000	-47611.755000	-41833.260000	-17759.070000	-39.709013	-44.600261	-43.319660	-42.261120	-39.308818	-38.267842	-24.192915	-44.172473	-4.928980	3.708180	-3.097780	0.864561	-0.260436	0.408751	-1.000000	-1.000000	-1.000000	-1.000000	-1.000000	-1.000000	-1.000000	83.931034	0.000000	-1.000000	-1.000000	426285.000000	1774904787.063571
19585.260000	-3067.965000	24442.380000	30965.130000	12563.010000	-47598.120000	-41822.055000	-17726.895000	-41.910596	-44.507228	-46.972200	-43.000457	-40.844197	-40.020125	-25.714269	-41.690042	-4.928980	3.708180	-3.097780	0.864561	-0.260436	0.408751	-1.000000	-1.000000	-1.000000	-1.000000	-1.000000	-1.000000	-1.000000	83.931034	0.000000	-1.000000	-1.000000	426286.000000	1774904787.063582
19592.505000	-3063.195000	24459.705000	30960.810000	12553.740000	-47612.070000	-41824.710000	-17729.190000	-28.537257	-28.132026	-32.522611	-27.645256	-27.447763	-27.082422	-17.529770	-23.044336	-4.928980	3.708180	-3.097780	0.864561	-0.260436	0.408751	-1.000000	-1.000000	-1.000000	-1.000000	-1.000000	-1.000000	-1.000000	83.931034	0.000000	-1.000000	-1.000000	426287.000000	1774904787.067582
19574.235000	-3090.060000	24450.030000	30948.075000	12545.010000	-47619.360000	-41824.710000	-17753.805000	-4.594655	-2.116162	-5.572914	-3.310898	-5.211830	-5.463754	-3.622198	1.979693	-4.928980	3.708180	-3.097780	0.864561	-0.260436	0.408751	-1.000000	-1.000000	-1.000000	-1.000000	-1.000000	-1.000000	-1.000000	83.931034	0.000000	-1.000000	-1.000000	426288.000000	1774904787.067594
19563.705000	-3103.920000	24437.655000	30944.610000	12542.580000	-47621.340000	-41826.330000	-17764.380000	17.985559	20.619089	20.269171	17.916639	14.996760	14.277148	8.841856	19.812814	-4.928980	3.708180	-3.097780	0.864561	-0.260436	0.408751	-1.000000	-1.000000	-1.000000	-1.000000	-1.000000	-1.000000	-1.000000	83.931034	0.000000	-1.000000	-1.000000	426289.000000	1774904787.075907
19554.615000	-3109.095000	24428.745000	30938.040000	12536.100000	-47626.245000	-41832.090000	-17767.755000	28.153357	29.542154	32.300056	26.810975	24.496368	23.784896	14.259358	23.516933	-4.928980	3.708180	-3.097780	0.864561	-0.260436	0.408751	-1.000000	-1.000000	-1.000000	-1.000000	-1.000000	-1.000000	-1.000000	83.931034	0.000000	-1.000000	-1.000000	426290.000000	1774904787.075920
19558.980000	-3094.560000	24443.460000	30952.215000	12548.385000	-47615.445000	-41834.115000	-17754.030000	24.469096	24.697518	28.372312	23.359705	22.792409	22.514214	12.498758	17.477246	-3.998120	4.486440	-2.548420	0.862852	-0.264648	0.408873	-1.000000	-1.000000	-1.000000	-1.000000	-1.000000	-1.000000	-1.000000	83.931034	0.000000	-1.000000	-1.000000	426291.000000	1774904787.075933
19575.000000	-3067.965000	24462.540000	30969.945000	12563.685000	-47602.530000	-41834.700000	-17744.175000	13.926497	14.338204	16.058752	14.424760	15.702489	15.876014	7.460743	10.190326	-3.998120	4.486440	-2.548420	0.862852	-0.264648	0.408873	-1.000000	-1.000000	-1.000000	-1.000000	-1.000000	-1.000000	-1.000000	83.931034	0.000000	-1.000000	-1.000000	426292.000000	1774904787.075938
19574.460000	-3051.630000	24471.270000	30980.790000	12576.285000	-47590.245000	-41830.110000	-17759.520000	3.751976	6.002590	4.044372	6.215937	8.529828	8.786893	2.753358	5.137450	-3.998120	4.486440	-2.548420	0.862852	-0.264648	0.408873	-1.000000	-1.000000	-1.000000	-1.000000	-1.000000	-1.000000	-1.000000	83.931034	0.000000	-1.000000	-1.000000	426293.000000	1774904787.079466
19579.410000	-3047.445000	24471.045000	30980.475000	12574.800000	-47591.190000	-41825.205000	-17800.380000	-3.264484	1.322266	-3.881236	0.327580	2.577322	2.541144	-0.374636	-0.005253	-3.998120	4.486440	-2.548420	0.862852	-0.264648	0.408873	-1.000000	-1.000000	-1.000000	-1.000000	-1.000000	-1.000000	-1.000000	83.931034	0.000000	-1.000000	-1.000000	426294.000000	1774904787.079534
19609.605000	-3035.520000	24481.260000	30992.940000	12589.245000	-47575.170000	-41793.660000	-17756.055000	-6.890173	-1.967371	-8.268391	-4.047158	-2.647040	-2.971129	-1.669222	-6.852061	-3.998120	4.486440	-2.548420	0.862852	-0.264648	0.408873	-1.000000	-1.000000	-1.000000	-1.000000	-1.000000	-1.000000	-1.000000	83.931034	0.000000	-1.000000	-1.000000	426295.000000	1774904787.083393
19615.680000	-3050.955000	24463.260000	30976.785000	12576.330000	-47584.080000	-41788.845000	-17702.055000	-6.731970	-5.397785	-10.600461	-6.997668	-6.569451	-6.693516	-0.719676	-10.961481	-3.998120	4.486440	-2.548420	0.862852	-0.264648	0.408873	-1.000000	-1.000000	-1.000000	-1.000000	-1.000000	-1.000000	-1.000000	83.931034	0.000000	-1.000000	-1.000000	426296.000000	1774904787.083403
19585.530000	-3069.630000	24442.560000	30949.020000	12548.790000	-47611.305000	-41814.855000	-17726.445000	-3.677726	-8.547387	-11.656737	-8.581078	-8.757143	-8.113000	1.089474	-7.052456	-3.998120	4.486440	-2.548420	0.862852	-0.264648	0.408873	-1.000000	-1.000000	-1.000000	-1.000000	-1.000000	-1.000000	-1.000000	83.931034	0.000000	-1.000000	-1.000000	426297.000000	1774904787.088002
