Channel1	Channel2	Channel3	Channel4	Channel5	Channel6	Channel7	Channel8	FilteredChannel1	FilteredChannel2	FilteredChannel3	FilteredChannel4	FilteredChannel5	FilteredChannel6	FilteredChannel7	FilteredChannel8	GyroX	GyroY	GyroZ	AccX	AccY	AccZ	PPG1	PPG2	rawPPG1	rawPPG2	rawPPG3	Hr	Hrv	Battery	Trigger	PhysicalTrigger	AutoTrigger	NumMeasurements	Timestamp
-25028.595000	-24953.130000	-29232.720000	-14129.955000	-27729.360000	-15697.755000	-671.085000	-11729.250000	6.344074	12.073292	7.857860	4.037572	2.271167	1.942746	-0.542885	4.539449	-1.587040	6.683880	-4.806900	0.908628	-0.271789	0.315124	-1.000000	-1.000000	-1.000000	-1.000000	-1.000000	-1.000000	-1.000000	71.310345	0.000000	-1.000000	-1.000000	2405701.000000	1770066308.785599
-25069.455000	-24991.155000	-29268.630000	-14171.625000	-27771.930000	-15737.715000	-698.805000	-11750.625000	16.602788	15.070756	10.668018	6.636004	5.026987	4.795369	1.173233	4.545708	-1.587040	6.683880	-4.806900	0.908628	-0.271789	0.315124	-1.000000	-1.000000	-1.000000	-1.000000	-1.000000	-1.000000	-1.000000	71.310345	0.000000	-1.000000	-1.000000	2405702.000000	1770066308.785608
-25082.640000	-25024.770000	-29308.770000	-14200.020000	-27798.705000	-15758.685000	-704.205000	-11736.270000	15.864367	8.241087	6.257885	3.508182	2.803310	2.900673	0.198029	-0.839457	-1.587040	6.683880	-4.806900	0.908628	-0.271789	0.315124	-1.000000	-1.000000	-1.000000	-1.000000	-1.000000	-1.000000	-1.000000	71.310345	0.000000	-1.000000	-1.000000	2405703.000000	1770066308.789684
-25064.100000	-25004.745000	-29305.125000	-14176.665000	-27767.745000	-15725.970000	-679.590000	-11717.595000	3.310812	-5.853942	-4.652723	-4.397389	-3.764618	-3.045889	-2.339706	-6.210419	-1.587040	6.683880	-4.806900	0.908628	-0.271789	0.315124	-1.000000	-1.000000	-1.000000	-1.000000	-1.000000	-1.000000	-1.000000	71.310345	0.000000	-1.000000	-1.000000	2405704.000000	1770066308.789718
-25065.315000	-24989.580000	-29283.975000	-14159.385000	-27755.595000	-15716.745000	-670.815000	-11688.255000	-10.492358	-17.286098	-14.917784	-10.750083	-8.923056	-7.732034	-3.035915	-5.343168	-1.587040	6.683880	-4.806900	0.908628	-0.271789	0.315124	-1.000000	-1.000000	-1.000000	-1.000000	-1.000000	-1.000000	-1.000000	71.310345	0.000000	-1.000000	-1.000000	2405705.000000	1770066308.795403
-25101.495000	-25010.955000	-29286.405000	-14160.330000	-27761.310000	-15722.640000	-676.800000	-11702.970000	-15.184737	-17.600474	-16.523483	-9.828979	-7.779972	-6.897454	-0.341882	2.166479	-1.587040	6.683880	-4.806900	0.908628	-0.271789	0.315124	-1.000000	-1.000000	-1.000000	-1.000000	-1.000000	-1.000000	-1.000000	71.310345	0.000000	-1.000000	-1.000000	2405706.000000	1770066308.795412
-25112.340000	-25015.635000	-29290.005000	-14164.470000	-27762.885000	-15724.755000	-682.470000	-11721.015000	-10.389258	-7.697819	-8.182380	-2.271981	-1.350083	-1.600498	3.430441	9.476018	-1.587040	6.683880	-4.806900	0.908628	-0.271789	0.315124	-1.000000	-1.000000	-1.000000	-1.000000	-1.000000	-1.000000	-1.000000	71.310345	0.000000	-1.000000	-1.000000	2405707.000000	1770066308.797754
-25058.835000	-24999.030000	-29291.760000	-14171.265000	-27767.565000	-15730.020000	-685.980000	-11711.250000	-1.845090	4.771110	3.871319	5.984159	5.195242	3.685717	4.794334	9.679714	-1.587040	6.683880	-4.806900	0.908628	-0.271789	0.315124	-1.000000	-1.000000	-1.000000	-1.000000	-1.000000	-1.000000	-1.000000	71.310345	0.000000	-1.000000	-1.000000	2405708.000000	1770066308.797762
-25037.955000	-24992.640000	-29300.400000	-14179.995000	-27774.945000	-15738.660000	-688.995000	-11699.145000	6.370485	12.680407	11.508681	8.981990	7.181632	5.121700	2.532767	3.468264	-1.587040	6.683880	-4.806900	0.908628	-0.271789	0.315124	-1.000000	-1.000000	-1.000000	-1.000000	-1.000000	-1.000000	-1.000000	71.310345	0.000000	-1.000000	-1.000000	2405709.000000	1770066308.801661
-25067.430000	-24991.830000	-29289.105000	-14167.890000	-27765.270000	-15730.065000	-682.650000	-11704.770000	11.811341	13.305586	11.147885	5.802929	4.296553	2.716489	-1.312246	-2.996953	-1.587040	6.683880	-4.806900	0.908628	-0.271789	0.315124	-1.000000	-1.000000	-1.000000	-1.000000	-1.000000	-1.000000	-1.000000	71.310345	0.000000	-1.000000	-1.000000	2405710.000000	1770066308.801669
-25076.295000	-25000.695000	-29292.615000	-14172.705000	-27769.005000	-15731.010000	-684.270000	-11712.555000	11.734887	8.531797	6.090251	1.117400	0.785040	0.354801	-3.245065	-5.617377	-2.197440	6.332900	-2.746800	0.905393	-0.266723	0.319945	-1.000000	-1.000000	-1.000000	-1.000000	-1.000000	-1.000000	-1.000000	71.310345	0.000000	-1.000000	-1.000000	2405711.000000	1770066308.805732
-25062.840000	-24995.925000	-29285.145000	-14164.335000	-27760.140000	-15721.920000	-681.390000	-11703.375000	6.086490	2.554030	2.259959	-0.328880	0.458179	1.146465	-1.819560	-4.982993	-2.197440	6.332900	-2.746800	0.905393	-0.266723	0.319945	-1.000000	-1.000000	-1.000000	-1.000000	-1.000000	-1.000000	-1.000000	71.310345	0.000000	-1.000000	-1.000000	2405712.000000	1770066308.805743
-25075.530000	-24995.790000	-29283.030000	-14158.890000	-27754.155000	-15715.305000	-679.905000	-11712.780000	-1.531873	-1.861501	1.835986	1.250051	2.355740	3.605674	0.853436	-3.639436	-2.197440	6.332900	-2.746800	0.905393	-0.266723	0.319945	-1.000000	-1.000000	-1.000000	-1.000000	-1.000000	-1.000000	-1.000000	71.310345	0.000000	-1.000000	-1.000000	2405713.000000	1770066308.809678
-25089.120000	-25004.295000	-29290.680000	-14165.640000	-27760.725000	-15721.965000	-686.430000	-11737.485000	-7.150675	-4.501551	2.232019	2.256672	2.881420	4.098433	1.835855	-3.600086	-2.197440	6.332900	-2.746800	0.905393	-0.266723	0.319945	-1.000000	-1.000000	-1.000000	-1.000000	-1.000000	-1.000000	-1.000000	71.310345	0.000000	-1.000000	-1.000000	2405714.000000	1770066308.809692
-25090.065000	-25016.220000	-29288.295000	-14160.420000	-27754.065000	-15716.115000	-685.530000	-11745.855000	-8.291574	-5.623043	0.620052	0.618222	0.625841	1.480974	0.554006	-5.009464	-2.197440	6.332900	-2.746800	0.905393	-0.266723	0.319945	-1.000000	-1.000000	-1.000000	-1.000000	-1.000000	-1.000000	-1.000000	71.310345	0.000000	-1.000000	-1.000000	2405715.000000	1770066308.813564
-25086.870000	-25022.970000	-29288.205000	-14159.880000	-27753.795000	-15715.845000	-684.720000	-11733.255000	-5.050440	-5.333817	-2.713863	-2.398319	-2.672422	-2.280160	-1.318084	-5.477501	-2.197440	6.332900	-2.746800	0.905393	-0.266723	0.319945	-1.000000	-1.000000	-1.000000	-1.000000	-1.000000	-1.000000	-1.000000	71.310345	0.000000	-1.000000	-1.000000	2405716.000000	1770066308.813574
-25088.490000	-25003.755000	-29285.505000	-14161.725000	-27757.755000	-15719.265000	-680.220000	-11710.440000	-1.055930	-4.270657	-5.666836	-4.492002	-4.851551	-4.838764	-1.999765	-2.259086	-2.197440	6.332900	-2.746800	0.905393	-0.266723	0.319945	-1.000000	-1.000000	-1.000000	-1.000000	-1.000000	-1.000000	-1.000000	71.310345	0.000000	-1.000000	-1.000000	2405717.000000	1770066308.818149
-25107.480000	-24982.470000	-29273.580000	-14152.545000	-27750.015000	-15715.305000	-682.245000	-11733.435000	-0.228786	-2.507261	-6.549092	-4.520349	-5.036635	-5.198584	-1.051268	4.137945	-2.197440	6.332900	-2.746800	0.905393	-0.266723	0.319945	-1.000000	-1.000000	-1.000000	-1.000000	-1.000000	-1.000000	-1.000000	71.310345	0.000000	-1.000000	-1.000000	2405718.000000	1770066308.818159
-25081.020000	-25000.290000	-29282.760000	-14161.815000	-27760.590000	-15724.395000	-686.340000	-11723.085000	-1.731052	0.416731	-4.894970	-2.647487	-3.335385	-3.554336	0.636557	9.903913	-2.197440	6.332900	-2.746800	0.905393	-0.266723	0.319945	-1.000000	-1.000000	-1.000000	-1.000000	-1.000000	-1.000000	-1.000000	71.310345	0.000000	-1.000000	-1.000000	2405719.000000	1770066308.822014
-25070.130000	-25034.805000	-29299.725000	-14174.820000	-27769.815000	-15728.850000	-687.465000	-11710.755000	-1.066857	3.192371	-1.829342	-0.139426	-0.750192	-1.015378	1.807680	11.889858	-2.197440	6.332900	-2.746800	0.905393	-0.266723	0.319945	-1.000000	-1.000000	-1.000000	-1.000000	-1.000000	-1.000000	-1.000000	71.310345	0.000000	-1.000000	-1.000000	2405720.000000	1770066308.822028
-25096.230000	-25026.795000	-29304.585000	-14179.230000	-27771.660000	-15728.580000	-685.845000	-11710.845000	2.964830	3.326724	0.539175	1.114906	0.967190	0.766558	1.702254	9.642834	-4.654300	6.027700	1.999060	0.903928	-0.260864	0.321960	-1.000000	-1.000000	-1.000000	-1.000000	-1.000000	-1.000000	-1.000000	71.310345	0.000000	-1.000000	-1.000000	2405721.000000	1770066308.825734
-25046.505000	-24958.035000	-29276.640000	-14164.425000	-27760.680000	-15717.240000	-676.170000	-11713.905000	7.279547	1.692704	1.362213	0.422828	0.924368	0.984817	0.548392	4.358308	-4.654300	6.027700	1.999060	0.903928	-0.260864	0.321960	-1.000000	-1.000000	-1.000000	-1.000000	-1.000000	-1.000000	-1.000000	71.310345	0.000000	-1.000000	-1.000000	2405722.000000	1770066308.825746
-25039.755000	-24959.790000	-29272.230000	-14158.845000	-27755.865000	-15713.910000	-675.990000	-11712.015000	10.260735	2.658211	2.122004	-0.522843	0.359661	0.692841	-0.439396	-1.554780	-4.654300	6.027700	1.999060	0.903928	-0.260864	0.321960	-1.000000	-1.000000	-1.000000	-1.000000	-1.000000	-1.000000	-1.000000	71.310345	0.000000	-1.000000	-1.000000	2405723.000000	1770066308.829772
-25089.345000	-24993.990000	-29286.270000	-14164.605000	-27759.600000	-15721.065000	-685.170000	-11721.420000	10.803396	6.642696	3.703512	0.063942	0.792944	1.082564	-0.514861	-5.607446	-4.654300	6.027700	1.999060	0.903928	-0.260864	0.321960	-1.000000	-1.000000	-1.000000	-1.000000	-1.000000	-1.000000	-1.000000	71.310345	0.000000	-1.000000	-1.000000	2405724.000000	1770066308.829780
-25128.675000	-25018.245000	-29293.515000	-14167.035000	-27760.860000	-15721.020000	-683.460000	-11724.615000	5.002254	7.673286	4.308438	1.638602	1.900974	1.729692	-0.325585	-7.462201	-4.654300	6.027700	1.999060	0.903928	-0.260864	0.321960	-1.000000	-1.000000	-1.000000	-1.000000	-1.000000	-1.000000	-1.000000	71.310345	0.000000	-1.000000	-1.000000	2405725.000000	1770066308.839031
-25103.970000	-25014.780000	-29293.245000	-14169.375000	-27763.470000	-15723.495000	-680.490000	-11713.365000	-7.509502	1.217946	2.203603	2.537636	2.460670	1.768059	-0.524268	-8.049943	-4.654300	6.027700	1.999060	0.903928	-0.260864	0.321960	-1.000000	-1.000000	-1.000000	-1.000000	-1.000000	-1.000000	-1.000000	71.310345	0.000000	-1.000000	-1.000000	2405726.000000	1770066308.839044
-25083.135000	-25002.450000	-29288.970000	-14166.855000	-27761.850000	-15723.270000	-679.545000	-11713.995000	-18.401902	-9.452254	-1.658927	2.017618	1.937274	1.149260	-0.757555	-6.917203	-4.654300	6.027700	1.999060	0.903928	-0.260864	0.321960	-1.000000	-1.000000	-1.000000	-1.000000	-1.000000	-1.000000	-1.000000	71.310345	0.000000	-1.000000	-1.000000	2405727.000000	1770066308.839065
-25073.820000	-25005.015000	-29292.390000	-14170.185000	-27765.540000	-15726.825000	-684.720000	-11724.345000	-18.816303	-15.922725	-4.422879	0.792020	0.879250	0.437378	-0.486052	-3.602244	-4.654300	6.027700	1.999060	0.903928	-0.260864	0.321960	-1.000000	-1.000000	-1.000000	-1.000000	-1.000000	-1.000000	-1.000000	71.310345	0.000000	-1.000000	-1.000000	2405728.000000	1770066308.839070
-25037.055000	-24996.105000	-29296.980000	-14179.230000	-27775.755000	-15735.735000	-690.255000	-11715.615000	-8.273827	-12.487241	-3.923467	-0.003728	0.045044	-0.037740	0.031561	0.176836	-4.654300	6.027700	1.999060	0.903928	-0.260864	0.321960	-1.000000	-1.000000	-1.000000	-1.000000	-1.000000	-1.000000	-1.000000	71.310345	0.000000	-1.000000	-1.000000	2405729.000000	1770066308.841724
-25050.600000	-24989.040000	-29287.080000	-14168.700000	-27765.855000	-15725.250000	-684.315000	-11703.420000	6.698006	-1.585987	-0.754450	-0.237810	-0.626529	-0.601339	0.074009	2.815756	-4.654300	6.027700	1.999060	0.903928	-0.260864	0.321960	-1.000000	-1.000000	-1.000000	-1.000000	-1.000000	-1.000000	-1.000000	71.310345	0.000000	-1.000000	-1.000000	2405730.000000	1770066308.841730
-25052.265000	-24968.565000	-29264.445000	-14144.715000	-27743.265000	-15702.885000	-672.705000	-11700.405000	17.024837	8.659791	2.664183	-0.148388	-1.052692	-1.032734	-0.275569	4.620842	-1.342880	6.058220	1.190280	0.905576	-0.264892	0.321899	-1.000000	-1.000000	-1.000000	-1.000000	-1.000000	-1.000000	-1.000000	71.310345	0.000000	-1.000000	-1.000000	2405731.000000	1770066308.847854
-25077.690000	-24967.845000	-29256.120000	-14133.420000	-27729.945000	-15688.305000	-665.370000	-11717.325000	16.526585	12.617501	4.756622	0.661076	-0.317257	-0.148084	0.016093	5.750787	-1.342880	6.058220	1.190280	0.905576	-0.264892	0.321899	-1.000000	-1.000000	-1.000000	-1.000000	-1.000000	-1.000000	-1.000000	71.310345	0.000000	-1.000000	-1.000000	2405732.000000	1770066308.847865
-25083.900000	-24992.595000	-29279.655000	-14154.480000	-27750.510000	-15707.430000	-677.070000	-11721.240000	7.108240	10.684817	5.037596	1.874429	1.399710	1.995178	1.299080	5.091214	-1.342880	6.058220	1.190280	0.905576	-0.264892	0.321899	-1.000000	-1.000000	-1.000000	-1.000000	-1.000000	-1.000000	-1.000000	71.310345	0.000000	-1.000000	-1.000000	2405733.000000	1770066308.849620
-25049.565000	-24990.975000	-29293.245000	-14170.095000	-27766.125000	-15721.065000	-678.780000	-11700.630000	-3.247999	5.491803	2.780650	1.585437	1.880621	3.003610	2.252932	2.309491	-1.342880	6.058220	1.190280	0.905576	-0.264892	0.321899	-1.000000	-1.000000	-1.000000	-1.000000	-1.000000	-1.000000	-1.000000	71.310345	0.000000	-1.000000	-1.000000	2405734.000000	1770066308.849632
-25064.640000	-24988.140000	-29290.860000	-14165.865000	-27763.695000	-15714.855000	-670.140000	-11702.430000	-8.190515	-0.841871	-1.941510	-1.289859	-0.391888	1.041791	1.613692	-0.912901	-1.342880	6.058220	1.190280	0.905576	-0.264892	0.321899	-1.000000	-1.000000	-1.000000	-1.000000	-1.000000	-1.000000	-1.000000	71.310345	0.000000	-1.000000	-1.000000	2405735.000000	1770066308.853681
-25064.955000	-24991.695000	-29288.070000	-14169.465000	-27761.895000	-15711.930000	-669.195000	-11703.825000	-7.945535	-6.259593	-6.664569	-4.933990	-3.800824	-2.441482	-0.016613	-2.753655	-1.342880	6.058220	1.190280	0.905576	-0.264892	0.321899	-1.000000	-1.000000	-1.000000	-1.000000	-1.000000	-1.000000	-1.000000	71.310345	0.000000	-1.000000	-1.000000	2405736.000000	1770066308.853691
-25079.940000	-24998.670000	-29289.195000	-14180.940000	-27759.420000	-15712.200000	-679.545000	-11713.185000	-6.533784	-8.796799	-8.057266	-6.476803	-5.191337	-4.419129	-1.303577	-3.062468	-1.342880	6.058220	1.190280	0.905576	-0.264892	0.321899	-1.000000	-1.000000	-1.000000	-1.000000	-1.000000	-1.000000	-1.000000	71.310345	0.000000	-1.000000	-1.000000	2405737.000000	1770066308.857678
-25086.645000	-25011.855000	-29297.160000	-14187.690000	-27773.235000	-15724.530000	-688.320000	-11713.410000	-6.393551	-8.023935	-5.149648	-4.958655	-3.342290	-3.736898	-2.008363	-2.931579	-1.342880	6.058220	1.190280	0.905576	-0.264892	0.321899	-1.000000	-1.000000	-1.000000	-1.000000	-1.000000	-1.000000	-1.000000	71.310345	0.000000	-1.000000	-1.000000	2405738.000000	1770066308.857684
-25051.860000	-25000.875000	-29289.195000	-14169.195000	-27769.995000	-15726.060000	-690.165000	-11712.645000	-6.140063	-5.607617	-0.372395	-1.613763	-0.202413	-1.996645	-2.721953	-3.089446	-1.342880	6.058220	1.190280	0.905576	-0.264892	0.321899	-1.000000	-1.000000	-1.000000	-1.000000	-1.000000	-1.000000	-1.000000	71.310345	0.000000	-1.000000	-1.000000	2405739.000000	1770066308.866339
-25053.840000	-24995.340000	-29283.930000	-14157.405000	-27756.000000	-15713.550000	-682.290000	-11704.320000	-2.484499	-3.058632	2.991507	1.869896	1.635907	-1.163171	-3.435291	-2.818745	-1.342880	6.058220	1.190280	0.905576	-0.264892	0.321899	-1.000000	-1.000000	-1.000000	-1.000000	-1.000000	-1.000000	-1.000000	71.310345	0.000000	-1.000000	-1.000000	2405740.000000	1770066308.866351
-25062.615000	-24991.470000	-29279.970000	-14155.020000	-27751.185000	-15709.590000	-680.895000	-11706.030000	5.067134	0.113671	3.931698	4.523051	1.880711	-1.031713	-3.090893	-0.793155	0.534100	5.722500	-1.510740	0.905820	-0.270690	0.320495	-1.000000	-1.000000	-1.000000	-1.000000	-1.000000	-1.000000	-1.000000	71.310345	0.000000	-1.000000	-1.000000	2405741.000000	1770066308.866462
-25055.820000	-24974.505000	-29265.975000	-14146.155000	-27743.850000	-15703.515000	-675.225000	-11706.480000	12.546770	5.000598	4.107284	6.306172	2.267696	0.244924	-0.735334	2.617737	0.534100	5.722500	-1.510740	0.905820	-0.270690	0.320495	-1.000000	-1.000000	-1.000000	-1.000000	-1.000000	-1.000000	-1.000000	71.310345	0.000000	-1.000000	-1.000000	2405742.000000	1770066308.866472
-25080.480000	-24986.025000	-29271.825000	-14153.220000	-27749.295000	-15710.265000	-682.155000	-11738.880000	14.468923	10.351687	5.108212	7.289200	3.876290	3.343146	2.896479	4.471389	0.534100	5.722500	-1.510740	0.905820	-0.270690	0.320495	-1.000000	-1.000000	-1.000000	-1.000000	-1.000000	-1.000000	-1.000000	71.310345	0.000000	-1.000000	-1.000000	2405743.000000	1770066308.870673
-25100.910000	-25012.350000	-29293.470000	-14174.595000	-27769.365000	-15728.220000	-691.740000	-11739.285000	8.128936	11.959005	5.571328	6.212077	5.094416	6.013261	5.292447	2.276344	0.534100	5.722500	-1.510740	0.905820	-0.270690	0.320495	-1.000000	-1.000000	-1.000000	-1.000000	-1.000000	-1.000000	-1.000000	71.310345	0.000000	-1.000000	-1.000000	2405744.000000	1770066308.870682
-25080.255000	-25009.920000	-29291.580000	-14170.545000	-27764.505000	-15721.200000	-683.685000	-11715.030000	-3.166376	7.065754	2.969445	1.936066	3.442746	5.393739	4.688063	-1.995393	0.534100	5.722500	-1.510740	0.905820	-0.270690	0.320495	-1.000000	-1.000000	-1.000000	-1.000000	-1.000000	-1.000000	-1.000000	71.310345	0.000000	-1.000000	-1.000000	2405745.000000	1770066308.873613
-25059.510000	-25000.065000	-29290.725000	-14172.030000	-27766.620000	-15723.405000	-684.720000	-11705.985000	-11.545542	-1.386169	-2.099527	-3.628262	-0.716212	1.766066	2.207278	-3.476371	0.534100	5.722500	-1.510740	0.905820	-0.270690	0.320495	-1.000000	-1.000000	-1.000000	-1.000000	-1.000000	-1.000000	-1.000000	71.310345	0.000000	-1.000000	-1.000000	2405746.000000	1770066308.873620
-25047.180000	-24979.680000	-29271.645000	-14153.715000	-27749.925000	-15705.315000	-672.390000	-11699.595000	-11.299734	-7.390360	-6.068663	-6.914241	-4.252822	-1.777632	0.277668	-0.281623	0.534100	5.722500	-1.510740	0.905820	-0.270690	0.320495	-1.000000	-1.000000	-1.000000	-1.000000	-1.000000	-1.000000	-1.000000	71.310345	0.000000	-1.000000	-1.000000	2405747.000000	1770066308.877832
-25073.640000	-25002.360000	-29275.560000	-14157.945000	-27752.940000	-15708.195000	-679.230000	-11714.355000	-4.433795	-8.165617	-6.467726	-6.626760	-4.877107	-2.907471	-0.194427	4.473069	0.534100	5.722500	-1.510740	0.905820	-0.270690	0.320495	-1.000000	-1.000000	-1.000000	-1.000000	-1.000000	-1.000000	-1.000000	71.310345	0.000000	-1.000000	-1.000000	2405748.000000	1770066308.877838
-25117.020000	-25020.315000	-29280.420000	-14161.590000	-27754.245000	-15710.220000	-681.615000	-11719.755000	1.763953	-6.074124	-4.152710	-4.517336	-3.375629	-2.235968	-0.352165	6.261630	0.534100	5.722500	-1.510740	0.905820	-0.270690	0.320495	-1.000000	-1.000000	-1.000000	-1.000000	-1.000000	-1.000000	-1.000000	71.310345	0.000000	-1.000000	-1.000000	2405749.000000	1770066308.882026
-25106.400000	-24991.200000	-29272.680000	-14153.085000	-27746.415000	-15703.605000	-673.245000	-11731.455000	2.662829	-3.946503	-1.369764	-2.464619	-1.692957	-1.566596	-1.283303	3.365605	0.534100	5.722500	-1.510740	0.905820	-0.270690	0.320495	-1.000000	-1.000000	-1.000000	-1.000000	-1.000000	-1.000000	-1.000000	71.310345	0.000000	-1.000000	-1.000000	2405750.000000	1770066308.882038
-25059.690000	-24962.670000	-29270.430000	-14149.305000	-27747.225000	-15706.125000	-671.895000	-11736.135000	0.627958	-1.188117	0.802337	-0.456289	-0.325755	-1.268248	-2.380298	-2.195273	-0.274680	4.379620	-3.448760	0.904722	-0.269225	0.321899	-1.000000	-1.000000	-1.000000	-1.000000	-1.000000	-1.000000	-1.000000	71.310345	0.000000	-1.000000	-1.000000	2405751.000000	1770066308.887995
-25036.785000	-24969.195000	-29277.540000	-14159.250000	-27758.070000	-15717.645000	-678.825000	-11726.235000	1.530431	3.503939	2.320122	1.962286	1.006506	-0.830333	-2.574649	-6.336867	-0.274680	4.379620	-3.448760	0.904722	-0.269225	0.321899	-1.000000	-1.000000	-1.000000	-1.000000	-1.000000	-1.000000	-1.000000	71.310345	0.000000	-1.000000	-1.000000	2405752.000000	1770066308.888007
-25052.310000	-24979.140000	-29277.945000	-14164.110000	-27758.565000	-15715.890000	-683.010000	-11734.020000	6.989899	8.387352	3.219749	4.152769	2.088009	-0.182386	-1.849167	-6.161666	-0.274680	4.379620	-3.448760	0.904722	-0.269225	0.321899	-1.000000	-1.000000	-1.000000	-1.000000	-1.000000	-1.000000	-1.000000	71.310345	0.000000	-1.000000	-1.000000	2405753.000000	1770066308.889732
-25080.030000	-24995.790000	-29286.720000	-14165.280000	-27755.775000	-15710.355000	-682.245000	-11732.265000	11.080112	9.612127	3.272236	4.982452	2.532860	0.539286	-0.887496	-2.814004	-0.274680	4.379620	-3.448760	0.904722	-0.269225	0.321899	-1.000000	-1.000000	-1.000000	-1.000000	-1.000000	-1.000000	-1.000000	71.310345	0.000000	-1.000000	-1.000000	2405754.000000	1770066308.889738
-25041.600000	-24992.955000	-29290.410000	-14165.595000	-27760.455000	-15712.920000	-675.225000	-11669.715000	7.610466	4.974026	1.936866	3.848110	2.106341	1.137470	-0.070649	1.209023	-0.274680	4.379620	-3.448760	0.904722	-0.269225	0.321899	-1.000000	-1.000000	-1.000000	-1.000000	-1.000000	-1.000000	-1.000000	71.310345	0.000000	-1.000000	-1.000000	2405755.000000	1770066308.893762
-25047.855000	-24994.080000	-29282.490000	-14157.090000	-27757.575000	-15711.345000	-675.180000	-11671.920000	-1.692476	-3.499731	-0.783207	1.028593	0.666690	1.079194	0.634804	5.524127	-0.274680	4.379620	-3.448760	0.904722	-0.269225	0.321899	-1.000000	-1.000000	-1.000000	-1.000000	-1.000000	-1.000000	-1.000000	71.310345	0.000000	-1.000000	-1.000000	2405756.000000	1770066308.893768
-25096.725000	-25001.145000	-29274.345000	-14147.730000	-27744.930000	-15700.095000	-673.560000	-11713.005000	-10.323630	-10.556652	-3.325904	-2.067861	-1.222625	0.230348	1.198365	8.691835	-0.274680	4.379620	-3.448760	0.904722	-0.269225	0.321899	-1.000000	-1.000000	-1.000000	-1.000000	-1.000000	-1.000000	-1.000000	71.310345	0.000000	-1.000000	-1.000000	2405757.000000	1770066308.897658
-25094.700000	-24987.420000	-29266.065000	-14143.365000	-27742.185000	-15697.665000	-672.930000	-11733.030000	-13.833455	-11.655345	-3.526339	-3.475358	-2.152653	-0.495358	1.480180	6.895544	-0.274680	4.379620	-3.448760	0.904722	-0.269225	0.321899	-1.000000	-1.000000	-1.000000	-1.000000	-1.000000	-1.000000	-1.000000	71.310345	0.000000	-1.000000	-1.000000	2405758.000000	1770066308.897668
-25069.320000	-24986.655000	-29284.020000	-14171.670000	-27773.505000	-15727.320000	-683.190000	-11725.920000	-11.232775	-6.748003	-1.297191	-2.948339	-1.874560	-0.751603	1.132571	-0.389330	-0.274680	4.379620	-3.448760	0.904722	-0.269225	0.321899	-1.000000	-1.000000	-1.000000	-1.000000	-1.000000	-1.000000	-1.000000	71.310345	0.000000	-1.000000	-1.000000	2405759.000000	1770066308.902342
-25063.695000	-24975.090000	-29271.015000	-14164.155000	-27765.720000	-15721.020000	-677.970000	-11717.010000	-4.553407	0.147379	1.204152	-2.177439	-1.685518	-1.328974	-0.036719	-8.048106	-0.274680	4.379620	-3.448760	0.904722	-0.269225	0.321899	-1.000000	-1.000000	-1.000000	-1.000000	-1.000000	-1.000000	-1.000000	71.310345	0.000000	-1.000000	-1.000000	2405760.000000	1770066308.902358
-25056.765000	-24988.320000	-29275.335000	-14171.040000	-27770.490000	-15727.995000	-690.210000	-11708.910000	2.533195	5.332043	2.605665	-1.694324	-1.635642	-1.934237	-1.284031	-10.490550	-2.655240	5.859840	-2.655240	0.908567	-0.267516	0.321899	-1.000000	-1.000000	-1.000000	-1.000000	-1.000000	-1.000000	-1.000000	71.310345	0.000000	-1.000000	-1.000000	2405761.000000	1770066308.905780
-25056.540000	-25021.440000	-29294.280000	-14182.470000	-27778.680000	-15731.820000	-690.705000	-11696.895000	7.560041	7.190542	2.789227	-0.673148	-0.713104	-1.502349	-1.710885	-6.508343	-2.655240	5.859840	-2.655240	0.908567	-0.267516	0.321899	-1.000000	-1.000000	-1.000000	-1.000000	-1.000000	-1.000000	-1.000000	71.310345	0.000000	-1.000000	-1.000000	2405762.000000	1770066308.905788
-25068.105000	-25014.465000	-29288.430000	-14161.725000	-27756.135000	-15707.070000	-670.455000	-11697.390000	9.523506	5.378375	1.604595	1.014121	1.088275	0.100125	-0.988690	0.434893	-2.655240	5.859840	-2.655240	0.908567	-0.267516	0.321899	-1.000000	-1.000000	-1.000000	-1.000000	-1.000000	-1.000000	-1.000000	71.310345	0.000000	-1.000000	-1.000000	2405763.000000	1770066308.909770
-25071.570000	-24985.260000	-29290.230000	-14162.580000	-27758.430000	-15710.265000	-673.020000	-11711.160000	7.327840	1.807303	-0.425069	2.907171	3.249549	2.492887	0.796431	4.598357	-2.655240	5.859840	-2.655240	0.908567	-0.267516	0.321899	-1.000000	-1.000000	-1.000000	-1.000000	-1.000000	-1.000000	-1.000000	71.310345	0.000000	-1.000000	-1.000000	2405764.000000	1770066308.909781
-25064.415000	-24981.705000	-29290.230000	-14166.810000	-27763.785000	-15716.790000	-677.565000	-11708.415000	1.842119	-0.032628	-2.240679	3.929509	4.633659	4.392646	2.567823	3.159690	-2.655240	5.859840	-2.655240	0.908567	-0.267516	0.321899	-1.000000	-1.000000	-1.000000	-1.000000	-1.000000	-1.000000	-1.000000	71.310345	0.000000	-1.000000	-1.000000	2405765.000000	1770066308.919010
-25100.235000	-24991.875000	-29282.265000	-14161.050000	-27758.160000	-15712.110000	-675.225000	-11708.505000	-2.694748	1.039011	-3.123744	2.878625	3.666567	3.923297	2.850622	-0.310194	-2.655240	5.859840	-2.655240	0.908567	-0.267516	0.321899	-1.000000	-1.000000	-1.000000	-1.000000	-1.000000	-1.000000	-1.000000	71.310345	0.000000	-1.000000	-1.000000	2405766.000000	1770066308.919022
-25097.625000	-24991.740000	-29276.640000	-14155.965000	-27753.795000	-15707.970000	-671.445000	-11718.945000	-3.792825	2.452356	-2.484679	0.423170	0.720173	1.233167	1.517581	-0.861484	-2.655240	5.859840	-2.655240	0.908567	-0.267516	0.321899	-1.000000	-1.000000	-1.000000	-1.000000	-1.000000	-1.000000	-1.000000	71.310345	0.000000	-1.000000	-1.000000	2405767.000000	1770066308.919178
-25054.920000	-24992.190000	-29274.255000	-14153.805000	-27752.850000	-15707.565000	-670.050000	-11713.950000	-2.839753	1.228120	-0.171723	-1.181058	-1.681830	-1.218676	-0.213606	1.649748	-2.655240	5.859840	-2.655240	0.908567	-0.267516	0.321899	-1.000000	-1.000000	-1.000000	-1.000000	-1.000000	-1.000000	-1.000000	71.310345	0.000000	-1.000000	-1.000000	2405768.000000	1770066308.919188
-25055.820000	-25000.200000	-29279.340000	-14156.145000	-27755.370000	-15709.770000	-669.780000	-11694.735000	-1.071570	-2.571340	2.666645	-0.773081	-1.885549	-1.645830	-1.179006	4.247028	-2.655240	5.859840	-2.655240	0.908567	-0.267516	0.321899	-1.000000	-1.000000	-1.000000	-1.000000	-1.000000	-1.000000	-1.000000	71.310345	0.000000	-1.000000	-1.000000	2405769.000000	1770066308.921688
-25084.485000	-24973.290000	-29258.370000	-14132.745000	-27733.005000	-15689.205000	-661.140000	-11723.220000	0.639640	-5.582027	4.515473	1.018562	-0.344988	-0.322869	-0.918493	4.565041	-2.655240	5.859840	-2.655240	0.908567	-0.267516	0.321899	-1.000000	-1.000000	-1.000000	-1.000000	-1.000000	-1.000000	-1.000000	71.310345	0.000000	-1.000000	-1.000000	2405770.000000	1770066308.921697
-25078.095000	-24955.515000	-29246.355000	-14124.285000	-27725.760000	-15681.960000	-661.005000	-11753.370000	0.756153	-3.753187	5.348195	3.206272	1.809908	1.591156	0.190960	1.078101	-2.609460	4.028640	-3.982860	0.913328	-0.273193	0.321166	-1.000000	-1.000000	-1.000000	-1.000000	-1.000000	-1.000000	-1.000000	71.310345	0.000000	-1.000000	-1.000000	2405771.000000	1770066308.925797
-25084.170000	-24942.330000	-29228.985000	-14108.535000	-27708.840000	-15666.390000	-656.505000	-11771.865000	-0.672474	2.805121	5.688244	4.459643	3.226128	2.657529	0.814027	-6.004345	-2.609460	4.028640	-3.982860	0.913328	-0.273193	0.321166	-1.000000	-1.000000	-1.000000	-1.000000	-1.000000	-1.000000	-1.000000	71.310345	0.000000	-1.000000	-1.000000	2405772.000000	1770066308.925807
-25114.365000	-24981.930000	-29260.755000	-14139.045000	-27738.900000	-15692.175000	-670.095000	-11740.320000	-2.443199	8.033004	4.444517	2.937315	2.339912	1.565846	-0.163132	-12.346681	-2.609460	4.028640	-3.982860	0.913328	-0.273193	0.321166	-1.000000	-1.000000	-1.000000	-1.000000	-1.000000	-1.000000	-1.000000	71.310345	0.000000	-1.000000	-1.000000	2405773.000000	1770066308.929740
-25073.055000	-25027.245000	-29312.640000	-14189.445000	-27785.430000	-15733.755000	-692.820000	-11703.465000	-3.053587	5.374353	-0.819095	-2.738750	-2.130173	-2.459122	-2.622199	-11.149031	-2.609460	4.028640	-3.982860	0.913328	-0.273193	0.321166	-1.000000	-1.000000	-1.000000	-1.000000	-1.000000	-1.000000	-1.000000	71.310345	0.000000	-1.000000	-1.000000	2405774.000000	1770066308.929746
-25023.600000	-25005.600000	-29312.685000	-14194.980000	-27789.345000	-15735.015000	-682.020000	-11662.380000	0.631016	-4.687521	-10.294126	-11.547016	-9.595946	-8.720571	-5.352465	0.373469	-2.609460	4.028640	-3.982860	0.913328	-0.273193	0.321166	-1.000000	-1.000000	-1.000000	-1.000000	-1.000000	-1.000000	-1.000000	71.310345	0.000000	-1.000000	-1.000000	2405775.000000	1770066308.933825
-25056.360000	-24978.555000	-29283.930000	-14169.555000	-27766.890000	-15715.980000	-670.365000	-11692.080000	8.437924	-13.771262	-18.386318	-18.002043	-15.281444	-13.178358	-6.067062	16.250525	-2.609460	4.028640	-3.982860	0.913328	-0.273193	0.321166	-1.000000	-1.000000	-1.000000	-1.000000	-1.000000	-1.000000	-1.000000	71.310345	0.000000	-1.000000	-1.000000	2405776.000000	1770066308.933836
-25046.820000	-24983.370000	-29292.750000	-14182.920000	-27781.740000	-15729.885000	-677.790000	-11688.795000	12.815468	-13.795016	-17.680094	-15.731765	-13.370781	-11.057194	-3.169042	24.897841	-2.609460	4.028640	-3.982860	0.913328	-0.273193	0.321166	-1.000000	-1.000000	-1.000000	-1.000000	-1.000000	-1.000000	-1.000000	71.310345	0.000000	-1.000000	-1.000000	2405777.000000	1770066308.937688
-25043.310000	-24998.220000	-29297.160000	-14183.055000	-27781.515000	-15728.175000	-676.890000	-11682.630000	8.092446	-4.973274	-7.305844	-4.704521	-3.807380	-2.577262	1.964229	19.300112	-2.609460	4.028640	-3.982860	0.913328	-0.273193	0.321166	-1.000000	-1.000000	-1.000000	-1.000000	-1.000000	-1.000000	-1.000000	71.310345	0.000000	-1.000000	-1.000000	2405778.000000	1770066308.937696
-25097.895000	-25017.615000	-29292.390000	-14168.115000	-27764.370000	-15711.255000	-675.495000	-11709.315000	-2.690345	5.343873	6.279374	8.693354	7.759906	7.294588	6.208150	3.201256	-2.609460	4.028640	-3.982860	0.913328	-0.273193	0.321166	-1.000000	-1.000000	-1.000000	-1.000000	-1.000000	-1.000000	-1.000000	71.310345	0.000000	-1.000000	-1.000000	2405779.000000	1770066308.944060
-25110.045000	-25008.660000	-29276.415000	-14148.675000	-27746.730000	-15695.865000	-675.765000	-11735.595000	-13.547993	10.081961	15.800297	17.848134	15.661358	13.747720	7.341290	-13.841605	-2.609460	4.028640	-3.982860	0.913328	-0.273193	0.321166	-1.000000	-1.000000	-1.000000	-1.000000	-1.000000	-1.000000	-1.000000	71.310345	0.000000	-1.000000	-1.000000	2405780.000000	1770066308.944071
-25080.930000	-24994.665000	-29281.365000	-14162.130000	-27761.580000	-15709.680000	-686.835000	-11739.105000	-19.100089	8.256829	17.911884	19.559269	17.152891	14.544031	5.052566	-24.085620	-2.441600	5.951400	-8.026760	0.914121	-0.279235	0.321410	-1.000000	-1.000000	-1.000000	-1.000000	-1.000000	-1.000000	-1.000000	71.310345	0.000000	-1.000000	-1.000000	2405781.000000	1770066308.946200
-25068.330000	-25006.545000	-29294.910000	-14182.335000	-27779.625000	-15725.565000	-691.290000	-11721.420000	-14.871127	4.447697	13.708219	14.281298	12.529746	10.133010	0.971115	-24.406483	-2.441600	5.951400	-8.026760	0.914121	-0.279235	0.321410	-1.000000	-1.000000	-1.000000	-1.000000	-1.000000	-1.000000	-1.000000	71.310345	0.000000	-1.000000	-1.000000	2405782.000000	1770066308.946209
-25056.720000	-24967.755000	-29266.470000	-14162.805000	-27765.495000	-15714.765000	-677.430000	-11703.240000	-2.205237	3.542663	7.250285	5.770113	5.017633	3.504123	-2.086081	-16.051883	-2.441600	5.951400	-8.026760	0.914121	-0.279235	0.321410	-1.000000	-1.000000	-1.000000	-1.000000	-1.000000	-1.000000	-1.000000	71.310345	0.000000	-1.000000	-1.000000	2405783.000000	1770066308.949677
-24999.615000	-24944.355000	-29268.270000	-14170.545000	-27767.745000	-15715.575000	-670.995000	-11673.765000	11.483799	6.208238	2.147124	-1.525963	-1.448756	-1.901927	-2.337012	-2.868354	-2.441600	5.951400	-8.026760	0.914121	-0.279235	0.321410	-1.000000	-1.000000	-1.000000	-1.000000	-1.000000	-1.000000	-1.000000	71.310345	0.000000	-1.000000	-1.000000	2405784.000000	1770066308.949684
-25015.320000	-24974.730000	-29287.845000	-14171.535000	-27769.230000	-15716.790000	-670.320000	-11673.765000	19.635943	8.143951	-1.854082	-6.164374	-5.445569	-4.936471	-0.623082	10.800174	-2.441600	5.951400	-8.026760	0.914121	-0.279235	0.321410	-1.000000	-1.000000	-1.000000	-1.000000	-1.000000	-1.000000	-1.000000	71.310345	0.000000	-1.000000	-1.000000	2405785.000000	1770066308.954929
-25049.835000	-24991.830000	-29292.030000	-14168.205000	-27769.230000	-15716.745000	-673.920000	-11695.365000	18.613535	4.346319	-6.674485	-8.719744	-7.431828	-6.118397	0.943149	19.864262	-2.441600	5.951400	-8.026760	0.914121	-0.279235	0.321410	-1.000000	-1.000000	-1.000000	-1.000000	-1.000000	-1.000000	-1.000000	71.310345	0.000000	-1.000000	-1.000000	2405786.000000	1770066308.954958
-25052.445000	-24978.600000	-29279.970000	-14161.995000	-27761.490000	-15709.230000	-673.245000	-11707.155000	8.182435	-4.582427	-11.255367	-9.114062	-7.626488	-5.869251	1.047005	19.689722	-2.441600	5.951400	-8.026760	0.914121	-0.279235	0.321410	-1.000000	-1.000000	-1.000000	-1.000000	-1.000000	-1.000000	-1.000000	71.310345	0.000000	-1.000000	-1.000000	2405787.000000	1770066308.963900
-25052.490000	-24968.160000	-29270.520000	-14153.310000	-27753.255000	-15702.525000	-673.380000	-11722.230000	-5.379444	-12.339575	-12.475774	-7.475815	-6.398498	-4.770889	-0.322044	10.916052	-2.441600	5.951400	-8.026760	0.914121	-0.279235	0.321410	-1.000000	-1.000000	-1.000000	-1.000000	-1.000000	-1.000000	-1.000000	71.310345	0.000000	-1.000000	-1.000000	2405788.000000	1770066308.963910
-25055.370000	-24971.040000	-29271.240000	-14152.590000	-27750.870000	-15702.345000	-678.195000	-11739.555000	-13.636134	-13.928702	-9.265480	-4.908907	-4.572790	-3.597696	-2.238749	-0.494037	-2.441600	5.951400	-8.026760	0.914121	-0.279235	0.321410	-1.000000	-1.000000	-1.000000	-1.000000	-1.000000	-1.000000	-1.000000	71.310345	0.000000	-1.000000	-1.000000	2405789.000000	1770066308.963921
-25055.460000	-24964.695000	-29256.300000	-14135.715000	-27733.860000	-15686.415000	-670.815000	-11747.430000	-13.906165	-9.632062	-3.021548	-1.746777	-1.987665	-1.947744	-3.231263	-9.075221	-2.441600	5.951400	-8.026760	0.914121	-0.279235	0.321410	-1.000000	-1.000000	-1.000000	-1.000000	-1.000000	-1.000000	-1.000000	71.310345	0.000000	-1.000000	-1.000000	2405790.000000	1770066308.963926
-25069.545000	-24955.785000	-29240.415000	-14118.480000	-27717.120000	-15671.970000	-667.440000	-11778.300000	-9.400656	-2.310191	4.495458	2.942514	2.500819	1.610528	-2.124016	-13.432340	-4.562740	1.846460	-5.936140	0.912168	-0.274841	0.324828	-1.000000	-1.000000	-1.000000	-1.000000	-1.000000	-1.000000	-1.000000	71.310345	0.000000	-1.000000	-1.000000	2405791.000000	1770066308.969036
-25044.930000	-24960.015000	-29249.505000	-14128.020000	-27724.905000	-15677.505000	-663.930000	-11756.025000	-4.560866	4.329536	10.576899	8.228228	7.855505	6.421970	0.456980	-14.481820	-4.562740	1.846460	-5.936140	0.912168	-0.274841	0.324828	-1.000000	-1.000000	-1.000000	-1.000000	-1.000000	-1.000000	-1.000000	71.310345	0.000000	-1.000000	-1.000000	2405792.000000	1770066308.969045
-25084.665000	-24983.730000	-29272.140000	-14149.440000	-27744.030000	-15692.895000	-656.775000	-11700.765000	-2.070157	6.246856	11.304810	10.018061	9.834103	8.659776	2.429289	-11.246467	-4.562740	1.846460	-5.936140	0.912168	-0.274841	0.324828	-1.000000	-1.000000	-1.000000	-1.000000	-1.000000	-1.000000	-1.000000	71.310345	0.000000	-1.000000	-1.000000	2405793.000000	1770066308.969670
-25098.795000	-24993.810000	-29279.880000	-14158.215000	-27754.875000	-15706.170000	-667.350000	-11699.775000	-2.039732	2.849056	5.504513	5.455972	5.462425	5.333366	2.497095	-1.690587	-4.562740	1.846460	-5.936140	0.912168	-0.274841	0.324828	-1.000000	-1.000000	-1.000000	-1.000000	-1.000000	-1.000000	-1.000000	71.310345	0.000000	-1.000000	-1.000000	2405794.000000	1770066308.969676
-25103.295000	-24994.890000	-29271.870000	-14152.005000	-27746.100000	-15696.675000	-666.720000	-11712.285000	-1.857470	-1.745567	-3.015821	-3.187939	-3.069594	-2.046403	0.897442	11.344722	-4.562740	1.846460	-5.936140	0.912168	-0.274841	0.324828	-1.000000	-1.000000	-1.000000	-1.000000	-1.000000	-1.000000	-1.000000	71.310345	0.000000	-1.000000	-1.000000	2405795.000000	1770066308.974341
-25077.915000	-24995.025000	-29276.145000	-14161.590000	-27754.920000	-15700.770000	-668.790000	-11704.140000	1.885230	-3.404772	-9.045689	-10.625161	-10.487649	-8.877991	-1.273419	20.598606	-4.562740	1.846460	-5.936140	0.912168	-0.274841	0.324828	-1.000000	-1.000000	-1.000000	-1.000000	-1.000000	-1.000000	-1.000000	71.310345	0.000000	-1.000000	-1.000000	2405796.000000	1770066308.974352
-25059.870000	-24972.480000	-29269.800000	-14156.910000	-27753.615000	-15698.880000	-673.515000	-11726.820000	9.710921	-1.320340	-10.115046	-13.109784	-13.094735	-11.510676	-2.797411	21.068365	-4.562740	1.846460	-5.936140	0.912168	-0.274841	0.324828	-1.000000	-1.000000	-1.000000	-1.000000	-1.000000	-1.000000	-1.000000	71.310345	0.000000	-1.000000	-1.000000	2405797.000000	1770066308.977710
-25080.705000	-24973.380000	-29275.920000	-14152.905000	-27752.175000	-15701.400000	-679.365000	-11729.205000	17.358855	2.997084	-6.794086	-9.873798	-10.238961	-9.111329	-3.013388	12.779806	-4.562740	1.846460	-5.936140	0.912168	-0.274841	0.324828	-1.000000	-1.000000	-1.000000	-1.000000	-1.000000	-1.000000	-1.000000	71.310345	0.000000	-1.000000	-1.000000	2405798.000000	1770066308.977718
-25068.915000	-24967.170000	-29259.720000	-14127.660000	-27726.795000	-15680.250000	-669.060000	-11706.570000	18.704225	7.058006	-1.137196	-2.208783	-3.138515	-2.945458	-1.885491	0.110350	-4.562740	1.846460	-5.936140	0.912168	-0.274841	0.324828	-1.000000	-1.000000	-1.000000	-1.000000	-1.000000	-1.000000	-1.000000	71.310345	0.000000	-1.000000	-1.000000	2405799.000000	1770066308.981950
-25129.980000	-24993.270000	-29252.070000	-14114.655000	-27708.840000	-15664.230000	-664.740000	-11762.415000	10.782464	7.934358	4.495508	7.034577	5.830804	4.694072	0.225848	-11.181468	-4.562740	1.846460	-5.936140	0.912168	-0.274841	0.324828	-1.000000	-1.000000	-1.000000	-1.000000	-1.000000	-1.000000	-1.000000	71.310345	0.000000	-1.000000	-1.000000	2405800.000000	1770066308.981960
-25190.235000	-25008.255000	-29248.830000	-14107.815000	-27700.560000	-15657.120000	-659.565000	-11785.770000	-5.220804	3.805499	8.313719	14.235609	13.513453	11.165052	2.423819	-19.136662	-7.843640	3.113040	-4.745860	0.914915	-0.272399	0.325256	-1.000000	-1.000000	-1.000000	-1.000000	-1.000000	-1.000000	-1.000000	71.310345	0.000000	-1.000000	-1.000000	2405801.000000	1770066308.988053
-25167.330000	-24976.485000	-29223.270000	-14087.295000	-27683.820000	-15644.970000	-668.565000	-11855.340000	-22.616515	-2.827738	9.997777	16.891298	17.179308	14.295673	3.488781	-25.171827	-7.843640	3.113040	-4.745860	0.914915	-0.272399	0.325256	-1.000000	-1.000000	-1.000000	-1.000000	-1.000000	-1.000000	-1.000000	71.310345	0.000000	-1.000000	-1.000000	2405802.000000	1770066308.988065
-25064.955000	-24931.890000	-29190.420000	-14058.090000	-27657.855000	-15628.815000	-682.155000	-11892.690000	-28.352985	-5.417679	10.491442	14.817182	15.853003	13.244735	2.677976	-28.574548	-7.843640	3.113040	-4.745860	0.914915	-0.272399	0.325256	-1.000000	-1.000000	-1.000000	-1.000000	-1.000000	-1.000000	-1.000000	71.310345	0.000000	-1.000000	-1.000000	2405803.000000	1770066308.993781
-24941.160000	-24937.020000	-29239.830000	-14117.805000	-27716.040000	-15679.575000	-694.080000	-11749.860000	-12.431966	-0.680414	9.124495	8.302174	9.291941	7.601574	0.154107	-22.954540	-7.843640	3.113040	-4.745860	0.914915	-0.272399	0.325256	-1.000000	-1.000000	-1.000000	-1.000000	-1.000000	-1.000000	-1.000000	71.310345	0.000000	-1.000000	-1.000000	2405804.000000	1770066308.993792
-24910.020000	-24961.005000	-29306.025000	-14197.410000	-27793.980000	-15733.620000	-674.145000	-11560.185000	19.365636	6.200043	2.182234	-3.903651	-3.525610	-3.417172	-2.619128	0.838801	-7.843640	3.113040	-4.745860	0.914915	-0.272399	0.325256	-1.000000	-1.000000	-1.000000	-1.000000	-1.000000	-1.000000	-1.000000	71.310345	0.000000	-1.000000	-1.000000	2405805.000000	1770066308.993804
-25109.955000	-24949.305000	-29252.610000	-14133.015000	-27725.805000	-15658.965000	-615.555000	-11658.915000	43.422779	7.232715	-10.604996	-19.571457	-19.618431	-16.453921	-2.439303	39.317566	-7.843640	3.113040	-4.745860	0.914915	-0.272399	0.325256	-1.000000	-1.000000	-1.000000	-1.000000	-1.000000	-1.000000	-1.000000	71.310345	0.000000	-1.000000	-1.000000	2405806.000000	1770066308.993809
-25129.395000	-24970.365000	-29261.160000	-14136.885000	-27730.215000	-15670.890000	-647.820000	-11734.020000	35.730490	0.529543	-21.049156	-28.993603	-28.787559	-22.434132	2.328538	66.418373	-7.843640	3.113040	-4.745860	0.914915	-0.272399	0.325256	-1.000000	-1.000000	-1.000000	-1.000000	-1.000000	-1.000000	-1.000000	71.310345	0.000000	-1.000000	-1.000000	2405807.000000	1770066308.997691
-25012.665000	-25013.295000	-29328.210000	-14210.280000	-27805.590000	-15745.815000	-701.415000	-11695.995000	-0.220566	-9.596448	-22.024060	-25.592239	-24.822902	-17.590856	6.764905	57.281601	-7.843640	3.113040	-4.745860	0.914915	-0.272399	0.325256	-1.000000	-1.000000	-1.000000	-1.000000	-1.000000	-1.000000	-1.000000	71.310345	0.000000	-1.000000	-1.000000	2405808.000000	1770066308.997704
-25021.755000	-25001.640000	-29326.995000	-14215.140000	-27807.075000	-15754.320000	-697.005000	-11667.240000	-33.691860	-17.175559	-15.536471	-14.003123	-13.159297	-8.649882	3.996519	17.568694	-7.843640	3.113040	-4.745860	0.914915	-0.272399	0.325256	-1.000000	-1.000000	-1.000000	-1.000000	-1.000000	-1.000000	-1.000000	71.310345	0.000000	-1.000000	-1.000000	2405809.000000	1770066309.001722
-25059.645000	-24965.820000	-29280.195000	-14161.320000	-27742.365000	-15709.455000	-672.165000	-11682.360000	-40.849599	-16.497787	-5.442603	-0.576538	-0.242864	-1.213952	-4.676668	-25.284811	-7.843640	3.113040	-4.745860	0.914915	-0.272399	0.325256	-1.000000	-1.000000	-1.000000	-1.000000	-1.000000	-1.000000	-1.000000	71.310345	0.000000	-1.000000	-1.000000	2405810.000000	1770066309.001734
-25061.490000	-24953.265000	-29256.300000	-14128.380000	-27700.110000	-15672.690000	-651.555000	-11677.770000	-25.098562	-6.044866	7.246928	13.251312	13.388745	6.446730	-10.550204	-48.676303	-3.418240	12.772620	-2.090620	0.923765	-0.270019	0.321654	-1.000000	-1.000000	-1.000000	-1.000000	-1.000000	-1.000000	-1.000000	71.310345	0.000000	-1.000000	-1.000000	2405811.000000	1770066309.005702
-25029.090000	-24957.450000	-29257.920000	-14130.720000	-27702.990000	-15670.755000	-655.290000	-11674.935000	-4.915661	7.986636	19.506345	25.423992	26.243904	15.894440	-7.637421	-46.795606	-3.418240	12.772620	-2.090620	0.923765	-0.270019	0.321654	-1.000000	-1.000000	-1.000000	-1.000000	-1.000000	-1.000000	-1.000000	71.310345	0.000000	-1.000000	-1.000000	2405812.000000	1770066309.005714
-25024.995000	-24986.295000	-29292.795000	-14170.500000	-27754.290000	-15700.545000	-668.880000	-11700.945000	5.303138	16.561633	25.961870	31.170710	32.559533	23.615321	1.407176	-30.901342	-3.418240	12.772620	-2.090620	0.923765	-0.270019	0.321654	-1.000000	-1.000000	-1.000000	-1.000000	-1.000000	-1.000000	-1.000000	71.310345	0.000000	-1.000000	-1.000000	2405813.000000	1770066309.012100
-25075.620000	-24995.565000	-29293.605000	-14167.440000	-27755.460000	-15694.695000	-667.755000	-11725.380000	4.176015	15.312842	23.423011	27.177428	27.492644	24.236977	8.497942	-18.228124	-3.418240	12.772620	-2.090620	0.923765	-0.270019	0.321654	-1.000000	-1.000000	-1.000000	-1.000000	-1.000000	-1.000000	-1.000000	71.310345	0.000000	-1.000000	-1.000000	2405814.000000	1770066309.012110
-25205.085000	-25030.845000	-29278.485000	-14133.555000	-27712.395000	-15664.905000	-663.840000	-11749.590000	-0.142473	6.123358	12.577355	14.109116	11.883973	15.323350	7.948755	-12.958253	-3.418240	12.772620	-2.090620	0.923765	-0.270019	0.321654	-1.000000	-1.000000	-1.000000	-1.000000	-1.000000	-1.000000	-1.000000	71.310345	0.000000	-1.000000	-1.000000	2405815.000000	1770066309.013724
-25164.765000	-24997.725000	-29239.290000	-14094.540000	-27678.420000	-15639.300000	-665.640000	-11772.045000	-1.317712	-4.617819	-1.261661	-2.173261	-6.401151	0.979396	1.715006	-5.919645	-3.418240	12.772620	-2.090620	0.923765	-0.270019	0.321654	-1.000000	-1.000000	-1.000000	-1.000000	-1.000000	-1.000000	-1.000000	71.310345	0.000000	-1.000000	-1.000000	2405816.000000	1770066309.013730
-24973.605000	-24890.625000	-29188.845000	-14071.770000	-27672.390000	-15637.590000	-663.840000	-11733.705000	3.204453	-7.641500	-9.304078	-12.534508	-16.922153	-9.977107	-3.348776	8.037668	-3.418240	12.772620	-2.090620	0.923765	-0.270019	0.321654	-1.000000	-1.000000	-1.000000	-1.000000	-1.000000	-1.000000	-1.000000	71.310345	0.000000	-1.000000	-1.000000	2405817.000000	1770066309.034211
-24964.065000	-24887.070000	-29195.325000	-14082.390000	-27681.390000	-15653.385000	-681.390000	-11804.895000	16.617363	1.805637	-7.494676	-13.191919	-16.515395	-13.073105	-3.698056	23.365677	-3.418240	12.772620	-2.090620	0.923765	-0.270019	0.321654	-1.000000	-1.000000	-1.000000	-1.000000	-1.000000	-1.000000	-1.000000	71.310345	0.000000	-1.000000	-1.000000	2405818.000000	1770066309.034225
-24994.755000	-24933.870000	-29245.995000	-14133.375000	-27730.530000	-15687.765000	-692.280000	-11831.355000	34.289683	14.798110	-3.008825	-10.861379	-12.788229	-12.818900	-2.170620	30.751485	-3.418240	12.772620	-2.090620	0.923765	-0.270019	0.321654	-1.000000	-1.000000	-1.000000	-1.000000	-1.000000	-1.000000	-1.000000	71.310345	0.000000	-1.000000	-1.000000	2405819.000000	1770066309.034239
-25100.100000	-25055.595000	-29360.880000	-14241.915000	-27829.530000	-15757.155000	-694.755000	-11685.780000	38.914652	14.630760	-7.436192	-15.475934	-15.638838	-16.154633	-2.411724	28.222330	-3.418240	12.772620	-2.090620	0.923765	-0.270019	0.321654	-1.000000	-1.000000	-1.000000	-1.000000	-1.000000	-1.000000	-1.000000	71.310345	0.000000	-1.000000	-1.000000	2405820.000000	1770066309.034244
-25199.055000	-25090.695000	-29380.725000	-14260.140000	-27842.355000	-15760.215000	-671.805000	-11615.940000	15.841413	-5.066514	-22.639613	-27.593497	-25.244730	-22.931846	-3.532396	23.650161	4.990020	6.165040	-2.319520	0.920713	-0.267822	0.312926	-1.000000	-1.000000	-1.000000	-1.000000	-1.000000	-1.000000	-1.000000	71.310345	0.000000	-1.000000	-1.000000	2405821.000000	1770066309.034250
-25187.130000	-25043.580000	-29324.160000	-14200.965000	-27782.820000	-15710.265000	-654.705000	-11675.880000	-27.794085	-30.585787	-34.891116	-34.023607	-28.684002	-23.765983	-1.904811	20.724775	4.990020	6.165040	-2.319520	0.920713	-0.267822	0.312926	-1.000000	-1.000000	-1.000000	-1.000000	-1.000000	-1.000000	-1.000000	71.310345	0.000000	-1.000000	-1.000000	2405822.000000	1770066309.034255
-25143.390000	-25014.060000	-29288.970000	-14159.385000	-27748.890000	-15689.250000	-660.465000	-11711.565000	-61.125816	-39.414451	-27.792476	-20.999300	-13.710069	-10.593804	2.994223	12.898592	4.990020	6.165040	-2.319520	0.920713	-0.267822	0.312926	-1.000000	-1.000000	-1.000000	-1.000000	-1.000000	-1.000000	-1.000000	71.310345	0.000000	-1.000000	-1.000000	2405823.000000	1770066309.039817
-25125.570000	-24984.135000	-29269.080000	-14141.790000	-27735.120000	-15677.370000	-653.985000	-11730.870000	-55.045051	-21.664730	-0.935995	8.582337	14.858329	11.893022	7.452746	-3.372321	4.990020	6.165040	-2.319520	0.920713	-0.267822	0.312926	-1.000000	-1.000000	-1.000000	-1.000000	-1.000000	-1.000000	-1.000000	71.310345	0.000000	-1.000000	-1.000000	2405824.000000	1770066309.039831
-24966.090000	-24932.430000	-29259.225000	-14143.410000	-27740.295000	-15685.920000	-657.945000	-11652.795000	-11.815050	11.805748	29.485971	37.105120	39.325651	30.410935	8.365092	-20.965665	4.990020	6.165040	-2.319520	0.920713	-0.267822	0.312926	-1.000000	-1.000000	-1.000000	-1.000000	-1.000000	-1.000000	-1.000000	71.310345	0.000000	-1.000000	-1.000000	2405825.000000	1770066309.039846
-24925.185000	-24909.570000	-29248.830000	-14141.565000	-27741.195000	-15687.675000	-645.525000	-11588.175000	38.172904	39.506163	45.478532	48.258435	45.735936	35.170533	5.839976	-28.557097	4.990020	6.165040	-2.319520	0.920713	-0.267822	0.312926	-1.000000	-1.000000	-1.000000	-1.000000	-1.000000	-1.000000	-1.000000	71.310345	0.000000	-1.000000	-1.000000	2405826.000000	1770066309.039851
-25003.305000	-24948.945000	-29266.065000	-14150.880000	-27737.370000	-15685.965000	-650.340000	-11650.995000	63.418036	45.177712	39.725366	37.880922	32.599249	25.506437	1.705589	-21.126996	4.990020	6.165040	-2.319520	0.920713	-0.267822	0.312926	-1.000000	-1.000000	-1.000000	-1.000000	-1.000000	-1.000000	-1.000000	71.310345	0.000000	-1.000000	-1.000000	2405827.000000	1770066309.042072
-25159.950000	-25014.150000	-29288.655000	-14154.255000	-27726.345000	-15680.970000	-678.510000	-11805.390000	49.798869	27.386984	18.350684	14.486253	9.623667	8.507385	-2.650355	-8.444481	4.990020	6.165040	-2.319520	0.920713	-0.267822	0.312926	-1.000000	-1.000000	-1.000000	-1.000000	-1.000000	-1.000000	-1.000000	71.310345	0.000000	-1.000000	-1.000000	2405828.000000	1770066309.042083
-25164.270000	-25039.890000	-29305.800000	-14168.745000	-27741.105000	-15696.045000	-697.275000	-11799.900000	6.580950	-1.458494	-4.869224	-7.581892	-9.583222	-6.323117	-7.156610	-8.139384	4.990020	6.165040	-2.319520	0.920713	-0.267822	0.312926	-1.000000	-1.000000	-1.000000	-1.000000	-1.000000	-1.000000	-1.000000	71.310345	0.000000	-1.000000	-1.000000	2405829.000000	1770066309.042094
-25047.405000	-24991.290000	-29296.395000	-14180.670000	-27768.870000	-15709.815000	-684.135000	-11668.635000	-36.386287	-24.045795	-18.680423	-18.864691	-17.978775	-13.951917	-11.235536	-21.081441	4.990020	6.165040	-2.319520	0.920713	-0.267822	0.312926	-1.000000	-1.000000	-1.000000	-1.000000	-1.000000	-1.000000	-1.000000	71.310345	0.000000	-1.000000	-1.000000	2405830.000000	1770066309.042100
-24988.005000	-24962.310000	-29289.195000	-14184.180000	-27783.765000	-15702.615000	-653.175000	-11606.670000	-48.942189	-29.595015	-21.309942	-20.694488	-19.281562	-16.102790	-12.093778	-24.963379	-8.255660	-0.900340	-4.013380	0.912534	-0.266113	0.316283	-1.000000	-1.000000	-1.000000	-1.000000	-1.000000	-1.000000	-1.000000	71.310345	0.000000	-1.000000	-1.000000	2405831.000000	1770066309.048194
-25036.695000	-24994.395000	-29293.785000	-14177.025000	-27772.110000	-15686.100000	-626.355000	-11640.870000	-26.628011	-20.154487	-18.075826	-19.602534	-20.101734	-16.130342	-6.772170	-3.594757	-8.255660	-0.900340	-4.013380	0.912534	-0.266113	0.316283	-1.000000	-1.000000	-1.000000	-1.000000	-1.000000	-1.000000	-1.000000	71.310345	0.000000	-1.000000	-1.000000	2405832.000000	1770066309.048205
-24985.845000	-24983.100000	-29284.425000	-14171.580000	-27767.925000	-15676.470000	-598.365000	-11627.145000	7.265634	-6.697229	-13.921606	-18.262703	-20.816245	-14.104063	4.164096	30.810971	-8.255660	-0.900340	-4.013380	0.912534	-0.266113	0.316283	-1.000000	-1.000000	-1.000000	-1.000000	-1.000000	-1.000000	-1.000000	71.310345	0.000000	-1.000000	-1.000000	2405833.000000	1770066309.049797
-25064.235000	-24984.900000	-29271.105000	-14161.140000	-27756.180000	-15666.660000	-597.285000	-11663.010000	23.413936	0.766683	-9.768274	-14.356807	-16.858670	-8.304201	15.545402	51.005074	-8.255660	-0.900340	-4.013380	0.912534	-0.266113	0.316283	-1.000000	-1.000000	-1.000000	-1.000000	-1.000000	-1.000000	-1.000000	71.310345	0.000000	-1.000000	-1.000000	2405834.000000	1770066309.049808
-25177.995000	-25009.425000	-29280.240000	-14169.420000	-27759.780000	-15674.490000	-651.285000	-11751.705000	8.805096	-0.127217	-4.580156	-5.980538	-6.147612	0.637857	19.728782	40.102432	-8.255660	-0.900340	-4.013380	0.912534	-0.266113	0.316283	-1.000000	-1.000000	-1.000000	-1.000000	-1.000000	-1.000000	-1.000000	71.310345	0.000000	-1.000000	-1.000000	2405835.000000	1770066309.059745
-25066.215000	-24953.040000	-29261.565000	-14181.570000	-27779.265000	-15665.805000	-640.485000	-11753.595000	-20.824708	-2.965847	2.269943	4.870305	7.361448	8.998929	12.377060	5.779485	-8.255660	-0.900340	-4.013380	0.912534	-0.266113	0.316283	-1.000000	-1.000000	-1.000000	-1.000000	-1.000000	-1.000000	-1.000000	71.310345	0.000000	-1.000000	-1.000000	2405836.000000	1770066309.059758
-25088.625000	-25011.090000	-29303.370000	-14231.700000	-27813.690000	-15682.140000	-626.085000	-11722.815000	-32.366470	1.322939	10.254615	13.622028	16.879317	13.175298	-1.607677	-25.849563	-8.255660	-0.900340	-4.013380	0.912534	-0.266113	0.316283	-1.000000	-1.000000	-1.000000	-1.000000	-1.000000	-1.000000	-1.000000	71.310345	0.000000	-1.000000	-1.000000	2405837.000000	1770066309.059774
-25130.610000	-25046.640000	-29366.190000	-14301.495000	-27882.585000	-15756.615000	-675.090000	-11659.860000	-12.166133	12.132352	15.583402	15.662884	17.801590	11.261491	-12.844656	-34.553290	-8.255660	-0.900340	-4.013380	0.912534	-0.266113	0.316283	-1.000000	-1.000000	-1.000000	-1.000000	-1.000000	-1.000000	-1.000000	71.310345	0.000000	-1.000000	-1.000000	2405838.000000	1770066309.059779
-25016.040000	-24964.380000	-29322.405000	-14261.985000	-27857.700000	-15746.310000	-699.255000	-11684.745000	20.442144	19.308166	13.348031	9.834366	10.661146	3.124098	-17.851942	-22.513598	-8.255660	-0.900340	-4.013380	0.912534	-0.266113	0.316283	-1.000000	-1.000000	-1.000000	-1.000000	-1.000000	-1.000000	-1.000000	71.310345	0.000000	-1.000000	-1.000000	2405839.000000	1770066309.061918
-24993.945000	-24943.365000	-29303.505000	-14286.870000	-27902.520000	-15714.675000	-663.345000	-11668.905000	41.521236	17.501429	4.876682	0.710562	0.608867	-7.031209	-18.063401	-5.064596	-8.255660	-0.900340	-4.013380	0.912534	-0.266113	0.316283	-1.000000	-1.000000	-1.000000	-1.000000	-1.000000	-1.000000	-1.000000	71.310345	0.000000	-1.000000	-1.000000	2405840.000000	1770066309.061929
-25014.870000	-24966.585000	-29351.475000	-14433.165000	-28048.590000	-15732.855000	-602.325000	-11644.965000	42.407793	9.638911	-3.805552	-7.810491	-9.178793	-12.443353	-12.728915	7.689288	-33.602520	0.244160	-8.347220	0.906309	-0.253906	0.323180	-1.000000	-1.000000	-1.000000	-1.000000	-1.000000	-1.000000	-1.000000	71.310345	0.000000	-1.000000	-1.000000	2405841.000000	1770066309.067725
-25015.365000	-24960.735000	-29362.770000	-14489.550000	-28049.220000	-15723.090000	-570.690000	-11649.330000	24.223218	-0.916912	-9.844052	-16.996683	-19.066558	-10.392638	-0.438882	14.197508	-33.602520	0.244160	-8.347220	0.906309	-0.253906	0.323180	-1.000000	-1.000000	-1.000000	-1.000000	-1.000000	-1.000000	-1.000000	71.310345	0.000000	-1.000000	-1.000000	2405842.000000	1770066309.067738
-25089.075000	-25003.845000	-29388.240000	-14490.495000	-28010.385000	-15740.415000	-619.605000	-11704.590000	-5.125311	-12.161524	-13.271626	-24.808377	-24.079998	-3.327246	14.557490	14.256535	-33.602520	0.244160	-8.347220	0.906309	-0.253906	0.323180	-1.000000	-1.000000	-1.000000	-1.000000	-1.000000	-1.000000	-1.000000	71.310345	0.000000	-1.000000	-1.000000	2405843.000000	1770066309.082423
-25121.880000	-25071.570000	-29442.780000	-14487.975000	-28006.605000	-15787.755000	-648.990000	-11717.730000	-31.395459	-21.718821	-13.794637	-22.483904	-15.415127	3.801895	23.150115	8.841276	-33.602520	0.244160	-8.347220	0.906309	-0.253906	0.323180	-1.000000	-1.000000	-1.000000	-1.000000	-1.000000	-1.000000	-1.000000	71.310345	0.000000	-1.000000	-1.000000	2405844.000000	1770066309.082434
-25099.740000	-25058.880000	-29433.780000	-14395.050000	-27946.890000	-15777.315000	-622.125000	-11658.375000	-42.389343	-26.414732	-10.726256	-3.642250	7.600666	6.687489	19.839286	2.947330	-33.602520	0.244160	-8.347220	0.906309	-0.253906	0.323180	-1.000000	-1.000000	-1.000000	-1.000000	-1.000000	-1.000000	-1.000000	71.310345	0.000000	-1.000000	-1.000000	2405845.000000	1770066309.082448
-25078.050000	-25041.060000	-29357.100000	-14207.535000	-27802.530000	-15703.065000	-624.420000	-11686.050000	-33.623466	-20.947355	-1.279320	30.659498	37.280404	7.125846	8.074904	0.161892	-33.602520	0.244160	-8.347220	0.906309	-0.253906	0.323180	-1.000000	-1.000000	-1.000000	-1.000000	-1.000000	-1.000000	-1.000000	71.310345	0.000000	-1.000000	-1.000000	2405846.000000	1770066309.082453
-25120.845000	-25027.380000	-29288.745000	-14109.165000	-27733.275000	-15660.090000	-606.060000	-11733.390000	-10.710639	-3.352055	16.942066	70.367615	63.403083	11.793115	-3.492250	-3.477164	-33.602520	0.244160	-8.347220	0.906309	-0.253906	0.323180	-1.000000	-1.000000	-1.000000	-1.000000	-1.000000	-1.000000	-1.000000	71.310345	0.000000	-1.000000	-1.000000	2405847.000000	1770066309.082458
-24960.015000	-24901.380000	-29235.330000	-14201.730000	-27845.640000	-15633.270000	-518.535000	-11637.855000	12.524780	18.714006	37.330799	92.174215	70.754245	20.893878	-7.610302	-10.922234	-33.602520	0.244160	-8.347220	0.906309	-0.253906	0.323180	-1.000000	-1.000000	-1.000000	-1.000000	-1.000000	-1.000000	-1.000000	71.310345	0.000000	-1.000000	-1.000000	2405848.000000	1770066309.082463
-24961.005000	-24892.380000	-29257.740000	-14392.080000	-28036.665000	-15649.740000	-500.490000	-11605.140000	26.825727	34.822757	45.547826	69.967776	43.372124	24.584150	-3.356742	-14.732667	-33.602520	0.244160	-8.347220	0.906309	-0.253906	0.323180	-1.000000	-1.000000	-1.000000	-1.000000	-1.000000	-1.000000	-1.000000	71.310345	0.000000	-1.000000	-1.000000	2405849.000000	1770066309.082469
-25026.930000	-24963.570000	-29338.830000	-14547.960000	-28158.840000	-15725.295000	-613.620000	-11634.660000	29.761885	37.413555	31.607563	1.627892	-16.522055	13.501636	0.681337	-8.481042	-33.602520	0.244160	-8.347220	0.906309	-0.253906	0.323180	-1.000000	-1.000000	-1.000000	-1.000000	-1.000000	-1.000000	-1.000000	71.310345	0.000000	-1.000000	-1.000000	2405850.000000	1770066309.082474
-25064.010000	-25021.440000	-29433.825000	-14603.985000	-28186.245000	-15848.190000	-778.140000	-11651.940000	19.294838	21.770711	-2.645832	-81.225101	-81.518123	-12.645693	-7.886021	2.588824	-39.096120	4.120200	-11.017720	0.905943	-0.250060	0.333861	-1.000000	-1.000000	-1.000000	-1.000000	-1.000000	-1.000000	-1.000000	71.310345	0.000000	-1.000000	-1.000000	2405851.000000	1770066309.086632
-25196.850000	-25056.810000	-29427.885000	-14466.870000	-28044.315000	-15803.955000	-681.030000	-11712.195000	-1.278718	-7.144062	-42.395784	-132.087843	-114.719256	-42.394863	-27.512707	10.000123	-39.096120	4.120200	-11.017720	0.905943	-0.250060	0.333861	-1.000000	-1.000000	-1.000000	-1.000000	-1.000000	-1.000000	-1.000000	71.310345	0.000000	-1.000000	-1.000000	2405852.000000	1770066309.086644
-25184.835000	-25057.305000	-29412.855000	-14367.510000	-27967.995000	-15761.970000	-557.145000	-11722.230000	-22.052239	-33.085281	-65.058707	-118.810461	-92.680560	-55.305766	-36.308161	9.982568	-39.096120	4.120200	-11.017720	0.905943	-0.250060	0.333861	-1.000000	-1.000000	-1.000000	-1.000000	-1.000000	-1.000000	-1.000000	71.310345	0.000000	-1.000000	-1.000000	2405853.000000	1770066309.091109
-24972.435000	-24960.015000	-29362.365000	-14378.535000	-28020.600000	-15730.245000	-451.980000	-11652.120000	-29.876708	-39.810039	-55.913695	-48.866783	-26.009168	-38.543594	-15.528179	3.956749	-39.096120	4.120200	-11.017720	0.905943	-0.250060	0.333861	-1.000000	-1.000000	-1.000000	-1.000000	-1.000000	-1.000000	-1.000000	71.310345	0.000000	-1.000000	-1.000000	2405854.000000	1770066309.091117
-25043.265000	-24964.290000	-29321.640000	-14396.130000	-27974.430000	-15672.600000	-531.450000	-11674.440000	-15.172839	-22.914574	-20.487295	32.133523	43.911920	-0.723238	25.595141	-2.244992	-39.096120	4.120200	-11.017720	0.905943	-0.250060	0.333861	-1.000000	-1.000000	-1.000000	-1.000000	-1.000000	-1.000000	-1.000000	71.310345	0.000000	-1.000000	-1.000000	2405855.000000	1770066309.093767
-25039.215000	-25001.370000	-29375.190000	-14448.510000	-27959.265000	-15713.190000	-746.370000	-11708.055000	11.895750	4.177517	18.981565	77.257456	80.162133	35.458757	53.354964	-4.680474	-39.096120	4.120200	-11.017720	0.905943	-0.250060	0.333861	-1.000000	-1.000000	-1.000000	-1.000000	-1.000000	-1.000000	-1.000000	71.310345	0.000000	-1.000000	-1.000000	2405856.000000	1770066309.093774
-25090.200000	-25046.505000	-29468.700000	-14529.510000	-28038.915000	-15777.315000	-708.435000	-11652.480000	26.043780	18.770685	38.184439	73.300088	76.292847	48.914504	39.863054	-5.285480	-39.096120	4.120200	-11.017720	0.905943	-0.250060	0.333861	-1.000000	-1.000000	-1.000000	-1.000000	-1.000000	-1.000000	-1.000000	71.310345	0.000000	-1.000000	-1.000000	2405857.000000	1770066309.097678
-25108.920000	-25062.120000	-29475.405000	-14495.040000	-28044.540000	-15773.445000	-617.625000	-11646.315000	15.020913	11.183235	29.278773	42.678470	49.540848	34.104797	-4.519363	-5.582587	-39.096120	4.120200	-11.017720	0.905943	-0.250060	0.333861	-1.000000	-1.000000	-1.000000	-1.000000	-1.000000	-1.000000	-1.000000	71.310345	0.000000	-1.000000	-1.000000	2405858.000000	1770066309.097688
-24888.105000	-24933.870000	-29388.015000	-14397.480000	-28000.305000	-15763.140000	-584.955000	-11608.110000	-5.841899	-4.316571	8.843130	19.061257	21.527253	6.422657	-38.493054	-2.964151	-39.096120	4.120200	-11.017720	0.905943	-0.250060	0.333861	-1.000000	-1.000000	-1.000000	-1.000000	-1.000000	-1.000000	-1.000000	71.310345	0.000000	-1.000000	-1.000000	2405859.000000	1770066309.109625
-24908.805000	-24871.725000	-29303.010000	-14382.495000	-28085.985000	-15741.000000	-553.455000	-11633.265000	-9.672659	-4.812222	1.808379	17.146057	1.111037	-11.758402	-32.807378	4.653572	-39.096120	4.120200	-11.017720	0.905943	-0.250060	0.333861	-1.000000	-1.000000	-1.000000	-1.000000	-1.000000	-1.000000	-1.000000	71.310345	0.000000	-1.000000	-1.000000	2405860.000000	1770066309.109637
-25051.770000	-24928.785000	-29334.015000	-14508.855000	-28218.465000	-15770.295000	-598.365000	-11717.415000	8.631714	14.702290	14.936134	20.158739	-20.473604	-12.298757	2.087041	13.328167	-14.939540	-3.616620	-6.241340	0.899534	-0.269103	0.361571	-1.000000	-1.000000	-1.000000	-1.000000	-1.000000	-1.000000	-1.000000	71.310345	0.000000	-1.000000	-1.000000	2405861.000000	1770066309.110320
-25127.100000	-25017.300000	-29410.425000	-14595.435000	-28192.095000	-15791.535000	-659.520000	-11694.420000	23.194058	33.360801	29.561245	1.336627	-50.015473	-5.269453	29.124831	14.456527	-14.939540	-3.616620	-6.241340	0.899534	-0.269103	0.361571	-1.000000	-1.000000	-1.000000	-1.000000	-1.000000	-1.000000	-1.000000	71.310345	0.000000	-1.000000	-1.000000	2405862.000000	1770066309.110332
-25135.605000	-25078.500000	-29436.795000	-14491.215000	-27963.495000	-15762.015000	-714.195000	-11676.870000	9.205641	26.509455	22.638361	-39.796991	-70.256660	-3.375095	22.288629	4.669427	-14.939540	-3.616620	-6.241340	0.899534	-0.269103	0.361571	-1.000000	-1.000000	-1.000000	-1.000000	-1.000000	-1.000000	-1.000000	71.310345	0.000000	-1.000000	-1.000000	2405863.000000	1770066309.110624
-25126.965000	-25025.355000	-29364.930000	-14251.095000	-27691.830000	-15695.010000	-700.020000	-11707.470000	-25.847131	-6.226647	-7.213337	-69.615271	-52.607854	-7.729128	-8.424217	-9.090724	-14.939540	-3.616620	-6.241340	0.899534	-0.269103	0.361571	-1.000000	-1.000000	-1.000000	-1.000000	-1.000000	-1.000000	-1.000000	71.310345	0.000000	-1.000000	-1.000000	2405864.000000	1770066309.110630
-25109.820000	-24981.975000	-29296.260000	-14026.320000	-27484.695000	-15627.690000	-679.680000	-11747.430000	-51.901344	-39.236479	-36.658427	-51.820313	9.386970	-8.909288	-30.374419	-18.207323	-14.939540	-3.616620	-6.241340	0.899534	-0.269103	0.361571	-1.000000	-1.000000	-1.000000	-1.000000	-1.000000	-1.000000	-1.000000	71.310345	0.000000	-1.000000	-1.000000	2405865.000000	1770066309.114087
-24990.030000	-24907.185000	-29208.015000	-13858.875000	-27366.255000	-15546.150000	-565.785000	-11665.485000	-46.171943	-45.884191	-39.912642	15.934022	88.151700	1.508681	-23.453178	-19.538531	-14.939540	-3.616620	-6.241340	0.899534	-0.269103	0.361571	-1.000000	-1.000000	-1.000000	-1.000000	-1.000000	-1.000000	-1.000000	71.310345	0.000000	-1.000000	-1.000000	2405866.000000	1770066309.114099
-25091.325000	-24975.720000	-29224.305000	-13896.225000	-27451.530000	-15540.660000	-521.955000	-11663.730000	-10.748263	-22.555910	-13.860105	92.470464	136.233297	20.283347	4.951896	-12.430035	-14.939540	-3.616620	-6.241340	0.899534	-0.269103	0.361571	-1.000000	-1.000000	-1.000000	-1.000000	-1.000000	-1.000000	-1.000000	71.310345	0.000000	-1.000000	-1.000000	2405867.000000	1770066309.119281
-25020.045000	-24963.075000	-29259.540000	-14038.875000	-27617.490000	-15626.205000	-626.355000	-11662.875000	28.285480	9.311185	17.998533	118.398986	113.054353	32.109761	32.106075	1.179653	-14.939540	-3.616620	-6.241340	0.899534	-0.269103	0.361571	-1.000000	-1.000000	-1.000000	-1.000000	-1.000000	-1.000000	-1.000000	71.310345	0.000000	-1.000000	-1.000000	2405868.000000	1770066309.119292
-25028.730000	-24970.320000	-29309.355000	-14175.090000	-27756.180000	-15695.190000	-693.090000	-11667.240000	47.608202	26.177460	27.897863	63.091404	17.015829	21.822472	36.493718	15.611902	-14.939540	-3.616620	-6.241340	0.899534	-0.269103	0.361571	-1.000000	-1.000000	-1.000000	-1.000000	-1.000000	-1.000000	-1.000000	71.310345	0.000000	-1.000000	-1.000000	2405869.000000	1770066309.121727
-25048.395000	-24995.070000	-29371.680000	-14299.110000	-27895.770000	-15739.470000	-684.180000	-11689.515000	46.833983	23.744162	9.358084	-46.218041	-105.277185	-10.018301	13.543420	25.176329	-14.939540	-3.616620	-6.241340	0.899534	-0.269103	0.361571	-1.000000	-1.000000	-1.000000	-1.000000	-1.000000	-1.000000	-1.000000	71.310345	0.000000	-1.000000	-1.000000	2405870.000000	1770066309.121733
-25039.620000	-24999.120000	-29427.840000	-14496.480000	-28142.100000	-15783.120000	-632.115000	-11649.690000	34.271998	12.522661	-21.080539	-146.906653	-193.735003	-45.472354	-18.366942	25.262513	28.719320	-12.131700	-13.703480	0.892759	-0.293212	0.369079	-1.000000	-1.000000	-1.000000	-1.000000	-1.000000	-1.000000	-1.000000	71.310345	0.000000	-1.000000	-1.000000	2405871.000000	1770066309.126817
-25009.020000	-24973.695000	-29449.350000	-14669.505000	-28311.840000	-15807.645000	-561.330000	-11615.580000	14.948003	3.193159	-42.182172	-191.468463	-217.598402	-64.519477	-33.290910	15.306775	28.719320	-12.131700	-13.703480	0.892759	-0.293212	0.369079	-1.000000	-1.000000	-1.000000	-1.000000	-1.000000	-1.000000	-1.000000	71.310345	0.000000	-1.000000	-1.000000	2405872.000000	1770066309.126830
-24987.690000	-24942.915000	-29430.720000	-14698.845000	-28262.430000	-15783.975000	-542.970000	-11628.180000	-5.728366	-0.633897	-42.992778	-170.222420	-178.021784	-58.079225	-20.115702	1.588253	28.719320	-12.131700	-13.703480	0.892759	-0.293212	0.369079	-1.000000	-1.000000	-1.000000	-1.000000	-1.000000	-1.000000	-1.000000	71.310345	0.000000	-1.000000	-1.000000	2405873.000000	1770066309.137501
-25035.390000	-24970.320000	-29416.050000	-14605.875000	-28030.905000	-15734.790000	-630.630000	-11709.495000	-23.187672	-2.289542	-24.562871	-96.040592	-84.082733	-28.657076	6.929505	-10.714277	28.719320	-12.131700	-13.703480	0.892759	-0.293212	0.369079	-1.000000	-1.000000	-1.000000	-1.000000	-1.000000	-1.000000	-1.000000	71.310345	0.000000	-1.000000	-1.000000	2405874.000000	1770066309.137515
-25081.920000	-25009.515000	-29393.055000	-14412.240000	-27803.655000	-15724.395000	-707.220000	-11716.695000	-36.461993	-6.698532	4.307978	12.079436	50.902175	12.382091	19.319840	-22.687878	28.719320	-12.131700	-13.703480	0.892759	-0.293212	0.369079	-1.000000	-1.000000	-1.000000	-1.000000	-1.000000	-1.000000	-1.000000	71.310345	0.000000	-1.000000	-1.000000	2405875.000000	1770066309.137530
-25016.535000	-24938.100000	-29280.420000	-14118.975000	-27575.730000	-15679.620000	-672.795000	-11668.590000	-42.855066	-12.806303	33.438236	131.025850	194.638278	49.572884	4.303427	-32.300303	28.719320	-12.131700	-13.703480	0.892759	-0.293212	0.369079	-1.000000	-1.000000	-1.000000	-1.000000	-1.000000	-1.000000	-1.000000	71.310345	0.000000	-1.000000	-1.000000	2405876.000000	1770066309.137535
-25002.135000	-24890.220000	-29178.090000	-13856.580000	-27373.365000	-15599.205000	-655.650000	-11681.055000	-36.000762	-12.991353	56.682283	232.003914	298.162779	72.459735	-19.519875	-30.712412	28.719320	-12.131700	-13.703480	0.892759	-0.293212	0.369079	-1.000000	-1.000000	-1.000000	-1.000000	-1.000000	-1.000000	-1.000000	71.310345	0.000000	-1.000000	-1.000000	2405877.000000	1770066309.137787
-25024.995000	-24924.240000	-29164.770000	-13795.515000	-27333.765000	-15554.070000	-653.445000	-11662.245000	-14.181769	-3.263965	69.302206	280.415713	317.223826	78.187143	-25.662151	-13.630743	28.719320	-12.131700	-13.703480	0.892759	-0.293212	0.369079	-1.000000	-1.000000	-1.000000	-1.000000	-1.000000	-1.000000	-1.000000	71.310345	0.000000	-1.000000	-1.000000	2405878.000000	1770066309.137799
-25055.010000	-24937.065000	-29187.450000	-13917.555000	-27465.165000	-15569.235000	-656.865000	-11694.555000	13.694905	10.301289	64.249101	244.785191	232.912454	65.526963	-9.075542	11.159071	28.719320	-12.131700	-13.703480	0.892759	-0.293212	0.369079	-1.000000	-1.000000	-1.000000	-1.000000	-1.000000	-1.000000	-1.000000	71.310345	0.000000	-1.000000	-1.000000	2405879.000000	1770066309.142662
-25059.870000	-24980.895000	-29273.490000	-14102.055000	-27650.655000	-15624.630000	-640.530000	-11678.850000	32.994209	17.413263	36.380704	119.296092	64.548106	33.247295	14.496831	28.834740	28.719320	-12.131700	-13.703480	0.892759	-0.293212	0.369079	-1.000000	-1.000000	-1.000000	-1.000000	-1.000000	-1.000000	-1.000000	71.310345	0.000000	-1.000000	-1.000000	2405880.000000	1770066309.142670
-25135.650000	-25017.390000	-29325.690000	-14206.815000	-27750.825000	-15653.655000	-621.135000	-11689.290000	33.451889	11.478640	-10.836826	-59.317380	-131.591020	-14.026012	27.821769	29.843656	3.509800	-28.719320	-18.342520	0.872129	-0.304015	0.365966	-1.000000	-1.000000	-1.000000	-1.000000	-1.000000	-1.000000	-1.000000	71.310345	0.000000	-1.000000	-1.000000	2405881.000000	1770066309.159324
-25081.560000	-24956.190000	-29302.830000	-14248.755000	-27831.645000	-15642.270000	-581.805000	-11659.995000	16.502204	-4.812976	-61.560645	-223.017111	-285.194896	-61.657894	25.974626	17.890038	3.509800	-28.719320	-18.342520	0.872129	-0.304015	0.365966	-1.000000	-1.000000	-1.000000	-1.000000	-1.000000	-1.000000	-1.000000	71.310345	0.000000	-1.000000	-1.000000	2405882.000000	1770066309.159339
-24955.830000	-24875.685000	-29271.870000	-14298.345000	-27949.905000	-15632.415000	-528.615000	-11649.870000	-2.368299	-17.694397	-92.088528	-308.423473	-345.967759	-90.281791	16.388526	4.657653	3.509800	-28.719320	-18.342520	0.872129	-0.304015	0.365966	-1.000000	-1.000000	-1.000000	-1.000000	-1.000000	-1.000000	-1.000000	71.310345	0.000000	-1.000000	-1.000000	2405883.000000	1770066309.159352
-25076.880000	-24933.330000	-29312.370000	-14377.770000	-27958.860000	-15667.965000	-599.760000	-11731.140000	-7.342715	-14.963992	-87.396052	-291.137263	-302.369582	-87.795041	7.364693	-3.436835	3.509800	-28.719320	-18.342520	0.872129	-0.304015	0.365966	-1.000000	-1.000000	-1.000000	-1.000000	-1.000000	-1.000000	-1.000000	71.310345	0.000000	-1.000000	-1.000000	2405884.000000	1770066309.159357
-25193.205000	-25061.220000	-29420.595000	-14446.485000	-27904.635000	-15721.380000	-685.305000	-11722.095000	-3.711195	-3.475172	-55.378460	-193.187345	-175.951974	-57.821044	-2.282545	-9.554605	3.509800	-28.719320	-18.342520	0.872129	-0.304015	0.365966	-1.000000	-1.000000	-1.000000	-1.000000	-1.000000	-1.000000	-1.000000	71.310345	0.000000	-1.000000	-1.000000	2405885.000000	1770066309.159364
-25096.140000	-25031.880000	-29395.620000	-14345.730000	-27798.615000	-15704.595000	-680.130000	-11653.695000	-5.998954	0.078738	-17.597127	-59.451943	-8.440500	-16.169573	-16.578072	-14.720072	3.509800	-28.719320	-18.342520	0.872129	-0.304015	0.365966	-1.000000	-1.000000	-1.000000	-1.000000	-1.000000	-1.000000	-1.000000	71.310345	0.000000	-1.000000	-1.000000	2405886.000000	1770066309.159369
-25018.335000	-24979.185000	-29327.805000	-14174.055000	-27675.270000	-15661.530000	-659.880000	-11670.795000	-10.121674	-4.787528	14.519207	74.046735	151.429320	22.137474	-29.952583	-13.256552	3.509800	-28.719320	-18.342520	0.872129	-0.304015	0.365966	-1.000000	-1.000000	-1.000000	-1.000000	-1.000000	-1.000000	-1.000000	71.310345	0.000000	-1.000000	-1.000000	2405887.000000	1770066309.159374
-24958.845000	-24934.230000	-29250.495000	-13995.630000	-27509.445000	-15595.245000	-632.835000	-11668.005000	-2.235425	-3.517114	44.244815	188.084144	263.562678	50.922120	-31.545373	-4.151039	3.509800	-28.719320	-18.342520	0.872129	-0.304015	0.365966	-1.000000	-1.000000	-1.000000	-1.000000	-1.000000	-1.000000	-1.000000	71.310345	0.000000	-1.000000	-1.000000	2405888.000000	1770066309.159379
-24901.740000	-24831.945000	-29172.240000	-13920.840000	-27401.580000	-15507.585000	-582.480000	-11643.255000	17.715532	11.844725	73.417887	263.850489	304.370191	69.522980	-17.785502	5.976741	3.509800	-28.719320	-18.342520	0.872129	-0.304015	0.365966	-1.000000	-1.000000	-1.000000	-1.000000	-1.000000	-1.000000	-1.000000	71.310345	0.000000	-1.000000	-1.000000	2405889.000000	1770066309.165324
-24964.380000	-24845.895000	-29209.725000	-14016.555000	-27482.265000	-15518.610000	-578.340000	-11701.890000	35.091511	33.431731	91.379280	272.510891	262.728429	74.971557	4.359961	10.480564	3.509800	-28.719320	-18.342520	0.872129	-0.304015	0.365966	-1.000000	-1.000000	-1.000000	-1.000000	-1.000000	-1.000000	-1.000000	71.310345	0.000000	-1.000000	-1.000000	2405890.000000	1770066309.165337
-25077.240000	-24970.770000	-29314.350000	-14147.865000	-27607.770000	-15592.590000	-598.365000	-11725.155000	31.041691	41.185132	79.418694	191.860907	141.749651	59.086289	22.180059	6.200036	17.030160	-4.303320	-13.718740	0.880369	-0.260070	0.316161	-1.000000	-1.000000	-1.000000	-1.000000	-1.000000	-1.000000	-1.000000	71.310345	0.000000	-1.000000	-1.000000	2405891.000000	1770066309.165826
-25094.475000	-25004.880000	-29346.660000	-14180.580000	-27639.045000	-15613.785000	-594.810000	-11663.145000	-1.609598	19.337504	29.836604	38.086943	-26.060810	18.661685	26.044725	-3.387879	17.030160	-4.303320	-13.718740	0.880369	-0.260070	0.316161	-1.000000	-1.000000	-1.000000	-1.000000	-1.000000	-1.000000	-1.000000	71.310345	0.000000	-1.000000	-1.000000	2405892.000000	1770066309.165832
-25150.410000	-24982.605000	-29308.500000	-14148.180000	-27608.265000	-15589.035000	-599.220000	-11776.050000	-44.274498	-21.784337	-36.881940	-126.290257	-178.735394	-31.356209	17.716512	-9.700807	17.030160	-4.303320	-13.718740	0.880369	-0.260070	0.316161	-1.000000	-1.000000	-1.000000	-1.000000	-1.000000	-1.000000	-1.000000	71.310345	0.000000	-1.000000	-1.000000	2405893.000000	1770066309.173910
-25297.875000	-25057.980000	-29345.580000	-14184.360000	-27645.930000	-15622.470000	-647.955000	-11851.920000	-68.230994	-52.470694	-83.826201	-229.181642	-257.746129	-65.463571	6.574269	-11.213851	17.030160	-4.303320	-13.718740	0.880369	-0.260070	0.316161	-1.000000	-1.000000	-1.000000	-1.000000	-1.000000	-1.000000	-1.000000	71.310345	0.000000	-1.000000	-1.000000	2405894.000000	1770066309.173916
-25093.530000	-24999.975000	-29355.345000	-14236.290000	-27722.070000	-15672.015000	-646.920000	-11659.230000	-60.478895	-53.772559	-89.535380	-237.525515	-243.529228	-70.395530	-1.952567	-10.906263	17.030160	-4.303320	-13.718740	0.880369	-0.260070	0.316161	-1.000000	-1.000000	-1.000000	-1.000000	-1.000000	-1.000000	-1.000000	71.310345	0.000000	-1.000000	-1.000000	2405895.000000	1770066309.174120
-24938.640000	-24934.725000	-29324.205000	-14209.470000	-27725.355000	-15672.105000	-643.365000	-11573.370000	-22.752120	-28.348455	-60.287438	-168.293950	-158.508188	-52.217081	-8.100423	-2.619178	17.030160	-4.303320	-13.718740	0.880369	-0.260070	0.316161	-1.000000	-1.000000	-1.000000	-1.000000	-1.000000	-1.000000	-1.000000	71.310345	0.000000	-1.000000	-1.000000	2405896.000000	1770066309.174129
-25016.940000	-24940.890000	-29299.545000	-14177.205000	-27700.740000	-15642.045000	-612.630000	-11633.670000	30.433997	8.095810	-16.325577	-62.370901	-44.159611	-23.984336	-12.141908	16.733901	17.030160	-4.303320	-13.718740	0.880369	-0.260070	0.316161	-1.000000	-1.000000	-1.000000	-1.000000	-1.000000	-1.000000	-1.000000	71.310345	0.000000	-1.000000	-1.000000	2405897.000000	1770066309.177845
-25059.735000	-24948.765000	-29294.685000	-14178.105000	-27691.650000	-15627.645000	-615.330000	-11638.260000	69.243022	35.179363	22.791347	40.853683	60.401837	4.126899	-13.203223	32.831221	17.030160	-4.303320	-13.718740	0.880369	-0.260070	0.316161	-1.000000	-1.000000	-1.000000	-1.000000	-1.000000	-1.000000	-1.000000	71.310345	0.000000	-1.000000	-1.000000	2405898.000000	1770066309.177857
-24921.630000	-24895.530000	-29259.090000	-14151.330000	-27662.175000	-15602.130000	-612.585000	-11613.645000	73.156266	41.077090	45.944759	114.354564	129.984600	26.488925	-10.837553	31.475242	17.030160	-4.303320	-13.718740	0.880369	-0.260070	0.316161	-1.000000	-1.000000	-1.000000	-1.000000	-1.000000	-1.000000	-1.000000	71.310345	0.000000	-1.000000	-1.000000	2405899.000000	1770066309.181724
-24954.030000	-24901.470000	-29261.565000	-14163.885000	-27666.675000	-15593.175000	-588.825000	-11677.455000	50.061756	31.232413	52.426344	145.586701	155.961869	41.193577	-5.028530	13.558250	17.030160	-4.303320	-13.718740	0.880369	-0.260070	0.316161	-1.000000	-1.000000	-1.000000	-1.000000	-1.000000	-1.000000	-1.000000	71.310345	0.000000	-1.000000	-1.000000	2405900.000000	1770066309.181734
-25050.195000	-24993.225000	-29328.930000	-14234.985000	-27732.555000	-15652.845000	-621.495000	-11690.865000	17.025362	16.019438	44.551511	131.644497	138.667826	45.842191	3.176886	-11.799877	-4.654300	13.367760	34.945400	0.924314	-0.215759	0.270263	-1.000000	-1.000000	-1.000000	-1.000000	-1.000000	-1.000000	-1.000000	71.310345	0.000000	-1.000000	-1.000000	2405901.000000	1770066309.187146
-25048.125000	-25018.200000	-29354.670000	-14268.285000	-27762.795000	-15682.365000	-615.870000	-11615.445000	-15.105769	-1.121752	23.002108	77.983615	83.389765	36.124885	10.919958	-30.663010	-4.654300	13.367760	34.945400	0.924314	-0.215759	0.270263	-1.000000	-1.000000	-1.000000	-1.000000	-1.000000	-1.000000	-1.000000	71.310345	0.000000	-1.000000	-1.000000	2405902.000000	1770066309.187153
-25054.470000	-24983.955000	-29336.670000	-14260.950000	-27760.635000	-15678.720000	-586.215000	-11654.055000	-37.243448	-16.833682	-5.933172	4.881010	8.423196	13.715796	15.958046	-31.070931	-4.654300	13.367760	34.945400	0.924314	-0.215759	0.270263	-1.000000	-1.000000	-1.000000	-1.000000	-1.000000	-1.000000	-1.000000	71.310345	0.000000	-1.000000	-1.000000	2405903.000000	1770066309.192268
-25042.545000	-24944.715000	-29320.065000	-14242.770000	-27763.695000	-15671.475000	-598.590000	-11708.775000	-46.943382	-24.486787	-28.781478	-56.567797	-55.569060	-10.069839	17.141681	-19.575132	-4.654300	13.367760	34.945400	0.924314	-0.215759	0.270263	-1.000000	-1.000000	-1.000000	-1.000000	-1.000000	-1.000000	-1.000000	71.310345	0.000000	-1.000000	-1.000000	2405904.000000	1770066309.192279
-25059.870000	-24971.895000	-29329.920000	-14248.170000	-27782.460000	-15687.855000	-713.565000	-11752.470000	-49.746554	-22.474754	-36.313530	-83.725487	-85.058236	-24.274684	10.748185	-13.455588	-4.654300	13.367760	34.945400	0.924314	-0.215759	0.270263	-1.000000	-1.000000	-1.000000	-1.000000	-1.000000	-1.000000	-1.000000	71.310345	0.000000	-1.000000	-1.000000	2405905.000000	1770066309.195990
-25082.145000	-24967.350000	-29308.095000	-14231.970000	-27761.445000	-15656.490000	-672.300000	-11721.240000	-45.475024	-15.422357	-29.673415	-74.479331	-77.798400	-26.752370	-5.881810	-15.224254	-4.654300	13.367760	34.945400	0.924314	-0.215759	0.270263	-1.000000	-1.000000	-1.000000	-1.000000	-1.000000	-1.000000	-1.000000	71.310345	0.000000	-1.000000	-1.000000	2405906.000000	1770066309.196000
-25047.360000	-24929.190000	-29269.890000	-14193.900000	-27695.160000	-15597.405000	-622.980000	-11715.165000	-27.958048	-7.068510	-14.609992	-40.853606	-45.868860	-20.072148	-24.095738	-12.340987	-4.654300	13.367760	34.945400	0.924314	-0.215759	0.270263	-1.000000	-1.000000	-1.000000	-1.000000	-1.000000	-1.000000	-1.000000	71.310345	0.000000	-1.000000	-1.000000	2405907.000000	1770066309.201996
-25037.235000	-24970.185000	-29320.830000	-14242.680000	-27698.805000	-15640.650000	-657.720000	-11738.385000	1.193824	1.459679	2.617100	0.185490	-4.623276	-7.553767	-29.480358	2.308568	-4.654300	13.367760	34.945400	0.924314	-0.215759	0.270263	-1.000000	-1.000000	-1.000000	-1.000000	-1.000000	-1.000000	-1.000000	71.310345	0.000000	-1.000000	-1.000000	2405908.000000	1770066309.202007
-25052.895000	-24987.690000	-29353.005000	-14279.760000	-27736.245000	-15671.610000	-649.845000	-11678.175000	31.010670	8.528859	14.735058	30.869203	29.609991	4.531405	-18.530563	23.272909	-4.654300	13.367760	34.945400	0.924314	-0.215759	0.270263	-1.000000	-1.000000	-1.000000	-1.000000	-1.000000	-1.000000	-1.000000	71.310345	0.000000	-1.000000	-1.000000	2405909.000000	1770066309.202296
-25096.995000	-25006.095000	-29371.140000	-14293.845000	-27818.775000	-15709.005000	-656.955000	-11685.690000	50.744772	13.157825	17.519971	40.341247	42.683723	10.022671	0.857422	40.667171	-4.654300	13.367760	34.945400	0.924314	-0.215759	0.270263	-1.000000	-1.000000	-1.000000	-1.000000	-1.000000	-1.000000	-1.000000	71.310345	0.000000	-1.000000	-1.000000	2405910.000000	1770066309.202308
-25105.005000	-24990.165000	-29333.835000	-14222.340000	-27776.655000	-15683.940000	-655.920000	-11743.740000	54.145409	15.932144	13.702922	31.544196	31.455533	8.794120	18.633152	44.364203	-52.631740	8.927100	24.934840	0.917417	-0.220825	0.302245	-1.000000	-1.000000	-1.000000	-1.000000	-1.000000	-1.000000	-1.000000	71.310345	0.000000	-1.000000	-1.000000	2405911.000000	1770066309.208145
-25079.715000	-24967.350000	-29292.120000	-14154.165000	-27691.200000	-15638.805000	-635.580000	-11722.230000	39.540017	15.745786	9.145093	16.884124	8.753750	5.923912	27.007272	28.556111	-52.631740	8.927100	24.934840	0.917417	-0.220825	0.302245	-1.000000	-1.000000	-1.000000	-1.000000	-1.000000	-1.000000	-1.000000	71.310345	0.000000	-1.000000	-1.000000	2405912.000000	1770066309.208158
-25008.300000	-24954.705000	-29296.260000	-14162.535000	-27692.370000	-15644.700000	-638.145000	-11670.120000	12.501193	10.222806	6.532832	5.918733	-7.087611	5.622938	24.204158	1.186967	-52.631740	8.927100	24.934840	0.917417	-0.220825	0.302245	-1.000000	-1.000000	-1.000000	-1.000000	-1.000000	-1.000000	-1.000000	71.310345	0.000000	-1.000000	-1.000000	2405913.000000	1770066309.212083
-25100.145000	-25013.880000	-29344.320000	-14209.380000	-27738.855000	-15676.020000	-645.840000	-11642.130000	-14.894850	-0.369587	3.236781	-2.059267	-10.156852	6.064259	14.751118	-20.032430	-52.631740	8.927100	24.934840	0.917417	-0.220825	0.302245	-1.000000	-1.000000	-1.000000	-1.000000	-1.000000	-1.000000	-1.000000	71.310345	0.000000	-1.000000	-1.000000	2405914.000000	1770066309.212094
-25063.560000	-25009.965000	-29352.555000	-14229.090000	-27761.175000	-15688.665000	-646.290000	-11619.630000	-32.105358	-12.753808	-4.627232	-12.267978	-8.913168	1.605810	2.947915	-24.692399	-52.631740	8.927100	24.934840	0.917417	-0.220825	0.302245	-1.000000	-1.000000	-1.000000	-1.000000	-1.000000	-1.000000	-1.000000	71.310345	0.000000	-1.000000	-1.000000	2405915.000000	1770066309.213869
-24984.360000	-24955.560000	-29316.465000	-14211.270000	-27759.780000	-15672.465000	-632.655000	-11616.750000	-34.465661	-21.162176	-15.020593	-23.881161	-11.795434	-8.766073	-9.422863	-16.498563	-52.631740	8.927100	24.934840	0.917417	-0.220825	0.302245	-1.000000	-1.000000	-1.000000	-1.000000	-1.000000	-1.000000	-1.000000	71.310345	0.000000	-1.000000	-1.000000	2405916.000000	1770066309.213880
-25014.015000	-24952.545000	-29308.590000	-14206.590000	-27762.615000	-15669.630000	-629.550000	-11637.495000	-22.788493	-18.650399	-19.037699	-28.448087	-17.054642	-17.455946	-18.689428	-5.752234	-52.631740	8.927100	24.934840	0.917417	-0.220825	0.302245	-1.000000	-1.000000	-1.000000	-1.000000	-1.000000	-1.000000	-1.000000	71.310345	0.000000	-1.000000	-1.000000	2405917.000000	1770066309.217877
-25031.565000	-24949.440000	-29302.650000	-14201.010000	-27755.595000	-15673.860000	-643.050000	-11679.255000	-4.053315	-3.906855	-10.323048	-19.126636	-16.117238	-15.440371	-20.347409	-1.550221	-52.631740	8.927100	24.934840	0.917417	-0.220825	0.302245	-1.000000	-1.000000	-1.000000	-1.000000	-1.000000	-1.000000	-1.000000	71.310345	0.000000	-1.000000	-1.000000	2405918.000000	1770066309.217884
-25083.180000	-24936.660000	-29272.815000	-14166.765000	-27718.380000	-15643.845000	-629.190000	-11735.505000	11.683373	15.122916	7.062038	0.708499	-3.645581	-1.819904	-14.017749	-7.039627	-52.631740	8.927100	24.934840	0.917417	-0.220825	0.302245	-1.000000	-1.000000	-1.000000	-1.000000	-1.000000	-1.000000	-1.000000	71.310345	0.000000	-1.000000	-1.000000	2405919.000000	1770066309.221878
-25089.615000	-24917.670000	-29244.105000	-14134.905000	-27681.930000	-15611.940000	-617.130000	-11763.270000	16.622690	26.845722	21.857239	19.161362	15.337899	15.302543	-3.492918	-17.061285	-52.631740	8.927100	24.934840	0.917417	-0.220825	0.302245	-1.000000	-1.000000	-1.000000	-1.000000	-1.000000	-1.000000	-1.000000	71.310345	0.000000	-1.000000	-1.000000	2405920.000000	1770066309.221889
-25036.470000	-24921.765000	-29257.065000	-14152.950000	-27689.355000	-15625.665000	-624.510000	-11716.605000	9.183109	23.611139	24.053939	24.717366	27.887646	24.790974	5.894198	-22.038082	-22.828960	14.695380	13.428800	0.911314	-0.256713	0.277648	-1.000000	-1.000000	-1.000000	-1.000000	-1.000000	-1.000000	-1.000000	71.310345	0.000000	-1.000000	-1.000000	2405921.000000	1770066309.225914
-25040.205000	-24950.925000	-29267.595000	-14156.820000	-27675.180000	-15615.810000	-620.280000	-11684.925000	-3.910184	6.614237	11.873442	14.999833	25.144295	20.517620	10.490154	-15.202441	-22.828960	14.695380	13.428800	0.911314	-0.256713	0.277648	-1.000000	-1.000000	-1.000000	-1.000000	-1.000000	-1.000000	-1.000000	71.310345	0.000000	-1.000000	-1.000000	2405922.000000	1770066309.225925
-25097.220000	-24944.895000	-29241.495000	-14126.265000	-27643.230000	-15592.005000	-613.440000	-11723.895000	-12.611741	-14.071489	-6.363886	-0.948205	11.061462	6.335195	10.144165	1.467943	-22.828960	14.695380	13.428800	0.911314	-0.256713	0.277648	-1.000000	-1.000000	-1.000000	-1.000000	-1.000000	-1.000000	-1.000000	71.310345	0.000000	-1.000000	-1.000000	2405923.000000	1770066309.231785
-25019.505000	-24934.905000	-29274.795000	-14178.555000	-27707.355000	-15645.690000	-644.220000	-11721.105000	-12.431233	-26.825735	-19.642710	-11.737031	-4.487086	-9.153950	5.842854	17.825520	-22.828960	14.695380	13.428800	0.911314	-0.256713	0.277648	-1.000000	-1.000000	-1.000000	-1.000000	-1.000000	-1.000000	-1.000000	71.310345	0.000000	-1.000000	-1.000000	2405924.000000	1770066309.231795
-24950.520000	-24914.115000	-29292.075000	-14215.500000	-27762.480000	-15679.845000	-650.790000	-11690.550000	-4.794179	-26.609662	-23.758336	-14.624326	-17.157850	-21.033783	-1.531033	25.691327	-22.828960	14.695380	13.428800	0.911314	-0.256713	0.277648	-1.000000	-1.000000	-1.000000	-1.000000	-1.000000	-1.000000	-1.000000	71.310345	0.000000	-1.000000	-1.000000	2405925.000000	1770066309.235335
-25050.465000	-24937.695000	-29297.430000	-14225.805000	-27779.985000	-15686.235000	-643.410000	-11711.340000	6.442332	-15.690627	-20.319820	-13.137507	-26.292562	-26.974194	-8.753427	24.948754	-22.828960	14.695380	13.428800	0.911314	-0.256713	0.277648	-1.000000	-1.000000	-1.000000	-1.000000	-1.000000	-1.000000	-1.000000	71.310345	0.000000	-1.000000	-1.000000	2405926.000000	1770066309.235345
-25051.095000	-24984.045000	-29318.805000	-14237.910000	-27783.990000	-15692.040000	-639.990000	-11678.490000	14.687925	-1.068384	-11.753471	-9.394091	-28.436199	-23.971122	-10.878261	19.394990	-22.828960	14.695380	13.428800	0.911314	-0.256713	0.277648	-1.000000	-1.000000	-1.000000	-1.000000	-1.000000	-1.000000	-1.000000	71.310345	0.000000	-1.000000	-1.000000	2405927.000000	1770066309.243051
-25046.370000	-24983.505000	-29314.620000	-14232.015000	-27765.720000	-15688.350000	-650.520000	-11702.745000	15.501422	8.955722	-1.651766	-4.489444	-20.678402	-12.224965	-6.442382	12.912317	-22.828960	14.695380	13.428800	0.911314	-0.256713	0.277648	-1.000000	-1.000000	-1.000000	-1.000000	-1.000000	-1.000000	-1.000000	71.310345	0.000000	-1.000000	-1.000000	2405928.000000	1770066309.243063
-25104.915000	-24977.565000	-29283.390000	-14197.095000	-27713.250000	-15652.800000	-653.220000	-11769.345000	9.133748	10.622588	6.298911	0.257632	-5.235299	3.086875	0.660641	5.611489	-22.828960	14.695380	13.428800	0.911314	-0.256713	0.277648	-1.000000	-1.000000	-1.000000	-1.000000	-1.000000	-1.000000	-1.000000	71.310345	0.000000	-1.000000	-1.000000	2405929.000000	1770066309.244691
-25174.665000	-25024.860000	-29292.480000	-14195.205000	-27715.680000	-15645.600000	-655.065000	-11759.130000	-4.584360	6.413732	11.511444	5.402709	12.524964	16.496348	5.866922	-6.475080	-22.828960	14.695380	13.428800	0.911314	-0.256713	0.277648	-1.000000	-1.000000	-1.000000	-1.000000	-1.000000	-1.000000	-1.000000	71.310345	0.000000	-1.000000	-1.000000	2405930.000000	1770066309.244700
-25162.830000	-24979.050000	-29266.245000	-14185.440000	-27732.105000	-15642.180000	-639.135000	-11746.755000	-21.654995	1.986403	15.109870	11.618799	25.799583	24.292509	7.871234	-21.940860	10.514140	20.585740	9.445940	0.948545	-0.329589	0.268005	-1.000000	-1.000000	-1.000000	-1.000000	-1.000000	-1.000000	-1.000000	71.310345	0.000000	-1.000000	-1.000000	2405931.000000	1770066309.245994
-25150.995000	-24935.220000	-29259.225000	-14178.420000	-27735.795000	-15635.565000	-620.865000	-11774.565000	-29.709725	2.939904	16.984059	16.777587	28.459661	24.015797	7.774600	-31.399310	10.514140	20.585740	9.445940	0.948545	-0.329589	0.268005	-1.000000	-1.000000	-1.000000	-1.000000	-1.000000	-1.000000	-1.000000	71.310345	0.000000	-1.000000	-1.000000	2405932.000000	1770066309.245999
-25063.965000	-24912.180000	-29267.190000	-14188.860000	-27736.695000	-15650.595000	-625.230000	-11723.130000	-20.723393	9.837841	15.819419	18.116457	20.793216	16.552958	7.007696	-27.486753	10.514140	20.585740	9.445940	0.948545	-0.329589	0.268005	-1.000000	-1.000000	-1.000000	-1.000000	-1.000000	-1.000000	-1.000000	71.310345	0.000000	-1.000000	-1.000000	2405933.000000	1770066309.249887
-25013.700000	-24945.480000	-29299.005000	-14217.255000	-27777.330000	-15701.310000	-658.035000	-11709.225000	1.546169	16.192669	10.404622	14.543067	9.159454	5.512853	5.295633	-10.935598	10.514140	20.585740	9.445940	0.948545	-0.329589	0.268005	-1.000000	-1.000000	-1.000000	-1.000000	-1.000000	-1.000000	-1.000000	71.310345	0.000000	-1.000000	-1.000000	2405934.000000	1770066309.249893
-24966.315000	-24997.995000	-29340.450000	-14253.570000	-27818.955000	-15736.140000	-654.480000	-11561.940000	28.520237	14.441292	0.590012	5.821823	-1.796157	-6.436665	0.966161	12.470914	10.514140	20.585740	9.445940	0.948545	-0.329589	0.268005	-1.000000	-1.000000	-1.000000	-1.000000	-1.000000	-1.000000	-1.000000	71.310345	0.000000	-1.000000	-1.000000	2405935.000000	1770066309.256487
-25004.745000	-25028.730000	-29340.315000	-14264.595000	-27829.215000	-15738.210000	-659.250000	-11573.235000	48.859860	3.022920	-11.268358	-6.881846	-11.456663	-16.962178	-5.339860	35.040657	10.514140	20.585740	9.445940	0.948545	-0.329589	0.268005	-1.000000	-1.000000	-1.000000	-1.000000	-1.000000	-1.000000	-1.000000	71.310345	0.000000	-1.000000	-1.000000	2405936.000000	1770066309.256497
-24997.455000	-24971.535000	-29319.390000	-14255.145000	-27818.955000	-15718.545000	-656.055000	-11610.765000	49.657942	-11.809526	-19.984470	-19.411625	-19.173632	-22.254631	-10.086070	46.073968	10.514140	20.585740	9.445940	0.948545	-0.329589	0.268005	-1.000000	-1.000000	-1.000000	-1.000000	-1.000000	-1.000000	-1.000000	71.310345	0.000000	-1.000000	-1.000000	2405937.000000	1770066309.257913
-25058.790000	-24987.105000	-29336.580000	-14242.635000	-27787.365000	-15696.630000	-656.730000	-11674.395000	26.873561	-20.297602	-21.049177	-25.835415	-22.136933	-19.216905	-10.313633	35.762702	10.514140	20.585740	9.445940	0.948545	-0.329589	0.268005	-1.000000	-1.000000	-1.000000	-1.000000	-1.000000	-1.000000	-1.000000	71.310345	0.000000	-1.000000	-1.000000	2405938.000000	1770066309.257919
-25030.395000	-24988.095000	-29320.965000	-14225.355000	-27762.120000	-15689.745000	-658.980000	-11698.830000	-8.669998	-17.308892	-14.059335	-21.877172	-16.729809	-8.414158	-6.034174	4.591178	10.514140	20.585740	9.445940	0.948545	-0.329589	0.268005	-1.000000	-1.000000	-1.000000	-1.000000	-1.000000	-1.000000	-1.000000	71.310345	0.000000	-1.000000	-1.000000	2405939.000000	1770066309.261872
-25067.205000	-24930.765000	-29239.335000	-14149.755000	-27694.620000	-15633.270000	-618.570000	-11730.105000	-38.887208	-6.017880	-1.378547	-7.488159	-1.935547	6.042716	0.291948	-33.503952	10.514140	20.585740	9.445940	0.948545	-0.329589	0.268005	-1.000000	-1.000000	-1.000000	-1.000000	-1.000000	-1.000000	-1.000000	71.310345	0.000000	-1.000000	-1.000000	2405940.000000	1770066309.261878
-25043.940000	-24868.530000	-29189.835000	-14108.085000	-27657.450000	-15598.890000	-597.780000	-11737.845000	-52.043575	6.730735	14.176858	12.967104	17.999441	19.387109	6.339822	-58.748851	29.131340	25.774140	-11.429740	0.951108	-0.334228	0.257446	-1.000000	-1.000000	-1.000000	-1.000000	-1.000000	-1.000000	-1.000000	71.310345	0.000000	-1.000000	-1.000000	2405941.000000	1770066309.265945
-25013.115000	-24908.040000	-29260.305000	-14190.750000	-27717.165000	-15656.850000	-635.985000	-11716.785000	-47.770418	14.986472	26.955250	30.239648	33.381524	26.970041	10.313409	-58.519298	29.131340	25.774140	-11.429740	0.951108	-0.334228	0.257446	-1.000000	-1.000000	-1.000000	-1.000000	-1.000000	-1.000000	-1.000000	71.310345	0.000000	-1.000000	-1.000000	2405942.000000	1770066309.265956
-25019.055000	-24980.175000	-29346.390000	-14283.315000	-27788.895000	-15721.155000	-665.190000	-11644.515000	-31.037108	14.309124	27.446396	32.041316	33.072176	23.578627	9.590469	-33.946437	29.131340	25.774140	-11.429740	0.951108	-0.334228	0.257446	-1.000000	-1.000000	-1.000000	-1.000000	-1.000000	-1.000000	-1.000000	71.310345	0.000000	-1.000000	-1.000000	2405943.000000	1770066309.271994
-25017.255000	-24992.595000	-29351.520000	-14293.305000	-27811.260000	-15731.955000	-667.080000	-11617.785000	-7.951823	4.687715	11.444527	13.780970	13.890895	8.019318	3.095271	2.451825	29.131340	25.774140	-11.429740	0.951108	-0.334228	0.257446	-1.000000	-1.000000	-1.000000	-1.000000	-1.000000	-1.000000	-1.000000	71.310345	0.000000	-1.000000	-1.000000	2405944.000000	1770066309.272004
-25039.125000	-24984.180000	-29322.450000	-14271.705000	-27858.465000	-15736.005000	-665.730000	-11637.270000	14.444627	-7.517738	-12.070194	-13.494707	-15.051175	-12.745197	-5.761112	34.071785	29.131340	25.774140	-11.429740	0.951108	-0.334228	0.257446	-1.000000	-1.000000	-1.000000	-1.000000	-1.000000	-1.000000	-1.000000	71.310345	0.000000	-1.000000	-1.000000	2405945.000000	1770066309.273800
-25072.065000	-24978.195000	-29284.425000	-14209.155000	-27823.320000	-15697.800000	-649.710000	-11672.595000	29.405839	-15.112541	-27.771785	-31.434345	-39.027428	-27.850085	-11.211859	49.245944	29.131340	25.774140	-11.429740	0.951108	-0.334228	0.257446	-1.000000	-1.000000	-1.000000	-1.000000	-1.000000	-1.000000	-1.000000	71.310345	0.000000	-1.000000	-1.000000	2405946.000000	1770066309.273806
-25038.090000	-24952.545000	-29255.445000	-14180.265000	-27746.190000	-15653.610000	-622.170000	-11679.840000	33.710636	-14.446480	-26.179646	-28.969125	-45.072699	-29.207981	-9.432314	45.321691	29.131340	25.774140	-11.429740	0.951108	-0.334228	0.257446	-1.000000	-1.000000	-1.000000	-1.000000	-1.000000	-1.000000	-1.000000	71.310345	0.000000	-1.000000	-1.000000	2405947.000000	1770066309.279731
-25056.765000	-24962.265000	-29253.780000	-14200.155000	-27730.710000	-15647.580000	-619.020000	-11692.755000	29.110773	-6.123038	-10.225910	-10.311999	-28.586778	-16.319279	-1.470817	27.249056	29.131340	25.774140	-11.429740	0.951108	-0.334228	0.257446	-1.000000	-1.000000	-1.000000	-1.000000	-1.000000	-1.000000	-1.000000	71.310345	0.000000	-1.000000	-1.000000	2405948.000000	1770066309.279737
-25115.130000	-25017.660000	-29287.530000	-14227.965000	-27750.060000	-15660.405000	-628.110000	-11700.630000	17.930263	2.524392	6.317680	8.387317	0.334001	1.801664	6.408661	4.281122	29.131340	25.774140	-11.429740	0.951108	-0.334228	0.257446	-1.000000	-1.000000	-1.000000	-1.000000	-1.000000	-1.000000	-1.000000	71.310345	0.000000	-1.000000	-1.000000	2405949.000000	1770066309.282810
-25132.590000	-24983.190000	-29260.890000	-14199.120000	-27768.240000	-15678.090000	-645.390000	-11740.680000	0.581465	3.136932	11.500781	14.569990	23.617591	13.509285	7.889052	-15.247615	29.131340	25.774140	-11.429740	0.951108	-0.334228	0.257446	-1.000000	-1.000000	-1.000000	-1.000000	-1.000000	-1.000000	-1.000000	71.310345	0.000000	-1.000000	-1.000000	2405950.000000	1770066309.282819
-25105.230000	-24924.150000	-29207.610000	-14123.295000	-27726.120000	-15642.630000	-629.910000	-11789.505000	-18.835552	-0.675636	8.433048	12.429599	32.225805	15.979230	3.508089	-28.466924	-5.188400	11.124540	-31.633980	0.930173	-0.326598	0.255798	-1.000000	-1.000000	-1.000000	-1.000000	-1.000000	-1.000000	-1.000000	71.310345	0.000000	-1.000000	-1.000000	2405951.000000	1770066309.291427
-25070.580000	-24951.510000	-29229.030000	-14131.170000	-27750.825000	-15666.480000	-629.865000	-11724.480000	-29.695464	2.621667	8.715981	14.268532	30.284214	15.094054	-0.620658	-35.473238	-5.188400	11.124540	-31.633980	0.930173	-0.326598	0.255798	-1.000000	-1.000000	-1.000000	-1.000000	-1.000000	-1.000000	-1.000000	71.310345	0.000000	-1.000000	-1.000000	2405952.000000	1770066309.291438
-25064.370000	-24956.505000	-29244.150000	-14163.660000	-27777.510000	-15682.365000	-625.680000	-11673.765000	-23.614144	14.240488	13.969406	20.548233	23.049218	13.884626	-0.770372	-32.567924	-5.188400	11.124540	-31.633980	0.930173	-0.326598	0.255798	-1.000000	-1.000000	-1.000000	-1.000000	-1.000000	-1.000000	-1.000000	71.310345	0.000000	-1.000000	-1.000000	2405953.000000	1770066309.291451
-24973.740000	-24963.750000	-29279.340000	-14214.465000	-27789.210000	-15684.255000	-628.155000	-11665.755000	-2.333555	22.705551	13.951359	18.422034	10.834826	9.030350	1.290703	-14.816571	-5.188400	11.124540	-31.633980	0.930173	-0.326598	0.255798	-1.000000	-1.000000	-1.000000	-1.000000	-1.000000	-1.000000	-1.000000	71.310345	0.000000	-1.000000	-1.000000	2405954.000000	1770066309.291457
-24937.335000	-24952.230000	-29307.150000	-14243.445000	-27809.685000	-15707.205000	-652.500000	-11674.575000	24.528414	18.546966	1.260587	-0.833408	-6.361822	-2.055904	1.554442	13.428169	-5.188400	11.124540	-31.633980	0.930173	-0.326598	0.255798	-1.000000	-1.000000	-1.000000	-1.000000	-1.000000	-1.000000	-1.000000	71.310345	0.000000	-1.000000	-1.000000	2405955.000000	1770066309.294065
-24971.535000	-24980.220000	-29335.365000	-14252.805000	-27828.540000	-15725.970000	-656.235000	-11629.215000	42.579658	3.041129	-19.526779	-29.639329	-25.482907	-16.859198	-2.323573	38.240976	-5.188400	11.124540	-31.633980	0.930173	-0.326598	0.255798	-1.000000	-1.000000	-1.000000	-1.000000	-1.000000	-1.000000	-1.000000	71.310345	0.000000	-1.000000	-1.000000	2405956.000000	1770066309.294071
-25015.455000	-24951.465000	-29280.645000	-14202.450000	-27800.955000	-15704.235000	-647.415000	-11643.885000	38.671705	-14.860424	-35.087727	-48.677687	-39.087276	-28.093598	-8.370697	47.142132	-5.188400	11.124540	-31.633980	0.930173	-0.326598	0.255798	-1.000000	-1.000000	-1.000000	-1.000000	-1.000000	-1.000000	-1.000000	71.310345	0.000000	-1.000000	-1.000000	2405957.000000	1770066309.297771
-25031.250000	-24997.905000	-29297.790000	-14216.400000	-27821.790000	-15727.680000	-666.810000	-11663.820000	12.558320	-25.593012	-33.353678	-43.014245	-38.054601	-27.824173	-11.624466	36.166469	-5.188400	11.124540	-31.633980	0.930173	-0.326598	0.255798	-1.000000	-1.000000	-1.000000	-1.000000	-1.000000	-1.000000	-1.000000	71.310345	0.000000	-1.000000	-1.000000	2405958.000000	1770066309.297777
-25082.280000	-25024.545000	-29323.530000	-14235.435000	-27826.335000	-15735.240000	-667.710000	-11667.825000	-22.255233	-26.163456	-14.448271	-15.725794	-20.238400	-14.447262	-8.862846	10.720420	-5.188400	11.124540	-31.633980	0.930173	-0.326598	0.255798	-1.000000	-1.000000	-1.000000	-1.000000	-1.000000	-1.000000	-1.000000	71.310345	0.000000	-1.000000	-1.000000	2405959.000000	1770066309.303249
-25078.005000	-25026.030000	-29325.780000	-14230.080000	-27810.765000	-15718.095000	-650.205000	-11643.705000	-49.393935	-19.747746	9.552524	15.797741	6.330645	5.821302	-0.811729	-17.059200	-5.188400	11.124540	-31.633980	0.930173	-0.326598	0.255798	-1.000000	-1.000000	-1.000000	-1.000000	-1.000000	-1.000000	-1.000000	71.310345	0.000000	-1.000000	-1.000000	2405960.000000	1770066309.303261
-25139.700000	-25073.415000	-29341.980000	-14238.540000	-27826.245000	-15722.370000	-664.605000	-11685.285000	-58.011870	-9.239307	26.565304	35.930931	29.805946	24.170167	8.687044	-36.790603	-29.283940	-6.073480	-35.494760	0.910032	-0.320068	0.299560	-1.000000	-1.000000	-1.000000	-1.000000	-1.000000	-1.000000	-1.000000	71.310345	0.000000	-1.000000	-1.000000	2405961.000000	1770066309.305971
-25131.780000	-25062.570000	-29340.270000	-14240.745000	-27836.775000	-15730.515000	-686.115000	-11716.155000	-46.262665	3.090938	31.575262	39.711150	40.975039	33.246170	14.227855	-45.185032	-29.283940	-6.073480	-35.494760	0.910032	-0.320068	0.299560	-1.000000	-1.000000	-1.000000	-1.000000	-1.000000	-1.000000	-1.000000	71.310345	0.000000	-1.000000	-1.000000	2405962.000000	1770066309.305979
-25024.140000	-24953.445000	-29273.085000	-14196.105000	-27797.715000	-15706.890000	-667.260000	-11660.940000	-19.152071	15.340475	26.660013	31.033956	36.683503	29.514888	12.676254	-40.741518	-29.283940	-6.073480	-35.494760	0.910032	-0.320068	0.299560	-1.000000	-1.000000	-1.000000	-1.000000	-1.000000	-1.000000	-1.000000	71.310345	0.000000	-1.000000	-1.000000	2405963.000000	1770066309.320789
-24975.450000	-24928.875000	-29256.120000	-14162.895000	-27750.015000	-15674.175000	-646.515000	-11655.945000	15.932922	27.189136	18.432527	17.826483	21.463519	16.095501	6.634321	-21.754067	-29.283940	-6.073480	-35.494760	0.910032	-0.320068	0.299560	-1.000000	-1.000000	-1.000000	-1.000000	-1.000000	-1.000000	-1.000000	71.310345	0.000000	-1.000000	-1.000000	2405964.000000	1770066309.320800
-25035.615000	-24945.750000	-29250.720000	-14144.670000	-27727.470000	-15649.380000	-640.485000	-11762.190000	47.832733	34.865911	10.870491	6.004718	3.966623	0.928347	1.192937	4.748117	-29.283940	-6.073480	-35.494760	0.910032	-0.320068	0.299560	-1.000000	-1.000000	-1.000000	-1.000000	-1.000000	-1.000000	-1.000000	71.310345	0.000000	-1.000000	-1.000000	2405965.000000	1770066309.320812
-25046.820000	-24939.630000	-29255.085000	-14165.055000	-27776.340000	-15675.435000	-659.565000	-11795.310000	62.359548	31.009088	1.991419	-4.148300	-10.394689	-10.182881	-1.850591	23.333431	-29.283940	-6.073480	-35.494760	0.910032	-0.320068	0.299560	-1.000000	-1.000000	-1.000000	-1.000000	-1.000000	-1.000000	-1.000000	71.310345	0.000000	-1.000000	-1.000000	2405966.000000	1770066309.320817
-25054.650000	-24956.460000	-29274.615000	-14198.985000	-27840.645000	-15706.395000	-651.195000	-11687.670000	52.377706	14.069609	-9.927708	-14.673869	-21.683847	-16.628958	-3.563615	27.480090	-29.283940	-6.073480	-35.494760	0.910032	-0.320068	0.299560	-1.000000	-1.000000	-1.000000	-1.000000	-1.000000	-1.000000	-1.000000	71.310345	0.000000	-1.000000	-1.000000	2405967.000000	1770066309.320823
-25004.070000	-24928.605000	-29251.890000	-14176.260000	-27805.590000	-15679.620000	-624.105000	-11654.280000	24.726461	-8.264172	-21.134068	-24.167692	-29.723401	-19.228466	-4.148143	25.452826	-29.283940	-6.073480	-35.494760	0.910032	-0.320068	0.299560	-1.000000	-1.000000	-1.000000	-1.000000	-1.000000	-1.000000	-1.000000	71.310345	0.000000	-1.000000	-1.000000	2405968.000000	1770066309.320828
-24985.035000	-24939.585000	-29257.290000	-14175.990000	-27798.030000	-15687.495000	-635.985000	-11654.820000	-5.011506	-25.074100	-25.310609	-27.474085	-30.074463	-17.395129	-3.271564	24.148201	-29.283940	-6.073480	-35.494760	0.910032	-0.320068	0.299560	-1.000000	-1.000000	-1.000000	-1.000000	-1.000000	-1.000000	-1.000000	71.310345	0.000000	-1.000000	-1.000000	2405969.000000	1770066309.321773
-25002.720000	-24971.400000	-29278.755000	-14180.130000	-27795.330000	-15690.915000	-642.510000	-11621.655000	-24.038177	-29.942017	-20.201167	-21.246258	-19.103764	-11.155014	-1.961664	21.241048	-29.283940	-6.073480	-35.494760	0.910032	-0.320068	0.299560	-1.000000	-1.000000	-1.000000	-1.000000	-1.000000	-1.000000	-1.000000	71.310345	0.000000	-1.000000	-1.000000	2405970.000000	1770066309.321783
-25000.335000	-24949.260000	-29242.215000	-14137.470000	-27752.265000	-15657.795000	-637.785000	-11649.465000	-30.393411	-24.870935	-9.626891	-7.594444	0.010753	-2.512781	-1.394125	13.363495	-30.001160	-4.028640	-25.942000	0.892515	-0.273620	0.348876	-1.000000	-1.000000	-1.000000	-1.000000	-1.000000	-1.000000	-1.000000	71.310345	0.000000	-1.000000	-1.000000	2405971.000000	1770066309.325768
-25002.630000	-24986.205000	-29285.685000	-14182.380000	-27793.395000	-15688.125000	-646.695000	-11651.940000	-30.813538	-17.319874	0.007072	6.697244	17.584904	5.133414	-1.889242	-0.278139	-30.001160	-4.028640	-25.942000	0.892515	-0.273620	0.348876	-1.000000	-1.000000	-1.000000	-1.000000	-1.000000	-1.000000	-1.000000	71.310345	0.000000	-1.000000	-1.000000	2405972.000000	1770066309.325778
-25059.015000	-25032.420000	-29320.965000	-14214.420000	-27822.870000	-15712.065000	-660.375000	-11669.355000	-30.704333	-13.230642	3.337474	13.013614	22.533405	7.376157	-3.711983	-16.885808	-30.001160	-4.028640	-25.942000	0.892515	-0.273620	0.348876	-1.000000	-1.000000	-1.000000	-1.000000	-1.000000	-1.000000	-1.000000	71.310345	0.000000	-1.000000	-1.000000	2405973.000000	1770066309.329879
-25069.995000	-25031.880000	-29331.360000	-14225.220000	-27831.690000	-15718.320000	-660.825000	-11672.595000	-27.777564	-11.769664	-0.278333	7.754548	11.816563	2.532441	-6.222505	-28.007115	-30.001160	-4.028640	-25.942000	0.892515	-0.273620	0.348876	-1.000000	-1.000000	-1.000000	-1.000000	-1.000000	-1.000000	-1.000000	71.310345	0.000000	-1.000000	-1.000000	2405974.000000	1770066309.329885
-25053.255000	-25006.140000	-29326.860000	-14225.175000	-27832.905000	-15722.415000	-664.920000	-11681.190000	-16.380318	-6.601872	-5.094620	-2.607495	-4.355837	-4.314084	-6.842277	-26.767333	-30.001160	-4.028640	-25.942000	0.892515	-0.273620	0.348876	-1.000000	-1.000000	-1.000000	-1.000000	-1.000000	-1.000000	-1.000000	71.310345	0.000000	-1.000000	-1.000000	2405975.000000	1770066309.336027
-25057.530000	-24995.880000	-29312.190000	-14210.820000	-27819.360000	-15713.685000	-661.860000	-11696.355000	3.458185	6.427383	-3.790654	-7.292849	-11.640861	-5.563989	-3.685718	-17.021592	-30.001160	-4.028640	-25.942000	0.892515	-0.273620	0.348876	-1.000000	-1.000000	-1.000000	-1.000000	-1.000000	-1.000000	-1.000000	71.310345	0.000000	-1.000000	-1.000000	2405976.000000	1770066309.336039
-25121.655000	-24977.070000	-29281.590000	-14178.195000	-27785.970000	-15686.640000	-648.720000	-11719.080000	22.226860	23.388874	5.615816	-1.492412	-5.288685	0.926258	1.882881	-8.483546	-30.001160	-4.028640	-25.942000	0.892515	-0.273620	0.348876	-1.000000	-1.000000	-1.000000	-1.000000	-1.000000	-1.000000	-1.000000	71.310345	0.000000	-1.000000	-1.000000	2405977.000000	1770066309.337816
-25061.040000	-24953.265000	-29271.105000	-14172.885000	-27782.910000	-15685.515000	-650.520000	-11698.965000	29.513110	35.937924	18.516631	10.729302	7.971598	10.821849	7.206594	-4.816302	-30.001160	-4.028640	-25.942000	0.892515	-0.273620	0.348876	-1.000000	-1.000000	-1.000000	-1.000000	-1.000000	-1.000000	-1.000000	71.310345	0.000000	-1.000000	-1.000000	2405978.000000	1770066309.337827
-24985.215000	-24958.620000	-29285.595000	-14187.870000	-27797.085000	-15696.405000	-656.910000	-11667.780000	26.493201	38.008683	27.046325	20.486783	17.540654	17.354680	10.403469	-1.430770	-30.001160	-4.028640	-25.942000	0.892515	-0.273620	0.348876	-1.000000	-1.000000	-1.000000	-1.000000	-1.000000	-1.000000	-1.000000	71.310345	0.000000	-1.000000	-1.000000	2405979.000000	1770066309.345412
-25039.215000	-24995.745000	-29300.040000	-14191.965000	-27796.365000	-15692.805000	-656.955000	-11683.845000	20.336109	26.529240	24.081916	19.881786	16.005581	15.337921	10.084342	6.276034	-30.001160	-4.028640	-25.942000	0.892515	-0.273620	0.348876	-1.000000	-1.000000	-1.000000	-1.000000	-1.000000	-1.000000	-1.000000	71.310345	0.000000	-1.000000	-1.000000	2405980.000000	1770066309.345419
-25039.530000	-25005.465000	-29298.420000	-14188.995000	-27793.440000	-15690.150000	-656.820000	-11672.415000	11.816095	3.444194	9.350831	8.562319	4.325839	5.478966	6.125062	16.311014	-14.435960	10.300500	-18.479860	0.911680	-0.256896	0.339721	-1.000000	-1.000000	-1.000000	-1.000000	-1.000000	-1.000000	-1.000000	71.310345	0.000000	-1.000000	-1.000000	2405981.000000	1770066309.345938
-25077.420000	-24997.185000	-29285.370000	-14178.870000	-27781.470000	-15680.790000	-649.665000	-11679.030000	0.273671	-20.716948	-8.356140	-5.517867	-8.861580	-5.707334	0.599954	23.241509	-14.435960	10.300500	-18.479860	0.911680	-0.256896	0.339721	-1.000000	-1.000000	-1.000000	-1.000000	-1.000000	-1.000000	-1.000000	71.310345	0.000000	-1.000000	-1.000000	2405982.000000	1770066309.345946
-25097.220000	-24964.065000	-29255.220000	-14147.955000	-27746.730000	-15650.730000	-638.415000	-11744.820000	-10.700717	-33.158367	-18.645417	-13.503125	-14.632517	-11.445364	-3.457603	22.778597	-14.435960	10.300500	-18.479860	0.911680	-0.256896	0.339721	-1.000000	-1.000000	-1.000000	-1.000000	-1.000000	-1.000000	-1.000000	71.310345	0.000000	-1.000000	-1.000000	2405983.000000	1770066309.349854
-25146.045000	-24999.345000	-29277.810000	-14161.410000	-27760.815000	-15667.830000	-655.965000	-11764.305000	-18.336387	-29.727980	-17.974322	-12.325405	-10.199764	-9.462082	-4.578373	12.302235	-14.435960	10.300500	-18.479860	0.911680	-0.256896	0.339721	-1.000000	-1.000000	-1.000000	-1.000000	-1.000000	-1.000000	-1.000000	71.310345	0.000000	-1.000000	-1.000000	2405984.000000	1770066309.349864
-25079.490000	-25017.795000	-29315.295000	-14204.520000	-27812.385000	-15717.150000	-675.180000	-11679.390000	-20.869651	-17.179285	-11.589562	-6.733547	-1.657090	-4.278638	-4.468238	-4.246498	-14.435960	10.300500	-18.479860	0.911680	-0.256896	0.339721	-1.000000	-1.000000	-1.000000	-1.000000	-1.000000	-1.000000	-1.000000	71.310345	0.000000	-1.000000	-1.000000	2405985.000000	1770066309.354062
-24990.120000	-24976.485000	-29295.405000	-14199.615000	-27806.400000	-15708.240000	-662.175000	-11684.565000	-13.800846	-4.607644	-7.157212	-4.413534	1.315585	-2.995219	-5.388195	-15.499528	-14.435960	10.300500	-18.479860	0.911680	-0.256896	0.339721	-1.000000	-1.000000	-1.000000	-1.000000	-1.000000	-1.000000	-1.000000	71.310345	0.000000	-1.000000	-1.000000	2405986.000000	1770066309.354072
-25059.960000	-24996.690000	-29293.740000	-14192.595000	-27792.990000	-15694.695000	-658.530000	-11711.970000	2.215410	4.386538	-6.016978	-6.735697	-3.079291	-6.135143	-6.235253	-15.615483	-14.435960	10.300500	-18.479860	0.911680	-0.256896	0.339721	-1.000000	-1.000000	-1.000000	-1.000000	-1.000000	-1.000000	-1.000000	71.310345	0.000000	-1.000000	-1.000000	2405987.000000	1770066309.361330
-25097.580000	-25020.315000	-29304.855000	-14194.890000	-27790.335000	-15694.245000	-662.310000	-11671.965000	14.060468	9.322855	-4.369985	-8.382972	-7.854567	-7.882946	-4.452239	-9.409763	-14.435960	10.300500	-18.479860	0.911680	-0.256896	0.339721	-1.000000	-1.000000	-1.000000	-1.000000	-1.000000	-1.000000	-1.000000	71.310345	0.000000	-1.000000	-1.000000	2405988.000000	1770066309.361336
-24962.445000	-24936.885000	-29269.350000	-14175.180000	-27778.905000	-15685.875000	-660.600000	-11640.735000	12.742833	11.176605	0.337820	-4.986521	-6.951129	-4.491508	-0.141494	-1.928764	-14.435960	10.300500	-18.479860	0.911680	-0.256896	0.339721	-1.000000	-1.000000	-1.000000	-1.000000	-1.000000	-1.000000	-1.000000	71.310345	0.000000	-1.000000	-1.000000	2405989.000000	1770066309.361803
-24996.645000	-24936.255000	-29268.900000	-14174.370000	-27778.095000	-15681.105000	-654.795000	-11662.290000	6.472060	13.595282	7.771696	3.122648	-0.278185	2.696513	4.366324	5.086647	-14.435960	10.300500	-18.479860	0.911680	-0.256896	0.339721	-1.000000	-1.000000	-1.000000	-1.000000	-1.000000	-1.000000	-1.000000	71.310345	0.000000	-1.000000	-1.000000	2405990.000000	1770066309.361813
-25002.765000	-24960.825000	-29277.945000	-14178.240000	-27779.175000	-15679.575000	-651.915000	-11669.850000	4.580186	16.271228	14.166283	11.408998	7.650874	9.489216	6.890938	9.264994	6.607580	6.104000	-20.112680	0.927732	-0.279174	0.319030	-1.000000	-1.000000	-1.000000	-1.000000	-1.000000	-1.000000	-1.000000	71.310345	0.000000	-1.000000	-1.000000	2405991.000000	1770066309.368508
-25002.045000	-24966.270000	-29290.995000	-14195.565000	-27797.940000	-15697.080000	-656.325000	-11677.770000	5.697575	13.012176	14.171930	14.132974	11.337889	11.659736	6.457509	9.127710	6.607580	6.104000	-20.112680	0.927732	-0.279174	0.319030	-1.000000	-1.000000	-1.000000	-1.000000	-1.000000	-1.000000	-1.000000	71.310345	0.000000	-1.000000	-1.000000	2405992.000000	1770066309.368518
-25032.645000	-24997.545000	-29313.855000	-14215.860000	-27815.805000	-15714.180000	-660.420000	-11665.620000	4.639515	1.634294	6.700913	9.343751	8.695147	8.039709	3.691550	5.295236	6.607580	6.104000	-20.112680	0.927732	-0.279174	0.319030	-1.000000	-1.000000	-1.000000	-1.000000	-1.000000	-1.000000	-1.000000	71.310345	0.000000	-1.000000	-1.000000	2405993.000000	1770066309.371537
-25040.655000	-24986.520000	-29298.240000	-14203.755000	-27804.465000	-15706.620000	-656.010000	-11660.490000	-2.479757	-12.325905	-3.441739	0.778403	2.647526	1.668416	0.348539	-1.553678	6.607580	6.104000	-20.112680	0.927732	-0.279174	0.319030	-1.000000	-1.000000	-1.000000	-1.000000	-1.000000	-1.000000	-1.000000	71.310345	0.000000	-1.000000	-1.000000	2405994.000000	1770066309.371547
-25051.185000	-24976.260000	-29282.490000	-14190.840000	-27791.910000	-15694.155000	-652.950000	-11678.085000	-15.512261	-21.357022	-9.960510	-5.569116	-2.004010	-3.053563	-2.107783	-9.641425	6.607580	6.104000	-20.112680	0.927732	-0.279174	0.319030	-1.000000	-1.000000	-1.000000	-1.000000	-1.000000	-1.000000	-1.000000	71.310345	0.000000	-1.000000	-1.000000	2405995.000000	1770066309.373755
-25061.490000	-24972.210000	-29275.290000	-14182.605000	-27781.155000	-15683.130000	-650.745000	-11692.215000	-26.911618	-20.608382	-9.628005	-6.380302	-2.921858	-4.066433	-3.182174	-15.302898	6.607580	6.104000	-20.112680	0.927732	-0.279174	0.319030	-1.000000	-1.000000	-1.000000	-1.000000	-1.000000	-1.000000	-1.000000	71.310345	0.000000	-1.000000	-1.000000	2405996.000000	1770066309.373761
-25073.640000	-24969.150000	-29270.745000	-14172.255000	-27769.635000	-15671.790000	-646.740000	-11702.070000	-27.497158	-10.500883	-3.831913	-2.698519	-1.076224	-2.163237	-2.913718	-16.189107	6.607580	6.104000	-20.112680	0.927732	-0.279174	0.319030	-1.000000	-1.000000	-1.000000	-1.000000	-1.000000	-1.000000	-1.000000	71.310345	0.000000	-1.000000	-1.000000	2405997.000000	1770066309.385396
-25074.090000	-24971.940000	-29273.715000	-14163.120000	-27760.365000	-15665.940000	-647.460000	-11700.135000	-16.681194	2.412114	2.719083	2.020787	1.332000	0.624133	-1.724641	-12.494297	6.607580	6.104000	-20.112680	0.927732	-0.279174	0.319030	-1.000000	-1.000000	-1.000000	-1.000000	-1.000000	-1.000000	-1.000000	71.310345	0.000000	-1.000000	-1.000000	2405998.000000	1770066309.385407
-25033.680000	-24976.485000	-29281.455000	-14174.730000	-27773.415000	-15678.405000	-657.675000	-11671.650000	0.001692	10.531253	5.474122	4.443494	2.303650	2.048256	-0.694093	-4.307681	6.607580	6.104000	-20.112680	0.927732	-0.279174	0.319030	-1.000000	-1.000000	-1.000000	-1.000000	-1.000000	-1.000000	-1.000000	71.310345	0.000000	-1.000000	-1.000000	2405999.000000	1770066309.385691
-25011.675000	-24978.555000	-29286.090000	-14185.845000	-27786.060000	-15689.565000	-663.615000	-11666.430000	18.453098	11.605683	3.378560	2.917346	0.570869	0.564083	-0.915487	8.229698	6.607580	6.104000	-20.112680	0.927732	-0.279174	0.319030	-1.000000	-1.000000	-1.000000	-1.000000	-1.000000	-1.000000	-1.000000	71.310345	0.000000	-1.000000	-1.000000	2406000.000000	1770066309.385702
-24986.520000	-24968.790000	-29278.890000	-14180.850000	-27780.030000	-15684.480000	-660.780000	-11670.165000	34.165908	8.656119	-0.667014	-1.239302	-2.894632	-2.787496	-1.973551	20.956329	16.541840	-0.610400	-15.305780	0.909971	-0.271728	0.314696	-1.000000	-1.000000	-1.000000	-1.000000	-1.000000	-1.000000	-1.000000	71.310345	0.000000	-1.000000	-1.000000	2406001.000000	1770066309.387377
-24980.760000	-24972.300000	-29284.200000	-14196.015000	-27796.590000	-15700.455000	-673.965000	-11692.845000	40.527439	5.729472	-2.671097	-4.549584	-5.091092	-4.800908	-2.282944	25.734279	16.541840	-0.610400	-15.305780	0.909971	-0.271728	0.314696	-1.000000	-1.000000	-1.000000	-1.000000	-1.000000	-1.000000	-1.000000	71.310345	0.000000	-1.000000	-1.000000	2406002.000000	1770066309.387384
-25026.075000	-24965.865000	-29266.920000	-14178.285000	-27776.250000	-15678.855000	-661.095000	-11715.120000	32.130962	3.975020	-1.530756	-4.978043	-4.427288	-3.770123	-1.167343	17.425753	16.541840	-0.610400	-15.305780	0.909971	-0.271728	0.314696	-1.000000	-1.000000	-1.000000	-1.000000	-1.000000	-1.000000	-1.000000	71.310345	0.000000	-1.000000	-1.000000	2406003.000000	1770066309.395746
-25045.605000	-24959.880000	-29272.725000	-14184.855000	-27778.995000	-15680.205000	-657.315000	-11686.545000	9.328482	1.921796	0.576332	-3.269123	-1.976484	-0.841355	0.918421	0.601803	16.541840	-0.610400	-15.305780	0.909971	-0.271728	0.314696	-1.000000	-1.000000	-1.000000	-1.000000	-1.000000	-1.000000	-1.000000	71.310345	0.000000	-1.000000	-1.000000	2406004.000000	1770066309.395832
-25049.205000	-24989.355000	-29306.970000	-14210.415000	-27804.735000	-15701.310000	-666.900000	-11696.130000	-18.313949	-1.361668	0.840461	-1.562979	-0.084565	1.408224	3.030415	-13.591815	16.541840	-0.610400	-15.305780	0.909971	-0.271728	0.314696	-1.000000	-1.000000	-1.000000	-1.000000	-1.000000	-1.000000	-1.000000	71.310345	0.000000	-1.000000	-1.000000	2406005.000000	1770066309.395976
-25182.630000	-25056.450000	-29323.530000	-14200.740000	-27791.010000	-15688.260000	-667.755000	-11762.640000	-38.956379	-6.593802	-2.196568	-1.592537	-0.502205	1.041648	3.823511	-18.740633	16.541840	-0.610400	-15.305780	0.909971	-0.271728	0.314696	-1.000000	-1.000000	-1.000000	-1.000000	-1.000000	-1.000000	-1.000000	71.310345	0.000000	-1.000000	-1.000000	2406006.000000	1770066309.395990
