Channel1	Channel2	Channel3	Channel4	Channel5	Channel6	Channel7	Channel8	FilteredChannel1	FilteredChannel2	FilteredChannel3	FilteredChannel4	FilteredChannel5	FilteredChannel6	FilteredChannel7	FilteredChannel8	GyroX	GyroY	GyroZ	AccX	AccY	AccZ	PPG1	PPG2	rawPPG1	rawPPG2	rawPPG3	Hr	Hrv	Battery	Trigger	PhysicalTrigger	AutoTrigger	NumMeasurements	Timestamp
-24946.785000	-25434.495000	-28566.495000	-13192.515000	-27946.890000	-15783.705000	-510.345000	-11506.455000	0.338215	-5.647775	-5.732570	-10.507402	-10.924502	-10.251184	-4.060655	10.801607	-2.014320	8.026760	-0.122080	0.925596	-0.216674	0.330993	-1.000000	-1.000000	-1.000000	-1.000000	-1.000000	-1.000000	-1.000000	71.310345	0.000000	-1.000000	-1.000000	2393570.000000	1770066284.514494
-24952.320000	-25434.945000	-28572.885000	-13191.165000	-27945.045000	-15783.795000	-508.005000	-11498.400000	-3.947045	-1.797451	4.910896	1.082041	-2.711246	-3.944091	-2.545067	3.916733	-3.769220	4.944240	-1.541260	0.919248	-0.215270	0.334045	-1.000000	-1.000000	-1.000000	-1.000000	-1.000000	-1.000000	-1.000000	71.310345	0.000000	-1.000000	-1.000000	2393571.000000	1770066284.519283
-24955.650000	-25432.515000	-28575.855000	-13189.050000	-27948.330000	-15789.960000	-510.570000	-11502.720000	-4.489283	2.921723	11.585574	10.895974	5.853149	3.573688	0.343281	-1.978841	-3.769220	4.944240	-1.541260	0.919248	-0.215270	0.334045	-1.000000	-1.000000	-1.000000	-1.000000	-1.000000	-1.000000	-1.000000	71.310345	0.000000	-1.000000	-1.000000	2393572.000000	1770066284.519293
-24943.275000	-25426.215000	-28575.180000	-13184.145000	-27940.545000	-15781.680000	-501.840000	-11491.965000	-2.275410	6.762798	11.827597	14.903222	11.215576	9.286138	3.476573	-4.216080	-3.769220	4.944240	-1.541260	0.919248	-0.215270	0.334045	-1.000000	-1.000000	-1.000000	-1.000000	-1.000000	-1.000000	-1.000000	71.310345	0.000000	-1.000000	-1.000000	2393573.000000	1770066284.521291
-24924.510000	-25412.805000	-28558.080000	-13172.445000	-27931.455000	-15769.755000	-494.460000	-11494.080000	0.772866	8.476037	7.756432	12.952851	11.944350	11.354576	5.314434	-4.146412	-3.769220	4.944240	-1.541260	0.919248	-0.215270	0.334045	-1.000000	-1.000000	-1.000000	-1.000000	-1.000000	-1.000000	-1.000000	71.310345	0.000000	-1.000000	-1.000000	2393574.000000	1770066284.521300
-24931.485000	-25417.665000	-28559.925000	-13174.515000	-27928.395000	-15770.880000	-497.880000	-11504.655000	2.831085	7.707448	3.114647	7.407475	8.852077	9.776585	5.021715	-4.533722	-3.769220	4.944240	-1.541260	0.919248	-0.215270	0.334045	-1.000000	-1.000000	-1.000000	-1.000000	-1.000000	-1.000000	-1.000000	71.310345	0.000000	-1.000000	-1.000000	2393575.000000	1770066284.532109
-24953.805000	-25424.685000	-28567.215000	-13180.905000	-27931.005000	-15780.195000	-502.155000	-11502.765000	2.560011	4.909594	-0.108675	1.177000	3.995912	5.678775	2.910576	-5.659312	-3.769220	4.944240	-1.541260	0.919248	-0.215270	0.334045	-1.000000	-1.000000	-1.000000	-1.000000	-1.000000	-1.000000	-1.000000	71.310345	0.000000	-1.000000	-1.000000	2393576.000000	1770066284.532121
-24952.905000	-25424.505000	-28568.880000	-13184.460000	-27934.110000	-15786.360000	-504.090000	-11499.840000	-0.410947	0.601806	-2.602577	-4.180607	-0.860247	0.415138	0.061685	-5.231229	-3.769220	4.944240	-1.541260	0.919248	-0.215270	0.334045	-1.000000	-1.000000	-1.000000	-1.000000	-1.000000	-1.000000	-1.000000	71.310345	0.000000	-1.000000	-1.000000	2393577.000000	1770066284.532134
-24984.900000	-25431.930000	-28566.720000	-13181.310000	-27930.690000	-15783.885000	-504.900000	-11526.165000	-5.057703	-4.481829	-5.485088	-8.460814	-4.896039	-4.588231	-2.444866	-2.310801	-3.769220	4.944240	-1.541260	0.919248	-0.215270	0.334045	-1.000000	-1.000000	-1.000000	-1.000000	-1.000000	-1.000000	-1.000000	71.310345	0.000000	-1.000000	-1.000000	2393578.000000	1770066284.532139
-25013.205000	-25452.315000	-28581.615000	-13193.280000	-27940.005000	-15795.180000	-512.820000	-11558.925000	-9.691946	-8.937283	-8.098278	-11.028136	-7.507827	-7.826108	-3.993705	0.417932	-3.769220	4.944240	-1.541260	0.919248	-0.215270	0.334045	-1.000000	-1.000000	-1.000000	-1.000000	-1.000000	-1.000000	-1.000000	71.310345	0.000000	-1.000000	-1.000000	2393579.000000	1770066284.534753
-25028.865000	-25462.845000	-28591.920000	-13203.720000	-27949.680000	-15805.620000	-512.145000	-11539.035000	-12.213477	-11.132228	-8.712438	-10.724044	-8.136462	-8.448299	-4.330481	0.458400	-3.769220	4.944240	-1.541260	0.919248	-0.215270	0.334045	-1.000000	-1.000000	-1.000000	-1.000000	-1.000000	-1.000000	-1.000000	71.310345	0.000000	-1.000000	-1.000000	2393580.000000	1770066284.534765
-25030.980000	-25460.865000	-28586.790000	-13198.995000	-27946.710000	-15804.180000	-506.430000	-11510.460000	-10.318382	-9.929355	-6.369148	-7.338978	-6.706617	-6.653939	-3.290533	-0.057267	-6.897520	0.885080	-1.342880	0.914976	-0.209899	0.340331	-1.000000	-1.000000	-1.000000	-1.000000	-1.000000	-1.000000	-1.000000	71.310345	0.000000	-1.000000	-1.000000	2393581.000000	1770066284.538686
-24968.790000	-25440.210000	-28576.395000	-13189.995000	-27940.365000	-15799.365000	-508.410000	-11519.505000	-2.886475	-5.107904	-1.410732	-1.770437	-3.576196	-3.270702	-1.205691	2.024716	-6.897520	0.885080	-1.342880	0.914976	-0.209899	0.340331	-1.000000	-1.000000	-1.000000	-1.000000	-1.000000	-1.000000	-1.000000	71.310345	0.000000	-1.000000	-1.000000	2393582.000000	1770066284.538694
-24964.605000	-25434.495000	-28572.345000	-13186.215000	-27936.135000	-15797.520000	-508.590000	-11524.410000	8.654314	2.205475	4.477696	4.340842	0.400171	0.487903	0.791618	5.458453	-6.897520	0.885080	-1.342880	0.914976	-0.209899	0.340331	-1.000000	-1.000000	-1.000000	-1.000000	-1.000000	-1.000000	-1.000000	71.310345	0.000000	-1.000000	-1.000000	2393583.000000	1770066284.552781
-24932.790000	-25424.775000	-28576.980000	-13196.655000	-27946.530000	-15809.265000	-512.865000	-11498.535000	19.934393	9.577715	8.793900	8.901801	3.878223	3.398886	1.858966	7.366591	-6.897520	0.885080	-1.342880	0.914976	-0.209899	0.340331	-1.000000	-1.000000	-1.000000	-1.000000	-1.000000	-1.000000	-1.000000	71.310345	0.000000	-1.000000	-1.000000	2393584.000000	1770066284.552793
-24886.890000	-25396.965000	-28563.570000	-13188.195000	-27940.005000	-15803.010000	-504.270000	-11477.745000	26.317099	14.491151	9.864946	10.347489	5.703071	4.912477	2.280332	7.547475	-6.897520	0.885080	-1.342880	0.914976	-0.209899	0.340331	-1.000000	-1.000000	-1.000000	-1.000000	-1.000000	-1.000000	-1.000000	71.310345	0.000000	-1.000000	-1.000000	2393585.000000	1770066284.552805
-24911.190000	-25410.015000	-28571.760000	-13192.515000	-27944.010000	-15806.430000	-505.620000	-11488.095000	25.038612	15.109845	7.575653	8.368865	5.555634	5.197484	2.663028	6.754186	-6.897520	0.885080	-1.342880	0.914976	-0.209899	0.340331	-1.000000	-1.000000	-1.000000	-1.000000	-1.000000	-1.000000	-1.000000	71.310345	0.000000	-1.000000	-1.000000	2393586.000000	1770066284.552810
-24932.565000	-25418.430000	-28572.930000	-13190.850000	-27941.130000	-15806.115000	-505.710000	-11499.435000	14.716904	10.362954	2.840008	3.896363	3.869876	4.462053	2.920704	4.468569	-6.897520	0.885080	-1.342880	0.914976	-0.209899	0.340331	-1.000000	-1.000000	-1.000000	-1.000000	-1.000000	-1.000000	-1.000000	71.310345	0.000000	-1.000000	-1.000000	2393587.000000	1770066284.555984
-24950.070000	-25420.365000	-28567.530000	-13185.270000	-27934.290000	-15804.675000	-505.170000	-11508.300000	-2.571781	1.520757	-2.215534	-0.882889	1.767703	2.995787	2.560631	0.165182	-6.897520	0.885080	-1.342880	0.914976	-0.209899	0.340331	-1.000000	-1.000000	-1.000000	-1.000000	-1.000000	-1.000000	-1.000000	71.310345	0.000000	-1.000000	-1.000000	2393588.000000	1770066284.555995
-24964.065000	-25408.440000	-28553.715000	-13173.255000	-27921.780000	-15795.225000	-499.410000	-11519.775000	-20.129976	-7.273439	-4.800092	-3.444933	0.709269	1.587251	1.473314	-5.776868	-6.897520	0.885080	-1.342880	0.914976	-0.209899	0.340331	-1.000000	-1.000000	-1.000000	-1.000000	-1.000000	-1.000000	-1.000000	71.310345	0.000000	-1.000000	-1.000000	2393589.000000	1770066284.566935
-24964.335000	-25395.120000	-28543.140000	-13164.480000	-27911.880000	-15784.650000	-491.445000	-11526.930000	-30.967947	-11.973958	-3.849954	-3.019001	1.096288	0.807817	0.006770	-12.205488	-6.897520	0.885080	-1.342880	0.914976	-0.209899	0.340331	-1.000000	-1.000000	-1.000000	-1.000000	-1.000000	-1.000000	-1.000000	71.310345	0.000000	-1.000000	-1.000000	2393590.000000	1770066284.566944
-24957.765000	-25404.660000	-28556.055000	-13179.780000	-27924.435000	-15797.790000	-500.940000	-11529.090000	-32.095953	-11.797901	-1.340278	-1.471341	1.424611	0.021906	-1.474256	-16.378963	-5.081580	-0.183120	-0.289940	0.914854	-0.208251	0.341125	-1.000000	-1.000000	-1.000000	-1.000000	-1.000000	-1.000000	-1.000000	71.310345	0.000000	-1.000000	-1.000000	2393591.000000	1770066284.566954
-24925.455000	-25433.730000	-28586.385000	-13205.205000	-27947.655000	-15818.625000	-510.390000	-11489.670000	-23.818424	-9.270711	-0.720262	-1.661687	-0.478822	-2.120832	-2.916787	-14.468490	-5.081580	-0.183120	-0.289940	0.914854	-0.208251	0.341125	-1.000000	-1.000000	-1.000000	-1.000000	-1.000000	-1.000000	-1.000000	71.310345	0.000000	-1.000000	-1.000000	2393592.000000	1770066284.566959
-24911.190000	-25439.535000	-28589.940000	-13203.675000	-27950.445000	-15821.820000	-505.170000	-11461.590000	-8.377986	-7.327520	-3.510776	-4.310135	-4.805497	-5.596529	-4.061829	-5.045625	-5.081580	-0.183120	-0.289940	0.914854	-0.208251	0.341125	-1.000000	-1.000000	-1.000000	-1.000000	-1.000000	-1.000000	-1.000000	71.310345	0.000000	-1.000000	-1.000000	2393593.000000	1770066284.566965
-24937.470000	-25428.780000	-28575.720000	-13192.605000	-27939.375000	-15813.630000	-501.795000	-11491.650000	8.403877	-6.275279	-7.274426	-6.845978	-8.684136	-8.092529	-4.065173	7.612970	-5.081580	-0.183120	-0.289940	0.914854	-0.208251	0.341125	-1.000000	-1.000000	-1.000000	-1.000000	-1.000000	-1.000000	-1.000000	71.310345	0.000000	-1.000000	-1.000000	2393594.000000	1770066284.566970
-24943.770000	-25426.710000	-28571.445000	-13189.815000	-27935.055000	-15812.640000	-500.940000	-11500.290000	19.374209	-3.674526	-7.712653	-6.107146	-8.618879	-7.111335	-2.405190	15.852495	-5.081580	-0.183120	-0.289940	0.914854	-0.208251	0.341125	-1.000000	-1.000000	-1.000000	-1.000000	-1.000000	-1.000000	-1.000000	71.310345	0.000000	-1.000000	-1.000000	2393595.000000	1770066284.566975
-24940.215000	-25421.220000	-28569.015000	-13185.090000	-27930.105000	-15811.560000	-499.320000	-11497.320000	22.080901	2.383995	-2.968492	-1.533093	-3.847787	-2.511102	0.380185	15.700125	-5.081580	-0.183120	-0.289940	0.914854	-0.208251	0.341125	-1.000000	-1.000000	-1.000000	-1.000000	-1.000000	-1.000000	-1.000000	71.310345	0.000000	-1.000000	-1.000000	2393596.000000	1770066284.566980
-24953.175000	-25423.020000	-28569.420000	-13182.480000	-27925.740000	-15810.120000	-497.205000	-11509.200000	18.837750	10.189241	4.478547	4.462301	3.015856	3.343910	3.020277	9.223481	-5.081580	-0.183120	-0.289940	0.914854	-0.208251	0.341125	-1.000000	-1.000000	-1.000000	-1.000000	-1.000000	-1.000000	-1.000000	71.310345	0.000000	-1.000000	-1.000000	2393597.000000	1770066284.570721
-24973.020000	-25425.180000	-28569.555000	-13183.380000	-27927.540000	-15814.575000	-501.480000	-11536.695000	12.074916	15.131767	9.901594	8.346413	8.010918	7.231279	4.107808	0.306769	-5.081580	-0.183120	-0.289940	0.914854	-0.208251	0.341125	-1.000000	-1.000000	-1.000000	-1.000000	-1.000000	-1.000000	-1.000000	71.310345	0.000000	-1.000000	-1.000000	2393598.000000	1770066284.570733
-24992.145000	-25429.365000	-28569.330000	-13182.750000	-27926.370000	-15815.970000	-510.705000	-11563.020000	2.610722	13.524957	10.104254	7.939302	8.508846	7.072894	2.808938	-8.216931	-5.081580	-0.183120	-0.289940	0.914854	-0.208251	0.341125	-1.000000	-1.000000	-1.000000	-1.000000	-1.000000	-1.000000	-1.000000	71.310345	0.000000	-1.000000	-1.000000	2393599.000000	1770066284.586413
-24997.365000	-25440.525000	-28580.085000	-13193.865000	-27936.720000	-15827.895000	-522.810000	-11555.865000	-8.247792	6.012080	5.730170	4.052664	4.998295	3.501389	-0.271228	-13.849191	-5.081580	-0.183120	-0.289940	0.914854	-0.208251	0.341125	-1.000000	-1.000000	-1.000000	-1.000000	-1.000000	-1.000000	-1.000000	71.310345	0.000000	-1.000000	-1.000000	2393600.000000	1770066284.586435
-24979.590000	-25430.985000	-28574.820000	-13189.995000	-27932.850000	-15822.225000	-509.445000	-11527.695000	-16.839433	-2.624066	0.361448	-0.299473	0.482794	-0.531603	-2.997322	-14.259335	-0.045780	0.503580	-2.136400	0.917112	-0.214111	0.335876	-1.000000	-1.000000	-1.000000	-1.000000	-1.000000	-1.000000	-1.000000	71.310345	0.000000	-1.000000	-1.000000	2393601.000000	1770066284.586447
-24965.640000	-25417.665000	-28565.100000	-13181.265000	-27924.615000	-15813.855000	-498.195000	-11540.655000	-18.563864	-7.381636	-2.714599	-2.588777	-2.173873	-2.253800	-3.143286	-8.935796	-0.045780	0.503580	-2.136400	0.917112	-0.214111	0.335876	-1.000000	-1.000000	-1.000000	-1.000000	-1.000000	-1.000000	-1.000000	71.310345	0.000000	-1.000000	-1.000000	2393602.000000	1770066284.586452
-24927.840000	-25406.235000	-28557.495000	-13175.280000	-27919.260000	-15810.705000	-498.690000	-11531.340000	-10.749745	-6.725014	-2.909367	-2.534893	-2.328851	-1.278682	-0.473166	0.262510	-0.045780	0.503580	-2.136400	0.917112	-0.214111	0.335876	-1.000000	-1.000000	-1.000000	-1.000000	-1.000000	-1.000000	-1.000000	71.310345	0.000000	-1.000000	-1.000000	2393603.000000	1770066284.586457
-24943.680000	-25441.155000	-28586.070000	-13199.040000	-27941.085000	-15832.890000	-512.145000	-11517.480000	4.353300	-3.105886	-2.074864	-1.742954	-1.549796	0.360924	2.741179	10.341911	-0.045780	0.503580	-2.136400	0.917112	-0.214111	0.335876	-1.000000	-1.000000	-1.000000	-1.000000	-1.000000	-1.000000	-1.000000	71.310345	0.000000	-1.000000	-1.000000	2393604.000000	1770066284.586462
-24976.440000	-25452.360000	-28594.620000	-13208.895000	-27952.470000	-15846.615000	-513.675000	-11506.185000	18.103554	-0.792524	-2.543381	-2.206393	-2.016749	0.114329	3.731453	17.828500	-0.045780	0.503580	-2.136400	0.917112	-0.214111	0.335876	-1.000000	-1.000000	-1.000000	-1.000000	-1.000000	-1.000000	-1.000000	71.310345	0.000000	-1.000000	-1.000000	2393605.000000	1770066284.586468
-24974.730000	-25448.940000	-28590.390000	-13206.780000	-27950.580000	-15848.100000	-517.005000	-11506.950000	21.479530	-1.777678	-4.575035	-4.195227	-4.152253	-2.538790	1.769480	19.603920	-0.045780	0.503580	-2.136400	0.917112	-0.214111	0.335876	-1.000000	-1.000000	-1.000000	-1.000000	-1.000000	-1.000000	-1.000000	71.310345	0.000000	-1.000000	-1.000000	2393606.000000	1770066284.586473
-24958.125000	-25446.330000	-28584.180000	-13198.230000	-27939.825000	-15841.350000	-521.640000	-11537.550000	13.775407	-3.965786	-5.854120	-5.545920	-5.743910	-5.279992	-1.505989	14.490353	-0.045780	0.503580	-2.136400	0.917112	-0.214111	0.335876	-1.000000	-1.000000	-1.000000	-1.000000	-1.000000	-1.000000	-1.000000	71.310345	0.000000	-1.000000	-1.000000	2393607.000000	1770066284.601214
-24943.410000	-25448.535000	-28595.250000	-13211.505000	-27951.795000	-15850.980000	-520.155000	-11504.520000	1.947469	-4.156225	-4.267447	-4.055225	-4.355826	-5.262213	-3.618468	4.393452	-0.045780	0.503580	-2.136400	0.917112	-0.214111	0.335876	-1.000000	-1.000000	-1.000000	-1.000000	-1.000000	-1.000000	-1.000000	71.310345	0.000000	-1.000000	-1.000000	2393608.000000	1770066284.601227
-24955.740000	-25423.740000	-28577.205000	-13197.240000	-27938.700000	-15838.065000	-497.385000	-11449.170000	-7.370557	-0.852483	0.183825	0.332739	0.149585	-1.668935	-2.686998	-5.672786	-0.045780	0.503580	-2.136400	0.917112	-0.214111	0.335876	-1.000000	-1.000000	-1.000000	-1.000000	-1.000000	-1.000000	-1.000000	71.310345	0.000000	-1.000000	-1.000000	2393609.000000	1770066284.601240
-24952.995000	-25416.765000	-28572.615000	-13194.180000	-27937.305000	-15837.075000	-496.395000	-11465.820000	-12.507979	4.944763	5.799004	5.765105	5.737250	3.862347	1.039581	-11.322840	-0.045780	0.503580	-2.136400	0.917112	-0.214111	0.335876	-1.000000	-1.000000	-1.000000	-1.000000	-1.000000	-1.000000	-1.000000	71.310345	0.000000	-1.000000	-1.000000	2393610.000000	1770066284.601245
-24932.070000	-25416.855000	-28574.955000	-13196.655000	-27939.150000	-15842.745000	-504.585000	-11484.675000	-14.141014	9.582604	9.538041	9.240524	9.270175	7.989293	4.512517	-12.703125	3.753960	1.571780	-3.631880	0.918821	-0.218322	0.331481	-1.000000	-1.000000	-1.000000	-1.000000	-1.000000	-1.000000	-1.000000	71.310345	0.000000	-1.000000	-1.000000	2393611.000000	1770066284.601251
-24940.935000	-25422.345000	-28569.465000	-13185.405000	-27926.640000	-15834.915000	-501.705000	-11482.830000	-12.215441	9.443771	8.892631	8.593794	8.639007	8.090284	4.707830	-12.256970	3.753960	1.571780	-3.631880	0.918821	-0.218322	0.331481	-1.000000	-1.000000	-1.000000	-1.000000	-1.000000	-1.000000	-1.000000	71.310345	0.000000	-1.000000	-1.000000	2393612.000000	1770066284.601256
-25005.870000	-25448.130000	-28578.645000	-13192.245000	-27931.365000	-15840.855000	-501.165000	-11493.045000	-7.687056	4.449027	4.595611	4.767017	4.882863	4.828299	1.882410	-11.137307	3.753960	1.571780	-3.631880	0.918821	-0.218322	0.331481	-1.000000	-1.000000	-1.000000	-1.000000	-1.000000	-1.000000	-1.000000	71.310345	0.000000	-1.000000	-1.000000	2393613.000000	1770066284.604124
-25014.285000	-25447.995000	-28580.490000	-13196.700000	-27936.180000	-15847.425000	-503.280000	-11511.540000	-3.141760	-2.515023	-0.584176	0.242429	0.504753	0.724693	-1.517440	-9.328660	3.753960	1.571780	-3.631880	0.918821	-0.218322	0.331481	-1.000000	-1.000000	-1.000000	-1.000000	-1.000000	-1.000000	-1.000000	71.310345	0.000000	-1.000000	-1.000000	2393614.000000	1770066284.604136
-24958.125000	-25424.280000	-28578.240000	-13200.255000	-27942.030000	-15854.850000	-509.850000	-11508.885000	0.977866	-7.796571	-4.698788	-3.665068	-3.318311	-2.804353	-3.716197	-6.151605	3.753960	1.571780	-3.631880	0.918821	-0.218322	0.331481	-1.000000	-1.000000	-1.000000	-1.000000	-1.000000	-1.000000	-1.000000	71.310345	0.000000	-1.000000	-1.000000	2393615.000000	1770066284.605063
-24925.230000	-25411.455000	-28570.050000	-13190.985000	-27933.255000	-15848.865000	-506.790000	-11492.145000	6.854251	-8.392587	-6.740560	-6.328971	-6.203749	-5.338077	-4.175215	-0.261968	3.753960	1.571780	-3.631880	0.918821	-0.218322	0.331481	-1.000000	-1.000000	-1.000000	-1.000000	-1.000000	-1.000000	-1.000000	71.310345	0.000000	-1.000000	-1.000000	2393616.000000	1770066284.605069
-24913.620000	-25408.800000	-28567.890000	-13186.215000	-27928.755000	-15848.910000	-511.785000	-11501.820000	14.222307	-4.120262	-6.017762	-6.605900	-7.022146	-6.069957	-3.123674	7.220844	3.753960	1.571780	-3.631880	0.918821	-0.218322	0.331481	-1.000000	-1.000000	-1.000000	-1.000000	-1.000000	-1.000000	-1.000000	71.310345	0.000000	-1.000000	-1.000000	2393617.000000	1770066284.619960
-24931.845000	-25415.595000	-28569.870000	-13187.970000	-27928.980000	-15852.060000	-515.295000	-11510.640000	18.373970	1.397960	-3.161058	-4.186380	-5.060155	-4.624483	-1.730095	11.125493	3.753960	1.571780	-3.631880	0.918821	-0.218322	0.331481	-1.000000	-1.000000	-1.000000	-1.000000	-1.000000	-1.000000	-1.000000	71.310345	0.000000	-1.000000	-1.000000	2393618.000000	1770066284.619973
-24958.170000	-25423.290000	-28570.770000	-13188.825000	-27930.780000	-15854.580000	-509.895000	-11505.195000	14.115717	3.613207	-0.336704	-0.863222	-1.643251	-2.121978	-1.068744	8.673804	3.753960	1.571780	-3.631880	0.918821	-0.218322	0.331481	-1.000000	-1.000000	-1.000000	-1.000000	-1.000000	-1.000000	-1.000000	71.310345	0.000000	-1.000000	-1.000000	2393619.000000	1770066284.619986
-24961.860000	-25429.905000	-28573.560000	-13190.715000	-27933.030000	-15859.980000	-514.575000	-11506.815000	1.018964	1.214651	0.809992	1.193432	1.041365	-0.031958	-0.665505	3.684890	3.753960	1.571780	-3.631880	0.918821	-0.218322	0.331481	-1.000000	-1.000000	-1.000000	-1.000000	-1.000000	-1.000000	-1.000000	71.310345	0.000000	-1.000000	-1.000000	2393620.000000	1770066284.619990
-24944.895000	-25428.555000	-28580.085000	-13196.925000	-27936.945000	-15864.885000	-515.970000	-11521.530000	-13.720585	-2.794143	0.467838	1.320542	1.853546	1.027709	0.376930	0.670305	2.548420	4.028640	-0.946120	0.917051	-0.214416	0.328918	-1.000000	-1.000000	-1.000000	-1.000000	-1.000000	-1.000000	-1.000000	71.310345	0.000000	-1.000000	-1.000000	2393621.000000	1770066284.619996
-24923.115000	-25410.420000	-28573.200000	-13197.150000	-27937.575000	-15863.535000	-501.930000	-11497.815000	-19.063544	-3.795640	0.030262	0.396439	1.262607	1.419601	2.087594	0.489824	2.548420	4.028640	-0.946120	0.917051	-0.214416	0.328918	-1.000000	-1.000000	-1.000000	-1.000000	-1.000000	-1.000000	-1.000000	71.310345	0.000000	-1.000000	-1.000000	2393622.000000	1770066284.620001
-24938.505000	-25411.455000	-28564.290000	-13185.270000	-27925.695000	-15855.705000	-501.480000	-11507.490000	-11.056339	-0.137949	0.774920	0.011842	0.785944	2.079905	4.058066	2.375145	2.548420	4.028640	-0.946120	0.917051	-0.214416	0.328918	-1.000000	-1.000000	-1.000000	-1.000000	-1.000000	-1.000000	-1.000000	71.310345	0.000000	-1.000000	-1.000000	2393623.000000	1770066284.621170
-24961.095000	-25416.360000	-28555.020000	-13167.270000	-27904.635000	-15841.575000	-506.565000	-11563.425000	1.365724	4.671325	2.652924	1.270862	1.739928	3.536259	5.407595	3.853571	2.548420	4.028640	-0.946120	0.917051	-0.214416	0.328918	-1.000000	-1.000000	-1.000000	-1.000000	-1.000000	-1.000000	-1.000000	71.310345	0.000000	-1.000000	-1.000000	2393624.000000	1770066284.621181
-25021.305000	-25419.105000	-28533.240000	-13135.545000	-27869.445000	-15810.705000	-499.545000	-11662.830000	5.410127	5.829489	4.578398	4.093372	4.373122	5.519461	4.983844	-0.214436	2.548420	4.028640	-0.946120	0.917051	-0.214416	0.328918	-1.000000	-1.000000	-1.000000	-1.000000	-1.000000	-1.000000	-1.000000	71.310345	0.000000	-1.000000	-1.000000	2393625.000000	1770066284.625170
-25029.765000	-25418.025000	-28528.740000	-13129.920000	-27865.845000	-15809.265000	-502.515000	-11654.550000	-2.354531	2.390151	5.554029	7.143813	7.442830	7.110354	2.557366	-11.661606	2.548420	4.028640	-0.946120	0.917051	-0.214416	0.328918	-1.000000	-1.000000	-1.000000	-1.000000	-1.000000	-1.000000	-1.000000	71.310345	0.000000	-1.000000	-1.000000	2393626.000000	1770066284.625176
-24967.665000	-25424.280000	-28557.180000	-13162.410000	-27900.135000	-15841.665000	-496.755000	-11482.875000	-12.319851	-2.696953	4.354790	7.572579	7.798617	6.185068	-0.921820	-20.325217	2.548420	4.028640	-0.946120	0.917051	-0.214416	0.328918	-1.000000	-1.000000	-1.000000	-1.000000	-1.000000	-1.000000	-1.000000	71.310345	0.000000	-1.000000	-1.000000	2393627.000000	1770066284.629072
-24909.615000	-25425.855000	-28590.390000	-13206.375000	-27946.305000	-15883.875000	-500.310000	-11402.595000	-10.762318	-5.890801	-0.478506	2.276039	2.043234	0.308181	-4.005234	-10.498858	2.548420	4.028640	-0.946120	0.917051	-0.214416	0.328918	-1.000000	-1.000000	-1.000000	-1.000000	-1.000000	-1.000000	-1.000000	71.310345	0.000000	-1.000000	-1.000000	2393628.000000	1770066284.629078
-24962.985000	-25459.695000	-28624.005000	-13241.880000	-27981.540000	-15916.500000	-517.455000	-11458.530000	4.791436	-5.829097	-8.429675	-8.529324	-9.487286	-9.951731	-5.687641	17.021883	2.548420	4.028640	-0.946120	0.917051	-0.214416	0.328918	-1.000000	-1.000000	-1.000000	-1.000000	-1.000000	-1.000000	-1.000000	71.310345	0.000000	-1.000000	-1.000000	2393629.000000	1770066284.633404
-24919.515000	-25440.120000	-28612.170000	-13236.705000	-27979.560000	-15916.185000	-515.970000	-11457.630000	22.246199	-3.494280	-15.360420	-19.193886	-20.760554	-19.347653	-5.954489	40.354437	2.548420	4.028640	-0.946120	0.917051	-0.214416	0.328918	-1.000000	-1.000000	-1.000000	-1.000000	-1.000000	-1.000000	-1.000000	71.310345	0.000000	-1.000000	-1.000000	2393630.000000	1770066284.633415
-24911.055000	-25413.975000	-28583.820000	-13211.730000	-27962.730000	-15902.235000	-511.020000	-11472.570000	29.105077	0.184415	-15.467526	-21.597969	-23.430158	-20.922024	-5.008111	39.630558	-2.533160	5.920880	-0.198380	0.918333	-0.209167	0.330077	-1.000000	-1.000000	-1.000000	-1.000000	-1.000000	-1.000000	-1.000000	71.310345	0.000000	-1.000000	-1.000000	2393631.000000	1770066284.647927
-24935.490000	-25423.155000	-28584.000000	-13209.615000	-27960.795000	-15899.130000	-511.560000	-11481.480000	22.093895	4.607579	-6.578303	-12.153421	-13.900988	-11.853039	-2.675873	15.071212	-2.533160	5.920880	-0.198380	0.918333	-0.209167	0.330077	-1.000000	-1.000000	-1.000000	-1.000000	-1.000000	-1.000000	-1.000000	71.310345	0.000000	-1.000000	-1.000000	2393632.000000	1770066284.647940
-24977.340000	-25439.400000	-28586.250000	-13205.880000	-27947.115000	-15884.145000	-505.530000	-11494.485000	4.774573	7.528340	6.523592	4.024463	2.901336	3.506655	0.870275	-16.529780	-2.533160	5.920880	-0.198380	0.918333	-0.209167	0.330077	-1.000000	-1.000000	-1.000000	-1.000000	-1.000000	-1.000000	-1.000000	71.310345	0.000000	-1.000000	-1.000000	2393633.000000	1770066284.647954
-24988.500000	-25436.880000	-28578.015000	-13191.885000	-27930.285000	-15872.940000	-504.360000	-11518.965000	-14.901700	6.516168	15.874891	17.407511	17.765886	17.010716	4.478626	-36.414977	-2.533160	5.920880	-0.198380	0.918333	-0.209167	0.330077	-1.000000	-1.000000	-1.000000	-1.000000	-1.000000	-1.000000	-1.000000	71.310345	0.000000	-1.000000	-1.000000	2393634.000000	1770066284.647959
-24943.410000	-25418.205000	-28575.180000	-13190.400000	-27927.000000	-15875.370000	-505.890000	-11513.070000	-27.107512	2.383973	17.194577	21.993500	24.393220	22.725230	6.477088	-37.924107	-2.533160	5.920880	-0.198380	0.918333	-0.209167	0.330077	-1.000000	-1.000000	-1.000000	-1.000000	-1.000000	-1.000000	-1.000000	71.310345	0.000000	-1.000000	-1.000000	2393635.000000	1770066284.662849
-24958.440000	-25426.620000	-28582.560000	-13195.530000	-27934.020000	-15883.200000	-508.275000	-11510.280000	-26.794496	-1.496024	12.138883	18.375155	22.322783	19.976955	5.774231	-28.770419	-2.533160	5.920880	-0.198380	0.918333	-0.209167	0.330077	-1.000000	-1.000000	-1.000000	-1.000000	-1.000000	-1.000000	-1.000000	71.310345	0.000000	-1.000000	-1.000000	2393636.000000	1770066284.662862
-24924.330000	-25421.355000	-28590.750000	-13205.385000	-27948.240000	-15896.610000	-512.145000	-11486.745000	-16.797021	-2.776486	5.166689	10.876283	14.806750	12.067019	2.820114	-18.423292	-2.533160	5.920880	-0.198380	0.918333	-0.209167	0.330077	-1.000000	-1.000000	-1.000000	-1.000000	-1.000000	-1.000000	-1.000000	71.310345	0.000000	-1.000000	-1.000000	2393637.000000	1770066284.662873
-24955.740000	-25418.115000	-28580.850000	-13195.440000	-27942.345000	-15892.245000	-509.445000	-11500.470000	-2.952542	-1.320997	-0.191102	3.492029	5.513633	3.064769	-0.473300	-7.413709	-2.533160	5.920880	-0.198380	0.918333	-0.209167	0.330077	-1.000000	-1.000000	-1.000000	-1.000000	-1.000000	-1.000000	-1.000000	71.310345	0.000000	-1.000000	-1.000000	2393638.000000	1770066284.662879
-24978.375000	-25431.705000	-28589.805000	-13208.490000	-27951.300000	-15901.245000	-514.755000	-11518.110000	8.481217	0.797717	-3.299975	-2.409333	-3.269470	-4.551731	-2.465726	6.524780	-2.533160	5.920880	-0.198380	0.918333	-0.209167	0.330077	-1.000000	-1.000000	-1.000000	-1.000000	-1.000000	-1.000000	-1.000000	71.310345	0.000000	-1.000000	-1.000000	2393639.000000	1770066284.662884
-24958.935000	-25430.265000	-28590.030000	-13218.525000	-27949.500000	-15901.470000	-514.440000	-11513.520000	12.512138	0.332431	-6.006558	-7.934330	-10.702876	-10.251853	-3.099560	20.173957	-2.533160	5.920880	-0.198380	0.918333	-0.209167	0.330077	-1.000000	-1.000000	-1.000000	-1.000000	-1.000000	-1.000000	-1.000000	71.310345	0.000000	-1.000000	-1.000000	2393640.000000	1770066284.662890
-24966.675000	-25426.080000	-28592.460000	-13222.980000	-27942.030000	-15894.990000	-507.915000	-11507.265000	10.533164	-2.958111	-9.243122	-13.595224	-15.859919	-13.807894	-2.856678	28.509195	-2.655240	2.914660	-3.433500	0.917295	-0.208801	0.329040	-1.000000	-1.000000	-1.000000	-1.000000	-1.000000	-1.000000	-1.000000	71.310345	0.000000	-1.000000	-1.000000	2393641.000000	1770066284.662895
-24937.380000	-25423.965000	-28593.765000	-13213.980000	-27940.815000	-15896.250000	-508.905000	-11500.830000	8.591103	-5.465215	-11.317522	-17.161565	-17.281012	-14.457846	-1.892762	29.822214	-2.655240	2.914660	-3.433500	0.917295	-0.208801	0.329040	-1.000000	-1.000000	-1.000000	-1.000000	-1.000000	-1.000000	-1.000000	71.310345	0.000000	-1.000000	-1.000000	2393642.000000	1770066284.662900
-24931.080000	-25426.800000	-28591.245000	-13208.715000	-27943.380000	-15900.300000	-511.875000	-11498.490000	9.785623	-4.639010	-10.283684	-15.729292	-14.539533	-11.960530	-0.626360	24.710054	-2.655240	2.914660	-3.433500	0.917295	-0.208801	0.329040	-1.000000	-1.000000	-1.000000	-1.000000	-1.000000	-1.000000	-1.000000	71.310345	0.000000	-1.000000	-1.000000	2393643.000000	1770066284.662906
-24947.685000	-25426.170000	-28587.285000	-13195.170000	-27937.935000	-15900.660000	-513.360000	-11506.770000	10.533796	-1.569360	-5.695541	-8.397363	-8.331512	-6.710091	0.292032	13.184804	-2.655240	2.914660	-3.433500	0.917295	-0.208801	0.329040	-1.000000	-1.000000	-1.000000	-1.000000	-1.000000	-1.000000	-1.000000	71.310345	0.000000	-1.000000	-1.000000	2393644.000000	1770066284.662910
-24951.060000	-25429.455000	-28588.500000	-13190.265000	-27935.505000	-15900.795000	-512.820000	-11509.155000	5.232634	1.474521	1.485836	3.068198	0.430801	0.687354	0.687152	-4.150341	-2.655240	2.914660	-3.433500	0.917295	-0.208801	0.329040	-1.000000	-1.000000	-1.000000	-1.000000	-1.000000	-1.000000	-1.000000	71.310345	0.000000	-1.000000	-1.000000	2393645.000000	1770066284.674894
-24957.045000	-25428.780000	-28578.735000	-13191.075000	-27938.655000	-15903.900000	-510.165000	-11515.140000	-5.729444	3.364720	8.970267	14.359433	9.763644	8.576938	0.981120	-21.878356	-2.655240	2.914660	-3.433500	0.917295	-0.208801	0.329040	-1.000000	-1.000000	-1.000000	-1.000000	-1.000000	-1.000000	-1.000000	71.310345	0.000000	-1.000000	-1.000000	2393646.000000	1770066284.674906
-24966.180000	-25430.265000	-28582.785000	-13203.495000	-27942.840000	-15907.770000	-510.030000	-11523.420000	-15.606373	3.899579	13.544807	19.912717	15.924041	13.825764	1.490707	-31.223653	-2.655240	2.914660	-3.433500	0.917295	-0.208801	0.329040	-1.000000	-1.000000	-1.000000	-1.000000	-1.000000	-1.000000	-1.000000	71.310345	0.000000	-1.000000	-1.000000	2393647.000000	1770066284.674918
-24965.100000	-25426.080000	-28580.490000	-13202.055000	-27940.050000	-15907.950000	-510.120000	-11512.890000	-18.125720	3.194506	12.631650	16.482311	15.676122	13.686937	1.880031	-27.046546	-2.655240	2.914660	-3.433500	0.917295	-0.208801	0.329040	-1.000000	-1.000000	-1.000000	-1.000000	-1.000000	-1.000000	-1.000000	71.310345	0.000000	-1.000000	-1.000000	2393648.000000	1770066284.674923
-24954.795000	-25430.355000	-28594.440000	-13206.375000	-27945.135000	-15915.105000	-516.465000	-11501.865000	-12.241664	1.671032	6.250932	6.111728	9.078604	8.056985	1.512666	-11.636501	-2.655240	2.914660	-3.433500	0.917295	-0.208801	0.329040	-1.000000	-1.000000	-1.000000	-1.000000	-1.000000	-1.000000	-1.000000	71.310345	0.000000	-1.000000	-1.000000	2393649.000000	1770066284.677655
-24946.605000	-25431.615000	-28596.420000	-13198.635000	-27942.705000	-15912.855000	-513.765000	-11501.955000	-1.298266	-0.093344	-2.704124	-5.448858	-0.703498	-0.515455	0.099225	7.115647	-2.655240	2.914660	-3.433500	0.917295	-0.208801	0.329040	-1.000000	-1.000000	-1.000000	-1.000000	-1.000000	-1.000000	-1.000000	71.310345	0.000000	-1.000000	-1.000000	2393650.000000	1770066284.677666
-24949.530000	-25429.995000	-28585.665000	-13193.775000	-27941.985000	-15914.160000	-514.665000	-11509.155000	9.268621	-1.535381	-9.939402	-12.939574	-9.311914	-8.194638	-1.757504	20.266253	-8.377740	0.350980	-7.233240	0.910398	-0.214416	0.333800	-1.000000	-1.000000	-1.000000	-1.000000	-1.000000	-1.000000	-1.000000	71.310345	0.000000	-1.000000	-1.000000	2393651.000000	1770066284.677679
-24954.930000	-25429.410000	-28585.305000	-13197.330000	-27941.805000	-15914.970000	-515.295000	-11511.270000	14.044690	-2.181837	-11.994167	-14.209119	-13.095116	-11.543400	-2.826553	22.286660	-8.377740	0.350980	-7.233240	0.910398	-0.214416	0.333800	-1.000000	-1.000000	-1.000000	-1.000000	-1.000000	-1.000000	-1.000000	71.310345	0.000000	-1.000000	-1.000000	2393652.000000	1770066284.677684
-24949.710000	-25424.910000	-28582.695000	-13193.820000	-27935.505000	-15910.065000	-509.985000	-11505.420000	11.218895	-1.791293	-8.344821	-10.247897	-10.760010	-9.255835	-2.321920	13.625874	-8.377740	0.350980	-7.233240	0.910398	-0.214416	0.333800	-1.000000	-1.000000	-1.000000	-1.000000	-1.000000	-1.000000	-1.000000	71.310345	0.000000	-1.000000	-1.000000	2393653.000000	1770066284.694428
-24956.145000	-25428.195000	-28585.980000	-13197.690000	-27938.295000	-15914.790000	-510.390000	-11511.720000	3.853637	-0.499719	-1.527205	-3.650070	-3.890557	-2.844683	-0.462711	0.158391	-8.377740	0.350980	-7.233240	0.910398	-0.214416	0.333800	-1.000000	-1.000000	-1.000000	-1.000000	-1.000000	-1.000000	-1.000000	71.310345	0.000000	-1.000000	-1.000000	2393654.000000	1770066284.694442
-24971.535000	-25433.370000	-28590.885000	-13202.460000	-27943.740000	-15922.530000	-514.665000	-11537.325000	-3.389427	0.908649	4.541752	2.767533	3.836001	4.052329	1.594691	-10.925874	-8.377740	0.350980	-7.233240	0.910398	-0.214416	0.333800	-1.000000	-1.000000	-1.000000	-1.000000	-1.000000	-1.000000	-1.000000	71.310345	0.000000	-1.000000	-1.000000	2393655.000000	1770066284.694456
-24970.005000	-25432.380000	-28590.525000	-13203.405000	-27945.225000	-15927.930000	-518.535000	-11540.385000	-7.335504	1.384467	6.888395	6.832530	8.542745	7.707321	2.430679	-15.386277	-8.377740	0.350980	-7.233240	0.910398	-0.214416	0.333800	-1.000000	-1.000000	-1.000000	-1.000000	-1.000000	-1.000000	-1.000000	71.310345	0.000000	-1.000000	-1.000000	2393656.000000	1770066284.694461
-24958.170000	-25433.955000	-28593.315000	-13206.150000	-27947.520000	-15931.305000	-516.330000	-11504.700000	-6.946412	0.661258	5.285458	7.690873	8.389200	6.686643	1.634256	-12.409487	-8.377740	0.350980	-7.233240	0.910398	-0.214416	0.333800	-1.000000	-1.000000	-1.000000	-1.000000	-1.000000	-1.000000	-1.000000	71.310345	0.000000	-1.000000	-1.000000	2393657.000000	1770066284.694467
-24941.205000	-25416.900000	-28574.235000	-13188.330000	-27929.115000	-15914.520000	-502.965000	-11482.785000	-3.006423	-0.305207	2.121349	6.003856	4.562121	2.659956	0.301081	-3.403808	-8.377740	0.350980	-7.233240	0.910398	-0.214416	0.333800	-1.000000	-1.000000	-1.000000	-1.000000	-1.000000	-1.000000	-1.000000	71.310345	0.000000	-1.000000	-1.000000	2393658.000000	1770066284.694472
-24951.510000	-25424.370000	-28572.165000	-13182.525000	-27921.330000	-15908.895000	-502.695000	-11514.735000	2.125814	-0.303017	0.196930	3.343172	0.186732	-1.113874	-0.183879	7.314063	-8.377740	0.350980	-7.233240	0.910398	-0.214416	0.333800	-1.000000	-1.000000	-1.000000	-1.000000	-1.000000	-1.000000	-1.000000	71.310345	0.000000	-1.000000	-1.000000	2393659.000000	1770066284.694478
-24980.220000	-25446.915000	-28590.210000	-13197.285000	-27934.515000	-15921.540000	-512.505000	-11541.960000	4.872560	0.192467	-0.195696	0.654177	-2.465247	-2.667389	0.186826	12.959785	-8.377740	0.350980	-7.233240	0.910398	-0.214416	0.333800	-1.000000	-1.000000	-1.000000	-1.000000	-1.000000	-1.000000	-1.000000	71.310345	0.000000	-1.000000	-1.000000	2393660.000000	1770066284.694482
-24991.470000	-25440.975000	-28590.030000	-13201.290000	-27941.220000	-15928.380000	-508.725000	-11517.120000	2.768821	-0.443027	-0.939678	-2.156683	-3.558992	-2.601365	0.284510	9.785456	-7.675780	-4.867940	-7.904680	0.907285	-0.212158	0.341796	-1.000000	-1.000000	-1.000000	-1.000000	-1.000000	-1.000000	-1.000000	71.310345	0.000000	-1.000000	-1.000000	2393661.000000	1770066284.698662
-24986.925000	-25430.310000	-28581.840000	-13196.295000	-27937.620000	-15926.175000	-505.665000	-11505.105000	-2.613873	-1.922689	-2.514999	-4.637903	-4.015727	-2.251817	-0.388537	1.404694	-7.675780	-4.867940	-7.904680	0.907285	-0.212158	0.341796	-1.000000	-1.000000	-1.000000	-1.000000	-1.000000	-1.000000	-1.000000	71.310345	0.000000	-1.000000	-1.000000	2393662.000000	1770066284.698674
-24987.645000	-25438.905000	-28586.205000	-13198.815000	-27937.800000	-15929.325000	-508.410000	-11513.655000	-6.550865	-2.254017	-3.342205	-5.345790	-3.646008	-1.792408	-1.235199	-5.220419	-7.675780	-4.867940	-7.904680	0.907285	-0.212158	0.341796	-1.000000	-1.000000	-1.000000	-1.000000	-1.000000	-1.000000	-1.000000	71.310345	0.000000	-1.000000	-1.000000	2393663.000000	1770066284.709493
-25025.940000	-25457.805000	-28596.465000	-13205.970000	-27941.670000	-15934.005000	-509.760000	-11528.100000	-5.893657	-1.033566	-2.578316	-3.614390	-1.955117	-0.801794	-1.567772	-6.432971	-7.675780	-4.867940	-7.904680	0.907285	-0.212158	0.341796	-1.000000	-1.000000	-1.000000	-1.000000	-1.000000	-1.000000	-1.000000	71.310345	0.000000	-1.000000	-1.000000	2393664.000000	1770066284.709505
-24976.755000	-25428.780000	-28585.980000	-13202.190000	-27941.490000	-15936.390000	-514.170000	-11540.880000	-1.450102	0.546816	-0.928782	-0.483345	0.486484	0.540417	-1.242659	-3.841964	-7.675780	-4.867940	-7.904680	0.907285	-0.212158	0.341796	-1.000000	-1.000000	-1.000000	-1.000000	-1.000000	-1.000000	-1.000000	71.310345	0.000000	-1.000000	-1.000000	2393665.000000	1770066284.709518
-24906.915000	-25382.430000	-28561.005000	-13185.450000	-27930.645000	-15928.065000	-512.955000	-11561.130000	5.324000	2.709507	1.157351	2.561370	2.492869	1.596826	-0.651615	-2.013647	-7.675780	-4.867940	-7.904680	0.907285	-0.212158	0.341796	-1.000000	-1.000000	-1.000000	-1.000000	-1.000000	-1.000000	-1.000000	71.310345	0.000000	-1.000000	-1.000000	2393666.000000	1770066284.709524
-24972.750000	-25414.605000	-28572.480000	-13189.230000	-27930.915000	-15930.315000	-514.755000	-11551.365000	12.267987	5.746679	3.369192	4.348029	3.139159	1.755969	-0.379506	-3.381741	-7.675780	-4.867940	-7.904680	0.907285	-0.212158	0.341796	-1.000000	-1.000000	-1.000000	-1.000000	-1.000000	-1.000000	-1.000000	71.310345	0.000000	-1.000000	-1.000000	2393667.000000	1770066284.710892
-24946.335000	-25418.070000	-28571.085000	-13184.820000	-27925.245000	-15923.880000	-496.215000	-11449.215000	14.242454	6.992986	4.268995	3.991987	2.203357	0.889351	-0.253424	-3.510932	-7.675780	-4.867940	-7.904680	0.907285	-0.212158	0.341796	-1.000000	-1.000000	-1.000000	-1.000000	-1.000000	-1.000000	-1.000000	71.310345	0.000000	-1.000000	-1.000000	2393668.000000	1770066284.710904
-24914.430000	-25394.220000	-28541.745000	-13150.485000	-27889.290000	-15890.265000	-470.250000	-11437.065000	9.529510	4.509637	3.387927	2.402370	1.159923	0.392821	1.115169	4.120610	-7.675780	-4.867940	-7.904680	0.907285	-0.212158	0.341796	-1.000000	-1.000000	-1.000000	-1.000000	-1.000000	-1.000000	-1.000000	71.310345	0.000000	-1.000000	-1.000000	2393669.000000	1770066284.713295
-24966.045000	-25415.055000	-28552.095000	-13156.290000	-27893.025000	-15898.185000	-484.515000	-11524.095000	1.939149	-0.078192	2.172402	1.807207	2.031085	1.929818	4.026811	15.217526	-7.675780	-4.867940	-7.904680	0.907285	-0.212158	0.341796	-1.000000	-1.000000	-1.000000	-1.000000	-1.000000	-1.000000	-1.000000	71.310345	0.000000	-1.000000	-1.000000	2393670.000000	1770066284.713305
-24987.105000	-25417.215000	-28563.570000	-13171.725000	-27910.305000	-15918.885000	-504.540000	-11603.520000	-6.447081	-4.892525	0.812435	1.983679	3.761904	4.010346	5.611102	15.505326	-10.178420	-2.639980	-0.549360	0.910215	-0.205688	0.343566	-1.000000	-1.000000	-1.000000	-1.000000	-1.000000	-1.000000	-1.000000	71.310345	0.000000	-1.000000	-1.000000	2393671.000000	1770066284.724510
-24970.635000	-25415.640000	-28581.525000	-13203.045000	-27947.295000	-15955.380000	-517.320000	-11555.235000	-14.242295	-8.429983	-1.905135	0.225318	2.581453	2.803777	2.852894	0.129179	-10.178420	-2.639980	-0.549360	0.910215	-0.205688	0.343566	-1.000000	-1.000000	-1.000000	-1.000000	-1.000000	-1.000000	-1.000000	71.310345	0.000000	-1.000000	-1.000000	2393672.000000	1770066284.724525
-24943.680000	-25428.465000	-28596.060000	-13216.320000	-27956.790000	-15961.635000	-510.435000	-11480.490000	-16.606536	-8.861598	-5.774743	-4.552055	-3.140693	-2.919935	-3.140150	-16.856858	-10.178420	-2.639980	-0.549360	0.910215	-0.205688	0.343566	-1.000000	-1.000000	-1.000000	-1.000000	-1.000000	-1.000000	-1.000000	71.310345	0.000000	-1.000000	-1.000000	2393673.000000	1770066284.724542
-24934.320000	-25421.625000	-28576.260000	-13188.780000	-27925.380000	-15930.765000	-492.615000	-11472.210000	-11.256288	-6.566348	-8.774520	-9.596071	-9.849897	-9.225440	-7.701653	-18.628782	-10.178420	-2.639980	-0.549360	0.910215	-0.205688	0.343566	-1.000000	-1.000000	-1.000000	-1.000000	-1.000000	-1.000000	-1.000000	71.310345	0.000000	-1.000000	-1.000000	2393674.000000	1770066284.724548
-24961.410000	-25430.490000	-28569.105000	-13171.950000	-27902.340000	-15916.365000	-496.395000	-11510.190000	-3.104293	-3.940238	-8.527467	-10.349604	-11.466223	-10.294014	-7.215111	-4.883145	-10.178420	-2.639980	-0.549360	0.910215	-0.205688	0.343566	-1.000000	-1.000000	-1.000000	-1.000000	-1.000000	-1.000000	-1.000000	71.310345	0.000000	-1.000000	-1.000000	2393675.000000	1770066284.739478
-24915.780000	-25436.790000	-28584.945000	-13185.855000	-27912.105000	-15934.230000	-516.015000	-11514.105000	2.932126	-1.774628	-4.363044	-5.218575	-5.758702	-4.728871	-2.802262	9.930471	-10.178420	-2.639980	-0.549360	0.910215	-0.205688	0.343566	-1.000000	-1.000000	-1.000000	-1.000000	-1.000000	-1.000000	-1.000000	71.310345	0.000000	-1.000000	-1.000000	2393676.000000	1770066284.739493
-24990.480000	-25439.670000	-28583.910000	-13184.370000	-27906.345000	-15936.615000	-512.955000	-11504.205000	6.098369	0.972049	1.537096	2.354972	3.122350	2.839383	1.169563	12.776361	-10.178420	-2.639980	-0.549360	0.910215	-0.205688	0.343566	-1.000000	-1.000000	-1.000000	-1.000000	-1.000000	-1.000000	-1.000000	71.310345	0.000000	-1.000000	-1.000000	2393677.000000	1770066284.739507
-24984.675000	-25414.920000	-28577.520000	-13186.395000	-27910.755000	-15943.050000	-505.170000	-11482.605000	5.380317	4.586666	5.968825	7.327994	8.920779	6.778775	2.063080	3.751380	-10.178420	-2.639980	-0.549360	0.910215	-0.205688	0.343566	-1.000000	-1.000000	-1.000000	-1.000000	-1.000000	-1.000000	-1.000000	71.310345	0.000000	-1.000000	-1.000000	2393678.000000	1770066284.739512
-24898.815000	-25373.610000	-28566.315000	-13192.470000	-27928.890000	-15950.745000	-493.965000	-11506.995000	2.842812	8.866275	7.689771	7.542771	8.537250	5.554035	1.403126	-5.858719	-10.178420	-2.639980	-0.549360	0.910215	-0.205688	0.343566	-1.000000	-1.000000	-1.000000	-1.000000	-1.000000	-1.000000	-1.000000	71.310345	0.000000	-1.000000	-1.000000	2393679.000000	1770066284.739518
-24969.285000	-25401.015000	-28574.460000	-13193.370000	-27926.865000	-15944.355000	-476.955000	-11605.680000	4.167468	12.945090	7.671735	4.820765	3.787201	2.269362	2.468412	-7.821905	-10.178420	-2.639980	-0.549360	0.910215	-0.205688	0.343566	-1.000000	-1.000000	-1.000000	-1.000000	-1.000000	-1.000000	-1.000000	71.310345	0.000000	-1.000000	-1.000000	2393680.000000	1770066284.739524
-24978.645000	-25406.640000	-28567.215000	-13185.315000	-27924.705000	-15937.380000	-454.905000	-11599.740000	7.692608	13.463383	6.979469	2.716151	-0.509399	1.256224	6.355033	-6.001775	-1.266580	3.662400	3.952340	0.924558	-0.209838	0.334533	-1.000000	-1.000000	-1.000000	-1.000000	-1.000000	-1.000000	-1.000000	71.310345	0.000000	-1.000000	-1.000000	2393681.000000	1770066284.753480
-24935.715000	-25380.090000	-28521.315000	-13129.695000	-27868.905000	-15883.650000	-450.810000	-11575.215000	6.667940	8.038805	6.201995	3.615689	-0.527146	4.164145	10.413173	-6.674778	-1.266580	3.662400	3.952340	0.924558	-0.209838	0.334533	-1.000000	-1.000000	-1.000000	-1.000000	-1.000000	-1.000000	-1.000000	71.310345	0.000000	-1.000000	-1.000000	2393682.000000	1770066284.753494
-24957.180000	-25411.815000	-28553.355000	-13156.380000	-27893.790000	-15922.890000	-530.730000	-11523.240000	0.410464	-1.387679	4.888461	6.219588	2.901813	7.976236	9.264678	-7.148964	-1.266580	3.662400	3.952340	0.924558	-0.209838	0.334533	-1.000000	-1.000000	-1.000000	-1.000000	-1.000000	-1.000000	-1.000000	71.310345	0.000000	-1.000000	-1.000000	2393683.000000	1770066284.753509
-25031.340000	-25477.380000	-28628.820000	-13233.195000	-27965.700000	-15986.970000	-543.240000	-11487.375000	-7.536411	-11.767237	0.011149	4.811989	3.658470	6.189268	-0.599226	-0.247563	-1.266580	3.662400	3.952340	0.924558	-0.209838	0.334533	-1.000000	-1.000000	-1.000000	-1.000000	-1.000000	-1.000000	-1.000000	71.310345	0.000000	-1.000000	-1.000000	2393684.000000	1770066284.753514
-24939.720000	-25464.465000	-28637.190000	-13247.865000	-27972.630000	-15980.535000	-484.740000	-11446.560000	-13.349663	-20.143537	-10.099425	-4.694159	-3.177546	-3.986850	-13.863347	14.100218	-1.266580	3.662400	3.952340	0.924558	-0.209838	0.334533	-1.000000	-1.000000	-1.000000	-1.000000	-1.000000	-1.000000	-1.000000	71.310345	0.000000	-1.000000	-1.000000	2393685.000000	1770066284.753521
-24957.180000	-25444.395000	-28612.125000	-13218.930000	-27934.515000	-15948.225000	-439.515000	-11518.110000	-11.446862	-21.852298	-20.020631	-17.170915	-13.316751	-15.661205	-18.805285	25.484187	-1.266580	3.662400	3.952340	0.924558	-0.209838	0.334533	-1.000000	-1.000000	-1.000000	-1.000000	-1.000000	-1.000000	-1.000000	71.448276	0.000000	-1.000000	-1.000000	2393686.000000	1770066284.753526
-24919.020000	-25363.125000	-28542.285000	-13156.200000	-27877.005000	-15903.990000	-414.495000	-11512.395000	-0.346766	-13.167896	-20.350987	-21.173848	-15.980239	-18.016519	-9.856814	22.666297	-1.266580	3.662400	3.952340	0.924558	-0.209838	0.334533	-1.000000	-1.000000	-1.000000	-1.000000	-1.000000	-1.000000	-1.000000	71.448276	0.000000	-1.000000	-1.000000	2393687.000000	1770066284.753532
-24898.995000	-25317.945000	-28489.905000	-13101.570000	-27830.295000	-15877.440000	-471.645000	-11477.115000	12.768444	4.543719	-6.513394	-9.612061	-4.733832	-6.916220	5.819871	7.537426	-1.266580	3.662400	3.952340	0.924558	-0.209838	0.334533	-1.000000	-1.000000	-1.000000	-1.000000	-1.000000	-1.000000	-1.000000	71.448276	0.000000	-1.000000	-1.000000	2393688.000000	1770066284.753537
-24922.575000	-25387.560000	-28543.095000	-13148.460000	-27890.595000	-15932.430000	-523.935000	-11476.035000	19.764395	22.971791	14.948817	12.050528	14.494869	10.404534	14.353858	-6.405483	-1.266580	3.662400	3.952340	0.924558	-0.209838	0.334533	-1.000000	-1.000000	-1.000000	-1.000000	-1.000000	-1.000000	-1.000000	71.448276	0.000000	-1.000000	-1.000000	2393689.000000	1770066284.753542
-24974.370000	-25415.910000	-28563.030000	-13164.165000	-27917.640000	-15941.970000	-503.325000	-11484.540000	16.346727	29.581354	28.661561	27.754268	26.066032	20.196502	8.343426	-11.402759	-1.266580	3.662400	3.952340	0.924558	-0.209838	0.334533	-1.000000	-1.000000	-1.000000	-1.000000	-1.000000	-1.000000	-1.000000	71.448276	0.000000	-1.000000	-1.000000	2393690.000000	1770066284.753547
-24959.970000	-25416.405000	-28582.740000	-13193.415000	-27943.155000	-15965.730000	-514.620000	-11483.640000	2.089498	18.180695	23.360612	24.368891	18.608986	14.196505	-5.493370	-11.737331	-2.105880	6.363420	-0.259420	0.934995	-0.217712	0.328429	-1.000000	-1.000000	-1.000000	-1.000000	-1.000000	-1.000000	-1.000000	71.448276	0.000000	-1.000000	-1.000000	2393691.000000	1770066284.769523
-24960.105000	-25424.910000	-28602.765000	-13215.375000	-27951.480000	-15975.630000	-517.950000	-11511.270000	-15.316298	-3.210082	2.985808	4.015909	-3.266759	-2.543358	-13.766273	-13.677373	-2.105880	6.363420	-0.259420	0.934995	-0.217712	0.328429	-1.000000	-1.000000	-1.000000	-1.000000	-1.000000	-1.000000	-1.000000	71.448276	0.000000	-1.000000	-1.000000	2393692.000000	1770066284.769537
-24963.795000	-25420.005000	-28601.730000	-13215.285000	-27943.650000	-15974.640000	-521.010000	-11516.265000	-23.709320	-19.184986	-16.946770	-17.795848	-22.667358	-16.358637	-9.954285	-18.249126	-2.105880	6.363420	-0.259420	0.934995	-0.217712	0.328429	-1.000000	-1.000000	-1.000000	-1.000000	-1.000000	-1.000000	-1.000000	71.448276	0.000000	-1.000000	-1.000000	2393693.000000	1770066284.769552
-24948.495000	-25436.070000	-28619.370000	-13228.425000	-27954.765000	-15986.295000	-526.545000	-11484.540000	-18.879105	-21.159825	-23.777393	-26.466569	-26.285362	-17.926833	0.536786	-20.908522	-2.105880	6.363420	-0.259420	0.934995	-0.217712	0.328429	-1.000000	-1.000000	-1.000000	-1.000000	-1.000000	-1.000000	-1.000000	71.448276	0.000000	-1.000000	-1.000000	2393694.000000	1770066284.769557
-24905.745000	-25422.120000	-28616.850000	-13227.210000	-27954.855000	-15984.450000	-517.320000	-11466.945000	-5.695147	-12.974275	-17.569972	-20.207788	-15.477273	-9.562441	7.725796	-14.476130	-2.105880	6.363420	-0.259420	0.934995	-0.217712	0.328429	-1.000000	-1.000000	-1.000000	-1.000000	-1.000000	-1.000000	-1.000000	71.448276	0.000000	-1.000000	-1.000000	2393695.000000	1770066284.769563
-24898.455000	-25406.865000	-28609.470000	-13242.285000	-27949.230000	-15971.805000	-507.600000	-11476.620000	8.577304	-3.962273	-7.060641	-7.849519	-1.109993	0.532069	7.837389	2.535033	-2.105880	6.363420	-0.259420	0.934995	-0.217712	0.328429	-1.000000	-1.000000	-1.000000	-1.000000	-1.000000	-1.000000	-1.000000	71.448276	0.000000	-1.000000	-1.000000	2393696.000000	1770066284.769568
-24931.080000	-25430.760000	-28622.295000	-13260.600000	-27940.545000	-15963.120000	-498.060000	-11490.480000	16.805359	0.463748	0.597964	1.544137	8.538156	7.330120	5.445764	21.173025	-2.105880	6.363420	-0.259420	0.934995	-0.217712	0.328429	-1.000000	-1.000000	-1.000000	-1.000000	-1.000000	-1.000000	-1.000000	71.448276	0.000000	-1.000000	-1.000000	2393697.000000	1770066284.769574
-24930.405000	-25424.730000	-28622.655000	-13258.665000	-27955.170000	-15972.435000	-487.215000	-11476.395000	15.676228	2.124932	4.863330	5.936270	12.772629	10.931984	6.048408	30.112789	-2.105880	6.363420	-0.259420	0.934995	-0.217712	0.328429	-1.000000	-1.000000	-1.000000	-1.000000	-1.000000	-1.000000	-1.000000	71.448276	0.000000	-1.000000	-1.000000	2393698.000000	1770066284.769578
-24968.610000	-25433.145000	-28626.390000	-13245.570000	-27964.215000	-15977.340000	-487.260000	-11523.600000	7.713791	5.248626	8.461646	8.830426	13.931904	12.214469	9.013482	24.818866	-2.105880	6.363420	-0.259420	0.934995	-0.217712	0.328429	-1.000000	-1.000000	-1.000000	-1.000000	-1.000000	-1.000000	-1.000000	71.448276	0.000000	-1.000000	-1.000000	2393699.000000	1770066284.773921
-24967.035000	-25421.355000	-28601.595000	-13207.005000	-27943.830000	-15967.845000	-505.530000	-11535.435000	-2.509638	10.082111	12.428436	13.346779	12.909045	10.769569	9.532923	8.316877	-2.105880	6.363420	-0.259420	0.934995	-0.217712	0.328429	-1.000000	-1.000000	-1.000000	-1.000000	-1.000000	-1.000000	-1.000000	71.448276	0.000000	-1.000000	-1.000000	2393700.000000	1770066284.773934
-24968.250000	-25420.725000	-28593.315000	-13200.345000	-27939.060000	-15967.395000	-513.585000	-11498.580000	-10.260360	13.744537	16.085073	19.436141	10.393072	7.253426	4.875395	-10.253226	3.326680	8.743980	-5.966660	0.938596	-0.218933	0.315002	-1.000000	-1.000000	-1.000000	-1.000000	-1.000000	-1.000000	-1.000000	71.448276	0.000000	-1.000000	-1.000000	2393701.000000	1770066284.784953
-24990.615000	-25430.445000	-28605.015000	-13226.355000	-27976.230000	-15976.845000	-504.720000	-11487.555000	-12.264101	13.622440	17.390673	22.883877	6.528839	2.963426	-3.585906	-20.100051	3.326680	8.743980	-5.966660	0.938596	-0.218933	0.315002	-1.000000	-1.000000	-1.000000	-1.000000	-1.000000	-1.000000	-1.000000	71.448276	0.000000	-1.000000	-1.000000	2393702.000000	1770066284.784966
-24974.865000	-25443.045000	-28624.140000	-13265.865000	-28016.190000	-15988.365000	-495.315000	-11488.770000	-9.362215	8.168678	12.874262	17.145269	-0.623438	-2.139222	-11.877090	-17.313817	3.326680	8.743980	-5.966660	0.938596	-0.218933	0.315002	-1.000000	-1.000000	-1.000000	-1.000000	-1.000000	-1.000000	-1.000000	71.448276	0.000000	-1.000000	-1.000000	2393703.000000	1770066284.784979
-24972.705000	-25456.140000	-28630.755000	-13271.670000	-27997.020000	-15979.860000	-496.080000	-11524.995000	-4.588648	-2.351651	1.036963	0.352014	-11.120187	-8.020109	-16.066383	-7.175371	3.326680	8.743980	-5.966660	0.938596	-0.218933	0.315002	-1.000000	-1.000000	-1.000000	-1.000000	-1.000000	-1.000000	-1.000000	71.448276	0.000000	-1.000000	-1.000000	2393704.000000	1770066284.784984
-24967.080000	-25412.535000	-28587.645000	-13223.205000	-27935.640000	-15950.790000	-492.030000	-11531.745000	0.091761	-13.986070	-13.786271	-19.520304	-19.019189	-12.513260	-14.419324	2.136548	3.326680	8.743980	-5.966660	0.938596	-0.218933	0.315002	-1.000000	-1.000000	-1.000000	-1.000000	-1.000000	-1.000000	-1.000000	71.448276	0.000000	-1.000000	-1.000000	2393705.000000	1770066284.787836
-24929.820000	-25393.815000	-28591.470000	-13222.215000	-27915.750000	-15947.325000	-472.770000	-11486.745000	5.288030	-18.812807	-22.683359	-29.465172	-16.540255	-12.219431	-7.454483	6.952670	3.326680	8.743980	-5.966660	0.938596	-0.218933	0.315002	-1.000000	-1.000000	-1.000000	-1.000000	-1.000000	-1.000000	-1.000000	71.448276	0.000000	-1.000000	-1.000000	2393706.000000	1770066284.787848
-24971.625000	-25423.605000	-28607.625000	-13221.090000	-27916.470000	-15955.605000	-472.455000	-11483.550000	11.652562	-12.305783	-20.297516	-23.629586	-3.017488	-6.286000	2.111392	9.056704	3.326680	8.743980	-5.966660	0.938596	-0.218933	0.315002	-1.000000	-1.000000	-1.000000	-1.000000	-1.000000	-1.000000	-1.000000	71.448276	0.000000	-1.000000	-1.000000	2393707.000000	1770066284.799999
-25006.545000	-25455.105000	-28623.780000	-13230.720000	-27957.060000	-15983.820000	-492.615000	-11525.625000	15.353059	-0.318245	-10.248426	-8.429861	12.292397	1.381005	9.731709	9.919006	3.326680	8.743980	-5.966660	0.938596	-0.218933	0.315002	-1.000000	-1.000000	-1.000000	-1.000000	-1.000000	-1.000000	-1.000000	71.448276	0.000000	-1.000000	-1.000000	2393708.000000	1770066284.800012
-24987.645000	-25457.175000	-28635.615000	-13269.285000	-28018.260000	-16005.645000	-484.110000	-11533.230000	11.856946	7.392890	-0.296854	4.557558	17.151642	5.275190	12.146507	7.686640	3.326680	8.743980	-5.966660	0.938596	-0.218933	0.315002	-1.000000	-1.000000	-1.000000	-1.000000	-1.000000	-1.000000	-1.000000	71.448276	0.000000	-1.000000	-1.000000	2393709.000000	1770066284.800026
-24863.265000	-25356.915000	-28559.520000	-13226.040000	-27979.200000	-15944.310000	-419.355000	-11457.945000	4.484795	8.711010	5.921954	8.956195	7.835834	4.363707	10.481455	1.774773	3.326680	8.743980	-5.966660	0.938596	-0.218933	0.315002	-1.000000	-1.000000	-1.000000	-1.000000	-1.000000	-1.000000	-1.000000	71.448276	0.000000	-1.000000	-1.000000	2393710.000000	1770066284.800032
-24856.695000	-25346.430000	-28544.175000	-13216.005000	-27967.770000	-15937.605000	-426.150000	-11434.680000	1.650392	9.362350	10.780267	8.018424	-5.919509	3.246015	7.991406	-3.527325	-15.519420	-1.648080	-4.928980	0.926389	-0.210937	0.319823	-1.000000	-1.000000	-1.000000	-1.000000	-1.000000	-1.000000	-1.000000	71.448276	0.000000	-1.000000	-1.000000	2393711.000000	1770066284.800037
-24954.570000	-25401.690000	-28582.965000	-13240.395000	-27981.090000	-15981.300000	-482.355000	-11510.055000	2.892156	11.320189	15.241848	7.671117	-11.692577	4.504989	4.240708	-4.950789	-15.519420	-1.648080	-4.928980	0.926389	-0.210937	0.319823	-1.000000	-1.000000	-1.000000	-1.000000	-1.000000	-1.000000	-1.000000	71.448276	0.000000	-1.000000	-1.000000	2393712.000000	1770066284.800042
-25099.515000	-25493.670000	-28630.665000	-13253.715000	-27986.355000	-16003.080000	-519.075000	-11567.520000	-3.579943	7.457941	13.845446	7.648041	-8.012501	4.034779	-4.110438	-5.616470	-15.519420	-1.648080	-4.928980	0.926389	-0.210937	0.319823	-1.000000	-1.000000	-1.000000	-1.000000	-1.000000	-1.000000	-1.000000	71.448276	0.000000	-1.000000	-1.000000	2393713.000000	1770066284.806565
-25029.090000	-25544.655000	-28692.900000	-13288.320000	-28010.970000	-16031.610000	-500.265000	-11488.590000	-22.323579	-8.186944	1.483465	3.577872	-2.796661	-2.256291	-15.512033	-8.173431	-15.519420	-1.648080	-4.928980	0.926389	-0.210937	0.319823	-1.000000	-1.000000	-1.000000	-1.000000	-1.000000	-1.000000	-1.000000	71.448276	0.000000	-1.000000	-1.000000	2393714.000000	1770066284.806578
-24927.705000	-25460.640000	-28653.480000	-13248.000000	-27956.970000	-16005.420000	-481.680000	-11458.440000	-37.524759	-27.792919	-16.906500	-4.645316	-1.298604	-11.181191	-22.091901	-8.687256	-15.519420	-1.648080	-4.928980	0.926389	-0.210937	0.319823	-1.000000	-1.000000	-1.000000	-1.000000	-1.000000	-1.000000	-1.000000	71.448276	0.000000	-1.000000	-1.000000	2393715.000000	1770066284.806767
-24916.995000	-25402.005000	-28628.505000	-13232.295000	-27933.840000	-16005.150000	-509.175000	-11477.970000	-29.028163	-32.563656	-27.119206	-10.552218	-0.185309	-14.469894	-17.890064	-3.243659	-15.519420	-1.648080	-4.928980	0.926389	-0.210937	0.319823	-1.000000	-1.000000	-1.000000	-1.000000	-1.000000	-1.000000	-1.000000	71.448276	0.000000	-1.000000	-1.000000	2393716.000000	1770066284.806773
-24953.850000	-25390.305000	-28591.290000	-13186.530000	-27885.195000	-15969.960000	-511.380000	-11501.865000	2.224176	-12.537625	-18.785676	-7.781882	6.201853	-6.911090	-4.809489	5.543370	-15.519420	-1.648080	-4.928980	0.926389	-0.210937	0.319823	-1.000000	-1.000000	-1.000000	-1.000000	-1.000000	-1.000000	-1.000000	71.448276	0.000000	-1.000000	-1.000000	2393717.000000	1770066284.815316
-24927.390000	-25373.160000	-28570.770000	-13174.695000	-27893.925000	-15965.550000	-524.205000	-11575.170000	33.583389	20.126989	3.916540	3.277584	17.089258	8.317547	9.447502	10.025867	-15.519420	-1.648080	-4.928980	0.926389	-0.210937	0.319823	-1.000000	-1.000000	-1.000000	-1.000000	-1.000000	-1.000000	-1.000000	71.448276	0.000000	-1.000000	-1.000000	2393718.000000	1770066284.815326
-24974.145000	-25379.730000	-28578.240000	-13195.350000	-27936.540000	-15975.720000	-514.530000	-11644.830000	42.238261	41.605998	25.235922	14.573228	23.254798	20.789974	16.823578	2.601906	-15.519420	-1.648080	-4.928980	0.926389	-0.210937	0.319823	-1.000000	-1.000000	-1.000000	-1.000000	-1.000000	-1.000000	-1.000000	71.448276	0.000000	-1.000000	-1.000000	2393719.000000	1770066284.820316
-24952.590000	-25407.495000	-28612.665000	-13247.640000	-27978.795000	-15978.870000	-446.805000	-11494.575000	24.107942	37.470439	30.593171	15.991254	15.068432	21.287199	15.940346	-12.842822	-15.519420	-1.648080	-4.928980	0.926389	-0.210937	0.319823	-1.000000	-1.000000	-1.000000	-1.000000	-1.000000	-1.000000	-1.000000	71.448276	0.000000	-1.000000	-1.000000	2393720.000000	1770066284.820329
-24882.705000	-25405.290000	-28633.905000	-13282.155000	-27983.835000	-15976.665000	-409.680000	-11363.670000	-2.398686	13.454620	17.920784	4.482294	-6.088629	10.597744	13.858332	-16.012870	-30.275840	-2.029580	-9.339120	0.924619	-0.191467	0.339660	-1.000000	-1.000000	-1.000000	-1.000000	-1.000000	-1.000000	-1.000000	71.448276	0.000000	-1.000000	-1.000000	2393721.000000	1770066284.820343
-24966.630000	-25421.445000	-28623.690000	-13255.560000	-27939.690000	-15980.805000	-473.265000	-11454.075000	-14.818521	-11.970838	-2.151472	-12.403726	-27.019972	-2.887151	14.895665	5.164956	-30.275840	-2.029580	-9.339120	0.924619	-0.191467	0.339660	-1.000000	-1.000000	-1.000000	-1.000000	-1.000000	-1.000000	-1.000000	71.448276	0.000000	-1.000000	-1.000000	2393722.000000	1770066284.820348
-25043.535000	-25436.520000	-28600.290000	-13196.880000	-27876.465000	-15966.180000	-519.480000	-11510.955000	-12.766757	-24.806965	-15.713777	-21.693441	-32.980594	-11.685100	12.315010	31.098386	-30.275840	-2.029580	-9.339120	0.924619	-0.191467	0.339660	-1.000000	-1.000000	-1.000000	-1.000000	-1.000000	-1.000000	-1.000000	71.448276	0.000000	-1.000000	-1.000000	2393723.000000	1770066284.821294
-25002.945000	-25429.455000	-28601.235000	-13180.635000	-27876.420000	-15979.095000	-533.070000	-11517.300000	-12.103462	-24.789708	-16.526514	-15.897205	-19.961305	-13.510414	-0.947243	33.269747	-30.275840	-2.029580	-9.339120	0.924619	-0.191467	0.339660	-1.000000	-1.000000	-1.000000	-1.000000	-1.000000	-1.000000	-1.000000	71.448276	0.000000	-1.000000	-1.000000	2393724.000000	1770066284.821305
-24898.995000	-25386.570000	-28595.160000	-13197.015000	-27938.790000	-15976.800000	-479.385000	-11475.405000	-15.497962	-18.329520	-9.174578	-0.488944	0.885163	-10.647887	-18.653708	9.873725	-30.275840	-2.029580	-9.339120	0.924619	-0.191467	0.339660	-1.000000	-1.000000	-1.000000	-1.000000	-1.000000	-1.000000	-1.000000	71.448276	0.000000	-1.000000	-1.000000	2393725.000000	1770066284.828128
-24882.795000	-25382.745000	-28616.760000	-13285.305000	-28057.005000	-15983.145000	-440.325000	-11448.315000	-10.904416	-9.008101	-2.256465	10.712816	12.182854	-6.661606	-26.208705	-16.592873	-30.275840	-2.029580	-9.339120	0.924619	-0.191467	0.339660	-1.000000	-1.000000	-1.000000	-1.000000	-1.000000	-1.000000	-1.000000	71.448276	0.000000	-1.000000	-1.000000	2393726.000000	1770066284.828140
-24876.945000	-25384.410000	-28616.220000	-13328.730000	-28066.770000	-15989.445000	-466.155000	-11452.590000	4.590557	0.901464	-0.991207	7.644945	5.995702	-3.852928	-17.613879	-25.989110	-30.275840	-2.029580	-9.339120	0.924619	-0.191467	0.339660	-1.000000	-1.000000	-1.000000	-1.000000	-1.000000	-1.000000	-1.000000	71.448276	0.000000	-1.000000	-1.000000	2393727.000000	1770066284.832067
-24927.390000	-25419.465000	-28657.890000	-13377.780000	-28088.415000	-16039.845000	-527.580000	-11485.890000	19.052572	7.517738	-4.617130	-6.758399	-8.281897	-3.016407	-2.567430	-17.250726	-30.275840	-2.029580	-9.339120	0.924619	-0.191467	0.339660	-1.000000	-1.000000	-1.000000	-1.000000	-1.000000	-1.000000	-1.000000	71.448276	0.000000	-1.000000	-1.000000	2393728.000000	1770066284.832079
-24915.870000	-25394.490000	-28651.455000	-13367.340000	-28074.645000	-16019.235000	-477.945000	-11480.670000	20.694824	9.317837	-7.788886	-18.629226	-14.020755	-3.236115	5.320625	-5.254836	-30.275840	-2.029580	-9.339120	0.924619	-0.191467	0.339660	-1.000000	-1.000000	-1.000000	-1.000000	-1.000000	-1.000000	-1.000000	71.448276	0.000000	-1.000000	-1.000000	2393729.000000	1770066284.847981
-24882.615000	-25334.145000	-28576.305000	-13254.525000	-27936.675000	-15940.440000	-448.065000	-11567.340000	9.847255	10.034155	-4.149666	-14.365773	-2.518165	-0.694560	4.327610	-4.071512	-30.275840	-2.029580	-9.339120	0.924619	-0.191467	0.339660	-1.000000	-1.000000	-1.000000	-1.000000	-1.000000	-1.000000	-1.000000	71.448276	0.000000	-1.000000	-1.000000	2393730.000000	1770066284.847995
-24889.455000	-25333.515000	-28551.015000	-13189.050000	-27868.185000	-15928.020000	-449.640000	-11528.280000	-2.442887	13.789518	8.409698	8.319068	22.162031	8.069837	3.278029	-12.207942	-15.397340	3.921820	-9.537500	0.928037	-0.192687	0.338378	-1.000000	-1.000000	-1.000000	-1.000000	-1.000000	-1.000000	-1.000000	71.448276	0.000000	-1.000000	-1.000000	2393731.000000	1770066284.848009
-24938.415000	-25383.015000	-28580.355000	-13197.465000	-27875.745000	-15934.815000	-403.560000	-11379.825000	-7.833063	17.293805	22.589019	35.554076	44.488877	19.115914	8.229197	-13.702097	-15.397340	3.921820	-9.537500	0.928037	-0.192687	0.338378	-1.000000	-1.000000	-1.000000	-1.000000	-1.000000	-1.000000	-1.000000	71.448276	0.000000	-1.000000	-1.000000	2393732.000000	1770066284.848014
-25047.630000	-25441.740000	-28620.000000	-13201.920000	-27871.110000	-15936.750000	-387.495000	-11448.270000	-10.652445	11.252495	25.625350	46.622731	47.199365	23.171253	16.637937	2.424065	-15.397340	3.921820	-9.537500	0.928037	-0.192687	0.338378	-1.000000	-1.000000	-1.000000	-1.000000	-1.000000	-1.000000	-1.000000	71.448276	0.000000	-1.000000	-1.000000	2393733.000000	1770066284.848020
-25010.370000	-25476.525000	-28684.935000	-13245.120000	-27912.285000	-15992.190000	-453.555000	-11519.280000	-18.787787	-7.924004	11.323237	32.276189	26.854953	14.833444	19.440820	24.359058	-15.397340	3.921820	-9.537500	0.928037	-0.192687	0.338378	-1.000000	-1.000000	-1.000000	-1.000000	-1.000000	-1.000000	-1.000000	71.448276	0.000000	-1.000000	-1.000000	2393734.000000	1770066284.848025
-24900.525000	-25434.090000	-28675.485000	-13252.140000	-27918.540000	-16006.455000	-525.150000	-11476.080000	-26.874438	-30.337632	-13.395965	1.720572	-4.164647	-3.564452	7.678791	31.307253	-15.397340	3.921820	-9.537500	0.928037	-0.192687	0.338378	-1.000000	-1.000000	-1.000000	-1.000000	-1.000000	-1.000000	-1.000000	71.448276	0.000000	-1.000000	-1.000000	2393735.000000	1770066284.848030
-24915.510000	-25413.030000	-28662.795000	-13287.330000	-27944.190000	-16001.550000	-513.225000	-11489.130000	-20.481966	-38.919761	-32.589466	-26.853816	-30.053697	-22.482781	-15.727246	19.617964	-15.397340	3.921820	-9.537500	0.928037	-0.192687	0.338378	-1.000000	-1.000000	-1.000000	-1.000000	-1.000000	-1.000000	-1.000000	71.448276	0.000000	-1.000000	-1.000000	2393736.000000	1770066284.848035
-24980.895000	-25454.610000	-28703.025000	-13402.080000	-28079.820000	-16022.475000	-494.415000	-11512.080000	1.998122	-25.318403	-33.354932	-41.147177	-43.446933	-30.334729	-34.305242	0.529735	-15.397340	3.921820	-9.537500	0.928037	-0.192687	0.338378	-1.000000	-1.000000	-1.000000	-1.000000	-1.000000	-1.000000	-1.000000	71.448276	0.000000	-1.000000	-1.000000	2393737.000000	1770066284.860602
-24986.835000	-25454.340000	-28704.420000	-13489.470000	-28228.005000	-16044.930000	-498.645000	-11469.330000	24.687197	1.311451	-16.757390	-42.452661	-48.893613	-23.868669	-34.552578	-14.940810	-15.397340	3.921820	-9.537500	0.928037	-0.192687	0.338378	-1.000000	-1.000000	-1.000000	-1.000000	-1.000000	-1.000000	-1.000000	71.448276	0.000000	-1.000000	-1.000000	2393738.000000	1770066284.860614
-24958.215000	-25423.155000	-28695.240000	-13540.095000	-28304.190000	-16066.215000	-497.610000	-11454.840000	32.911215	24.001189	4.564800	-39.337588	-54.446236	-10.832764	-17.860648	-18.835329	-15.397340	3.921820	-9.537500	0.928037	-0.192687	0.338378	-1.000000	-1.000000	-1.000000	-1.000000	-1.000000	-1.000000	-1.000000	71.448276	0.000000	-1.000000	-1.000000	2393739.000000	1770066284.860626
-25000.155000	-25428.645000	-28716.525000	-13550.130000	-28277.640000	-16078.185000	-476.820000	-11505.105000	25.988354	33.154476	18.456641	-34.910617	-57.033860	-0.136108	5.393231	-11.108144	-15.397340	3.921820	-9.537500	0.928037	-0.192687	0.338378	-1.000000	-1.000000	-1.000000	-1.000000	-1.000000	-1.000000	-1.000000	71.448276	0.000000	-1.000000	-1.000000	2393740.000000	1770066284.860632
-24974.370000	-25443.585000	-28744.290000	-13551.570000	-28246.905000	-16094.655000	-449.640000	-11483.235000	12.393095	29.432598	20.852931	-23.258647	-41.566320	5.994942	24.617352	-2.702321	8.866060	6.470240	4.578000	0.934202	-0.214416	0.334472	-1.000000	-1.000000	-1.000000	-1.000000	-1.000000	-1.000000	-1.000000	71.448276	0.000000	-1.000000	-1.000000	2393741.000000	1770066284.860637
-24866.190000	-25379.235000	-28701.855000	-13504.770000	-28206.225000	-16069.770000	-432.450000	-11453.445000	2.639538	19.044147	16.004251	1.783435	0.738704	10.369113	33.069135	-0.141526	8.866060	6.470240	4.578000	0.934202	-0.214416	0.334472	-1.000000	-1.000000	-1.000000	-1.000000	-1.000000	-1.000000	-1.000000	71.448276	0.000000	-1.000000	-1.000000	2393742.000000	1770066284.860642
-24881.310000	-25369.740000	-28658.205000	-13414.050000	-28098.720000	-16025.265000	-418.185000	-11434.815000	1.324223	8.955381	12.243244	38.217879	59.444297	16.676919	30.455516	2.071356	8.866060	6.470240	4.578000	0.934202	-0.214416	0.334472	-1.000000	-1.000000	-1.000000	-1.000000	-1.000000	-1.000000	-1.000000	71.448276	0.000000	-1.000000	-1.000000	2393743.000000	1770066284.861516
-24889.005000	-25391.070000	-28660.500000	-13361.085000	-28076.625000	-16024.320000	-426.465000	-11416.815000	0.883589	0.637232	13.143579	74.442058	109.900922	24.993172	21.240589	7.916870	8.866060	6.470240	4.578000	0.934202	-0.214416	0.334472	-1.000000	-1.000000	-1.000000	-1.000000	-1.000000	-1.000000	-1.000000	71.448276	0.000000	-1.000000	-1.000000	2393744.000000	1770066284.861526
-24950.205000	-25404.480000	-28666.665000	-13415.175000	-28206.135000	-16073.460000	-476.640000	-11467.080000	-7.304486	-8.956860	13.737976	92.750055	124.857279	28.848602	8.301583	12.896754	8.866060	6.470240	4.578000	0.934202	-0.214416	0.334472	-1.000000	-1.000000	-1.000000	-1.000000	-1.000000	-1.000000	-1.000000	71.448276	0.000000	-1.000000	-1.000000	2393745.000000	1770066284.865373
-24974.100000	-25398.360000	-28661.445000	-13469.130000	-28243.890000	-16102.980000	-494.370000	-11510.955000	-20.390392	-18.827133	8.532276	79.212402	91.137242	20.676441	-8.608982	10.059779	8.866060	6.470240	4.578000	0.934202	-0.214416	0.334472	-1.000000	-1.000000	-1.000000	-1.000000	-1.000000	-1.000000	-1.000000	71.448276	0.000000	-1.000000	-1.000000	2393746.000000	1770066284.865384
-24923.565000	-25384.455000	-28673.055000	-13526.460000	-28281.420000	-16089.570000	-453.420000	-11483.145000	-28.510444	-23.780116	-2.563969	34.311167	22.907569	1.154638	-25.803613	-1.841772	8.866060	6.470240	4.578000	0.934202	-0.214416	0.334472	-1.000000	-1.000000	-1.000000	-1.000000	-1.000000	-1.000000	-1.000000	71.448276	0.000000	-1.000000	-1.000000	2393747.000000	1770066284.869237
-24892.695000	-25397.730000	-28693.395000	-13554.090000	-28297.980000	-16088.940000	-466.605000	-11439.135000	-23.834666	-21.393174	-16.280960	-25.741527	-48.069741	-19.533480	-34.041586	-14.228180	8.866060	6.470240	4.578000	0.934202	-0.214416	0.334472	-1.000000	-1.000000	-1.000000	-1.000000	-1.000000	-1.000000	-1.000000	71.448276	0.000000	-1.000000	-1.000000	2393748.000000	1770066284.869243
-24925.230000	-25410.825000	-28662.615000	-13430.115000	-28162.215000	-16056.540000	-486.000000	-11442.240000	-6.623749	-13.498546	-26.624107	-74.790650	-92.418731	-29.689879	-28.880601	-16.709830	8.866060	6.470240	4.578000	0.934202	-0.214416	0.334472	-1.000000	-1.000000	-1.000000	-1.000000	-1.000000	-1.000000	-1.000000	71.448276	0.000000	-1.000000	-1.000000	2393749.000000	1770066284.878797
-25031.745000	-25425.135000	-28612.080000	-13224.465000	-27906.885000	-15976.620000	-490.320000	-11581.425000	11.377657	-3.602063	-25.978659	-86.738887	-91.643778	-23.643356	-15.582881	-10.324258	8.866060	6.470240	4.578000	0.934202	-0.214416	0.334472	-1.000000	-1.000000	-1.000000	-1.000000	-1.000000	-1.000000	-1.000000	71.448276	0.000000	-1.000000	-1.000000	2393750.000000	1770066284.878805
-24992.370000	-25398.315000	-28555.605000	-13037.175000	-27654.480000	-15873.300000	-405.405000	-11584.980000	15.282857	4.598722	-12.005040	-52.333229	-44.000790	-3.798376	-0.443918	-5.560499	8.545600	-3.067260	4.288060	0.929685	-0.224487	0.318847	-1.000000	-1.000000	-1.000000	-1.000000	-1.000000	-1.000000	-1.000000	71.448276	0.000000	-1.000000	-1.000000	2393751.000000	1770066284.879014
-24884.595000	-25373.700000	-28529.910000	-12971.520000	-27563.490000	-15836.220000	-377.910000	-11411.280000	5.430931	9.419587	8.006783	8.354813	26.524664	19.864470	15.172716	-4.596139	8.545600	-3.067260	4.288060	0.929685	-0.224487	0.318847	-1.000000	-1.000000	-1.000000	-1.000000	-1.000000	-1.000000	-1.000000	71.448276	0.000000	-1.000000	-1.000000	2393752.000000	1770066284.879020
-24819.255000	-25325.055000	-28493.865000	-12960.900000	-27583.335000	-15837.210000	-410.175000	-11355.435000	-1.061509	12.736135	22.804761	56.758127	77.893093	33.691679	28.850334	3.154053	8.545600	-3.067260	4.288060	0.929685	-0.224487	0.318847	-1.000000	-1.000000	-1.000000	-1.000000	-1.000000	-1.000000	-1.000000	71.448276	0.000000	-1.000000	-1.000000	2393753.000000	1770066284.885354
-24868.170000	-25323.210000	-28488.645000	-12994.290000	-27651.735000	-15853.275000	-369.405000	-11447.820000	7.480493	16.690429	25.803058	64.919558	79.270116	29.134122	34.233092	20.935482	8.545600	-3.067260	4.288060	0.929685	-0.224487	0.318847	-1.000000	-1.000000	-1.000000	-1.000000	-1.000000	-1.000000	-1.000000	71.448276	0.000000	-1.000000	-1.000000	2393754.000000	1770066284.885365
-25021.620000	-25435.755000	-28588.320000	-13108.905000	-27771.030000	-15935.130000	-415.980000	-11525.715000	20.637205	17.437227	15.704841	32.016507	30.811619	7.387898	27.061442	33.482461	8.545600	-3.067260	4.288060	0.929685	-0.224487	0.318847	-1.000000	-1.000000	-1.000000	-1.000000	-1.000000	-1.000000	-1.000000	71.448276	0.000000	-1.000000	-1.000000	2393755.000000	1770066284.885474
-25098.750000	-25501.140000	-28646.370000	-13170.285000	-27824.355000	-15998.940000	-570.240000	-11531.025000	16.810679	6.754750	-5.867546	-22.361923	-41.630728	-23.693675	6.249720	24.648690	8.545600	-3.067260	4.288060	0.929685	-0.224487	0.318847	-1.000000	-1.000000	-1.000000	-1.000000	-1.000000	-1.000000	-1.000000	71.448276	0.000000	-1.000000	-1.000000	2393756.000000	1770066284.885480
-24975.315000	-25467.840000	-28666.755000	-13209.345000	-27841.320000	-16019.955000	-570.870000	-11489.265000	-7.469658	-14.095738	-30.682563	-71.340643	-102.174140	-51.626637	-24.342185	-2.458417	8.545600	-3.067260	4.288060	0.929685	-0.224487	0.318847	-1.000000	-1.000000	-1.000000	-1.000000	-1.000000	-1.000000	-1.000000	71.448276	0.000000	-1.000000	-1.000000	2393757.000000	1770066284.889217
-24913.305000	-25446.330000	-28667.745000	-13227.030000	-27821.385000	-16001.280000	-536.805000	-11472.300000	-28.087705	-29.493006	-44.873324	-94.363895	-124.074851	-62.230823	-49.177549	-27.599613	8.545600	-3.067260	4.288060	0.929685	-0.224487	0.318847	-1.000000	-1.000000	-1.000000	-1.000000	-1.000000	-1.000000	-1.000000	71.448276	0.000000	-1.000000	-1.000000	2393758.000000	1770066284.889223
-24917.490000	-25414.020000	-28645.560000	-13236.795000	-27824.670000	-15989.715000	-516.645000	-11470.230000	-22.527572	-25.715242	-39.590158	-86.928166	-103.999480	-48.903616	-50.205553	-31.730252	8.545600	-3.067260	4.288060	0.929685	-0.224487	0.318847	-1.000000	-1.000000	-1.000000	-1.000000	-1.000000	-1.000000	-1.000000	71.448276	0.000000	-1.000000	-1.000000	2393759.000000	1770066284.894348
-24987.960000	-25414.020000	-28644.840000	-13286.880000	-27947.475000	-16001.910000	-493.695000	-11487.465000	1.683156	-5.411188	-17.578032	-57.570145	-59.554975	-18.692635	-25.653871	-14.758021	8.545600	-3.067260	4.288060	0.929685	-0.224487	0.318847	-1.000000	-1.000000	-1.000000	-1.000000	-1.000000	-1.000000	-1.000000	71.448276	0.000000	-1.000000	-1.000000	2393760.000000	1770066284.894359
-25029.990000	-25449.165000	-28701.180000	-13431.915000	-28193.670000	-16058.205000	-495.405000	-11499.255000	17.273752	16.040276	9.258028	-19.282388	-14.771729	13.184278	9.577103	4.014823	-9.903740	-6.592320	-19.166560	0.915281	-0.227233	0.330749	-1.000000	-1.000000	-1.000000	-1.000000	-1.000000	-1.000000	-1.000000	71.448276	0.000000	-1.000000	-1.000000	2393761.000000	1770066284.897249
-24925.995000	-25424.460000	-28725.615000	-13546.755000	-28248.930000	-16092.090000	-490.590000	-11453.220000	11.061901	24.540363	27.409286	16.467784	17.803903	34.315552	37.942122	8.790507	-9.903740	-6.592320	-19.166560	0.915281	-0.227233	0.330749	-1.000000	-1.000000	-1.000000	-1.000000	-1.000000	-1.000000	-1.000000	71.448276	0.000000	-1.000000	-1.000000	2393762.000000	1770066284.897261
-24834.150000	-25358.355000	-28676.295000	-13526.640000	-28156.995000	-16072.200000	-454.275000	-11407.950000	-1.107511	19.663616	32.188447	45.668930	46.466822	42.126477	48.972810	5.420135	-9.903740	-6.592320	-19.166560	0.915281	-0.227233	0.330749	-1.000000	-1.000000	-1.000000	-1.000000	-1.000000	-1.000000	-1.000000	71.448276	0.000000	-1.000000	-1.000000	2393763.000000	1770066284.901275
-24963.570000	-25386.120000	-28640.160000	-13403.700000	-28024.245000	-16016.130000	-439.740000	-11495.295000	1.094505	12.440122	31.092744	73.386367	86.042491	42.951042	42.862567	6.716963	-9.903740	-6.592320	-19.166560	0.915281	-0.227233	0.330749	-1.000000	-1.000000	-1.000000	-1.000000	-1.000000	-1.000000	-1.000000	71.448276	0.000000	-1.000000	-1.000000	2393764.000000	1770066284.901285
-25168.410000	-25494.480000	-28653.840000	-13241.790000	-27879.390000	-15999.525000	-496.440000	-11564.685000	11.019392	8.338065	31.951146	103.346553	133.080904	43.197945	27.338638	10.094890	-9.903740	-6.592320	-19.166560	0.915281	-0.227233	0.330749	-1.000000	-1.000000	-1.000000	-1.000000	-1.000000	-1.000000	-1.000000	71.448276	0.000000	-1.000000	-1.000000	2393765.000000	1770066284.905273
-24997.545000	-25456.635000	-28627.830000	-13118.265000	-27778.140000	-16000.830000	-517.905000	-11485.575000	7.279359	1.684437	31.951845	125.660712	161.258676	40.558952	7.935067	5.552828	-9.903740	-6.592320	-19.166560	0.915281	-0.227233	0.330749	-1.000000	-1.000000	-1.000000	-1.000000	-1.000000	-1.000000	-1.000000	71.448276	0.000000	-1.000000	-1.000000	2393766.000000	1770066284.905282
-24874.740000	-25387.290000	-28601.460000	-13131.270000	-27786.015000	-15979.590000	-490.410000	-11459.520000	-8.464383	-9.314890	23.495549	118.794401	140.558738	27.110804	-13.552235	-4.029913	-9.903740	-6.592320	-19.166560	0.915281	-0.227233	0.330749	-1.000000	-1.000000	-1.000000	-1.000000	-1.000000	-1.000000	-1.000000	71.448276	0.000000	-1.000000	-1.000000	2393767.000000	1770066284.909293
-24961.680000	-25384.995000	-28600.425000	-13194.405000	-27863.325000	-15986.025000	-483.570000	-11518.740000	-15.953420	-17.206105	4.411064	66.602334	61.867602	0.699564	-32.278318	-8.485490	-9.903740	-6.592320	-19.166560	0.915281	-0.227233	0.330749	-1.000000	-1.000000	-1.000000	-1.000000	-1.000000	-1.000000	-1.000000	71.448276	0.000000	-1.000000	-1.000000	2393768.000000	1770066284.909299
-24925.635000	-25367.220000	-28596.375000	-13267.215000	-27962.055000	-15999.570000	-474.840000	-11568.915000	-8.694959	-16.554796	-19.582567	-21.719104	-49.020614	-30.076472	-41.023951	-7.678090	-9.903740	-6.592320	-19.166560	0.915281	-0.227233	0.330749	-1.000000	-1.000000	-1.000000	-1.000000	-1.000000	-1.000000	-1.000000	71.448276	0.000000	-1.000000	-1.000000	2393769.000000	1770066284.913306
-24901.740000	-25354.890000	-28575.855000	-13299.030000	-28024.020000	-15979.680000	-428.310000	-11587.815000	4.181901	-8.735478	-37.465174	-108.488649	-141.358451	-50.545676	-35.233094	-8.493703	-9.903740	-6.592320	-19.166560	0.915281	-0.227233	0.330749	-1.000000	-1.000000	-1.000000	-1.000000	-1.000000	-1.000000	-1.000000	71.448276	0.000000	-1.000000	-1.000000	2393770.000000	1770066284.913319
-24880.320000	-25381.620000	-28625.715000	-13341.915000	-28053.315000	-16038.045000	-442.665000	-11438.100000	12.143331	0.344010	-41.057503	-151.425165	-173.291988	-50.657272	-16.612923	-10.036534	-8.515080	-14.756420	-16.114560	0.903562	-0.212768	0.320434	-1.000000	-1.000000	-1.000000	-1.000000	-1.000000	-1.000000	-1.000000	71.448276	0.000000	-1.000000	-1.000000	2393771.000000	1770066284.920388
-24930.090000	-25419.735000	-28667.205000	-13336.695000	-28022.715000	-16069.365000	-471.870000	-11376.360000	9.652513	3.560118	-32.859018	-134.494937	-139.588547	-34.098594	4.811103	-2.381611	-8.515080	-14.756420	-16.114560	0.903562	-0.212768	0.320434	-1.000000	-1.000000	-1.000000	-1.000000	-1.000000	-1.000000	-1.000000	71.448276	0.000000	-1.000000	-1.000000	2393772.000000	1770066284.920398
-24999.525000	-25401.375000	-28615.050000	-13247.595000	-27908.730000	-16015.680000	-464.265000	-11484.405000	0.714844	0.464464	-20.118028	-74.686234	-66.405441	-12.658149	18.315575	16.814744	-8.515080	-14.756420	-16.114560	0.903562	-0.212768	0.320434	-1.000000	-1.000000	-1.000000	-1.000000	-1.000000	-1.000000	-1.000000	71.448276	0.000000	-1.000000	-1.000000	2393773.000000	1770066284.921588
-25071.255000	-25439.310000	-28621.170000	-13229.460000	-27859.680000	-15992.865000	-465.390000	-11505.465000	-6.690834	-1.669227	-5.337698	-5.014006	11.098019	6.382847	22.155364	32.543040	-8.515080	-14.756420	-16.114560	0.903562	-0.212768	0.320434	-1.000000	-1.000000	-1.000000	-1.000000	-1.000000	-1.000000	-1.000000	71.448276	0.000000	-1.000000	-1.000000	2393774.000000	1770066284.921600
-25015.455000	-25463.430000	-28652.895000	-13233.825000	-27872.820000	-16023.150000	-471.465000	-11488.815000	-12.399907	-0.073864	9.361794	44.674108	63.608402	20.064021	19.718646	28.162350	-8.515080	-14.756420	-16.114560	0.903562	-0.212768	0.320434	-1.000000	-1.000000	-1.000000	-1.000000	-1.000000	-1.000000	-1.000000	71.448276	0.000000	-1.000000	-1.000000	2393775.000000	1770066284.927392
-24842.025000	-25375.770000	-28624.770000	-13216.095000	-27861.255000	-16012.575000	-454.950000	-11444.985000	-16.619633	0.991498	18.174887	61.773672	77.589261	24.560231	12.526656	5.407552	-8.515080	-14.756420	-16.114560	0.903562	-0.212768	0.320434	-1.000000	-1.000000	-1.000000	-1.000000	-1.000000	-1.000000	-1.000000	71.448276	0.000000	-1.000000	-1.000000	2393776.000000	1770066284.927403
-24868.530000	-25391.970000	-28651.005000	-13267.980000	-27929.790000	-16044.930000	-513.090000	-11453.670000	-10.413033	0.756260	18.277760	53.814261	60.667916	18.666726	1.207354	-17.964321	-8.515080	-14.756420	-16.114560	0.903562	-0.212768	0.320434	-1.000000	-1.000000	-1.000000	-1.000000	-1.000000	-1.000000	-1.000000	71.448276	0.000000	-1.000000	-1.000000	2393777.000000	1770066284.943922
-24892.380000	-25400.070000	-28646.775000	-13289.265000	-27951.435000	-16048.215000	-519.075000	-11430.405000	7.491765	1.463623	12.510251	36.490776	33.136933	7.023761	-11.975469	-26.536467	-8.515080	-14.756420	-16.114560	0.903562	-0.212768	0.320434	-1.000000	-1.000000	-1.000000	-1.000000	-1.000000	-1.000000	-1.000000	71.448276	0.000000	-1.000000	-1.000000	2393778.000000	1770066284.943974
-24901.470000	-25383.510000	-28614.555000	-13264.245000	-27914.580000	-16006.995000	-470.385000	-11439.585000	21.756755	2.690725	6.234670	22.096611	13.064580	-2.452173	-21.520799	-19.579440	-8.515080	-14.756420	-16.114560	0.903562	-0.212768	0.320434	-1.000000	-1.000000	-1.000000	-1.000000	-1.000000	-1.000000	-1.000000	71.448276	0.000000	-1.000000	-1.000000	2393779.000000	1770066284.944020
-24953.940000	-25393.995000	-28610.730000	-13239.135000	-27885.780000	-15999.705000	-472.365000	-11529.675000	19.004390	3.677421	4.576118	15.709117	6.424896	-3.007159	-20.466015	-10.215699	-8.515080	-14.756420	-16.114560	0.903562	-0.212768	0.320434	-1.000000	-1.000000	-1.000000	-1.000000	-1.000000	-1.000000	-1.000000	71.448276	0.000000	-1.000000	-1.000000	2393780.000000	1770066284.944046
-24941.745000	-25393.455000	-28608.615000	-13220.280000	-27864.720000	-16003.170000	-487.665000	-11519.505000	3.051372	4.886184	7.961721	13.378657	5.510634	4.598813	-7.645750	-10.277763	-18.403560	-7.462140	8.515080	0.914121	-0.193664	0.331176	-1.000000	-1.000000	-1.000000	-1.000000	-1.000000	-1.000000	-1.000000	71.448276	0.000000	-1.000000	-1.000000	2393781.000000	1770066284.944077
-24917.670000	-25384.905000	-28597.590000	-13204.395000	-27832.680000	-15986.655000	-478.125000	-11448.720000	-9.083065	6.525001	10.743063	5.477465	-2.142695	11.139151	9.762096	-13.134879	-18.403560	-7.462140	8.515080	0.914121	-0.193664	0.331176	-1.000000	-1.000000	-1.000000	-1.000000	-1.000000	-1.000000	-1.000000	71.448276	0.000000	-1.000000	-1.000000	2393782.000000	1770066284.944102
-25034.445000	-25451.640000	-28639.530000	-13238.820000	-27856.035000	-15995.835000	-473.175000	-11484.360000	-7.860066	7.056714	7.101269	-12.854842	-20.525350	8.630236	22.386299	-4.818725	-18.403560	-7.462140	8.515080	0.914121	-0.193664	0.331176	-1.000000	-1.000000	-1.000000	-1.000000	-1.000000	-1.000000	-1.000000	71.448276	0.000000	-1.000000	-1.000000	2393783.000000	1770066284.944131
-25095.555000	-25502.355000	-28672.965000	-13269.510000	-27897.750000	-16027.605000	-507.375000	-11559.015000	-5.085071	2.030894	-3.847514	-35.438918	-41.255971	-2.403576	23.938160	11.362344	-18.403560	-7.462140	8.515080	0.914121	-0.193664	0.331176	-1.000000	-1.000000	-1.000000	-1.000000	-1.000000	-1.000000	-1.000000	71.448276	0.000000	-1.000000	-1.000000	2393784.000000	1770066284.944152
-25001.145000	-25427.610000	-28641.420000	-13257.945000	-27924.165000	-16041.420000	-533.565000	-11587.275000	-13.756153	-10.050380	-17.254122	-48.968735	-50.911794	-15.615704	13.120732	19.491879	-18.403560	-7.462140	8.515080	0.914121	-0.193664	0.331176	-1.000000	-1.000000	-1.000000	-1.000000	-1.000000	-1.000000	-1.000000	71.448276	0.000000	-1.000000	-1.000000	2393785.000000	1770066284.953238
-24995.745000	-25389.270000	-28613.205000	-13240.080000	-27920.655000	-16028.550000	-517.815000	-11573.055000	-24.623276	-20.078078	-23.957887	-41.537494	-39.494489	-23.066580	-3.896192	13.645749	-18.403560	-7.462140	8.515080	0.914121	-0.193664	0.331176	-1.000000	-1.000000	-1.000000	-1.000000	-1.000000	-1.000000	-1.000000	71.448276	0.000000	-1.000000	-1.000000	2393786.000000	1770066284.953250
-25002.000000	-25386.525000	-28591.245000	-13212.990000	-27882.495000	-15989.715000	-463.725000	-11504.475000	-20.569405	-16.970380	-17.594350	-12.098639	-7.083223	-18.993498	-15.920362	3.149647	-18.403560	-7.462140	8.515080	0.914121	-0.193664	0.331176	-1.000000	-1.000000	-1.000000	-1.000000	-1.000000	-1.000000	-1.000000	71.448276	0.000000	-1.000000	-1.000000	2393787.000000	1770066284.953262
-24937.830000	-25376.895000	-28579.815000	-13201.290000	-27871.695000	-15982.515000	-455.580000	-11459.205000	0.616056	-1.800989	-1.562219	25.428934	32.306147	-4.571521	-16.215300	0.126529	-18.403560	-7.462140	8.515080	0.914121	-0.193664	0.331176	-1.000000	-1.000000	-1.000000	-1.000000	-1.000000	-1.000000	-1.000000	71.448276	0.000000	-1.000000	-1.000000	2393788.000000	1770066284.953267
-24899.085000	-25389.045000	-28615.095000	-13238.055000	-27898.785000	-16016.670000	-478.980000	-11455.695000	28.756947	14.681615	13.828738	49.774658	56.858108	11.639030	-7.522358	7.811045	-18.403560	-7.462140	8.515080	0.914121	-0.193664	0.331176	-1.000000	-1.000000	-1.000000	-1.000000	-1.000000	-1.000000	-1.000000	71.448276	0.000000	-1.000000	-1.000000	2393789.000000	1770066284.956492
-24847.110000	-25410.330000	-28659.465000	-13285.620000	-27922.770000	-16049.745000	-494.235000	-11400.390000	51.099412	22.397286	18.642524	45.763063	51.324890	19.072261	2.282461	19.276137	-18.403560	-7.462140	8.515080	0.914121	-0.193664	0.331176	-1.000000	-1.000000	-1.000000	-1.000000	-1.000000	-1.000000	-1.000000	71.448276	0.000000	-1.000000	-1.000000	2393790.000000	1770066284.956502
-24888.645000	-25413.570000	-28661.445000	-13291.605000	-27910.260000	-16042.320000	-485.100000	-11396.880000	56.231509	17.919541	10.060889	15.188321	18.638153	13.164654	7.013165	24.090973	-20.143200	3.479280	12.116440	0.922361	-0.184509	0.318359	-1.000000	-1.000000	-1.000000	-1.000000	-1.000000	-1.000000	-1.000000	71.448276	0.000000	-1.000000	-1.000000	2393791.000000	1770066284.957654
-24934.230000	-25417.170000	-28647.855000	-13289.715000	-27915.255000	-16032.195000	-478.755000	-11430.495000	38.559481	6.297371	-3.836953	-22.109088	-20.486555	0.059223	5.849343	16.031550	-20.143200	3.479280	12.116440	0.922361	-0.184509	0.318359	-1.000000	-1.000000	-1.000000	-1.000000	-1.000000	-1.000000	-1.000000	71.448276	0.000000	-1.000000	-1.000000	2393792.000000	1770066284.957664
-24968.430000	-25432.965000	-28641.240000	-13290.345000	-27952.335000	-16038.630000	-488.700000	-11477.610000	1.953989	-4.838026	-11.223131	-42.485958	-42.712023	-9.069589	2.169751	-2.816466	-20.143200	3.479280	12.116440	0.922361	-0.184509	0.318359	-1.000000	-1.000000	-1.000000	-1.000000	-1.000000	-1.000000	-1.000000	71.448276	0.000000	-1.000000	-1.000000	2393793.000000	1770066284.961356
-25021.350000	-25447.005000	-28644.255000	-13291.245000	-27971.190000	-16048.530000	-495.540000	-11521.620000	-41.343012	-13.245927	-8.427486	-36.158735	-38.626397	-8.602219	-0.528770	-24.314990	-20.143200	3.479280	12.116440	0.922361	-0.184509	0.318359	-1.000000	-1.000000	-1.000000	-1.000000	-1.000000	-1.000000	-1.000000	71.448276	0.000000	-1.000000	-1.000000	2393794.000000	1770066284.961366
-24958.530000	-25429.005000	-28646.325000	-13291.605000	-27963.540000	-16049.655000	-491.895000	-11504.880000	-72.852802	-19.369851	-1.066643	-11.019891	-15.207060	-1.779148	-1.688824	-39.659465	-20.143200	3.479280	12.116440	0.922361	-0.184509	0.318359	-1.000000	-1.000000	-1.000000	-1.000000	-1.000000	-1.000000	-1.000000	71.448276	0.000000	-1.000000	-1.000000	2393795.000000	1770066284.965388
-24932.115000	-25410.195000	-28635.345000	-13278.195000	-27946.305000	-16047.045000	-479.295000	-11454.660000	-74.503882	-20.212490	4.016689	16.304971	12.144871	4.255767	-3.228846	-42.283200	-20.143200	3.479280	12.116440	0.922361	-0.184509	0.318359	-1.000000	-1.000000	-1.000000	-1.000000	-1.000000	-1.000000	-1.000000	71.448276	0.000000	-1.000000	-1.000000	2393796.000000	1770066284.965399
-24913.080000	-25406.550000	-28643.175000	-13292.955000	-27959.760000	-16058.745000	-463.815000	-11429.280000	-43.460397	-12.393960	4.716943	31.704211	29.086670	5.305841	-5.376535	-29.445547	-20.143200	3.479280	12.116440	0.922361	-0.184509	0.318359	-1.000000	-1.000000	-1.000000	-1.000000	-1.000000	-1.000000	-1.000000	71.448276	0.000000	-1.000000	-1.000000	2393797.000000	1770066284.974430
-24889.815000	-25391.475000	-28626.840000	-13281.255000	-27947.880000	-16044.255000	-437.445000	-11412.045000	3.190836	2.313198	3.687318	30.572055	29.558908	3.078172	-4.594419	-4.898361	-20.143200	3.479280	12.116440	0.922361	-0.184509	0.318359	-1.000000	-1.000000	-1.000000	-1.000000	-1.000000	-1.000000	-1.000000	71.448276	0.000000	-1.000000	-1.000000	2393798.000000	1770066284.974442
-24908.445000	-25396.515000	-28620.675000	-13269.555000	-27937.575000	-16038.990000	-463.545000	-11427.570000	41.733083	17.420524	4.421279	17.926306	17.102604	1.751002	1.062066	20.079869	-20.143200	3.479280	12.116440	0.922361	-0.184509	0.318359	-1.000000	-1.000000	-1.000000	-1.000000	-1.000000	-1.000000	-1.000000	71.448276	0.000000	-1.000000	-1.000000	2393799.000000	1770066284.974451
-24934.860000	-25426.395000	-28649.745000	-13291.290000	-27962.370000	-16058.835000	-507.105000	-11454.930000	57.044825	25.398716	6.652563	2.286890	-0.032043	2.298688	6.712892	32.901425	-20.143200	3.479280	12.116440	0.922361	-0.184509	0.318359	-1.000000	-1.000000	-1.000000	-1.000000	-1.000000	-1.000000	-1.000000	71.448276	0.000000	-1.000000	-1.000000	2393800.000000	1770066284.974456
-24974.550000	-25402.905000	-28612.710000	-13261.590000	-27933.255000	-16032.375000	-489.330000	-11496.465000	48.009165	22.242261	6.817096	-9.983325	-13.499774	2.480082	6.164078	29.527559	-13.123600	-2.014320	2.105880	0.934751	-0.220519	0.302856	-1.000000	-1.000000	-1.000000	-1.000000	-1.000000	-1.000000	-1.000000	71.448276	0.000000	-1.000000	-1.000000	2393801.000000	1770066284.980464
-25050.015000	-25396.785000	-28584.495000	-13236.030000	-27895.545000	-15998.895000	-461.205000	-11575.215000	22.496000	10.485847	3.688821	-15.014299	-16.152330	1.997153	0.968934	15.338126	-13.123600	-2.014320	2.105880	0.934751	-0.220519	0.302856	-1.000000	-1.000000	-1.000000	-1.000000	-1.000000	-1.000000	-1.000000	71.448276	0.000000	-1.000000	-1.000000	2393802.000000	1770066284.980474
-25020.855000	-25385.580000	-28579.005000	-13224.915000	-27867.960000	-15990.615000	-471.915000	-11573.775000	-7.777490	-3.349956	-0.452127	-11.797343	-5.940722	2.722650	-2.413238	-1.438160	-13.123600	-2.014320	2.105880	0.934751	-0.220519	0.302856	-1.000000	-1.000000	-1.000000	-1.000000	-1.000000	-1.000000	-1.000000	71.448276	0.000000	-1.000000	-1.000000	2393803.000000	1770066284.985530
-24945.885000	-25360.020000	-28559.790000	-13198.905000	-27850.095000	-15989.265000	-483.795000	-11526.705000	-28.722071	-13.421875	-3.749563	-3.781558	9.655488	3.897777	-2.316429	-13.334800	-13.123600	-2.014320	2.105880	0.934751	-0.220519	0.302856	-1.000000	-1.000000	-1.000000	-1.000000	-1.000000	-1.000000	-1.000000	71.448276	0.000000	-1.000000	-1.000000	2393804.000000	1770066284.985542
-24897.195000	-25337.295000	-28524.645000	-13154.130000	-27823.500000	-15964.965000	-460.170000	-11510.865000	-30.192039	-16.500594	-5.473970	3.787569	18.655071	2.755367	-1.847501	-15.813373	-13.123600	-2.014320	2.105880	0.934751	-0.220519	0.302856	-1.000000	-1.000000	-1.000000	-1.000000	-1.000000	-1.000000	-1.000000	71.448276	0.000000	-1.000000	-1.000000	2393805.000000	1770066284.985554
-24961.005000	-25335.270000	-28504.395000	-13134.105000	-27811.260000	-15940.890000	-437.940000	-11539.980000	-15.064067	-12.578299	-4.628741	7.999405	15.050177	-0.532679	-1.971224	-10.130117	-13.123600	-2.014320	2.105880	0.934751	-0.220519	0.302856	-1.000000	-1.000000	-1.000000	-1.000000	-1.000000	-1.000000	-1.000000	71.448276	0.000000	-1.000000	-1.000000	2393806.000000	1770066284.985559
-24992.595000	-25391.385000	-28580.400000	-13218.435000	-27893.205000	-16006.500000	-464.445000	-11507.445000	1.845561	-5.730996	-2.555238	6.717216	0.536158	-4.359393	-1.341347	-1.686047	-13.123600	-2.014320	2.105880	0.934751	-0.220519	0.302856	-1.000000	-1.000000	-1.000000	-1.000000	-1.000000	-1.000000	-1.000000	71.448276	0.000000	-1.000000	-1.000000	2393807.000000	1770066284.989361
-25028.325000	-25463.565000	-28664.595000	-13302.990000	-27967.365000	-16083.675000	-531.495000	-11585.565000	8.235669	-2.371645	-4.599962	-3.418529	-20.414758	-10.280391	-0.700758	4.645373	-13.123600	-2.014320	2.105880	0.934751	-0.220519	0.302856	-1.000000	-1.000000	-1.000000	-1.000000	-1.000000	-1.000000	-1.000000	71.448276	0.000000	-1.000000	-1.000000	2393808.000000	1770066284.989367
-25014.645000	-25461.765000	-28666.530000	-13310.145000	-27970.290000	-16096.140000	-554.940000	-11568.015000	5.184368	-4.970517	-12.985347	-20.536832	-39.642603	-19.049031	-2.179945	6.964880	-13.123600	-2.014320	2.105880	0.934751	-0.220519	0.302856	-1.000000	-1.000000	-1.000000	-1.000000	-1.000000	-1.000000	-1.000000	71.448276	0.000000	-1.000000	-1.000000	2393809.000000	1770066284.993199
-25049.970000	-25462.350000	-28629.990000	-13259.205000	-27905.580000	-16031.790000	-497.700000	-11496.645000	1.604602	-8.973908	-20.902172	-33.044316	-44.488189	-24.438885	-4.701078	8.727507	-13.123600	-2.014320	2.105880	0.934751	-0.220519	0.302856	-1.000000	-1.000000	-1.000000	-1.000000	-1.000000	-1.000000	-1.000000	71.448276	0.000000	-1.000000	-1.000000	2393810.000000	1770066284.993210
-25040.250000	-25388.865000	-28559.880000	-13210.020000	-27840.780000	-15959.655000	-433.800000	-11518.020000	3.112881	-7.384370	-18.221506	-28.331360	-26.608430	-17.293362	-3.134230	15.111483	8.393000	5.569900	0.473060	0.941587	-0.251098	0.301330	-1.000000	-1.000000	-1.000000	-1.000000	-1.000000	-1.000000	-1.000000	71.448276	0.000000	-1.000000	-1.000000	2393811.000000	1770066284.998661
-25027.335000	-25301.700000	-28516.815000	-13198.050000	-27820.170000	-15951.960000	-445.230000	-11564.955000	7.624072	3.827047	-1.239695	-5.267684	8.158749	3.672783	5.289041	21.498890	8.393000	5.569900	0.473060	0.941587	-0.251098	0.301330	-1.000000	-1.000000	-1.000000	-1.000000	-1.000000	-1.000000	-1.000000	71.448276	0.000000	-1.000000	-1.000000	2393812.000000	1770066284.998671
-24975.180000	-25360.920000	-28623.105000	-13300.605000	-27920.205000	-16064.145000	-527.085000	-11560.005000	8.945447	20.289810	20.791797	21.685638	39.740248	25.843274	14.066029	15.690776	8.393000	5.569900	0.473060	0.941587	-0.251098	0.301330	-1.000000	-1.000000	-1.000000	-1.000000	-1.000000	-1.000000	-1.000000	71.448276	0.000000	-1.000000	-1.000000	2393813.000000	1770066285.002049
-24994.800000	-25458.345000	-28717.380000	-13378.905000	-28008.810000	-16122.015000	-526.680000	-11477.160000	4.300809	27.810798	29.373636	32.020214	46.326936	30.968275	12.526980	-3.451854	8.393000	5.569900	0.473060	0.941587	-0.251098	0.301330	-1.000000	-1.000000	-1.000000	-1.000000	-1.000000	-1.000000	-1.000000	71.448276	0.000000	-1.000000	-1.000000	2393814.000000	1770066285.002058
-25061.805000	-25401.645000	-28597.005000	-13257.945000	-27923.355000	-16025.130000	-471.690000	-11550.780000	-3.641510	16.888520	17.136339	20.365800	24.699493	15.315371	0.129675	-22.704043	8.393000	5.569900	0.473060	0.941587	-0.251098	0.301330	-1.000000	-1.000000	-1.000000	-1.000000	-1.000000	-1.000000	-1.000000	71.448276	0.000000	-1.000000	-1.000000	2393815.000000	1770066285.005314
-25122.690000	-25437.960000	-28586.250000	-13259.250000	-27919.440000	-16007.895000	-475.920000	-11564.325000	-11.291038	-3.313528	0.101156	4.405091	-3.666530	-3.466358	-11.052111	-31.428065	8.393000	5.569900	0.473060	0.941587	-0.251098	0.301330	-1.000000	-1.000000	-1.000000	-1.000000	-1.000000	-1.000000	-1.000000	71.448276	0.000000	-1.000000	-1.000000	2393816.000000	1770066285.005324
-24864.930000	-25416.180000	-28663.290000	-13387.590000	-28027.485000	-16093.485000	-514.890000	-11436.030000	-12.276897	-15.728482	-3.770457	0.699593	-16.592077	-8.169937	-10.766376	-25.924748	8.393000	5.569900	0.473060	0.941587	-0.251098	0.301330	-1.000000	-1.000000	-1.000000	-1.000000	-1.000000	-1.000000	-1.000000	71.448276	0.000000	-1.000000	-1.000000	2393817.000000	1770066285.009336
-24842.205000	-25424.865000	-28687.140000	-13384.035000	-28003.275000	-16083.540000	-501.840000	-11366.820000	2.320443	-13.690024	2.525838	4.450429	-13.331513	-1.521434	-1.351672	-4.946194	8.393000	5.569900	0.473060	0.941587	-0.251098	0.301330	-1.000000	-1.000000	-1.000000	-1.000000	-1.000000	-1.000000	-1.000000	71.448276	0.000000	-1.000000	-1.000000	2393818.000000	1770066285.009343
-24949.980000	-25409.790000	-28614.240000	-13235.760000	-27882.945000	-16028.955000	-494.460000	-11467.800000	26.639660	-3.609617	5.573474	5.146371	-4.229889	3.771182	6.881528	21.619601	8.393000	5.569900	0.473060	0.941587	-0.251098	0.301330	-1.000000	-1.000000	-1.000000	-1.000000	-1.000000	-1.000000	-1.000000	71.448276	0.000000	-1.000000	-1.000000	2393819.000000	1770066285.013364
-24917.805000	-25359.255000	-28552.320000	-13153.140000	-27842.490000	-16010.955000	-498.240000	-11552.850000	37.739594	4.071861	1.382472	4.434900	5.327890	1.992258	6.361621	33.066457	8.393000	5.569900	0.473060	0.941587	-0.251098	0.301330	-1.000000	-1.000000	-1.000000	-1.000000	-1.000000	-1.000000	-1.000000	71.448276	0.000000	-1.000000	-1.000000	2393820.000000	1770066285.013369
-24978.825000	-25401.195000	-28559.475000	-13192.515000	-27912.240000	-16026.750000	-487.530000	-11545.965000	20.990380	3.485527	-4.353002	7.117224	12.159219	-3.547639	-1.040615	18.937782	30.550520	22.294860	-10.331020	0.950437	-0.250732	0.278442	-1.000000	-1.000000	-1.000000	-1.000000	-1.000000	-1.000000	-1.000000	71.448276	0.000000	-1.000000	-1.000000	2393821.000000	1770066285.017246
-25096.140000	-25448.895000	-28556.865000	-13210.065000	-27936.180000	-16025.175000	-468.045000	-11515.770000	-17.732881	-3.800165	-5.365979	10.175974	12.158296	-6.057367	-6.275246	-9.616336	30.550520	22.294860	-10.331020	0.950437	-0.250732	0.278442	-1.000000	-1.000000	-1.000000	-1.000000	-1.000000	-1.000000	-1.000000	71.448276	0.000000	-1.000000	-1.000000	2393822.000000	1770066285.017256
-25044.705000	-25411.320000	-28545.255000	-13222.080000	-27916.245000	-16030.440000	-477.315000	-11519.730000	-57.311966	-10.240122	-0.284910	7.444011	5.630839	-2.343899	-4.024748	-32.156906	30.550520	22.294860	-10.331020	0.950437	-0.250732	0.278442	-1.000000	-1.000000	-1.000000	-1.000000	-1.000000	-1.000000	-1.000000	71.448276	0.000000	-1.000000	-1.000000	2393823.000000	1770066285.029051
-24904.980000	-25424.280000	-28646.865000	-13293.540000	-27961.605000	-16068.240000	-492.795000	-11463.120000	-68.347161	-8.889406	3.755870	-4.928104	-3.894476	2.212324	1.196630	-34.259360	30.550520	22.294860	-10.331020	0.950437	-0.250732	0.278442	-1.000000	-1.000000	-1.000000	-1.000000	-1.000000	-1.000000	-1.000000	71.448276	0.000000	-1.000000	-1.000000	2393824.000000	1770066285.029059
-24923.205000	-25455.690000	-28684.215000	-13284.990000	-27961.695000	-16072.830000	-496.440000	-11461.275000	-36.438217	-0.387573	-2.277153	-23.533107	-12.982269	0.961084	3.237775	-14.629971	30.550520	22.294860	-10.331020	0.950437	-0.250732	0.278442	-1.000000	-1.000000	-1.000000	-1.000000	-1.000000	-1.000000	-1.000000	71.448276	0.000000	-1.000000	-1.000000	2393825.000000	1770066285.029289
-25018.380000	-25415.145000	-28613.925000	-13241.430000	-27917.955000	-16038.360000	-483.345000	-11504.610000	14.279647	9.006915	-14.035787	-33.980410	-15.524314	-3.164143	2.513091	11.662691	30.550520	22.294860	-10.331020	0.950437	-0.250732	0.278442	-1.000000	-1.000000	-1.000000	-1.000000	-1.000000	-1.000000	-1.000000	71.448276	0.000000	-1.000000	-1.000000	2393826.000000	1770066285.029298
-24948.315000	-25375.950000	-28571.715000	-13215.555000	-27886.500000	-16014.735000	-481.950000	-11502.720000	45.200439	14.712226	-17.011148	-25.144324	-7.992936	-3.163898	1.790950	24.437485	30.550520	22.294860	-10.331020	0.950437	-0.250732	0.278442	-1.000000	-1.000000	-1.000000	-1.000000	-1.000000	-1.000000	-1.000000	71.448276	0.000000	-1.000000	-1.000000	2393827.000000	1770066285.029308
-24846.885000	-25412.355000	-28624.950000	-13276.080000	-27962.370000	-16082.640000	-521.235000	-11436.120000	47.338443	14.556135	-7.850572	-6.208797	1.038691	-0.630226	0.153425	20.820245	30.550520	22.294860	-10.331020	0.950437	-0.250732	0.278442	-1.000000	-1.000000	-1.000000	-1.000000	-1.000000	-1.000000	-1.000000	71.448276	0.000000	-1.000000	-1.000000	2393828.000000	1770066285.029313
-24782.850000	-25423.155000	-28669.905000	-13324.725000	-28027.620000	-16121.070000	-517.815000	-11366.100000	37.470369	6.029859	1.118142	3.732234	-1.001434	-3.085144	-4.173756	15.682078	30.550520	22.294860	-10.331020	0.950437	-0.250732	0.278442	-1.000000	-1.000000	-1.000000	-1.000000	-1.000000	-1.000000	-1.000000	71.448276	0.000000	-1.000000	-1.000000	2393829.000000	1770066285.033665
-24854.895000	-25395.120000	-28638.090000	-13296.330000	-28004.040000	-16089.975000	-486.810000	-11382.975000	26.884395	-7.661234	1.411884	0.439534	-12.213986	-10.168134	-8.329166	17.588296	30.550520	22.294860	-10.331020	0.950437	-0.250732	0.278442	-1.000000	-1.000000	-1.000000	-1.000000	-1.000000	-1.000000	-1.000000	71.448276	0.000000	-1.000000	-1.000000	2393830.000000	1770066285.033672
-24901.155000	-25428.240000	-28656.540000	-13306.320000	-27993.870000	-16103.070000	-487.935000	-11375.190000	13.762104	-15.918091	-1.281774	-3.004523	-16.957488	-12.416937	-7.354759	18.193431	5.905620	0.991900	-11.460260	0.941099	-0.237426	0.280395	-1.000000	-1.000000	-1.000000	-1.000000	-1.000000	-1.000000	-1.000000	71.448276	0.000000	-1.000000	-1.000000	2393831.000000	1770066285.037267
-24944.805000	-25449.795000	-28649.790000	-13290.795000	-27967.770000	-16098.030000	-495.720000	-11413.440000	-6.624684	-13.927839	0.782534	3.754634	-5.985061	-4.748394	-1.133732	7.226687	5.905620	0.991900	-11.460260	0.941099	-0.237426	0.280395	-1.000000	-1.000000	-1.000000	-1.000000	-1.000000	-1.000000	-1.000000	71.448276	0.000000	-1.000000	-1.000000	2393832.000000	1770066285.037277
-24941.970000	-25426.395000	-28622.340000	-13273.920000	-27955.215000	-16075.530000	-495.810000	-11440.845000	-32.771577	-6.156083	9.180970	18.507007	14.889022	8.731767	5.962472	-14.446646	5.905620	0.991900	-11.460260	0.941099	-0.237426	0.280395	-1.000000	-1.000000	-1.000000	-1.000000	-1.000000	-1.000000	-1.000000	71.448276	0.000000	-1.000000	-1.000000	2393833.000000	1770066285.041254
-24937.830000	-25414.560000	-28610.865000	-13270.365000	-27987.030000	-16084.170000	-500.265000	-11450.925000	-53.396642	3.089060	21.131063	32.429970	32.742290	21.003218	10.237324	-36.575423	5.905620	0.991900	-11.460260	0.941099	-0.237426	0.280395	-1.000000	-1.000000	-1.000000	-1.000000	-1.000000	-1.000000	-1.000000	71.448276	0.000000	-1.000000	-1.000000	2393834.000000	1770066285.041260
-24923.430000	-25401.330000	-28597.905000	-13241.025000	-27937.710000	-16055.865000	-493.020000	-11448.945000	-54.065971	10.536618	28.475313	35.859979	36.057966	25.414297	10.068585	-46.473496	5.905620	0.991900	-11.460260	0.941099	-0.237426	0.280395	-1.000000	-1.000000	-1.000000	-1.000000	-1.000000	-1.000000	-1.000000	71.448276	0.000000	-1.000000	-1.000000	2393835.000000	1770066285.045396
-24910.470000	-25383.825000	-28575.900000	-13215.015000	-27913.905000	-16046.145000	-480.015000	-11441.430000	-31.123101	12.296215	22.495948	23.970055	22.251147	18.698306	5.885995	-36.938293	5.905620	0.991900	-11.460260	0.941099	-0.237426	0.280395	-1.000000	-1.000000	-1.000000	-1.000000	-1.000000	-1.000000	-1.000000	71.448276	0.000000	-1.000000	-1.000000	2393836.000000	1770066285.045402
-24942.240000	-25414.200000	-28588.185000	-13225.590000	-27942.165000	-16061.130000	-479.565000	-11460.015000	1.870082	7.514014	4.378674	1.776198	0.160954	4.745798	0.664429	-12.423574	5.905620	0.991900	-11.460260	0.941099	-0.237426	0.280395	-1.000000	-1.000000	-1.000000	-1.000000	-1.000000	-1.000000	-1.000000	71.448276	0.000000	-1.000000	-1.000000	2393837.000000	1770066285.051442
-24954.840000	-25406.865000	-28575.405000	-13212.945000	-27942.255000	-16043.355000	-467.100000	-11472.030000	25.746873	-0.900591	-15.331851	-19.080260	-17.589036	-8.340214	-2.678898	13.215266	5.905620	0.991900	-11.460260	0.941099	-0.237426	0.280395	-1.000000	-1.000000	-1.000000	-1.000000	-1.000000	-1.000000	-1.000000	71.448276	0.000000	-1.000000	-1.000000	2393838.000000	1770066285.051452
-24995.655000	-25385.715000	-28551.555000	-13187.205000	-27913.095000	-16029.090000	-471.105000	-11573.235000	33.387427	-7.749198	-26.229568	-28.888530	-23.563653	-14.788147	-4.165678	26.488342	5.905620	0.991900	-11.460260	0.941099	-0.237426	0.280395	-1.000000	-1.000000	-1.000000	-1.000000	-1.000000	-1.000000	-1.000000	71.448276	0.000000	-1.000000	-1.000000	2393839.000000	1770066285.053600
-25022.565000	-25390.170000	-28557.585000	-13187.340000	-27897.570000	-16029.495000	-485.640000	-11647.260000	30.118103	-8.242434	-24.631044	-25.537709	-18.455603	-14.031446	-5.434122	22.099725	5.905620	0.991900	-11.460260	0.941099	-0.237426	0.280395	-1.000000	-1.000000	-1.000000	-1.000000	-1.000000	-1.000000	-1.000000	71.448276	0.000000	-1.000000	-1.000000	2393840.000000	1770066285.053610
-24989.670000	-25427.295000	-28605.645000	-13235.265000	-27949.545000	-16073.910000	-500.940000	-11506.230000	22.399159	-3.040688	-14.841755	-14.907598	-9.301045	-9.976082	-6.993542	8.161963	-28.780360	-20.295800	-12.116440	0.882200	-0.207641	0.346984	-1.000000	-1.000000	-1.000000	-1.000000	-1.000000	-1.000000	-1.000000	71.448276	0.000000	-1.000000	-1.000000	2393841.000000	1770066285.057251
-24958.080000	-25422.030000	-28591.695000	-13221.135000	-27947.925000	-16074.495000	-487.980000	-11410.605000	14.234866	2.025110	-4.742912	-5.468904	-3.602089	-7.496869	-7.437064	3.289169	-28.780360	-20.295800	-12.116440	0.882200	-0.207641	0.346984	-1.000000	-1.000000	-1.000000	-1.000000	-1.000000	-1.000000	-1.000000	71.448276	0.000000	-1.000000	-1.000000	2393842.000000	1770066285.057257
-24938.865000	-25428.825000	-28607.220000	-13227.480000	-27944.370000	-16067.340000	-485.235000	-11416.995000	8.052999	2.397648	0.798862	-1.152375	-2.928531	-7.581533	-4.983510	16.443883	-28.780360	-20.295800	-12.116440	0.882200	-0.207641	0.346984	-1.000000	-1.000000	-1.000000	-1.000000	-1.000000	-1.000000	-1.000000	71.448276	0.000000	-1.000000	-1.000000	2393843.000000	1770066285.061352
-24900.615000	-25440.390000	-28638.540000	-13263.750000	-27980.955000	-16102.755000	-505.530000	-11418.975000	4.002186	-1.942358	0.839767	-1.659076	-5.077043	-8.146337	-0.387646	34.415260	-28.780360	-20.295800	-12.116440	0.882200	-0.207641	0.346984	-1.000000	-1.000000	-1.000000	-1.000000	-1.000000	-1.000000	-1.000000	71.448276	0.000000	-1.000000	-1.000000	2393844.000000	1770066285.061358
-24922.080000	-25436.745000	-28627.380000	-13252.905000	-27972.315000	-16092.990000	-496.665000	-11448.180000	-0.129730	-7.479107	-2.710560	-5.104207	-7.989311	-7.419410	3.344015	36.978639	-28.780360	-20.295800	-12.116440	0.882200	-0.207641	0.346984	-1.000000	-1.000000	-1.000000	-1.000000	-1.000000	-1.000000	-1.000000	71.448276	0.000000	-1.000000	-1.000000	2393845.000000	1770066285.065213
-24933.960000	-25416.450000	-28611.855000	-13246.290000	-27974.970000	-16094.340000	-499.050000	-11460.240000	-6.904907	-8.867144	-4.358610	-6.491981	-7.371428	-3.326387	4.660373	16.781275	-28.780360	-20.295800	-12.116440	0.882200	-0.207641	0.346984	-1.000000	-1.000000	-1.000000	-1.000000	-1.000000	-1.000000	-1.000000	71.448276	0.000000	-1.000000	-1.000000	2393846.000000	1770066285.065223
-24950.655000	-25416.360000	-28602.720000	-13236.075000	-27971.730000	-16091.235000	-498.330000	-11465.055000	-14.999653	-3.215820	0.472336	-1.145338	0.324170	4.606061	4.037265	-15.792509	-28.780360	-20.295800	-12.116440	0.882200	-0.207641	0.346984	-1.000000	-1.000000	-1.000000	-1.000000	-1.000000	-1.000000	-1.000000	71.448276	0.000000	-1.000000	-1.000000	2393847.000000	1770066285.069637
-24987.555000	-25429.455000	-28607.895000	-13231.305000	-27951.615000	-16080.120000	-493.515000	-11478.555000	-19.261210	6.068829	9.624996	9.178287	11.710042	12.863286	2.538102	-40.885880	-28.780360	-20.295800	-12.116440	0.882200	-0.207641	0.346984	-1.000000	-1.000000	-1.000000	-1.000000	-1.000000	-1.000000	-1.000000	71.448276	0.000000	-1.000000	-1.000000	2393848.000000	1770066285.069649
-25056.180000	-25462.215000	-28615.500000	-13226.805000	-27934.155000	-16064.820000	-486.900000	-11509.965000	-17.764543	12.312923	16.962830	18.515650	20.079066	17.725751	1.837797	-45.321878	-28.780360	-20.295800	-12.116440	0.882200	-0.207641	0.346984	-1.000000	-1.000000	-1.000000	-1.000000	-1.000000	-1.000000	-1.000000	71.448276	0.000000	-1.000000	-1.000000	2393849.000000	1770066285.073239
-25002.045000	-25428.465000	-28591.695000	-13205.880000	-27916.065000	-16051.230000	-484.965000	-11520.675000	-13.634917	12.345513	18.974853	22.762337	22.384367	18.497438	2.978628	-33.701210	-28.780360	-20.295800	-12.116440	0.882200	-0.207641	0.346984	-1.000000	-1.000000	-1.000000	-1.000000	-1.000000	-1.000000	-1.000000	71.448276	0.000000	-1.000000	-1.000000	2393850.000000	1770066285.073249
-25019.280000	-25432.065000	-28584.180000	-13200.030000	-27916.110000	-16048.665000	-486.585000	-11534.310000	-8.707279	8.236155	15.856598	20.753584	19.036049	15.544834	4.555478	-19.742583	-28.917700	2.243220	-12.909960	0.872495	-0.174804	0.332946	-1.000000	-1.000000	-1.000000	-1.000000	-1.000000	-1.000000	-1.000000	71.448276	0.000000	-1.000000	-1.000000	2393851.000000	1770066285.077252
-25102.935000	-25481.115000	-28614.105000	-13231.395000	-27953.415000	-16077.825000	-504.990000	-11531.205000	-3.812986	2.283593	8.408330	12.190793	9.971727	8.099733	3.852288	-9.452816	-28.917700	2.243220	-12.909960	0.872495	-0.174804	0.332946	-1.000000	-1.000000	-1.000000	-1.000000	-1.000000	-1.000000	-1.000000	71.448276	0.000000	-1.000000	-1.000000	2393852.000000	1770066285.077258
-25001.685000	-25432.020000	-28585.845000	-13211.640000	-27937.845000	-16069.455000	-507.915000	-11512.125000	-0.421936	-4.505018	-1.905055	-1.280860	-3.961924	-3.370888	-0.077347	0.895418	-28.917700	2.243220	-12.909960	0.872495	-0.174804	0.332946	-1.000000	-1.000000	-1.000000	-1.000000	-1.000000	-1.000000	-1.000000	71.448276	0.000000	-1.000000	-1.000000	2393853.000000	1770066285.081293
-24824.790000	-25361.100000	-28569.240000	-13212.630000	-27942.705000	-16078.365000	-511.920000	-11485.215000	6.810867	-8.027589	-11.022630	-14.249768	-17.241268	-14.497165	-5.261643	15.049066	-28.917700	2.243220	-12.909960	0.872495	-0.174804	0.332946	-1.000000	-1.000000	-1.000000	-1.000000	-1.000000	-1.000000	-1.000000	71.448276	0.000000	-1.000000	-1.000000	2393854.000000	1770066285.081299
-24877.665000	-25380.090000	-28584.090000	-13233.690000	-27961.740000	-16089.120000	-496.395000	-11470.140000	24.155994	-4.366027	-15.242295	-21.308169	-23.322069	-20.291048	-8.506358	30.539524	-28.917700	2.243220	-12.909960	0.872495	-0.174804	0.332946	-1.000000	-1.000000	-1.000000	-1.000000	-1.000000	-1.000000	-1.000000	71.448276	0.000000	-1.000000	-1.000000	2393855.000000	1770066285.085647
-25041.195000	-25432.470000	-28573.200000	-13203.225000	-27924.210000	-16055.055000	-486.315000	-11545.065000	40.291346	2.143305	-14.655339	-20.936984	-20.371585	-18.818576	-7.546730	39.289626	-28.917700	2.243220	-12.909960	0.872495	-0.174804	0.332946	-1.000000	-1.000000	-1.000000	-1.000000	-1.000000	-1.000000	-1.000000	71.448276	0.000000	-1.000000	-1.000000	2393856.000000	1770066285.085657
-25026.480000	-25431.615000	-28569.690000	-13190.490000	-27908.280000	-16039.530000	-475.740000	-11487.645000	35.531174	3.598004	-10.757202	-13.889021	-10.719814	-10.697536	-2.478960	34.687887	-28.917700	2.243220	-12.909960	0.872495	-0.174804	0.332946	-1.000000	-1.000000	-1.000000	-1.000000	-1.000000	-1.000000	-1.000000	71.448276	0.000000	-1.000000	-1.000000	2393857.000000	1770066285.089321
-24908.760000	-25340.895000	-28528.830000	-13166.955000	-27893.520000	-16023.735000	-447.615000	-11392.110000	10.533866	0.344888	-3.914240	-2.162143	1.419691	1.088682	4.382793	20.044237	-28.917700	2.243220	-12.909960	0.872495	-0.174804	0.332946	-1.000000	-1.000000	-1.000000	-1.000000	-1.000000	-1.000000	-1.000000	71.448276	0.000000	-1.000000	-1.000000	2393858.000000	1770066285.089330
-24976.395000	-25355.115000	-28547.145000	-13187.970000	-27910.530000	-16034.580000	-456.390000	-11447.100000	-15.952023	-1.002808	4.313282	9.390959	10.899099	11.191177	9.794896	3.934552	-28.917700	2.243220	-12.909960	0.872495	-0.174804	0.332946	-1.000000	-1.000000	-1.000000	-1.000000	-1.000000	-1.000000	-1.000000	71.448276	0.000000	-1.000000	-1.000000	2393859.000000	1770066285.093645
-24946.065000	-25435.620000	-28640.385000	-13286.790000	-28004.715000	-16120.845000	-518.850000	-11493.270000	-30.760110	0.120659	8.446434	13.491748	12.574169	13.629181	9.922234	-11.123693	-28.917700	2.243220	-12.909960	0.872495	-0.174804	0.332946	-1.000000	-1.000000	-1.000000	-1.000000	-1.000000	-1.000000	-1.000000	71.448276	0.000000	-1.000000	-1.000000	2393860.000000	1770066285.093651
-24870.780000	-25420.140000	-28652.220000	-13304.880000	-28025.730000	-16140.915000	-532.665000	-11508.525000	-30.259421	-1.508435	3.578375	6.063787	4.435020	5.763741	2.620814	-26.087357	-30.581040	11.429740	-3.357200	0.937620	-0.199401	0.291930	-1.000000	-1.000000	-1.000000	-1.000000	-1.000000	-1.000000	-1.000000	71.448276	0.000000	-1.000000	-1.000000	2393861.000000	1770066285.100787
-24967.395000	-25457.715000	-28657.035000	-13299.750000	-28020.330000	-16131.960000	-514.395000	-11461.275000	-19.172376	-7.706269	-7.339872	-7.603209	-8.099224	-7.149191	-8.180418	-36.614122	-30.581040	11.429740	-3.357200	0.937620	-0.199401	0.291930	-1.000000	-1.000000	-1.000000	-1.000000	-1.000000	-1.000000	-1.000000	71.448276	0.000000	-1.000000	-1.000000	2393862.000000	1770066285.100800
-24929.280000	-25443.585000	-28641.690000	-13284.630000	-28008.495000	-16127.820000	-512.505000	-11419.740000	-10.974807	-15.545824	-15.217451	-16.018343	-14.732573	-14.798682	-14.523031	-34.857395	-30.581040	11.429740	-3.357200	0.937620	-0.199401	0.291930	-1.000000	-1.000000	-1.000000	-1.000000	-1.000000	-1.000000	-1.000000	71.448276	0.000000	-1.000000	-1.000000	2393863.000000	1770066285.101762
-24907.410000	-25409.835000	-28610.505000	-13254.615000	-27980.820000	-16108.290000	-506.880000	-11429.370000	-9.519905	-18.358928	-12.577833	-11.481296	-9.208076	-11.096953	-12.236919	-18.323444	-30.581040	11.429740	-3.357200	0.937620	-0.199401	0.291930	-1.000000	-1.000000	-1.000000	-1.000000	-1.000000	-1.000000	-1.000000	71.448276	0.000000	-1.000000	-1.000000	2393864.000000	1770066285.101774
-24900.165000	-25400.655000	-28599.660000	-13238.820000	-27962.775000	-16087.860000	-490.005000	-11437.290000	-2.562834	-9.068905	0.884380	3.738995	5.190924	1.179206	-3.579860	5.946961	-30.581040	11.429740	-3.357200	0.937620	-0.199401	0.291930	-1.000000	-1.000000	-1.000000	-1.000000	-1.000000	-1.000000	-1.000000	71.448276	0.000000	-1.000000	-1.000000	2393865.000000	1770066285.105443
-24920.190000	-25406.685000	-28602.045000	-13237.065000	-27960.930000	-16083.720000	-486.855000	-11447.550000	14.416039	9.863826	17.345558	19.520352	18.574273	13.772829	6.180786	24.507887	-30.581040	11.429740	-3.357200	0.937620	-0.199401	0.291930	-1.000000	-1.000000	-1.000000	-1.000000	-1.000000	-1.000000	-1.000000	71.448276	0.000000	-1.000000	-1.000000	2393866.000000	1770066285.105453
-24919.335000	-25395.840000	-28591.515000	-13225.905000	-27963.270000	-16077.150000	-488.025000	-11442.420000	27.736489	25.202627	26.216113	25.925006	22.491393	19.354567	11.951949	26.159728	-30.581040	11.429740	-3.357200	0.937620	-0.199401	0.291930	-1.000000	-1.000000	-1.000000	-1.000000	-1.000000	-1.000000	-1.000000	71.448276	0.000000	-1.000000	-1.000000	2393867.000000	1770066285.112227
-24925.590000	-25397.775000	-28589.130000	-13224.330000	-27959.805000	-16068.195000	-489.015000	-11454.615000	25.124482	26.808591	23.040939	20.705526	16.127511	16.432294	11.707881	12.568024	-30.581040	11.429740	-3.357200	0.937620	-0.199401	0.291930	-1.000000	-1.000000	-1.000000	-1.000000	-1.000000	-1.000000	-1.000000	71.448276	0.000000	-1.000000	-1.000000	2393868.000000	1770066285.112237
-24936.795000	-25410.870000	-28591.695000	-13234.950000	-27961.290000	-16071.120000	-494.055000	-11485.755000	9.183466	17.098119	12.675232	9.774355	6.070423	9.603297	8.020749	-3.534514	-30.581040	11.429740	-3.357200	0.937620	-0.199401	0.291930	-1.000000	-1.000000	-1.000000	-1.000000	-1.000000	-1.000000	-1.000000	71.448276	0.000000	-1.000000	-1.000000	2393869.000000	1770066285.113306
-24959.340000	-25422.525000	-28592.280000	-13255.785000	-27981.180000	-16092.405000	-502.200000	-11519.910000	-10.511906	3.917353	2.130739	-0.568263	-1.356474	3.338819	4.229121	-12.624518	-30.581040	11.429740	-3.357200	0.937620	-0.199401	0.291930	-1.000000	-1.000000	-1.000000	-1.000000	-1.000000	-1.000000	-1.000000	71.448276	0.000000	-1.000000	-1.000000	2393870.000000	1770066285.113313
-24972.300000	-25416.315000	-28578.555000	-13238.055000	-27945.675000	-16072.020000	-495.765000	-11528.595000	-25.180559	-7.780599	-6.126601	-8.939039	-5.616636	-2.391690	0.575090	-14.754949	-9.476460	16.953860	0.274680	0.964353	-0.229614	0.279296	-1.000000	-1.000000	-1.000000	-1.000000	-1.000000	-1.000000	-1.000000	71.448276	0.000000	-1.000000	-1.000000	2393871.000000	1770066285.119858
-24951.825000	-25409.565000	-28593.360000	-13231.305000	-27947.520000	-16076.160000	-500.040000	-11474.055000	-28.216271	-15.326978	-12.592519	-15.272050	-8.370379	-8.394306	-3.747696	-12.437898	-9.476460	16.953860	0.274680	0.964353	-0.229614	0.279296	-1.000000	-1.000000	-1.000000	-1.000000	-1.000000	-1.000000	-1.000000	71.448276	0.000000	-1.000000	-1.000000	2393872.000000	1770066285.119869
-24969.195000	-25402.455000	-28596.060000	-13215.915000	-27937.440000	-16053.030000	-483.750000	-11466.675000	-17.553686	-17.014240	-17.681666	-18.250040	-10.541977	-13.410223	-7.816804	-4.462849	-9.476460	16.953860	0.274680	0.964353	-0.229614	0.279296	-1.000000	-1.000000	-1.000000	-1.000000	-1.000000	-1.000000	-1.000000	71.448276	0.000000	-1.000000	-1.000000	2393873.000000	1770066285.124201
-24968.790000	-25412.310000	-28593.720000	-13204.530000	-27945.000000	-16072.335000	-490.545000	-11480.265000	1.958295	-13.040536	-20.269916	-16.834851	-12.630026	-15.872777	-9.816465	8.707436	-9.476460	16.953860	0.274680	0.964353	-0.229614	0.279296	-1.000000	-1.000000	-1.000000	-1.000000	-1.000000	-1.000000	-1.000000	71.448276	0.000000	-1.000000	-1.000000	2393874.000000	1770066285.124213
-24933.465000	-25422.840000	-28600.605000	-13217.220000	-27957.690000	-16101.450000	-502.695000	-11457.405000	20.484999	-6.278140	-18.132080	-11.403872	-13.853335	-15.562776	-9.167319	19.818743	-9.476460	16.953860	0.274680	0.964353	-0.229614	0.279296	-1.000000	-1.000000	-1.000000	-1.000000	-1.000000	-1.000000	-1.000000	71.448276	0.000000	-1.000000	-1.000000	2393875.000000	1770066285.125777
