Channel1	Channel2	Channel3	Channel4	Channel5	Channel6	Channel7	Channel8	FilteredChannel1	FilteredChannel2	FilteredChannel3	FilteredChannel4	FilteredChannel5	FilteredChannel6	FilteredChannel7	FilteredChannel8	GyroX	GyroY	GyroZ	AccX	AccY	AccZ	PPG1	PPG2	rawPPG1	rawPPG2	rawPPG3	Hr	Hrv	Battery	Trigger	PhysicalTrigger	AutoTrigger	NumMeasurements	Timestamp
-15516.945000	-48511.755000	-7440.660000	978.210000	-15379.065000	-6127.560000	8559.495000	11869.695000	-3.532483	-7.482204	-6.145332	-4.363587	-2.544523	-1.613354	3.018010	2.935031	-7.340060	-4.257540	-11.994360	0.931150	0.236694	0.291320	-1.000000	-1.000000	-1.000000	-1.000000	-1.000000	-1.000000	-1.000000	67.517241	0.000000	-1.000000	-1.000000	2381569.000000	1772662652.590875
-15503.670000	-48487.140000	-7422.345000	990.855000	-15369.570000	-6114.105000	8566.290000	11881.845000	-1.797131	-7.176612	-4.196481	-0.934584	1.110490	1.556094	4.502871	-0.054964	-7.340060	-4.257540	-11.994360	0.931150	0.236694	0.291320	-1.000000	-1.000000	-1.000000	-1.000000	-1.000000	-1.000000	-1.000000	67.517241	0.000000	-1.000000	-1.000000	2381570.000000	1772662652.590885
-15507.090000	-48487.050000	-7421.355000	988.875000	-15373.755000	-6118.425000	8560.035000	11881.575000	1.080295	-3.412566	-0.324539	2.765450	4.123726	4.416769	5.030745	-4.478468	-4.608520	-4.516960	-8.667680	0.926633	0.233337	0.288573	-1.000000	-1.000000	-1.000000	-1.000000	-1.000000	-1.000000	-1.000000	67.517241	0.000000	-1.000000	-1.000000	2381571.000000	1772662652.591549
-15504.840000	-48482.370000	-7420.140000	987.615000	-15375.060000	-6120.900000	8556.570000	11877.120000	4.202675	2.865605	4.362448	5.404704	5.329852	5.577326	3.541768	-6.409130	-4.608520	-4.516960	-8.667680	0.926633	0.233337	0.288573	-1.000000	-1.000000	-1.000000	-1.000000	-1.000000	-1.000000	-1.000000	67.517241	0.000000	-1.000000	-1.000000	2381572.000000	1772662652.591553
-15489.540000	-48469.995000	-7407.270000	1000.980000	-15363.450000	-6115.860000	8562.195000	11894.670000	6.322139	8.866280	8.148323	6.366645	4.812872	4.688415	0.340986	-3.591548	-4.608520	-4.516960	-8.667680	0.926633	0.233337	0.288573	-1.000000	-1.000000	-1.000000	-1.000000	-1.000000	-1.000000	-1.000000	67.517241	0.000000	-1.000000	-1.000000	2381573.000000	1772662652.596212
-15509.520000	-48483.765000	-7408.845000	1010.070000	-15352.065000	-6110.145000	8572.095000	11885.580000	6.864039	11.917958	9.980916	6.364266	4.020997	3.021189	-2.021365	2.732523	-4.608520	-4.516960	-8.667680	0.926633	0.233337	0.288573	-1.000000	-1.000000	-1.000000	-1.000000	-1.000000	-1.000000	-1.000000	67.517241	0.000000	-1.000000	-1.000000	2381574.000000	1772662652.596220
-15513.480000	-48495.330000	-7420.680000	1002.330000	-15358.275000	-6115.905000	8565.075000	11885.805000	4.952467	9.742136	8.722343	5.545058	3.465290	1.507923	-2.120030	8.190310	-4.608520	-4.516960	-8.667680	0.926633	0.233337	0.288573	-1.000000	-1.000000	-1.000000	-1.000000	-1.000000	-1.000000	-1.000000	67.517241	0.000000	-1.000000	-1.000000	2381575.000000	1772662652.598902
-15491.115000	-48481.200000	-7412.265000	1007.145000	-15353.640000	-6109.605000	8570.970000	11887.920000	1.189863	3.283110	4.267473	3.355641	2.396687	0.139919	-1.168941	8.741280	-4.608520	-4.516960	-8.667680	0.926633	0.233337	0.288573	-1.000000	-1.000000	-1.000000	-1.000000	-1.000000	-1.000000	-1.000000	67.517241	0.000000	-1.000000	-1.000000	2381576.000000	1772662652.598907
-15484.275000	-48466.935000	-7404.840000	1021.725000	-15339.150000	-6093.135000	8575.110000	11887.155000	-1.502263	-2.386474	-0.861257	0.500751	0.844842	-0.703067	-0.126322	4.521929	-4.608520	-4.516960	-8.667680	0.926633	0.233337	0.288573	-1.000000	-1.000000	-1.000000	-1.000000	-1.000000	-1.000000	-1.000000	67.517241	0.000000	-1.000000	-1.000000	2381577.000000	1772662652.607121
-15493.455000	-48468.105000	-7416.900000	1018.620000	-15341.040000	-6091.200000	8562.780000	11883.150000	-2.067079	-3.930894	-4.285357	-1.724793	-0.502844	-0.626491	0.966064	-1.175263	-4.608520	-4.516960	-8.667680	0.926633	0.233337	0.288573	-1.000000	-1.000000	-1.000000	-1.000000	-1.000000	-1.000000	-1.000000	67.517241	0.000000	-1.000000	-1.000000	2381578.000000	1772662652.607130
-15502.635000	-48480.570000	-7433.190000	982.485000	-15377.940000	-6121.080000	8553.555000	11922.390000	-2.700211	-3.489803	-6.636653	-3.959893	-2.400672	-0.958901	1.081292	-5.049668	-4.608520	-4.516960	-8.667680	0.926633	0.233337	0.288573	-1.000000	-1.000000	-1.000000	-1.000000	-1.000000	-1.000000	-1.000000	67.517241	0.000000	-1.000000	-1.000000	2381579.000000	1772662652.607332
-15435.270000	-48382.920000	-7361.460000	1031.895000	-15340.230000	-6091.110000	8589.105000	11930.625000	-3.905012	-3.122067	-8.116551	-6.911481	-5.583638	-3.038169	-0.198246	-4.879143	-4.608520	-4.516960	-8.667680	0.926633	0.233337	0.288573	-1.000000	-1.000000	-1.000000	-1.000000	-1.000000	-1.000000	-1.000000	67.517241	0.000000	-1.000000	-1.000000	2381580.000000	1772662652.607340
-15466.770000	-48410.910000	-7353.810000	1025.910000	-15351.210000	-6106.455000	8577.990000	11885.130000	-3.180734	-1.008450	-5.759561	-8.051859	-7.763709	-5.210465	-1.037248	-1.554466	-2.060100	-3.097780	-7.462140	0.923337	0.235107	0.284118	-1.000000	-1.000000	-1.000000	-1.000000	-1.000000	-1.000000	-1.000000	67.517241	0.000000	-1.000000	-1.000000	2381581.000000	1772662652.610886
-15550.605000	-48537.270000	-7453.845000	961.695000	-15398.640000	-6150.375000	8541.630000	11834.370000	-1.628465	0.859812	-0.310676	-6.140570	-7.221911	-5.786965	-0.878119	-0.183422	-2.060100	-3.097780	-7.462140	0.923337	0.235107	0.284118	-1.000000	-1.000000	-1.000000	-1.000000	-1.000000	-1.000000	-1.000000	67.517241	0.000000	-1.000000	-1.000000	2381582.000000	1772662652.610893
-15530.580000	-48521.655000	-7449.795000	966.060000	-15392.025000	-6146.595000	8538.030000	11860.245000	-3.473440	-3.807661	1.403560	-4.461528	-5.846865	-5.737936	-1.878862	-3.885925	-2.060100	-3.097780	-7.462140	0.923337	0.235107	0.284118	-1.000000	-1.000000	-1.000000	-1.000000	-1.000000	-1.000000	-1.000000	67.517241	0.000000	-1.000000	-1.000000	2381583.000000	1772662652.615465
-15508.620000	-48499.740000	-7428.645000	978.795000	-15383.385000	-6141.150000	8525.430000	11882.340000	-7.007759	-12.618271	-2.402151	-4.110768	-4.307971	-5.033324	-4.626331	-8.255093	-2.060100	-3.097780	-7.462140	0.923337	0.235107	0.284118	-1.000000	-1.000000	-1.000000	-1.000000	-1.000000	-1.000000	-1.000000	67.517241	0.000000	-1.000000	-1.000000	2381584.000000	1772662652.615472
-15499.620000	-48492.990000	-7421.130000	989.370000	-15375.015000	-6130.440000	8545.590000	11896.335000	-6.250496	-15.178526	-5.265631	-1.813339	-0.621024	-1.824107	-6.335875	-6.754195	-2.060100	-3.097780	-7.462140	0.923337	0.235107	0.284118	-1.000000	-1.000000	-1.000000	-1.000000	-1.000000	-1.000000	-1.000000	67.517241	0.000000	-1.000000	-1.000000	2381585.000000	1772662652.618864
-15517.170000	-48504.240000	-7426.665000	990.945000	-15367.005000	-6113.430000	8577.090000	11885.940000	-0.172008	-7.345270	-2.585738	3.752174	5.311241	3.913115	-3.579017	1.183863	-2.060100	-3.097780	-7.462140	0.923337	0.235107	0.284118	-1.000000	-1.000000	-1.000000	-1.000000	-1.000000	-1.000000	-1.000000	67.517241	0.000000	-1.000000	-1.000000	2381586.000000	1772662652.618872
-15529.815000	-48521.475000	-7442.145000	975.510000	-15379.245000	-6121.620000	8564.130000	11912.580000	6.624648	5.127568	3.579221	9.687536	10.714018	9.674566	3.991561	10.096878	-2.060100	-3.097780	-7.462140	0.923337	0.235107	0.284118	-1.000000	-1.000000	-1.000000	-1.000000	-1.000000	-1.000000	-1.000000	67.517241	0.000000	-1.000000	-1.000000	2381587.000000	1772662652.623553
-15524.820000	-48520.665000	-7444.530000	969.210000	-15390.090000	-6136.290000	8545.185000	11928.195000	9.436931	13.737573	8.140608	12.134153	12.483387	12.229389	11.444433	14.185935	-2.060100	-3.097780	-7.462140	0.923337	0.235107	0.284118	-1.000000	-1.000000	-1.000000	-1.000000	-1.000000	-1.000000	-1.000000	67.517241	0.000000	-1.000000	-1.000000	2381588.000000	1772662652.623560
-15530.265000	-48518.370000	-7443.630000	968.580000	-15393.645000	-6138.990000	8540.595000	11867.580000	6.736161	13.556857	7.197804	9.044436	8.969925	9.423476	12.199209	11.004107	-2.060100	-3.097780	-7.462140	0.923337	0.235107	0.284118	-1.000000	-1.000000	-1.000000	-1.000000	-1.000000	-1.000000	-1.000000	67.517241	0.000000	-1.000000	-1.000000	2381589.000000	1772662652.627132
-15536.880000	-48506.310000	-7432.740000	978.660000	-15383.970000	-6129.225000	8558.460000	11819.655000	1.262818	7.245693	1.826500	2.204698	1.843853	2.712545	5.566120	1.581552	-2.060100	-3.097780	-7.462140	0.923337	0.235107	0.284118	-1.000000	-1.000000	-1.000000	-1.000000	-1.000000	-1.000000	-1.000000	67.517241	0.000000	-1.000000	-1.000000	2381590.000000	1772662652.627139
-15507.990000	-48478.995000	-7407.540000	1004.760000	-15358.320000	-6112.665000	8584.920000	11861.280000	-1.037912	3.784519	-1.271649	-2.687509	-3.648632	-2.771141	-1.888325	-8.912306	-4.043900	-3.616620	-9.705360	0.922727	0.252441	0.280578	-1.000000	-1.000000	-1.000000	-1.000000	-1.000000	-1.000000	-1.000000	67.517241	0.000000	-1.000000	-1.000000	2381591.000000	1772662652.630822
-15495.750000	-48486.825000	-7416.495000	996.210000	-15367.500000	-6121.890000	8571.420000	11880.135000	2.765532	7.564576	2.268005	-1.880380	-3.867855	-3.611819	-4.163893	-13.253062	-4.043900	-3.616620	-9.705360	0.922727	0.252441	0.280578	-1.000000	-1.000000	-1.000000	-1.000000	-1.000000	-1.000000	-1.000000	67.517241	0.000000	-1.000000	-1.000000	2381592.000000	1772662652.630829
-15506.955000	-48500.055000	-7429.725000	983.430000	-15378.840000	-6128.145000	8560.035000	11877.660000	8.035827	11.920506	7.679465	1.402448	-1.229367	-1.900634	-2.200253	-9.160115	-4.043900	-3.616620	-9.705360	0.922727	0.252441	0.280578	-1.000000	-1.000000	-1.000000	-1.000000	-1.000000	-1.000000	-1.000000	67.517241	0.000000	-1.000000	-1.000000	2381593.000000	1772662652.634681
-15537.915000	-48534.075000	-7464.015000	950.175000	-15411.375000	-6157.620000	8524.080000	11866.095000	7.507424	7.991758	6.965076	0.975537	-1.026634	-2.149950	-1.505887	-1.216716	-4.043900	-3.616620	-9.705360	0.922727	0.252441	0.280578	-1.000000	-1.000000	-1.000000	-1.000000	-1.000000	-1.000000	-1.000000	67.517241	0.000000	-1.000000	-1.000000	2381594.000000	1772662652.634688
-15528.195000	-48518.415000	-7446.780000	966.645000	-15396.165000	-6142.095000	8518.005000	11841.390000	-0.344878	-4.486786	-1.292836	-4.719380	-5.048733	-5.969490	-5.588154	4.400479	-4.043900	-3.616620	-9.705360	0.922727	0.252441	0.280578	-1.000000	-1.000000	-1.000000	-1.000000	-1.000000	-1.000000	-1.000000	67.517241	0.000000	-1.000000	-1.000000	2381595.000000	1772662652.639161
-15497.145000	-48481.425000	-7410.240000	1001.070000	-15364.485000	-6113.340000	8548.020000	11871.585000	-9.353171	-16.607571	-10.075687	-10.079474	-8.799328	-9.389340	-11.120471	4.566810	-4.043900	-3.616620	-9.705360	0.922727	0.252441	0.280578	-1.000000	-1.000000	-1.000000	-1.000000	-1.000000	-1.000000	-1.000000	67.517241	0.000000	-1.000000	-1.000000	2381596.000000	1772662652.639170
-15484.095000	-48466.395000	-7395.885000	1016.145000	-15348.915000	-6098.940000	8578.575000	11912.850000	-12.319728	-19.340517	-11.594493	-8.475681	-6.358690	-6.791518	-10.574686	1.805144	-4.043900	-3.616620	-9.705360	0.922727	0.252441	0.280578	-1.000000	-1.000000	-1.000000	-1.000000	-1.000000	-1.000000	-1.000000	67.517241	0.000000	-1.000000	-1.000000	2381597.000000	1772662652.643101
-15510.735000	-48497.220000	-7428.420000	986.085000	-15375.240000	-6121.665000	8564.715000	11909.385000	-8.187107	-12.399141	-5.906842	-0.638925	1.712032	1.547046	-1.474709	2.496303	-4.043900	-3.616620	-9.705360	0.922727	0.252441	0.280578	-1.000000	-1.000000	-1.000000	-1.000000	-1.000000	-1.000000	-1.000000	67.517241	0.000000	-1.000000	-1.000000	2381598.000000	1772662652.643110
-15537.645000	-48524.175000	-7456.905000	958.860000	-15400.755000	-6148.125000	8538.030000	11864.565000	-1.657706	-2.752548	0.275095	6.003922	8.266193	8.803459	9.488983	8.176478	-4.043900	-3.616620	-9.705360	0.922727	0.252441	0.280578	-1.000000	-1.000000	-1.000000	-1.000000	-1.000000	-1.000000	-1.000000	67.517241	0.000000	-1.000000	-1.000000	2381599.000000	1772662652.647047
-15533.640000	-48518.460000	-7452.315000	962.145000	-15397.785000	-6146.190000	8552.880000	11836.035000	1.918106	3.108660	1.718355	5.707139	7.418473	8.955229	13.628161	11.115973	-4.043900	-3.616620	-9.705360	0.922727	0.252441	0.280578	-1.000000	-1.000000	-1.000000	-1.000000	-1.000000	-1.000000	-1.000000	67.517241	0.000000	-1.000000	-1.000000	2381600.000000	1772662652.647055
-15509.385000	-48490.470000	-7424.640000	985.725000	-15378.210000	-6128.595000	8566.200000	11872.170000	1.207410	4.302760	-0.378367	0.261669	0.811227	3.012365	9.646719	4.367073	-12.497940	0.366240	-10.529400	0.928098	0.258239	0.284484	-1.000000	-1.000000	-1.000000	-1.000000	-1.000000	-1.000000	-1.000000	67.517241	0.000000	-1.000000	-1.000000	2381601.000000	1772662652.650966
-15489.990000	-48467.430000	-7397.370000	1012.140000	-15354.990000	-6106.680000	8571.330000	11901.780000	-0.097924	4.842828	-0.537489	-3.296890	-4.318978	-2.546751	3.193005	-7.467143	-12.497940	0.366240	-10.529400	0.928098	0.258239	0.284484	-1.000000	-1.000000	-1.000000	-1.000000	-1.000000	-1.000000	-1.000000	67.517241	0.000000	-1.000000	-1.000000	2381602.000000	1772662652.650973
-15494.895000	-48484.215000	-7416.000000	996.660000	-15367.320000	-6112.035000	8565.705000	11904.480000	1.981969	7.640579	4.071879	-0.650006	-3.093522	-2.906148	-0.729955	-13.737503	-12.497940	0.366240	-10.529400	0.928098	0.258239	0.284484	-1.000000	-1.000000	-1.000000	-1.000000	-1.000000	-1.000000	-1.000000	67.517241	0.000000	-1.000000	-1.000000	2381603.000000	1772662652.656760
-15528.645000	-48511.395000	-7452.720000	954.720000	-15410.025000	-6148.440000	8525.745000	11870.280000	5.886561	9.729578	8.962320	4.431136	1.481826	0.011552	-2.216155	-10.713883	-12.497940	0.366240	-10.529400	0.928098	0.258239	0.284484	-1.000000	-1.000000	-1.000000	-1.000000	-1.000000	-1.000000	-1.000000	67.517241	0.000000	-1.000000	-1.000000	2381604.000000	1772662652.656767
-15529.320000	-48488.400000	-7432.920000	962.460000	-15405.795000	-6148.440000	8510.805000	11883.735000	5.867841	6.056293	7.209181	4.557955	2.395362	0.446530	-4.863812	-4.186097	-12.497940	0.366240	-10.529400	0.928098	0.258239	0.284484	-1.000000	-1.000000	-1.000000	-1.000000	-1.000000	-1.000000	-1.000000	67.517241	0.000000	-1.000000	-1.000000	2381605.000000	1772662652.658822
-15524.775000	-48514.500000	-7442.145000	975.330000	-15383.565000	-6126.840000	8555.580000	11885.580000	0.044125	-3.048695	-1.338180	-1.460003	-1.879872	-3.060471	-9.470586	-0.393261	-12.497940	0.366240	-10.529400	0.928098	0.258239	0.284484	-1.000000	-1.000000	-1.000000	-1.000000	-1.000000	-1.000000	-1.000000	67.517241	0.000000	-1.000000	-1.000000	2381606.000000	1772662652.658828
-15509.880000	-48495.420000	-7422.615000	1006.470000	-15349.365000	-6099.615000	8593.785000	11839.905000	-6.000370	-11.116978	-9.254061	-6.633377	-5.065190	-5.271338	-10.506426	0.321284	-12.497940	0.366240	-10.529400	0.928098	0.258239	0.284484	-1.000000	-1.000000	-1.000000	-1.000000	-1.000000	-1.000000	-1.000000	67.517241	0.000000	-1.000000	-1.000000	2381607.000000	1772662652.667849
-15474.330000	-48445.830000	-7379.865000	1041.210000	-15317.280000	-6074.055000	8599.905000	11844.810000	-5.375459	-10.956848	-8.886595	-3.934689	-1.053754	-1.050328	-3.127035	0.582398	-12.497940	0.366240	-10.529400	0.928098	0.258239	0.284484	-1.000000	-1.000000	-1.000000	-1.000000	-1.000000	-1.000000	-1.000000	67.517241	0.000000	-1.000000	-1.000000	2381608.000000	1772662652.667858
-15482.520000	-48445.425000	-7384.410000	1027.080000	-15337.755000	-6089.625000	8591.130000	11872.080000	1.993830	-1.477622	0.191139	5.412887	8.088983	7.588163	8.623131	2.369244	-12.497940	0.366240	-10.529400	0.928098	0.258239	0.284484	-1.000000	-1.000000	-1.000000	-1.000000	-1.000000	-1.000000	-1.000000	67.517241	0.000000	-1.000000	-1.000000	2381609.000000	1772662652.668028
-15495.885000	-48476.790000	-7419.150000	989.370000	-15377.040000	-6124.365000	8578.080000	11894.085000	8.729998	9.356940	9.542402	12.098037	13.064014	12.317854	15.287724	5.647353	-12.497940	0.366240	-10.529400	0.928098	0.258239	0.284484	-1.000000	-1.000000	-1.000000	-1.000000	-1.000000	-1.000000	-1.000000	67.517241	0.000000	-1.000000	-1.000000	2381610.000000	1772662652.668036
-15533.190000	-48529.845000	-7457.895000	963.630000	-15395.355000	-6137.730000	8551.935000	11889.360000	7.525731	11.141272	9.499603	7.957429	6.851619	6.837139	11.462462	7.979426	-8.881320	7.416360	-9.140740	0.930662	0.248901	0.298095	-1.000000	-1.000000	-1.000000	-1.000000	-1.000000	-1.000000	-1.000000	67.517241	0.000000	-1.000000	-1.000000	2381611.000000	1772662652.672274
-15530.715000	-48520.215000	-7453.215000	962.325000	-15400.215000	-6140.565000	8537.535000	11882.475000	-1.480274	1.804894	-0.526963	-4.933508	-7.128040	-5.878975	-0.143355	7.066307	-8.881320	7.416360	-9.140740	0.930662	0.248901	0.298095	-1.000000	-1.000000	-1.000000	-1.000000	-1.000000	-1.000000	-1.000000	67.517241	0.000000	-1.000000	-1.000000	2381612.000000	1772662652.672280
-15531.570000	-48514.545000	-7453.980000	955.845000	-15408.540000	-6145.515000	8534.835000	11865.735000	-10.981501	-10.300796	-11.647836	-16.260138	-18.193765	-16.172411	-11.453383	2.978867	-8.881320	7.416360	-9.140740	0.930662	0.248901	0.298095	-1.000000	-1.000000	-1.000000	-1.000000	-1.000000	-1.000000	-1.000000	67.517241	0.000000	-1.000000	-1.000000	2381613.000000	1772662652.674972
-15553.845000	-48542.355000	-7479.495000	932.580000	-15428.655000	-6166.755000	8521.155000	11851.515000	-14.116840	-15.941739	-15.696400	-18.389453	-19.251000	-17.384088	-15.795020	-3.018892	-8.881320	7.416360	-9.140740	0.930662	0.248901	0.298095	-1.000000	-1.000000	-1.000000	-1.000000	-1.000000	-1.000000	-1.000000	67.517241	0.000000	-1.000000	-1.000000	2381614.000000	1772662652.674976
-15555.780000	-48533.445000	-7463.835000	953.145000	-15407.235000	-6151.005000	8514.945000	11797.380000	-10.140679	-12.527159	-11.465811	-11.774487	-11.528878	-10.546409	-13.067104	-9.311273	-8.881320	7.416360	-9.140740	0.930662	0.248901	0.298095	-1.000000	-1.000000	-1.000000	-1.000000	-1.000000	-1.000000	-1.000000	67.517241	0.000000	-1.000000	-1.000000	2381615.000000	1772662652.680480
-15520.860000	-48487.815000	-7418.925000	998.640000	-15364.710000	-6118.830000	8537.895000	11817.720000	-2.031782	-2.268749	-1.495695	-0.486201	0.226651	-0.138570	-6.998779	-12.687235	-8.881320	7.416360	-9.140740	0.930662	0.248901	0.298095	-1.000000	-1.000000	-1.000000	-1.000000	-1.000000	-1.000000	-1.000000	67.517241	0.000000	-1.000000	-1.000000	2381616.000000	1772662652.680487
-15482.295000	-48461.445000	-7398.180000	1029.330000	-15336.855000	-6095.025000	8586.360000	11925.585000	7.286084	10.306440	10.379015	11.650534	12.059097	10.224589	0.814932	-8.345035	-8.881320	7.416360	-9.140740	0.930662	0.248901	0.298095	-1.000000	-1.000000	-1.000000	-1.000000	-1.000000	-1.000000	-1.000000	67.517241	0.000000	-1.000000	-1.000000	2381617.000000	1772662652.685484
-15502.725000	-48495.465000	-7434.405000	999.810000	-15362.460000	-6110.640000	8582.445000	11921.400000	14.750551	18.926117	18.549481	20.369136	20.331336	17.552672	10.324039	4.636207	-8.881320	7.416360	-9.140740	0.930662	0.248901	0.298095	-1.000000	-1.000000	-1.000000	-1.000000	-1.000000	-1.000000	-1.000000	67.517241	0.000000	-1.000000	-1.000000	2381618.000000	1772662652.685491
-15518.430000	-48507.075000	-7438.770000	977.445000	-15385.590000	-6125.400000	8577.495000	11870.595000	16.695424	18.820376	18.395437	21.249401	21.311968	18.907755	18.503542	17.287875	-8.881320	7.416360	-9.140740	0.930662	0.248901	0.298095	-1.000000	-1.000000	-1.000000	-1.000000	-1.000000	-1.000000	-1.000000	67.517241	0.000000	-1.000000	-1.000000	2381619.000000	1772662652.686700
-15520.365000	-48513.375000	-7445.790000	957.825000	-15405.345000	-6140.745000	8552.205000	11877.705000	11.715187	10.815775	10.587210	13.001047	13.557314	12.978694	20.288390	18.126789	-8.881320	7.416360	-9.140740	0.930662	0.248901	0.298095	-1.000000	-1.000000	-1.000000	-1.000000	-1.000000	-1.000000	-1.000000	67.517241	0.000000	-1.000000	-1.000000	2381620.000000	1772662652.686711
-15513.615000	-48514.815000	-7443.585000	964.935000	-15398.190000	-6138.720000	8538.255000	11881.215000	2.711421	-0.025023	0.088613	-0.386868	0.443992	2.021498	13.469495	6.768504	-10.468360	10.483620	-8.484560	0.929502	0.247131	0.308105	-1.000000	-1.000000	-1.000000	-1.000000	-1.000000	-1.000000	-1.000000	67.517241	0.000000	-1.000000	-1.000000	2381621.000000	1772662652.692827
-15530.040000	-48527.685000	-7459.605000	953.415000	-15411.105000	-6151.095000	8537.445000	11861.955000	-5.819722	-9.208051	-8.522697	-12.025758	-11.328327	-8.776043	0.872996	-7.370745	-10.468360	10.483620	-8.484560	0.929502	0.247131	0.308105	-1.000000	-1.000000	-1.000000	-1.000000	-1.000000	-1.000000	-1.000000	67.517241	0.000000	-1.000000	-1.000000	2381622.000000	1772662652.692836
-15533.955000	-48516.795000	-7449.750000	962.280000	-15401.925000	-6145.470000	8550.360000	11867.355000	-10.899245	-13.823747	-12.744732	-16.786949	-16.558427	-14.671167	-11.255773	-15.504602	-10.468360	10.483620	-8.484560	0.929502	0.247131	0.308105	-1.000000	-1.000000	-1.000000	-1.000000	-1.000000	-1.000000	-1.000000	67.517241	0.000000	-1.000000	-1.000000	2381623.000000	1772662652.694917
-15544.575000	-48521.655000	-7453.440000	960.885000	-15402.105000	-6150.105000	8546.355000	11846.880000	-11.846207	-12.642584	-12.121341	-14.338377	-14.802501	-14.402571	-17.419935	-13.941585	-10.468360	10.483620	-8.484560	0.929502	0.247131	0.308105	-1.000000	-1.000000	-1.000000	-1.000000	-1.000000	-1.000000	-1.000000	67.517241	0.000000	-1.000000	-1.000000	2381624.000000	1772662652.694921
-15535.890000	-48512.385000	-7446.555000	967.860000	-15396.660000	-6147.720000	8537.940000	11838.420000	-10.294326	-8.130664	-8.935257	-8.703799	-9.686257	-10.408563	-16.826875	-5.911127	-10.468360	10.483620	-8.484560	0.929502	0.247131	0.308105	-1.000000	-1.000000	-1.000000	-1.000000	-1.000000	-1.000000	-1.000000	67.517241	0.000000	-1.000000	-1.000000	2381625.000000	1772662652.698792
-15533.820000	-48507.570000	-7440.615000	973.170000	-15391.485000	-6142.635000	8521.110000	11839.320000	-8.142801	-3.958128	-5.673248	-3.772198	-4.681905	-5.614974	-12.834956	-0.024494	-10.468360	10.483620	-8.484560	0.929502	0.247131	0.308105	-1.000000	-1.000000	-1.000000	-1.000000	-1.000000	-1.000000	-1.000000	67.517241	0.000000	-1.000000	-1.000000	2381626.000000	1772662652.698797
-15522.615000	-48504.330000	-7436.790000	976.095000	-15388.695000	-6136.380000	8535.420000	11872.035000	-4.705506	-0.233509	-1.640339	0.645543	0.323074	-0.352191	-7.963711	-0.209349	-10.468360	10.483620	-8.484560	0.929502	0.247131	0.308105	-1.000000	-1.000000	-1.000000	-1.000000	-1.000000	-1.000000	-1.000000	67.517241	0.000000	-1.000000	-1.000000	2381627.000000	1772662652.702998
-15516.675000	-48503.385000	-7437.195000	976.410000	-15387.930000	-6129.630000	8559.225000	11883.285000	1.825038	4.841807	4.515397	6.442273	6.743813	6.156427	-1.078579	-0.870805	-10.468360	10.483620	-8.484560	0.929502	0.247131	0.308105	-1.000000	-1.000000	-1.000000	-1.000000	-1.000000	-1.000000	-1.000000	67.517241	0.000000	-1.000000	-1.000000	2381628.000000	1772662652.703007
-15524.370000	-48511.080000	-7446.330000	966.780000	-15397.470000	-6134.265000	8561.880000	11850.435000	10.027611	10.267893	10.750646	12.498317	13.092016	12.491882	9.036175	2.976596	-10.468360	10.483620	-8.484560	0.929502	0.247131	0.308105	-1.000000	-1.000000	-1.000000	-1.000000	-1.000000	-1.000000	-1.000000	67.517241	0.000000	-1.000000	-1.000000	2381629.000000	1772662652.706828
-15527.070000	-48509.055000	-7443.630000	969.390000	-15394.770000	-6133.500000	8555.265000	11844.945000	15.078517	12.458335	13.087885	14.906610	15.465563	15.232932	19.062637	8.205702	-10.468360	10.483620	-8.484560	0.929502	0.247131	0.308105	-1.000000	-1.000000	-1.000000	-1.000000	-1.000000	-1.000000	-1.000000	67.517241	0.000000	-1.000000	-1.000000	2381630.000000	1772662652.706834
-15522.615000	-48501.090000	-7434.945000	977.760000	-15386.175000	-6129.090000	8554.995000	11847.285000	13.794653	9.617107	10.105374	11.476064	11.849640	12.329025	22.600986	9.903822	-18.357780	13.840820	-4.822160	0.929563	0.248412	0.312438	-1.000000	-1.000000	-1.000000	-1.000000	-1.000000	-1.000000	-1.000000	67.517241	0.000000	-1.000000	-1.000000	2381631.000000	1772662652.711619
-15505.110000	-48477.465000	-7411.365000	1000.080000	-15366.690000	-6118.290000	8564.895000	11854.260000	7.776570	3.759091	4.156339	4.085409	4.159677	5.056458	16.271237	7.878457	-18.357780	13.840820	-4.822160	0.929563	0.248412	0.312438	-1.000000	-1.000000	-1.000000	-1.000000	-1.000000	-1.000000	-1.000000	67.517241	0.000000	-1.000000	-1.000000	2381632.000000	1772662652.711628
-15492.870000	-48463.200000	-7398.000000	1012.275000	-15357.105000	-6113.070000	8570.205000	11886.885000	0.880350	-1.846148	-1.501579	-3.555451	-3.952645	-3.339958	3.110018	5.170583	-18.357780	13.840820	-4.822160	0.929563	0.248412	0.312438	-1.000000	-1.000000	-1.000000	-1.000000	-1.000000	-1.000000	-1.000000	67.517241	0.000000	-1.000000	-1.000000	2381633.000000	1772662652.719115
-15506.190000	-48484.125000	-7419.960000	991.755000	-15377.355000	-6129.585000	8550.315000	11901.690000	-4.788711	-5.943430	-5.660918	-9.190610	-10.052598	-10.069608	-10.320589	3.628497	-18.357780	13.840820	-4.822160	0.929563	0.248412	0.312438	-1.000000	-1.000000	-1.000000	-1.000000	-1.000000	-1.000000	-1.000000	67.517241	0.000000	-1.000000	-1.000000	2381634.000000	1772662652.719124
-15534.495000	-48520.620000	-7457.355000	956.475000	-15408.630000	-6153.570000	8535.465000	11887.470000	-9.523170	-9.478850	-9.249379	-12.828379	-13.710352	-13.989383	-18.836245	1.639831	-18.357780	13.840820	-4.822160	0.929563	0.248412	0.312438	-1.000000	-1.000000	-1.000000	-1.000000	-1.000000	-1.000000	-1.000000	67.517241	0.000000	-1.000000	-1.000000	2381635.000000	1772662652.719134
-15512.715000	-48480.390000	-7414.065000	999.135000	-15366.645000	-6112.080000	8566.020000	11876.265000	-13.047834	-12.085624	-11.944469	-13.938744	-14.186485	-14.168770	-20.058869	-3.380273	-18.357780	13.840820	-4.822160	0.929563	0.248412	0.312438	-1.000000	-1.000000	-1.000000	-1.000000	-1.000000	-1.000000	-1.000000	67.517241	0.000000	-1.000000	-1.000000	2381636.000000	1772662652.719138
-15494.040000	-48464.640000	-7399.755000	1012.050000	-15353.910000	-6094.215000	8568.405000	11893.680000	-12.650419	-10.297209	-10.287226	-9.775122	-9.117891	-8.788966	-13.817714	-10.323094	-18.357780	13.840820	-4.822160	0.929563	0.248412	0.312438	-1.000000	-1.000000	-1.000000	-1.000000	-1.000000	-1.000000	-1.000000	67.517241	0.000000	-1.000000	-1.000000	2381637.000000	1772662652.722930
-15513.120000	-48511.890000	-7453.395000	956.070000	-15408.495000	-6137.505000	8546.805000	11878.470000	-6.634796	-3.048809	-3.219528	-0.594901	0.629017	0.988247	-3.033557	-14.148393	-18.357780	13.840820	-4.822160	0.929563	0.248412	0.312438	-1.000000	-1.000000	-1.000000	-1.000000	-1.000000	-1.000000	-1.000000	67.517241	0.000000	-1.000000	-1.000000	2381638.000000	1772662652.722937
-15519.735000	-48508.155000	-7445.520000	961.830000	-15404.220000	-6137.640000	8561.475000	11858.670000	1.972208	4.624229	4.171850	7.389016	8.556211	9.042083	6.999171	-11.723764	-18.357780	13.840820	-4.822160	0.929563	0.248412	0.312438	-1.000000	-1.000000	-1.000000	-1.000000	-1.000000	-1.000000	-1.000000	67.517241	0.000000	-1.000000	-1.000000	2381639.000000	1772662652.726867
-15529.050000	-48502.575000	-7431.030000	980.505000	-15383.835000	-6125.715000	8566.560000	11869.155000	7.940481	7.650429	7.108598	9.267494	9.858095	10.589361	12.377106	-5.026466	-18.357780	13.840820	-4.822160	0.929563	0.248412	0.312438	-1.000000	-1.000000	-1.000000	-1.000000	-1.000000	-1.000000	-1.000000	67.517241	0.000000	-1.000000	-1.000000	2381640.000000	1772662652.726876
-15556.995000	-48526.785000	-7454.655000	953.280000	-15414.165000	-6160.275000	8528.580000	11839.365000	7.976185	5.363923	5.379406	5.726066	5.567480	6.140101	11.650430	1.789124	-19.639620	12.162220	-3.799740	0.924680	0.241699	0.309570	-1.000000	-1.000000	-1.000000	-1.000000	-1.000000	-1.000000	-1.000000	67.517241	0.000000	-1.000000	-1.000000	2381641.000000	1772662652.730853
-15545.115000	-48519.630000	-7454.790000	962.010000	-15403.005000	-6150.555000	8508.150000	11818.530000	2.538750	-0.144542	0.775709	-0.289179	-0.962615	-1.091859	4.956809	4.647720	-19.639620	12.162220	-3.799740	0.924680	0.241699	0.309570	-1.000000	-1.000000	-1.000000	-1.000000	-1.000000	-1.000000	-1.000000	67.517241	0.000000	-1.000000	-1.000000	2381642.000000	1772662652.730862
-15508.980000	-48485.925000	-7430.670000	985.680000	-15379.650000	-6125.130000	8541.675000	11848.095000	-3.087277	-4.084471	-2.975826	-4.351368	-5.097912	-6.145462	-3.713866	2.381548	-19.639620	12.162220	-3.799740	0.924680	0.241699	0.309570	-1.000000	-1.000000	-1.000000	-1.000000	-1.000000	-1.000000	-1.000000	67.517241	0.000000	-1.000000	-1.000000	2381643.000000	1772662652.734850
-15509.430000	-48487.320000	-7432.335000	976.275000	-15391.305000	-6131.880000	8568.090000	11874.780000	-2.639694	-1.560139	-1.596811	-2.426981	-2.991935	-4.770596	-7.249458	-0.317626	-19.639620	12.162220	-3.799740	0.924680	0.241699	0.309570	-1.000000	-1.000000	-1.000000	-1.000000	-1.000000	-1.000000	-1.000000	67.517241	0.000000	-1.000000	-1.000000	2381644.000000	1772662652.734859
-15533.145000	-48516.345000	-7447.365000	964.800000	-15400.935000	-6136.245000	8561.205000	11877.525000	3.157314	5.246411	3.611029	3.338882	2.889352	1.019392	-3.128856	1.896654	-19.639620	12.162220	-3.799740	0.924680	0.241699	0.309570	-1.000000	-1.000000	-1.000000	-1.000000	-1.000000	-1.000000	-1.000000	67.517241	0.000000	-1.000000	-1.000000	2381645.000000	1772662652.738789
-15515.730000	-48494.430000	-7427.655000	983.205000	-15383.655000	-6120.225000	8561.295000	11858.850000	7.553795	9.078057	7.117178	7.080642	6.669458	5.464486	3.839980	7.772855	-19.639620	12.162220	-3.799740	0.924680	0.241699	0.309570	-1.000000	-1.000000	-1.000000	-1.000000	-1.000000	-1.000000	-1.000000	67.517241	0.000000	-1.000000	-1.000000	2381646.000000	1772662652.738797
-15528.330000	-48508.920000	-7443.405000	967.455000	-15397.605000	-6133.320000	8554.635000	11848.005000	6.879224	7.444183	6.956035	7.058551	6.786288	6.468720	7.917918	11.614252	-19.639620	12.162220	-3.799740	0.924680	0.241699	0.309570	-1.000000	-1.000000	-1.000000	-1.000000	-1.000000	-1.000000	-1.000000	67.517241	0.000000	-1.000000	-1.000000	2381647.000000	1772662652.742939
-15535.845000	-48514.410000	-7450.020000	961.515000	-15404.130000	-6143.040000	8543.160000	11859.165000	2.671723	2.843659	4.250385	4.495572	4.524631	4.885979	6.612702	10.158941	-19.639620	12.162220	-3.799740	0.924680	0.241699	0.309570	-1.000000	-1.000000	-1.000000	-1.000000	-1.000000	-1.000000	-1.000000	67.517241	0.000000	-1.000000	-1.000000	2381648.000000	1772662652.742947
-15547.320000	-48525.300000	-7462.935000	949.095000	-15416.280000	-6157.350000	8541.405000	11863.125000	-2.361189	-2.688366	-0.712390	-0.427397	-0.031108	0.982373	0.692778	4.738096	-19.639620	12.162220	-3.799740	0.924680	0.241699	0.309570	-1.000000	-1.000000	-1.000000	-1.000000	-1.000000	-1.000000	-1.000000	67.517241	0.000000	-1.000000	-1.000000	2381649.000000	1772662652.750746
-15541.560000	-48517.425000	-7456.140000	956.205000	-15407.055000	-6147.720000	8543.700000	11856.105000	-5.922800	-7.389518	-6.559713	-6.411436	-5.700456	-3.896750	-5.661946	-1.321107	-19.639620	12.162220	-3.799740	0.924680	0.241699	0.309570	-1.000000	-1.000000	-1.000000	-1.000000	-1.000000	-1.000000	-1.000000	67.517241	0.000000	-1.000000	-1.000000	2381650.000000	1772662652.750753
-15522.615000	-48491.550000	-7431.075000	978.300000	-15386.625000	-6130.710000	8521.785000	11848.860000	-6.526986	-8.766027	-9.560663	-9.784120	-8.915345	-6.601676	-8.053519	-5.881484	-17.762640	7.004340	-3.235120	0.915586	0.235473	0.299926	-1.000000	-1.000000	-1.000000	-1.000000	-1.000000	-1.000000	-1.000000	67.517241	0.000000	-1.000000	-1.000000	2381651.000000	1772662652.751079
-15519.780000	-48489.615000	-7426.485000	984.735000	-15380.235000	-6122.970000	8523.855000	11853.900000	-4.355028	-5.735261	-7.066596	-7.808438	-7.114151	-5.281443	-6.588132	-8.922414	-17.762640	7.004340	-3.235120	0.915586	0.235473	0.299926	-1.000000	-1.000000	-1.000000	-1.000000	-1.000000	-1.000000	-1.000000	67.517241	0.000000	-1.000000	-1.000000	2381652.000000	1772662652.751086
-15523.155000	-48506.580000	-7439.355000	979.830000	-15381.450000	-6114.780000	8554.860000	11869.830000	-0.979432	-0.385225	-0.812579	-1.599460	-1.384722	-1.065313	-3.968793	-10.521066	-17.762640	7.004340	-3.235120	0.915586	0.235473	0.299926	-1.000000	-1.000000	-1.000000	-1.000000	-1.000000	-1.000000	-1.000000	67.517241	0.000000	-1.000000	-1.000000	2381653.000000	1772662652.754839
-15504.165000	-48488.535000	-7423.695000	991.980000	-15372.000000	-6105.105000	8555.355000	11896.020000	2.133688	3.897907	4.715077	4.836867	4.577758	3.281921	-0.854738	-9.043219	-17.762640	7.004340	-3.235120	0.915586	0.235473	0.299926	-1.000000	-1.000000	-1.000000	-1.000000	-1.000000	-1.000000	-1.000000	67.517241	0.000000	-1.000000	-1.000000	2381654.000000	1772662652.754847
-15491.295000	-48471.750000	-7406.955000	1006.920000	-15358.905000	-6096.690000	8544.825000	11893.815000	4.513228	5.867572	7.058392	8.386399	7.790669	5.603959	2.996346	-2.941016	-17.762640	7.004340	-3.235120	0.915586	0.235473	0.299926	-1.000000	-1.000000	-1.000000	-1.000000	-1.000000	-1.000000	-1.000000	67.517241	0.000000	-1.000000	-1.000000	2381655.000000	1772662652.760803
-15541.470000	-48530.430000	-7466.985000	946.980000	-15414.165000	-6145.290000	8539.470000	11863.395000	5.333605	5.541177	6.104797	7.835707	7.026091	4.865112	6.043686	5.367112	-17.762640	7.004340	-3.235120	0.915586	0.235473	0.299926	-1.000000	-1.000000	-1.000000	-1.000000	-1.000000	-1.000000	-1.000000	67.517241	0.000000	-1.000000	-1.000000	2381656.000000	1772662652.760812
-15563.115000	-48552.300000	-7491.825000	922.725000	-15437.790000	-6173.415000	8533.350000	11870.910000	2.676765	1.681341	1.189035	2.190494	1.477631	0.305535	6.367378	10.024834	-17.762640	7.004340	-3.235120	0.915586	0.235473	0.299926	-1.000000	-1.000000	-1.000000	-1.000000	-1.000000	-1.000000	-1.000000	67.517241	0.000000	-1.000000	-1.000000	2381657.000000	1772662652.762866
-15551.415000	-48522.780000	-7467.750000	943.290000	-15418.305000	-6161.130000	8529.210000	11868.750000	-3.072213	-4.824668	-6.284967	-6.658202	-6.887682	-6.518438	3.883578	8.011800	-17.762640	7.004340	-3.235120	0.915586	0.235473	0.299926	-1.000000	-1.000000	-1.000000	-1.000000	-1.000000	-1.000000	-1.000000	67.517241	0.000000	-1.000000	-1.000000	2381658.000000	1772662652.762874
-15537.690000	-48504.375000	-7453.305000	960.480000	-15402.015000	-6144.300000	8550.630000	11873.655000	-7.684873	-8.787712	-10.757568	-12.387943	-12.101312	-10.662299	0.675754	2.067575	-17.762640	7.004340	-3.235120	0.915586	0.235473	0.299926	-1.000000	-1.000000	-1.000000	-1.000000	-1.000000	-1.000000	-1.000000	67.517241	0.000000	-1.000000	-1.000000	2381659.000000	1772662652.766874
-15529.410000	-48518.145000	-7466.535000	963.405000	-15399.090000	-6138.765000	8554.545000	11861.820000	-7.657842	-6.968187	-8.683445	-10.554719	-10.099476	-8.604995	-0.587627	-3.410600	-17.762640	7.004340	-3.235120	0.915586	0.235473	0.299926	-1.000000	-1.000000	-1.000000	-1.000000	-1.000000	-1.000000	-1.000000	67.517241	0.000000	-1.000000	-1.000000	2381660.000000	1772662652.766882
-15532.110000	-48515.940000	-7452.315000	968.400000	-15395.355000	-6132.195000	8552.655000	11831.130000	-3.403254	-1.634432	-2.159825	-2.815471	-2.573249	-1.731536	0.118990	-6.857114	-14.847980	-0.122080	-3.631880	0.910642	0.231384	0.288207	-1.000000	-1.000000	-1.000000	-1.000000	-1.000000	-1.000000	-1.000000	67.517241	0.000000	-1.000000	-1.000000	2381661.000000	1772662652.772584
-15512.490000	-48486.150000	-7415.190000	992.160000	-15373.035000	-6109.965000	8562.150000	11872.125000	2.458847	4.044126	5.459174	6.243687	6.053285	5.945528	0.039489	-8.607660	-14.847980	-0.122080	-3.631880	0.910642	0.231384	0.288207	-1.000000	-1.000000	-1.000000	-1.000000	-1.000000	-1.000000	-1.000000	67.517241	0.000000	-1.000000	-1.000000	2381662.000000	1772662652.772592
-15496.830000	-48471.300000	-7404.120000	998.775000	-15366.465000	-6107.175000	8560.800000	11899.035000	7.269234	8.618741	11.912944	12.555088	11.975162	10.912663	-2.024532	-7.171764	-14.847980	-0.122080	-3.631880	0.910642	0.231384	0.288207	-1.000000	-1.000000	-1.000000	-1.000000	-1.000000	-1.000000	-1.000000	67.517241	0.000000	-1.000000	-1.000000	2381663.000000	1772662652.776226
-15512.400000	-48488.670000	-7424.055000	982.485000	-15383.880000	-6125.265000	8554.725000	11868.435000	9.132015	10.584365	14.478778	13.555801	12.923160	11.287456	-4.238581	-1.077699	-14.847980	-0.122080	-3.631880	0.910642	0.231384	0.288207	-1.000000	-1.000000	-1.000000	-1.000000	-1.000000	-1.000000	-1.000000	67.517241	0.000000	-1.000000	-1.000000	2381664.000000	1772662652.776235
-15541.290000	-48516.525000	-7452.765000	959.085000	-15406.515000	-6151.500000	8537.670000	11861.190000	7.474120	8.658992	11.226727	9.202705	8.859643	7.322547	-4.858485	6.682124	-14.847980	-0.122080	-3.631880	0.910642	0.231384	0.288207	-1.000000	-1.000000	-1.000000	-1.000000	-1.000000	-1.000000	-1.000000	67.517241	0.000000	-1.000000	-1.000000	2381665.000000	1772662652.781042
-15548.760000	-48523.905000	-7461.315000	950.715000	-15413.940000	-6156.180000	8535.780000	11832.615000	3.056029	3.154908	3.133676	1.805853	1.880883	1.188795	-3.897995	10.516691	-14.847980	-0.122080	-3.631880	0.910642	0.231384	0.288207	-1.000000	-1.000000	-1.000000	-1.000000	-1.000000	-1.000000	-1.000000	67.517241	0.000000	-1.000000	-1.000000	2381666.000000	1772662652.781052
-15510.960000	-48479.715000	-7416.270000	995.850000	-15369.300000	-6111.270000	8568.495000	11837.475000	-2.179413	-3.863223	-6.200769	-5.420516	-4.918918	-4.091335	-1.600032	7.696043	-14.847980	-0.122080	-3.631880	0.910642	0.231384	0.288207	-1.000000	-1.000000	-1.000000	-1.000000	-1.000000	-1.000000	-1.000000	67.517241	0.000000	-1.000000	-1.000000	2381667.000000	1772662652.782875
-15509.520000	-48489.165000	-7436.565000	967.545000	-15400.980000	-6140.610000	8546.400000	11880.630000	-5.658552	-9.090981	-12.371017	-9.775666	-8.977451	-6.508190	1.726493	1.365336	-14.847980	-0.122080	-3.631880	0.910642	0.231384	0.288207	-1.000000	-1.000000	-1.000000	-1.000000	-1.000000	-1.000000	-1.000000	67.517241	0.000000	-1.000000	-1.000000	2381668.000000	1772662652.782884
-15493.905000	-48473.595000	-7424.460000	971.730000	-15399.990000	-6138.855000	8546.985000	11864.835000	-6.056511	-10.030508	-13.121666	-10.750863	-10.039018	-6.824522	4.114486	-2.402433	-14.847980	-0.122080	-3.631880	0.910642	0.231384	0.288207	-1.000000	-1.000000	-1.000000	-1.000000	-1.000000	-1.000000	-1.000000	67.517241	0.000000	-1.000000	-1.000000	2381669.000000	1772662652.786892
-15512.580000	-48497.265000	-7434.045000	977.400000	-15386.445000	-6120.720000	8559.675000	11862.990000	-4.220214	-6.984209	-9.529321	-9.188584	-8.897128	-6.468274	3.717512	-1.592331	-14.847980	-0.122080	-3.631880	0.910642	0.231384	0.288207	-1.000000	-1.000000	-1.000000	-1.000000	-1.000000	-1.000000	-1.000000	67.517241	0.000000	-1.000000	-1.000000	2381670.000000	1772662652.786900
-15550.290000	-48537.180000	-7470.225000	949.005000	-15413.085000	-6144.885000	8534.430000	11847.960000	-3.019454	-3.683984	-5.270838	-6.175004	-6.082472	-5.523344	1.027192	-0.146983	-11.826500	-5.417300	-3.158820	0.916196	0.226440	0.276977	-1.000000	-1.000000	-1.000000	-1.000000	-1.000000	-1.000000	-1.000000	67.517241	0.000000	-1.000000	-1.000000	2381671.000000	1772662652.790778
-15539.940000	-48520.665000	-7458.705000	955.845000	-15405.840000	-6142.365000	8520.840000	11834.325000	-4.773503	-3.649056	-3.508495	-3.187307	-2.739569	-4.009445	-2.466628	-2.185030	-11.826500	-5.417300	-3.158820	0.916196	0.226440	0.276977	-1.000000	-1.000000	-1.000000	-1.000000	-1.000000	-1.000000	-1.000000	67.517241	0.000000	-1.000000	-1.000000	2381672.000000	1772662652.790784
-15524.370000	-48494.430000	-7429.320000	986.400000	-15374.070000	-6116.715000	8556.345000	11849.355000	-6.553515	-4.078344	-1.946163	0.516624	1.450014	-0.926579	-4.485524	-6.105651	-11.826500	-5.417300	-3.158820	0.916196	0.226440	0.276977	-1.000000	-1.000000	-1.000000	-1.000000	-1.000000	-1.000000	-1.000000	67.517241	0.000000	-1.000000	-1.000000	2381673.000000	1772662652.795356
-15536.430000	-48511.575000	-7447.860000	966.105000	-15395.670000	-6138.810000	8559.225000	11858.310000	-2.949838	0.667173	4.083775	7.006874	7.904245	5.166814	-2.130822	-6.426147	-11.826500	-5.417300	-3.158820	0.916196	0.226440	0.276977	-1.000000	-1.000000	-1.000000	-1.000000	-1.000000	-1.000000	-1.000000	67.517241	0.000000	-1.000000	-1.000000	2381674.000000	1772662652.795365
-15530.220000	-48510.360000	-7449.030000	962.820000	-15401.115000	-6146.280000	8549.010000	11856.600000	5.547090	9.290274	12.678798	13.624150	13.722331	11.335910	3.850701	-0.872248	-11.826500	-5.417300	-3.158820	0.916196	0.226440	0.276977	-1.000000	-1.000000	-1.000000	-1.000000	-1.000000	-1.000000	-1.000000	67.517241	0.000000	-1.000000	-1.000000	2381675.000000	1772662652.805732
-15519.555000	-48494.880000	-7432.695000	981.360000	-15384.420000	-6129.135000	8558.685000	11864.025000	12.403786	14.414658	16.547186	14.432145	13.304180	11.901800	8.189142	6.703158	-11.826500	-5.417300	-3.158820	0.916196	0.226440	0.276977	-1.000000	-1.000000	-1.000000	-1.000000	-1.000000	-1.000000	-1.000000	67.517241	0.000000	-1.000000	-1.000000	2381676.000000	1772662652.805743
-15507.270000	-48482.370000	-7421.805000	990.720000	-15377.580000	-6119.370000	8563.275000	11861.955000	12.634834	12.088505	12.550763	8.362863	6.294937	6.189092	7.420854	10.209568	-11.826500	-5.417300	-3.158820	0.916196	0.226440	0.276977	-1.000000	-1.000000	-1.000000	-1.000000	-1.000000	-1.000000	-1.000000	67.517241	0.000000	-1.000000	-1.000000	2381677.000000	1772662652.805754
-15511.320000	-48492.810000	-7431.255000	979.875000	-15388.740000	-6122.565000	8554.410000	11863.485000	6.871421	4.793240	3.914182	-0.205950	-2.381695	-1.224190	2.741137	7.313414	-11.826500	-5.417300	-3.158820	0.916196	0.226440	0.276977	-1.000000	-1.000000	-1.000000	-1.000000	-1.000000	-1.000000	-1.000000	67.517241	0.000000	-1.000000	-1.000000	2381678.000000	1772662652.805758
-15512.490000	-48493.710000	-7430.490000	980.145000	-15386.580000	-6119.820000	8541.405000	11869.515000	-0.674966	-2.814554	-4.764220	-7.211494	-8.704279	-6.610066	-3.331931	0.860802	-11.826500	-5.417300	-3.158820	0.916196	0.226440	0.276977	-1.000000	-1.000000	-1.000000	-1.000000	-1.000000	-1.000000	-1.000000	67.517241	0.000000	-1.000000	-1.000000	2381679.000000	1772662652.812502
-15511.230000	-48490.560000	-7428.600000	978.795000	-15390.810000	-6132.375000	8513.055000	11868.930000	-5.735252	-7.146644	-9.995096	-10.554937	-11.018189	-8.746280	-8.522997	-4.803227	-11.826500	-5.417300	-3.158820	0.916196	0.226440	0.276977	-1.000000	-1.000000	-1.000000	-1.000000	-1.000000	-1.000000	-1.000000	67.517241	0.000000	-1.000000	-1.000000	2381680.000000	1772662652.812513
-15505.650000	-48478.410000	-7412.940000	994.905000	-15376.005000	-6120.405000	8545.005000	11852.145000	-6.595906	-7.138909	-10.115942	-9.410978	-8.963842	-7.553546	-10.374601	-7.116441	-11.734940	-7.797860	-2.762060	0.923521	0.222839	0.271423	-1.000000	-1.000000	-1.000000	-1.000000	-1.000000	-1.000000	-1.000000	67.517241	0.000000	-1.000000	-1.000000	2381681.000000	1772662652.812756
-15513.615000	-48481.110000	-7414.560000	992.745000	-15378.390000	-6123.375000	8560.260000	11837.835000	-4.455988	-4.319888	-6.121178	-4.778764	-3.815741	-3.827958	-7.248139	-6.518205	-11.734940	-7.797860	-2.762060	0.923521	0.222839	0.271423	-1.000000	-1.000000	-1.000000	-1.000000	-1.000000	-1.000000	-1.000000	67.517241	0.000000	-1.000000	-1.000000	2381682.000000	1772662652.812760
-15534.990000	-48503.340000	-7439.490000	969.030000	-15397.290000	-6141.015000	8553.330000	11849.760000	-1.854545	-1.243318	-0.992190	0.632852	1.817444	0.788535	-0.240439	-4.831319	-11.734940	-7.797860	-2.762060	0.923521	0.222839	0.271423	-1.000000	-1.000000	-1.000000	-1.000000	-1.000000	-1.000000	-1.000000	67.517241	0.000000	-1.000000	-1.000000	2381683.000000	1772662652.823038
-15527.520000	-48503.205000	-7444.665000	970.425000	-15390.135000	-6133.185000	8561.250000	11846.385000	-1.085666	-0.319706	1.688378	3.532655	5.052680	3.966233	6.734172	-2.585102	-11.734940	-7.797860	-2.762060	0.923521	0.222839	0.271423	-1.000000	-1.000000	-1.000000	-1.000000	-1.000000	-1.000000	-1.000000	67.517241	0.000000	-1.000000	-1.000000	2381684.000000	1772662652.823047
-15514.965000	-48500.415000	-7445.295000	971.505000	-15391.080000	-6130.890000	8569.215000	11830.320000	-2.390380	-2.254263	0.227063	2.381900	4.487778	4.101702	9.955591	-0.150988	-11.734940	-7.797860	-2.762060	0.923521	0.222839	0.271423	-1.000000	-1.000000	-1.000000	-1.000000	-1.000000	-1.000000	-1.000000	67.517241	0.000000	-1.000000	-1.000000	2381685.000000	1772662652.823056
-15522.930000	-48512.835000	-7455.195000	959.850000	-15407.370000	-6141.555000	8547.570000	11825.055000	-3.796739	-5.088832	-3.442562	-1.131692	1.224037	1.672900	8.212909	1.197934	-11.734940	-7.797860	-2.762060	0.923521	0.222839	0.271423	-1.000000	-1.000000	-1.000000	-1.000000	-1.000000	-1.000000	-1.000000	67.517241	0.000000	-1.000000	-1.000000	2381686.000000	1772662652.823060
-15525.720000	-48505.860000	-7447.050000	959.805000	-15408.675000	-6139.170000	8548.380000	11847.510000	-3.450928	-5.821952	-5.560041	-3.868725	-2.399778	-1.558123	2.611890	1.577303	-11.734940	-7.797860	-2.762060	0.923521	0.222839	0.271423	-1.000000	-1.000000	-1.000000	-1.000000	-1.000000	-1.000000	-1.000000	67.517241	0.000000	-1.000000	-1.000000	2381687.000000	1772662652.823350
-15522.210000	-48495.420000	-7444.665000	969.750000	-15396.390000	-6130.215000	8556.570000	11858.490000	-0.853340	-2.490756	-3.487379	-3.455758	-3.966205	-3.374936	-3.356926	2.668779	-11.734940	-7.797860	-2.762060	0.923521	0.222839	0.271423	-1.000000	-1.000000	-1.000000	-1.000000	-1.000000	-1.000000	-1.000000	67.517241	0.000000	-1.000000	-1.000000	2381688.000000	1772662652.823354
-15509.790000	-48483.765000	-7422.795000	977.445000	-15389.235000	-6127.560000	8555.220000	11873.835000	3.274323	4.123631	2.441516	0.466747	-1.993210	-2.045346	-5.592204	5.345720	-11.734940	-7.797860	-2.762060	0.923521	0.222839	0.271423	-1.000000	-1.000000	-1.000000	-1.000000	-1.000000	-1.000000	-1.000000	67.517241	0.000000	-1.000000	-1.000000	2381689.000000	1772662652.826942
-15488.055000	-48459.960000	-7401.960000	999.675000	-15367.590000	-6115.230000	8556.525000	11879.820000	7.427448	10.583199	9.216547	5.798291	2.579450	1.821969	-3.914865	8.695252	-11.734940	-7.797860	-2.762060	0.923521	0.222839	0.271423	-1.000000	-1.000000	-1.000000	-1.000000	-1.000000	-1.000000	-1.000000	67.517241	0.000000	-1.000000	-1.000000	2381690.000000	1772662652.826950
-15496.245000	-48469.050000	-7406.055000	1005.795000	-15359.040000	-6110.280000	8564.535000	11873.655000	10.135118	13.594134	13.465908	9.860829	7.321214	5.873209	-1.625313	10.257141	-10.453100	-9.094960	-1.831200	0.926450	0.220336	0.267394	-1.000000	-1.000000	-1.000000	-1.000000	-1.000000	-1.000000	-1.000000	67.517241	0.000000	-1.000000	-1.000000	2381691.000000	1772662652.834457
-15488.595000	-48450.600000	-7388.685000	1022.085000	-15342.390000	-6090.210000	8584.605000	11865.690000	10.061543	11.965018	13.359006	11.272402	10.243752	8.319193	-0.286548	7.318698	-10.453100	-9.094960	-1.831200	0.926450	0.220336	0.267394	-1.000000	-1.000000	-1.000000	-1.000000	-1.000000	-1.000000	-1.000000	67.517241	0.000000	-1.000000	-1.000000	2381692.000000	1772662652.834467
-15462.540000	-48413.430000	-7347.915000	1061.865000	-15303.375000	-6052.275000	8608.545000	11858.715000	6.510450	6.856363	9.412829	9.815879	10.217638	8.525675	1.141950	-0.375233	-10.453100	-9.094960	-1.831200	0.926450	0.220336	0.267394	-1.000000	-1.000000	-1.000000	-1.000000	-1.000000	-1.000000	-1.000000	67.517241	0.000000	-1.000000	-1.000000	2381693.000000	1772662652.835037
-15541.020000	-48526.380000	-7466.130000	943.380000	-15418.530000	-6149.790000	8547.795000	11865.420000	-0.518795	-0.630460	2.201587	4.480027	5.728506	5.273100	2.424229	-9.177517	-10.453100	-9.094960	-1.831200	0.926450	0.220336	0.267394	-1.000000	-1.000000	-1.000000	-1.000000	-1.000000	-1.000000	-1.000000	67.517241	0.000000	-1.000000	-1.000000	2381694.000000	1772662652.835044
-15603.210000	-48603.105000	-7545.645000	863.505000	-15496.020000	-6214.095000	8494.020000	11811.060000	-11.183479	-12.057481	-10.314902	-7.561309	-5.867750	-4.209734	0.518929	-14.779946	-10.453100	-9.094960	-1.831200	0.926450	0.220336	0.267394	-1.000000	-1.000000	-1.000000	-1.000000	-1.000000	-1.000000	-1.000000	67.517241	0.000000	-1.000000	-1.000000	2381695.000000	1772662652.842615
-15553.530000	-48538.620000	-7477.695000	932.220000	-15431.805000	-6160.455000	8525.700000	11821.995000	-22.006636	-25.187510	-25.723165	-23.576688	-21.711338	-17.970231	-5.357298	-16.242601	-10.453100	-9.094960	-1.831200	0.926450	0.220336	0.267394	-1.000000	-1.000000	-1.000000	-1.000000	-1.000000	-1.000000	-1.000000	67.517241	0.000000	-1.000000	-1.000000	2381696.000000	1772662652.842624
-15539.175000	-48527.955000	-7467.120000	940.995000	-15424.875000	-6157.170000	8527.455000	11853.675000	-24.146589	-29.545110	-32.257216	-31.180647	-29.790101	-25.590045	-9.840371	-13.575992	-10.453100	-9.094960	-1.831200	0.926450	0.220336	0.267394	-1.000000	-1.000000	-1.000000	-1.000000	-1.000000	-1.000000	-1.000000	67.517241	0.000000	-1.000000	-1.000000	2381697.000000	1772662652.842916
-15543.135000	-48528.855000	-7478.910000	926.010000	-15442.155000	-6177.375000	8500.095000	11824.515000	-13.072237	-18.305436	-21.997622	-21.928956	-21.799304	-19.387565	-7.971004	-6.118726	-10.453100	-9.094960	-1.831200	0.926450	0.220336	0.267394	-1.000000	-1.000000	-1.000000	-1.000000	-1.000000	-1.000000	-1.000000	67.517241	0.000000	-1.000000	-1.000000	2381698.000000	1772662652.842924
-15527.160000	-48495.915000	-7445.070000	958.050000	-15408.855000	-6154.245000	8507.655000	11822.535000	5.156424	2.984955	-0.593684	-1.263133	-2.579747	-3.134218	-1.483002	3.694781	-10.453100	-9.094960	-1.831200	0.926450	0.220336	0.267394	-1.000000	-1.000000	-1.000000	-1.000000	-1.000000	-1.000000	-1.000000	67.517241	0.000000	-1.000000	-1.000000	2381699.000000	1772662652.848408
-15488.865000	-48457.440000	-7404.390000	997.245000	-15370.245000	-6120.045000	8541.630000	11863.260000	21.160538	23.795758	21.159488	19.796587	17.653547	14.393875	5.501815	11.879396	-10.453100	-9.094960	-1.831200	0.926450	0.220336	0.267394	-1.000000	-1.000000	-1.000000	-1.000000	-1.000000	-1.000000	-1.000000	67.517241	0.000000	-1.000000	-1.000000	2381700.000000	1772662652.848417
-15489.765000	-48463.065000	-7400.880000	1014.525000	-15349.185000	-6091.200000	8598.510000	11844.270000	28.790732	35.381808	34.678798	32.803258	30.854772	26.197060	11.370911	16.706029	-9.094960	-6.912780	0.381500	0.927488	0.217956	0.261840	-1.000000	-1.000000	-1.000000	-1.000000	-1.000000	-1.000000	-1.000000	67.517241	0.000000	-1.000000	-1.000000	2381701.000000	1772662652.853082
-15529.500000	-48506.265000	-7440.390000	975.645000	-15386.715000	-6118.155000	8594.550000	11841.255000	24.814528	32.021843	34.096989	32.688963	31.878310	27.875625	15.562813	16.874287	-9.094960	-6.912780	0.381500	0.927488	0.217956	0.261840	-1.000000	-1.000000	-1.000000	-1.000000	-1.000000	-1.000000	-1.000000	67.517241	0.000000	-1.000000	-1.000000	2381702.000000	1772662652.853092
-15530.175000	-48515.310000	-7460.505000	944.685000	-15420.555000	-6148.665000	8546.085000	11873.520000	11.117849	15.840798	20.390483	20.432091	21.124357	19.514605	16.286032	12.057331	-9.094960	-6.912780	0.381500	0.927488	0.217956	0.261840	-1.000000	-1.000000	-1.000000	-1.000000	-1.000000	-1.000000	-1.000000	67.517241	0.000000	-1.000000	-1.000000	2381703.000000	1772662652.854892
-15522.120000	-48504.960000	-7445.205000	963.720000	-15403.230000	-6136.695000	8537.355000	11885.355000	-4.061641	-2.720820	2.374249	3.605080	5.256943	6.108004	11.315475	5.555629	-9.094960	-6.912780	0.381500	0.927488	0.217956	0.261840	-1.000000	-1.000000	-1.000000	-1.000000	-1.000000	-1.000000	-1.000000	67.517241	0.000000	-1.000000	-1.000000	2381704.000000	1772662652.854897
-15510.690000	-48485.655000	-7422.615000	989.325000	-15376.050000	-6111.090000	8560.755000	11871.315000	-13.581486	-15.041850	-11.735071	-10.358041	-8.733378	-6.693349	0.923993	0.097520	-9.094960	-6.912780	0.381500	0.927488	0.217956	0.261840	-1.000000	-1.000000	-1.000000	-1.000000	-1.000000	-1.000000	-1.000000	67.517241	0.000000	-1.000000	-1.000000	2381705.000000	1772662652.858911
-15512.715000	-48476.925000	-7423.650000	980.145000	-15389.370000	-6126.075000	8545.995000	11830.320000	-16.530577	-19.576682	-19.246218	-18.431039	-17.477865	-15.363951	-10.605961	-5.995662	-9.094960	-6.912780	0.381500	0.927488	0.217956	0.261840	-1.000000	-1.000000	-1.000000	-1.000000	-1.000000	-1.000000	-1.000000	67.517241	0.000000	-1.000000	-1.000000	2381706.000000	1772662652.858921
-15523.020000	-48500.595000	-7444.485000	963.270000	-15402.960000	-6140.115000	8550.135000	11809.800000	-15.076657	-18.387479	-20.760456	-20.659743	-20.477644	-18.594242	-17.735114	-14.010681	-9.094960	-6.912780	0.381500	0.927488	0.217956	0.261840	-1.000000	-1.000000	-1.000000	-1.000000	-1.000000	-1.000000	-1.000000	67.517241	0.000000	-1.000000	-1.000000	2381707.000000	1772662652.863021
-15511.455000	-48497.490000	-7439.580000	980.280000	-15382.530000	-6123.960000	8566.335000	11827.755000	-11.379970	-14.756917	-18.439078	-18.670802	-18.955364	-17.143329	-17.659134	-20.376620	-9.094960	-6.912780	0.381500	0.927488	0.217956	0.261840	-1.000000	-1.000000	-1.000000	-1.000000	-1.000000	-1.000000	-1.000000	67.517241	0.000000	-1.000000	-1.000000	2381708.000000	1772662652.863029
-15521.940000	-48505.140000	-7458.120000	969.255000	-15395.940000	-6137.100000	8545.185000	11814.480000	-7.122731	-11.232375	-14.652506	-14.399178	-14.727279	-13.026577	-12.353970	-20.167757	-9.094960	-6.912780	0.381500	0.927488	0.217956	0.261840	-1.000000	-1.000000	-1.000000	-1.000000	-1.000000	-1.000000	-1.000000	67.517241	0.000000	-1.000000	-1.000000	2381709.000000	1772662652.867265
-15538.545000	-48513.555000	-7457.220000	956.385000	-15411.105000	-6151.365000	8529.300000	11812.185000	-3.314183	-7.596369	-10.044374	-9.123270	-9.425848	-8.488470	-7.205791	-12.196634	-9.094960	-6.912780	0.381500	0.927488	0.217956	0.261840	-1.000000	-1.000000	-1.000000	-1.000000	-1.000000	-1.000000	-1.000000	67.517241	0.000000	-1.000000	-1.000000	2381710.000000	1772662652.867275
-15529.050000	-48509.820000	-7445.430000	958.995000	-15408.315000	-6146.730000	8538.795000	11863.890000	0.820525	-1.277442	-2.427924	-2.115419	-2.686402	-3.468081	-4.371267	1.004605	-8.545600	-5.737760	1.251320	0.924985	0.219055	0.255493	-1.000000	-1.000000	-1.000000	-1.000000	-1.000000	-1.000000	-1.000000	67.517241	0.000000	-1.000000	-1.000000	2381711.000000	1772662652.870916
-15515.505000	-48500.055000	-7437.015000	967.905000	-15397.155000	-6133.815000	8545.005000	11894.715000	7.007605	9.172101	10.010070	8.323415	7.434595	4.586110	0.323784	15.330707	-8.545600	-5.737760	1.251320	0.924985	0.219055	0.255493	-1.000000	-1.000000	-1.000000	-1.000000	-1.000000	-1.000000	-1.000000	67.517241	0.000000	-1.000000	-1.000000	2381712.000000	1772662652.870924
-15501.690000	-48482.505000	-7421.265000	986.130000	-15378.120000	-6112.980000	8557.605000	11850.435000	13.909441	19.856241	22.785319	19.385675	18.674026	14.841343	9.480595	24.830566	-8.545600	-5.737760	1.251320	0.924985	0.219055	0.255493	-1.000000	-1.000000	-1.000000	-1.000000	-1.000000	-1.000000	-1.000000	67.517241	0.000000	-1.000000	-1.000000	2381713.000000	1772662652.875044
-15526.845000	-48503.700000	-7442.235000	968.985000	-15394.500000	-6127.515000	8557.470000	11844.495000	16.547054	23.300309	26.971631	23.724135	23.789281	21.146331	18.397369	23.489225	-8.545600	-5.737760	1.251320	0.924985	0.219055	0.255493	-1.000000	-1.000000	-1.000000	-1.000000	-1.000000	-1.000000	-1.000000	67.517241	0.000000	-1.000000	-1.000000	2381714.000000	1772662652.875069
-15526.530000	-48499.965000	-7441.110000	970.335000	-15393.420000	-6130.215000	8552.655000	11845.395000	11.464799	15.776663	18.407790	17.427620	18.420351	18.630362	20.619153	11.908686	-8.545600	-5.737760	1.251320	0.924985	0.219055	0.255493	-1.000000	-1.000000	-1.000000	-1.000000	-1.000000	-1.000000	-1.000000	67.517241	0.000000	-1.000000	-1.000000	2381715.000000	1772662652.878849
-15512.625000	-48480.795000	-7423.920000	985.635000	-15379.020000	-6120.675000	8568.630000	11833.830000	1.078166	1.664427	2.256587	4.335981	5.753354	8.668097	14.406481	-2.355867	-8.545600	-5.737760	1.251320	0.924985	0.219055	0.255493	-1.000000	-1.000000	-1.000000	-1.000000	-1.000000	-1.000000	-1.000000	67.517241	0.000000	-1.000000	-1.000000	2381716.000000	1772662652.878856
-15540.570000	-48513.870000	-7458.345000	949.995000	-15414.120000	-6151.545000	8550.990000	11818.845000	-8.858259	-10.950137	-12.418926	-8.703205	-7.769405	-3.803398	2.696327	-12.963138	-8.545600	-5.737760	1.251320	0.924985	0.219055	0.255493	-1.000000	-1.000000	-1.000000	-1.000000	-1.000000	-1.000000	-1.000000	67.517241	0.000000	-1.000000	-1.000000	2381717.000000	1772662652.882898
-15526.215000	-48492.630000	-7442.145000	960.660000	-15405.885000	-6142.590000	8549.640000	11826.135000	-14.171533	-17.100803	-19.884518	-17.175212	-17.370205	-14.220212	-9.658943	-17.590204	-8.545600	-5.737760	1.251320	0.924985	0.219055	0.255493	-1.000000	-1.000000	-1.000000	-1.000000	-1.000000	-1.000000	-1.000000	67.517241	0.000000	-1.000000	-1.000000	2381718.000000	1772662652.882905
-15501.195000	-48462.345000	-7411.320000	988.245000	-15382.395000	-6120.630000	8557.020000	11842.110000	-12.454737	-14.859217	-17.985726	-17.914662	-19.203521	-18.135125	-17.435771	-15.477014	-8.545600	-5.737760	1.251320	0.924985	0.219055	0.255493	-1.000000	-1.000000	-1.000000	-1.000000	-1.000000	-1.000000	-1.000000	67.517241	0.000000	-1.000000	-1.000000	2381719.000000	1772662652.886837
-15505.200000	-48490.515000	-7426.575000	984.960000	-15378.705000	-6112.080000	8561.745000	11856.960000	-3.828663	-5.142149	-7.677647	-9.424116	-11.178988	-12.596285	-16.876115	-8.384827	-8.545600	-5.737760	1.251320	0.924985	0.219055	0.255493	-1.000000	-1.000000	-1.000000	-1.000000	-1.000000	-1.000000	-1.000000	67.517241	0.000000	-1.000000	-1.000000	2381720.000000	1772662652.886844
-15516.000000	-48503.295000	-7440.165000	972.540000	-15390.675000	-6123.195000	8551.845000	11866.950000	6.218527	5.400671	4.584035	3.466859	2.221270	-0.950271	-8.898004	-0.330763	-7.187460	-5.020540	0.625660	0.922788	0.220153	0.254821	-1.000000	-1.000000	-1.000000	-1.000000	-1.000000	-1.000000	-1.000000	67.517241	0.000000	-1.000000	-1.000000	2381721.000000	1772662652.890923
-15525.270000	-48508.200000	-7447.455000	962.865000	-15401.880000	-6138.045000	8519.085000	11866.185000	10.390845	8.891014	10.451745	11.528730	11.525781	8.167298	0.350551	6.238395	-7.187460	-5.020540	0.625660	0.922788	0.220153	0.254821	-1.000000	-1.000000	-1.000000	-1.000000	-1.000000	-1.000000	-1.000000	67.517241	0.000000	-1.000000	-1.000000	2381722.000000	1772662652.890930
-15538.905000	-48515.220000	-7453.665000	955.305000	-15410.880000	-6152.175000	8478.630000	11815.920000	6.663492	4.299346	7.567921	10.121513	11.255611	9.036885	4.254456	10.079282	-7.187460	-5.020540	0.625660	0.922788	0.220153	0.254821	-1.000000	-1.000000	-1.000000	-1.000000	-1.000000	-1.000000	-1.000000	67.517241	0.000000	-1.000000	-1.000000	2381723.000000	1772662652.900565
-15537.465000	-48506.265000	-7445.475000	957.555000	-15408.900000	-6152.490000	8529.615000	11800.620000	-1.023395	-2.962793	0.493054	2.471908	3.953832	3.333218	2.118033	9.023730	-7.187460	-5.020540	0.625660	0.922788	0.220153	0.254821	-1.000000	-1.000000	-1.000000	-1.000000	-1.000000	-1.000000	-1.000000	67.517241	0.000000	-1.000000	-1.000000	2381724.000000	1772662652.900573
-15532.695000	-48506.085000	-7449.075000	958.590000	-15404.895000	-6143.490000	8579.160000	11836.665000	-7.208288	-7.095560	-4.891411	-5.131692	-4.102427	-3.207183	0.117701	3.550312	-7.187460	-5.020540	0.625660	0.922788	0.220153	0.254821	-1.000000	-1.000000	-1.000000	-1.000000	-1.000000	-1.000000	-1.000000	67.517241	0.000000	-1.000000	-1.000000	2381725.000000	1772662652.900583
-15509.025000	-48482.505000	-7424.865000	981.990000	-15383.070000	-6123.195000	8567.235000	11840.310000	-7.922152	-5.314480	-5.114928	-7.661980	-7.393700	-5.327319	3.745862	-1.287172	-7.187460	-5.020540	0.625660	0.922788	0.220153	0.254821	-1.000000	-1.000000	-1.000000	-1.000000	-1.000000	-1.000000	-1.000000	67.517241	0.000000	-1.000000	-1.000000	2381726.000000	1772662652.900587
-15507.585000	-48485.070000	-7427.295000	978.300000	-15388.110000	-6124.275000	8568.765000	11852.910000	-2.617145	1.165380	-0.384017	-3.764835	-4.061750	-1.558459	10.667161	-1.707215	-7.187460	-5.020540	0.625660	0.922788	0.220153	0.254821	-1.000000	-1.000000	-1.000000	-1.000000	-1.000000	-1.000000	-1.000000	67.517241	0.000000	-1.000000	-1.000000	2381727.000000	1772662652.902910
-15550.155000	-48538.035000	-7483.770000	927.765000	-15434.055000	-6159.915000	8540.190000	11839.905000	4.146499	6.959462	4.495581	2.280216	1.852696	3.985322	13.676688	0.319589	-7.187460	-5.020540	0.625660	0.922788	0.220153	0.254821	-1.000000	-1.000000	-1.000000	-1.000000	-1.000000	-1.000000	-1.000000	67.517241	0.000000	-1.000000	-1.000000	2381728.000000	1772662652.902916
-15542.640000	-48528.765000	-7473.735000	937.575000	-15425.235000	-6150.690000	8537.310000	11843.685000	6.301334	7.007182	4.267207	4.372310	4.151783	5.532761	8.554970	0.299724	-7.187460	-5.020540	0.625660	0.922788	0.220153	0.254821	-1.000000	-1.000000	-1.000000	-1.000000	-1.000000	-1.000000	-1.000000	67.517241	0.000000	-1.000000	-1.000000	2381729.000000	1772662652.910643
-15540.480000	-48521.430000	-7463.430000	944.910000	-15419.160000	-6149.430000	8533.530000	11839.365000	3.042956	2.333655	-0.160430	1.778960	1.720627	2.195032	-2.098095	-2.915011	-7.187460	-5.020540	0.625660	0.922788	0.220153	0.254821	-1.000000	-1.000000	-1.000000	-1.000000	-1.000000	-1.000000	-1.000000	67.517241	0.000000	-1.000000	-1.000000	2381730.000000	1772662652.910651
-15539.940000	-48516.030000	-7455.960000	953.505000	-15409.755000	-6145.470000	8535.015000	11831.850000	-1.173451	-1.913775	-3.280994	-1.051229	-1.207924	-1.880171	-11.021779	-6.030296	-6.180300	-3.921820	0.183120	0.926450	0.219970	0.259704	-1.000000	-1.000000	-1.000000	-1.000000	-1.000000	-1.000000	-1.000000	67.517241	0.000000	-1.000000	-1.000000	2381731.000000	1772662652.910914
-15531.300000	-48503.880000	-7445.610000	964.035000	-15399.090000	-6139.530000	8547.435000	11825.685000	-2.294619	-2.425017	-1.843492	-0.548539	-0.857887	-2.730280	-12.407247	-5.196575	-6.180300	-3.921820	0.183120	0.926450	0.219970	0.259704	-1.000000	-1.000000	-1.000000	-1.000000	-1.000000	-1.000000	-1.000000	67.517241	0.000000	-1.000000	-1.000000	2381732.000000	1772662652.910922
-15513.885000	-48487.275000	-7430.715000	976.545000	-15389.010000	-6133.365000	8557.335000	11830.545000	0.187996	0.331439	2.752493	2.852304	2.524469	-0.115242	-7.217141	-0.062965	-6.180300	-3.921820	0.183120	0.926450	0.219970	0.259704	-1.000000	-1.000000	-1.000000	-1.000000	-1.000000	-1.000000	-1.000000	67.517241	0.000000	-1.000000	-1.000000	2381733.000000	1772662652.915098
-15505.065000	-48481.965000	-7427.610000	977.760000	-15388.920000	-6131.880000	8561.205000	11831.490000	3.964548	3.739495	6.890048	6.068331	5.725542	3.071964	-1.404979	5.501731	-6.180300	-3.921820	0.183120	0.926450	0.219970	0.259704	-1.000000	-1.000000	-1.000000	-1.000000	-1.000000	-1.000000	-1.000000	67.517241	0.000000	-1.000000	-1.000000	2381734.000000	1772662652.915108
-15487.155000	-48463.245000	-7409.070000	994.545000	-15372.540000	-6114.015000	8573.850000	11851.830000	6.056548	5.153760	7.651154	6.275804	5.852713	3.991217	1.425249	7.451946	-6.180300	-3.921820	0.183120	0.926450	0.219970	0.259704	-1.000000	-1.000000	-1.000000	-1.000000	-1.000000	-1.000000	-1.000000	67.517241	0.000000	-1.000000	-1.000000	2381735.000000	1772662652.921802
-15490.350000	-48462.390000	-7408.215000	993.240000	-15374.070000	-6113.295000	8566.830000	11866.995000	5.024026	3.786249	4.719114	3.277044	2.911821	2.431172	2.318478	5.519326	-6.180300	-3.921820	0.183120	0.926450	0.219970	0.259704	-1.000000	-1.000000	-1.000000	-1.000000	-1.000000	-1.000000	-1.000000	67.517241	0.000000	-1.000000	-1.000000	2381736.000000	1772662652.921810
-15516.090000	-48489.975000	-7432.875000	971.640000	-15393.105000	-6126.390000	8550.495000	11837.385000	1.499677	0.950952	0.254784	-0.772809	-0.847926	0.087559	2.890215	1.571784	-6.180300	-3.921820	0.183120	0.926450	0.219970	0.259704	-1.000000	-1.000000	-1.000000	-1.000000	-1.000000	-1.000000	-1.000000	67.517241	0.000000	-1.000000	-1.000000	2381737.000000	1772662652.923117
-15530.130000	-48504.870000	-7445.070000	963.180000	-15397.110000	-6128.775000	8552.070000	11830.635000	-3.492246	-2.539434	-4.158969	-4.440066	-4.060968	-2.107902	3.044706	-3.295031	-6.180300	-3.921820	0.183120	0.926450	0.219970	0.259704	-1.000000	-1.000000	-1.000000	-1.000000	-1.000000	-1.000000	-1.000000	67.517241	0.000000	-1.000000	-1.000000	2381738.000000	1772662652.923127
-15531.885000	-48506.310000	-7450.290000	953.235000	-15408.495000	-6141.330000	8552.250000	11825.370000	-8.727641	-6.849086	-8.479359	-7.815246	-6.874829	-4.320109	2.440861	-7.679898	-6.180300	-3.921820	0.183120	0.926450	0.219970	0.259704	-1.000000	-1.000000	-1.000000	-1.000000	-1.000000	-1.000000	-1.000000	67.517241	0.000000	-1.000000	-1.000000	2381739.000000	1772662652.926953
-15538.365000	-48507.390000	-7455.375000	951.165000	-15411.240000	-6147.945000	8544.510000	11820.645000	-11.721886	-10.523393	-11.720517	-10.269834	-8.944420	-6.214642	1.452812	-8.858274	-6.180300	-3.921820	0.183120	0.926450	0.219970	0.259704	-1.000000	-1.000000	-1.000000	-1.000000	-1.000000	-1.000000	-1.000000	67.517241	0.000000	-1.000000	-1.000000	2381740.000000	1772662652.926960
-15508.890000	-48477.015000	-7420.365000	992.385000	-15371.505000	-6117.255000	8561.520000	11842.065000	-10.141832	-10.739311	-11.509331	-9.718186	-8.593921	-6.400781	0.159580	-5.058435	-5.661460	-0.808780	-1.022420	0.930906	0.220642	0.262451	-1.000000	-1.000000	-1.000000	-1.000000	-1.000000	-1.000000	-1.000000	67.517241	0.000000	-1.000000	-1.000000	2381741.000000	1772662652.931087
-15488.595000	-48450.330000	-7389.720000	1021.860000	-15343.470000	-6089.445000	8584.830000	11828.745000	-3.744592	-5.795221	-5.954619	-4.172400	-3.867517	-3.145189	-1.407300	2.005221	-5.661460	-0.808780	-1.022420	0.930906	0.220642	0.262451	-1.000000	-1.000000	-1.000000	-1.000000	-1.000000	-1.000000	-1.000000	67.517241	0.000000	-1.000000	-1.000000	2381742.000000	1772662652.931094
-15520.590000	-48490.515000	-7432.020000	977.445000	-15386.490000	-6122.610000	8558.595000	11833.470000	4.384855	2.294302	3.144507	4.550464	3.865018	2.718151	-2.612774	7.626961	-5.661460	-0.808780	-1.022420	0.930906	0.220642	0.262451	-1.000000	-1.000000	-1.000000	-1.000000	-1.000000	-1.000000	-1.000000	67.517241	0.000000	-1.000000	-1.000000	2381743.000000	1772662652.934972
-15551.865000	-48530.295000	-7472.655000	935.010000	-15427.575000	-6156.540000	8517.915000	11817.270000	8.433987	7.280801	9.009853	9.517881	8.285260	6.105415	-3.908240	7.770422	-5.661460	-0.808780	-1.022420	0.930906	0.220642	0.262451	-1.000000	-1.000000	-1.000000	-1.000000	-1.000000	-1.000000	-1.000000	67.517241	0.000000	-1.000000	-1.000000	2381744.000000	1772662652.934980
-15537.555000	-48514.320000	-7453.890000	952.875000	-15408.765000	-6134.490000	8533.620000	11803.950000	5.831318	5.428991	7.175397	6.411794	5.354811	3.597033	-5.742737	2.222090	-5.661460	-0.808780	-1.022420	0.930906	0.220642	0.262451	-1.000000	-1.000000	-1.000000	-1.000000	-1.000000	-1.000000	-1.000000	67.517241	0.000000	-1.000000	-1.000000	2381745.000000	1772662652.939041
-15532.560000	-48506.715000	-7446.105000	961.695000	-15401.205000	-6129.405000	8549.010000	11816.775000	1.148114	1.140410	1.957097	-0.049481	-0.546523	-1.189707	-5.434310	-4.750203	-5.661460	-0.808780	-1.022420	0.930906	0.220642	0.262451	-1.000000	-1.000000	-1.000000	-1.000000	-1.000000	-1.000000	-1.000000	67.517241	0.000000	-1.000000	-1.000000	2381746.000000	1772662652.939049
-15538.230000	-48513.510000	-7452.990000	954.720000	-15411.555000	-6141.285000	8541.720000	11829.780000	-0.031769	0.500015	-0.046492	-2.750146	-2.910920	-2.907772	-0.559257	-7.199834	-5.661460	-0.808780	-1.022420	0.930906	0.220642	0.262451	-1.000000	-1.000000	-1.000000	-1.000000	-1.000000	-1.000000	-1.000000	67.517241	0.000000	-1.000000	-1.000000	2381747.000000	1772662652.943007
-15526.305000	-48502.125000	-7444.215000	962.145000	-15405.570000	-6138.765000	8550.000000	11841.165000	2.682674	3.793585	2.166167	-0.252878	-0.549543	-0.700332	6.629327	-2.703599	-5.661460	-0.808780	-1.022420	0.930906	0.220642	0.262451	-1.000000	-1.000000	-1.000000	-1.000000	-1.000000	-1.000000	-1.000000	67.517241	0.000000	-1.000000	-1.000000	2381748.000000	1772662652.943015
-15490.665000	-48455.910000	-7401.195000	1003.320000	-15366.645000	-6109.380000	8562.150000	11839.500000	6.440939	7.738172	5.800123	4.505136	3.901700	3.250160	11.695169	5.493326	-5.661460	-0.808780	-1.022420	0.930906	0.220642	0.262451	-1.000000	-1.000000	-1.000000	-1.000000	-1.000000	-1.000000	-1.000000	67.517241	0.000000	-1.000000	-1.000000	2381749.000000	1772662652.949169
-15500.430000	-48461.895000	-7405.245000	998.685000	-15370.875000	-6118.605000	8498.025000	11822.490000	8.074845	9.265747	7.725728	7.674756	7.072118	6.073707	10.641981	10.912136	-5.661460	-0.808780	-1.022420	0.930906	0.220642	0.262451	-1.000000	-1.000000	-1.000000	-1.000000	-1.000000	-1.000000	-1.000000	67.517241	0.000000	-1.000000	-1.000000	2381750.000000	1772662652.949176
-15511.815000	-48478.815000	-7420.320000	986.670000	-15380.865000	-6123.060000	8521.695000	11838.060000	4.930442	5.981473	5.233161	6.057533	6.014459	5.066308	1.935049	9.205735	-7.263760	-0.564620	-2.121140	0.933774	0.219299	0.262817	-1.000000	-1.000000	-1.000000	-1.000000	-1.000000	-1.000000	-1.000000	67.517241	0.000000	-1.000000	-1.000000	2381751.000000	1772662652.951671
-15526.305000	-48517.020000	-7468.605000	947.115000	-15415.335000	-6141.600000	8589.285000	11871.135000	-2.449851	-1.967221	-1.854462	-0.281860	0.682545	0.368147	-8.061536	2.419890	-7.263760	-0.564620	-2.121140	0.933774	0.219299	0.262817	-1.000000	-1.000000	-1.000000	-1.000000	-1.000000	-1.000000	-1.000000	67.517241	0.000000	-1.000000	-1.000000	2381752.000000	1772662652.951679
-15523.605000	-48514.140000	-7475.445000	945.630000	-15416.865000	-6139.845000	8581.365000	11861.190000	-9.483050	-10.475459	-10.017947	-7.429855	-5.472417	-4.523821	-9.007544	-3.727561	-7.263760	-0.564620	-2.121140	0.933774	0.219299	0.262817	-1.000000	-1.000000	-1.000000	-1.000000	-1.000000	-1.000000	-1.000000	67.517241	0.000000	-1.000000	-1.000000	2381753.000000	1772662652.954942
-15527.610000	-48508.695000	-7453.395000	954.225000	-15411.780000	-6136.695000	8553.465000	11847.735000	-11.796976	-14.350587	-14.256076	-10.939915	-8.705062	-6.493646	-0.486578	-6.229744	-7.263760	-0.564620	-2.121140	0.933774	0.219299	0.262817	-1.000000	-1.000000	-1.000000	-1.000000	-1.000000	-1.000000	-1.000000	67.517241	0.000000	-1.000000	-1.000000	2381754.000000	1772662652.954947
-15539.895000	-48514.725000	-7454.295000	945.855000	-15420.780000	-6145.110000	8548.650000	11831.355000	-8.948992	-11.473674	-11.447851	-9.091927	-7.726430	-5.215332	7.341316	-6.511757	-7.263760	-0.564620	-2.121140	0.933774	0.219299	0.262817	-1.000000	-1.000000	-1.000000	-1.000000	-1.000000	-1.000000	-1.000000	67.517241	0.000000	-1.000000	-1.000000	2381755.000000	1772662652.960244
-15553.440000	-48530.025000	-7470.945000	928.035000	-15440.040000	-6168.915000	8535.330000	11822.355000	-3.722251	-4.192232	-3.102209	-3.697342	-3.937509	-2.352802	6.911994	-7.052695	-7.263760	-0.564620	-2.121140	0.933774	0.219299	0.262817	-1.000000	-1.000000	-1.000000	-1.000000	-1.000000	-1.000000	-1.000000	67.517241	0.000000	-1.000000	-1.000000	2381756.000000	1772662652.960252
-15544.395000	-48512.520000	-7456.230000	946.080000	-15423.255000	-6163.830000	8531.820000	11808.720000	0.664452	2.865838	5.432308	1.695925	0.066794	-0.028252	-0.647664	-8.162120	-7.263760	-0.564620	-2.121140	0.933774	0.219299	0.262817	-1.000000	-1.000000	-1.000000	-1.000000	-1.000000	-1.000000	-1.000000	67.517241	0.000000	-1.000000	-1.000000	2381757.000000	1772662652.963059
-15540.840000	-48503.790000	-7452.045000	948.735000	-15420.375000	-6161.355000	8529.705000	11822.580000	2.530634	6.231071	9.252704	4.385937	2.285118	0.559369	-9.239404	-7.813264	-7.263760	-0.564620	-2.121140	0.933774	0.219299	0.262817	-1.000000	-1.000000	-1.000000	-1.000000	-1.000000	-1.000000	-1.000000	67.517241	0.000000	-1.000000	-1.000000	2381758.000000	1772662652.963064
-15527.070000	-48491.550000	-7438.545000	963.630000	-15403.455000	-6142.590000	8545.770000	11825.505000	2.597223	5.824336	7.556506	4.173532	2.622141	0.231782	-12.351961	-3.790146	-7.263760	-0.564620	-2.121140	0.933774	0.219299	0.262817	-1.000000	-1.000000	-1.000000	-1.000000	-1.000000	-1.000000	-1.000000	67.517241	0.000000	-1.000000	-1.000000	2381759.000000	1772662652.968380
-15528.510000	-48505.995000	-7447.770000	962.145000	-15401.700000	-6135.975000	8550.675000	11817.585000	3.257523	4.482107	3.905414	3.569868	3.177112	1.337392	-7.719388	3.021738	-7.263760	-0.564620	-2.121140	0.933774	0.219299	0.262817	-1.000000	-1.000000	-1.000000	-1.000000	-1.000000	-1.000000	-1.000000	67.517241	0.000000	-1.000000	-1.000000	2381760.000000	1772662652.968387
-15538.860000	-48515.670000	-7458.795000	947.970000	-15417.135000	-6146.685000	8531.370000	11819.925000	5.583455	4.594638	2.423077	4.981189	5.656260	4.827051	0.137586	8.366560	-5.783540	-1.495480	-2.060100	0.936155	0.215270	0.260497	-1.000000	-1.000000	-1.000000	-1.000000	-1.000000	-1.000000	-1.000000	67.517241	0.000000	-1.000000	-1.000000	2381761.000000	1772662652.970942
-15532.830000	-48504.330000	-7446.375000	958.095000	-15410.205000	-6143.445000	8516.520000	11862.495000	7.723080	5.598317	3.532654	7.341937	8.381122	8.211190	4.977836	10.080186	-5.783540	-1.495480	-2.060100	0.936155	0.215270	0.260497	-1.000000	-1.000000	-1.000000	-1.000000	-1.000000	-1.000000	-1.000000	67.517241	0.000000	-1.000000	-1.000000	2381762.000000	1772662652.970947
-15521.940000	-48498.255000	-7442.595000	960.255000	-15411.195000	-6144.795000	8531.235000	11880.180000	7.512667	5.424065	4.305892	7.457168	8.038443	8.058004	5.530362	10.575867	-5.783540	-1.495480	-2.060100	0.936155	0.215270	0.260497	-1.000000	-1.000000	-1.000000	-1.000000	-1.000000	-1.000000	-1.000000	67.517241	0.000000	-1.000000	-1.000000	2381763.000000	1772662652.975028
-15514.695000	-48482.415000	-7427.565000	977.445000	-15391.440000	-6124.995000	8559.360000	11829.195000	5.118860	3.429683	2.652704	4.284271	4.072312	4.210917	5.160792	10.836078	-5.783540	-1.495480	-2.060100	0.936155	0.215270	0.260497	-1.000000	-1.000000	-1.000000	-1.000000	-1.000000	-1.000000	-1.000000	67.517241	0.000000	-1.000000	-1.000000	2381764.000000	1772662652.975037
-15502.680000	-48456.675000	-7397.865000	1011.870000	-15354.765000	-6093.405000	8588.430000	11783.880000	2.048187	0.967636	-0.182015	0.208496	-0.371682	0.230002	7.004176	7.014257	-5.783540	-1.495480	-2.060100	0.936155	0.215270	0.260497	-1.000000	-1.000000	-1.000000	-1.000000	-1.000000	-1.000000	-1.000000	67.517241	0.000000	-1.000000	-1.000000	2381765.000000	1772662652.979150
-15510.825000	-48468.645000	-7410.690000	998.100000	-15369.345000	-6113.745000	8580.825000	11819.835000	-1.256417	-1.285896	-2.429727	-2.667116	-2.816966	-1.406694	10.223331	-2.608449	-5.783540	-1.495480	-2.060100	0.936155	0.215270	0.260497	-1.000000	-1.000000	-1.000000	-1.000000	-1.000000	-1.000000	-1.000000	67.517241	0.000000	-1.000000	-1.000000	2381766.000000	1772662652.979164
-15523.875000	-48503.430000	-7452.225000	954.180000	-15412.590000	-6149.790000	8564.940000	11861.460000	-5.572184	-5.072205	-5.320770	-5.927831	-5.250222	-3.094223	10.465178	-11.899524	-5.783540	-1.495480	-2.060100	0.936155	0.215270	0.260497	-1.000000	-1.000000	-1.000000	-1.000000	-1.000000	-1.000000	-1.000000	67.517241	0.000000	-1.000000	-1.000000	2381767.000000	1772662652.983080
-15517.845000	-48501.270000	-7451.145000	954.360000	-15411.420000	-6143.535000	8564.355000	11847.510000	-10.387706	-11.006217	-10.239253	-11.425493	-10.283723	-7.886479	4.377010	-13.487613	-5.783540	-1.495480	-2.060100	0.936155	0.215270	0.260497	-1.000000	-1.000000	-1.000000	-1.000000	-1.000000	-1.000000	-1.000000	67.517241	0.000000	-1.000000	-1.000000	2381768.000000	1772662652.983088
-15530.445000	-48512.475000	-7458.075000	947.160000	-15416.730000	-6145.605000	8549.190000	11822.355000	-12.832532	-15.097521	-13.980853	-16.052831	-15.221252	-13.427336	-6.665725	-7.913869	-5.783540	-1.495480	-2.060100	0.936155	0.215270	0.260497	-1.000000	-1.000000	-1.000000	-1.000000	-1.000000	-1.000000	-1.000000	67.517241	0.000000	-1.000000	-1.000000	2381769.000000	1772662652.986935
-15540.390000	-48512.745000	-7455.915000	947.160000	-15416.010000	-6141.735000	8531.055000	11822.535000	-10.619579	-12.700674	-11.657862	-14.459549	-14.452321	-14.149227	-17.087264	-1.721074	-5.783540	-1.495480	-2.060100	0.936155	0.215270	0.260497	-1.000000	-1.000000	-1.000000	-1.000000	-1.000000	-1.000000	-1.000000	67.517241	0.000000	-1.000000	-1.000000	2381770.000000	1772662652.986943
-15527.970000	-48495.105000	-7435.665000	965.700000	-15398.370000	-6126.390000	8534.115000	11829.105000	-4.527468	-4.018914	-2.952828	-5.583767	-6.255686	-7.703689	-20.819389	0.537337	-3.189340	-1.495480	-3.326680	0.938230	0.213134	0.256408	-1.000000	-1.000000	-1.000000	-1.000000	-1.000000	-1.000000	-1.000000	67.517241	0.000000	-1.000000	-1.000000	2381771.000000	1772662652.993688
-15532.155000	-48503.430000	-7445.340000	960.075000	-15402.735000	-6132.555000	8541.675000	11833.605000	2.721523	6.440307	7.545570	6.354969	5.585354	2.981570	-15.602682	-0.277123	-3.189340	-1.495480	-3.326680	0.938230	0.213134	0.256408	-1.000000	-1.000000	-1.000000	-1.000000	-1.000000	-1.000000	-1.000000	67.517241	0.000000	-1.000000	-1.000000	2381772.000000	1772662652.993693
-15539.310000	-48509.415000	-7455.240000	954.180000	-15408.540000	-6139.620000	8539.515000	11823.030000	8.089782	13.146686	13.898503	14.981117	14.572489	11.817833	-4.693487	0.063783	-3.189340	-1.495480	-3.326680	0.938230	0.213134	0.256408	-1.000000	-1.000000	-1.000000	-1.000000	-1.000000	-1.000000	-1.000000	67.517241	0.000000	-1.000000	-1.000000	2381773.000000	1772662652.994850
-15537.870000	-48508.245000	-7456.410000	949.545000	-15415.605000	-6150.915000	8545.185000	11807.325000	9.386222	12.667474	12.483444	15.506502	15.442298	13.560183	5.880817	3.821121	-3.189340	-1.495480	-3.326680	0.938230	0.213134	0.256408	-1.000000	-1.000000	-1.000000	-1.000000	-1.000000	-1.000000	-1.000000	67.517241	0.000000	-1.000000	-1.000000	2381774.000000	1772662652.994854
-15529.140000	-48494.970000	-7444.215000	958.410000	-15409.845000	-6146.910000	8552.295000	11819.790000	6.987576	6.627401	5.306981	8.754143	8.635465	8.278315	12.238216	7.750285	-3.189340	-1.495480	-3.326680	0.938230	0.213134	0.256408	-1.000000	-1.000000	-1.000000	-1.000000	-1.000000	-1.000000	-1.000000	67.517241	0.000000	-1.000000	-1.000000	2381775.000000	1772662652.999493
-15520.905000	-48486.780000	-7435.530000	965.520000	-15404.220000	-6142.185000	8549.055000	11817.405000	3.666533	0.735281	-1.096377	1.035731	0.452712	1.360826	14.137921	7.146097	-3.189340	-1.495480	-3.326680	0.938230	0.213134	0.256408	-1.000000	-1.000000	-1.000000	-1.000000	-1.000000	-1.000000	-1.000000	67.517241	0.000000	-1.000000	-1.000000	2381776.000000	1772662652.999500
-15513.795000	-48476.970000	-7424.460000	977.760000	-15391.260000	-6128.550000	8554.545000	11818.665000	1.823758	-0.704951	-1.976215	-2.017504	-3.137347	-2.091896	12.444857	2.085574	-3.189340	-1.495480	-3.326680	0.938230	0.213134	0.256408	-1.000000	-1.000000	-1.000000	-1.000000	-1.000000	-1.000000	-1.000000	67.517241	0.000000	-1.000000	-1.000000	2381777.000000	1772662653.003057
-15531.750000	-48498.480000	-7445.430000	959.265000	-15406.290000	-6136.605000	8547.390000	11825.820000	1.597105	1.522302	1.460928	-0.322769	-1.546150	-1.376642	8.158911	-2.881792	-3.189340	-1.495480	-3.326680	0.938230	0.213134	0.256408	-1.000000	-1.000000	-1.000000	-1.000000	-1.000000	-1.000000	-1.000000	67.517241	0.000000	-1.000000	-1.000000	2381778.000000	1772662653.003064
-15529.230000	-48503.790000	-7451.370000	956.295000	-15406.830000	-6134.715000	8551.170000	11841.255000	1.349122	3.004480	3.940467	1.829646	1.320566	0.700978	3.086581	-4.071950	-3.189340	-1.495480	-3.326680	0.938230	0.213134	0.256408	-1.000000	-1.000000	-1.000000	-1.000000	-1.000000	-1.000000	-1.000000	67.517241	0.000000	-1.000000	-1.000000	2381779.000000	1772662653.006852
-15512.940000	-48486.330000	-7431.075000	978.570000	-15383.520000	-6114.645000	8549.955000	11851.380000	-0.180914	0.618274	1.777838	0.861766	1.758720	1.343263	-1.277630	-1.732217	-3.189340	-1.495480	-3.326680	0.938230	0.213134	0.256408	-1.000000	-1.000000	-1.000000	-1.000000	-1.000000	-1.000000	-1.000000	67.517241	0.000000	-1.000000	-1.000000	2381780.000000	1772662653.006856
-15505.560000	-48478.770000	-7424.415000	981.540000	-15382.710000	-6118.425000	8534.070000	11866.005000	-2.179554	-3.948470	-3.180381	-2.413109	-0.208075	0.323329	-4.995997	1.914698	-2.319520	-3.708180	-4.501700	0.935056	0.215515	0.248840	-1.000000	-1.000000	-1.000000	-1.000000	-1.000000	-1.000000	-1.000000	67.517241	0.000000	-1.000000	-1.000000	2381781.000000	1772662653.010923
-15489.045000	-48455.595000	-7403.580000	999.585000	-15365.790000	-6106.455000	8559.270000	11879.505000	-2.904557	-6.582904	-6.302098	-4.847261	-2.361911	-1.074066	-8.210190	5.453743	-2.319520	-3.708180	-4.501700	0.935056	0.215515	0.248840	-1.000000	-1.000000	-1.000000	-1.000000	-1.000000	-1.000000	-1.000000	67.517241	0.000000	-1.000000	-1.000000	2381782.000000	1772662653.010930
-15520.590000	-48482.190000	-7428.735000	977.670000	-15387.660000	-6128.010000	8537.760000	11808.495000	-2.355715	-5.697430	-5.692087	-5.003311	-3.461705	-2.105024	-9.670758	6.659912	-2.319520	-3.708180	-4.501700	0.935056	0.215515	0.248840	-1.000000	-1.000000	-1.000000	-1.000000	-1.000000	-1.000000	-1.000000	67.517241	0.000000	-1.000000	-1.000000	2381783.000000	1772662653.017377
-15511.680000	-48470.670000	-7415.910000	990.720000	-15377.445000	-6121.035000	8560.260000	11787.345000	-2.462919	-3.251967	-3.217999	-3.738744	-3.708893	-2.828764	-8.161344	1.356946	-2.319520	-3.708180	-4.501700	0.935056	0.215515	0.248840	-1.000000	-1.000000	-1.000000	-1.000000	-1.000000	-1.000000	-1.000000	67.517241	0.000000	-1.000000	-1.000000	2381784.000000	1772662653.017389
-15528.915000	-48488.490000	-7438.815000	960.165000	-15412.230000	-6151.005000	8557.605000	11812.005000	-4.185629	-1.613563	-1.409827	-2.557944	-3.878943	-3.724748	-3.774126	-9.728997	-2.319520	-3.708180	-4.501700	0.935056	0.215515	0.248840	-1.000000	-1.000000	-1.000000	-1.000000	-1.000000	-1.000000	-1.000000	67.517241	0.000000	-1.000000	-1.000000	2381785.000000	1772662653.018909
-15547.050000	-48515.400000	-7474.635000	918.720000	-15453.720000	-6185.070000	8527.770000	11863.710000	-6.308546	-1.612905	-1.670549	-2.973962	-5.156379	-5.603454	1.521691	-17.223210	-2.319520	-3.708180	-4.501700	0.935056	0.215515	0.248840	-1.000000	-1.000000	-1.000000	-1.000000	-1.000000	-1.000000	-1.000000	67.517241	0.000000	-1.000000	-1.000000	2381786.000000	1772662653.018917
-15555.240000	-48532.545000	-7480.845000	925.785000	-15437.295000	-6160.770000	8541.495000	11822.085000	-6.823118	-2.741861	-3.685139	-4.977179	-7.259274	-7.782041	4.864165	-13.510209	-2.319520	-3.708180	-4.501700	0.935056	0.215515	0.248840	-1.000000	-1.000000	-1.000000	-1.000000	-1.000000	-1.000000	-1.000000	67.517241	0.000000	-1.000000	-1.000000	2381787.000000	1772662653.029562
-15543.810000	-48525.615000	-7467.615000	946.440000	-15414.165000	-6137.550000	8559.585000	11798.010000	-4.374817	-3.434101	-4.942515	-5.535853	-6.822765	-6.838924	5.709833	-2.675149	-2.319520	-3.708180	-4.501700	0.935056	0.215515	0.248840	-1.000000	-1.000000	-1.000000	-1.000000	-1.000000	-1.000000	-1.000000	67.517241	0.000000	-1.000000	-1.000000	2381788.000000	1772662653.029572
-15527.520000	-48507.300000	-7450.470000	960.030000	-15404.715000	-6131.925000	8565.480000	11820.735000	0.765323	-1.990311	-2.826369	-1.786084	-1.305874	-0.665715	5.685003	5.975257	-2.319520	-3.708180	-4.501700	0.935056	0.215515	0.248840	-1.000000	-1.000000	-1.000000	-1.000000	-1.000000	-1.000000	-1.000000	67.517241	0.000000	-1.000000	-1.000000	2381789.000000	1772662653.029583
-15547.005000	-48525.165000	-7470.405000	940.005000	-15425.955000	-6154.245000	8553.960000	11812.905000	6.381949	1.635923	2.267646	4.848185	6.745891	7.622769	5.270446	8.859786	-2.319520	-3.708180	-4.501700	0.935056	0.215515	0.248840	-1.000000	-1.000000	-1.000000	-1.000000	-1.000000	-1.000000	-1.000000	67.517241	0.000000	-1.000000	-1.000000	2381790.000000	1772662653.029586
-15557.490000	-48532.500000	-7481.385000	927.450000	-15440.670000	-6174.180000	8534.520000	11806.560000	9.170508	5.056538	6.748378	9.568727	11.665681	12.142385	2.940970	8.029171	-3.189340	-4.944240	-5.554640	0.934751	0.220886	0.248901	-1.000000	-1.000000	-1.000000	-1.000000	-1.000000	-1.000000	-1.000000	67.517241	0.000000	-1.000000	-1.000000	2381791.000000	1772662653.031365
-15539.715000	-48513.915000	-7464.465000	943.245000	-15425.820000	-6162.705000	8529.750000	11819.475000	7.960524	6.387949	7.947700	9.477041	10.635873	10.204439	-2.033501	6.911546	-3.189340	-4.944240	-5.554640	0.934751	0.220886	0.248901	-1.000000	-1.000000	-1.000000	-1.000000	-1.000000	-1.000000	-1.000000	67.517241	0.000000	-1.000000	-1.000000	2381792.000000	1772662653.031370
-15540.165000	-48504.105000	-7449.840000	959.445000	-15409.125000	-6146.370000	8532.360000	11807.145000	4.979768	6.518733	6.967513	6.452351	6.319553	4.794435	-7.445407	7.342247	-3.189340	-4.944240	-5.554640	0.934751	0.220886	0.248901	-1.000000	-1.000000	-1.000000	-1.000000	-1.000000	-1.000000	-1.000000	67.517241	0.000000	-1.000000	-1.000000	2381793.000000	1772662653.036541
-15540.660000	-48512.430000	-7459.740000	947.565000	-15421.770000	-6153.435000	8524.935000	11811.195000	2.608535	6.655158	6.056968	4.022977	3.096614	0.817799	-9.803769	6.997652	-3.189340	-4.944240	-5.554640	0.934751	0.220886	0.248901	-1.000000	-1.000000	-1.000000	-1.000000	-1.000000	-1.000000	-1.000000	67.517241	0.000000	-1.000000	-1.000000	2381794.000000	1772662653.036545
-15533.370000	-48506.940000	-7454.340000	951.435000	-15416.730000	-6146.640000	8513.190000	11816.010000	1.651839	6.651727	5.859252	3.566283	2.588030	0.305409	-7.239809	2.605520	-3.189340	-4.944240	-5.554640	0.934751	0.220886	0.248901	-1.000000	-1.000000	-1.000000	-1.000000	-1.000000	-1.000000	-1.000000	67.517241	0.000000	-1.000000	-1.000000	2381795.000000	1772662653.038984
-15515.190000	-48482.640000	-7427.565000	978.345000	-15389.505000	-6122.520000	8513.730000	11816.460000	1.901432	6.067098	5.627470	3.841555	3.103368	1.472325	-1.300427	-4.211946	-3.189340	-4.944240	-5.554640	0.934751	0.220886	0.248901	-1.000000	-1.000000	-1.000000	-1.000000	-1.000000	-1.000000	-1.000000	67.517241	0.000000	-1.000000	-1.000000	2381796.000000	1772662653.038989
-15504.120000	-48475.890000	-7422.570000	983.160000	-15386.490000	-6121.170000	8544.420000	11843.595000	2.059624	4.286956	3.945173	2.569938	1.911446	1.238024	4.536859	-8.190631	-3.189340	-4.944240	-5.554640	0.934751	0.220886	0.248901	-1.000000	-1.000000	-1.000000	-1.000000	-1.000000	-1.000000	-1.000000	67.517241	0.000000	-1.000000	-1.000000	2381797.000000	1772662653.042950
-15543.180000	-48520.575000	-7468.920000	939.285000	-15429.600000	-6161.580000	8551.170000	11845.620000	-0.024737	-0.256368	-0.968104	-2.038972	-2.667434	-2.163304	8.384175	-6.698094	-3.189340	-4.944240	-5.554640	0.934751	0.220886	0.248901	-1.000000	-1.000000	-1.000000	-1.000000	-1.000000	-1.000000	-1.000000	67.517241	0.000000	-1.000000	-1.000000	2381798.000000	1772662653.042955
-15540.435000	-48509.055000	-7456.005000	953.505000	-15416.010000	-6153.030000	8554.095000	11827.080000	-5.175325	-7.996804	-9.002719	-9.281903	-9.541892	-7.666307	10.035475	-2.187665	-3.189340	-4.944240	-5.554640	0.934751	0.220886	0.248901	-1.000000	-1.000000	-1.000000	-1.000000	-1.000000	-1.000000	-1.000000	67.517241	0.000000	-1.000000	-1.000000	2381799.000000	1772662653.055815
-15502.500000	-48467.340000	-7414.740000	988.470000	-15382.935000	-6121.035000	8580.510000	11817.405000	-10.090922	-14.624453	-15.247405	-14.238452	-13.771453	-10.798665	9.633700	1.120568	-3.189340	-4.944240	-5.554640	0.934751	0.220886	0.248901	-1.000000	-1.000000	-1.000000	-1.000000	-1.000000	-1.000000	-1.000000	67.517241	0.000000	-1.000000	-1.000000	2381800.000000	1772662653.055824
-15504.255000	-48469.590000	-7421.625000	983.970000	-15384.465000	-6121.080000	8580.060000	11838.825000	-9.970787	-14.421326	-14.117044	-12.103437	-10.934901	-7.727855	7.549653	1.565748	-4.913720	-4.761120	-6.622840	0.943235	0.227233	0.250793	-1.000000	-1.000000	-1.000000	-1.000000	-1.000000	-1.000000	-1.000000	67.517241	0.000000	-1.000000	-1.000000	2381801.000000	1772662653.055835
-15523.695000	-48494.790000	-7447.230000	962.505000	-15402.420000	-6131.610000	8568.045000	11817.630000	-4.777343	-7.708152	-6.731796	-4.498952	-2.935616	-0.454059	3.455566	0.317500	-4.913720	-4.761120	-6.622840	0.943235	0.227233	0.250793	-1.000000	-1.000000	-1.000000	-1.000000	-1.000000	-1.000000	-1.000000	67.517241	0.000000	-1.000000	-1.000000	2381802.000000	1772662653.055839
-15515.460000	-48494.970000	-7454.565000	962.775000	-15403.275000	-6129.945000	8549.685000	11802.510000	1.222166	0.130801	0.987834	3.012609	4.578756	5.691654	-2.936003	-1.880528	-4.913720	-4.761120	-6.622840	0.943235	0.227233	0.250793	-1.000000	-1.000000	-1.000000	-1.000000	-1.000000	-1.000000	-1.000000	67.517241	0.000000	-1.000000	-1.000000	2381803.000000	1772662653.055844
-15508.980000	-48491.865000	-7446.330000	963.585000	-15406.380000	-6134.400000	8548.425000	11818.035000	4.796869	5.080881	5.205773	6.913054	7.861806	7.322640	-9.820266	-4.592991	-4.913720	-4.761120	-6.622840	0.943235	0.227233	0.250793	-1.000000	-1.000000	-1.000000	-1.000000	-1.000000	-1.000000	-1.000000	67.517241	0.000000	-1.000000	-1.000000	2381804.000000	1772662653.055849
-15531.615000	-48509.595000	-7455.465000	945.855000	-15424.155000	-6152.670000	8542.710000	11844.405000	4.805010	5.867142	5.365556	6.096229	5.696834	3.666223	-14.346615	-5.218940	-4.913720	-4.761120	-6.622840	0.943235	0.227233	0.250793	-1.000000	-1.000000	-1.000000	-1.000000	-1.000000	-1.000000	-1.000000	67.517241	0.000000	-1.000000	-1.000000	2381805.000000	1772662653.058939
-15544.395000	-48507.615000	-7451.550000	948.780000	-15419.970000	-6150.645000	8541.675000	11829.780000	1.224176	3.059915	2.827020	1.506545	-0.342762	-3.154659	-15.016152	-2.059046	-4.913720	-4.761120	-6.622840	0.943235	0.227233	0.250793	-1.000000	-1.000000	-1.000000	-1.000000	-1.000000	-1.000000	-1.000000	67.517241	0.000000	-1.000000	-1.000000	2381806.000000	1772662653.058944
-15551.730000	-48517.065000	-7461.630000	935.685000	-15434.505000	-6164.280000	8536.410000	11794.950000	-3.420915	-0.269727	0.644102	-2.914983	-5.347642	-7.941229	-11.799992	2.073094	-4.913720	-4.761120	-6.622840	0.943235	0.227233	0.250793	-1.000000	-1.000000	-1.000000	-1.000000	-1.000000	-1.000000	-1.000000	67.517241	0.000000	-1.000000	-1.000000	2381807.000000	1772662653.069624
-15543.540000	-48512.295000	-7462.215000	939.780000	-15428.430000	-6163.785000	8528.625000	11793.420000	-5.259972	-1.177098	0.712745	-3.719430	-5.503205	-7.037798	-5.554450	3.614090	-4.913720	-4.761120	-6.622840	0.943235	0.227233	0.250793	-1.000000	-1.000000	-1.000000	-1.000000	-1.000000	-1.000000	-1.000000	67.517241	0.000000	-1.000000	-1.000000	2381808.000000	1772662653.069633
-15536.565000	-48506.895000	-7460.820000	948.420000	-15417.630000	-6153.570000	8525.160000	11800.890000	-3.203691	-0.156495	1.461008	-1.472052	-1.744766	-1.920356	1.633981	2.743678	-4.913720	-4.761120	-6.622840	0.943235	0.227233	0.250793	-1.000000	-1.000000	-1.000000	-1.000000	-1.000000	-1.000000	-1.000000	67.517241	0.000000	-1.000000	-1.000000	2381809.000000	1772662653.069642
-15534.855000	-48504.015000	-7457.895000	948.060000	-15419.790000	-6153.795000	8508.780000	11786.760000	1.005479	1.113459	1.197637	1.640480	2.910292	3.727246	7.177352	1.523267	-4.913720	-4.761120	-6.622840	0.943235	0.227233	0.250793	-1.000000	-1.000000	-1.000000	-1.000000	-1.000000	-1.000000	-1.000000	67.517241	0.000000	-1.000000	-1.000000	2381810.000000	1772662653.069646
-15523.020000	-48490.065000	-7440.300000	964.035000	-15405.795000	-6135.435000	8542.665000	11811.105000	5.610544	2.842888	1.274946	4.840831	6.743115	7.814761	10.374344	1.259829	-5.753020	-2.533160	-4.913720	0.945676	0.224365	0.251769	-1.000000	-1.000000	-1.000000	-1.000000	-1.000000	-1.000000	-1.000000	67.517241	0.000000	-1.000000	-1.000000	2381811.000000	1772662653.072468
-15527.070000	-48494.295000	-7450.425000	949.905000	-15420.375000	-6146.100000	8549.865000	11852.235000	8.983127	5.422729	3.270751	7.620192	8.917467	9.678501	12.822210	3.152176	-5.753020	-2.533160	-4.913720	0.945676	0.224365	0.251769	-1.000000	-1.000000	-1.000000	-1.000000	-1.000000	-1.000000	-1.000000	67.517241	0.000000	-1.000000	-1.000000	2381812.000000	1772662653.072476
-15540.885000	-48513.645000	-7465.905000	932.760000	-15436.305000	-6163.920000	8526.015000	11848.905000	8.854888	6.740480	5.080453	7.697778	7.777417	8.194305	14.394706	6.897968	-5.753020	-2.533160	-4.913720	0.945676	0.224365	0.251769	-1.000000	-1.000000	-1.000000	-1.000000	-1.000000	-1.000000	-1.000000	67.517241	0.000000	-1.000000	-1.000000	2381813.000000	1772662653.075007
-15538.320000	-48508.155000	-7458.480000	939.645000	-15430.140000	-6163.605000	8522.910000	11835.720000	4.490768	4.329759	3.438406	3.445555	2.625951	2.922687	11.760875	8.451006	-5.753020	-2.533160	-4.913720	0.945676	0.224365	0.251769	-1.000000	-1.000000	-1.000000	-1.000000	-1.000000	-1.000000	-1.000000	67.517241	0.000000	-1.000000	-1.000000	2381814.000000	1772662653.075015
-15525.045000	-48493.530000	-7439.805000	968.580000	-15397.425000	-6137.820000	8531.955000	11814.210000	-1.169306	-0.528827	-0.748907	-2.320685	-3.241760	-3.147747	3.728315	4.062956	-5.753020	-2.533160	-4.913720	0.945676	0.224365	0.251769	-1.000000	-1.000000	-1.000000	-1.000000	-1.000000	-1.000000	-1.000000	67.517241	0.000000	-1.000000	-1.000000	2381815.000000	1772662653.079076
-15518.610000	-48486.330000	-7434.315000	975.780000	-15389.595000	-6130.575000	8558.820000	11806.110000	-4.110513	-3.948337	-3.447256	-4.715140	-5.012872	-5.440101	-5.456619	-4.335067	-5.753020	-2.533160	-4.913720	0.945676	0.224365	0.251769	-1.000000	-1.000000	-1.000000	-1.000000	-1.000000	-1.000000	-1.000000	67.517241	0.000000	-1.000000	-1.000000	2381816.000000	1772662653.079083
-15548.670000	-48513.645000	-7461.225000	947.160000	-15419.520000	-6154.335000	8553.285000	11800.755000	-4.112663	-4.679982	-3.379632	-3.212603	-2.667159	-3.415609	-10.306482	-11.242644	-5.753020	-2.533160	-4.913720	0.945676	0.224365	0.251769	-1.000000	-1.000000	-1.000000	-1.000000	-1.000000	-1.000000	-1.000000	67.517241	0.000000	-1.000000	-1.000000	2381817.000000	1772662653.082970
-15553.755000	-48526.830000	-7476.840000	929.610000	-15437.745000	-6166.395000	8535.645000	11801.250000	-4.449992	-5.154030	-3.274822	-2.221446	-1.308812	-1.415371	-9.670501	-13.036607	-5.753020	-2.533160	-4.913720	0.945676	0.224365	0.251769	-1.000000	-1.000000	-1.000000	-1.000000	-1.000000	-1.000000	-1.000000	67.517241	0.000000	-1.000000	-1.000000	2381818.000000	1772662653.082977
-15544.710000	-48527.550000	-7481.700000	923.805000	-15441.705000	-6165.315000	8536.410000	11807.730000	-6.261545	-6.737024	-4.992298	-4.522529	-3.978313	-2.638631	-6.507722	-9.408641	-5.753020	-2.533160	-4.913720	0.945676	0.224365	0.251769	-1.000000	-1.000000	-1.000000	-1.000000	-1.000000	-1.000000	-1.000000	67.517241	0.000000	-1.000000	-1.000000	2381819.000000	1772662653.086960
-15515.055000	-48492.405000	-7444.530000	960.345000	-15407.370000	-6131.655000	8555.175000	11813.130000	-6.658103	-7.057659	-6.357975	-7.369536	-7.530991	-5.130387	-3.613100	-2.617695	-5.753020	-2.533160	-4.913720	0.945676	0.224365	0.251769	-1.000000	-1.000000	-1.000000	-1.000000	-1.000000	-1.000000	-1.000000	67.517241	0.000000	-1.000000	-1.000000	2381820.000000	1772662653.086967
-15508.845000	-48481.920000	-7433.550000	970.110000	-15400.620000	-6128.280000	8553.600000	11810.205000	-2.853624	-2.953789	-3.635026	-5.787468	-6.531456	-4.569150	-1.459903	3.320417	-2.426340	-2.777320	-1.495480	0.940427	0.219238	0.252929	-1.000000	-1.000000	-1.000000	-1.000000	-1.000000	-1.000000	-1.000000	67.517241	0.000000	-1.000000	-1.000000	2381821.000000	1772662653.091004
-15540.345000	-48514.365000	-7465.365000	939.015000	-15429.780000	-6154.740000	8539.065000	11816.910000	3.741756	4.707631	3.077395	0.989290	-0.041952	0.100737	0.487789	5.612142	-2.426340	-2.777320	-1.495480	0.940427	0.219238	0.252929	-1.000000	-1.000000	-1.000000	-1.000000	-1.000000	-1.000000	-1.000000	67.517241	0.000000	-1.000000	-1.000000	2381822.000000	1772662653.091012
-15534.720000	-48500.325000	-7451.550000	951.165000	-15415.740000	-6146.100000	8540.865000	11811.240000	8.279788	10.588376	8.673458	7.757475	6.848817	5.103771	1.934212	5.118104	-2.426340	-2.777320	-1.495480	0.940427	0.219238	0.252929	-1.000000	-1.000000	-1.000000	-1.000000	-1.000000	-1.000000	-1.000000	67.517241	0.000000	-1.000000	-1.000000	2381823.000000	1772662653.094965
-15525.450000	-48484.665000	-7435.350000	966.960000	-15403.860000	-6141.915000	8524.620000	11793.195000	7.703194	10.728808	9.098328	9.474684	9.054265	6.457805	1.802324	4.324643	-2.426340	-2.777320	-1.495480	0.940427	0.219238	0.252929	-1.000000	-1.000000	-1.000000	-1.000000	-1.000000	-1.000000	-1.000000	67.517241	0.000000	-1.000000	-1.000000	2381824.000000	1772662653.094972
-15531.390000	-48498.075000	-7448.490000	955.080000	-15413.895000	-6149.655000	8530.380000	11801.520000	3.374431	5.999730	5.149701	6.065310	6.159020	3.796106	-0.342977	4.247788	-2.426340	-2.777320	-1.495480	0.940427	0.219238	0.252929	-1.000000	-1.000000	-1.000000	-1.000000	-1.000000	-1.000000	-1.000000	67.517241	0.000000	-1.000000	-1.000000	2381825.000000	1772662653.098910
-15546.645000	-48516.255000	-7467.930000	935.055000	-15432.300000	-6164.730000	8545.950000	11815.245000	-1.506954	-0.561962	-0.280063	0.470657	0.918094	-0.561955	-2.593205	4.461794	-2.426340	-2.777320	-1.495480	0.940427	0.219238	0.252929	-1.000000	-1.000000	-1.000000	-1.000000	-1.000000	-1.000000	-1.000000	67.517241	0.000000	-1.000000	-1.000000	2381826.000000	1772662653.098916
-15538.185000	-48507.570000	-7459.290000	942.660000	-15424.740000	-6152.265000	8566.830000	11832.120000	-4.567853	-5.963581	-4.577765	-4.141756	-3.420456	-3.773180	-1.438699	4.498898	-2.426340	-2.777320	-1.495480	0.940427	0.219238	0.252929	-1.000000	-1.000000	-1.000000	-1.000000	-1.000000	-1.000000	-1.000000	67.517241	0.000000	-1.000000	-1.000000	2381827.000000	1772662653.106255
-15528.600000	-48496.680000	-7447.320000	956.205000	-15411.780000	-6135.570000	8560.845000	11818.710000	-5.003233	-7.952023	-5.924609	-5.570235	-4.691937	-4.011335	3.618954	3.579698	-2.426340	-2.777320	-1.495480	0.940427	0.219238	0.252929	-1.000000	-1.000000	-1.000000	-1.000000	-1.000000	-1.000000	-1.000000	67.517241	0.000000	-1.000000	-1.000000	2381828.000000	1772662653.106262
-15523.020000	-48493.395000	-7442.730000	962.325000	-15406.200000	-6129.405000	8549.370000	11812.320000	-3.563698	-6.483282	-4.502751	-3.912111	-3.113790	-1.696442	7.998007	0.236270	-2.426340	-2.777320	-1.495480	0.940427	0.219238	0.252929	-1.000000	-1.000000	-1.000000	-1.000000	-1.000000	-1.000000	-1.000000	67.517241	0.000000	-1.000000	-1.000000	2381829.000000	1772662653.111469
-15530.670000	-48509.595000	-7459.920000	945.315000	-15420.555000	-6140.790000	8542.485000	11806.920000	-1.458679	-3.442819	-2.212298	-1.212978	-0.665904	1.141395	7.178093	-5.543072	-2.426340	-2.777320	-1.495480	0.940427	0.219238	0.252929	-1.000000	-1.000000	-1.000000	-1.000000	-1.000000	-1.000000	-1.000000	67.517241	0.000000	-1.000000	-1.000000	2381830.000000	1772662653.111475
-15527.340000	-48500.235000	-7450.380000	954.720000	-15410.655000	-6135.075000	8552.610000	11804.625000	0.924734	-0.263480	-0.295140	0.941516	1.210320	3.015392	1.907007	-10.856576	-0.900340	-1.953280	-0.396760	0.942014	0.221862	0.254516	-1.000000	-1.000000	-1.000000	-1.000000	-1.000000	-1.000000	-1.000000	67.517241	0.000000	-1.000000	-1.000000	2381831.000000	1772662653.111483
-15532.560000	-48493.845000	-7443.270000	962.145000	-15406.470000	-6139.080000	8547.570000	11801.970000	3.153478	2.500265	1.181960	2.130067	2.058649	3.339035	-3.569872	-11.917318	-0.900340	-1.953280	-0.396760	0.942014	0.221862	0.254516	-1.000000	-1.000000	-1.000000	-1.000000	-1.000000	-1.000000	-1.000000	67.517241	0.000000	-1.000000	-1.000000	2381832.000000	1772662653.111487
-15521.805000	-48483.630000	-7435.170000	969.120000	-15402.150000	-6141.690000	8533.800000	11819.250000	3.975414	4.154191	2.108487	2.182336	1.598925	1.773346	-6.376070	-6.898755	-0.900340	-1.953280	-0.396760	0.942014	0.221862	0.254516	-1.000000	-1.000000	-1.000000	-1.000000	-1.000000	-1.000000	-1.000000	67.517241	0.000000	-1.000000	-1.000000	2381833.000000	1772662653.114906
-15515.640000	-48476.430000	-7427.070000	976.320000	-15395.580000	-6135.840000	8535.105000	11848.860000	3.222889	4.680129	2.758090	1.695498	0.522888	-0.787760	-6.562213	2.570745	-0.900340	-1.953280	-0.396760	0.942014	0.221862	0.254516	-1.000000	-1.000000	-1.000000	-1.000000	-1.000000	-1.000000	-1.000000	67.517241	0.000000	-1.000000	-1.000000	2381834.000000	1772662653.114913
-15500.025000	-48453.930000	-7404.030000	998.550000	-15374.475000	-6113.250000	8567.910000	11834.370000	2.462703	5.222912	4.197313	2.276870	0.731998	-1.906421	-4.831469	11.511956	-0.900340	-1.953280	-0.396760	0.942014	0.221862	0.254516	-1.000000	-1.000000	-1.000000	-1.000000	-1.000000	-1.000000	-1.000000	67.517241	0.000000	-1.000000	-1.000000	2381835.000000	1772662653.119018
-15478.065000	-48431.115000	-7385.940000	1011.960000	-15363.765000	-6096.915000	8593.605000	11808.855000	2.668998	6.222456	6.417591	4.320473	2.871194	-0.201242	-0.940832	13.877920	-0.900340	-1.953280	-0.396760	0.942014	0.221862	0.254516	-1.000000	-1.000000	-1.000000	-1.000000	-1.000000	-1.000000	-1.000000	67.517241	0.000000	-1.000000	-1.000000	2381836.000000	1772662653.119026
-15481.755000	-48439.665000	-7396.605000	1001.610000	-15371.730000	-6101.190000	8574.885000	11804.985000	2.728488	5.931176	6.923723	5.300173	4.487842	2.375926	4.279949	7.403573	-0.900340	-1.953280	-0.396760	0.942014	0.221862	0.254516	-1.000000	-1.000000	-1.000000	-1.000000	-1.000000	-1.000000	-1.000000	67.517241	0.000000	-1.000000	-1.000000	2381837.000000	1772662653.123162
-15534.270000	-48508.020000	-7464.420000	940.005000	-15427.080000	-6147.495000	8538.840000	11815.650000	0.152488	1.307550	2.227030	1.548897	1.894114	2.018284	7.299666	-3.353207	-0.900340	-1.953280	-0.396760	0.942014	0.221862	0.254516	-1.000000	-1.000000	-1.000000	-1.000000	-1.000000	-1.000000	-1.000000	67.517241	0.000000	-1.000000	-1.000000	2381838.000000	1772662653.123168
-15547.320000	-48512.565000	-7461.765000	949.320000	-15416.865000	-6140.070000	8542.260000	11788.335000	-6.128588	-8.216004	-7.835293	-7.096975	-5.341669	-2.585430	5.101721	-11.175124	-0.900340	-1.953280	-0.396760	0.942014	0.221862	0.254516	-1.000000	-1.000000	-1.000000	-1.000000	-1.000000	-1.000000	-1.000000	67.517241	0.000000	-1.000000	-1.000000	2381839.000000	1772662653.135566
-15552.090000	-48519.675000	-7469.640000	940.005000	-15428.070000	-6152.175000	8557.830000	11789.820000	-12.987034	-17.813838	-17.647694	-15.312938	-12.621794	-8.158220	-0.688362	-12.450711	-0.900340	-1.953280	-0.396760	0.942014	0.221862	0.254516	-1.000000	-1.000000	-1.000000	-1.000000	-1.000000	-1.000000	-1.000000	67.517241	0.000000	-1.000000	-1.000000	2381840.000000	1772662653.135576
-15556.005000	-48528.765000	-7482.195000	923.895000	-15445.170000	-6172.380000	8543.835000	11781.315000	-15.247487	-21.042744	-20.617912	-17.454785	-14.956799	-10.527685	-5.309033	-7.929683	-2.563680	-0.274680	-1.785420	0.946531	0.230163	0.256530	-1.000000	-1.000000	-1.000000	-1.000000	-1.000000	-1.000000	-1.000000	67.517241	0.000000	-1.000000	-1.000000	2381841.000000	1772662653.135586
-15534.720000	-48512.925000	-7470.765000	933.750000	-15435.990000	-6165.900000	8546.490000	11803.770000	-10.321367	-15.260227	-14.686987	-12.281876	-11.031620	-8.261209	-5.802160	-0.639909	-2.563680	-0.274680	-1.785420	0.946531	0.230163	0.256530	-1.000000	-1.000000	-1.000000	-1.000000	-1.000000	-1.000000	-1.000000	67.517241	0.000000	-1.000000	-1.000000	2381842.000000	1772662653.135590
-15536.430000	-48505.995000	-7463.565000	940.545000	-15430.590000	-6160.545000	8542.980000	11803.905000	0.187225	-2.382911	-2.207561	-1.861013	-2.278456	-2.168384	-3.010130	5.779950	-2.563680	-0.274680	-1.785420	0.946531	0.230163	0.256530	-1.000000	-1.000000	-1.000000	-1.000000	-1.000000	-1.000000	-1.000000	67.517241	0.000000	-1.000000	-1.000000	2381843.000000	1772662653.135595
-15542.055000	-48499.065000	-7456.185000	946.485000	-15425.055000	-6154.065000	8541.495000	11799.180000	10.983102	11.981154	11.480695	9.688753	7.900729	5.218585	-0.172744	9.000704	-2.563680	-0.274680	-1.785420	0.946531	0.230163	0.256530	-1.000000	-1.000000	-1.000000	-1.000000	-1.000000	-1.000000	-1.000000	67.517241	0.000000	-1.000000	-1.000000	2381844.000000	1772662653.135598
-15522.030000	-48474.810000	-7440.120000	955.215000	-15418.665000	-6148.080000	8537.895000	11810.880000	16.201680	21.174248	20.271005	17.344856	14.987806	10.331426	0.195916	9.091024	-2.563680	-0.274680	-1.785420	0.946531	0.230163	0.256530	-1.000000	-1.000000	-1.000000	-1.000000	-1.000000	-1.000000	-1.000000	67.517241	0.000000	-1.000000	-1.000000	2381845.000000	1772662653.139098
-15517.665000	-48483.540000	-7439.670000	962.460000	-15407.865000	-6135.570000	8547.705000	11812.995000	14.565799	22.291936	21.515946	18.733644	16.684763	11.532614	-0.656292	7.386317	-2.563680	-0.274680	-1.785420	0.946531	0.230163	0.256530	-1.000000	-1.000000	-1.000000	-1.000000	-1.000000	-1.000000	-1.000000	67.517241	0.000000	-1.000000	-1.000000	2381846.000000	1772662653.139113
-15522.975000	-48491.955000	-7443.675000	964.035000	-15404.445000	-6132.330000	8552.970000	11814.525000	9.731108	17.287357	17.220005	15.620422	14.451499	10.400889	0.859218	4.647504	-2.563680	-0.274680	-1.785420	0.946531	0.230163	0.256530	-1.000000	-1.000000	-1.000000	-1.000000	-1.000000	-1.000000	-1.000000	67.517241	0.000000	-1.000000	-1.000000	2381847.000000	1772662653.142999
-15521.490000	-48491.370000	-7445.520000	960.390000	-15409.980000	-6144.480000	8517.420000	11810.070000	5.199353	9.302622	10.208206	10.301627	10.149841	8.340918	4.794511	1.270044	-2.563680	-0.274680	-1.785420	0.946531	0.230163	0.256530	-1.000000	-1.000000	-1.000000	-1.000000	-1.000000	-1.000000	-1.000000	67.517241	0.000000	-1.000000	-1.000000	2381848.000000	1772662653.143006
-15530.670000	-48501.090000	-7456.455000	950.580000	-15419.565000	-6157.935000	8517.870000	11805.120000	1.277712	0.135265	1.508514	3.031273	3.695406	4.427694	6.597545	-2.024608	-2.563680	-0.274680	-1.785420	0.946531	0.230163	0.256530	-1.000000	-1.000000	-1.000000	-1.000000	-1.000000	-1.000000	-1.000000	67.517241	0.000000	-1.000000	-1.000000	2381849.000000	1772662653.146899
-15521.490000	-48491.280000	-7446.060000	961.605000	-15408.495000	-6145.290000	8567.685000	11809.575000	-3.099249	-8.635297	-7.627199	-5.426594	-4.262672	-1.459697	4.527545	-4.754207	-2.563680	-0.274680	-1.785420	0.946531	0.230163	0.256530	-1.000000	-1.000000	-1.000000	-1.000000	-1.000000	-1.000000	-1.000000	67.517241	0.000000	-1.000000	-1.000000	2381850.000000	1772662653.146903
-15517.080000	-48486.870000	-7443.405000	968.310000	-15402.870000	-6136.020000	8578.170000	11830.230000	-7.718189	-14.632164	-14.380218	-12.204572	-10.871663	-6.831418	2.371514	-6.635587	-3.708180	1.999060	-0.885080	0.945005	0.232849	0.258422	-1.000000	-1.000000	-1.000000	-1.000000	-1.000000	-1.000000	-1.000000	67.517241	0.000000	-1.000000	-1.000000	2381851.000000	1772662653.153387
-15520.230000	-48491.235000	-7451.190000	967.185000	-15406.380000	-6138.765000	8560.170000	11826.720000	-10.900891	-16.151893	-16.615494	-14.831294	-13.719142	-9.431101	2.193358	-6.923150	-3.708180	1.999060	-0.885080	0.945005	0.232849	0.258422	-1.000000	-1.000000	-1.000000	-1.000000	-1.000000	-1.000000	-1.000000	67.517241	0.000000	-1.000000	-1.000000	2381852.000000	1772662653.153397
-15552.000000	-48522.420000	-7471.620000	933.255000	-15438.330000	-6162.615000	8528.400000	11808.540000	-11.681046	-14.071841	-14.920014	-13.715468	-13.147786	-9.669851	0.903226	-5.281415	-3.708180	1.999060	-0.885080	0.945005	0.232849	0.258422	-1.000000	-1.000000	-1.000000	-1.000000	-1.000000	-1.000000	-1.000000	67.517241	0.000000	-1.000000	-1.000000	2381853.000000	1772662653.159191
-15534.180000	-48503.565000	-7457.715000	941.580000	-15425.370000	-6150.915000	8506.125000	11831.895000	-10.616821	-10.549074	-11.080163	-10.989481	-10.933856	-9.069348	-4.326925	-2.608258	-3.708180	1.999060	-0.885080	0.945005	0.232849	0.258422	-1.000000	-1.000000	-1.000000	-1.000000	-1.000000	-1.000000	-1.000000	67.517241	0.000000	-1.000000	-1.000000	2381854.000000	1772662653.159198
-15505.605000	-48471.390000	-7423.290000	977.895000	-15389.595000	-6118.470000	8547.705000	11818.170000	-6.974903	-4.933818	-4.776194	-6.565183	-6.725788	-6.901688	-10.787007	0.093632	-3.708180	1.999060	-0.885080	0.945005	0.232849	0.258422	-1.000000	-1.000000	-1.000000	-1.000000	-1.000000	-1.000000	-1.000000	67.517241	0.000000	-1.000000	-1.000000	2381855.000000	1772662653.159208
-15535.395000	-48496.140000	-7447.095000	954.990000	-15415.335000	-6141.780000	8576.775000	11785.950000	0.449468	4.356849	4.653041	0.971834	0.670621	-1.516847	-11.701697	1.761374	-3.708180	1.999060	-0.885080	0.945005	0.232849	0.258422	-1.000000	-1.000000	-1.000000	-1.000000	-1.000000	-1.000000	-1.000000	67.517241	0.000000	-1.000000	-1.000000	2381856.000000	1772662653.159212
-15548.580000	-48504.780000	-7460.730000	940.680000	-15431.940000	-6163.065000	8561.475000	11758.860000	8.568807	13.737579	13.395589	9.112806	8.457514	5.119540	-3.855710	1.035735	-3.708180	1.999060	-0.885080	0.945005	0.232849	0.258422	-1.000000	-1.000000	-1.000000	-1.000000	-1.000000	-1.000000	-1.000000	67.517241	0.000000	-1.000000	-1.000000	2381857.000000	1772662653.166905
-15526.215000	-48476.475000	-7437.105000	965.160000	-15409.800000	-6146.910000	8568.180000	11784.735000	12.494010	17.478934	16.237530	13.305268	12.193448	9.068863	7.484230	-1.372590	-3.708180	1.999060	-0.885080	0.945005	0.232849	0.258422	-1.000000	-1.000000	-1.000000	-1.000000	-1.000000	-1.000000	-1.000000	67.517241	0.000000	-1.000000	-1.000000	2381858.000000	1772662653.166920
-15530.715000	-48487.860000	-7443.360000	963.720000	-15407.730000	-6141.555000	8566.020000	11789.055000	11.043210	14.172005	12.443249	12.300248	11.023194	9.025198	13.344482	-2.355713	-3.708180	1.999060	-0.885080	0.945005	0.232849	0.258422	-1.000000	-1.000000	-1.000000	-1.000000	-1.000000	-1.000000	-1.000000	67.517241	0.000000	-1.000000	-1.000000	2381859.000000	1772662653.167019
-15548.580000	-48523.455000	-7477.605000	932.940000	-15433.830000	-6160.635000	8543.385000	11787.210000	5.719061	5.450814	4.258935	7.041183	6.317988	5.717348	9.338870	-0.391585	-3.708180	1.999060	-0.885080	0.945005	0.232849	0.258422	-1.000000	-1.000000	-1.000000	-1.000000	-1.000000	-1.000000	-1.000000	67.517241	0.000000	-1.000000	-1.000000	2381860.000000	1772662653.167028
-15543.045000	-48518.325000	-7474.455000	932.445000	-15434.505000	-6157.755000	8529.570000	11800.755000	-1.080453	-5.703245	-5.410292	-0.921672	-0.337260	0.423344	-1.267301	3.301405	-2.411080	2.990960	-0.167860	0.939878	0.231628	0.258117	-1.000000	-1.000000	-1.000000	-1.000000	-1.000000	-1.000000	-1.000000	67.517241	0.000000	-1.000000	-1.000000	2381861.000000	1772662653.174805
-15535.035000	-48507.345000	-7462.665000	943.380000	-15423.795000	-6147.630000	8523.585000	11808.360000	-5.821725	-13.860728	-12.147206	-7.729321	-5.839417	-4.150875	-10.653779	7.135893	-2.411080	2.990960	-0.167860	0.939878	0.231628	0.258117	-1.000000	-1.000000	-1.000000	-1.000000	-1.000000	-1.000000	-1.000000	67.517241	0.000000	-1.000000	-1.000000	2381862.000000	1772662653.174812
-15526.440000	-48493.800000	-7448.850000	956.430000	-15411.645000	-6137.145000	8539.155000	11807.910000	-6.266306	-14.365998	-12.227275	-9.253182	-7.116613	-5.395783	-12.507980	9.235867	-2.411080	2.990960	-0.167860	0.939878	0.231628	0.258117	-1.000000	-1.000000	-1.000000	-1.000000	-1.000000	-1.000000	-1.000000	67.517241	0.000000	-1.000000	-1.000000	2381863.000000	1772662653.181634
-15517.215000	-48483.270000	-7438.095000	966.420000	-15402.465000	-6131.790000	8556.255000	11834.010000	-3.359123	-7.556155	-6.089990	-5.322766	-4.309539	-3.443119	-6.614706	8.321092	-2.411080	2.990960	-0.167860	0.939878	0.231628	0.258117	-1.000000	-1.000000	-1.000000	-1.000000	-1.000000	-1.000000	-1.000000	67.517241	0.000000	-1.000000	-1.000000	2381864.000000	1772662653.181642
-15520.815000	-48486.600000	-7440.660000	966.420000	-15402.825000	-6135.435000	8552.205000	11816.595000	0.857021	2.400068	2.626130	1.054926	0.363623	-0.000523	2.142182	5.641021	-2.411080	2.990960	-0.167860	0.939878	0.231628	0.258117	-1.000000	-1.000000	-1.000000	-1.000000	-1.000000	-1.000000	-1.000000	67.517241	0.000000	-1.000000	-1.000000	2381865.000000	1772662653.181767
-15515.235000	-48478.500000	-7435.395000	971.775000	-15399.315000	-6132.690000	8565.840000	11774.970000	4.561657	10.488986	9.717380	6.572564	4.743820	3.524356	8.777055	1.990330	-2.411080	2.990960	-0.167860	0.939878	0.231628	0.258117	-1.000000	-1.000000	-1.000000	-1.000000	-1.000000	-1.000000	-1.000000	67.517241	0.000000	-1.000000	-1.000000	2381866.000000	1772662653.181774
-15523.290000	-48481.560000	-7441.560000	964.170000	-15408.495000	-6139.485000	8563.320000	11778.075000	5.540224	12.678692	11.632700	8.257585	6.382632	5.309028	10.841311	-4.156441	-2.411080	2.990960	-0.167860	0.939878	0.231628	0.258117	-1.000000	-1.000000	-1.000000	-1.000000	-1.000000	-1.000000	-1.000000	67.517241	0.000000	-1.000000	-1.000000	2381867.000000	1772662653.183140
-15534.450000	-48493.305000	-7451.730000	953.910000	-15419.205000	-6147.225000	8548.605000	11778.480000	2.458709	8.102547	7.285153	4.720030	3.553311	3.519855	7.867225	-12.063659	-2.411080	2.990960	-0.167860	0.939878	0.231628	0.258117	-1.000000	-1.000000	-1.000000	-1.000000	-1.000000	-1.000000	-1.000000	67.517241	0.000000	-1.000000	-1.000000	2381868.000000	1772662653.183147
-15523.200000	-48482.280000	-7439.715000	963.720000	-15410.340000	-6138.675000	8528.400000	11760.885000	-2.829583	0.288634	-0.175351	-1.620798	-1.983191	-0.996211	1.428424	-17.251522	-2.411080	2.990960	-0.167860	0.939878	0.231628	0.258117	-1.000000	-1.000000	-1.000000	-1.000000	-1.000000	-1.000000	-1.000000	67.517241	0.000000	-1.000000	-1.000000	2381869.000000	1772662653.187181
-15486.885000	-48445.830000	-7403.490000	997.785000	-15375.600000	-6103.845000	8563.635000	11772.045000	-5.937000	-5.194380	-5.285017	-5.671506	-5.490474	-4.396225	-4.446783	-16.079027	-2.411080	2.990960	-0.167860	0.939878	0.231628	0.258117	-1.000000	-1.000000	-1.000000	-1.000000	-1.000000	-1.000000	-1.000000	67.517241	0.000000	-1.000000	-1.000000	2381870.000000	1772662653.187186
-15510.555000	-48477.060000	-7436.565000	964.035000	-15407.595000	-6133.725000	8568.855000	11815.515000	-4.463399	-5.856913	-5.636010	-4.980701	-4.456028	-4.156236	-5.513282	-8.004647	-5.005280	3.448760	-1.464960	0.935667	0.230834	0.255981	-1.000000	-1.000000	-1.000000	-1.000000	-1.000000	-1.000000	-1.000000	67.517241	0.000000	-1.000000	-1.000000	2381871.000000	1772662653.190962
-15535.305000	-48505.590000	-7465.140000	937.710000	-15437.475000	-6165.855000	8550.540000	11826.945000	-1.377175	-4.899781	-4.605597	-2.995130	-2.213528	-2.780789	-2.238960	4.745147	-5.005280	3.448760	-1.464960	0.935667	0.230834	0.255981	-1.000000	-1.000000	-1.000000	-1.000000	-1.000000	-1.000000	-1.000000	67.517241	0.000000	-1.000000	-1.000000	2381872.000000	1772662653.190969
-15549.525000	-48517.380000	-7475.445000	929.295000	-15442.740000	-6170.715000	8545.590000	11805.480000	-1.116754	-6.331944	-6.219723	-4.023992	-3.102249	-3.875206	0.140235	16.509117	-5.005280	3.448760	-1.464960	0.935667	0.230834	0.255981	-1.000000	-1.000000	-1.000000	-1.000000	-1.000000	-1.000000	-1.000000	67.517241	0.000000	-1.000000	-1.000000	2381873.000000	1772662653.196544
-15557.445000	-48522.150000	-7478.865000	929.835000	-15436.980000	-6167.565000	8542.305000	11788.695000	-3.724216	-9.135345	-9.170582	-6.941046	-5.898490	-6.133182	-1.398524	20.807161	-5.005280	3.448760	-1.464960	0.935667	0.230834	0.255981	-1.000000	-1.000000	-1.000000	-1.000000	-1.000000	-1.000000	-1.000000	67.517241	0.000000	-1.000000	-1.000000	2381874.000000	1772662653.196551
-15531.075000	-48491.865000	-7448.850000	960.480000	-15406.245000	-6136.245000	8554.545000	11793.870000	-5.404833	-8.952786	-8.762136	-7.002584	-5.683257	-5.094072	-4.626979	15.929609	-5.005280	3.448760	-1.464960	0.935667	0.230834	0.255981	-1.000000	-1.000000	-1.000000	-1.000000	-1.000000	-1.000000	-1.000000	67.517241	0.000000	-1.000000	-1.000000	2381875.000000	1772662653.199579
-15526.845000	-48485.115000	-7441.515000	966.510000	-15402.015000	-6129.765000	8554.680000	11786.715000	-2.726998	-3.007949	-2.280181	-1.370326	0.127407	1.197867	-5.761660	5.419063	-5.005280	3.448760	-1.464960	0.935667	0.230834	0.255981	-1.000000	-1.000000	-1.000000	-1.000000	-1.000000	-1.000000	-1.000000	67.517241	0.000000	-1.000000	-1.000000	2381876.000000	1772662653.199588
-15538.950000	-48502.035000	-7459.065000	948.555000	-15420.645000	-6145.515000	8541.630000	11790.360000	3.931556	6.904107	7.972065	7.755828	8.777462	9.638572	-2.982111	-5.588012	-5.005280	3.448760	-1.464960	0.935667	0.230834	0.255981	-1.000000	-1.000000	-1.000000	-1.000000	-1.000000	-1.000000	-1.000000	67.517241	0.000000	-1.000000	-1.000000	2381877.000000	1772662653.204706
-15536.385000	-48503.295000	-7465.005000	939.330000	-15431.130000	-6154.245000	8530.200000	11800.620000	9.903676	14.651778	15.359377	14.015714	13.791621	13.928194	2.225737	-12.424105	-5.005280	3.448760	-1.464960	0.935667	0.230834	0.255981	-1.000000	-1.000000	-1.000000	-1.000000	-1.000000	-1.000000	-1.000000	67.517241	0.000000	-1.000000	-1.000000	2381878.000000	1772662653.204715
-15516.090000	-48486.195000	-7448.760000	952.830000	-15419.430000	-6145.785000	8515.755000	11805.570000	10.724622	14.981276	14.611820	12.580275	10.853905	10.183666	5.854258	-12.969738	-5.005280	3.448760	-1.464960	0.935667	0.230834	0.255981	-1.000000	-1.000000	-1.000000	-1.000000	-1.000000	-1.000000	-1.000000	67.517241	0.000000	-1.000000	-1.000000	2381879.000000	1772662653.207883
-15523.965000	-48498.615000	-7451.370000	954.405000	-15414.075000	-6140.520000	8525.385000	11804.850000	6.732363	8.735397	7.322568	5.334365	2.619939	1.366968	5.153642	-9.337210	-5.005280	3.448760	-1.464960	0.935667	0.230834	0.255981	-1.000000	-1.000000	-1.000000	-1.000000	-1.000000	-1.000000	-1.000000	67.517241	0.000000	-1.000000	-1.000000	2381880.000000	1772662653.207892
-15526.440000	-48486.510000	-7440.165000	966.870000	-15401.835000	-6129.045000	8567.685000	11804.490000	1.585532	1.165941	-0.278334	-1.502089	-4.044840	-5.434656	2.243739	-5.067052	-5.005280	4.349100	-2.670500	0.936460	0.230590	0.252136	-1.000000	-1.000000	-1.000000	-1.000000	-1.000000	-1.000000	-1.000000	67.517241	0.000000	-1.000000	-1.000000	2381881.000000	1772662653.211068
-15518.610000	-48474.270000	-7429.590000	976.365000	-15393.285000	-6124.455000	8584.605000	11803.680000	-1.751813	-3.164875	-3.629329	-3.766982	-5.041222	-6.010763	1.838856	-1.137064	-5.005280	4.349100	-2.670500	0.936460	0.230590	0.252136	-1.000000	-1.000000	-1.000000	-1.000000	-1.000000	-1.000000	-1.000000	67.517241	0.000000	-1.000000	-1.000000	2381882.000000	1772662653.211075
