Channel1	Channel2	Channel3	Channel4	Channel5	Channel6	Channel7	Channel8	FilteredChannel1	FilteredChannel2	FilteredChannel3	FilteredChannel4	FilteredChannel5	FilteredChannel6	FilteredChannel7	FilteredChannel8	GyroX	GyroY	GyroZ	AccX	AccY	AccZ	PPG1	PPG2	rawPPG1	rawPPG2	rawPPG3	Hr	Hrv	Battery	Trigger	PhysicalTrigger	AutoTrigger	NumMeasurements	Timestamp
7734.780000	-20970.090000	-5674.905000	-816.480000	-7532.055000	-409.005000	244166.175000	25879.320000	0.601800	18.271683	3.087291	7.383624	10.102952	8.311921	-4.424218	-9.851661	8.316700	5.463080	-18.891880	0.971006	-0.287963	0.277221	-1.000000	-1.000000	-1.000000	-1.000000	-1.000000	-1.000000	-1.000000	65.379310	0.000000	-1.000000	-1.000000	505174.000000	1772738407.826826
7708.005000	-20993.220000	-5687.055000	-824.940000	-7540.335000	-407.880000	244203.930000	25810.785000	-0.004727	4.270950	-6.803347	-2.705238	0.018592	-0.130532	-5.006785	-5.866801	8.316700	5.463080	-18.891880	0.971006	-0.287963	0.277221	-1.000000	-1.000000	-1.000000	-1.000000	-1.000000	-1.000000	-1.000000	65.379310	0.000000	-1.000000	-1.000000	505175.000000	1772738407.830903
7690.545000	-21001.680000	-5686.020000	-819.270000	-7533.720000	-392.760000	244254.015000	25831.845000	5.810160	-7.495129	-8.903078	-8.482571	-7.164754	-6.221578	-2.165238	1.605329	8.316700	5.463080	-18.891880	0.971006	-0.287963	0.277221	-1.000000	-1.000000	-1.000000	-1.000000	-1.000000	-1.000000	-1.000000	65.379310	0.000000	-1.000000	-1.000000	505176.000000	1772738407.830910
7673.040000	-20999.205000	-5679.180000	-815.580000	-7535.925000	-402.480000	244297.980000	25863.165000	9.519694	-12.610064	-4.144024	-9.407833	-10.179758	-8.808253	1.871571	4.903102	8.316700	5.463080	-18.891880	0.971006	-0.287963	0.277221	-1.000000	-1.000000	-1.000000	-1.000000	-1.000000	-1.000000	-1.000000	65.379310	0.000000	-1.000000	-1.000000	505177.000000	1772738407.839502
7655.805000	-20991.510000	-5662.620000	-806.400000	-7527.195000	-401.445000	244303.830000	25868.205000	4.484470	-11.504343	3.150470	-6.119322	-8.939386	-7.939623	4.718428	2.201422	8.316700	5.463080	-18.891880	0.971006	-0.287963	0.277221	-1.000000	-1.000000	-1.000000	-1.000000	-1.000000	-1.000000	-1.000000	65.379310	0.000000	-1.000000	-1.000000	505178.000000	1772738407.839512
7683.795000	-20993.895000	-5659.560000	-800.505000	-7517.790000	-395.910000	244294.155000	25894.620000	-6.644566	-6.772218	9.999077	0.176601	-3.765073	-3.757017	5.488602	-2.589381	8.316700	5.463080	-18.891880	0.971006	-0.287963	0.277221	-1.000000	-1.000000	-1.000000	-1.000000	-1.000000	-1.000000	-1.000000	65.379310	0.000000	-1.000000	-1.000000	505179.000000	1772738407.845972
7721.460000	-20993.895000	-5692.500000	-836.820000	-7553.610000	-439.380000	244244.835000	25856.865000	-13.867193	-1.382518	13.115769	6.197951	2.927998	2.031585	4.254275	-3.789509	8.316700	5.463080	-18.891880	0.971006	-0.287963	0.277221	-1.000000	-1.000000	-1.000000	-1.000000	-1.000000	-1.000000	-1.000000	65.379310	0.000000	-1.000000	-1.000000	505180.000000	1772738407.845981
7748.730000	-20953.800000	-5690.115000	-840.015000	-7553.070000	-438.165000	244208.070000	25815.510000	-8.709842	4.059850	10.017024	8.669167	7.680083	6.461818	1.296637	-1.951802	1.632820	4.303320	-14.100240	0.962644	-0.277282	0.284362	-1.000000	-1.000000	-1.000000	-1.000000	-1.000000	-1.000000	-1.000000	65.379310	0.000000	-1.000000	-1.000000	505181.000000	1772738407.845991
7706.925000	-20972.205000	-5700.285000	-852.165000	-7569.855000	-446.535000	244214.145000	25864.965000	4.628428	10.215415	2.786693	7.307472	8.782157	7.684755	-2.882616	-3.889466	1.632820	4.303320	-14.100240	0.962644	-0.277282	0.284362	-1.000000	-1.000000	-1.000000	-1.000000	-1.000000	-1.000000	-1.000000	65.379310	0.000000	-1.000000	-1.000000	505182.000000	1772738407.845995
7680.060000	-20980.485000	-5682.420000	-825.120000	-7541.100000	-411.795000	244215.675000	25901.460000	11.673351	14.152219	-3.775108	3.983334	6.645824	5.891109	-7.306685	-8.547534	1.632820	4.303320	-14.100240	0.962644	-0.277282	0.284362	-1.000000	-1.000000	-1.000000	-1.000000	-1.000000	-1.000000	-1.000000	65.379310	0.000000	-1.000000	-1.000000	505183.000000	1772738407.847277
7658.145000	-20947.050000	-5617.440000	-749.250000	-7462.215000	-328.095000	244287.810000	25801.965000	4.910384	12.121247	-5.668944	1.628551	3.921731	3.701089	-10.310755	-7.248688	1.632820	4.303320	-14.100240	0.962644	-0.277282	0.284362	-1.000000	-1.000000	-1.000000	-1.000000	-1.000000	-1.000000	-1.000000	65.379310	0.000000	-1.000000	-1.000000	505184.000000	1772738407.847285
7600.500000	-20983.680000	-5643.405000	-775.980000	-7487.280000	-352.665000	244306.395000	25679.925000	-9.244875	5.148431	-1.952019	2.380402	3.539910	3.883798	-9.935592	-2.207344	1.632820	4.303320	-14.100240	0.962644	-0.277282	0.284362	-1.000000	-1.000000	-1.000000	-1.000000	-1.000000	-1.000000	-1.000000	65.379310	0.000000	-1.000000	-1.000000	505185.000000	1772738407.850864
7695.900000	-20978.370000	-5655.015000	-790.695000	-7502.400000	-372.780000	244335.105000	25863.885000	-18.729830	-3.762229	2.761437	3.588607	3.738034	4.543000	-5.841650	-1.851064	1.632820	4.303320	-14.100240	0.962644	-0.277282	0.284362	-1.000000	-1.000000	-1.000000	-1.000000	-1.000000	-1.000000	-1.000000	65.379310	0.000000	-1.000000	-1.000000	505186.000000	1772738407.850872
7731.765000	-20962.755000	-5676.570000	-842.580000	-7547.265000	-422.865000	244340.730000	25927.560000	-13.976334	-11.732741	2.261145	-0.025846	-0.324320	0.880099	0.564961	-0.983435	1.632820	4.303320	-14.100240	0.962644	-0.277282	0.284362	-1.000000	-1.000000	-1.000000	-1.000000	-1.000000	-1.000000	-1.000000	65.379310	0.000000	-1.000000	-1.000000	505187.000000	1772738407.854844
7672.185000	-20974.725000	-5710.320000	-906.705000	-7603.830000	-482.220000	244300.410000	25821.720000	3.133221	-15.319716	-4.503627	-10.004066	-10.093474	-8.615766	7.285254	8.320961	1.632820	4.303320	-14.100240	0.962644	-0.277282	0.284362	-1.000000	-1.000000	-1.000000	-1.000000	-1.000000	-1.000000	-1.000000	65.379310	0.000000	-1.000000	-1.000000	505188.000000	1772738407.854851
7667.370000	-21001.320000	-5713.515000	-888.300000	-7612.920000	-489.690000	244248.705000	25834.725000	18.220088	-13.488157	-12.673174	-20.858933	-20.704488	-19.182144	11.527779	19.187994	1.632820	4.303320	-14.100240	0.962644	-0.277282	0.284362	-1.000000	-1.000000	-1.000000	-1.000000	-1.000000	-1.000000	-1.000000	65.379310	0.000000	-1.000000	-1.000000	505189.000000	1772738407.861221
7666.740000	-21009.195000	-5710.770000	-844.380000	-7571.970000	-449.730000	244240.245000	25810.020000	19.715978	-8.712036	-15.366365	-22.275514	-23.172717	-22.005749	10.950846	20.339823	1.632820	4.303320	-14.100240	0.962644	-0.277282	0.284362	-1.000000	-1.000000	-1.000000	-1.000000	-1.000000	-1.000000	-1.000000	65.379310	0.000000	-1.000000	-1.000000	505190.000000	1772738407.861230
7620.075000	-21006.495000	-5693.580000	-804.690000	-7529.265000	-407.790000	244262.970000	25756.200000	8.798384	-3.261905	-9.174487	-8.545340	-11.693574	-11.677592	5.975087	8.188129	2.914660	5.920880	-12.909960	0.955198	-0.278014	0.286620	-1.000000	-1.000000	-1.000000	-1.000000	-1.000000	-1.000000	-1.000000	65.379310	0.000000	-1.000000	-1.000000	505191.000000	1772738407.862818
7657.560000	-20948.445000	-5650.920000	-786.015000	-7509.825000	-382.455000	244287.855000	25805.430000	-5.062910	3.212468	3.101632	13.545078	9.088205	7.246890	-0.552465	-10.812349	2.914660	5.920880	-12.909960	0.955198	-0.278014	0.286620	-1.000000	-1.000000	-1.000000	-1.000000	-1.000000	-1.000000	-1.000000	65.379310	0.000000	-1.000000	-1.000000	505192.000000	1772738407.862824
7686.000000	-20972.745000	-5681.385000	-819.090000	-7531.605000	-391.320000	244320.795000	25881.435000	-10.944476	10.915489	14.216180	28.755052	25.595194	22.379525	-6.142661	-20.334271	2.914660	5.920880	-12.909960	0.955198	-0.278014	0.286620	-1.000000	-1.000000	-1.000000	-1.000000	-1.000000	-1.000000	-1.000000	65.379310	0.000000	-1.000000	-1.000000	505193.000000	1772738407.871144
7670.970000	-21016.215000	-5717.880000	-854.055000	-7560.630000	-422.010000	244348.830000	25873.785000	-4.714707	16.052725	16.964163	26.285269	26.776905	24.054549	-9.373095	-9.393768	2.914660	5.920880	-12.909960	0.955198	-0.278014	0.286620	-1.000000	-1.000000	-1.000000	-1.000000	-1.000000	-1.000000	-1.000000	65.379310	0.000000	-1.000000	-1.000000	505194.000000	1772738407.871152
7698.645000	-20994.525000	-5711.670000	-849.645000	-7558.290000	-425.025000	244363.590000	25872.300000	5.820057	13.793621	10.051095	9.060995	13.696524	13.340048	-8.869354	10.002766	2.914660	5.920880	-12.909960	0.955198	-0.278014	0.286620	-1.000000	-1.000000	-1.000000	-1.000000	-1.000000	-1.000000	-1.000000	65.379310	0.000000	-1.000000	-1.000000	505195.000000	1772738407.871387
7715.025000	-21002.985000	-5763.870000	-865.440000	-7571.565000	-444.555000	244345.995000	25873.380000	10.136094	4.768443	-1.000661	-9.563012	-2.846827	-0.557672	-4.374515	16.634615	2.914660	5.920880	-12.909960	0.955198	-0.278014	0.286620	-1.000000	-1.000000	-1.000000	-1.000000	-1.000000	-1.000000	-1.000000	65.379310	0.000000	-1.000000	-1.000000	505196.000000	1772738407.871399
7707.645000	-20995.200000	-5793.660000	-863.595000	-7573.230000	-448.920000	244292.895000	25878.015000	6.632642	-5.025497	-9.771222	-17.434161	-11.994707	-8.530909	2.143335	7.224259	2.914660	5.920880	-12.909960	0.955198	-0.278014	0.286620	-1.000000	-1.000000	-1.000000	-1.000000	-1.000000	-1.000000	-1.000000	65.379310	0.000000	-1.000000	-1.000000	505197.000000	1772738407.874931
7721.595000	-20943.720000	-5694.750000	-849.735000	-7554.285000	-430.380000	244279.260000	25862.220000	0.158991	-8.944062	-11.560564	-12.455235	-10.363024	-7.789216	7.574729	-5.916212	2.914660	5.920880	-12.909960	0.955198	-0.278014	0.286620	-1.000000	-1.000000	-1.000000	-1.000000	-1.000000	-1.000000	-1.000000	65.379310	0.000000	-1.000000	-1.000000	505198.000000	1772738407.874937
7714.620000	-20930.220000	-5581.305000	-817.740000	-7542.270000	-416.745000	244301.625000	25825.230000	-5.085860	-4.105369	-2.184462	-1.677017	-2.836254	-2.515462	9.648030	-13.854338	2.914660	5.920880	-12.909960	0.955198	-0.278014	0.286620	-1.000000	-1.000000	-1.000000	-1.000000	-1.000000	-1.000000	-1.000000	65.379310	0.000000	-1.000000	-1.000000	505199.000000	1772738407.878941
7681.905000	-20982.780000	-5645.790000	-801.045000	-7530.795000	-404.145000	244320.525000	25772.310000	-7.515637	4.393086	15.132928	6.359960	2.673478	0.723484	7.873984	-15.919943	2.914660	5.920880	-12.909960	0.955198	-0.278014	0.286620	-1.000000	-1.000000	-1.000000	-1.000000	-1.000000	-1.000000	-1.000000	65.379310	0.000000	-1.000000	-1.000000	505200.000000	1772738407.878948
7670.340000	-21007.935000	-5667.255000	-797.310000	-7515.270000	-382.230000	244370.475000	25834.230000	-8.407235	6.112796	25.160883	7.418379	1.958251	-1.204479	3.239150	-13.945333	4.990020	8.194620	-5.493600	0.952024	-0.279357	0.286132	-1.000000	-1.000000	-1.000000	-1.000000	-1.000000	-1.000000	-1.000000	65.379310	0.000000	-1.000000	-1.000000	505201.000000	1772738407.882828
7666.020000	-20993.040000	-5669.685000	-818.640000	-7530.615000	-396.765000	244389.780000	25852.005000	-9.409618	-2.139833	16.558259	2.825998	-2.712802	-5.714903	-2.223802	-7.843428	4.990020	8.194620	-5.493600	0.952024	-0.279357	0.286132	-1.000000	-1.000000	-1.000000	-1.000000	-1.000000	-1.000000	-1.000000	65.379310	0.000000	-1.000000	-1.000000	505202.000000	1772738407.882833
7669.845000	-20981.160000	-5663.385000	-830.115000	-7548.120000	-422.010000	244378.620000	25838.910000	-9.565513	-11.439195	-4.024863	-2.862357	-6.292464	-8.033069	-6.792037	1.561587	4.990020	8.194620	-5.493600	0.952024	-0.279357	0.286132	-1.000000	-1.000000	-1.000000	-1.000000	-1.000000	-1.000000	-1.000000	65.379310	0.000000	-1.000000	-1.000000	505203.000000	1772738407.887095
7670.205000	-20990.430000	-5678.280000	-837.720000	-7554.195000	-430.290000	244392.570000	25857.495000	-7.451095	-12.849195	-21.464381	-5.968099	-6.199556	-6.131545	-9.553413	9.501198	4.990020	8.194620	-5.493600	0.952024	-0.279357	0.286132	-1.000000	-1.000000	-1.000000	-1.000000	-1.000000	-1.000000	-1.000000	65.379310	0.000000	-1.000000	-1.000000	505204.000000	1772738407.887101
7698.105000	-20978.370000	-5668.740000	-824.175000	-7545.330000	-431.190000	244343.475000	25877.970000	-2.671265	-6.382343	-25.808384	-4.993996	-2.588718	-0.862673	-9.087424	13.051309	4.990020	8.194620	-5.493600	0.952024	-0.279357	0.286132	-1.000000	-1.000000	-1.000000	-1.000000	-1.000000	-1.000000	-1.000000	65.379310	0.000000	-1.000000	-1.000000	505205.000000	1772738407.892853
7683.255000	-20990.430000	-5679.450000	-841.815000	-7563.330000	-446.760000	244317.330000	25851.960000	4.599801	2.553773	-16.737296	-0.728975	2.847784	5.402774	-4.614624	13.396129	4.990020	8.194620	-5.493600	0.952024	-0.279357	0.286132	-1.000000	-1.000000	-1.000000	-1.000000	-1.000000	-1.000000	-1.000000	65.379310	0.000000	-1.000000	-1.000000	505206.000000	1772738407.892864
7642.350000	-21034.620000	-5708.025000	-856.710000	-7567.920000	-439.470000	244307.610000	25806.060000	11.160756	7.359815	-4.171241	2.684810	6.295579	8.762270	1.726695	10.500247	4.990020	8.194620	-5.493600	0.952024	-0.279357	0.286132	-1.000000	-1.000000	-1.000000	-1.000000	-1.000000	-1.000000	-1.000000	65.379310	0.000000	-1.000000	-1.000000	505207.000000	1772738407.894867
7644.600000	-21020.895000	-5696.865000	-846.270000	-7558.965000	-421.920000	244315.530000	25833.780000	12.612494	4.703529	0.239755	1.030566	4.567465	6.702631	5.947894	4.537221	4.990020	8.194620	-5.493600	0.952024	-0.279357	0.286132	-1.000000	-1.000000	-1.000000	-1.000000	-1.000000	-1.000000	-1.000000	65.379310	0.000000	-1.000000	-1.000000	505208.000000	1772738407.894876
7694.910000	-20936.925000	-5634.675000	-791.820000	-7512.120000	-372.420000	244364.445000	25852.320000	9.969834	0.123146	-2.470407	-4.035092	-0.575578	1.375138	5.909252	-0.510473	4.990020	8.194620	-5.493600	0.952024	-0.279357	0.286132	-1.000000	-1.000000	-1.000000	-1.000000	-1.000000	-1.000000	-1.000000	65.379310	0.000000	-1.000000	-1.000000	505209.000000	1772738407.898862
7696.260000	-20921.310000	-5614.515000	-770.895000	-7494.930000	-360.045000	244409.130000	25789.860000	8.050030	2.718724	-0.790110	-5.656628	-3.644121	-2.365339	3.310112	-3.319315	4.990020	8.194620	-5.493600	0.952024	-0.279357	0.286132	-1.000000	-1.000000	-1.000000	-1.000000	-1.000000	-1.000000	-1.000000	65.379310	0.000000	-1.000000	-1.000000	505210.000000	1772738407.898867
7662.195000	-20998.845000	-5687.190000	-841.455000	-7548.435000	-412.830000	244408.725000	25779.420000	7.377903	11.308345	9.068897	-0.547846	-1.758662	-2.213847	1.191042	-8.032697	5.951400	8.759240	-0.671440	0.950071	-0.272826	0.289428	-1.000000	-1.000000	-1.000000	-1.000000	-1.000000	-1.000000	-1.000000	65.379310	0.000000	-1.000000	-1.000000	505211.000000	1772738407.903292
7674.930000	-20988.270000	-5686.740000	-875.835000	-7569.180000	-435.915000	244393.155000	25842.150000	3.827910	14.419970	17.819619	5.754729	1.847005	-0.612049	0.360636	-14.383371	5.951400	8.759240	-0.671440	0.950071	-0.272826	0.289428	-1.000000	-1.000000	-1.000000	-1.000000	-1.000000	-1.000000	-1.000000	65.379310	0.000000	-1.000000	-1.000000	505212.000000	1772738407.903304
7680.150000	-20951.055000	-5664.375000	-895.500000	-7564.140000	-434.340000	244342.845000	25819.335000	-3.938077	6.650565	17.564929	6.185769	2.803258	-0.525806	-0.749773	-15.524547	5.951400	8.759240	-0.671440	0.950071	-0.272826	0.289428	-1.000000	-1.000000	-1.000000	-1.000000	-1.000000	-1.000000	-1.000000	65.379310	0.000000	-1.000000	-1.000000	505213.000000	1772738407.906862
7683.660000	-20944.440000	-5663.205000	-885.195000	-7563.375000	-435.465000	244312.830000	25808.760000	-11.956927	-5.115055	10.542560	0.879951	1.135524	-1.438294	-2.830350	-8.639792	5.951400	8.759240	-0.671440	0.950071	-0.272826	0.289428	-1.000000	-1.000000	-1.000000	-1.000000	-1.000000	-1.000000	-1.000000	65.379310	0.000000	-1.000000	-1.000000	505214.000000	1772738407.906867
7736.310000	-20904.705000	-5614.065000	-761.265000	-7500.465000	-375.660000	244322.820000	25869.465000	-14.497648	-11.740781	2.743952	-2.739799	0.272429	-0.718285	-3.741789	3.101947	5.951400	8.759240	-0.671440	0.950071	-0.272826	0.289428	-1.000000	-1.000000	-1.000000	-1.000000	-1.000000	-1.000000	-1.000000	65.379310	0.000000	-1.000000	-1.000000	505215.000000	1772738407.910999
7750.935000	-20915.775000	-5653.800000	-781.155000	-7503.435000	-372.105000	244333.755000	25886.655000	-7.800147	-9.717712	-2.888843	2.185643	2.773821	2.870876	-1.307931	16.611339	5.951400	8.759240	-0.671440	0.950071	-0.272826	0.289428	-1.000000	-1.000000	-1.000000	-1.000000	-1.000000	-1.000000	-1.000000	65.379310	0.000000	-1.000000	-1.000000	505216.000000	1772738407.911012
7636.950000	-21011.040000	-5699.790000	-858.915000	-7579.125000	-438.570000	244372.545000	25744.455000	3.589823	-4.118759	-8.188445	10.504297	5.151465	5.389789	3.435424	25.168118	5.951400	8.759240	-0.671440	0.950071	-0.272826	0.289428	-1.000000	-1.000000	-1.000000	-1.000000	-1.000000	-1.000000	-1.000000	65.379310	0.000000	-1.000000	-1.000000	505217.000000	1772738407.914926
7621.830000	-21014.460000	-5688.045000	-825.030000	-7555.005000	-413.505000	244420.830000	25720.425000	7.194915	-4.923161	-15.669577	9.321912	0.451006	0.595486	7.116485	17.946613	5.951400	8.759240	-0.671440	0.950071	-0.272826	0.289428	-1.000000	-1.000000	-1.000000	-1.000000	-1.000000	-1.000000	-1.000000	65.379310	0.000000	-1.000000	-1.000000	505218.000000	1772738407.914930
7677.045000	-20994.480000	-5679.270000	-807.795000	-7540.650000	-414.720000	244437.255000	25756.695000	-1.006011	-12.975511	-21.539911	-2.670058	-9.837962	-9.560585	7.130680	-3.664115	5.951400	8.759240	-0.671440	0.950071	-0.272826	0.289428	-1.000000	-1.000000	-1.000000	-1.000000	-1.000000	-1.000000	-1.000000	65.379310	0.000000	-1.000000	-1.000000	505219.000000	1772738407.918804
7695.000000	-21013.920000	-5703.165000	-853.020000	-7572.465000	-440.190000	244439.370000	25856.235000	-9.599310	-16.926396	-18.188066	-13.408573	-15.350582	-15.007514	3.627330	-21.568425	5.951400	8.759240	-0.671440	0.950071	-0.272826	0.289428	-1.000000	-1.000000	-1.000000	-1.000000	-1.000000	-1.000000	-1.000000	65.379310	0.000000	-1.000000	-1.000000	505220.000000	1772738407.918812
7714.845000	-21001.005000	-5693.220000	-848.655000	-7571.430000	-447.345000	244421.415000	25902.630000	-7.880565	-9.092724	-4.489718	-13.900386	-10.251655	-9.943758	-0.975098	-20.521407	3.845520	7.980980	-2.716280	0.940855	-0.261840	0.289550	-1.000000	-1.000000	-1.000000	-1.000000	-1.000000	-1.000000	-1.000000	65.379310	0.000000	-1.000000	-1.000000	505221.000000	1772738407.923504
7685.595000	-20999.565000	-5683.320000	-836.415000	-7555.410000	-440.595000	244354.545000	25835.580000	2.037440	5.875660	12.109270	-5.228202	1.682324	2.046350	-4.428040	-3.462270	3.845520	7.980980	-2.716280	0.940855	-0.261840	0.289550	-1.000000	-1.000000	-1.000000	-1.000000	-1.000000	-1.000000	-1.000000	65.379310	0.000000	-1.000000	-1.000000	505222.000000	1772738407.923512
7694.820000	-20991.780000	-5669.730000	-820.710000	-7540.335000	-420.930000	244309.995000	25851.870000	10.611958	18.299706	22.715674	5.491065	12.880623	13.293778	-6.790414	13.550489	3.845520	7.980980	-2.716280	0.940855	-0.261840	0.289550	-1.000000	-1.000000	-1.000000	-1.000000	-1.000000	-1.000000	-1.000000	65.379310	0.000000	-1.000000	-1.000000	505223.000000	1772738407.931736
7691.265000	-20986.380000	-5675.805000	-823.230000	-7542.720000	-415.215000	244332.360000	25874.730000	11.108595	22.016163	22.525816	9.893998	16.877985	17.420569	-8.898101	17.813715	3.845520	7.980980	-2.716280	0.940855	-0.261840	0.289550	-1.000000	-1.000000	-1.000000	-1.000000	-1.000000	-1.000000	-1.000000	65.379310	0.000000	-1.000000	-1.000000	505224.000000	1772738407.931745
7667.955000	-20999.790000	-5713.695000	-867.420000	-7582.905000	-444.555000	244357.965000	25842.195000	4.524815	17.427368	12.665526	4.814256	11.416708	12.394174	-9.247262	9.588643	3.845520	7.980980	-2.716280	0.940855	-0.261840	0.289550	-1.000000	-1.000000	-1.000000	-1.000000	-1.000000	-1.000000	-1.000000	65.379310	0.000000	-1.000000	-1.000000	505225.000000	1772738407.931756
7675.560000	-20978.685000	-5695.245000	-880.470000	-7580.295000	-432.810000	244406.070000	25840.485000	-2.289406	9.731781	-0.759328	-4.875534	0.290902	1.849668	-5.764161	-1.865923	3.845520	7.980980	-2.716280	0.940855	-0.261840	0.289550	-1.000000	-1.000000	-1.000000	-1.000000	-1.000000	-1.000000	-1.000000	65.379310	0.000000	-1.000000	-1.000000	505226.000000	1772738407.931760
7684.245000	-20959.155000	-5655.780000	-856.935000	-7558.200000	-412.155000	244438.830000	25843.410000	-3.617776	3.745609	-10.291044	-11.750206	-9.458492	-7.520144	0.710323	-7.904278	3.845520	7.980980	-2.716280	0.940855	-0.261840	0.289550	-1.000000	-1.000000	-1.000000	-1.000000	-1.000000	-1.000000	-1.000000	65.379310	0.000000	-1.000000	-1.000000	505227.000000	1772738407.934879
7713.585000	-20938.680000	-5620.995000	-791.145000	-7524.270000	-391.140000	244446.930000	25867.665000	-0.339010	0.672163	-10.709105	-10.045687	-11.863044	-10.150570	7.263953	-7.651121	3.845520	7.980980	-2.716280	0.940855	-0.261840	0.289550	-1.000000	-1.000000	-1.000000	-1.000000	-1.000000	-1.000000	-1.000000	65.379310	0.000000	-1.000000	-1.000000	505228.000000	1772738407.934885
7641.720000	-21014.190000	-5714.595000	-847.485000	-7571.970000	-445.095000	244435.095000	25837.155000	1.826055	-1.795171	-3.535382	1.658050	-5.581807	-5.242445	11.160367	-7.320008	3.845520	7.980980	-2.716280	0.940855	-0.261840	0.289550	-1.000000	-1.000000	-1.000000	-1.000000	-1.000000	-1.000000	-1.000000	65.379310	0.000000	-1.000000	-1.000000	505229.000000	1772738407.938838
7617.870000	-21021.030000	-5709.420000	-845.460000	-7572.825000	-455.130000	244406.880000	25816.770000	-2.086096	-7.721263	2.173554	15.853890	3.665102	1.629322	11.166441	-11.614643	3.845520	7.980980	-2.716280	0.940855	-0.261840	0.289550	-1.000000	-1.000000	-1.000000	-1.000000	-1.000000	-1.000000	-1.000000	65.379310	0.000000	-1.000000	-1.000000	505230.000000	1772738407.938848
7655.985000	-20961.990000	-5638.680000	-787.950000	-7511.040000	-391.095000	244389.375000	25884.855000	-9.898640	-16.322854	0.856572	21.960584	8.747726	4.716190	8.502336	-15.470867	-2.273740	6.149780	0.320460	0.928281	-0.254455	0.288451	-1.000000	-1.000000	-1.000000	-1.000000	-1.000000	-1.000000	-1.000000	65.379310	0.000000	-1.000000	-1.000000	505231.000000	1772738407.942881
7687.170000	-20934.630000	-5607.135000	-754.875000	-7477.245000	-357.255000	244375.605000	25884.450000	-12.847124	-19.722963	-2.629997	17.173674	8.701919	4.412925	5.043050	-9.972882	-2.273740	6.149780	0.320460	0.928281	-0.254455	0.288451	-1.000000	-1.000000	-1.000000	-1.000000	-1.000000	-1.000000	-1.000000	65.379310	0.000000	-1.000000	-1.000000	505232.000000	1772738407.942887
7678.440000	-20993.940000	-5677.245000	-829.530000	-7547.940000	-412.020000	244373.355000	25820.865000	-5.828972	-13.429192	-2.856754	5.143969	5.501087	2.820924	0.421125	3.370495	-2.273740	6.149780	0.320460	0.928281	-0.254455	0.288451	-1.000000	-1.000000	-1.000000	-1.000000	-1.000000	-1.000000	-1.000000	65.379310	0.000000	-1.000000	-1.000000	505233.000000	1772738407.947224
7677.855000	-21032.775000	-5723.640000	-896.130000	-7612.020000	-463.365000	244425.330000	25747.380000	7.373017	-2.852718	-1.805910	-9.960724	-1.208165	-1.163822	-6.014814	13.589764	-2.273740	6.149780	0.320460	0.928281	-0.254455	0.288451	-1.000000	-1.000000	-1.000000	-1.000000	-1.000000	-1.000000	-1.000000	65.379310	0.000000	-1.000000	-1.000000	505234.000000	1772738407.947229
7697.070000	-20958.210000	-5661.270000	-856.665000	-7578.540000	-435.420000	244475.460000	25759.845000	18.714873	4.898011	-3.056367	-23.124911	-10.790690	-8.085129	-11.669003	13.842719	-2.273740	6.149780	0.320460	0.928281	-0.254455	0.288451	-1.000000	-1.000000	-1.000000	-1.000000	-1.000000	-1.000000	-1.000000	65.379310	0.000000	-1.000000	-1.000000	505235.000000	1772738407.952407
7683.975000	-20954.700000	-5700.870000	-845.595000	-7557.930000	-418.590000	244479.015000	25825.770000	21.185446	8.927372	-5.726525	-27.908943	-17.780657	-13.749369	-12.842293	7.732004	-2.273740	6.149780	0.320460	0.928281	-0.254455	0.288451	-1.000000	-1.000000	-1.000000	-1.000000	-1.000000	-1.000000	-1.000000	65.379310	0.000000	-1.000000	-1.000000	505236.000000	1772738407.952415
7684.965000	-20969.055000	-5763.915000	-853.155000	-7551.540000	-421.335000	244482.480000	25832.970000	12.557698	11.072732	-7.719959	-21.091769	-15.954560	-12.429539	-8.842999	3.048910	-2.273740	6.149780	0.320460	0.928281	-0.254455	0.288451	-1.000000	-1.000000	-1.000000	-1.000000	-1.000000	-1.000000	-1.000000	65.379310	0.000000	-1.000000	-1.000000	505237.000000	1772738407.954842
7708.500000	-20969.415000	-5753.070000	-858.645000	-7561.980000	-441.855000	244428.795000	25835.445000	-1.414645	11.682360	-7.451450	-5.498158	-4.625211	-2.991113	-2.317595	2.915695	-2.273740	6.149780	0.320460	0.928281	-0.254455	0.288451	-1.000000	-1.000000	-1.000000	-1.000000	-1.000000	-1.000000	-1.000000	65.379310	0.000000	-1.000000	-1.000000	505238.000000	1772738407.954850
7714.305000	-20978.280000	-5710.815000	-858.915000	-7575.345000	-458.730000	244391.805000	25824.465000	-11.030225	9.890794	-2.523641	11.610545	9.549019	8.833350	2.983604	4.919097	-2.273740	6.149780	0.320460	0.928281	-0.254455	0.288451	-1.000000	-1.000000	-1.000000	-1.000000	-1.000000	-1.000000	-1.000000	65.379310	0.000000	-1.000000	-1.000000	505239.000000	1772738407.965348
7705.710000	-20957.715000	-5655.420000	-828.450000	-7560.315000	-439.470000	244405.395000	25834.635000	-12.843851	4.086172	6.654620	21.517529	16.707402	14.273807	5.394223	4.698037	-2.273740	6.149780	0.320460	0.928281	-0.254455	0.288451	-1.000000	-1.000000	-1.000000	-1.000000	-1.000000	-1.000000	-1.000000	65.379310	0.000000	-1.000000	-1.000000	505240.000000	1772738407.965358
7712.055000	-20958.300000	-5612.895000	-803.565000	-7539.210000	-411.660000	244417.095000	25871.175000	-10.929783	-4.784388	16.332345	20.543920	13.067704	10.270816	6.339452	0.725454	-2.929920	7.630000	1.571780	0.930357	-0.254943	0.283874	-1.000000	-1.000000	-1.000000	-1.000000	-1.000000	-1.000000	-1.000000	65.379310	0.000000	-1.000000	-1.000000	505241.000000	1772738407.965571
7666.830000	-20988.765000	-5641.470000	-816.075000	-7537.635000	-396.855000	244431.900000	25826.670000	-9.078333	-11.272118	23.413040	14.009297	5.474775	3.555740	6.915444	-2.768832	-2.929920	7.630000	1.571780	0.930357	-0.254943	0.283874	-1.000000	-1.000000	-1.000000	-1.000000	-1.000000	-1.000000	-1.000000	65.379310	0.000000	-1.000000	-1.000000	505242.000000	1772738407.965577
7642.215000	-20993.490000	-5655.870000	-822.555000	-7542.765000	-397.215000	244446.165000	25813.935000	-8.153535	-11.345454	24.186173	8.899224	2.549264	2.073647	5.322644	-1.942641	-2.929920	7.630000	1.571780	0.930357	-0.254943	0.283874	-1.000000	-1.000000	-1.000000	-1.000000	-1.000000	-1.000000	-1.000000	65.379310	0.000000	-1.000000	-1.000000	505243.000000	1772738407.966882
7644.150000	-21000.780000	-5663.745000	-824.715000	-7541.595000	-394.245000	244467.225000	25786.710000	-7.746302	-7.576370	13.961649	4.996603	3.821073	4.834390	-0.086225	0.062342	-2.929920	7.630000	1.571780	0.930357	-0.254943	0.283874	-1.000000	-1.000000	-1.000000	-1.000000	-1.000000	-1.000000	-1.000000	65.379310	0.000000	-1.000000	-1.000000	505244.000000	1772738407.966886
7663.950000	-20993.040000	-5671.575000	-840.465000	-7564.770000	-427.320000	244465.785000	25760.835000	-5.690064	-4.393402	-5.280779	-1.961631	2.471052	4.690692	-6.763617	-3.375853	-2.929920	7.630000	1.571780	0.930357	-0.254943	0.283874	-1.000000	-1.000000	-1.000000	-1.000000	-1.000000	-1.000000	-1.000000	65.379310	0.000000	-1.000000	-1.000000	505245.000000	1772738407.977434
7701.255000	-20980.890000	-5678.370000	-852.165000	-7583.715000	-457.245000	244437.885000	25835.715000	0.928270	-1.447172	-22.378059	-11.717524	-4.488006	-1.928759	-9.936108	-12.173993	-2.929920	7.630000	1.571780	0.930357	-0.254943	0.283874	-1.000000	-1.000000	-1.000000	-1.000000	-1.000000	-1.000000	-1.000000	65.379310	0.000000	-1.000000	-1.000000	505246.000000	1772738407.977442
7683.525000	-21000.195000	-5713.785000	-861.480000	-7588.215000	-461.070000	244404.945000	25848.990000	11.313880	3.440592	-28.196335	-18.971741	-12.974415	-11.262550	-7.209169	-16.492042	-2.929920	7.630000	1.571780	0.930357	-0.254943	0.283874	-1.000000	-1.000000	-1.000000	-1.000000	-1.000000	-1.000000	-1.000000	65.379310	0.000000	-1.000000	-1.000000	505247.000000	1772738407.977451
7665.480000	-21013.020000	-5715.810000	-880.740000	-7587.000000	-451.800000	244384.740000	25805.880000	19.014761	8.108120	-24.636496	-19.999066	-16.927939	-16.580269	-0.112617	-9.770929	-2.929920	7.630000	1.571780	0.930357	-0.254943	0.283874	-1.000000	-1.000000	-1.000000	-1.000000	-1.000000	-1.000000	-1.000000	65.379310	0.000000	-1.000000	-1.000000	505248.000000	1772738407.977455
7665.885000	-20992.815000	-5665.590000	-854.190000	-7559.910000	-428.445000	244365.030000	25782.930000	17.639699	8.422625	-17.932517	-15.649962	-13.785162	-14.486649	6.575019	1.537988	-2.929920	7.630000	1.571780	0.930357	-0.254943	0.283874	-1.000000	-1.000000	-1.000000	-1.000000	-1.000000	-1.000000	-1.000000	65.379310	0.000000	-1.000000	-1.000000	505249.000000	1772738407.980428
7727.220000	-20934.045000	-5598.765000	-755.190000	-7487.100000	-365.895000	244377.225000	25788.465000	8.828719	5.698605	-8.240186	-6.205360	-3.830981	-5.557454	8.244413	8.110472	-2.929920	7.630000	1.571780	0.930357	-0.254943	0.283874	-1.000000	-1.000000	-1.000000	-1.000000	-1.000000	-1.000000	-1.000000	65.379310	0.000000	-1.000000	-1.000000	505250.000000	1772738407.980434
7854.390000	-20814.030000	-5489.955000	-649.665000	-7388.100000	-267.165000	244433.295000	25912.935000	2.813245	7.288652	9.003440	11.212369	12.420549	8.925944	5.081395	11.127013	-2.380560	6.867000	1.556520	0.936155	-0.259338	0.279845	-1.000000	-1.000000	-1.000000	-1.000000	-1.000000	-1.000000	-1.000000	65.379310	0.000000	-1.000000	-1.000000	505251.000000	1772738407.984736
7792.875000	-20907.540000	-5615.685000	-787.680000	-7513.965000	-372.780000	244461.060000	25978.005000	6.413357	14.979613	30.193787	31.693913	28.734540	23.652673	1.404151	18.502669	-2.380560	6.867000	1.556520	0.936155	-0.259338	0.279845	-1.000000	-1.000000	-1.000000	-1.000000	-1.000000	-1.000000	-1.000000	65.379310	0.000000	-1.000000	-1.000000	505252.000000	1772738407.984743
7610.310000	-21086.280000	-5794.920000	-956.745000	-7668.045000	-515.295000	244434.150000	25858.530000	9.446542	15.535777	37.065651	35.841972	28.997078	25.097795	-0.191369	28.015161	-2.380560	6.867000	1.556520	0.936155	-0.259338	0.279845	-1.000000	-1.000000	-1.000000	-1.000000	-1.000000	-1.000000	-1.000000	65.379310	0.000000	-1.000000	-1.000000	505253.000000	1772738407.990577
7653.960000	-21025.080000	-5738.130000	-905.715000	-7627.545000	-495.045000	244447.920000	25802.910000	-3.676433	-3.207190	17.001204	11.586374	4.780921	5.572538	-0.668466	24.258283	-2.380560	6.867000	1.556520	0.936155	-0.259338	0.279845	-1.000000	-1.000000	-1.000000	-1.000000	-1.000000	-1.000000	-1.000000	65.379310	0.000000	-1.000000	-1.000000	505254.000000	1772738407.990586
7655.940000	-20999.295000	-5704.470000	-875.340000	-7600.500000	-482.580000	244400.445000	25773.255000	-28.629989	-30.061393	-15.182661	-24.088123	-27.154280	-21.278277	-0.761010	-1.381466	-2.380560	6.867000	1.556520	0.936155	-0.259338	0.279845	-1.000000	-1.000000	-1.000000	-1.000000	-1.000000	-1.000000	-1.000000	65.379310	0.000000	-1.000000	-1.000000	505255.000000	1772738407.991008
7648.065000	-21007.395000	-5723.055000	-913.905000	-7624.170000	-492.165000	244372.635000	25802.820000	-44.533962	-41.769825	-33.212869	-43.032976	-41.558971	-33.962233	-0.345511	-35.818352	-2.380560	6.867000	1.556520	0.936155	-0.259338	0.279845	-1.000000	-1.000000	-1.000000	-1.000000	-1.000000	-1.000000	-1.000000	65.379310	0.000000	-1.000000	-1.000000	505256.000000	1772738407.991013
7658.190000	-21006.360000	-5716.305000	-911.205000	-7615.215000	-474.660000	244373.085000	25819.785000	-37.647159	-29.509411	-28.006452	-35.347081	-30.846593	-25.408608	0.017069	-54.250333	-2.380560	6.867000	1.556520	0.936155	-0.259338	0.279845	-1.000000	-1.000000	-1.000000	-1.000000	-1.000000	-1.000000	-1.000000	65.379310	0.000000	-1.000000	-1.000000	505257.000000	1772738408.001680
7668.900000	-20976.390000	-5672.115000	-845.325000	-7576.695000	-440.775000	244397.565000	25801.830000	-11.444089	-3.045924	-9.267380	-10.728309	-5.716394	-4.161773	0.327505	-42.889554	-2.380560	6.867000	1.556520	0.936155	-0.259338	0.279845	-1.000000	-1.000000	-1.000000	-1.000000	-1.000000	-1.000000	-1.000000	65.379310	0.000000	-1.000000	-1.000000	505258.000000	1772738408.001688
7675.965000	-20941.965000	-5645.160000	-795.060000	-7538.040000	-411.660000	244465.560000	25776.990000	18.327105	21.567111	9.274023	15.547942	18.366749	16.278622	1.591748	-10.765228	-2.380560	6.867000	1.556520	0.936155	-0.259338	0.279845	-1.000000	-1.000000	-1.000000	-1.000000	-1.000000	-1.000000	-1.000000	65.379310	0.000000	-1.000000	-1.000000	505259.000000	1772738408.001699
7717.230000	-20951.730000	-5639.220000	-790.290000	-7529.040000	-398.520000	244507.725000	25857.405000	35.545834	32.321006	19.065748	31.654612	30.707279	25.973293	3.844439	20.511674	-2.380560	6.867000	1.556520	0.936155	-0.259338	0.279845	-1.000000	-1.000000	-1.000000	-1.000000	-1.000000	-1.000000	-1.000000	65.379310	0.000000	-1.000000	-1.000000	505260.000000	1772738408.001703
7693.830000	-20996.820000	-5674.005000	-825.435000	-7539.795000	-399.960000	244519.020000	25869.735000	36.442480	27.690398	20.323424	34.561497	30.730579	24.726196	5.288456	36.598578	0.976640	3.937080	-0.061040	0.928220	-0.260253	0.278869	-1.000000	-1.000000	-1.000000	-1.000000	-1.000000	-1.000000	-1.000000	65.379310	0.000000	-1.000000	-1.000000	505261.000000	1772738408.002905
7675.605000	-20991.240000	-5680.035000	-840.420000	-7559.460000	-428.355000	244517.670000	25838.775000	28.654581	16.258787	19.069537	28.803550	24.977217	19.576096	4.135422	37.672772	0.976640	3.937080	-0.061040	0.928220	-0.260253	0.278869	-1.000000	-1.000000	-1.000000	-1.000000	-1.000000	-1.000000	-1.000000	65.379310	0.000000	-1.000000	-1.000000	505262.000000	1772738408.002910
7680.780000	-20983.320000	-5683.995000	-849.330000	-7570.665000	-447.030000	244465.110000	25838.640000	17.805913	5.826067	16.699414	17.253774	16.120863	13.390444	-0.117840	29.488481	0.976640	3.937080	-0.061040	0.928220	-0.260253	0.278869	-1.000000	-1.000000	-1.000000	-1.000000	-1.000000	-1.000000	-1.000000	65.379310	0.000000	-1.000000	-1.000000	505263.000000	1772738408.006921
7638.885000	-21011.265000	-5709.645000	-871.695000	-7587.765000	-463.410000	244454.985000	25813.485000	3.428981	-3.277307	8.320750	-0.453986	1.755767	2.987514	-6.184356	15.441142	0.976640	3.937080	-0.061040	0.928220	-0.260253	0.278869	-1.000000	-1.000000	-1.000000	-1.000000	-1.000000	-1.000000	-1.000000	65.379310	0.000000	-1.000000	-1.000000	505264.000000	1772738408.006929
7631.370000	-20998.800000	-5678.910000	-842.220000	-7556.040000	-426.330000	244454.670000	25794.855000	-13.417748	-12.000046	-6.584168	-19.686129	-15.754793	-11.207835	-10.411246	-2.455854	0.976640	3.937080	-0.061040	0.928220	-0.260253	0.278869	-1.000000	-1.000000	-1.000000	-1.000000	-1.000000	-1.000000	-1.000000	65.379310	0.000000	-1.000000	-1.000000	505265.000000	1772738408.016252
7689.150000	-20987.190000	-5701.905000	-851.445000	-7560.135000	-420.255000	244481.805000	25828.380000	-26.189096	-17.665310	-21.118867	-31.374328	-28.186192	-22.666277	-9.509162	-19.404930	0.976640	3.937080	-0.061040	0.928220	-0.260253	0.278869	-1.000000	-1.000000	-1.000000	-1.000000	-1.000000	-1.000000	-1.000000	65.379310	0.000000	-1.000000	-1.000000	505266.000000	1772738408.016261
7687.440000	-20970.765000	-5702.310000	-846.720000	-7560.180000	-418.815000	244520.505000	25803.855000	-27.746784	-17.630464	-29.258665	-32.202404	-30.774872	-26.396308	-4.002314	-27.762813	0.976640	3.937080	-0.061040	0.928220	-0.260253	0.278869	-1.000000	-1.000000	-1.000000	-1.000000	-1.000000	-1.000000	-1.000000	65.379310	0.000000	-1.000000	-1.000000	505267.000000	1772738408.016270
7690.860000	-20976.480000	-5688.405000	-845.865000	-7557.345000	-412.650000	244565.010000	25790.760000	-18.560903	-13.110039	-29.264055	-26.040166	-25.515854	-23.001009	2.120304	-24.731606	0.976640	3.937080	-0.061040	0.928220	-0.260253	0.278869	-1.000000	-1.000000	-1.000000	-1.000000	-1.000000	-1.000000	-1.000000	65.379310	0.000000	-1.000000	-1.000000	505268.000000	1772738408.016274
7727.715000	-20967.930000	-5627.745000	-842.445000	-7548.615000	-406.485000	244580.580000	25812.360000	-5.463222	-6.301901	-19.294671	-15.450073	-15.119635	-14.566863	4.871746	-15.981028	0.976640	3.937080	-0.061040	0.928220	-0.260253	0.278869	-1.000000	-1.000000	-1.000000	-1.000000	-1.000000	-1.000000	-1.000000	65.379310	0.000000	-1.000000	-1.000000	505269.000000	1772738408.024635
7693.290000	-20939.040000	-5618.250000	-831.870000	-7562.340000	-432.000000	244556.730000	25785.090000	6.932106	3.700436	2.290997	0.941610	-0.028471	-1.895720	3.236243	-7.142948	0.976640	3.937080	-0.061040	0.928220	-0.260253	0.278869	-1.000000	-1.000000	-1.000000	-1.000000	-1.000000	-1.000000	-1.000000	65.379310	0.000000	-1.000000	-1.000000	505270.000000	1772738408.024644
7708.230000	-20944.080000	-5661.495000	-849.870000	-7596.540000	-471.510000	244544.265000	25860.060000	16.122722	16.083609	27.990629	20.753873	16.364033	11.914336	-0.889841	2.492212	-6.317640	2.212700	0.396760	0.923521	-0.255554	0.280212	-1.000000	-1.000000	-1.000000	-1.000000	-1.000000	-1.000000	-1.000000	65.379310	0.000000	-1.000000	-1.000000	505271.000000	1772738408.024655
7638.480000	-21020.310000	-5724.495000	-865.080000	-7593.705000	-475.020000	244480.455000	25872.660000	17.939353	22.602210	40.595835	34.157275	26.224606	20.584645	-4.406212	15.066759	-6.317640	2.212700	0.396760	0.923521	-0.255554	0.280212	-1.000000	-1.000000	-1.000000	-1.000000	-1.000000	-1.000000	-1.000000	65.379310	0.000000	-1.000000	-1.000000	505272.000000	1772738408.024659
7707.285000	-20975.670000	-5715.630000	-845.055000	-7562.025000	-435.015000	244448.595000	25881.705000	11.307813	16.107887	29.730483	33.113280	25.225386	20.817546	-5.700246	27.173626	-6.317640	2.212700	0.396760	0.923521	-0.255554	0.280212	-1.000000	-1.000000	-1.000000	-1.000000	-1.000000	-1.000000	-1.000000	65.379310	0.000000	-1.000000	-1.000000	505273.000000	1772738408.027890
7703.820000	-20976.255000	-5736.150000	-877.590000	-7574.940000	-435.915000	244470.510000	25813.305000	1.929087	0.958037	2.748296	18.734048	15.956152	14.632045	-5.044743	30.043488	-6.317640	2.212700	0.396760	0.923521	-0.255554	0.280212	-1.000000	-1.000000	-1.000000	-1.000000	-1.000000	-1.000000	-1.000000	65.379310	0.000000	-1.000000	-1.000000	505274.000000	1772738408.027901
7681.095000	-20993.175000	-5724.810000	-882.720000	-7592.580000	-450.405000	244507.905000	25776.135000	-5.305033	-12.992795	-23.373295	-2.227746	2.786117	4.993060	-2.209027	16.998566	-6.317640	2.212700	0.396760	0.923521	-0.255554	0.280212	-1.000000	-1.000000	-1.000000	-1.000000	-1.000000	-1.000000	-1.000000	65.379310	0.000000	-1.000000	-1.000000	505275.000000	1772738408.030875
7669.710000	-20997.090000	-5675.985000	-841.455000	-7574.895000	-432.630000	244574.550000	25803.585000	-10.834734	-20.396894	-34.357400	-20.897858	-10.214773	-5.523380	3.053963	-7.248722	-6.317640	2.212700	0.396760	0.923521	-0.255554	0.280212	-1.000000	-1.000000	-1.000000	-1.000000	-1.000000	-1.000000	-1.000000	65.379310	0.000000	-1.000000	-1.000000	505276.000000	1772738408.030883
7664.580000	-20986.065000	-5645.295000	-819.765000	-7556.850000	-420.930000	244602.495000	25790.625000	-15.050544	-19.908452	-25.638173	-28.112352	-17.918005	-12.949017	9.054422	-28.191850	-6.317640	2.212700	0.396760	0.923521	-0.255554	0.280212	-1.000000	-1.000000	-1.000000	-1.000000	-1.000000	-1.000000	-1.000000	65.379310	0.000000	-1.000000	-1.000000	505277.000000	1772738408.035662
7705.485000	-20959.875000	-5652.540000	-832.320000	-7558.605000	-422.865000	244603.755000	25837.065000	-14.948880	-11.095126	-4.281940	-20.217234	-16.269969	-13.396364	12.768533	-34.030165	-6.317640	2.212700	0.396760	0.923521	-0.255554	0.280212	-1.000000	-1.000000	-1.000000	-1.000000	-1.000000	-1.000000	-1.000000	65.379310	0.000000	-1.000000	-1.000000	505278.000000	1772738408.035671
7709.265000	-20957.580000	-5656.140000	-859.815000	-7578.135000	-445.230000	244594.800000	25890.030000	-6.883297	3.428585	16.397421	-3.411855	-6.343621	-6.537334	12.073926	-21.821224	-6.317640	2.212700	0.396760	0.923521	-0.255554	0.280212	-1.000000	-1.000000	-1.000000	-1.000000	-1.000000	-1.000000	-1.000000	65.379310	0.000000	-1.000000	-1.000000	505279.000000	1772738408.038988
7720.020000	-20927.790000	-5626.395000	-820.080000	-7552.215000	-435.555000	244551.825000	25870.815000	7.598675	17.294915	27.025588	11.607559	6.026034	3.698083	7.153798	1.323537	-6.317640	2.212700	0.396760	0.923521	-0.255554	0.280212	-1.000000	-1.000000	-1.000000	-1.000000	-1.000000	-1.000000	-1.000000	65.379310	0.000000	-1.000000	-1.000000	505280.000000	1772738408.039007
7690.455000	-20943.135000	-5640.930000	-802.980000	-7539.030000	-427.680000	244518.120000	25823.250000	20.665575	24.932314	26.596240	18.940046	14.671363	11.641801	0.121592	19.941552	-8.087800	2.639980	-0.137340	0.924802	-0.250305	0.283202	-1.000000	-1.000000	-1.000000	-1.000000	-1.000000	-1.000000	-1.000000	65.379310	0.000000	-1.000000	-1.000000	505281.000000	1772738408.050833
7624.620000	-20969.595000	-5664.330000	-831.870000	-7565.220000	-444.690000	244516.725000	25740.720000	22.688676	22.613730	17.225149	17.817382	15.270962	12.316492	-6.340453	21.579664	-8.087800	2.639980	-0.137340	0.924802	-0.250305	0.283202	-1.000000	-1.000000	-1.000000	-1.000000	-1.000000	-1.000000	-1.000000	65.379310	0.000000	-1.000000	-1.000000	505282.000000	1772738408.050843
7660.305000	-20945.205000	-5641.695000	-815.040000	-7548.930000	-425.160000	244508.085000	25739.145000	9.819180	9.457482	1.559461	9.347210	7.087483	4.656643	-10.806603	7.505838	-8.087800	2.639980	-0.137340	0.924802	-0.250305	0.283202	-1.000000	-1.000000	-1.000000	-1.000000	-1.000000	-1.000000	-1.000000	65.379310	0.000000	-1.000000	-1.000000	505283.000000	1772738408.050853
7732.620000	-20949.030000	-5659.110000	-834.120000	-7562.070000	-422.865000	244561.905000	25800.390000	-8.197334	-8.145641	-14.837321	-2.845935	-4.949923	-6.076050	-13.237038	-8.272552	-8.087800	2.639980	-0.137340	0.924802	-0.250305	0.283202	-1.000000	-1.000000	-1.000000	-1.000000	-1.000000	-1.000000	-1.000000	65.379310	0.000000	-1.000000	-1.000000	505284.000000	1772738408.050858
7739.955000	-21023.730000	-5715.540000	-879.525000	-7600.140000	-448.605000	244606.770000	25911.450000	-15.845800	-21.496207	-27.100191	-14.879309	-14.757444	-13.363763	-12.879554	-10.626784	-8.087800	2.639980	-0.137340	0.924802	-0.250305	0.283202	-1.000000	-1.000000	-1.000000	-1.000000	-1.000000	-1.000000	-1.000000	65.379310	0.000000	-1.000000	-1.000000	505285.000000	1772738408.050862
7723.170000	-20983.050000	-5665.140000	-829.305000	-7558.965000	-424.305000	244609.695000	25894.845000	-9.563419	-26.763874	-32.789012	-23.165537	-19.069555	-14.683292	-8.446353	2.983539	-8.087800	2.639980	-0.137340	0.924802	-0.250305	0.283202	-1.000000	-1.000000	-1.000000	-1.000000	-1.000000	-1.000000	-1.000000	65.379310	0.000000	-1.000000	-1.000000	505286.000000	1772738408.050866
7698.105000	-20941.920000	-5627.745000	-796.995000	-7530.255000	-407.340000	244599.480000	25874.415000	0.643310	-22.209000	-27.286647	-21.360834	-14.829872	-9.331873	-0.710082	19.025823	-8.087800	2.639980	-0.137340	0.924802	-0.250305	0.283202	-1.000000	-1.000000	-1.000000	-1.000000	-1.000000	-1.000000	-1.000000	65.379310	0.000000	-1.000000	-1.000000	505287.000000	1772738408.059782
7656.525000	-20995.560000	-5675.040000	-833.805000	-7554.150000	-432.090000	244576.620000	25809.885000	4.011833	-8.734321	-8.909364	-7.005415	-1.731019	1.606401	7.303672	20.018884	-8.087800	2.639980	-0.137340	0.924802	-0.250305	0.283202	-1.000000	-1.000000	-1.000000	-1.000000	-1.000000	-1.000000	-1.000000	65.379310	0.000000	-1.000000	-1.000000	505288.000000	1772738408.059791
7647.120000	-21042.540000	-5716.215000	-872.955000	-7591.770000	-466.965000	244553.265000	25804.575000	-1.478282	5.789924	12.865123	10.375693	12.205015	11.838243	12.831136	1.892274	-8.087800	2.639980	-0.137340	0.924802	-0.250305	0.283202	-1.000000	-1.000000	-1.000000	-1.000000	-1.000000	-1.000000	-1.000000	65.379310	0.000000	-1.000000	-1.000000	505289.000000	1772738408.075234
7630.470000	-21068.055000	-5760.450000	-926.640000	-7649.145000	-509.850000	244546.785000	25809.885000	-9.032415	12.646018	24.746317	17.239421	15.880888	13.192489	14.686993	-21.041046	-8.087800	2.639980	-0.137340	0.924802	-0.250305	0.283202	-1.000000	-1.000000	-1.000000	-1.000000	-1.000000	-1.000000	-1.000000	65.379310	0.000000	-1.000000	-1.000000	505290.000000	1772738408.075244
7658.640000	-20993.580000	-5709.690000	-888.705000	-7613.505000	-471.915000	244559.295000	25813.530000	-10.225284	11.730922	22.767136	10.629441	7.076024	4.509617	12.552552	-29.537302	-7.477400	2.029580	0.732480	0.923948	-0.252014	0.284057	-1.000000	-1.000000	-1.000000	-1.000000	-1.000000	-1.000000	-1.000000	65.379310	0.000000	-1.000000	-1.000000	505291.000000	1772738408.075255
7677.180000	-20954.430000	-5670.405000	-847.440000	-7574.940000	-430.155000	244579.050000	25800.615000	-2.906555	10.297775	14.104754	0.427060	-4.420791	-5.682685	6.742024	-17.915348	-7.477400	2.029580	0.732480	0.923948	-0.252014	0.284057	-1.000000	-1.000000	-1.000000	-1.000000	-1.000000	-1.000000	-1.000000	65.379310	0.000000	-1.000000	-1.000000	505292.000000	1772738408.075259
7697.610000	-20975.445000	-5675.580000	-845.460000	-7571.655000	-418.140000	244601.550000	25829.595000	7.371674	12.949636	7.673384	-2.407701	-7.321594	-7.841130	-1.821438	2.000548	-7.477400	2.029580	0.732480	0.923948	-0.252014	0.284057	-1.000000	-1.000000	-1.000000	-1.000000	-1.000000	-1.000000	-1.000000	65.379310	0.000000	-1.000000	-1.000000	505293.000000	1772738408.075716
7700.805000	-20981.070000	-5686.290000	-859.320000	-7586.775000	-441.630000	244657.260000	25830.945000	13.639870	16.470050	5.431711	3.180420	-0.304892	-1.216521	-10.594202	14.263529	-7.477400	2.029580	0.732480	0.923948	-0.252014	0.284057	-1.000000	-1.000000	-1.000000	-1.000000	-1.000000	-1.000000	-1.000000	65.379310	0.000000	-1.000000	-1.000000	505294.000000	1772738408.075723
7683.885000	-20946.645000	-5655.915000	-833.670000	-7566.120000	-437.085000	244657.485000	25775.955000	13.352450	14.639133	3.361701	9.607619	8.563816	6.721606	-14.602666	12.556807	-7.477400	2.029580	0.732480	0.923948	-0.252014	0.284057	-1.000000	-1.000000	-1.000000	-1.000000	-1.000000	-1.000000	-1.000000	65.379310	0.000000	-1.000000	-1.000000	505295.000000	1772738408.075729
7680.645000	-20924.145000	-5634.135000	-812.295000	-7545.960000	-425.340000	244647.225000	25785.945000	8.164499	5.510963	-1.146763	10.443485	11.785168	9.326931	-10.837081	2.020931	-7.477400	2.029580	0.732480	0.923948	-0.252014	0.284057	-1.000000	-1.000000	-1.000000	-1.000000	-1.000000	-1.000000	-1.000000	65.379310	0.000000	-1.000000	-1.000000	505296.000000	1772738408.075733
7689.555000	-20944.575000	-5643.540000	-818.010000	-7547.580000	-428.355000	244610.775000	25861.590000	1.886990	-6.180508	-5.611715	6.176350	8.858665	6.673348	-2.108414	-5.631980	-7.477400	2.029580	0.732480	0.923948	-0.252014	0.284057	-1.000000	-1.000000	-1.000000	-1.000000	-1.000000	-1.000000	-1.000000	65.379310	0.000000	-1.000000	-1.000000	505297.000000	1772738408.075738
7655.895000	-20991.645000	-5684.130000	-856.620000	-7584.165000	-460.935000	244594.395000	25826.535000	-2.275742	-14.353169	-6.947478	0.349937	3.141484	2.235476	5.792077	-1.656392	-7.477400	2.029580	0.732480	0.923948	-0.252014	0.284057	-1.000000	-1.000000	-1.000000	-1.000000	-1.000000	-1.000000	-1.000000	65.379310	0.000000	-1.000000	-1.000000	505298.000000	1772738408.075742
7675.155000	-20957.670000	-5654.295000	-825.705000	-7551.720000	-424.845000	244593.045000	25771.275000	-4.088162	-17.170498	-5.636920	-4.685744	-2.432938	-1.612862	8.626111	9.425941	-7.477400	2.029580	0.732480	0.923948	-0.252014	0.284057	-1.000000	-1.000000	-1.000000	-1.000000	-1.000000	-1.000000	-1.000000	65.379310	0.000000	-1.000000	-1.000000	505299.000000	1772738408.083416
7710.435000	-20988.720000	-5693.085000	-867.645000	-7592.580000	-452.565000	244620.855000	25831.395000	-4.568128	-16.672657	-4.860662	-8.486460	-6.814483	-4.540777	5.978590	15.961332	-7.477400	2.029580	0.732480	0.923948	-0.252014	0.284057	-1.000000	-1.000000	-1.000000	-1.000000	-1.000000	-1.000000	-1.000000	65.379310	0.000000	-1.000000	-1.000000	505300.000000	1772738408.083425
7733.790000	-20972.610000	-5683.770000	-876.330000	-7611.210000	-462.780000	244679.355000	25882.335000	-4.218309	-15.349825	-7.581091	-12.620792	-11.498650	-8.232113	1.094067	14.059597	0.579880	0.228900	-1.632820	0.918821	-0.261596	0.284057	-1.000000	-1.000000	-1.000000	-1.000000	-1.000000	-1.000000	-1.000000	65.379310	0.000000	-1.000000	-1.000000	505301.000000	1772738408.083436
7739.010000	-20911.995000	-5632.920000	-841.815000	-7555.185000	-407.700000	244694.745000	25817.760000	-3.631085	-11.129495	-11.197027	-16.096674	-15.599363	-11.975033	-2.374068	6.040341	0.579880	0.228900	-1.632820	0.918821	-0.261596	0.284057	-1.000000	-1.000000	-1.000000	-1.000000	-1.000000	-1.000000	-1.000000	65.379310	0.000000	-1.000000	-1.000000	505302.000000	1772738408.083440
7703.730000	-20960.955000	-5706.225000	-949.635000	-7589.655000	-433.260000	244662.030000	25815.960000	-3.648064	-0.783123	-10.013270	-15.276606	-14.058021	-10.812803	-4.359777	-6.543746	0.579880	0.228900	-1.632820	0.918821	-0.261596	0.284057	-1.000000	-1.000000	-1.000000	-1.000000	-1.000000	-1.000000	-1.000000	65.379310	0.000000	-1.000000	-1.000000	505303.000000	1772738408.089883
7688.790000	-20996.460000	-5711.175000	-908.145000	-7618.365000	-475.065000	244677.555000	25858.440000	-4.669795	9.953149	-5.212075	-10.820514	-6.638517	-4.019705	-6.476368	-18.102195	0.579880	0.228900	-1.632820	0.918821	-0.261596	0.284057	-1.000000	-1.000000	-1.000000	-1.000000	-1.000000	-1.000000	-1.000000	65.379310	0.000000	-1.000000	-1.000000	505304.000000	1772738408.089892
7716.105000	-20952.945000	-5692.275000	-814.050000	-7569.090000	-455.805000	244653.570000	25848.090000	-5.295045	12.669657	-1.295854	-3.388987	1.403328	2.836705	-7.185202	-20.375079	0.579880	0.228900	-1.632820	0.918821	-0.261596	0.284057	-1.000000	-1.000000	-1.000000	-1.000000	-1.000000	-1.000000	-1.000000	65.379310	0.000000	-1.000000	-1.000000	505305.000000	1772738408.095320
7690.095000	-20951.325000	-5715.090000	-810.630000	-7554.240000	-447.165000	244628.685000	25809.705000	-3.136923	9.599920	2.591637	10.177152	8.447168	6.876429	-3.921444	-13.607936	0.579880	0.228900	-1.632820	0.918821	-0.261596	0.284057	-1.000000	-1.000000	-1.000000	-1.000000	-1.000000	-1.000000	-1.000000	65.379310	0.000000	-1.000000	-1.000000	505306.000000	1772738408.095327
7664.760000	-20997.630000	-5691.375000	-850.230000	-7593.390000	-470.745000	244639.080000	25811.100000	1.402372	7.553302	8.885209	26.542506	15.027610	9.298063	2.449510	-4.553768	0.579880	0.228900	-1.632820	0.918821	-0.261596	0.284057	-1.000000	-1.000000	-1.000000	-1.000000	-1.000000	-1.000000	-1.000000	65.379310	0.000000	-1.000000	-1.000000	505307.000000	1772738408.095619
7639.605000	-21019.905000	-5664.555000	-854.640000	-7587.675000	-449.730000	244670.310000	25819.380000	4.239795	5.944979	16.172086	33.790368	17.643128	9.771526	8.729786	3.527695	0.579880	0.228900	-1.632820	0.918821	-0.261596	0.284057	-1.000000	-1.000000	-1.000000	-1.000000	-1.000000	-1.000000	-1.000000	65.379310	0.000000	-1.000000	-1.000000	505308.000000	1772738408.095639
7642.215000	-20979.180000	-5636.745000	-801.990000	-7536.825000	-396.720000	244706.985000	25793.280000	1.745265	1.422509	20.677751	25.385853	13.799113	7.947233	11.913371	8.956271	0.579880	0.228900	-1.632820	0.918821	-0.261596	0.284057	-1.000000	-1.000000	-1.000000	-1.000000	-1.000000	-1.000000	-1.000000	65.379310	0.000000	-1.000000	-1.000000	505309.000000	1772738408.098846
7669.035000	-21004.020000	-5700.600000	-853.830000	-7580.520000	-432.045000	244740.510000	25826.130000	-4.321478	-4.222532	18.249900	6.733537	6.266714	5.349408	10.059233	8.630790	0.579880	0.228900	-1.632820	0.918821	-0.261596	0.284057	-1.000000	-1.000000	-1.000000	-1.000000	-1.000000	-1.000000	-1.000000	65.379310	0.000000	-1.000000	-1.000000	505310.000000	1772738408.098852
7676.685000	-21047.940000	-5768.280000	-917.190000	-7620.480000	-469.890000	244746.495000	25838.280000	-7.299928	-8.462730	5.392128	-13.737849	-3.165087	0.862830	3.730490	4.458882	5.173140	-0.701960	-1.709120	0.915891	-0.267700	0.282104	-1.000000	-1.000000	-1.000000	-1.000000	-1.000000	-1.000000	-1.000000	65.379310	0.000000	-1.000000	-1.000000	505311.000000	1772738408.103024
7680.150000	-21009.735000	-5697.495000	-892.530000	-7605.000000	-468.180000	244730.790000	25820.370000	-2.227665	-10.277654	-13.803169	-28.934222	-13.516816	-6.831621	-3.750862	2.203077	5.173140	-0.701960	-1.709120	0.915891	-0.267700	0.282104	-1.000000	-1.000000	-1.000000	-1.000000	-1.000000	-1.000000	-1.000000	65.379310	0.000000	-1.000000	-1.000000	505312.000000	1772738408.103032
7704.315000	-20966.400000	-5620.680000	-869.445000	-7586.325000	-461.880000	244687.005000	25823.340000	9.059829	-6.479893	-25.014300	-32.476619	-19.344603	-13.192430	-9.467434	2.543634	5.173140	-0.701960	-1.709120	0.915891	-0.267700	0.282104	-1.000000	-1.000000	-1.000000	-1.000000	-1.000000	-1.000000	-1.000000	65.379310	0.000000	-1.000000	-1.000000	505313.000000	1772738408.108049
7708.635000	-20935.035000	-5622.165000	-854.865000	-7593.075000	-479.655000	244662.885000	25816.005000	19.349700	4.198311	-18.012672	-23.808801	-16.342885	-13.039604	-12.391280	2.288445	5.173140	-0.701960	-1.709120	0.915891	-0.267700	0.282104	-1.000000	-1.000000	-1.000000	-1.000000	-1.000000	-1.000000	-1.000000	65.379310	0.000000	-1.000000	-1.000000	505314.000000	1772738408.108057
7702.470000	-20955.825000	-5656.095000	-827.145000	-7591.095000	-475.650000	244665.495000	25839.225000	21.990664	16.375657	0.907270	-7.752520	-6.780312	-6.908996	-11.416855	1.228644	5.173140	-0.701960	-1.709120	0.915891	-0.267700	0.282104	-1.000000	-1.000000	-1.000000	-1.000000	-1.000000	-1.000000	-1.000000	65.379310	0.000000	-1.000000	-1.000000	505315.000000	1772738408.111352
7684.785000	-21019.545000	-5739.120000	-863.595000	-7588.755000	-446.805000	244685.880000	25814.880000	15.271872	21.380121	14.569940	10.106485	4.521895	1.776386	-5.892201	1.381894	5.173140	-0.701960	-1.709120	0.915891	-0.267700	0.282104	-1.000000	-1.000000	-1.000000	-1.000000	-1.000000	-1.000000	-1.000000	65.379310	0.000000	-1.000000	-1.000000	505316.000000	1772738408.111360
7695.810000	-20991.195000	-5707.665000	-850.680000	-7573.725000	-423.000000	244729.125000	25817.130000	2.102367	14.046316	10.928777	22.662876	13.163442	9.659689	2.240889	2.008368	5.173140	-0.701960	-1.709120	0.915891	-0.267700	0.282104	-1.000000	-1.000000	-1.000000	-1.000000	-1.000000	-1.000000	-1.000000	65.379310	0.000000	-1.000000	-1.000000	505317.000000	1772738408.115697
7695.945000	-20954.295000	-5666.355000	-835.875000	-7558.110000	-407.520000	244769.445000	25830.135000	-12.191034	-1.551174	-4.569372	24.199141	15.818677	13.461338	9.306143	0.616035	5.173140	-0.701960	-1.709120	0.915891	-0.267700	0.282104	-1.000000	-1.000000	-1.000000	-1.000000	-1.000000	-1.000000	-1.000000	65.379310	0.000000	-1.000000	-1.000000	505318.000000	1772738408.115703
7686.495000	-20958.840000	-5667.345000	-831.780000	-7565.895000	-426.915000	244788.210000	25809.480000	-22.471046	-14.736409	-14.908628	16.624387	12.536068	11.704147	12.277501	-3.154678	5.173140	-0.701960	-1.709120	0.915891	-0.267700	0.282104	-1.000000	-1.000000	-1.000000	-1.000000	-1.000000	-1.000000	-1.000000	65.379310	0.000000	-1.000000	-1.000000	505319.000000	1772738408.118908
7698.825000	-20977.965000	-5661.720000	-832.635000	-7567.020000	-434.745000	244799.280000	25835.220000	-25.233848	-18.261171	-10.039945	7.389302	6.406056	5.867467	10.630302	-7.134716	5.173140	-0.701960	-1.709120	0.915891	-0.267700	0.282104	-1.000000	-1.000000	-1.000000	-1.000000	-1.000000	-1.000000	-1.000000	65.379310	0.000000	-1.000000	-1.000000	505320.000000	1772738408.118915
7659.945000	-21015.225000	-5698.665000	-868.815000	-7595.145000	-467.055000	244767.420000	25836.390000	-19.601435	-14.203606	3.421072	0.257235	-0.310500	-1.534286	6.130502	-7.971278	2.670500	-0.961380	1.892240	0.917783	-0.263976	0.281982	-1.000000	-1.000000	-1.000000	-1.000000	-1.000000	-1.000000	-1.000000	65.379310	0.000000	-1.000000	-1.000000	505321.000000	1772738408.122779
7649.955000	-20999.205000	-5702.310000	-879.165000	-7611.885000	-494.055000	244709.505000	25790.715000	-9.246289	-9.730951	10.562108	-7.675567	-7.732889	-8.928199	0.355816	-4.878063	2.670500	-0.961380	1.892240	0.917783	-0.263976	0.281982	-1.000000	-1.000000	-1.000000	-1.000000	-1.000000	-1.000000	-1.000000	65.379310	0.000000	-1.000000	-1.000000	505322.000000	1772738408.122787
7671.375000	-20980.755000	-5690.520000	-866.205000	-7597.440000	-470.970000	244686.105000	25805.835000	0.916067	-7.556110	5.772318	-17.486465	-14.654805	-14.190814	-6.009651	-0.938521	2.670500	-0.961380	1.892240	0.917783	-0.263976	0.281982	-1.000000	-1.000000	-1.000000	-1.000000	-1.000000	-1.000000	-1.000000	65.379310	0.000000	-1.000000	-1.000000	505323.000000	1772738408.126894
7672.095000	-20991.465000	-5693.895000	-868.230000	-7597.395000	-459.720000	244728.405000	25827.480000	9.668822	-3.615481	-2.383029	-23.301642	-16.578946	-13.715832	-10.950610	2.039880	2.670500	-0.961380	1.892240	0.917783	-0.263976	0.281982	-1.000000	-1.000000	-1.000000	-1.000000	-1.000000	-1.000000	-1.000000	65.379310	0.000000	-1.000000	-1.000000	505324.000000	1772738408.126902
7667.055000	-21007.395000	-5690.385000	-857.070000	-7582.815000	-437.895000	244756.170000	25830.630000	16.763930	5.025232	-3.970067	-18.883412	-10.747812	-6.707404	-11.193663	5.167535	2.670500	-0.961380	1.892240	0.917783	-0.263976	0.281982	-1.000000	-1.000000	-1.000000	-1.000000	-1.000000	-1.000000	-1.000000	65.379310	0.000000	-1.000000	-1.000000	505325.000000	1772738408.134016
7655.940000	-21021.300000	-5684.985000	-860.040000	-7575.930000	-426.330000	244792.665000	25805.655000	19.347914	13.840474	1.250490	-5.289097	-0.163409	2.605576	-6.210041	7.839471	2.670500	-0.961380	1.892240	0.917783	-0.263976	0.281982	-1.000000	-1.000000	-1.000000	-1.000000	-1.000000	-1.000000	-1.000000	65.379310	0.000000	-1.000000	-1.000000	505326.000000	1772738408.134021
7632.810000	-21022.965000	-5686.155000	-860.400000	-7577.730000	-422.415000	244816.020000	25798.500000	14.544270	15.382619	6.352846	9.678368	9.241663	9.232286	0.582658	6.847823	2.670500	-0.961380	1.892240	0.917783	-0.263976	0.281982	-1.000000	-1.000000	-1.000000	-1.000000	-1.000000	-1.000000	-1.000000	65.379310	0.000000	-1.000000	-1.000000	505327.000000	1772738408.137172
7656.615000	-20986.065000	-5684.850000	-848.160000	-7582.995000	-443.160000	244819.440000	25777.935000	3.925533	9.212597	6.670014	18.867654	13.447191	11.179411	5.371358	1.131512	2.670500	-0.961380	1.892240	0.917783	-0.263976	0.281982	-1.000000	-1.000000	-1.000000	-1.000000	-1.000000	-1.000000	-1.000000	65.379310	0.000000	-1.000000	-1.000000	505328.000000	1772738408.137177
7695.495000	-20949.840000	-5669.685000	-843.480000	-7580.070000	-451.035000	244799.280000	25825.140000	-5.628399	2.998878	3.334844	20.465584	12.128263	9.024194	6.520308	-5.745449	2.670500	-0.961380	1.892240	0.917783	-0.263976	0.281982	-1.000000	-1.000000	-1.000000	-1.000000	-1.000000	-1.000000	-1.000000	65.379310	0.000000	-1.000000	-1.000000	505329.000000	1772738408.141531
7757.505000	-20929.365000	-5657.985000	-839.430000	-7573.320000	-450.180000	244773.855000	25905.510000	-6.622827	2.843429	-0.347971	16.016782	7.589520	4.797381	4.887790	-7.087339	2.670500	-0.961380	1.892240	0.917783	-0.263976	0.281982	-1.000000	-1.000000	-1.000000	-1.000000	-1.000000	-1.000000	-1.000000	65.379310	0.000000	-1.000000	-1.000000	505330.000000	1772738408.141540
7720.965000	-20942.145000	-5707.620000	-871.830000	-7595.505000	-469.890000	244734.390000	25836.480000	1.203346	6.066618	-2.996355	7.282196	2.316532	0.761408	2.789356	0.469608	-2.670500	0.198380	-0.198380	0.922117	-0.255554	0.281188	-1.000000	-1.000000	-1.000000	-1.000000	-1.000000	-1.000000	-1.000000	65.379310	0.000000	-1.000000	-1.000000	505331.000000	1772738408.142874
7643.610000	-20935.305000	-5706.450000	-878.895000	-7598.970000	-467.415000	244736.910000	25724.970000	7.795845	5.632699	-5.623834	-4.165247	-2.876602	-2.621602	1.287100	8.418536	-2.670500	0.198380	-0.198380	0.922117	-0.255554	0.281188	-1.000000	-1.000000	-1.000000	-1.000000	-1.000000	-1.000000	-1.000000	65.379310	0.000000	-1.000000	-1.000000	505332.000000	1772738408.142882
7663.005000	-20877.570000	-5596.290000	-779.670000	-7513.830000	-386.640000	244742.715000	25750.620000	3.207366	0.356595	-6.402667	-13.487912	-6.439896	-4.989549	-0.766206	4.542941	-2.670500	0.198380	-0.198380	0.922117	-0.255554	0.281188	-1.000000	-1.000000	-1.000000	-1.000000	-1.000000	-1.000000	-1.000000	65.379310	0.000000	-1.000000	-1.000000	505333.000000	1772738408.156533
7720.515000	-20934.450000	-5605.650000	-794.925000	-7540.920000	-405.720000	244804.905000	25800.255000	-8.945343	-5.097679	-0.873136	-13.814060	-5.615947	-4.635053	-3.718274	-8.358889	-2.670500	0.198380	-0.198380	0.922117	-0.255554	0.281188	-1.000000	-1.000000	-1.000000	-1.000000	-1.000000	-1.000000	-1.000000	65.379310	0.000000	-1.000000	-1.000000	505334.000000	1772738408.156543
7704.630000	-21042.315000	-5707.620000	-887.040000	-7620.120000	-467.415000	244853.730000	25862.670000	-16.180044	-10.509775	7.055796	-6.745193	-2.860386	-3.210491	-4.983858	-14.741808	-2.670500	0.198380	-0.198380	0.922117	-0.255554	0.281188	-1.000000	-1.000000	-1.000000	-1.000000	-1.000000	-1.000000	-1.000000	65.379310	0.000000	-1.000000	-1.000000	505335.000000	1772738408.156554
7684.785000	-21002.715000	-5693.805000	-872.280000	-7601.490000	-455.895000	244877.805000	25806.780000	-12.974561	-18.748679	6.805158	-2.010423	-4.032250	-4.638570	-2.100046	-6.453948	-2.670500	0.198380	-0.198380	0.922117	-0.255554	0.281188	-1.000000	-1.000000	-1.000000	-1.000000	-1.000000	-1.000000	-1.000000	65.379310	0.000000	-1.000000	-1.000000	505336.000000	1772738408.156558
7708.410000	-20932.380000	-5635.575000	-817.830000	-7553.520000	-425.520000	244857.285000	25782.390000	-4.275138	-24.523853	-2.218146	-2.722861	-7.585045	-6.908276	3.409189	7.979402	-2.670500	0.198380	-0.198380	0.922117	-0.255554	0.281188	-1.000000	-1.000000	-1.000000	-1.000000	-1.000000	-1.000000	-1.000000	65.379310	0.000000	-1.000000	-1.000000	505337.000000	1772738408.156562
7712.280000	-20953.350000	-5660.370000	-846.585000	-7584.345000	-462.870000	244812.555000	25780.770000	2.840463	-18.968890	-10.107800	-3.253951	-6.732821	-4.641294	6.949605	14.030322	-2.670500	0.198380	-0.198380	0.922117	-0.255554	0.281188	-1.000000	-1.000000	-1.000000	-1.000000	-1.000000	-1.000000	-1.000000	65.379310	0.000000	-1.000000	-1.000000	505338.000000	1772738408.156566
7717.320000	-20995.740000	-5693.445000	-873.495000	-7604.460000	-473.040000	244790.280000	25814.250000	4.977020	-3.745920	-11.063025	-0.777377	-0.765411	1.752381	5.567523	7.137541	-2.670500	0.198380	-0.198380	0.922117	-0.255554	0.281188	-1.000000	-1.000000	-1.000000	-1.000000	-1.000000	-1.000000	-1.000000	65.379310	0.000000	-1.000000	-1.000000	505339.000000	1772738408.164109
7712.100000	-20993.760000	-5697.945000	-879.165000	-7608.780000	-469.440000	244789.650000	25877.970000	3.781712	10.828933	-6.644532	2.327540	5.292153	7.449469	0.968901	-2.338545	-2.670500	0.198380	-0.198380	0.922117	-0.255554	0.281188	-1.000000	-1.000000	-1.000000	-1.000000	-1.000000	-1.000000	-1.000000	65.379310	0.000000	-1.000000	-1.000000	505340.000000	1772738408.164117
7649.280000	-21023.505000	-5722.470000	-901.080000	-7630.335000	-488.655000	244799.730000	25836.570000	2.957710	17.378929	-0.738590	3.419918	7.284523	8.658421	-3.150402	-1.702396	-7.355320	0.167860	-0.518840	0.919614	-0.252319	0.279052	-1.000000	-1.000000	-1.000000	-1.000000	-1.000000	-1.000000	-1.000000	65.379310	0.000000	-1.000000	-1.000000	505341.000000	1772738408.164124
7665.030000	-21005.595000	-5699.925000	-877.095000	-7608.645000	-463.500000	244822.500000	25825.185000	2.443397	15.313723	2.236248	1.060371	3.785032	3.869327	-5.191051	6.890411	-7.355320	0.167860	-0.518840	0.919614	-0.252319	0.279052	-1.000000	-1.000000	-1.000000	-1.000000	-1.000000	-1.000000	-1.000000	65.379310	0.000000	-1.000000	-1.000000	505342.000000	1772738408.164128
7660.125000	-21004.335000	-5694.795000	-871.605000	-7600.680000	-447.075000	244851.660000	25826.940000	-0.082969	10.142491	1.851588	-2.364801	-1.749467	-3.359122	-5.966408	10.002832	-7.355320	0.167860	-0.518840	0.919614	-0.252319	0.279052	-1.000000	-1.000000	-1.000000	-1.000000	-1.000000	-1.000000	-1.000000	65.379310	0.000000	-1.000000	-1.000000	505343.000000	1772738408.167068
7663.860000	-20988.630000	-5681.790000	-860.265000	-7592.220000	-445.680000	244893.780000	25795.035000	-3.308833	9.218353	3.630772	-0.735544	-2.262684	-5.535656	-6.179158	0.843067	-7.355320	0.167860	-0.518840	0.919614	-0.252319	0.279052	-1.000000	-1.000000	-1.000000	-1.000000	-1.000000	-1.000000	-1.000000	65.379310	0.000000	-1.000000	-1.000000	505344.000000	1772738408.167079
7703.055000	-20966.985000	-5669.055000	-850.545000	-7585.020000	-449.505000	244870.290000	25803.765000	-3.065749	12.602585	10.109954	7.096298	3.885730	-0.378011	-5.045957	-13.836808	-7.355320	0.167860	-0.518840	0.919614	-0.252319	0.279052	-1.000000	-1.000000	-1.000000	-1.000000	-1.000000	-1.000000	-1.000000	65.379310	0.000000	-1.000000	-1.000000	505345.000000	1772738408.174951
7700.535000	-20967.975000	-5679.090000	-860.130000	-7588.890000	-463.815000	244867.725000	25802.055000	1.860422	12.499017	15.333226	13.810288	10.124985	6.323105	-1.723191	-21.853892	-7.355320	0.167860	-0.518840	0.919614	-0.252319	0.279052	-1.000000	-1.000000	-1.000000	-1.000000	-1.000000	-1.000000	-1.000000	65.379310	0.000000	-1.000000	-1.000000	505346.000000	1772738408.174959
7681.815000	-20964.735000	-5681.475000	-866.970000	-7600.815000	-483.480000	244851.840000	25787.430000	7.042978	4.352010	12.961852	12.647275	10.214272	8.374146	3.749475	-18.082271	-7.355320	0.167860	-0.518840	0.919614	-0.252319	0.279052	-1.000000	-1.000000	-1.000000	-1.000000	-1.000000	-1.000000	-1.000000	65.379310	0.000000	-1.000000	-1.000000	505347.000000	1772738408.175066
7681.410000	-20954.970000	-5665.545000	-849.240000	-7581.150000	-458.190000	244839.960000	25824.645000	7.288226	-7.166618	4.667162	4.991558	4.691080	5.167116	9.808894	-6.925811	-7.355320	0.167860	-0.518840	0.919614	-0.252319	0.279052	-1.000000	-1.000000	-1.000000	-1.000000	-1.000000	-1.000000	-1.000000	65.379310	0.000000	-1.000000	-1.000000	505348.000000	1772738408.175073
7710.435000	-20935.035000	-5639.895000	-826.110000	-7554.510000	-424.710000	244830.825000	25841.385000	3.659954	-14.244330	-2.794341	-2.649973	-1.344054	0.662640	12.718087	5.700605	-7.355320	0.167860	-0.518840	0.919614	-0.252319	0.279052	-1.000000	-1.000000	-1.000000	-1.000000	-1.000000	-1.000000	-1.000000	65.379310	0.000000	-1.000000	-1.000000	505349.000000	1772738408.179084
7712.235000	-20934.675000	-5645.475000	-827.055000	-7556.715000	-421.515000	244870.110000	25818.705000	1.819646	-13.634043	-5.820608	-6.195393	-4.295226	-1.658438	9.650987	16.101145	-7.355320	0.167860	-0.518840	0.919614	-0.252319	0.279052	-1.000000	-1.000000	-1.000000	-1.000000	-1.000000	-1.000000	-1.000000	65.379310	0.000000	-1.000000	-1.000000	505350.000000	1772738408.179092
7684.920000	-20978.865000	-5684.940000	-854.055000	-7581.960000	-436.365000	244934.685000	25809.930000	2.768304	-8.560249	-7.081317	-7.281710	-5.481614	-2.684222	2.600534	20.354633	-6.546540	3.311420	0.961380	0.921384	-0.257507	0.274352	-1.000000	-1.000000	-1.000000	-1.000000	-1.000000	-1.000000	-1.000000	65.379310	0.000000	-1.000000	-1.000000	505351.000000	1772738408.184261
7672.545000	-21001.230000	-5693.895000	-860.985000	-7586.730000	-441.945000	244954.170000	25834.050000	1.616881	-4.721317	-10.146086	-8.927122	-7.591084	-4.982397	-3.820401	16.049109	-6.546540	3.311420	0.961380	0.921384	-0.257507	0.274352	-1.000000	-1.000000	-1.000000	-1.000000	-1.000000	-1.000000	-1.000000	65.379310	0.000000	-1.000000	-1.000000	505352.000000	1772738408.184270
7672.455000	-21011.130000	-5735.880000	-885.780000	-7606.665000	-464.715000	244935.000000	25836.570000	-4.040160	-4.903908	-14.371829	-11.089830	-10.337801	-8.369884	-7.784469	6.587047	-6.546540	3.311420	0.961380	0.921384	-0.257507	0.274352	-1.000000	-1.000000	-1.000000	-1.000000	-1.000000	-1.000000	-1.000000	65.379310	0.000000	-1.000000	-1.000000	505353.000000	1772738408.187175
7687.710000	-20968.065000	-5705.415000	-863.955000	-7595.595000	-465.525000	244939.230000	25803.315000	-11.103569	-7.310779	-16.546613	-11.845147	-11.612815	-10.512584	-9.760942	-2.326467	-6.546540	3.311420	0.961380	0.921384	-0.257507	0.274352	-1.000000	-1.000000	-1.000000	-1.000000	-1.000000	-1.000000	-1.000000	65.379310	0.000000	-1.000000	-1.000000	505354.000000	1772738408.187184
7685.865000	-20868.975000	-5569.110000	-774.405000	-7534.530000	-427.995000	244905.615000	25762.185000	-14.605284	-5.858346	-11.231487	-7.629245	-8.408955	-8.351466	-9.235587	-9.158653	-6.546540	3.311420	0.961380	0.921384	-0.257507	0.274352	-1.000000	-1.000000	-1.000000	-1.000000	-1.000000	-1.000000	-1.000000	65.379310	0.000000	-1.000000	-1.000000	505355.000000	1772738408.199497
7661.745000	-20920.995000	-5588.505000	-809.190000	-7559.730000	-442.980000	244891.035000	25792.605000	-11.734763	3.878595	5.552595	3.980049	1.141881	-0.309428	-5.965647	-14.383150	-6.546540	3.311420	0.961380	0.921384	-0.257507	0.274352	-1.000000	-1.000000	-1.000000	-1.000000	-1.000000	-1.000000	-1.000000	65.379310	0.000000	-1.000000	-1.000000	505356.000000	1772738408.199507
7647.660000	-21049.425000	-5716.395000	-890.460000	-7607.115000	-467.055000	244893.870000	25802.820000	-4.277947	14.267394	24.237796	15.921307	11.735713	9.041020	-1.212190	-16.003624	-6.546540	3.311420	0.961380	0.921384	-0.257507	0.274352	-1.000000	-1.000000	-1.000000	-1.000000	-1.000000	-1.000000	-1.000000	65.379310	0.000000	-1.000000	-1.000000	505357.000000	1772738408.199519
7716.780000	-20986.335000	-5691.015000	-875.835000	-7606.620000	-469.170000	244903.455000	25829.820000	4.305999	12.804628	26.884275	16.342171	14.025766	11.692264	3.352536	-11.338713	-6.546540	3.311420	0.961380	0.921384	-0.257507	0.274352	-1.000000	-1.000000	-1.000000	-1.000000	-1.000000	-1.000000	-1.000000	65.379310	0.000000	-1.000000	-1.000000	505358.000000	1772738408.199524
7688.880000	-20974.725000	-5697.360000	-876.915000	-7596.090000	-448.155000	244930.185000	25803.810000	12.206495	1.301804	10.278372	4.410623	6.457848	5.877892	5.685810	-0.868430	-6.546540	3.311420	0.961380	0.921384	-0.257507	0.274352	-1.000000	-1.000000	-1.000000	-1.000000	-1.000000	-1.000000	-1.000000	65.379310	0.000000	-1.000000	-1.000000	505359.000000	1772738408.199528
7677.900000	-20994.840000	-5717.790000	-885.375000	-7598.745000	-440.955000	244972.260000	25810.245000	16.850492	-7.063636	-10.944536	-8.897958	-3.070173	-1.944131	4.371351	10.182214	-6.546540	3.311420	0.961380	0.921384	-0.257507	0.274352	-1.000000	-1.000000	-1.000000	-1.000000	-1.000000	-1.000000	-1.000000	65.379310	0.000000	-1.000000	-1.000000	505360.000000	1772738408.199532
7694.460000	-21005.325000	-5714.055000	-881.280000	-7607.070000	-464.670000	244977.885000	25835.355000	15.383343	-5.599809	-21.779602	-13.491889	-6.866416	-5.131795	0.867846	15.697661	-1.938020	4.211760	-0.305200	0.924985	-0.264526	0.273986	-1.000000	-1.000000	-1.000000	-1.000000	-1.000000	-1.000000	-1.000000	65.379310	0.000000	-1.000000	-1.000000	505361.000000	1772738408.203092
7687.305000	-20992.275000	-5681.025000	-863.145000	-7592.895000	-457.245000	244966.545000	25827.255000	8.176044	1.498444	-17.179971	-7.482655	-3.789080	-2.857679	-1.543726	14.267633	-1.938020	4.211760	-0.305200	0.924985	-0.264526	0.273986	-1.000000	-1.000000	-1.000000	-1.000000	-1.000000	-1.000000	-1.000000	65.379310	0.000000	-1.000000	-1.000000	505362.000000	1772738408.203102
7721.460000	-20953.170000	-5650.560000	-832.365000	-7561.170000	-431.595000	244926.450000	25879.230000	-1.566728	6.638652	-2.371802	3.753485	2.520591	1.985096	-1.518823	9.423489	-1.938020	4.211760	-0.305200	0.924985	-0.264526	0.273986	-1.000000	-1.000000	-1.000000	-1.000000	-1.000000	-1.000000	-1.000000	65.379310	0.000000	-1.000000	-1.000000	505363.000000	1772738408.211640
7706.655000	-20990.250000	-5699.340000	-884.565000	-7614.540000	-488.340000	244912.185000	25846.470000	-9.261291	5.230197	10.318390	11.414349	6.731842	5.509743	-0.287494	5.270941	-1.938020	4.211760	-0.305200	0.924985	-0.264526	0.273986	-1.000000	-1.000000	-1.000000	-1.000000	-1.000000	-1.000000	-1.000000	65.379310	0.000000	-1.000000	-1.000000	505364.000000	1772738408.211648
7682.085000	-21000.915000	-5707.215000	-910.215000	-7627.005000	-490.140000	244903.860000	25781.175000	-11.770350	-1.045418	11.807259	9.735050	4.894302	4.120137	0.983810	0.369542	-1.938020	4.211760	-0.305200	0.924985	-0.264526	0.273986	-1.000000	-1.000000	-1.000000	-1.000000	-1.000000	-1.000000	-1.000000	65.379310	0.000000	-1.000000	-1.000000	505365.000000	1772738408.211656
7714.080000	-20939.670000	-5641.290000	-890.550000	-7593.435000	-447.885000	244915.695000	25795.260000	-9.771027	-4.379061	6.495111	1.919202	-0.855623	-1.015504	2.044379	-9.546417	-1.938020	4.211760	-0.305200	0.924985	-0.264526	0.273986	-1.000000	-1.000000	-1.000000	-1.000000	-1.000000	-1.000000	-1.000000	65.379310	0.000000	-1.000000	-1.000000	505366.000000	1772738408.211660
7703.010000	-20942.505000	-5625.495000	-852.705000	-7585.470000	-438.480000	244953.990000	25816.545000	-6.016704	0.205631	4.745538	-3.601546	-4.159003	-4.195968	2.849522	-20.795141	-1.938020	4.211760	-0.305200	0.924985	-0.264526	0.273986	-1.000000	-1.000000	-1.000000	-1.000000	-1.000000	-1.000000	-1.000000	65.379310	0.000000	-1.000000	-1.000000	505367.000000	1772738408.215093
7711.920000	-20974.995000	-5683.275000	-826.155000	-7572.870000	-426.375000	244992.510000	25833.600000	-2.418494	7.338626	7.611261	-2.037262	-2.249224	-2.674131	3.240920	-23.230923	-1.938020	4.211760	-0.305200	0.924985	-0.264526	0.273986	-1.000000	-1.000000	-1.000000	-1.000000	-1.000000	-1.000000	-1.000000	65.379310	0.000000	-1.000000	-1.000000	505368.000000	1772738408.215102
7662.735000	-21014.595000	-5728.770000	-834.615000	-7585.920000	-444.690000	245027.385000	25787.835000	0.406705	8.400726	7.269597	4.587323	2.238950	1.017103	2.899272	-13.514081	-1.938020	4.211760	-0.305200	0.924985	-0.264526	0.273986	-1.000000	-1.000000	-1.000000	-1.000000	-1.000000	-1.000000	-1.000000	65.379310	0.000000	-1.000000	-1.000000	505369.000000	1772738408.218954
7662.510000	-20986.065000	-5709.285000	-874.485000	-7612.020000	-476.325000	245016.405000	25783.200000	1.238894	1.552826	-0.845158	9.205654	4.757837	2.981273	1.891054	0.688338	-1.938020	4.211760	-0.305200	0.924985	-0.264526	0.273986	-1.000000	-1.000000	-1.000000	-1.000000	-1.000000	-1.000000	-1.000000	65.379310	0.000000	-1.000000	-1.000000	505370.000000	1772738408.218962
7660.845000	-20997.090000	-5758.830000	-918.360000	-7626.105000	-489.870000	244999.395000	25813.980000	-0.545438	-8.312502	-13.310122	4.568097	1.854982	0.797414	0.564809	10.780685	-1.022420	4.165980	-2.716280	0.923704	-0.267333	0.272765	-1.000000	-1.000000	-1.000000	-1.000000	-1.000000	-1.000000	-1.000000	65.379310	0.000000	-1.000000	-1.000000	505371.000000	1772738408.229305
7644.780000	-21012.165000	-5769.720000	-898.470000	-7621.380000	-496.845000	244942.335000	25805.025000	-3.093633	-15.991416	-24.109809	-9.305239	-5.760109	-4.718212	-1.269670	14.675506	-1.022420	4.165980	-2.716280	0.923704	-0.267333	0.272765	-1.000000	-1.000000	-1.000000	-1.000000	-1.000000	-1.000000	-1.000000	65.379310	0.000000	-1.000000	-1.000000	505372.000000	1772738408.229314
7636.095000	-20980.440000	-5668.470000	-841.995000	-7580.115000	-455.355000	244921.635000	25761.285000	-3.663278	-17.521342	-25.743169	-21.217320	-11.384829	-8.302231	-4.184230	13.635778	-1.022420	4.165980	-2.716280	0.923704	-0.267333	0.272765	-1.000000	-1.000000	-1.000000	-1.000000	-1.000000	-1.000000	-1.000000	65.379310	0.000000	-1.000000	-1.000000	505373.000000	1772738408.229324
7659.675000	-20948.805000	-5594.670000	-812.115000	-7559.280000	-426.150000	244953.495000	25742.700000	-0.291522	-9.174640	-10.308092	-17.749875	-7.639497	-4.361521	-7.127455	8.941762	-1.022420	4.165980	-2.716280	0.923704	-0.267333	0.272765	-1.000000	-1.000000	-1.000000	-1.000000	-1.000000	-1.000000	-1.000000	65.379310	0.000000	-1.000000	-1.000000	505374.000000	1772738408.229328
7737.120000	-20933.370000	-5630.490000	-829.305000	-7570.665000	-434.565000	244977.615000	25769.025000	7.056606	6.591075	17.418479	0.534116	3.871729	5.273627	-7.079465	2.496820	-1.022420	4.165980	-2.716280	0.923704	-0.267333	0.272765	-1.000000	-1.000000	-1.000000	-1.000000	-1.000000	-1.000000	-1.000000	65.379310	0.000000	-1.000000	-1.000000	505375.000000	1772738408.233514
7750.755000	-20965.455000	-5672.025000	-854.055000	-7583.040000	-435.690000	245020.095000	25791.795000	16.041788	19.561445	37.471294	17.835358	13.037058	12.069107	-2.947440	-2.620964	-1.022420	4.165980	-2.716280	0.923704	-0.267333	0.272765	-1.000000	-1.000000	-1.000000	-1.000000	-1.000000	-1.000000	-1.000000	65.379310	0.000000	-1.000000	-1.000000	505376.000000	1772738408.233524
7704.405000	-20996.595000	-5698.080000	-884.565000	-7612.695000	-463.545000	245070.360000	25833.780000	21.500247	21.435913	35.227508	19.759918	12.021386	9.997534	2.886868	-3.271815	-1.022420	4.165980	-2.716280	0.923704	-0.267333	0.272765	-1.000000	-1.000000	-1.000000	-1.000000	-1.000000	-1.000000	-1.000000	65.379310	0.000000	-1.000000	-1.000000	505377.000000	1772738408.234912
7644.015000	-20995.380000	-5682.690000	-874.350000	-7604.010000	-460.485000	245095.155000	25820.010000	16.893376	12.463595	14.834585	6.637540	2.203215	0.987044	7.680405	1.199954	-1.022420	4.165980	-2.716280	0.923704	-0.267333	0.272765	-1.000000	-1.000000	-1.000000	-1.000000	-1.000000	-1.000000	-1.000000	65.379310	0.000000	-1.000000	-1.000000	505378.000000	1772738408.234920
7635.330000	-20962.395000	-5659.695000	-845.505000	-7579.440000	-450.045000	245074.860000	25816.590000	0.705056	-0.824845	-8.838624	-8.579573	-7.800642	-7.402783	9.894512	6.673228	-1.022420	4.165980	-2.716280	0.923704	-0.267333	0.272765	-1.000000	-1.000000	-1.000000	-1.000000	-1.000000	-1.000000	-1.000000	65.379310	0.000000	-1.000000	-1.000000	505379.000000	1772738408.247686
7682.670000	-20970.720000	-5682.645000	-867.555000	-7604.145000	-486.855000	245031.480000	25826.310000	-18.714594	-11.005590	-23.204750	-13.697485	-10.642850	-9.545681	8.409008	6.971158	-1.022420	4.165980	-2.716280	0.923704	-0.267333	0.272765	-1.000000	-1.000000	-1.000000	-1.000000	-1.000000	-1.000000	-1.000000	65.379310	0.000000	-1.000000	-1.000000	505380.000000	1772738408.247695
7672.410000	-21008.790000	-5712.255000	-902.340000	-7636.950000	-512.505000	245006.235000	25822.035000	-28.348692	-14.676782	-25.333062	-8.771582	-7.269040	-6.913914	3.243887	0.846209	-5.112100	4.883200	-0.122080	0.923215	-0.264526	0.274108	-1.000000	-1.000000	-1.000000	-1.000000	-1.000000	-1.000000	-1.000000	65.379310	0.000000	-1.000000	-1.000000	505381.000000	1772738408.247706
7648.470000	-21035.880000	-5714.820000	-900.045000	-7631.010000	-491.265000	244999.530000	25854.570000	-22.695469	-13.784034	-21.113960	-2.573947	-3.561411	-4.165331	-3.588603	-5.939973	-5.112100	4.883200	-0.122080	0.923215	-0.264526	0.274108	-1.000000	-1.000000	-1.000000	-1.000000	-1.000000	-1.000000	-1.000000	65.379310	0.000000	-1.000000	-1.000000	505382.000000	1772738408.247710
7645.905000	-20979.585000	-5678.730000	-885.330000	-7606.980000	-461.430000	245003.895000	25829.010000	-8.722306	-11.178554	-16.272395	-0.428281	-2.107633	-2.664607	-9.666722	-7.673012	-5.112100	4.883200	-0.122080	0.923215	-0.264526	0.274108	-1.000000	-1.000000	-1.000000	-1.000000	-1.000000	-1.000000	-1.000000	65.379310	0.000000	-1.000000	-1.000000	505383.000000	1772738408.247715
7673.805000	-20961.180000	-5689.215000	-900.315000	-7615.215000	-457.380000	245073.105000	25771.680000	2.664806	-6.036870	-9.664752	-0.501697	-0.698852	-0.287282	-12.684270	-6.598483	-5.112100	4.883200	-0.122080	0.923215	-0.264526	0.274108	-1.000000	-1.000000	-1.000000	-1.000000	-1.000000	-1.000000	-1.000000	65.379310	0.000000	-1.000000	-1.000000	505384.000000	1772738408.247718
7704.945000	-20939.490000	-5677.335000	-879.345000	-7600.725000	-448.965000	245104.695000	25753.230000	7.885818	3.957974	2.428101	1.058548	2.966390	4.237637	-10.458428	-9.299335	-5.112100	4.883200	-0.122080	0.923215	-0.264526	0.274108	-1.000000	-1.000000	-1.000000	-1.000000	-1.000000	-1.000000	-1.000000	65.379310	0.000000	-1.000000	-1.000000	505385.000000	1772738408.253270
7694.640000	-20955.105000	-5711.355000	-874.260000	-7587.855000	-445.680000	245109.105000	25782.930000	11.253430	16.827972	17.987357	5.873669	8.588874	9.491333	-4.031279	-15.525223	-5.112100	4.883200	-0.122080	0.923215	-0.264526	0.274108	-1.000000	-1.000000	-1.000000	-1.000000	-1.000000	-1.000000	-1.000000	65.379310	0.000000	-1.000000	-1.000000	505386.000000	1772738408.253279
7658.910000	-20986.965000	-5721.885000	-865.665000	-7581.465000	-445.815000	245122.695000	25771.635000	15.533351	24.370320	27.929233	11.750059	13.448990	12.690084	2.529316	-17.077391	-5.112100	4.883200	-0.122080	0.923215	-0.264526	0.274108	-1.000000	-1.000000	-1.000000	-1.000000	-1.000000	-1.000000	-1.000000	65.379310	0.000000	-1.000000	-1.000000	505387.000000	1772738408.256079
7672.455000	-20968.110000	-5668.740000	-845.730000	-7584.300000	-464.670000	245088.180000	25781.220000	16.977602	18.871484	25.416941	14.341564	13.662852	11.177440	6.834435	-8.616543	-5.112100	4.883200	-0.122080	0.923215	-0.264526	0.274108	-1.000000	-1.000000	-1.000000	-1.000000	-1.000000	-1.000000	-1.000000	65.379310	0.000000	-1.000000	-1.000000	505388.000000	1772738408.256088
7725.780000	-20954.115000	-5652.630000	-851.355000	-7605.270000	-494.595000	245062.485000	25846.830000	11.914857	3.010575	14.350305	11.602778	7.620033	4.478558	8.869919	7.121220	-5.112100	4.883200	-0.122080	0.923215	-0.264526	0.274108	-1.000000	-1.000000	-1.000000	-1.000000	-1.000000	-1.000000	-1.000000	65.379310	0.000000	-1.000000	-1.000000	505389.000000	1772738408.258916
7712.190000	-20942.190000	-5641.335000	-836.820000	-7582.905000	-461.655000	245051.640000	25837.020000	3.016433	-11.496846	3.290150	5.079553	-1.742865	-4.319970	8.760649	23.480545	-5.112100	4.883200	-0.122080	0.923215	-0.264526	0.274108	-1.000000	-1.000000	-1.000000	-1.000000	-1.000000	-1.000000	-1.000000	65.379310	0.000000	-1.000000	-1.000000	505390.000000	1772738408.258925
7717.320000	-20925.045000	-5616.585000	-802.755000	-7544.610000	-416.655000	245063.205000	25870.140000	-4.755503	-15.951623	-4.345200	-2.206528	-9.087396	-10.277913	6.442030	32.832163	-8.255660	7.660520	1.037680	0.927732	-0.258849	0.274963	-1.000000	-1.000000	-1.000000	-1.000000	-1.000000	-1.000000	-1.000000	65.379310	0.000000	-1.000000	-1.000000	505391.000000	1772738408.278702
7755.930000	-20923.830000	-5627.745000	-821.790000	-7568.280000	-436.680000	245089.980000	25890.255000	-9.396986	-11.854425	-9.800741	-7.872850	-11.303737	-10.804802	2.278869	30.579301	-8.255660	7.660520	1.037680	0.927732	-0.258849	0.274963	-1.000000	-1.000000	-1.000000	-1.000000	-1.000000	-1.000000	-1.000000	65.379310	0.000000	-1.000000	-1.000000	505392.000000	1772738408.278716
7687.710000	-20997.720000	-5706.270000	-898.920000	-7633.800000	-484.965000	245124.720000	25807.680000	-12.124646	-7.077313	-14.835100	-12.281587	-10.513588	-8.435679	-2.912348	17.746872	-8.255660	7.660520	1.037680	0.927732	-0.258849	0.274963	-1.000000	-1.000000	-1.000000	-1.000000	-1.000000	-1.000000	-1.000000	65.379310	0.000000	-1.000000	-1.000000	505393.000000	1772738408.278726
7661.835000	-21018.870000	-5720.490000	-900.720000	-7624.170000	-474.390000	245162.115000	25795.620000	-15.549255	-7.376353	-19.713983	-17.210796	-10.681855	-7.139720	-7.435049	-2.545539	-8.255660	7.660520	1.037680	0.927732	-0.258849	0.274963	-1.000000	-1.000000	-1.000000	-1.000000	-1.000000	-1.000000	-1.000000	65.379310	0.000000	-1.000000	-1.000000	505394.000000	1772738408.278730
7679.610000	-20985.615000	-5691.015000	-872.415000	-7595.145000	-457.110000	245115.495000	25819.245000	-18.179001	-10.249424	-20.937653	-20.376830	-11.022684	-6.343245	-9.394035	-24.124157	-8.255660	7.660520	1.037680	0.927732	-0.258849	0.274963	-1.000000	-1.000000	-1.000000	-1.000000	-1.000000	-1.000000	-1.000000	65.379310	0.000000	-1.000000	-1.000000	505395.000000	1772738408.278735
7688.250000	-20958.480000	-5682.825000	-873.495000	-7600.455000	-473.940000	245083.635000	25776.045000	-13.764063	-7.751774	-13.926394	-16.437888	-7.311107	-2.814361	-9.086368	-37.076130	-8.255660	7.660520	1.037680	0.927732	-0.258849	0.274963	-1.000000	-1.000000	-1.000000	-1.000000	-1.000000	-1.000000	-1.000000	65.379310	0.000000	-1.000000	-1.000000	505396.000000	1772738408.278738
7672.770000	-20956.410000	-5693.355000	-895.230000	-7627.230000	-504.765000	245049.795000	25735.005000	-1.397031	2.925690	-0.577817	-4.982230	0.923616	3.419383	-7.439779	-36.601347	-8.255660	7.660520	1.037680	0.927732	-0.258849	0.274963	-1.000000	-1.000000	-1.000000	-1.000000	-1.000000	-1.000000	-1.000000	65.379310	0.000000	-1.000000	-1.000000	505397.000000	1772738408.278742
7678.080000	-20955.825000	-5655.015000	-880.740000	-7616.925000	-491.805000	245038.905000	25766.235000	11.045547	15.542982	11.881354	8.436439	9.653903	9.233417	-3.592079	-25.989242	-8.255660	7.660520	1.037680	0.927732	-0.258849	0.274963	-1.000000	-1.000000	-1.000000	-1.000000	-1.000000	-1.000000	-1.000000	65.379310	0.000000	-1.000000	-1.000000	505398.000000	1772738408.278746
7716.510000	-20958.165000	-5675.445000	-878.445000	-7611.705000	-477.855000	245072.655000	25836.660000	17.196449	21.693853	18.150781	17.883769	14.552198	11.523247	3.126793	-8.606250	-8.255660	7.660520	1.037680	0.927732	-0.258849	0.274963	-1.000000	-1.000000	-1.000000	-1.000000	-1.000000	-1.000000	-1.000000	65.379310	0.000000	-1.000000	-1.000000	505399.000000	1772738408.279226
7726.770000	-20963.025000	-5685.210000	-855.000000	-7595.010000	-455.670000	245134.260000	25850.025000	17.465944	17.330482	16.177550	20.190537	13.455296	8.901600	11.614617	13.165283	-8.255660	7.660520	1.037680	0.927732	-0.258849	0.274963	-1.000000	-1.000000	-1.000000	-1.000000	-1.000000	-1.000000	-1.000000	65.379310	0.000000	-1.000000	-1.000000	505400.000000	1772738408.279233
7711.380000	-20969.820000	-5645.880000	-822.825000	-7561.890000	-417.285000	245172.645000	25857.270000	13.460243	4.992796	8.478092	16.999824	8.729367	4.093289	18.765048	32.732693	-11.368700	7.767340	-0.976640	0.928159	-0.259033	0.274657	-1.000000	-1.000000	-1.000000	-1.000000	-1.000000	-1.000000	-1.000000	65.379310	0.000000	-1.000000	-1.000000	505401.000000	1772738408.291422
7699.905000	-20975.895000	-5659.965000	-839.250000	-7573.005000	-431.415000	245200.635000	25847.955000	6.300668	-7.174744	2.702851	13.218692	5.676818	2.081772	19.848321	42.130631	-11.368700	7.767340	-0.976640	0.928159	-0.259033	0.274657	-1.000000	-1.000000	-1.000000	-1.000000	-1.000000	-1.000000	-1.000000	65.379310	0.000000	-1.000000	-1.000000	505402.000000	1772738408.291457
7691.490000	-20969.325000	-5666.940000	-857.520000	-7595.280000	-461.340000	245205.720000	25794.900000	-1.130101	-11.844125	2.847165	9.642396	4.761841	2.657373	12.340114	36.423936	-11.368700	7.767340	-0.976640	0.928159	-0.259033	0.274657	-1.000000	-1.000000	-1.000000	-1.000000	-1.000000	-1.000000	-1.000000	65.379310	0.000000	-1.000000	-1.000000	505403.000000	1772738408.291491
7685.775000	-20960.775000	-5671.080000	-867.870000	-7608.870000	-484.200000	245223.630000	25761.060000	-6.309461	-8.845969	4.238698	2.171784	0.823407	0.383488	-0.000794	15.161112	-11.368700	7.767340	-0.976640	0.928159	-0.259033	0.274657	-1.000000	-1.000000	-1.000000	-1.000000	-1.000000	-1.000000	-1.000000	65.379310	0.000000	-1.000000	-1.000000	505404.000000	1772738408.291511
7654.005000	-20987.055000	-5701.905000	-892.260000	-7622.460000	-501.480000	245137.860000	25761.780000	-9.320610	-3.826251	0.689908	-10.136748	-7.928295	-6.502526	-10.500488	-13.269484	-11.368700	7.767340	-0.976640	0.928159	-0.259033	0.274657	-1.000000	-1.000000	-1.000000	-1.000000	-1.000000	-1.000000	-1.000000	65.379310	0.000000	-1.000000	-1.000000	505405.000000	1772738408.291533
7653.285000	-21004.290000	-5702.490000	-886.095000	-7609.455000	-480.420000	245093.580000	25761.195000	-11.249175	-2.142117	-8.383800	-21.653796	-15.993245	-12.653300	-16.727806	-33.922110	-11.368700	7.767340	-0.976640	0.928159	-0.259033	0.274657	-1.000000	-1.000000	-1.000000	-1.000000	-1.000000	-1.000000	-1.000000	65.379310	0.000000	-1.000000	-1.000000	505406.000000	1772738408.291551
7692.435000	-20967.840000	-5675.220000	-863.370000	-7593.660000	-464.265000	245112.255000	25785.855000	-11.184346	-3.762644	-17.427384	-25.030717	-16.786139	-12.164613	-19.394375	-37.366037	-11.368700	7.767340	-0.976640	0.928159	-0.259033	0.274657	-1.000000	-1.000000	-1.000000	-1.000000	-1.000000	-1.000000	-1.000000	65.379310	0.000000	-1.000000	-1.000000	505407.000000	1772738408.295456
7706.835000	-20973.015000	-5682.690000	-867.375000	-7594.155000	-457.515000	245175.030000	25824.105000	-6.984666	-4.234685	-19.316501	-17.842759	-9.682778	-5.425597	-17.284148	-25.420304	-11.368700	7.767340	-0.976640	0.928159	-0.259033	0.274657	-1.000000	-1.000000	-1.000000	-1.000000	-1.000000	-1.000000	-1.000000	65.379310	0.000000	-1.000000	-1.000000	505408.000000	1772738408.295462
7697.205000	-20957.670000	-5692.815000	-851.220000	-7571.115000	-427.230000	245241.315000	25813.080000	0.407569	-0.842631	-11.960521	-4.494087	0.394577	2.479508	-8.819336	-6.343649	-11.368700	7.767340	-0.976640	0.928159	-0.259033	0.274657	-1.000000	-1.000000	-1.000000	-1.000000	-1.000000	-1.000000	-1.000000	65.379310	0.000000	-1.000000	-1.000000	505409.000000	1772738408.301458
7680.330000	-20965.320000	-5736.735000	-877.320000	-7593.570000	-448.065000	245275.245000	25795.395000	7.081906	5.159866	-0.385435	8.009672	8.156350	7.374374	3.779523	10.959744	-11.368700	7.767340	-0.976640	0.928159	-0.259033	0.274657	-1.000000	-1.000000	-1.000000	-1.000000	-1.000000	-1.000000	-1.000000	65.379310	0.000000	-1.000000	-1.000000	505410.000000	1772738408.301464
7666.380000	-21010.635000	-5731.290000	-897.840000	-7620.525000	-480.600000	245279.655000	25784.955000	10.153873	9.985050	8.619518	14.599849	10.512510	7.547419	14.451858	20.461321	-9.156000	6.073480	-2.075360	0.919797	-0.250244	0.274230	-1.000000	-1.000000	-1.000000	-1.000000	-1.000000	-1.000000	-1.000000	65.379310	0.000000	-1.000000	-1.000000	505411.000000	1772738408.302856
7680.195000	-21019.050000	-5661.585000	-885.420000	-7621.380000	-483.390000	245279.160000	25824.330000	9.319423	8.995334	13.298572	14.116729	7.233246	3.692123	17.597625	21.669894	-9.156000	6.073480	-2.075360	0.919797	-0.250244	0.274230	-1.000000	-1.000000	-1.000000	-1.000000	-1.000000	-1.000000	-1.000000	65.379310	0.000000	-1.000000	-1.000000	505412.000000	1772738408.302864
7693.335000	-20988.315000	-5659.515000	-881.370000	-7616.520000	-489.690000	245223.090000	25830.945000	6.476259	1.860968	16.283173	9.496246	1.634397	-0.740771	12.187878	18.631483	-9.156000	6.073480	-2.075360	0.919797	-0.250244	0.274230	-1.000000	-1.000000	-1.000000	-1.000000	-1.000000	-1.000000	-1.000000	65.379310	0.000000	-1.000000	-1.000000	505413.000000	1772738408.306974
7656.570000	-21001.635000	-5698.080000	-904.095000	-7633.080000	-508.050000	245200.185000	25786.035000	3.611435	-5.395314	17.509513	4.671695	-1.971503	-2.400729	2.363403	13.531117	-9.156000	6.073480	-2.075360	0.919797	-0.250244	0.274230	-1.000000	-1.000000	-1.000000	-1.000000	-1.000000	-1.000000	-1.000000	65.379310	0.000000	-1.000000	-1.000000	505414.000000	1772738408.306983
7667.910000	-20982.330000	-5676.885000	-883.080000	-7608.915000	-477.315000	245215.080000	25774.020000	0.308233	-7.151850	13.039335	1.050535	-2.165761	-1.228809	-5.212418	4.071706	-9.156000	6.073480	-2.075360	0.919797	-0.250244	0.274230	-1.000000	-1.000000	-1.000000	-1.000000	-1.000000	-1.000000	-1.000000	65.379310	0.000000	-1.000000	-1.000000	505415.000000	1772738408.314279
7703.550000	-20964.915000	-5659.065000	-880.065000	-7589.070000	-450.945000	245233.485000	25755.435000	-4.136726	-3.433833	2.210339	-1.770678	-0.139566	1.058445	-6.977492	-10.697320	-9.156000	6.073480	-2.075360	0.919797	-0.250244	0.274230	-1.000000	-1.000000	-1.000000	-1.000000	-1.000000	-1.000000	-1.000000	65.379310	0.000000	-1.000000	-1.000000	505416.000000	1772738408.314286
7711.740000	-20959.200000	-5643.090000	-856.980000	-7577.145000	-432.585000	245264.040000	25813.935000	-7.766262	2.102096	-9.313408	-3.725908	2.450519	3.194964	-5.545690	-25.128111	-9.156000	6.073480	-2.075360	0.919797	-0.250244	0.274230	-1.000000	-1.000000	-1.000000	-1.000000	-1.000000	-1.000000	-1.000000	65.379310	0.000000	-1.000000	-1.000000	505417.000000	1772738408.314885
7659.270000	-20972.070000	-5656.230000	-839.880000	-7576.650000	-426.375000	245329.290000	25845.030000	-8.481545	5.592960	-15.009603	-3.878360	3.880005	4.012875	-4.818391	-28.776637	-9.156000	6.073480	-2.075360	0.919797	-0.250244	0.274230	-1.000000	-1.000000	-1.000000	-1.000000	-1.000000	-1.000000	-1.000000	65.379310	0.000000	-1.000000	-1.000000	505418.000000	1772738408.314890
7722.810000	-20952.720000	-5662.935000	-829.215000	-7576.380000	-440.505000	245353.860000	25820.145000	-5.876457	5.567434	-12.985676	-1.269414	3.358858	2.948619	-4.475026	-16.314378	-9.156000	6.073480	-2.075360	0.919797	-0.250244	0.274230	-1.000000	-1.000000	-1.000000	-1.000000	-1.000000	-1.000000	-1.000000	65.379310	0.000000	-1.000000	-1.000000	505419.000000	1772738408.323255
7727.130000	-20961.585000	-5658.480000	-846.315000	-7604.955000	-478.665000	245344.950000	25761.150000	0.394430	3.822145	-6.650421	3.061507	1.514250	0.498056	-2.373082	3.982957	-9.156000	6.073480	-2.075360	0.919797	-0.250244	0.274230	-1.000000	-1.000000	-1.000000	-1.000000	-1.000000	-1.000000	-1.000000	65.379310	0.000000	-1.000000	-1.000000	505420.000000	1772738408.323265
7636.005000	-21039.975000	-5737.455000	-906.525000	-7652.520000	-519.750000	245334.285000	25765.740000	7.009905	0.865911	-2.900168	4.483969	-1.891532	-3.310486	1.276776	17.205102	-6.241340	6.516020	-0.961380	0.919736	-0.273193	0.273071	-1.000000	-1.000000	-1.000000	-1.000000	-1.000000	-1.000000	-1.000000	65.379310	0.000000	-1.000000	-1.000000	505421.000000	1772738408.323471
7609.050000	-21039.795000	-5750.730000	-915.480000	-7635.105000	-507.240000	245272.995000	25777.125000	6.427714	-5.712916	-6.237868	-0.980492	-7.033185	-7.768230	4.723940	17.097297	-6.241340	6.516020	-0.961380	0.919736	-0.273193	0.273071	-1.000000	-1.000000	-1.000000	-1.000000	-1.000000	-1.000000	-1.000000	65.379310	0.000000	-1.000000	-1.000000	505422.000000	1772738408.323476
7678.215000	-20982.645000	-5691.780000	-907.740000	-7616.835000	-489.015000	245243.700000	25812.540000	-1.507986	-13.328995	-11.470683	-10.111096	-10.456175	-9.446365	5.913885	10.074686	-6.241340	6.516020	-0.961380	0.919736	-0.273193	0.273071	-1.000000	-1.000000	-1.000000	-1.000000	-1.000000	-1.000000	-1.000000	65.379310	0.000000	-1.000000	-1.000000	505423.000000	1772738408.331855
7759.980000	-20944.800000	-5674.050000	-885.240000	-7619.805000	-489.915000	245275.110000	25848.180000	-6.442427	-13.700588	-8.805287	-15.006888	-8.527929	-6.177814	3.495331	5.510958	-6.241340	6.516020	-0.961380	0.919736	-0.273193	0.273071	-1.000000	-1.000000	-1.000000	-1.000000	-1.000000	-1.000000	-1.000000	65.379310	0.000000	-1.000000	-1.000000	505424.000000	1772738408.331864
7741.980000	-20960.865000	-5673.600000	-853.155000	-7588.395000	-456.840000	245290.275000	25825.995000	-1.816472	-4.299598	3.129262	-10.990854	-2.351434	-0.304045	-1.181617	5.429254	-6.241340	6.516020	-0.961380	0.919736	-0.273193	0.273071	-1.000000	-1.000000	-1.000000	-1.000000	-1.000000	-1.000000	-1.000000	65.379310	0.000000	-1.000000	-1.000000	505425.000000	1772738408.331874
7649.055000	-21014.100000	-5713.515000	-868.275000	-7586.955000	-442.845000	245327.130000	25772.535000	5.969129	7.158756	15.735141	-0.234160	4.532220	4.900159	-5.412350	3.303588	-6.241340	6.516020	-0.961380	0.919736	-0.273193	0.273071	-1.000000	-1.000000	-1.000000	-1.000000	-1.000000	-1.000000	-1.000000	65.379310	0.000000	-1.000000	-1.000000	505426.000000	1772738408.331878
7617.195000	-21021.840000	-5712.930000	-880.470000	-7601.625000	-456.030000	245356.830000	25748.280000	6.269050	11.318913	20.265985	9.922533	9.027891	7.825956	-7.487519	-6.534040	-6.241340	6.516020	-0.961380	0.919736	-0.273193	0.273071	-1.000000	-1.000000	-1.000000	-1.000000	-1.000000	-1.000000	-1.000000	65.379310	0.000000	-1.000000	-1.000000	505427.000000	1772738408.334868
7672.410000	-20973.555000	-5673.330000	-880.290000	-7613.460000	-477.495000	245355.255000	25790.760000	-2.488517	7.271463	15.856302	13.386596	9.287475	7.945617	-6.500916	-18.553975	-6.241340	6.516020	-0.961380	0.919736	-0.273193	0.273071	-1.000000	-1.000000	-1.000000	-1.000000	-1.000000	-1.000000	-1.000000	65.379310	0.000000	-1.000000	-1.000000	505428.000000	1772738408.334876
7656.525000	-20966.805000	-5672.340000	-882.045000	-7614.900000	-484.875000	245345.670000	25788.600000	-11.217589	2.506784	8.029411	10.467412	6.222400	6.001441	-2.412853	-20.437838	-6.241340	6.516020	-0.961380	0.919736	-0.273193	0.273071	-1.000000	-1.000000	-1.000000	-1.000000	-1.000000	-1.000000	-1.000000	65.379310	0.000000	-1.000000	-1.000000	505429.000000	1772738408.339388
7653.600000	-20957.940000	-5669.955000	-875.520000	-7613.280000	-497.790000	245303.145000	25802.325000	-10.338216	3.427600	2.205749	5.996206	2.885057	3.570295	3.382722	-8.293675	-6.241340	6.516020	-0.961380	0.919736	-0.273193	0.273071	-1.000000	-1.000000	-1.000000	-1.000000	-1.000000	-1.000000	-1.000000	65.379310	0.000000	-1.000000	-1.000000	505430.000000	1772738408.339411
7731.135000	-20963.520000	-5677.515000	-880.830000	-7615.440000	-496.575000	245278.800000	25844.895000	1.551171	8.164457	-0.343686	3.575361	0.821134	1.097930	8.769432	9.684748	-2.258480	9.629060	0.396760	0.929624	-0.275268	0.273071	-1.000000	-1.000000	-1.000000	-1.000000	-1.000000	-1.000000	-1.000000	65.379310	0.000000	-1.000000	-1.000000	505431.000000	1772738408.342991
7695.720000	-20969.100000	-5674.095000	-872.190000	-7603.695000	-481.050000	245284.065000	25804.890000	16.003210	8.760672	-2.989284	2.291948	-1.124898	-2.041250	11.635402	21.846044	-2.258480	9.629060	0.396760	0.929624	-0.275268	0.273071	-1.000000	-1.000000	-1.000000	-1.000000	-1.000000	-1.000000	-1.000000	65.379310	0.000000	-1.000000	-1.000000	505432.000000	1772738408.342999
7653.195000	-20947.365000	-5637.690000	-840.555000	-7565.715000	-437.355000	245281.095000	25782.255000	19.159957	0.550025	-8.379214	-0.400925	-3.458658	-5.004879	9.885689	19.957256	-2.258480	9.629060	0.396760	0.929624	-0.275268	0.273071	-1.000000	-1.000000	-1.000000	-1.000000	-1.000000	-1.000000	-1.000000	65.379310	0.000000	-1.000000	-1.000000	505433.000000	1772738408.346947
7671.420000	-20936.835000	-5634.360000	-853.785000	-7570.710000	-428.445000	245346.660000	25781.805000	6.134290	-11.081350	-13.153934	-4.747962	-4.901064	-5.800684	3.490901	5.072615	-2.258480	9.629060	0.396760	0.929624	-0.275268	0.273071	-1.000000	-1.000000	-1.000000	-1.000000	-1.000000	-1.000000	-1.000000	65.379310	0.000000	-1.000000	-1.000000	505434.000000	1772738408.346968
7694.010000	-20979.045000	-5715.315000	-909.315000	-7627.050000	-478.755000	245404.035000	25832.430000	-10.157177	-16.613403	-13.191919	-9.634426	-5.641915	-4.945141	-3.436458	-10.837304	-2.258480	9.629060	0.396760	0.929624	-0.275268	0.273071	-1.000000	-1.000000	-1.000000	-1.000000	-1.000000	-1.000000	-1.000000	65.379310	0.000000	-1.000000	-1.000000	505435.000000	1772738408.350929
7702.110000	-21025.845000	-5745.555000	-900.630000	-7627.860000	-485.595000	245414.160000	25847.505000	-14.427386	-14.082239	-10.545068	-13.653169	-7.064363	-4.807268	-6.256519	-15.042132	-2.258480	9.629060	0.396760	0.929624	-0.275268	0.273071	-1.000000	-1.000000	-1.000000	-1.000000	-1.000000	-1.000000	-1.000000	65.379310	0.000000	-1.000000	-1.000000	505436.000000	1772738408.350937
7723.395000	-21015.405000	-5704.515000	-880.515000	-7609.635000	-474.840000	245404.170000	25853.940000	-6.341554	-9.185778	-8.799469	-13.609838	-7.510669	-4.677988	-4.619184	-6.238271	-2.258480	9.629060	0.396760	0.929624	-0.275268	0.273071	-1.000000	-1.000000	-1.000000	-1.000000	-1.000000	-1.000000	-1.000000	65.379310	0.000000	-1.000000	-1.000000	505437.000000	1772738408.360304
7718.400000	-20985.255000	-5739.885000	-891.495000	-7610.310000	-486.405000	245379.600000	25834.860000	4.735400	-4.795465	-6.441903	-6.797976	-3.567975	-1.571391	-1.493654	5.816530	-2.258480	9.629060	0.396760	0.929624	-0.275268	0.273071	-1.000000	-1.000000	-1.000000	-1.000000	-1.000000	-1.000000	-1.000000	65.379310	0.000000	-1.000000	-1.000000	505438.000000	1772738408.360311
7699.770000	-20995.695000	-5759.505000	-920.520000	-7639.965000	-517.680000	245325.510000	25806.690000	10.761464	1.271869	-0.954393	4.039811	3.797805	3.880726	0.395787	10.161193	-2.258480	9.629060	0.396760	0.929624	-0.275268	0.273071	-1.000000	-1.000000	-1.000000	-1.000000	-1.000000	-1.000000	-1.000000	65.379310	0.000000	-1.000000	-1.000000	505439.000000	1772738408.360320
7695.720000	-20983.410000	-5679.855000	-895.275000	-7622.190000	-493.785000	245318.310000	25820.280000	7.145221	8.901137	7.059227	12.404576	9.253907	7.388589	-0.087623	3.158398	-2.258480	9.629060	0.396760	0.929624	-0.275268	0.273071	-1.000000	-1.000000	-1.000000	-1.000000	-1.000000	-1.000000	-1.000000	65.379310	0.000000	-1.000000	-1.000000	505440.000000	1772738408.360324
7704.135000	-20949.750000	-5608.485000	-856.890000	-7581.780000	-447.930000	245336.445000	25843.815000	-4.389595	14.538146	16.616954	14.799388	9.744434	6.949051	-2.297999	-8.394496	-1.464960	8.423520	-3.128300	0.931943	-0.270019	0.271728	-1.000000	-1.000000	-1.000000	-1.000000	-1.000000	-1.000000	-1.000000	65.379310	0.000000	-1.000000	-1.000000	505441.000000	1772738408.366267
7677.540000	-20958.525000	-5650.965000	-859.545000	-7592.895000	-455.895000	245350.170000	25761.825000	-15.086501	15.465384	24.599344	12.019185	6.423501	3.974963	-4.319958	-14.651000	-1.464960	8.423520	-3.128300	0.931943	-0.270019	0.271728	-1.000000	-1.000000	-1.000000	-1.000000	-1.000000	-1.000000	-1.000000	65.379310	0.000000	-1.000000	-1.000000	505442.000000	1772738408.366276
7672.905000	-20972.070000	-5674.815000	-858.285000	-7602.930000	-469.620000	245397.510000	25747.560000	-17.353790	11.224287	24.170732	6.378290	1.427881	-0.181514	-5.090440	-13.657280	-1.464960	8.423520	-3.128300	0.931943	-0.270019	0.271728	-1.000000	-1.000000	-1.000000	-1.000000	-1.000000	-1.000000	-1.000000	65.379310	0.000000	-1.000000	-1.000000	505443.000000	1772738408.367139
7694.910000	-20968.695000	-5660.415000	-854.685000	-7598.115000	-468.630000	245445.795000	25811.820000	-10.408733	4.220166	13.501880	1.086902	-2.483025	-3.723569	-4.361401	-8.579097	-1.464960	8.423520	-3.128300	0.931943	-0.270019	0.271728	-1.000000	-1.000000	-1.000000	-1.000000	-1.000000	-1.000000	-1.000000	65.379310	0.000000	-1.000000	-1.000000	505444.000000	1772738408.367156
7684.965000	-20958.840000	-5648.760000	-848.430000	-7580.745000	-452.385000	245434.680000	25806.645000	1.097940	-1.421140	-0.897482	-1.737702	-2.703510	-3.835508	-1.354643	-0.350939	-1.464960	8.423520	-3.128300	0.931943	-0.270019	0.271728	-1.000000	-1.000000	-1.000000	-1.000000	-1.000000	-1.000000	-1.000000	65.379310	0.000000	-1.000000	-1.000000	505445.000000	1772738408.370954
7660.260000	-20990.115000	-5684.715000	-881.370000	-7608.105000	-481.545000	245427.840000	25795.620000	10.213331	-4.493126	-12.991914	-3.519791	-0.264422	-0.461239	3.544821	9.426162	-1.464960	8.423520	-3.128300	0.931943	-0.270019	0.271728	-1.000000	-1.000000	-1.000000	-1.000000	-1.000000	-1.000000	-1.000000	65.379310	0.000000	-1.000000	-1.000000	505446.000000	1772738408.370962
7677.945000	-21007.440000	-5717.205000	-919.170000	-7653.375000	-536.580000	245398.905000	25802.955000	12.835622	-7.689526	-20.929232	-6.805032	0.484767	2.294441	8.217900	16.487888	-1.464960	8.423520	-3.128300	0.931943	-0.270019	0.271728	-1.000000	-1.000000	-1.000000	-1.000000	-1.000000	-1.000000	-1.000000	65.379310	0.000000	-1.000000	-1.000000	505447.000000	1772738408.376362
7704.945000	-20975.760000	-5689.395000	-891.225000	-7627.455000	-509.670000	245375.370000	25818.570000	10.690753	-11.750562	-23.495026	-10.846600	-2.605259	1.039046	10.641410	18.062771	-1.464960	8.423520	-3.128300	0.931943	-0.270019	0.271728	-1.000000	-1.000000	-1.000000	-1.000000	-1.000000	-1.000000	-1.000000	65.379310	0.000000	-1.000000	-1.000000	505448.000000	1772738408.376370
7729.830000	-20938.770000	-5654.655000	-856.170000	-7586.370000	-460.620000	245397.195000	25833.105000	7.816652	-12.698309	-20.013191	-11.651406	-6.240741	-2.353223	9.493050	14.205296	-1.464960	8.423520	-3.128300	0.931943	-0.270019	0.271728	-1.000000	-1.000000	-1.000000	-1.000000	-1.000000	-1.000000	-1.000000	65.379310	0.000000	-1.000000	-1.000000	505449.000000	1772738408.384897
7764.210000	-20886.165000	-5610.735000	-813.195000	-7548.345000	-423.765000	245411.235000	25828.605000	6.681694	-7.003114	-11.530451	-6.674534	-5.837969	-3.503866	4.765715	6.832830	-1.464960	8.423520	-3.128300	0.931943	-0.270019	0.271728	-1.000000	-1.000000	-1.000000	-1.000000	-1.000000	-1.000000	-1.000000	65.379310	0.000000	-1.000000	-1.000000	505450.000000	1772738408.384904
7720.470000	-20907.405000	-5620.275000	-823.860000	-7558.155000	-427.590000	245474.100000	25753.545000	6.793085	3.719212	0.620722	2.332107	-0.657369	-0.782184	-1.526119	-1.339844	-4.410140	5.081580	-5.157880	0.924070	-0.261718	0.269836	-1.000000	-1.000000	-1.000000	-1.000000	-1.000000	-1.000000	-1.000000	65.379310	0.000000	-1.000000	-1.000000	505451.000000	1772738408.385106
7698.735000	-20947.860000	-5645.115000	-855.495000	-7590.330000	-458.145000	245503.035000	25748.280000	4.292251	12.918294	13.679495	10.251069	5.660780	3.502204	-6.717582	-9.382790	-4.410140	5.081580	-5.157880	0.924070	-0.261718	0.269836	-1.000000	-1.000000	-1.000000	-1.000000	-1.000000	-1.000000	-1.000000	65.379310	0.000000	-1.000000	-1.000000	505452.000000	1772738408.385113
7675.380000	-20972.790000	-5660.640000	-853.380000	-7583.580000	-456.435000	245484.630000	25755.660000	-4.181048	13.596228	21.483036	11.890664	8.095156	5.376076	-9.823565	-17.167084	-4.410140	5.081580	-5.157880	0.924070	-0.261718	0.269836	-1.000000	-1.000000	-1.000000	-1.000000	-1.000000	-1.000000	-1.000000	65.379310	0.000000	-1.000000	-1.000000	505453.000000	1772738408.390189
7675.155000	-20981.475000	-5672.520000	-884.745000	-7598.070000	-467.415000	245492.910000	25816.230000	-15.837536	4.669183	18.779004	6.190499	4.658904	2.907082	-10.879490	-20.607458	-4.410140	5.081580	-5.157880	0.924070	-0.261718	0.269836	-1.000000	-1.000000	-1.000000	-1.000000	-1.000000	-1.000000	-1.000000	65.379310	0.000000	-1.000000	-1.000000	505454.000000	1772738408.390197
7684.335000	-20967.975000	-5679.810000	-947.565000	-7647.255000	-516.645000	245448.000000	25829.775000	-22.549638	-7.153553	7.699318	-3.347654	-2.257210	-2.176700	-9.155638	-13.739219	-4.410140	5.081580	-5.157880	0.924070	-0.261718	0.269836	-1.000000	-1.000000	-1.000000	-1.000000	-1.000000	-1.000000	-1.000000	65.379310	0.000000	-1.000000	-1.000000	505455.000000	1772738408.391479
7665.930000	-20969.145000	-5673.465000	-924.210000	-7646.040000	-519.705000	245412.135000	25802.640000	-18.986289	-13.149726	-3.584441	-11.205381	-8.301273	-6.410527	-4.700249	1.791659	-4.410140	5.081580	-5.157880	0.924070	-0.261718	0.269836	-1.000000	-1.000000	-1.000000	-1.000000	-1.000000	-1.000000	-1.000000	65.379310	0.000000	-1.000000	-1.000000	505456.000000	1772738408.391486
7640.235000	-21019.500000	-5749.065000	-913.770000	-7639.335000	-509.130000	245410.155000	25794.855000	-8.527362	-11.399950	-10.580750	-12.669331	-10.250050	-7.662323	0.590090	15.161340	-4.410140	5.081580	-5.157880	0.924070	-0.261718	0.269836	-1.000000	-1.000000	-1.000000	-1.000000	-1.000000	-1.000000	-1.000000	65.379310	0.000000	-1.000000	-1.000000	505457.000000	1772738408.398133
7675.965000	-21005.505000	-5748.615000	-877.545000	-7609.545000	-486.000000	245422.935000	25802.955000	1.659280	-7.536339	-16.122766	-7.282533	-7.975888	-6.569655	4.577517	17.398234	-4.410140	5.081580	-5.157880	0.924070	-0.261718	0.269836	-1.000000	-1.000000	-1.000000	-1.000000	-1.000000	-1.000000	-1.000000	65.379310	0.000000	-1.000000	-1.000000	505458.000000	1772738408.398143
7667.460000	-21002.265000	-5678.640000	-833.760000	-7573.185000	-442.305000	245482.920000	25750.845000	8.620567	-5.542957	-20.105091	1.768072	-2.794361	-3.997194	6.551547	9.569602	-4.410140	5.081580	-5.157880	0.924070	-0.261718	0.269836	-1.000000	-1.000000	-1.000000	-1.000000	-1.000000	-1.000000	-1.000000	65.379310	0.000000	-1.000000	-1.000000	505459.000000	1772738408.399029
7638.435000	-21008.250000	-5649.255000	-834.525000	-7563.015000	-418.140000	245535.120000	25708.185000	13.100467	-2.850187	-14.645180	11.375396	4.931450	1.514155	7.263759	-1.191836	-4.410140	5.081580	-5.157880	0.924070	-0.261718	0.269836	-1.000000	-1.000000	-1.000000	-1.000000	-1.000000	-1.000000	-1.000000	65.379310	0.000000	-1.000000	-1.000000	505460.000000	1772738408.399037
7643.790000	-20998.665000	-5681.565000	-867.375000	-7594.695000	-455.220000	245548.665000	25769.340000	15.205739	4.409983	3.276685	17.978581	13.307984	9.881381	7.289019	-8.518212	-7.217980	2.060100	-3.082520	0.919614	-0.260070	0.274474	-1.000000	-1.000000	-1.000000	-1.000000	-1.000000	-1.000000	-1.000000	65.379310	0.000000	-1.000000	-1.000000	505461.000000	1772738408.402941
7686.810000	-20980.530000	-5684.985000	-872.865000	-7606.800000	-477.090000	245533.905000	25834.770000	14.906049	15.428869	23.362042	17.081532	16.809900	15.413694	6.253925	-8.306701	-7.217980	2.060100	-3.082520	0.919614	-0.260070	0.274474	-1.000000	-1.000000	-1.000000	-1.000000	-1.000000	-1.000000	-1.000000	65.379310	0.000000	-1.000000	-1.000000	505462.000000	1772738408.402948
7705.755000	-20965.005000	-5664.510000	-861.975000	-7599.600000	-481.770000	245476.755000	25836.345000	13.447955	24.632072	32.620046	8.726670	12.118317	12.748628	3.016433	-0.731169	-7.217980	2.060100	-3.082520	0.919614	-0.260070	0.274474	-1.000000	-1.000000	-1.000000	-1.000000	-1.000000	-1.000000	-1.000000	65.379310	0.000000	-1.000000	-1.000000	505463.000000	1772738408.406967
7726.455000	-20935.890000	-5641.335000	-855.630000	-7595.640000	-482.220000	245447.910000	25814.655000	11.132591	26.144601	27.679909	-0.604739	3.333035	4.362566	-2.709333	7.681921	-7.217980	2.060100	-3.082520	0.919614	-0.260070	0.274474	-1.000000	-1.000000	-1.000000	-1.000000	-1.000000	-1.000000	-1.000000	65.379310	0.000000	-1.000000	-1.000000	505464.000000	1772738408.406975
7688.790000	-20953.800000	-5639.175000	-866.520000	-7604.595000	-487.890000	245454.885000	25786.530000	6.177622	18.014050	13.737890	-6.042735	-3.656615	-3.513273	-7.857501	9.505997	-7.217980	2.060100	-3.082520	0.919614	-0.260070	0.274474	-1.000000	-1.000000	-1.000000	-1.000000	-1.000000	-1.000000	-1.000000	65.379310	0.000000	-1.000000	-1.000000	505465.000000	1772738408.410950
7673.760000	-20999.925000	-5703.525000	-910.530000	-7625.340000	-490.320000	245468.295000	25876.260000	-3.173159	2.256214	-2.890714	-9.887077	-8.288589	-8.651039	-8.389978	4.269211	-7.217980	2.060100	-3.082520	0.919614	-0.260070	0.274474	-1.000000	-1.000000	-1.000000	-1.000000	-1.000000	-1.000000	-1.000000	65.379310	0.000000	-1.000000	-1.000000	505466.000000	1772738408.410957
7646.220000	-20991.105000	-5744.115000	-887.535000	-7600.815000	-457.290000	245486.385000	25831.305000	-15.983593	-16.646826	-19.305736	-15.900220	-12.788092	-11.921007	-4.300061	-1.784426	-7.217980	2.060100	-3.082520	0.919614	-0.260070	0.274474	-1.000000	-1.000000	-1.000000	-1.000000	-1.000000	-1.000000	-1.000000	65.379310	0.000000	-1.000000	-1.000000	505467.000000	1772738408.415092
7649.190000	-20967.480000	-5751.990000	-879.120000	-7576.110000	-425.835000	245530.620000	25755.255000	-26.763529	-30.913694	-33.745603	-21.661950	-15.893083	-12.585792	0.371769	-4.441060	-7.217980	2.060100	-3.082520	0.919614	-0.260070	0.274474	-1.000000	-1.000000	-1.000000	-1.000000	-1.000000	-1.000000	-1.000000	65.379310	0.000000	-1.000000	-1.000000	505468.000000	1772738408.415102
7706.880000	-20942.505000	-5710.230000	-881.730000	-7582.950000	-440.775000	245561.445000	25780.050000	-26.979706	-31.827607	-39.870866	-20.227410	-13.393462	-8.767468	2.184714	-5.318048	-7.217980	2.060100	-3.082520	0.919614	-0.260070	0.274474	-1.000000	-1.000000	-1.000000	-1.000000	-1.000000	-1.000000	-1.000000	65.379310	0.000000	-1.000000	-1.000000	505469.000000	1772738408.419141
7754.580000	-21004.335000	-5712.840000	-916.515000	-7652.430000	-518.805000	245556.315000	25845.390000	-12.358752	-18.637053	-29.624967	-8.791081	-4.948109	-1.867192	1.505705	-6.177441	-7.217980	2.060100	-3.082520	0.919614	-0.260070	0.274474	-1.000000	-1.000000	-1.000000	-1.000000	-1.000000	-1.000000	-1.000000	65.379310	0.000000	-1.000000	-1.000000	505470.000000	1772738408.419149
7742.520000	-20998.440000	-5667.570000	-901.710000	-7650.405000	-525.780000	245521.035000	25853.715000	10.030930	-1.290722	-3.794192	7.542914	3.949507	3.297654	0.618895	-6.250589	-2.289000	2.670500	-3.052000	0.924680	-0.264465	0.276305	-1.000000	-1.000000	-1.000000	-1.000000	-1.000000	-1.000000	-1.000000	65.379310	0.000000	-1.000000	-1.000000	505471.000000	1772738408.423422
7684.425000	-20984.895000	-5693.625000	-899.820000	-7644.915000	-528.480000	245459.610000	25803.540000	24.814597	9.951094	25.087209	20.997373	8.898158	4.603759	0.440759	-5.388442	-2.289000	2.670500	-3.052000	0.924680	-0.264465	0.276305	-1.000000	-1.000000	-1.000000	-1.000000	-1.000000	-1.000000	-1.000000	65.379310	0.000000	-1.000000	-1.000000	505472.000000	1772738408.423430
7659.945000	-20966.895000	-5697.855000	-885.240000	-7627.005000	-506.565000	245425.455000	25775.145000	21.237318	12.981794	41.004391	26.520360	10.571385	4.755099	0.067236	-4.673849	-2.289000	2.670500	-3.052000	0.924680	-0.264465	0.276305	-1.000000	-1.000000	-1.000000	-1.000000	-1.000000	-1.000000	-1.000000	65.379310	0.000000	-1.000000	-1.000000	505473.000000	1772738408.427186
7686.360000	-20943.090000	-5650.515000	-878.625000	-7591.500000	-461.745000	245458.800000	25838.640000	3.893836	12.100879	37.263228	23.092664	11.413081	6.849893	-1.037670	-3.439725	-2.289000	2.670500	-3.052000	0.924680	-0.264465	0.276305	-1.000000	-1.000000	-1.000000	-1.000000	-1.000000	-1.000000	-1.000000	65.379310	0.000000	-1.000000	-1.000000	505474.000000	1772738408.427193
7726.860000	-20956.545000	-5662.080000	-885.420000	-7611.930000	-478.755000	245496.285000	25835.220000	-11.459943	11.823813	21.364429	13.117453	11.812035	10.308545	-1.102002	0.174476	-2.289000	2.670500	-3.052000	0.924680	-0.264465	0.276305	-1.000000	-1.000000	-1.000000	-1.000000	-1.000000	-1.000000	-1.000000	65.379310	0.000000	-1.000000	-1.000000	505475.000000	1772738408.438540
7701.705000	-20994.525000	-5704.740000	-893.655000	-7632.540000	-497.160000	245533.995000	25766.010000	-13.450446	11.015861	3.761697	-0.154393	8.553201	10.018319	1.568786	5.648785	-2.289000	2.670500	-3.052000	0.924680	-0.264465	0.276305	-1.000000	-1.000000	-1.000000	-1.000000	-1.000000	-1.000000	-1.000000	65.379310	0.000000	-1.000000	-1.000000	505476.000000	1772738408.438550
7653.195000	-20989.170000	-5677.515000	-864.855000	-7601.175000	-468.990000	245566.305000	25757.190000	-4.963899	5.191841	-11.342646	-12.894524	-0.436131	2.399587	5.136755	10.277650	-2.289000	2.670500	-3.052000	0.924680	-0.264465	0.276305	-1.000000	-1.000000	-1.000000	-1.000000	-1.000000	-1.000000	-1.000000	65.379310	0.000000	-1.000000	-1.000000	505477.000000	1772738408.438562
7640.595000	-21007.530000	-5689.665000	-880.245000	-7608.780000	-474.165000	245575.620000	25776.045000	1.999163	-5.139983	-21.960335	-19.532692	-9.994483	-7.428269	6.238943	11.047523	-2.289000	2.670500	-3.052000	0.924680	-0.264465	0.276305	-1.000000	-1.000000	-1.000000	-1.000000	-1.000000	-1.000000	-1.000000	65.379310	0.000000	-1.000000	-1.000000	505478.000000	1772738408.438567
7647.885000	-21003.480000	-5695.470000	-890.010000	-7620.120000	-490.905000	245571.660000	25790.715000	0.069002	-13.383944	-25.808167	-16.966506	-12.497979	-10.630058	4.191889	5.987829	-2.289000	2.670500	-3.052000	0.924680	-0.264465	0.276305	-1.000000	-1.000000	-1.000000	-1.000000	-1.000000	-1.000000	-1.000000	65.379310	0.000000	-1.000000	-1.000000	505479.000000	1772738408.439029
7678.485000	-20979.045000	-5693.805000	-896.625000	-7628.940000	-510.930000	245543.085000	25812.945000	-6.005065	-13.688165	-22.637806	-8.318927	-7.047366	-5.461816	1.347753	-2.445763	-2.289000	2.670500	-3.052000	0.924680	-0.264465	0.276305	-1.000000	-1.000000	-1.000000	-1.000000	-1.000000	-1.000000	-1.000000	65.379310	0.000000	-1.000000	-1.000000	505480.000000	1772738408.439038
7702.020000	-20984.580000	-5697.630000	-898.290000	-7628.715000	-511.155000	245507.085000	25832.745000	-5.676159	-6.558901	-13.965024	0.274893	0.454720	1.863630	0.043352	-6.806949	3.464020	4.120200	-6.287120	0.929441	-0.267028	0.272582	-1.000000	-1.000000	-1.000000	-1.000000	-1.000000	-1.000000	-1.000000	65.379310	0.000000	-1.000000	-1.000000	505481.000000	1772738408.447483
7707.060000	-20972.925000	-5685.480000	-884.880000	-7614.495000	-491.895000	245506.725000	25822.845000	4.929595	2.273656	-2.295870	4.809268	4.146910	4.915732	-0.107055	-2.680283	3.464020	4.120200	-6.287120	0.929441	-0.267028	0.272582	-1.000000	-1.000000	-1.000000	-1.000000	-1.000000	-1.000000	-1.000000	65.379310	0.000000	-1.000000	-1.000000	505482.000000	1772738408.447493
7692.750000	-20969.235000	-5680.665000	-877.590000	-7605.180000	-478.080000	245500.830000	25772.490000	17.861398	7.753380	8.732433	5.421008	2.801656	2.370622	-1.753220	3.656992	3.464020	4.120200	-6.287120	0.929441	-0.267028	0.272582	-1.000000	-1.000000	-1.000000	-1.000000	-1.000000	-1.000000	-1.000000	65.379310	0.000000	-1.000000	-1.000000	505483.000000	1772738408.447503
7633.755000	-20976.390000	-5676.660000	-870.615000	-7595.955000	-459.495000	245561.265000	25725.825000	20.665575	8.797157	16.151026	4.490231	-0.557410	-2.246147	-5.973175	2.582905	3.464020	4.120200	-6.287120	0.929441	-0.267028	0.272582	-1.000000	-1.000000	-1.000000	-1.000000	-1.000000	-1.000000	-1.000000	65.379310	0.000000	-1.000000	-1.000000	505484.000000	1772738408.447506
7651.980000	-20949.345000	-5657.220000	-854.775000	-7580.205000	-440.685000	245602.755000	25790.445000	9.430255	7.170580	19.155490	3.620997	-2.200262	-4.359279	-9.671505	-4.105543	3.464020	4.120200	-6.287120	0.929441	-0.267028	0.272582	-1.000000	-1.000000	-1.000000	-1.000000	-1.000000	-1.000000	-1.000000	65.379310	0.000000	-1.000000	-1.000000	505485.000000	1772738408.451120
7718.400000	-20959.830000	-5674.590000	-870.300000	-7594.470000	-460.305000	245623.635000	25821.180000	-5.921407	4.938866	17.282506	2.749719	-1.311064	-2.827358	-9.009911	-5.599764	3.464020	4.120200	-6.287120	0.929441	-0.267028	0.272582	-1.000000	-1.000000	-1.000000	-1.000000	-1.000000	-1.000000	-1.000000	65.379310	0.000000	-1.000000	-1.000000	505486.000000	1772738408.451130
7754.895000	-20959.695000	-5684.940000	-877.005000	-7604.100000	-479.160000	245622.420000	25824.330000	-12.107300	2.667234	9.777867	1.303972	0.371181	-0.062184	-3.784503	1.178695	3.464020	4.120200	-6.287120	0.929441	-0.267028	0.272582	-1.000000	-1.000000	-1.000000	-1.000000	-1.000000	-1.000000	-1.000000	65.379310	0.000000	-1.000000	-1.000000	505487.000000	1772738408.454981
7708.950000	-20969.145000	-5685.300000	-879.255000	-7609.230000	-495.495000	245576.115000	25809.975000	-7.188588	-0.282463	-1.586976	-0.431739	1.512185	1.664558	2.768828	7.932790	3.464020	4.120200	-6.287120	0.929441	-0.267028	0.272582	-1.000000	-1.000000	-1.000000	-1.000000	-1.000000	-1.000000	-1.000000	65.379310	0.000000	-1.000000	-1.000000	505488.000000	1772738408.454989
