Channel1	Channel2	Channel3	Channel4	Channel5	Channel6	Channel7	Channel8	FilteredChannel1	FilteredChannel2	FilteredChannel3	FilteredChannel4	FilteredChannel5	FilteredChannel6	FilteredChannel7	FilteredChannel8	GyroX	GyroY	GyroZ	AccX	AccY	AccZ	PPG1	PPG2	rawPPG1	rawPPG2	rawPPG3	Hr	Hrv	Battery	Trigger	PhysicalTrigger	AutoTrigger	NumMeasurements	Timestamp
-41028.075000	-92232.990000	16664.670000	1539.585000	4583.835000	6916.860000	2560.635000	2658.420000	20.021143	12.785002	11.354299	9.539090	9.236428	5.686705	3.446708	22.508483	-2.380560	4.303320	-0.579880	0.830625	0.176391	0.500975	-1.000000	-1.000000	-1.000000	-1.000000	-1.000000	-1.000000	-1.000000	78.551724	0.000000	-1.000000	-1.000000	969546.000000	1772659827.251388
-41090.265000	-92273.130000	16631.505000	1507.725000	4551.525000	6877.260000	2530.440000	2604.285000	24.762866	22.002591	22.147604	22.096432	22.226577	16.265512	9.459222	22.701135	-2.380560	4.303320	-0.579880	0.830625	0.176391	0.500975	-1.000000	-1.000000	-1.000000	-1.000000	-1.000000	-1.000000	-1.000000	78.551724	0.000000	-1.000000	-1.000000	969547.000000	1772659827.263578
-41066.235000	-92251.485000	16649.685000	1525.320000	4575.555000	6896.790000	2536.695000	2633.985000	14.231268	16.422810	17.638402	18.876462	20.244948	15.140033	9.558750	7.114092	-2.380560	4.303320	-0.579880	0.830625	0.176391	0.500975	-1.000000	-1.000000	-1.000000	-1.000000	-1.000000	-1.000000	-1.000000	78.551724	0.000000	-1.000000	-1.000000	969548.000000	1772659827.263588
-41069.115000	-92250.945000	16650.810000	1526.985000	4578.930000	6910.560000	2542.680000	2633.940000	-2.793713	3.273279	5.160925	6.622338	8.435575	6.605424	5.320016	-10.150723	-2.380560	4.303320	-0.579880	0.830625	0.176391	0.500975	-1.000000	-1.000000	-1.000000	-1.000000	-1.000000	-1.000000	-1.000000	78.551724	0.000000	-1.000000	-1.000000	969549.000000	1772659827.263598
-41067.090000	-92251.890000	16652.745000	1529.595000	4569.390000	6906.195000	2542.410000	2642.085000	-11.906839	-4.929086	-2.832588	-1.864886	-1.019830	0.620933	1.823771	-14.063867	-2.380560	4.303320	-0.579880	0.830625	0.176391	0.500975	-1.000000	-1.000000	-1.000000	-1.000000	-1.000000	-1.000000	-1.000000	78.551724	0.000000	-1.000000	-1.000000	969550.000000	1772659827.263602
-41061.150000	-92235.915000	16673.760000	1551.195000	4587.435000	6914.835000	2547.630000	2648.835000	-9.364438	-4.442266	-2.449042	-1.911167	-2.946014	0.517907	0.676797	-5.030948	-1.129240	3.448760	-0.259420	0.826963	0.174194	0.501769	-1.000000	-1.000000	-1.000000	-1.000000	-1.000000	-1.000000	-1.000000	78.551724	0.000000	-1.000000	-1.000000	969551.000000	1772659827.263607
-41057.820000	-92233.575000	16669.755000	1544.580000	4579.650000	6901.515000	2539.710000	2642.130000	-2.135796	-0.430778	1.203454	1.619876	-1.301291	1.856143	-0.308660	5.289332	-1.129240	3.448760	-0.259420	0.826963	0.174194	0.501769	-1.000000	-1.000000	-1.000000	-1.000000	-1.000000	-1.000000	-1.000000	78.551724	0.000000	-1.000000	-1.000000	969552.000000	1772659827.263610
-41049.810000	-92230.920000	16674.975000	1549.305000	4584.330000	6905.385000	2541.060000	2652.885000	2.710696	1.511107	2.137127	2.303854	-1.653417	-0.051116	-2.480016	8.209412	-1.129240	3.448760	-0.259420	0.826963	0.174194	0.501769	-1.000000	-1.000000	-1.000000	-1.000000	-1.000000	-1.000000	-1.000000	78.551724	0.000000	-1.000000	-1.000000	969553.000000	1772659827.279030
-41053.050000	-92228.130000	16680.960000	1556.280000	4589.865000	6919.560000	2544.930000	2651.490000	2.725177	-0.007374	-0.783025	-1.203093	-4.908268	-4.975374	-5.018360	3.865994	-1.129240	3.448760	-0.259420	0.826963	0.174194	0.501769	-1.000000	-1.000000	-1.000000	-1.000000	-1.000000	-1.000000	-1.000000	78.551724	0.000000	-1.000000	-1.000000	969554.000000	1772659827.279040
-41057.955000	-92235.240000	16674.480000	1551.600000	4589.370000	6921.630000	2543.895000	2648.610000	-0.630430	-2.329840	-3.716813	-4.619812	-6.900202	-8.204416	-6.258048	-2.112178	-1.129240	3.448760	-0.259420	0.826963	0.174194	0.501769	-1.000000	-1.000000	-1.000000	-1.000000	-1.000000	-1.000000	-1.000000	78.551724	0.000000	-1.000000	-1.000000	969555.000000	1772659827.279053
-41051.655000	-92229.030000	16685.595000	1567.890000	4612.500000	6938.145000	2555.775000	2660.805000	-3.341844	-2.302402	-3.077216	-3.877578	-3.961799	-5.736422	-4.690831	-4.285227	-1.129240	3.448760	-0.259420	0.826963	0.174194	0.501769	-1.000000	-1.000000	-1.000000	-1.000000	-1.000000	-1.000000	-1.000000	78.551724	0.000000	-1.000000	-1.000000	969556.000000	1772659827.279057
-41048.370000	-92231.595000	16669.845000	1543.545000	4592.880000	6917.985000	2550.375000	2658.555000	-2.435625	0.061422	0.192462	-0.034865	2.222672	0.887229	-0.269350	-1.513275	-1.129240	3.448760	-0.259420	0.826963	0.174194	0.501769	-1.000000	-1.000000	-1.000000	-1.000000	-1.000000	-1.000000	-1.000000	78.551724	0.000000	-1.000000	-1.000000	969557.000000	1772659827.279152
-41048.415000	-92236.995000	16662.735000	1538.730000	4600.620000	6917.940000	2550.465000	2664.855000	1.439914	2.430226	2.538126	2.740272	6.868441	6.149562	4.696266	3.179993	-1.129240	3.448760	-0.259420	0.826963	0.174194	0.501769	-1.000000	-1.000000	-1.000000	-1.000000	-1.000000	-1.000000	-1.000000	78.551724	0.000000	-1.000000	-1.000000	969558.000000	1772659827.279158
-41026.680000	-92200.725000	16702.695000	1578.375000	4635.990000	6940.710000	2561.310000	2690.460000	5.378577	3.163799	2.120033	2.310780	7.624182	6.622471	7.174675	5.968146	-1.129240	3.448760	-0.259420	0.826963	0.174194	0.501769	-1.000000	-1.000000	-1.000000	-1.000000	-1.000000	-1.000000	-1.000000	78.551724	0.000000	-1.000000	-1.000000	969559.000000	1772659827.293991
-40978.125000	-92166.885000	16728.030000	1594.845000	4630.005000	6945.885000	2573.145000	2731.635000	7.157059	2.599938	0.279568	0.183616	5.257734	3.466930	6.074167	5.359615	-1.129240	3.448760	-0.259420	0.826963	0.174194	0.501769	-1.000000	-1.000000	-1.000000	-1.000000	-1.000000	-1.000000	-1.000000	78.551724	0.000000	-1.000000	-1.000000	969560.000000	1772659827.294001
-41041.440000	-92226.915000	16676.415000	1544.400000	4564.980000	6904.350000	2552.850000	2658.150000	5.805431	1.037894	-1.593784	-2.132721	-0.132717	-1.020793	2.508456	1.686613	0.442540	3.876040	-1.037680	0.821836	0.173217	0.501830	-1.000000	-1.000000	-1.000000	-1.000000	-1.000000	-1.000000	-1.000000	78.551724	0.000000	-1.000000	-1.000000	969561.000000	1772659827.294011
-41025.330000	-92219.400000	16682.445000	1555.470000	4592.700000	6918.795000	2561.310000	2693.070000	0.159016	-2.919923	-4.421107	-5.226954	-8.510500	-5.918233	-1.955644	-4.876935	0.442540	3.876040	-1.037680	0.821836	0.173217	0.501830	-1.000000	-1.000000	-1.000000	-1.000000	-1.000000	-1.000000	-1.000000	78.551724	0.000000	-1.000000	-1.000000	969562.000000	1772659827.294015
-41000.130000	-92202.345000	16696.125000	1567.485000	4606.920000	6931.710000	2563.785000	2717.730000	-7.883945	-8.132041	-7.500397	-7.900811	-15.142600	-9.364555	-5.693688	-11.185858	0.442540	3.876040	-1.037680	0.821836	0.173217	0.501830	-1.000000	-1.000000	-1.000000	-1.000000	-1.000000	-1.000000	-1.000000	78.551724	0.000000	-1.000000	-1.000000	969563.000000	1772659827.294020
-41073.570000	-92256.075000	16648.605000	1519.245000	4546.485000	6891.840000	2537.370000	2628.045000	-13.023690	-10.308517	-7.755168	-7.281489	-14.542724	-8.885126	-7.285954	-12.642707	0.442540	3.876040	-1.037680	0.821836	0.173217	0.501830	-1.000000	-1.000000	-1.000000	-1.000000	-1.000000	-1.000000	-1.000000	78.551724	0.000000	-1.000000	-1.000000	969564.000000	1772659827.294024
-40993.380000	-92186.055000	16719.705000	1592.730000	4624.515000	6962.355000	2599.425000	2745.405000	-12.426720	-7.484564	-4.083440	-2.981686	-7.235704	-4.286301	-5.964569	-8.827399	0.442540	3.876040	-1.037680	0.821836	0.173217	0.501830	-1.000000	-1.000000	-1.000000	-1.000000	-1.000000	-1.000000	-1.000000	78.551724	0.000000	-1.000000	-1.000000	969565.000000	1772659827.294028
-40977.270000	-92167.650000	16733.655000	1605.105000	4642.470000	6976.035000	2609.280000	2740.545000	-5.464402	0.198061	3.392393	4.628980	4.129957	3.843908	-0.841271	-0.323276	0.442540	3.876040	-1.037680	0.821836	0.173217	0.501830	-1.000000	-1.000000	-1.000000	-1.000000	-1.000000	-1.000000	-1.000000	78.551724	0.000000	-1.000000	-1.000000	969566.000000	1772659827.294032
-41139.990000	-92294.370000	16616.970000	1490.850000	4531.050000	6858.630000	2484.765000	2513.745000	3.910014	8.763469	11.049794	12.118751	14.778776	11.650199	5.085581	7.570321	0.442540	3.876040	-1.037680	0.821836	0.173217	0.501830	-1.000000	-1.000000	-1.000000	-1.000000	-1.000000	-1.000000	-1.000000	78.551724	0.000000	-1.000000	-1.000000	969567.000000	1772659827.310902
-41117.220000	-92274.795000	16643.655000	1519.560000	4563.405000	6884.910000	2512.530000	2578.680000	5.355277	8.955836	10.107825	10.903134	15.799289	10.844736	4.309706	3.452855	0.442540	3.876040	-1.037680	0.821836	0.173217	0.501830	-1.000000	-1.000000	-1.000000	-1.000000	-1.000000	-1.000000	-1.000000	78.551724	0.000000	-1.000000	-1.000000	969568.000000	1772659827.310912
-41086.620000	-92258.820000	16652.430000	1527.480000	4576.635000	6905.160000	2550.060000	2633.805000	-3.139074	-1.062064	-0.893454	-0.285121	6.163789	0.861337	-3.188458	-10.232579	0.442540	3.876040	-1.037680	0.821836	0.173217	0.501830	-1.000000	-1.000000	-1.000000	-1.000000	-1.000000	-1.000000	-1.000000	78.551724	0.000000	-1.000000	-1.000000	969569.000000	1772659827.310924
-41068.215000	-92241.810000	16659.360000	1528.560000	4568.085000	6899.175000	2545.830000	2646.045000	-9.439573	-10.118908	-11.183111	-10.823796	-3.780807	-8.069417	-7.859496	-15.302005	0.442540	3.876040	-1.037680	0.821836	0.173217	0.501830	-1.000000	-1.000000	-1.000000	-1.000000	-1.000000	-1.000000	-1.000000	78.551724	0.000000	-1.000000	-1.000000	969570.000000	1772659827.310929
-41046.975000	-92200.545000	16689.645000	1561.095000	4586.445000	6920.235000	2554.380000	2665.350000	-3.975149	-7.902820	-11.011627	-11.423601	-6.370136	-8.517765	-4.217188	-3.178680	-0.595140	3.692920	-1.587040	0.822569	0.175231	0.502196	-1.000000	-1.000000	-1.000000	-1.000000	-1.000000	-1.000000	-1.000000	78.551724	0.000000	-1.000000	-1.000000	969571.000000	1772659827.310934
-41002.920000	-92129.535000	16747.830000	1622.070000	4656.015000	6978.240000	2589.255000	2723.715000	10.601720	5.681752	0.220529	-1.296000	-1.485791	-1.020711	4.803758	17.747807	-0.595140	3.692920	-1.587040	0.822569	0.175231	0.502196	-1.000000	-1.000000	-1.000000	-1.000000	-1.000000	-1.000000	-1.000000	78.551724	0.000000	-1.000000	-1.000000	969572.000000	1772659827.310938
-41068.350000	-92194.515000	16685.190000	1565.190000	4614.660000	6938.370000	2546.820000	2615.265000	24.509713	21.961661	15.184329	13.154717	7.390951	9.513973	13.042162	33.395169	-0.595140	3.692920	-1.587040	0.822569	0.175231	0.502196	-1.000000	-1.000000	-1.000000	-1.000000	-1.000000	-1.000000	-1.000000	78.551724	0.000000	-1.000000	-1.000000	969573.000000	1772659827.310942
-41052.915000	-92257.605000	16644.420000	1522.665000	4569.660000	6902.010000	2548.260000	2654.325000	26.462234	26.385794	21.022611	19.621291	11.801651	14.146431	13.691611	31.090221	-0.595140	3.692920	-1.587040	0.822569	0.175231	0.502196	-1.000000	-1.000000	-1.000000	-1.000000	-1.000000	-1.000000	-1.000000	78.551724	0.000000	-1.000000	-1.000000	969574.000000	1772659827.310946
-41086.710000	-92271.645000	16666.695000	1533.510000	4567.995000	6894.405000	2537.910000	2624.445000	12.890621	10.836464	10.941207	10.717621	4.676021	6.941228	5.128824	10.635139	-0.595140	3.692920	-1.587040	0.822569	0.175231	0.502196	-1.000000	-1.000000	-1.000000	-1.000000	-1.000000	-1.000000	-1.000000	78.551724	0.000000	-1.000000	-1.000000	969575.000000	1772659827.325077
-41052.600000	-92243.745000	16670.160000	1535.445000	4566.645000	6891.030000	2532.375000	2653.335000	-5.691308	-13.623830	-5.772328	-5.485975	-8.541052	-5.893192	-5.133564	-11.251540	-0.595140	3.692920	-1.587040	0.822569	0.175231	0.502196	-1.000000	-1.000000	-1.000000	-1.000000	-1.000000	-1.000000	-1.000000	78.551724	0.000000	-1.000000	-1.000000	969576.000000	1772659827.325087
-41036.940000	-92230.020000	16676.145000	1545.525000	4583.745000	6908.535000	2540.025000	2671.020000	-16.002040	-27.959653	-15.608238	-15.775628	-16.466989	-13.479220	-9.506754	-19.876448	-0.595140	3.692920	-1.587040	0.822569	0.175231	0.502196	-1.000000	-1.000000	-1.000000	-1.000000	-1.000000	-1.000000	-1.000000	78.551724	0.000000	-1.000000	-1.000000	969577.000000	1772659827.325098
-41036.130000	-92236.365000	16664.670000	1532.385000	4575.600000	6908.265000	2550.735000	2676.645000	-15.390358	-24.779848	-15.069034	-15.657432	-14.402102	-11.970675	-7.992083	-16.493753	-0.595140	3.692920	-1.587040	0.822569	0.175231	0.502196	-1.000000	-1.000000	-1.000000	-1.000000	-1.000000	-1.000000	-1.000000	78.551724	0.000000	-1.000000	-1.000000	969578.000000	1772659827.325102
-41052.285000	-92255.175000	16645.860000	1516.140000	4563.630000	6904.305000	2551.590000	2658.555000	-10.038655	-10.781937	-8.840975	-8.969913	-5.570197	-4.649252	-4.082473	-10.089595	-0.595140	3.692920	-1.587040	0.822569	0.175231	0.502196	-1.000000	-1.000000	-1.000000	-1.000000	-1.000000	-1.000000	-1.000000	78.551724	0.000000	-1.000000	-1.000000	969579.000000	1772659827.325106
-41077.980000	-92252.520000	16658.145000	1532.070000	4577.265000	6910.605000	2540.475000	2610.855000	-6.952146	2.299355	-3.104903	-2.068320	3.248188	2.525558	-0.664594	-7.699685	-0.595140	3.692920	-1.587040	0.822569	0.175231	0.502196	-1.000000	-1.000000	-1.000000	-1.000000	-1.000000	-1.000000	-1.000000	78.551724	0.000000	-1.000000	-1.000000	969580.000000	1772659827.325110
-41052.870000	-92234.385000	16680.015000	1555.020000	4595.985000	6922.485000	2551.005000	2657.385000	-7.759495	7.699070	-0.275364	1.807681	7.345608	5.356356	0.636742	-9.791440	-2.853620	4.654300	-2.487380	0.822752	0.174682	0.501341	-1.000000	-1.000000	-1.000000	-1.000000	-1.000000	-1.000000	-1.000000	78.551724	0.000000	-1.000000	-1.000000	969581.000000	1772659827.325115
-41029.245000	-92214.090000	16698.150000	1570.680000	4612.410000	6933.870000	2567.340000	2696.130000	-7.267727	8.277709	2.636715	4.792689	7.716732	4.690736	0.820455	-8.863023	-2.853620	4.654300	-2.487380	0.822752	0.174682	0.501341	-1.000000	-1.000000	-1.000000	-1.000000	-1.000000	-1.000000	-1.000000	78.551724	0.000000	-1.000000	-1.000000	969582.000000	1772659827.325118
-40881.690000	-92084.130000	16814.430000	1681.020000	4723.425000	7036.875000	2659.815000	2869.155000	1.067932	12.118097	9.938775	10.969800	9.445073	5.558804	3.238167	3.030396	-2.853620	4.654300	-2.487380	0.822752	0.174682	0.501341	-1.000000	-1.000000	-1.000000	-1.000000	-1.000000	-1.000000	-1.000000	78.551724	0.000000	-1.000000	-1.000000	969583.000000	1772659827.339841
-40938.030000	-92121.480000	16771.860000	1634.760000	4680.900000	6992.955000	2617.020000	2772.855000	17.611306	22.326718	20.830974	20.205210	15.304201	11.261463	9.638371	24.039546	-2.853620	4.654300	-2.487380	0.822752	0.174682	0.501341	-1.000000	-1.000000	-1.000000	-1.000000	-1.000000	-1.000000	-1.000000	78.551724	0.000000	-1.000000	-1.000000	969584.000000	1772659827.339851
-41162.940000	-92311.875000	16602.345000	1472.670000	4511.790000	6846.210000	2479.005000	2520.810000	28.355971	27.142619	24.037530	22.268236	17.118447	14.693601	13.503987	35.393140	-2.853620	4.654300	-2.487380	0.822752	0.174682	0.501341	-1.000000	-1.000000	-1.000000	-1.000000	-1.000000	-1.000000	-1.000000	78.551724	0.000000	-1.000000	-1.000000	969585.000000	1772659827.339861
-41116.005000	-92283.795000	16627.770000	1495.755000	4530.825000	6876.990000	2512.845000	2583.585000	15.073524	10.538128	7.655079	5.900436	2.891022	4.343645	4.766153	16.483403	-2.853620	4.654300	-2.487380	0.822752	0.174682	0.501341	-1.000000	-1.000000	-1.000000	-1.000000	-1.000000	-1.000000	-1.000000	78.551724	0.000000	-1.000000	-1.000000	969586.000000	1772659827.339865
-41067.990000	-92242.170000	16657.290000	1516.410000	4544.145000	6894.135000	2537.820000	2622.060000	-16.096830	-21.365557	-20.541199	-21.462941	-22.198060	-16.274036	-13.353647	-22.885435	-2.853620	4.654300	-2.487380	0.822752	0.174682	0.501341	-1.000000	-1.000000	-1.000000	-1.000000	-1.000000	-1.000000	-1.000000	78.551724	0.000000	-1.000000	-1.000000	969587.000000	1772659827.339869
-41051.565000	-92220.120000	16677.360000	1546.830000	4587.795000	6905.160000	2531.745000	2633.355000	-37.591548	-43.241851	-38.081449	-38.230164	-37.725706	-30.158761	-25.543911	-49.053409	-2.853620	4.654300	-2.487380	0.822752	0.174682	0.501341	-1.000000	-1.000000	-1.000000	-1.000000	-1.000000	-1.000000	-1.000000	78.551724	0.000000	-1.000000	-1.000000	969588.000000	1772659827.339873
-41023.665000	-92205.540000	16687.485000	1562.805000	4615.245000	6930.180000	2556.405000	2673.945000	-32.209045	-39.392206	-32.674935	-32.335205	-30.876538	-26.646159	-22.223241	-41.715008	-2.853620	4.654300	-2.487380	0.822752	0.174682	0.501341	-1.000000	-1.000000	-1.000000	-1.000000	-1.000000	-1.000000	-1.000000	78.551724	0.000000	-1.000000	-1.000000	969589.000000	1772659827.339877
-41014.800000	-92198.295000	16694.055000	1563.030000	4611.960000	6924.555000	2549.340000	2680.920000	-5.732182	-15.024336	-10.387244	-9.629203	-6.716597	-8.873311	-6.243111	-7.963072	-2.853620	4.654300	-2.487380	0.822752	0.174682	0.501341	-1.000000	-1.000000	-1.000000	-1.000000	-1.000000	-1.000000	-1.000000	78.551724	0.000000	-1.000000	-1.000000	969590.000000	1772659827.339880
-41082.930000	-92239.560000	16662.735000	1535.895000	4612.500000	6914.745000	2530.305000	2601.720000	21.190781	12.388831	13.117316	14.099588	18.451351	11.257555	11.203145	26.570924	-2.487380	4.806900	-2.060100	0.822691	0.173034	0.502989	-1.000000	-1.000000	-1.000000	-1.000000	-1.000000	-1.000000	-1.000000	78.551724	0.000000	-1.000000	-1.000000	969591.000000	1772659827.354929
-41032.215000	-92210.490000	16690.095000	1559.070000	4608.675000	6936.750000	2556.315000	2678.760000	29.200478	26.008339	23.777141	24.765308	29.491355	21.812766	18.972795	37.998390	-2.487380	4.806900	-2.060100	0.822691	0.173034	0.502989	-1.000000	-1.000000	-1.000000	-1.000000	-1.000000	-1.000000	-1.000000	78.551724	0.000000	-1.000000	-1.000000	969592.000000	1772659827.354939
-40975.290000	-92173.455000	16725.330000	1599.345000	4606.470000	6960.645000	2591.820000	2757.105000	19.590068	23.647948	20.755535	21.694454	24.042377	21.178097	16.949299	28.505178	-2.487380	4.806900	-2.060100	0.822691	0.173034	0.502989	-1.000000	-1.000000	-1.000000	-1.000000	-1.000000	-1.000000	-1.000000	78.551724	0.000000	-1.000000	-1.000000	969593.000000	1772659827.354950
-41041.890000	-92218.230000	16684.200000	1560.015000	4560.705000	6917.715000	2569.860000	2669.940000	10.078432	17.114130	15.125650	15.850479	12.202169	16.911972	14.014363	18.874595	-2.487380	4.806900	-2.060100	0.822691	0.173034	0.502989	-1.000000	-1.000000	-1.000000	-1.000000	-1.000000	-1.000000	-1.000000	78.551724	0.000000	-1.000000	-1.000000	969594.000000	1772659827.354954
-41089.050000	-92262.960000	16642.305000	1522.935000	4564.350000	6894.900000	2543.985000	2615.895000	7.029624	12.542638	11.894549	12.214393	2.613261	12.026647	12.568656	14.403667	-2.487380	4.806900	-2.060100	0.822691	0.173034	0.502989	-1.000000	-1.000000	-1.000000	-1.000000	-1.000000	-1.000000	-1.000000	78.551724	0.000000	-1.000000	-1.000000	969595.000000	1772659827.354958
-41064.570000	-92246.400000	16642.035000	1518.030000	4571.910000	6907.995000	2549.115000	2647.845000	1.319375	4.673868	5.262969	5.213789	-4.195153	3.054140	6.543455	3.713297	-2.487380	4.806900	-2.060100	0.822691	0.173034	0.502989	-1.000000	-1.000000	-1.000000	-1.000000	-1.000000	-1.000000	-1.000000	78.551724	0.000000	-1.000000	-1.000000	969596.000000	1772659827.354962
-40936.230000	-92125.080000	16740.405000	1611.180000	4664.970000	6988.455000	2613.060000	2808.360000	-8.945565	-6.873310	-6.075926	-6.735572	-8.786888	-8.464902	-4.801856	-12.920294	-2.487380	4.806900	-2.060100	0.822691	0.173034	0.502989	-1.000000	-1.000000	-1.000000	-1.000000	-1.000000	-1.000000	-1.000000	78.551724	0.000000	-1.000000	-1.000000	969597.000000	1772659827.355636
-40865.175000	-92057.130000	16806.600000	1685.025000	4742.955000	7060.815000	2672.370000	2882.520000	-13.044772	-12.207026	-13.079902	-14.935998	-8.078743	-14.050768	-13.153736	-20.524834	-2.487380	4.806900	-2.060100	0.822691	0.173034	0.502989	-1.000000	-1.000000	-1.000000	-1.000000	-1.000000	-1.000000	-1.000000	78.551724	0.000000	-1.000000	-1.000000	969598.000000	1772659827.355653
-41161.230000	-92304.585000	16593.210000	1489.230000	4546.305000	6874.245000	2500.245000	2485.935000	-8.802562	-8.693946	-11.588318	-14.146855	-3.028668	-11.145001	-14.140243	-17.072898	-2.487380	4.806900	-2.060100	0.822691	0.173034	0.502989	-1.000000	-1.000000	-1.000000	-1.000000	-1.000000	-1.000000	-1.000000	78.551724	0.000000	-1.000000	-1.000000	969599.000000	1772659827.371041
-41128.695000	-92314.530000	16614.270000	1495.710000	4539.555000	6861.510000	2505.555000	2559.375000	-9.852109	-8.936291	-10.870316	-12.311938	-3.851133	-9.546319	-14.414670	-19.954429	-2.487380	4.806900	-2.060100	0.822691	0.173034	0.502989	-1.000000	-1.000000	-1.000000	-1.000000	-1.000000	-1.000000	-1.000000	78.551724	0.000000	-1.000000	-1.000000	969600.000000	1772659827.371050
-41068.620000	-92244.465000	16671.060000	1546.155000	4589.055000	6905.835000	2544.840000	2639.700000	-20.467204	-18.560208	-15.737787	-15.128592	-13.768389	-15.052225	-17.887685	-32.539566	-1.556520	4.257540	-1.892240	0.821531	0.175598	0.509398	-1.000000	-1.000000	-1.000000	-1.000000	-1.000000	-1.000000	-1.000000	78.551724	0.000000	-1.000000	-1.000000	969601.000000	1772659827.371061
-41040.765000	-92202.975000	16690.410000	1556.910000	4600.305000	6929.640000	2562.840000	2664.855000	-24.910217	-23.469454	-16.180655	-14.783387	-19.350026	-17.920295	-16.945210	-34.008834	-1.556520	4.257540	-1.892240	0.821531	0.175598	0.509398	-1.000000	-1.000000	-1.000000	-1.000000	-1.000000	-1.000000	-1.000000	78.551724	0.000000	-1.000000	-1.000000	969602.000000	1772659827.371065
-41072.040000	-92217.645000	16687.620000	1550.070000	4577.670000	6916.995000	2549.520000	2626.335000	-10.501118	-10.347708	-3.641136	-3.573276	-9.473163	-7.812940	-5.163991	-10.842955	-1.556520	4.257540	-1.892240	0.821531	0.175598	0.509398	-1.000000	-1.000000	-1.000000	-1.000000	-1.000000	-1.000000	-1.000000	78.551724	0.000000	-1.000000	-1.000000	969603.000000	1772659827.371069
-41084.640000	-92236.815000	16671.420000	1535.715000	4559.760000	6903.630000	2543.985000	2629.440000	15.765845	14.950711	16.394820	14.302077	9.592585	11.357960	12.536511	25.581681	-1.556520	4.257540	-1.892240	0.821531	0.175598	0.509398	-1.000000	-1.000000	-1.000000	-1.000000	-1.000000	-1.000000	-1.000000	78.551724	0.000000	-1.000000	-1.000000	969604.000000	1772659827.371073
-41048.550000	-92214.675000	16685.730000	1549.080000	4572.180000	6909.255000	2551.185000	2662.020000	35.427336	33.899484	29.952995	26.991131	22.661359	25.954497	25.163099	51.599980	-1.556520	4.257540	-1.892240	0.821531	0.175598	0.509398	-1.000000	-1.000000	-1.000000	-1.000000	-1.000000	-1.000000	-1.000000	78.551724	0.000000	-1.000000	-1.000000	969605.000000	1772659827.372748
-41028.705000	-92207.565000	16689.735000	1555.380000	4582.440000	6917.760000	2562.210000	2677.230000	34.977139	32.238728	26.305212	24.747209	20.038125	25.175762	24.769796	50.152960	-1.556520	4.257540	-1.892240	0.821531	0.175598	0.509398	-1.000000	-1.000000	-1.000000	-1.000000	-1.000000	-1.000000	-1.000000	78.551724	0.000000	-1.000000	-1.000000	969606.000000	1772659827.372758
-41033.610000	-92202.210000	16695.045000	1564.020000	4597.290000	6933.015000	2579.445000	2676.870000	16.562890	12.075384	7.504817	8.687780	5.024493	10.392797	12.705988	24.205974	-1.556520	4.257540	-1.892240	0.821531	0.175598	0.509398	-1.000000	-1.000000	-1.000000	-1.000000	-1.000000	-1.000000	-1.000000	78.551724	0.000000	-1.000000	-1.000000	969607.000000	1772659827.385940
-41021.055000	-92170.260000	16732.755000	1606.905000	4642.020000	6968.250000	2592.810000	2677.770000	-2.423887	-7.909204	-10.478743	-6.989473	-7.166931	-4.117679	0.196462	-2.954667	-1.556520	4.257540	-1.892240	0.821531	0.175598	0.509398	-1.000000	-1.000000	-1.000000	-1.000000	-1.000000	-1.000000	-1.000000	78.551724	0.000000	-1.000000	-1.000000	969608.000000	1772659827.385949
-40957.695000	-92139.705000	16750.485000	1621.800000	4657.590000	6979.590000	2588.445000	2758.770000	-7.129283	-11.249581	-13.621869	-9.184721	-4.492712	-5.770127	-3.527888	-11.929495	-1.556520	4.257540	-1.892240	0.821531	0.175598	0.509398	-1.000000	-1.000000	-1.000000	-1.000000	-1.000000	-1.000000	-1.000000	78.551724	0.000000	-1.000000	-1.000000	969609.000000	1772659827.385960
-40966.830000	-92153.160000	16736.580000	1607.670000	4644.090000	6964.920000	2576.385000	2776.410000	-1.123937	-2.005975	-5.466543	-1.299565	7.604185	1.746368	-1.838856	-6.714993	-1.556520	4.257540	-1.892240	0.821531	0.175598	0.509398	-1.000000	-1.000000	-1.000000	-1.000000	-1.000000	-1.000000	-1.000000	78.551724	0.000000	-1.000000	-1.000000	969610.000000	1772659827.385965
-41098.140000	-92227.635000	16678.215000	1553.535000	4589.955000	6909.480000	2512.080000	2588.490000	1.153499	3.474244	0.544876	3.577291	14.090169	5.339875	-3.528252	-3.824530	-4.608520	4.394880	-2.365300	0.821348	0.178466	0.512206	-1.000000	-1.000000	-1.000000	-1.000000	-1.000000	-1.000000	-1.000000	78.551724	0.000000	-1.000000	-1.000000	969611.000000	1772659827.385970
-41093.685000	-92262.870000	16632.225000	1507.455000	4548.780000	6884.460000	2521.080000	2588.130000	-8.492935	-3.772541	-3.133930	-1.759474	6.753985	-1.733725	-10.997877	-13.655115	-4.608520	4.394880	-2.365300	0.821348	0.178466	0.512206	-1.000000	-1.000000	-1.000000	-1.000000	-1.000000	-1.000000	-1.000000	78.551724	0.000000	-1.000000	-1.000000	969612.000000	1772659827.385975
-41060.745000	-92264.265000	16622.505000	1496.925000	4543.470000	6886.170000	2540.430000	2663.955000	-23.370335	-18.362591	-13.348097	-13.867594	-10.327242	-14.684900	-18.005491	-29.675231	-4.608520	4.394880	-2.365300	0.821348	0.178466	0.512206	-1.000000	-1.000000	-1.000000	-1.000000	-1.000000	-1.000000	-1.000000	78.551724	0.000000	-1.000000	-1.000000	969613.000000	1772659827.387485
-41061.600000	-92219.895000	16678.035000	1552.725000	4593.375000	6918.705000	2540.295000	2652.615000	-30.557372	-28.037224	-20.677183	-23.063733	-25.570977	-23.290582	-17.330135	-36.021976	-4.608520	4.394880	-2.365300	0.821348	0.178466	0.512206	-1.000000	-1.000000	-1.000000	-1.000000	-1.000000	-1.000000	-1.000000	78.551724	0.000000	-1.000000	-1.000000	969614.000000	1772659827.387494
-41024.790000	-92151.900000	16752.735000	1626.210000	4664.970000	6986.160000	2595.510000	2710.755000	-24.509791	-23.647260	-16.391944	-20.219782	-27.884131	-20.142592	-8.180429	-25.657867	-4.608520	4.394880	-2.365300	0.821348	0.178466	0.512206	-1.000000	-1.000000	-1.000000	-1.000000	-1.000000	-1.000000	-1.000000	78.551724	0.000000	-1.000000	-1.000000	969615.000000	1772659827.402889
-41058.315000	-92221.245000	16666.020000	1533.105000	4572.360000	6909.120000	2554.380000	2637.765000	-7.092273	-4.748281	0.323702	-4.295924	-14.773585	-5.619131	5.208143	-2.485863	-4.608520	4.394880	-2.365300	0.821348	0.178466	0.512206	-1.000000	-1.000000	-1.000000	-1.000000	-1.000000	-1.000000	-1.000000	78.551724	0.000000	-1.000000	-1.000000	969616.000000	1772659827.402902
-41064.480000	-92260.980000	16621.515000	1488.420000	4527.090000	6865.920000	2527.425000	2627.055000	14.358876	17.331507	17.846494	13.179763	3.173718	10.220387	15.941004	22.324277	-4.608520	4.394880	-2.365300	0.821348	0.178466	0.512206	-1.000000	-1.000000	-1.000000	-1.000000	-1.000000	-1.000000	-1.000000	78.551724	0.000000	-1.000000	-1.000000	969617.000000	1772659827.402914
-41052.060000	-92234.295000	16654.905000	1527.705000	4569.885000	6900.930000	2545.110000	2648.160000	27.774991	27.372392	22.363533	18.916882	12.734079	16.198375	17.720523	33.781789	-4.608520	4.394880	-2.365300	0.821348	0.178466	0.512206	-1.000000	-1.000000	-1.000000	-1.000000	-1.000000	-1.000000	-1.000000	78.551724	0.000000	-1.000000	-1.000000	969618.000000	1772659827.402918
-41040.000000	-92224.890000	16665.795000	1539.045000	4580.910000	6913.710000	2557.170000	2679.120000	27.333348	22.137851	14.118523	13.500025	13.184033	12.690099	11.600011	27.739922	-4.608520	4.394880	-2.365300	0.821348	0.178466	0.512206	-1.000000	-1.000000	-1.000000	-1.000000	-1.000000	-1.000000	-1.000000	78.551724	0.000000	-1.000000	-1.000000	969619.000000	1772659827.402922
-41013.090000	-92193.840000	16697.520000	1569.780000	4606.065000	6933.375000	2567.970000	2716.065000	20.016178	11.917454	5.132938	7.947620	13.007644	8.760200	4.885157	17.048488	-4.608520	4.394880	-2.365300	0.821348	0.178466	0.512206	-1.000000	-1.000000	-1.000000	-1.000000	-1.000000	-1.000000	-1.000000	78.551724	0.000000	-1.000000	-1.000000	969620.000000	1772659827.402925
-40959.540000	-92133.180000	16759.485000	1630.575000	4664.880000	6985.080000	2606.940000	2775.420000	14.831088	7.614598	5.004202	10.035504	17.430888	10.311598	2.528923	14.035773	-3.998120	5.676720	-1.251320	0.825254	0.178588	0.511473	-1.000000	-1.000000	-1.000000	-1.000000	-1.000000	-1.000000	-1.000000	78.551724	0.000000	-1.000000	-1.000000	969621.000000	1772659827.403423
-41016.960000	-92178.540000	16712.280000	1580.445000	4617.225000	6941.655000	2569.455000	2687.715000	10.879260	9.468987	11.674565	16.612092	22.549559	14.342308	2.682369	13.928506	-3.998120	5.676720	-1.251320	0.825254	0.178588	0.511473	-1.000000	-1.000000	-1.000000	-1.000000	-1.000000	-1.000000	-1.000000	78.551724	0.000000	-1.000000	-1.000000	969622.000000	1772659827.403426
-41100.480000	-92252.745000	16642.755000	1513.530000	4553.055000	6880.995000	2516.760000	2592.720000	-0.429409	6.174156	11.618441	14.466909	16.853844	10.690699	-1.059393	2.007269	-3.998120	5.676720	-1.251320	0.825254	0.178588	0.511473	-1.000000	-1.000000	-1.000000	-1.000000	-1.000000	-1.000000	-1.000000	78.551724	0.000000	-1.000000	-1.000000	969623.000000	1772659827.409750
-41054.715000	-92197.395000	16703.280000	1573.650000	4606.020000	6926.625000	2556.810000	2656.935000	-20.823636	-9.693691	-3.913684	-3.816680	-4.636064	-5.681923	-11.347336	-23.707156	-3.998120	5.676720	-1.251320	0.825254	0.178588	0.511473	-1.000000	-1.000000	-1.000000	-1.000000	-1.000000	-1.000000	-1.000000	78.551724	0.000000	-1.000000	-1.000000	969624.000000	1772659827.409758
-41056.605000	-92213.145000	16686.810000	1556.100000	4587.885000	6909.075000	2546.460000	2642.445000	-37.128906	-27.445353	-23.704439	-25.606860	-28.105655	-23.852895	-20.569613	-44.198418	-3.998120	5.676720	-1.251320	0.825254	0.178588	0.511473	-1.000000	-1.000000	-1.000000	-1.000000	-1.000000	-1.000000	-1.000000	78.551724	0.000000	-1.000000	-1.000000	969625.000000	1772659827.418943
-41055.840000	-92232.000000	16661.430000	1530.315000	4567.950000	6899.445000	2550.555000	2660.535000	-35.851172	-31.485261	-30.658731	-33.148924	-35.699822	-28.866678	-19.170112	-41.615565	-3.998120	5.676720	-1.251320	0.825254	0.178588	0.511473	-1.000000	-1.000000	-1.000000	-1.000000	-1.000000	-1.000000	-1.000000	78.551724	0.000000	-1.000000	-1.000000	969626.000000	1772659827.418955
-41062.590000	-92239.515000	16641.045000	1511.055000	4557.330000	6895.620000	2540.115000	2640.465000	-18.349498	-20.385188	-22.469571	-24.407112	-25.531921	-18.970804	-7.441846	-19.057110	-3.998120	5.676720	-1.251320	0.825254	0.178588	0.511473	-1.000000	-1.000000	-1.000000	-1.000000	-1.000000	-1.000000	-1.000000	78.551724	0.000000	-1.000000	-1.000000	969627.000000	1772659827.420438
-41058.180000	-92221.605000	16663.860000	1542.105000	4591.620000	6919.830000	2542.005000	2630.295000	4.501030	-3.070372	-7.688841	-8.518976	-7.300393	-2.665231	6.561938	7.817715	-3.998120	5.676720	-1.251320	0.825254	0.178588	0.511473	-1.000000	-1.000000	-1.000000	-1.000000	-1.000000	-1.000000	-1.000000	78.551724	0.000000	-1.000000	-1.000000	969628.000000	1772659827.420446
-41047.785000	-92218.905000	16668.495000	1543.905000	4591.080000	6919.200000	2550.690000	2659.905000	22.138020	11.964589	6.174401	6.612494	9.861362	11.549631	15.344170	25.831336	-3.998120	5.676720	-1.251320	0.825254	0.178588	0.511473	-1.000000	-1.000000	-1.000000	-1.000000	-1.000000	-1.000000	-1.000000	78.551724	0.000000	-1.000000	-1.000000	969629.000000	1772659827.420822
-41046.075000	-92217.600000	16670.295000	1544.895000	4591.665000	6920.955000	2558.790000	2672.955000	27.883139	19.256880	14.791517	16.178272	19.747131	18.170651	15.921337	29.817226	-3.998120	5.676720	-1.251320	0.825254	0.178588	0.511473	-1.000000	-1.000000	-1.000000	-1.000000	-1.000000	-1.000000	-1.000000	78.551724	0.000000	-1.000000	-1.000000	969630.000000	1772659827.420828
-40995.405000	-92170.395000	16716.600000	1587.330000	4627.080000	6950.070000	2581.335000	2733.480000	22.852015	18.587348	17.571641	19.018757	20.622236	16.667245	10.868108	24.197258	-1.648080	5.386780	-0.549360	0.825865	0.172668	0.510131	-1.000000	-1.000000	-1.000000	-1.000000	-1.000000	-1.000000	-1.000000	78.551724	0.000000	-1.000000	-1.000000	969631.000000	1772659827.423371
-40960.305000	-92136.780000	16746.480000	1616.670000	4655.790000	6975.585000	2598.435000	2766.330000	15.390768	15.271337	17.768184	18.251308	16.450272	11.727575	5.747509	18.478950	-1.648080	5.386780	-0.549360	0.825865	0.172668	0.510131	-1.000000	-1.000000	-1.000000	-1.000000	-1.000000	-1.000000	-1.000000	78.551724	0.000000	-1.000000	-1.000000	969632.000000	1772659827.423376
-41017.320000	-92191.140000	16695.630000	1571.085000	4620.105000	6942.555000	2571.750000	2696.310000	10.020944	12.107355	16.219750	15.349250	10.801348	6.872491	2.687789	14.850168	-1.648080	5.386780	-0.549360	0.825865	0.172668	0.510131	-1.000000	-1.000000	-1.000000	-1.000000	-1.000000	-1.000000	-1.000000	78.551724	0.000000	-1.000000	-1.000000	969633.000000	1772659827.427385
-41063.220000	-92221.740000	16671.510000	1546.920000	4591.035000	6912.585000	2545.785000	2648.610000	2.027595	5.705530	9.431593	7.897219	3.156085	1.098008	-0.924253	5.710707	-1.648080	5.386780	-0.549360	0.825865	0.172668	0.510131	-1.000000	-1.000000	-1.000000	-1.000000	-1.000000	-1.000000	-1.000000	78.551724	0.000000	-1.000000	-1.000000	969634.000000	1772659827.427389
-41069.520000	-92216.160000	16682.355000	1555.965000	4598.370000	6917.760000	2546.685000	2629.935000	-12.178663	-5.446501	-2.667704	-3.752006	-6.393623	-6.471013	-6.795194	-12.994235	-1.648080	5.386780	-0.549360	0.825865	0.172668	0.510131	-1.000000	-1.000000	-1.000000	-1.000000	-1.000000	-1.000000	-1.000000	78.551724	0.000000	-1.000000	-1.000000	969635.000000	1772659827.442967
-41023.485000	-92186.370000	16705.305000	1575.720000	4621.455000	6947.055000	2571.570000	2679.525000	-25.849530	-15.875693	-13.603060	-13.835486	-14.003804	-12.849340	-11.988070	-32.211334	-1.648080	5.386780	-0.549360	0.825865	0.172668	0.510131	-1.000000	-1.000000	-1.000000	-1.000000	-1.000000	-1.000000	-1.000000	78.551724	0.000000	-1.000000	-1.000000	969636.000000	1772659827.442976
-40998.645000	-92163.870000	16715.160000	1580.445000	4609.755000	6948.405000	2568.645000	2683.305000	-27.900659	-18.597218	-17.119668	-17.098978	-15.931906	-13.959478	-12.041277	-37.442729	-1.648080	5.386780	-0.549360	0.825865	0.172668	0.510131	-1.000000	-1.000000	-1.000000	-1.000000	-1.000000	-1.000000	-1.000000	78.551724	0.000000	-1.000000	-1.000000	969637.000000	1772659827.443233
-41079.420000	-92238.435000	16647.570000	1515.150000	4544.910000	6889.455000	2530.080000	2612.565000	-16.800743	-13.367078	-13.988071	-14.468876	-13.482661	-10.260438	-7.302209	-25.761103	-1.648080	5.386780	-0.549360	0.825865	0.172668	0.510131	-1.000000	-1.000000	-1.000000	-1.000000	-1.000000	-1.000000	-1.000000	78.551724	0.000000	-1.000000	-1.000000	969638.000000	1772659827.443238
-41087.340000	-92252.655000	16641.990000	1515.735000	4555.080000	6886.035000	2528.910000	2620.845000	-2.845251	-7.072540	-10.145162	-10.932167	-10.733707	-6.370237	-2.618344	-8.132477	-1.648080	5.386780	-0.549360	0.825865	0.172668	0.510131	-1.000000	-1.000000	-1.000000	-1.000000	-1.000000	-1.000000	-1.000000	78.551724	0.000000	-1.000000	-1.000000	969639.000000	1772659827.443244
-41077.890000	-92243.025000	16646.040000	1521.810000	4564.845000	6895.980000	2534.895000	2630.385000	4.855508	-4.794714	-8.764432	-8.714160	-8.288380	-4.487655	-0.560355	5.398934	-1.648080	5.386780	-0.549360	0.825865	0.172668	0.510131	-1.000000	-1.000000	-1.000000	-1.000000	-1.000000	-1.000000	-1.000000	78.551724	0.000000	-1.000000	-1.000000	969640.000000	1772659827.443248
-41068.710000	-92228.490000	16654.770000	1530.720000	4572.405000	6904.755000	2548.755000	2644.470000	6.557746	-4.306582	-7.326221	-5.620151	-3.586272	-2.399463	0.611850	13.263729	0.747740	5.127360	-0.335720	0.822019	0.173645	0.512572	-1.000000	-1.000000	-1.000000	-1.000000	-1.000000	-1.000000	-1.000000	78.551724	0.000000	-1.000000	-1.000000	969641.000000	1772659827.443668
-41051.295000	-92209.320000	16674.570000	1547.820000	4588.875000	6919.785000	2569.950000	2671.020000	8.067537	0.282844	-1.183058	1.616164	5.130955	3.025373	3.920655	18.953888	0.747740	5.127360	-0.335720	0.822019	0.173645	0.512572	-1.000000	-1.000000	-1.000000	-1.000000	-1.000000	-1.000000	-1.000000	78.551724	0.000000	-1.000000	-1.000000	969642.000000	1772659827.443676
-41067.360000	-92193.165000	16699.905000	1573.560000	4612.770000	6935.085000	2561.895000	2652.930000	13.235101	11.483200	11.269461	13.588421	16.918822	12.322547	10.158277	24.876825	0.747740	5.127360	-0.335720	0.822019	0.173645	0.512572	-1.000000	-1.000000	-1.000000	-1.000000	-1.000000	-1.000000	-1.000000	78.551724	0.000000	-1.000000	-1.000000	969643.000000	1772659827.447423
-41075.595000	-92199.555000	16680.150000	1553.490000	4591.350000	6911.820000	2531.610000	2640.870000	18.658812	23.671392	24.350669	24.919517	26.285562	20.654839	15.033299	27.132894	0.747740	5.127360	-0.335720	0.822019	0.173645	0.512572	-1.000000	-1.000000	-1.000000	-1.000000	-1.000000	-1.000000	-1.000000	78.551724	0.000000	-1.000000	-1.000000	969644.000000	1772659827.447431
-41006.340000	-92164.950000	16682.805000	1552.275000	4593.105000	6920.415000	2552.535000	2690.910000	17.945825	27.222701	28.034781	26.706235	25.467424	20.440644	12.750841	20.117053	0.747740	5.127360	-0.335720	0.822019	0.173645	0.512572	-1.000000	-1.000000	-1.000000	-1.000000	-1.000000	-1.000000	-1.000000	78.551724	0.000000	-1.000000	-1.000000	969645.000000	1772659827.451365
-40973.895000	-92143.845000	16702.920000	1581.435000	4633.515000	6961.230000	2574.585000	2730.510000	10.937126	18.781072	18.352153	16.039866	13.371520	10.461295	3.946436	5.945013	0.747740	5.127360	-0.335720	0.822019	0.173645	0.512572	-1.000000	-1.000000	-1.000000	-1.000000	-1.000000	-1.000000	-1.000000	78.551724	0.000000	-1.000000	-1.000000	969646.000000	1772659827.451428
-41031.630000	-92208.195000	16677.090000	1561.995000	4617.585000	6942.780000	2549.430000	2651.400000	2.615633	3.603487	1.873789	0.080176	-1.731639	-1.723553	-4.888795	-7.866317	0.747740	5.127360	-0.335720	0.822019	0.173645	0.512572	-1.000000	-1.000000	-1.000000	-1.000000	-1.000000	-1.000000	-1.000000	78.551724	0.000000	-1.000000	-1.000000	969647.000000	1772659827.457409
-41056.200000	-92237.040000	16683.660000	1556.820000	4606.155000	6936.615000	2560.500000	2653.605000	-5.356223	-12.169974	-12.200459	-12.512086	-12.305982	-9.405565	-9.331343	-17.956968	0.747740	5.127360	-0.335720	0.822019	0.173645	0.512572	-1.000000	-1.000000	-1.000000	-1.000000	-1.000000	-1.000000	-1.000000	78.551724	0.000000	-1.000000	-1.000000	969648.000000	1772659827.457415
-41049.765000	-92235.015000	16658.145000	1522.575000	4552.290000	6894.000000	2544.570000	2674.170000	-14.286009	-24.957813	-19.838639	-19.357905	-18.482218	-13.164756	-9.824063	-24.299160	0.747740	5.127360	-0.335720	0.822019	0.173645	0.512572	-1.000000	-1.000000	-1.000000	-1.000000	-1.000000	-1.000000	-1.000000	78.551724	0.000000	-1.000000	-1.000000	969649.000000	1772659827.462927
-41053.185000	-92223.315000	16665.300000	1531.170000	4558.815000	6895.305000	2544.660000	2681.055000	-21.849379	-30.412094	-21.123642	-21.459035	-22.514117	-15.913859	-8.659699	-24.562271	0.747740	5.127360	-0.335720	0.822019	0.173645	0.512572	-1.000000	-1.000000	-1.000000	-1.000000	-1.000000	-1.000000	-1.000000	78.551724	0.000000	-1.000000	-1.000000	969650.000000	1772659827.462937
-41056.605000	-92190.915000	16704.810000	1572.345000	4601.070000	6926.625000	2556.630000	2669.175000	-22.875007	-24.301727	-16.318616	-18.031166	-22.085470	-16.452773	-6.794732	-16.917699	-3.647140	4.883200	0.106820	0.823789	0.180480	0.511656	-1.000000	-1.000000	-1.000000	-1.000000	-1.000000	-1.000000	-1.000000	78.551724	0.000000	-1.000000	-1.000000	969651.000000	1772659827.464676
-41076.270000	-92204.730000	16700.535000	1572.345000	4601.295000	6922.980000	2544.795000	2620.350000	-15.355866	-7.955528	-6.169252	-8.103731	-13.351568	-11.258159	-3.415240	-4.651506	-3.647140	4.883200	0.106820	0.823789	0.180480	0.511656	-1.000000	-1.000000	-1.000000	-1.000000	-1.000000	-1.000000	-1.000000	78.551724	0.000000	-1.000000	-1.000000	969652.000000	1772659827.464685
-41005.575000	-92169.405000	16729.830000	1603.485000	4639.320000	6970.545000	2593.710000	2712.960000	-2.242912	10.652300	5.864434	5.474733	2.277718	-0.172991	2.122175	6.749455	-3.647140	4.883200	0.106820	0.823789	0.180480	0.511656	-1.000000	-1.000000	-1.000000	-1.000000	-1.000000	-1.000000	-1.000000	78.551724	0.000000	-1.000000	-1.000000	969653.000000	1772659827.468208
-40973.490000	-92166.930000	16715.520000	1584.495000	4622.895000	6958.980000	2583.720000	2747.295000	11.089112	22.408083	14.598669	16.582954	17.728719	12.201350	8.403903	14.814731	-3.647140	4.883200	0.106820	0.823789	0.180480	0.511656	-1.000000	-1.000000	-1.000000	-1.000000	-1.000000	-1.000000	-1.000000	78.551724	0.000000	-1.000000	-1.000000	969654.000000	1772659827.468215
-41021.775000	-92211.975000	16666.200000	1531.260000	4570.650000	6912.720000	2551.995000	2696.895000	19.124356	22.646922	15.478113	18.808359	24.099440	18.431392	11.344998	18.521847	-3.647140	4.883200	0.106820	0.823789	0.180480	0.511656	-1.000000	-1.000000	-1.000000	-1.000000	-1.000000	-1.000000	-1.000000	78.551724	0.000000	-1.000000	-1.000000	969655.000000	1772659827.471438
-41100.570000	-92252.745000	16636.455000	1502.820000	4544.190000	6890.220000	2529.720000	2588.985000	17.863529	13.007431	7.313950	9.793449	16.675785	13.587434	7.518817	14.953755	-3.647140	4.883200	0.106820	0.823789	0.180480	0.511656	-1.000000	-1.000000	-1.000000	-1.000000	-1.000000	-1.000000	-1.000000	78.551724	0.000000	-1.000000	-1.000000	969656.000000	1772659827.471446
-41086.935000	-92257.875000	16621.110000	1481.265000	4522.770000	6865.560000	2510.820000	2607.795000	7.558525	-0.362902	-5.590340	-5.334742	0.164054	0.677904	-1.738980	2.651435	-3.647140	4.883200	0.106820	0.823789	0.180480	0.511656	-1.000000	-1.000000	-1.000000	-1.000000	-1.000000	-1.000000	-1.000000	78.551724	0.000000	-1.000000	-1.000000	969657.000000	1772659827.475437
-41050.935000	-92226.780000	16656.255000	1523.160000	4569.435000	6893.550000	2532.780000	2654.415000	-5.080574	-10.402209	-14.914109	-16.342013	-13.586859	-11.057198	-10.712966	-12.136177	-3.647140	4.883200	0.106820	0.823789	0.180480	0.511656	-1.000000	-1.000000	-1.000000	-1.000000	-1.000000	-1.000000	-1.000000	78.551724	0.000000	-1.000000	-1.000000	969658.000000	1772659827.475468
-41015.520000	-92202.030000	16674.660000	1538.910000	4569.525000	6906.015000	2555.820000	2709.045000	-10.572541	-12.302334	-13.817184	-15.311006	-15.115617	-13.447628	-12.943315	-17.653253	-3.647140	4.883200	0.106820	0.823789	0.180480	0.511656	-1.000000	-1.000000	-1.000000	-1.000000	-1.000000	-1.000000	-1.000000	78.551724	0.000000	-1.000000	-1.000000	969659.000000	1772659827.480562
-41073.705000	-92230.245000	16657.380000	1531.755000	4568.715000	6912.630000	2543.625000	2628.180000	-5.836159	-6.811177	-3.574717	-3.894121	-5.903745	-6.074144	-6.513957	-8.984591	-3.647140	4.883200	0.106820	0.823789	0.180480	0.511656	-1.000000	-1.000000	-1.000000	-1.000000	-1.000000	-1.000000	-1.000000	78.551724	0.000000	-1.000000	-1.000000	969660.000000	1772659827.480575
-41096.925000	-92244.915000	16644.780000	1519.740000	4557.870000	6897.510000	2519.280000	2588.535000	2.000983	-0.058186	7.282933	8.350492	4.558128	4.120595	3.427670	4.903044	-4.944240	4.959500	-0.518840	0.824705	0.178222	0.510863	-1.000000	-1.000000	-1.000000	-1.000000	-1.000000	-1.000000	-1.000000	78.551724	0.000000	-1.000000	-1.000000	969661.000000	1772659827.485985
-41062.185000	-92216.430000	16672.860000	1542.960000	4575.870000	6915.330000	2539.800000	2637.810000	3.525646	2.523591	11.826754	13.551728	8.937645	9.547895	9.243008	10.636450	-4.944240	4.959500	-0.518840	0.824705	0.178222	0.510863	-1.000000	-1.000000	-1.000000	-1.000000	-1.000000	-1.000000	-1.000000	78.551724	0.000000	-1.000000	-1.000000	969662.000000	1772659827.485994
-41055.480000	-92202.435000	16688.880000	1554.885000	4580.595000	6924.060000	2554.785000	2647.395000	-2.236668	1.500134	10.535401	11.646427	7.196373	8.301861	8.518180	5.309434	-4.944240	4.959500	-0.518840	0.824705	0.178222	0.510863	-1.000000	-1.000000	-1.000000	-1.000000	-1.000000	-1.000000	-1.000000	78.551724	0.000000	-1.000000	-1.000000	969663.000000	1772659827.489100
-41040.540000	-92176.245000	16715.790000	1580.535000	4605.975000	6935.085000	2552.985000	2654.775000	-6.729582	2.287879	8.804205	8.255375	4.576204	4.775313	5.408114	-1.426439	-4.944240	4.959500	-0.518840	0.824705	0.178222	0.510863	-1.000000	-1.000000	-1.000000	-1.000000	-1.000000	-1.000000	-1.000000	78.551724	0.000000	-1.000000	-1.000000	969664.000000	1772659827.489108
-40957.290000	-92107.440000	16780.230000	1644.120000	4666.635000	6987.465000	2596.455000	2757.375000	-0.785162	9.146476	10.676311	8.441866	6.105824	4.311576	4.610674	1.803902	-4.944240	4.959500	-0.518840	0.824705	0.178222	0.510863	-1.000000	-1.000000	-1.000000	-1.000000	-1.000000	-1.000000	-1.000000	78.551724	0.000000	-1.000000	-1.000000	969665.000000	1772659827.494280
-41021.775000	-92179.395000	16708.545000	1580.355000	4617.360000	6952.230000	2574.990000	2691.405000	13.747159	18.257649	13.648966	10.966039	10.872110	7.368223	6.459879	14.550611	-4.944240	4.959500	-0.518840	0.824705	0.178222	0.510863	-1.000000	-1.000000	-1.000000	-1.000000	-1.000000	-1.000000	-1.000000	78.551724	0.000000	-1.000000	-1.000000	969666.000000	1772659827.494287
-41091.300000	-92275.020000	16614.135000	1491.885000	4541.175000	6886.890000	2529.360000	2625.930000	21.537192	16.996226	8.166361	6.834642	10.101269	7.389126	6.014121	20.947379	-4.944240	4.959500	-0.518840	0.824705	0.178222	0.510863	-1.000000	-1.000000	-1.000000	-1.000000	-1.000000	-1.000000	-1.000000	78.551724	0.000000	-1.000000	-1.000000	969667.000000	1772659827.503314
-41039.415000	-92214.720000	16672.050000	1553.175000	4595.355000	6930.855000	2553.525000	2670.120000	11.099476	-1.536306	-10.629313	-9.579642	-2.686966	-1.760848	-1.387747	8.408971	-4.944240	4.959500	-0.518840	0.824705	0.178222	0.510863	-1.000000	-1.000000	-1.000000	-1.000000	-1.000000	-1.000000	-1.000000	78.551724	0.000000	-1.000000	-1.000000	969668.000000	1772659827.503321
-40934.745000	-92121.930000	16748.865000	1628.280000	4667.265000	6998.670000	2609.685000	2801.790000	-7.483509	-23.839915	-30.183037	-27.411832	-18.985275	-14.499785	-11.290229	-11.816904	-4.944240	4.959500	-0.518840	0.824705	0.178222	0.510863	-1.000000	-1.000000	-1.000000	-1.000000	-1.000000	-1.000000	-1.000000	78.551724	0.000000	-1.000000	-1.000000	969669.000000	1772659827.503329
-41044.590000	-92197.530000	16679.970000	1550.970000	4592.520000	6924.555000	2548.800000	2651.715000	-16.687500	-30.383636	-33.285231	-30.820816	-24.785393	-19.721455	-14.833459	-20.272820	-4.944240	4.959500	-0.518840	0.824705	0.178222	0.510863	-1.000000	-1.000000	-1.000000	-1.000000	-1.000000	-1.000000	-1.000000	78.551724	0.000000	-1.000000	-1.000000	969670.000000	1772659827.503332
-41101.875000	-92246.265000	16629.660000	1497.330000	4558.995000	6882.660000	2520.270000	2594.430000	-16.582216	-20.584353	-20.339439	-20.081570	-19.052570	-16.550119	-11.848659	-18.515205	-2.929920	4.074420	-0.824040	0.824400	0.171875	0.509703	-1.000000	-1.000000	-1.000000	-1.000000	-1.000000	-1.000000	-1.000000	78.551724	0.000000	-1.000000	-1.000000	969671.000000	1772659827.503469
-41085.045000	-92235.150000	16646.850000	1513.260000	4582.035000	6892.155000	2527.560000	2624.040000	-16.733483	-7.515894	-4.370132	-6.652320	-9.706417	-11.275678	-8.091279	-18.470896	-2.929920	4.074420	-0.824040	0.824400	0.171875	0.509703	-1.000000	-1.000000	-1.000000	-1.000000	-1.000000	-1.000000	-1.000000	78.551724	0.000000	-1.000000	-1.000000	969672.000000	1772659827.503473
-41074.470000	-92214.630000	16671.420000	1541.610000	4603.455000	6908.760000	2528.775000	2630.385000	-16.716160	1.723783	7.001869	3.586065	-0.644135	-5.640085	-4.933725	-18.732635	-2.929920	4.074420	-0.824040	0.824400	0.171875	0.509703	-1.000000	-1.000000	-1.000000	-1.000000	-1.000000	-1.000000	-1.000000	78.551724	0.000000	-1.000000	-1.000000	969673.000000	1772659827.507448
-41052.150000	-92196.360000	16687.980000	1558.620000	4601.250000	6928.965000	2542.590000	2641.995000	-10.760008	7.965773	13.864348	11.420083	7.587625	2.036293	-0.569340	-12.176402	-2.929920	4.074420	-0.824040	0.824400	0.171875	0.509703	-1.000000	-1.000000	-1.000000	-1.000000	-1.000000	-1.000000	-1.000000	78.551724	0.000000	-1.000000	-1.000000	969674.000000	1772659827.507455
-41052.915000	-92201.895000	16680.780000	1553.805000	4591.035000	6927.525000	2538.180000	2644.785000	2.417336	13.826188	18.646674	18.474446	14.112423	11.826153	5.575023	1.796175	-2.929920	4.074420	-0.824040	0.824400	0.171875	0.509703	-1.000000	-1.000000	-1.000000	-1.000000	-1.000000	-1.000000	-1.000000	78.551724	0.000000	-1.000000	-1.000000	969675.000000	1772659827.512886
-41060.115000	-92201.445000	16685.730000	1556.235000	4576.680000	6926.580000	2558.835000	2655.630000	18.638335	20.000789	22.462741	24.209871	17.817034	20.985113	12.399035	18.757020	-2.929920	4.074420	-0.824040	0.824400	0.171875	0.509703	-1.000000	-1.000000	-1.000000	-1.000000	-1.000000	-1.000000	-1.000000	78.551724	0.000000	-1.000000	-1.000000	969676.000000	1772659827.512894
-41038.920000	-92199.150000	16675.200000	1535.580000	4545.045000	6904.665000	2556.810000	2665.935000	29.024217	21.910124	21.576948	23.611318	15.557656	23.375662	16.673105	30.604724	-2.929920	4.074420	-0.824040	0.824400	0.171875	0.509703	-1.000000	-1.000000	-1.000000	-1.000000	-1.000000	-1.000000	-1.000000	78.551724	0.000000	-1.000000	-1.000000	969677.000000	1772659827.516966
-41036.760000	-92203.380000	16672.095000	1538.055000	4562.370000	6910.650000	2550.690000	2666.700000	26.221666	13.841713	11.162915	11.889178	5.040512	14.269157	14.526763	29.675164	-2.929920	4.074420	-0.824040	0.824400	0.171875	0.509703	-1.000000	-1.000000	-1.000000	-1.000000	-1.000000	-1.000000	-1.000000	78.551724	0.000000	-1.000000	-1.000000	969678.000000	1772659827.516975
-41035.950000	-92196.495000	16688.520000	1560.060000	4592.745000	6937.245000	2571.660000	2686.050000	12.884829	-1.326801	-5.059070	-5.617895	-7.315145	-1.138666	6.631516	17.785349	-2.929920	4.074420	-0.824040	0.824400	0.171875	0.509703	-1.000000	-1.000000	-1.000000	-1.000000	-1.000000	-1.000000	-1.000000	78.551724	0.000000	-1.000000	-1.000000	969679.000000	1772659827.522852
-40999.995000	-92165.220000	16714.710000	1584.135000	4617.990000	6962.940000	2605.230000	2726.505000	-0.532790	-12.793621	-15.862523	-16.079133	-10.536132	-10.771222	-0.863072	5.288082	-2.929920	4.074420	-0.824040	0.824400	0.171875	0.509703	-1.000000	-1.000000	-1.000000	-1.000000	-1.000000	-1.000000	-1.000000	78.551724	0.000000	-1.000000	-1.000000	969680.000000	1772659827.522859
-41040.405000	-92203.650000	16676.235000	1546.335000	4585.050000	6926.895000	2571.660000	2674.890000	-7.384094	-14.208521	-15.722577	-14.328696	-3.272961	-9.703996	-3.831503	-2.028662	-1.571780	2.060100	-0.457800	0.821958	0.171691	0.511351	-1.000000	-1.000000	-1.000000	-1.000000	-1.000000	-1.000000	-1.000000	78.551724	0.000000	-1.000000	-1.000000	969681.000000	1772659827.523492
-41052.195000	-92193.030000	16694.415000	1563.795000	4596.885000	6923.610000	2536.830000	2652.255000	-10.531576	-9.900877	-10.204724	-7.624558	4.721168	-4.701442	-5.320795	-8.448151	-1.571780	2.060100	-0.457800	0.821958	0.171691	0.511351	-1.000000	-1.000000	-1.000000	-1.000000	-1.000000	-1.000000	-1.000000	78.551724	0.000000	-1.000000	-1.000000	969682.000000	1772659827.523499
-41041.620000	-92170.395000	16709.265000	1572.255000	4600.755000	6929.325000	2546.505000	2668.545000	-14.408764	-6.045957	-5.726588	-3.639731	5.872684	-3.383697	-9.480258	-17.728754	-1.571780	2.060100	-0.457800	0.821958	0.171691	0.511351	-1.000000	-1.000000	-1.000000	-1.000000	-1.000000	-1.000000	-1.000000	78.551724	0.000000	-1.000000	-1.000000	969683.000000	1772659827.530290
-41035.275000	-92176.155000	16700.670000	1563.795000	4596.390000	6928.245000	2555.055000	2686.905000	-16.838417	-2.771683	-2.267606	-2.372231	1.864956	-5.477669	-14.095766	-24.672297	-1.571780	2.060100	-0.457800	0.821958	0.171691	0.511351	-1.000000	-1.000000	-1.000000	-1.000000	-1.000000	-1.000000	-1.000000	78.551724	0.000000	-1.000000	-1.000000	969684.000000	1772659827.530296
-41042.655000	-92186.775000	16695.810000	1563.660000	4597.470000	6928.785000	2554.110000	2656.980000	-13.741838	0.938627	1.278886	-1.325283	-2.314598	-6.638397	-14.072981	-22.842037	-1.571780	2.060100	-0.457800	0.821958	0.171691	0.511351	-1.000000	-1.000000	-1.000000	-1.000000	-1.000000	-1.000000	-1.000000	78.551724	0.000000	-1.000000	-1.000000	969685.000000	1772659827.534075
-41024.520000	-92189.745000	16684.470000	1553.130000	4589.505000	6928.245000	2562.975000	2673.135000	-6.239001	2.765445	3.118218	-0.381403	-4.502937	-4.862842	-8.253127	-13.539632	-1.571780	2.060100	-0.457800	0.821958	0.171691	0.511351	-1.000000	-1.000000	-1.000000	-1.000000	-1.000000	-1.000000	-1.000000	78.551724	0.000000	-1.000000	-1.000000	969686.000000	1772659827.534082
-41041.035000	-92198.610000	16660.440000	1532.115000	4576.410000	6913.620000	2542.005000	2649.690000	1.743420	1.283800	1.804652	-0.372357	-5.403200	-1.242917	0.524219	-2.026923	-1.571780	2.060100	-0.457800	0.821958	0.171691	0.511351	-1.000000	-1.000000	-1.000000	-1.000000	-1.000000	-1.000000	-1.000000	78.551724	0.000000	-1.000000	-1.000000	969687.000000	1772659827.538135
-41038.875000	-92178.540000	16666.560000	1536.795000	4588.560000	6917.985000	2538.045000	2653.155000	7.668924	-1.130948	-1.405190	-1.195744	-6.034582	1.978100	7.812183	7.782764	-1.571780	2.060100	-0.457800	0.821958	0.171691	0.511351	-1.000000	-1.000000	-1.000000	-1.000000	-1.000000	-1.000000	-1.000000	78.551724	0.000000	-1.000000	-1.000000	969688.000000	1772659827.538142
-41005.665000	-92159.865000	16683.345000	1553.220000	4591.170000	6924.735000	2547.810000	2692.260000	10.693178	-1.152774	-3.435829	-1.399720	-5.893482	3.548720	10.290510	13.887047	-1.571780	2.060100	-0.457800	0.821958	0.171691	0.511351	-1.000000	-1.000000	-1.000000	-1.000000	-1.000000	-1.000000	-1.000000	78.551724	0.000000	-1.000000	-1.000000	969689.000000	1772659827.540922
-40993.965000	-92158.290000	16729.785000	1602.540000	4623.705000	6959.385000	2580.930000	2726.145000	11.764012	2.204001	-1.107419	1.345017	-3.255665	4.704030	9.335361	17.365397	-1.571780	2.060100	-0.457800	0.821958	0.171691	0.511351	-1.000000	-1.000000	-1.000000	-1.000000	-1.000000	-1.000000	-1.000000	78.551724	0.000000	-1.000000	-1.000000	969690.000000	1772659827.540931
-41014.440000	-92141.955000	16783.470000	1651.680000	4670.235000	6982.695000	2588.130000	2692.170000	11.464048	6.572395	6.360860	7.964852	3.014764	7.368571	9.133423	19.341036	-3.006220	2.380560	-0.961380	0.821836	0.173950	0.510558	-1.000000	-1.000000	-1.000000	-1.000000	-1.000000	-1.000000	-1.000000	78.551724	0.000000	-1.000000	-1.000000	969691.000000	1772659827.543453
-41032.440000	-92183.760000	16707.960000	1575.990000	4607.685000	6929.640000	2559.150000	2664.945000	7.780936	7.806924	14.376802	14.530649	10.494416	9.906793	9.803210	16.224221	-3.006220	2.380560	-0.961380	0.821836	0.173950	0.510558	-1.000000	-1.000000	-1.000000	-1.000000	-1.000000	-1.000000	-1.000000	78.551724	0.000000	-1.000000	-1.000000	969692.000000	1772659827.543459
-40913.955000	-92090.340000	16780.095000	1644.705000	4681.305000	7014.375000	2641.410000	2826.405000	1.268670	4.773133	15.774182	14.550751	13.980615	8.733007	8.020661	6.954924	-3.006220	2.380560	-0.961380	0.821836	0.173950	0.510558	-1.000000	-1.000000	-1.000000	-1.000000	-1.000000	-1.000000	-1.000000	78.551724	0.000000	-1.000000	-1.000000	969693.000000	1772659827.549508
-40942.125000	-92094.255000	16784.190000	1651.005000	4684.320000	7010.505000	2618.145000	2750.535000	-2.843775	1.520670	9.384703	7.333932	11.824022	4.474960	3.452789	-1.718263	-3.006220	2.380560	-0.961380	0.821836	0.173950	0.510558	-1.000000	-1.000000	-1.000000	-1.000000	-1.000000	-1.000000	-1.000000	78.551724	0.000000	-1.000000	-1.000000	969694.000000	1772659827.549515
-41163.120000	-92309.130000	16573.590000	1442.385000	4482.405000	6823.890000	2469.825000	2491.695000	-6.015092	-1.812154	-2.471206	-4.497101	3.743756	-2.357140	-4.154281	-9.835474	-3.006220	2.380560	-0.961380	0.821836	0.173950	0.510558	-1.000000	-1.000000	-1.000000	-1.000000	-1.000000	-1.000000	-1.000000	78.551724	0.000000	-1.000000	-1.000000	969695.000000	1772659827.551560
-41112.855000	-92268.765000	16612.695000	1482.030000	4521.330000	6859.620000	2500.515000	2583.945000	-15.825711	-11.287093	-19.261541	-20.402107	-12.155799	-14.529912	-16.317762	-24.437053	-3.006220	2.380560	-0.961380	0.821836	0.173950	0.510558	-1.000000	-1.000000	-1.000000	-1.000000	-1.000000	-1.000000	-1.000000	78.551724	0.000000	-1.000000	-1.000000	969696.000000	1772659827.551568
-41064.930000	-92218.860000	16662.600000	1530.810000	4565.880000	6896.610000	2526.435000	2634.255000	-27.404565	-23.418537	-33.193021	-33.011692	-28.619240	-26.709211	-26.914394	-37.650382	-3.006220	2.380560	-0.961380	0.821836	0.173950	0.510558	-1.000000	-1.000000	-1.000000	-1.000000	-1.000000	-1.000000	-1.000000	78.551724	0.000000	-1.000000	-1.000000	969697.000000	1772659827.555512
-41057.010000	-92202.435000	16683.075000	1551.105000	4584.420000	6915.420000	2548.035000	2648.745000	-26.243828	-24.497534	-31.071297	-29.779615	-30.767103	-26.414848	-25.234012	-32.775782	-3.006220	2.380560	-0.961380	0.821836	0.173950	0.510558	-1.000000	-1.000000	-1.000000	-1.000000	-1.000000	-1.000000	-1.000000	78.551724	0.000000	-1.000000	-1.000000	969698.000000	1772659827.555519
-41047.065000	-92187.180000	16700.265000	1567.620000	4601.205000	6933.780000	2566.800000	2660.850000	-8.428695	-9.172774	-11.547989	-9.860262	-14.440938	-10.428192	-9.302860	-8.237788	-3.006220	2.380560	-0.961380	0.821836	0.173950	0.510558	-1.000000	-1.000000	-1.000000	-1.000000	-1.000000	-1.000000	-1.000000	78.551724	0.000000	-1.000000	-1.000000	969699.000000	1772659827.559824
-41046.930000	-92192.715000	16690.005000	1557.810000	4596.930000	6931.395000	2563.695000	2654.505000	16.416974	13.773295	13.039429	14.405030	9.774907	11.922794	12.265801	22.332406	-3.006220	2.380560	-0.961380	0.821836	0.173950	0.510558	-1.000000	-1.000000	-1.000000	-1.000000	-1.000000	-1.000000	-1.000000	78.551724	0.000000	-1.000000	-1.000000	969700.000000	1772659827.559832
-41035.095000	-92194.290000	16685.505000	1554.705000	4598.640000	6929.730000	2556.630000	2666.880000	34.608537	30.672102	29.615841	30.387593	28.227944	28.376408	27.576067	42.472425	-2.975700	2.517900	-0.335720	0.823301	0.176086	0.507872	-1.000000	-1.000000	-1.000000	-1.000000	-1.000000	-1.000000	-1.000000	78.551724	0.000000	-1.000000	-1.000000	969701.000000	1772659827.563610
-41008.905000	-92153.385000	16733.160000	1604.430000	4643.595000	6961.095000	2570.085000	2691.900000	36.190911	32.384401	32.215585	32.542127	32.984553	31.035044	28.399612	41.550914	-2.975700	2.517900	-0.335720	0.823301	0.176086	0.507872	-1.000000	-1.000000	-1.000000	-1.000000	-1.000000	-1.000000	-1.000000	78.551724	0.000000	-1.000000	-1.000000	969702.000000	1772659827.563618
-41054.355000	-92198.925000	16678.710000	1549.260000	4588.605000	6924.690000	2552.535000	2644.380000	22.026265	20.235470	23.083877	23.164622	24.616146	20.635597	16.261771	23.063528	-2.975700	2.517900	-0.335720	0.823301	0.176086	0.507872	-1.000000	-1.000000	-1.000000	-1.000000	-1.000000	-1.000000	-1.000000	78.551724	0.000000	-1.000000	-1.000000	969703.000000	1772659827.567344
-41007.375000	-92180.745000	16678.710000	1547.055000	4587.030000	6926.085000	2564.640000	2707.065000	4.727139	5.162835	10.616773	10.360764	10.935232	6.439865	2.136845	3.751564	-2.975700	2.517900	-0.335720	0.823301	0.176086	0.507872	-1.000000	-1.000000	-1.000000	-1.000000	-1.000000	-1.000000	-1.000000	78.551724	0.000000	-1.000000	-1.000000	969704.000000	1772659827.567349
-40978.395000	-92161.350000	16706.970000	1578.015000	4620.105000	6957.495000	2597.085000	2755.080000	-4.158552	-3.740022	1.452779	0.635543	-0.580618	-3.080237	-4.696982	-3.925052	-2.975700	2.517900	-0.335720	0.823301	0.176086	0.507872	-1.000000	-1.000000	-1.000000	-1.000000	-1.000000	-1.000000	-1.000000	78.551724	0.000000	-1.000000	-1.000000	969705.000000	1772659827.571629
-40978.620000	-92151.945000	16719.120000	1590.030000	4629.195000	6967.080000	2612.115000	2749.455000	-5.904031	-7.647006	-4.999992	-6.225230	-8.578425	-7.510250	-4.746793	-3.982549	-2.975700	2.517900	-0.335720	0.823301	0.176086	0.507872	-1.000000	-1.000000	-1.000000	-1.000000	-1.000000	-1.000000	-1.000000	78.551724	0.000000	-1.000000	-1.000000	969706.000000	1772659827.571637
-40957.290000	-92112.390000	16753.455000	1622.880000	4658.085000	6989.445000	2621.520000	2747.070000	-7.977898	-11.037234	-11.321364	-12.433596	-14.298168	-10.231368	-3.759707	-6.959156	-2.975700	2.517900	-0.335720	0.823301	0.176086	0.507872	-1.000000	-1.000000	-1.000000	-1.000000	-1.000000	-1.000000	-1.000000	78.551724	0.000000	-1.000000	-1.000000	969707.000000	1772659827.575449
-41123.880000	-92251.395000	16626.915000	1499.490000	4540.365000	6875.010000	2498.805000	2537.370000	-14.652224	-15.626480	-18.238527	-18.778395	-18.841877	-14.049038	-7.065225	-18.392879	-2.975700	2.517900	-0.335720	0.823301	0.176086	0.507872	-1.000000	-1.000000	-1.000000	-1.000000	-1.000000	-1.000000	-1.000000	78.551724	0.000000	-1.000000	-1.000000	969708.000000	1772659827.575456
-41078.745000	-92220.705000	16651.755000	1520.595000	4558.185000	6886.440000	2505.645000	2596.860000	-25.710149	-21.628102	-25.046012	-24.851040	-23.051374	-19.979501	-16.402955	-35.988547	-2.975700	2.517900	-0.335720	0.823301	0.176086	0.507872	-1.000000	-1.000000	-1.000000	-1.000000	-1.000000	-1.000000	-1.000000	78.551724	0.000000	-1.000000	-1.000000	969709.000000	1772659827.579466
-41072.265000	-92209.005000	16672.860000	1545.075000	4586.400000	6911.010000	2535.660000	2623.050000	-34.007771	-25.108957	-27.011801	-26.306653	-23.820217	-23.821319	-25.455251	-47.313071	-2.975700	2.517900	-0.335720	0.823301	0.176086	0.507872	-1.000000	-1.000000	-1.000000	-1.000000	-1.000000	-1.000000	-1.000000	78.551724	0.000000	-1.000000	-1.000000	969710.000000	1772659827.579471
-41048.505000	-92202.435000	16673.670000	1541.745000	4587.030000	6915.420000	2557.845000	2661.705000	-29.330929	-19.759153	-18.694272	-17.978461	-16.067426	-18.815727	-23.633232	-37.777677	-2.044840	3.692920	-0.320460	0.823606	0.174560	0.505065	-1.000000	-1.000000	-1.000000	-1.000000	-1.000000	-1.000000	-1.000000	78.551724	0.000000	-1.000000	-1.000000	969711.000000	1772659827.583446
-41044.995000	-92199.465000	16677.135000	1548.405000	4598.010000	6921.495000	2554.920000	2660.670000	-8.216105	-3.604519	-0.134451	0.160493	1.142738	-2.853006	-7.023217	-5.129134	-2.044840	3.692920	-0.320460	0.823606	0.174560	0.505065	-1.000000	-1.000000	-1.000000	-1.000000	-1.000000	-1.000000	-1.000000	78.551724	0.000000	-1.000000	-1.000000	969712.000000	1772659827.583452
-41035.590000	-92181.555000	16696.620000	1565.415000	4599.180000	6925.545000	2552.130000	2661.975000	20.972341	18.123326	22.226721	22.031462	22.115392	18.375174	16.495553	35.002821	-2.044840	3.692920	-0.320460	0.823606	0.174560	0.505065	-1.000000	-1.000000	-1.000000	-1.000000	-1.000000	-1.000000	-1.000000	78.551724	0.000000	-1.000000	-1.000000	969713.000000	1772659827.591941
-41036.895000	-92185.155000	16689.465000	1557.045000	4587.030000	6922.080000	2554.605000	2665.260000	41.531873	33.875746	36.734458	36.266821	35.061322	32.949011	32.364806	58.295699	-2.044840	3.692920	-0.320460	0.823606	0.174560	0.505065	-1.000000	-1.000000	-1.000000	-1.000000	-1.000000	-1.000000	-1.000000	78.551724	0.000000	-1.000000	-1.000000	969714.000000	1772659827.591948
-41032.665000	-92183.265000	16687.710000	1555.695000	4589.640000	6932.385000	2563.965000	2682.405000	41.716981	33.761317	33.759230	33.263289	30.688403	31.574869	31.256514	52.275699	-2.044840	3.692920	-0.320460	0.823606	0.174560	0.505065	-1.000000	-1.000000	-1.000000	-1.000000	-1.000000	-1.000000	-1.000000	78.551724	0.000000	-1.000000	-1.000000	969715.000000	1772659827.592162
-40978.755000	-92128.815000	16742.790000	1607.985000	4636.125000	6972.075000	2596.500000	2753.370000	25.247848	19.278118	15.686051	15.356804	12.560165	16.776656	16.885436	27.076007	-2.044840	3.692920	-0.320460	0.823606	0.174560	0.505065	-1.000000	-1.000000	-1.000000	-1.000000	-1.000000	-1.000000	-1.000000	78.551724	0.000000	-1.000000	-1.000000	969716.000000	1772659827.592171
-40951.530000	-92113.920000	16753.770000	1619.730000	4649.220000	6973.155000	2597.310000	2775.465000	7.356900	2.974002	-3.310885	-3.371216	-4.915270	0.779037	1.918412	4.591852	-2.044840	3.692920	-0.320460	0.823606	0.174560	0.505065	-1.000000	-1.000000	-1.000000	-1.000000	-1.000000	-1.000000	-1.000000	78.551724	0.000000	-1.000000	-1.000000	969717.000000	1772659827.595374
-41001.885000	-92137.500000	16738.245000	1607.715000	4637.790000	6958.620000	2576.835000	2707.740000	-2.349291	-5.461253	-11.933061	-11.668112	-11.390656	-7.533949	-5.382814	-5.236276	-2.044840	3.692920	-0.320460	0.823606	0.174560	0.505065	-1.000000	-1.000000	-1.000000	-1.000000	-1.000000	-1.000000	-1.000000	78.551724	0.000000	-1.000000	-1.000000	969718.000000	1772659827.595380
-41117.040000	-92218.455000	16666.695000	1543.185000	4581.180000	6901.875000	2518.245000	2561.040000	-10.265277	-9.889691	-13.435838	-12.669041	-10.841896	-11.063869	-8.896710	-13.909439	-2.044840	3.692920	-0.320460	0.823606	0.174560	0.505065	-1.000000	-1.000000	-1.000000	-1.000000	-1.000000	-1.000000	-1.000000	78.551724	0.000000	-1.000000	-1.000000	969719.000000	1772659827.605108
-41097.150000	-92228.490000	16650.360000	1525.320000	4566.645000	6895.170000	2525.760000	2590.245000	-24.123653	-17.599825	-16.280995	-14.862452	-12.102226	-15.917801	-15.018712	-32.038824	-2.044840	3.692920	-0.320460	0.823606	0.174560	0.505065	-1.000000	-1.000000	-1.000000	-1.000000	-1.000000	-1.000000	-1.000000	78.551724	0.000000	-1.000000	-1.000000	969720.000000	1772659827.605116
-41045.040000	-92196.855000	16668.900000	1538.820000	4578.210000	6905.250000	2539.665000	2641.635000	-36.521845	-25.591707	-20.178067	-18.503235	-15.615665	-20.515636	-21.109104	-48.827603	-1.083460	2.670500	-1.083460	0.822325	0.172668	0.504943	-1.000000	-1.000000	-1.000000	-1.000000	-1.000000	-1.000000	-1.000000	78.551724	0.000000	-1.000000	-1.000000	969721.000000	1772659827.605125
-40951.980000	-92099.520000	16742.430000	1609.470000	4653.855000	6965.370000	2584.170000	2746.125000	-32.966909	-23.932194	-17.994033	-17.091495	-14.758033	-18.343162	-19.435308	-44.713858	-1.083460	2.670500	-1.083460	0.822325	0.172668	0.504943	-1.000000	-1.000000	-1.000000	-1.000000	-1.000000	-1.000000	-1.000000	78.551724	0.000000	-1.000000	-1.000000	969722.000000	1772659827.605129
-40884.615000	-92029.545000	16810.785000	1676.700000	4746.285000	7036.110000	2638.845000	2831.985000	-9.073443	-7.253717	-5.012889	-5.738800	-3.835041	-5.839715	-6.993576	-13.999589	-1.083460	2.670500	-1.083460	0.822325	0.172668	0.504943	-1.000000	-1.000000	-1.000000	-1.000000	-1.000000	-1.000000	-1.000000	78.551724	0.000000	-1.000000	-1.000000	969723.000000	1772659827.607522
-41107.005000	-92254.005000	16601.805000	1482.345000	4552.875000	6883.335000	2523.285000	2569.860000	20.583820	14.835314	12.044451	10.007996	12.280845	10.874759	9.471403	25.104455	-1.083460	2.670500	-1.083460	0.822325	0.172668	0.504943	-1.000000	-1.000000	-1.000000	-1.000000	-1.000000	-1.000000	-1.000000	78.551724	0.000000	-1.000000	-1.000000	969724.000000	1772659827.607530
-41143.770000	-92305.170000	16588.845000	1471.635000	4492.755000	6864.885000	2514.195000	2560.275000	30.797988	20.967508	16.492919	14.749007	16.766045	17.355764	17.154847	41.721172	-1.083460	2.670500	-1.083460	0.822325	0.172668	0.504943	-1.000000	-1.000000	-1.000000	-1.000000	-1.000000	-1.000000	-1.000000	78.551724	0.000000	-1.000000	-1.000000	969725.000000	1772659827.611400
-41076.720000	-92230.425000	16661.340000	1527.795000	4516.335000	6889.455000	2542.410000	2636.190000	14.044539	4.632584	4.018469	3.864593	1.984727	8.226796	11.533121	26.197451	-1.083460	2.670500	-1.083460	0.822325	0.172668	0.504943	-1.000000	-1.000000	-1.000000	-1.000000	-1.000000	-1.000000	-1.000000	78.551724	0.000000	-1.000000	-1.000000	969726.000000	1772659827.611408
-41042.295000	-92182.950000	16689.780000	1556.145000	4585.950000	6906.870000	2549.340000	2656.620000	-8.576861	-14.020034	-8.626750	-7.878949	-16.669314	-4.883072	1.607690	1.481440	-1.083460	2.670500	-1.083460	0.822325	0.172668	0.504943	-1.000000	-1.000000	-1.000000	-1.000000	-1.000000	-1.000000	-1.000000	78.551724	0.000000	-1.000000	-1.000000	969727.000000	1772659827.615378
-41025.375000	-92166.255000	16710.300000	1571.220000	4603.185000	6923.250000	2544.345000	2653.245000	-12.937535	-13.036772	-5.468574	-5.685214	-18.381585	-8.091984	-2.448530	-6.843962	-1.083460	2.670500	-1.083460	0.822325	0.172668	0.504943	-1.000000	-1.000000	-1.000000	-1.000000	-1.000000	-1.000000	-1.000000	78.551724	0.000000	-1.000000	-1.000000	969728.000000	1772659827.615384
-41029.380000	-92184.525000	16693.470000	1557.720000	4589.010000	6916.230000	2545.830000	2664.630000	2.846823	7.473841	11.590344	9.583065	0.365161	1.069861	0.752623	3.567321	-1.083460	2.670500	-1.083460	0.822325	0.172668	0.504943	-1.000000	-1.000000	-1.000000	-1.000000	-1.000000	-1.000000	-1.000000	78.551724	0.000000	-1.000000	-1.000000	969729.000000	1772659827.619439
-41032.530000	-92180.925000	16694.235000	1559.025000	4588.695000	6919.200000	2550.555000	2664.810000	20.245623	27.977511	26.523933	23.886772	23.454822	13.237752	5.393846	15.732190	-1.083460	2.670500	-1.083460	0.822325	0.172668	0.504943	-1.000000	-1.000000	-1.000000	-1.000000	-1.000000	-1.000000	-1.000000	78.551724	0.000000	-1.000000	-1.000000	969730.000000	1772659827.619446
-41039.820000	-92174.445000	16699.860000	1567.170000	4601.565000	6930.945000	2549.745000	2649.870000	20.573539	29.254959	24.286709	23.173537	31.360118	16.490104	5.048541	12.797260	-3.647140	1.953280	-0.930860	0.822996	0.176574	0.505980	-1.000000	-1.000000	-1.000000	-1.000000	-1.000000	-1.000000	-1.000000	78.551724	0.000000	-1.000000	-1.000000	969731.000000	1772659827.623337
-41037.705000	-92183.490000	16693.920000	1567.395000	4614.255000	6941.880000	2557.845000	2664.045000	2.785027	9.927229	4.903336	6.649785	18.824237	7.718929	-1.300400	-5.632611	-3.647140	1.953280	-0.930860	0.822996	0.176574	0.505980	-1.000000	-1.000000	-1.000000	-1.000000	-1.000000	-1.000000	-1.000000	78.551724	0.000000	-1.000000	-1.000000	969732.000000	1772659827.623343
-41025.420000	-92171.295000	16706.745000	1578.870000	4624.695000	6948.990000	2568.555000	2687.760000	-15.586604	-12.374394	-15.650734	-11.651313	-0.898367	-4.091924	-7.234908	-21.527456	-3.647140	1.953280	-0.930860	0.822996	0.176574	0.505980	-1.000000	-1.000000	-1.000000	-1.000000	-1.000000	-1.000000	-1.000000	78.551724	0.000000	-1.000000	-1.000000	969733.000000	1772659827.627408
-41034.060000	-92169.495000	16706.430000	1575.450000	4614.390000	6942.060000	2559.195000	2654.145000	-17.932836	-19.540032	-21.916858	-17.779577	-11.018093	-8.433528	-6.124727	-19.107414	-3.647140	1.953280	-0.930860	0.822996	0.176574	0.505980	-1.000000	-1.000000	-1.000000	-1.000000	-1.000000	-1.000000	-1.000000	78.551724	0.000000	-1.000000	-1.000000	969734.000000	1772659827.627412
-40972.095000	-92135.565000	16730.910000	1596.330000	4627.170000	6961.365000	2582.910000	2745.405000	-6.116393	-11.525421	-14.577951	-12.276170	-9.331133	-5.082169	0.323020	-3.281626	-3.647140	1.953280	-0.930860	0.822996	0.176574	0.505980	-1.000000	-1.000000	-1.000000	-1.000000	-1.000000	-1.000000	-1.000000	78.551724	0.000000	-1.000000	-1.000000	969735.000000	1772659827.631389
-41049.225000	-92198.970000	16666.650000	1531.305000	4569.660000	6907.095000	2541.645000	2646.000000	6.446234	-1.527398	-5.112440	-5.311232	-6.192296	-1.337750	5.405134	11.079626	-3.647140	1.953280	-0.930860	0.822996	0.176574	0.505980	-1.000000	-1.000000	-1.000000	-1.000000	-1.000000	-1.000000	-1.000000	78.551724	0.000000	-1.000000	-1.000000	969736.000000	1772659827.631396
-41044.140000	-92205.585000	16656.390000	1522.170000	4562.955000	6899.985000	2539.125000	2648.205000	9.201121	0.303156	-1.948369	-4.062777	-9.437012	-2.757908	4.827274	13.937385	-3.647140	1.953280	-0.930860	0.822996	0.176574	0.505980	-1.000000	-1.000000	-1.000000	-1.000000	-1.000000	-1.000000	-1.000000	78.551724	0.000000	-1.000000	-1.000000	969737.000000	1772659827.635521
-41053.770000	-92186.055000	16675.695000	1555.425000	4602.555000	6935.085000	2559.195000	2659.005000	0.960853	-5.297280	-4.448244	-7.037136	-15.815327	-7.935775	-0.535061	4.255797	-3.647140	1.953280	-0.930860	0.822996	0.176574	0.505980	-1.000000	-1.000000	-1.000000	-1.000000	-1.000000	-1.000000	-1.000000	78.551724	0.000000	-1.000000	-1.000000	969738.000000	1772659827.635530
-41044.995000	-92176.470000	16678.710000	1564.380000	4617.945000	6941.070000	2556.270000	2657.745000	-10.995448	-10.739072	-6.442081	-7.739106	-16.455462	-10.662855	-6.190506	-10.145586	-3.647140	1.953280	-0.930860	0.822996	0.176574	0.505980	-1.000000	-1.000000	-1.000000	-1.000000	-1.000000	-1.000000	-1.000000	78.551724	0.000000	-1.000000	-1.000000	969739.000000	1772659827.639486
-41013.540000	-92174.130000	16683.345000	1560.015000	4611.780000	6943.455000	2570.445000	2696.085000	-17.458911	-10.594415	-4.116405	-3.310525	-8.582030	-7.835149	-8.499311	-19.034314	-3.647140	1.953280	-0.930860	0.822996	0.176574	0.505980	-1.000000	-1.000000	-1.000000	-1.000000	-1.000000	-1.000000	-1.000000	78.551724	0.000000	-1.000000	-1.000000	969740.000000	1772659827.639494
-41028.165000	-92197.890000	16680.735000	1541.790000	4577.355000	6923.745000	2572.065000	2680.245000	-12.814491	-4.255726	2.324533	3.812060	2.632767	-1.566627	-6.322808	-16.049618	-3.647140	2.960440	-0.213640	0.824522	0.175781	0.505492	-1.000000	-1.000000	-1.000000	-1.000000	-1.000000	-1.000000	-1.000000	78.551724	0.000000	-1.000000	-1.000000	969741.000000	1772659827.643584
-41068.395000	-92220.885000	16653.600000	1506.780000	4532.445000	6884.460000	2549.700000	2633.310000	0.716408	5.383769	10.266578	9.656381	10.724910	4.421035	-0.768435	-3.018201	-3.647140	2.960440	-0.213640	0.824522	0.175781	0.505492	-1.000000	-1.000000	-1.000000	-1.000000	-1.000000	-1.000000	-1.000000	78.551724	0.000000	-1.000000	-1.000000	969742.000000	1772659827.643589
-41006.250000	-92155.770000	16714.080000	1577.160000	4608.630000	6944.580000	2577.690000	2713.050000	13.793968	13.192333	15.157492	11.331778	13.072729	7.565185	4.795463	10.837237	-3.647140	2.960440	-0.213640	0.824522	0.175781	0.505492	-1.000000	-1.000000	-1.000000	-1.000000	-1.000000	-1.000000	-1.000000	78.551724	0.000000	-1.000000	-1.000000	969743.000000	1772659827.647431
-40888.890000	-92046.645000	16820.010000	1685.565000	4718.430000	7036.200000	2631.195000	2844.810000	20.672792	17.437841	16.070444	11.251575	13.684899	9.861712	8.358569	19.991389	-3.647140	2.960440	-0.213640	0.824522	0.175781	0.505492	-1.000000	-1.000000	-1.000000	-1.000000	-1.000000	-1.000000	-1.000000	78.551724	0.000000	-1.000000	-1.000000	969744.000000	1772659827.647436
-40969.845000	-92101.275000	16774.020000	1642.860000	4666.815000	6996.735000	2598.120000	2721.105000	22.808557	20.354948	16.572131	14.404775	17.588872	14.897302	10.705480	25.222949	-3.647140	2.960440	-0.213640	0.824522	0.175781	0.505492	-1.000000	-1.000000	-1.000000	-1.000000	-1.000000	-1.000000	-1.000000	78.551724	0.000000	-1.000000	-1.000000	969745.000000	1772659827.651547
-41080.275000	-92205.990000	16674.570000	1548.270000	4575.510000	6910.380000	2527.245000	2593.485000	17.620733	18.293194	14.140358	16.521878	19.400046	17.841808	9.761246	21.082787	-3.647140	2.960440	-0.213640	0.824522	0.175781	0.505492	-1.000000	-1.000000	-1.000000	-1.000000	-1.000000	-1.000000	-1.000000	78.551724	0.000000	-1.000000	-1.000000	969746.000000	1772659827.651555
-41098.770000	-92219.355000	16660.710000	1536.885000	4577.760000	6906.195000	2522.070000	2574.270000	-0.566859	3.350181	0.867770	6.617174	8.203517	8.759009	1.101297	-0.290463	-3.647140	2.960440	-0.213640	0.824522	0.175781	0.505492	-1.000000	-1.000000	-1.000000	-1.000000	-1.000000	-1.000000	-1.000000	78.551724	0.000000	-1.000000	-1.000000	969747.000000	1772659827.657047
-41059.395000	-92197.170000	16674.120000	1545.705000	4581.000000	6906.285000	2532.105000	2621.520000	-25.403060	-20.991984	-21.129323	-15.234868	-14.785835	-11.639337	-12.746165	-30.133651	-3.647140	2.960440	-0.213640	0.824522	0.175781	0.505492	-1.000000	-1.000000	-1.000000	-1.000000	-1.000000	-1.000000	-1.000000	78.551724	0.000000	-1.000000	-1.000000	969748.000000	1772659827.657056
-41053.230000	-92201.400000	16674.120000	1547.505000	4581.810000	6902.100000	2526.705000	2647.755000	-39.849746	-38.442603	-37.479390	-34.326568	-34.394534	-29.894235	-22.130074	-46.392949	-3.647140	2.960440	-0.213640	0.824522	0.175781	0.505492	-1.000000	-1.000000	-1.000000	-1.000000	-1.000000	-1.000000	-1.000000	78.551724	0.000000	-1.000000	-1.000000	969749.000000	1772659827.662597
-41053.995000	-92181.465000	16695.990000	1569.735000	4607.460000	6929.505000	2538.855000	2647.305000	-32.644232	-35.408668	-35.537731	-35.749301	-35.696782	-32.419405	-19.814402	-35.414658	-3.647140	2.960440	-0.213640	0.824522	0.175781	0.505492	-1.000000	-1.000000	-1.000000	-1.000000	-1.000000	-1.000000	-1.000000	78.551724	0.000000	-1.000000	-1.000000	969750.000000	1772659827.662607
-41050.755000	-92184.435000	16684.380000	1547.955000	4581.405000	6919.335000	2542.635000	2646.765000	-7.703191	-12.986352	-15.483814	-17.727547	-16.743357	-16.425274	-6.379039	-3.531528	-0.824040	2.884140	-0.320460	0.825437	0.170410	0.504332	-1.000000	-1.000000	-1.000000	-1.000000	-1.000000	-1.000000	-1.000000	78.551724	0.000000	-1.000000	-1.000000	969751.000000	1772659827.663494
-41036.895000	-92179.800000	16690.185000	1554.885000	4586.130000	6920.055000	2540.430000	2654.055000	18.680801	13.302806	9.245258	6.334953	8.301587	6.839670	10.149296	27.683219	-0.824040	2.884140	-0.320460	0.825437	0.170410	0.504332	-1.000000	-1.000000	-1.000000	-1.000000	-1.000000	-1.000000	-1.000000	78.551724	0.000000	-1.000000	-1.000000	969752.000000	1772659827.663500
-41033.430000	-92172.690000	16701.795000	1570.995000	4604.805000	6934.095000	2545.110000	2658.645000	30.534039	26.545546	23.323146	20.376290	21.972713	21.595957	19.854948	38.873328	-0.824040	2.884140	-0.320460	0.825437	0.170410	0.504332	-1.000000	-1.000000	-1.000000	-1.000000	-1.000000	-1.000000	-1.000000	78.551724	0.000000	-1.000000	-1.000000	969753.000000	1772659827.667825
-41011.830000	-92167.470000	16696.125000	1565.055000	4605.615000	6938.370000	2557.935000	2695.320000	26.353479	23.927937	23.537694	21.072621	20.940582	22.836910	19.740644	30.581725	-0.824040	2.884140	-0.320460	0.825437	0.170410	0.504332	-1.000000	-1.000000	-1.000000	-1.000000	-1.000000	-1.000000	-1.000000	78.551724	0.000000	-1.000000	-1.000000	969754.000000	1772659827.667832
-41043.330000	-92180.385000	16686.855000	1558.845000	4600.980000	6929.775000	2540.160000	2646.180000	16.902958	15.406319	17.797317	16.300532	14.370848	17.040082	14.345553	17.751294	-0.824040	2.884140	-0.320460	0.825437	0.170410	0.504332	-1.000000	-1.000000	-1.000000	-1.000000	-1.000000	-1.000000	-1.000000	78.551724	0.000000	-1.000000	-1.000000	969755.000000	1772659827.677854
-41041.440000	-92181.690000	16687.800000	1557.045000	4597.470000	6927.795000	2550.195000	2661.120000	9.201829	8.643074	12.415956	11.991095	8.935895	10.220846	7.768970	8.392661	-0.824040	2.884140	-0.320460	0.825437	0.170410	0.504332	-1.000000	-1.000000	-1.000000	-1.000000	-1.000000	-1.000000	-1.000000	78.551724	0.000000	-1.000000	-1.000000	969756.000000	1772659827.677864
-41014.305000	-92175.075000	16690.275000	1557.360000	4592.835000	6924.690000	2558.295000	2690.145000	1.708524	3.170064	7.085552	7.550471	4.045780	3.138565	0.764231	-0.385909	-0.824040	2.884140	-0.320460	0.825437	0.170410	0.504332	-1.000000	-1.000000	-1.000000	-1.000000	-1.000000	-1.000000	-1.000000	78.551724	0.000000	-1.000000	-1.000000	969757.000000	1772659827.677874
-41023.440000	-92187.630000	16678.980000	1550.565000	4586.400000	6918.390000	2554.830000	2692.980000	-6.892924	-2.957685	0.046304	1.244203	-1.881772	-4.338487	-6.021559	-10.572658	-0.824040	2.884140	-0.320460	0.825437	0.170410	0.504332	-1.000000	-1.000000	-1.000000	-1.000000	-1.000000	-1.000000	-1.000000	78.551724	0.000000	-1.000000	-1.000000	969758.000000	1772659827.677878
-41034.465000	-92181.510000	16680.285000	1552.095000	4579.650000	6919.065000	2553.210000	2690.955000	-14.086228	-8.932832	-7.887968	-5.924787	-7.690184	-10.618892	-11.052260	-18.859030	-0.824040	2.884140	-0.320460	0.825437	0.170410	0.504332	-1.000000	-1.000000	-1.000000	-1.000000	-1.000000	-1.000000	-1.000000	78.551724	0.000000	-1.000000	-1.000000	969759.000000	1772659827.679450
-41019.930000	-92149.875000	16690.455000	1560.195000	4591.755000	6928.245000	2558.925000	2692.440000	-17.460951	-12.513302	-13.917142	-11.239658	-11.032295	-13.590582	-13.126263	-21.783553	-0.824040	2.884140	-0.320460	0.825437	0.170410	0.504332	-1.000000	-1.000000	-1.000000	-1.000000	-1.000000	-1.000000	-1.000000	78.551724	0.000000	-1.000000	-1.000000	969760.000000	1772659827.679456
-41023.305000	-92135.565000	16706.880000	1576.935000	4608.945000	6941.160000	2568.240000	2668.905000	-16.913251	-12.067007	-15.605881	-12.890442	-10.799519	-12.390754	-11.848411	-19.945497	-1.709120	3.235120	-1.205540	0.827390	0.171020	0.502379	-1.000000	-1.000000	-1.000000	-1.000000	-1.000000	-1.000000	-1.000000	78.551724	0.000000	-1.000000	-1.000000	969761.000000	1772659827.683432
-41037.840000	-92169.765000	16706.430000	1580.985000	4616.820000	6948.810000	2561.895000	2653.290000	-13.255228	-8.226032	-12.207825	-10.619378	-7.385216	-7.681751	-7.643236	-15.624891	-1.709120	3.235120	-1.205540	0.827390	0.171020	0.502379	-1.000000	-1.000000	-1.000000	-1.000000	-1.000000	-1.000000	-1.000000	78.551724	0.000000	-1.000000	-1.000000	969762.000000	1772659827.683436
-41048.145000	-92217.240000	16689.645000	1555.020000	4589.820000	6923.970000	2544.345000	2662.560000	-6.759039	-3.824346	-4.611549	-5.052593	-1.877656	-1.041281	-1.948973	-8.646348	-1.709120	3.235120	-1.205540	0.827390	0.171020	0.502379	-1.000000	-1.000000	-1.000000	-1.000000	-1.000000	-1.000000	-1.000000	78.551724	0.000000	-1.000000	-1.000000	969763.000000	1772659827.687465
-41036.040000	-92188.800000	16693.560000	1560.555000	4591.260000	6926.670000	2549.880000	2672.595000	2.267564	-0.924068	4.319980	1.658991	3.435803	4.959001	3.233642	2.377264	-1.709120	3.235120	-1.205540	0.827390	0.171020	0.502379	-1.000000	-1.000000	-1.000000	-1.000000	-1.000000	-1.000000	-1.000000	78.551724	0.000000	-1.000000	-1.000000	969764.000000	1772659827.687473
-41025.645000	-92169.720000	16697.790000	1572.480000	4606.560000	6943.635000	2560.860000	2675.340000	11.525020	1.571959	10.569486	6.644118	6.288247	8.131790	6.453032	14.810033	-1.709120	3.235120	-1.205540	0.827390	0.171020	0.502379	-1.000000	-1.000000	-1.000000	-1.000000	-1.000000	-1.000000	-1.000000	78.551724	0.000000	-1.000000	-1.000000	969765.000000	1772659827.694825
-40963.995000	-92127.690000	16730.820000	1604.520000	4638.330000	6971.085000	2589.750000	2761.920000	17.459460	5.881295	12.053736	8.919325	7.054814	8.771673	7.603591	22.716853	-1.709120	3.235120	-1.205540	0.827390	0.171020	0.502379	-1.000000	-1.000000	-1.000000	-1.000000	-1.000000	-1.000000	-1.000000	78.413793	0.000000	-1.000000	-1.000000	969766.000000	1772659827.694831
-40936.275000	-92100.015000	16761.645000	1632.060000	4661.595000	6989.490000	2605.320000	2787.120000	19.169250	12.136791	10.315384	9.612570	7.786715	8.569806	7.813393	24.020775	-1.709120	3.235120	-1.205540	0.827390	0.171020	0.502379	-1.000000	-1.000000	-1.000000	-1.000000	-1.000000	-1.000000	-1.000000	78.413793	0.000000	-1.000000	-1.000000	969767.000000	1772659827.695431
-41017.905000	-92171.160000	16699.590000	1573.065000	4605.075000	6927.300000	2557.935000	2672.865000	16.318879	15.963441	6.814615	8.534217	7.983852	6.912595	6.943310	18.587992	-1.709120	3.235120	-1.205540	0.827390	0.171020	0.502379	-1.000000	-1.000000	-1.000000	-1.000000	-1.000000	-1.000000	-1.000000	78.413793	0.000000	-1.000000	-1.000000	969768.000000	1772659827.695439
-41019.615000	-92153.070000	16723.890000	1602.135000	4645.935000	6959.070000	2573.190000	2677.005000	5.780896	10.489971	0.085554	3.112906	4.217787	1.104645	2.812899	4.026240	-1.709120	3.235120	-1.205540	0.827390	0.171020	0.502379	-1.000000	-1.000000	-1.000000	-1.000000	-1.000000	-1.000000	-1.000000	78.413793	0.000000	-1.000000	-1.000000	969769.000000	1772659827.706012
-40888.755000	-92053.170000	16807.680000	1680.840000	4730.085000	7047.990000	2653.020000	2859.390000	-9.320738	-2.682342	-8.114835	-5.147340	-2.712786	-6.610998	-3.160227	-13.378954	-1.709120	3.235120	-1.205540	0.827390	0.171020	0.502379	-1.000000	-1.000000	-1.000000	-1.000000	-1.000000	-1.000000	-1.000000	78.413793	0.000000	-1.000000	-1.000000	969770.000000	1772659827.706022
-41034.330000	-92165.220000	16703.910000	1580.130000	4615.560000	6952.050000	2562.975000	2650.320000	-18.296838	-12.474595	-11.913231	-10.281958	-7.665094	-9.907761	-6.028851	-20.355565	-4.547480	3.876040	-0.427280	0.825743	0.174316	0.502806	-1.000000	-1.000000	-1.000000	-1.000000	-1.000000	-1.000000	-1.000000	78.413793	0.000000	-1.000000	-1.000000	969771.000000	1772659827.706388
-41145.525000	-92266.830000	16604.685000	1478.070000	4502.610000	6854.670000	2484.495000	2522.025000	-19.774485	-14.918063	-11.924039	-12.224698	-11.470073	-9.631230	-6.652762	-19.141397	-4.547480	3.876040	-0.427280	0.825743	0.174316	0.502806	-1.000000	-1.000000	-1.000000	-1.000000	-1.000000	-1.000000	-1.000000	78.413793	0.000000	-1.000000	-1.000000	969772.000000	1772659827.706397
-41072.850000	-92208.825000	16659.720000	1532.205000	4558.185000	6904.305000	2524.455000	2623.140000	-20.347987	-15.407458	-13.095204	-14.951027	-17.652843	-11.200070	-9.486703	-20.586449	-4.547480	3.876040	-0.427280	0.825743	0.174316	0.502806	-1.000000	-1.000000	-1.000000	-1.000000	-1.000000	-1.000000	-1.000000	78.413793	0.000000	-1.000000	-1.000000	969773.000000	1772659827.707514
-41036.445000	-92185.515000	16676.280000	1548.045000	4578.345000	6920.730000	2552.850000	2677.680000	-18.139614	-14.460159	-12.916598	-15.494167	-20.929318	-12.531109	-12.095662	-20.535229	-4.547480	3.876040	-0.427280	0.825743	0.174316	0.502806	-1.000000	-1.000000	-1.000000	-1.000000	-1.000000	-1.000000	-1.000000	78.413793	0.000000	-1.000000	-1.000000	969774.000000	1772659827.707526
-41030.190000	-92179.395000	16676.325000	1543.320000	4569.570000	6910.650000	2555.865000	2666.295000	-7.763676	-8.107109	-6.155390	-8.628533	-13.920432	-8.060938	-8.706041	-10.035401	-4.547480	3.876040	-0.427280	0.825743	0.174316	0.502806	-1.000000	-1.000000	-1.000000	-1.000000	-1.000000	-1.000000	-1.000000	78.413793	0.000000	-1.000000	-1.000000	969775.000000	1772659827.715012
-41069.250000	-92200.455000	16664.355000	1532.745000	4562.865000	6903.270000	2541.105000	2615.535000	7.769769	2.746496	5.365841	3.710554	1.517856	1.724047	0.581304	7.292603	-4.547480	3.876040	-0.427280	0.825743	0.174316	0.502806	-1.000000	-1.000000	-1.000000	-1.000000	-1.000000	-1.000000	-1.000000	78.413793	0.000000	-1.000000	-1.000000	969776.000000	1772659827.715019
-41048.190000	-92174.940000	16692.660000	1563.120000	4605.840000	6923.205000	2531.925000	2641.995000	21.120907	13.545592	16.208013	15.879617	18.070709	12.508281	10.623358	22.503587	-4.547480	3.876040	-0.427280	0.825743	0.174316	0.502806	-1.000000	-1.000000	-1.000000	-1.000000	-1.000000	-1.000000	-1.000000	78.413793	0.000000	-1.000000	-1.000000	969777.000000	1772659827.715449
-41045.805000	-92168.235000	16697.205000	1569.645000	4609.620000	6932.205000	2541.375000	2647.260000	26.985891	19.914871	21.932567	23.040067	28.604762	19.604431	15.831025	29.919306	-4.547480	3.876040	-0.427280	0.825743	0.174316	0.502806	-1.000000	-1.000000	-1.000000	-1.000000	-1.000000	-1.000000	-1.000000	78.413793	0.000000	-1.000000	-1.000000	969778.000000	1772659827.715459
-41059.395000	-92193.210000	16667.775000	1552.635000	4589.910000	6932.880000	2550.375000	2643.210000	22.448537	18.223074	18.963647	21.285165	27.359378	18.724756	13.450214	26.059273	-4.547480	3.876040	-0.427280	0.825743	0.174316	0.502806	-1.000000	-1.000000	-1.000000	-1.000000	-1.000000	-1.000000	-1.000000	78.413793	0.000000	-1.000000	-1.000000	969779.000000	1772659827.721071
-41053.230000	-92195.550000	16653.330000	1543.320000	4576.365000	6926.130000	2551.680000	2650.095000	11.265774	10.374318	8.963596	12.251260	15.926586	11.423746	7.233840	14.929523	-4.547480	3.876040	-0.427280	0.825743	0.174316	0.502806	-1.000000	-1.000000	-1.000000	-1.000000	-1.000000	-1.000000	-1.000000	78.413793	0.000000	-1.000000	-1.000000	969780.000000	1772659827.721079
-41044.815000	-92177.280000	16668.945000	1559.745000	4603.995000	6930.810000	2551.410000	2654.055000	3.142764	4.089842	-0.087834	3.684096	4.029403	4.859713	3.988565	7.163737	-3.372460	4.288060	-1.480220	0.826109	0.171569	0.502440	-1.000000	-1.000000	-1.000000	-1.000000	-1.000000	-1.000000	-1.000000	78.413793	0.000000	-1.000000	-1.000000	969781.000000	1772659827.723464
-41027.490000	-92168.415000	16685.415000	1572.750000	4609.215000	6928.785000	2545.425000	2664.405000	0.797361	2.201938	-3.500215	-0.427361	-2.304551	1.532919	3.902674	4.089342	-3.372460	4.288060	-1.480220	0.826109	0.171569	0.502440	-1.000000	-1.000000	-1.000000	-1.000000	-1.000000	-1.000000	-1.000000	78.413793	0.000000	-1.000000	-1.000000	969782.000000	1772659827.723478
-40984.470000	-92141.280000	16728.885000	1597.635000	4619.970000	6952.635000	2564.460000	2720.025000	-1.766418	0.124844	-3.586895	-2.966702	-5.817404	-2.201241	1.358110	-2.215428	-3.372460	4.288060	-1.480220	0.826109	0.171569	0.502440	-1.000000	-1.000000	-1.000000	-1.000000	-1.000000	-1.000000	-1.000000	78.413793	0.000000	-1.000000	-1.000000	969783.000000	1772659827.727508
-40958.955000	-92080.080000	16792.740000	1651.860000	4667.535000	6999.030000	2592.315000	2736.900000	-6.977963	-4.098619	-2.425612	-5.682390	-9.256544	-6.954354	-4.922835	-12.448790	-3.372460	4.288060	-1.480220	0.826109	0.171569	0.502440	-1.000000	-1.000000	-1.000000	-1.000000	-1.000000	-1.000000	-1.000000	78.413793	0.000000	-1.000000	-1.000000	969784.000000	1772659827.727516
-41060.385000	-92166.345000	16710.570000	1575.135000	4599.090000	6931.800000	2537.820000	2615.265000	-12.045121	-7.815452	-0.682818	-7.512448	-11.657009	-9.709829	-10.568697	-20.200495	-3.372460	4.288060	-1.480220	0.826109	0.171569	0.502440	-1.000000	-1.000000	-1.000000	-1.000000	-1.000000	-1.000000	-1.000000	78.413793	0.000000	-1.000000	-1.000000	969785.000000	1772659827.731457
-41031.765000	-92173.545000	16694.595000	1561.185000	4589.235000	6929.100000	2556.855000	2683.755000	-16.100362	-11.356250	-2.603818	-10.341446	-14.039546	-11.057698	-12.638005	-22.920609	-3.372460	4.288060	-1.480220	0.826109	0.171569	0.502440	-1.000000	-1.000000	-1.000000	-1.000000	-1.000000	-1.000000	-1.000000	78.413793	0.000000	-1.000000	-1.000000	969786.000000	1772659827.731463
-40985.145000	-92140.920000	16721.145000	1585.710000	4617.180000	6951.195000	2575.485000	2724.840000	-18.136427	-15.933462	-10.676233	-15.778107	-17.473717	-13.196385	-11.202792	-20.278423	-3.372460	4.288060	-1.480220	0.826109	0.171569	0.502440	-1.000000	-1.000000	-1.000000	-1.000000	-1.000000	-1.000000	-1.000000	78.413793	0.000000	-1.000000	-1.000000	969787.000000	1772659827.739326
-41016.015000	-92159.280000	16704.900000	1571.535000	4608.945000	6937.335000	2557.305000	2680.605000	-13.967754	-16.841664	-18.033329	-18.517239	-16.954245	-13.571133	-6.727306	-10.824940	-3.372460	4.288060	-1.480220	0.826109	0.171569	0.502440	-1.000000	-1.000000	-1.000000	-1.000000	-1.000000	-1.000000	-1.000000	78.413793	0.000000	-1.000000	-1.000000	969788.000000	1772659827.739331
-41042.880000	-92182.680000	16682.490000	1554.750000	4589.505000	6937.245000	2563.740000	2672.145000	-2.991075	-9.500477	-16.135330	-12.419361	-7.510716	-8.019721	-0.095156	3.076077	-3.372460	4.288060	-1.480220	0.826109	0.171569	0.502440	-1.000000	-1.000000	-1.000000	-1.000000	-1.000000	-1.000000	-1.000000	78.413793	0.000000	-1.000000	-1.000000	969789.000000	1772659827.739633
-41034.105000	-92163.870000	16709.760000	1587.915000	4615.290000	6958.440000	2572.560000	2687.310000	8.329921	2.569723	-5.428467	0.747812	7.152469	2.781372	6.596001	14.470881	-3.372460	4.288060	-1.480220	0.826109	0.171569	0.502440	-1.000000	-1.000000	-1.000000	-1.000000	-1.000000	-1.000000	-1.000000	78.413793	0.000000	-1.000000	-1.000000	969790.000000	1772659827.739642
-41022.855000	-92153.790000	16713.135000	1587.510000	4620.690000	6944.085000	2560.095000	2673.315000	12.936050	11.919568	6.690649	13.464189	18.393910	13.096844	10.263146	16.918834	-1.983800	5.020540	-0.854560	0.826048	0.169982	0.502074	-1.000000	-1.000000	-1.000000	-1.000000	-1.000000	-1.000000	-1.000000	78.413793	0.000000	-1.000000	-1.000000	969791.000000	1772659827.743999
-41006.340000	-92159.640000	16692.660000	1558.440000	4592.070000	6926.220000	2560.050000	2694.780000	9.365908	13.875780	12.594495	18.384902	20.180319	16.184771	8.322668	9.111055	-1.983800	5.020540	-0.854560	0.826048	0.169982	0.502074	-1.000000	-1.000000	-1.000000	-1.000000	-1.000000	-1.000000	-1.000000	78.413793	0.000000	-1.000000	-1.000000	969792.000000	1772659827.744008
-40853.520000	-92017.305000	16837.785000	1700.730000	4720.140000	7031.880000	2626.290000	2883.870000	4.453743	10.426199	11.155652	14.627119	13.609408	11.177696	2.611434	0.223170	-1.983800	5.020540	-0.854560	0.826048	0.169982	0.502074	-1.000000	-1.000000	-1.000000	-1.000000	-1.000000	-1.000000	-1.000000	78.413793	0.000000	-1.000000	-1.000000	969793.000000	1772659827.751604
-40978.890000	-92111.985000	16748.595000	1613.835000	4636.170000	6951.015000	2550.645000	2694.735000	6.968303	8.742006	9.303983	9.467396	6.275531	4.830172	-1.267285	2.077539	-1.983800	5.020540	-0.854560	0.826048	0.169982	0.502074	-1.000000	-1.000000	-1.000000	-1.000000	-1.000000	-1.000000	-1.000000	78.413793	0.000000	-1.000000	-1.000000	969794.000000	1772659827.751611
-41150.745000	-92264.940000	16598.610000	1472.310000	4511.970000	6858.270000	2503.620000	2521.440000	10.221927	7.363699	7.730815	4.621149	-0.066433	-0.400261	-3.010312	6.101337	-1.983800	5.020540	-0.854560	0.826048	0.169982	0.502074	-1.000000	-1.000000	-1.000000	-1.000000	-1.000000	-1.000000	-1.000000	78.413793	0.000000	-1.000000	-1.000000	969795.000000	1772659827.751900
-41089.320000	-92228.400000	16632.810000	1503.360000	4540.725000	6886.800000	2530.620000	2607.660000	-0.687395	-3.104349	-1.454882	-6.391972	-10.849050	-8.632228	-6.700155	-5.294843	-1.983800	5.020540	-0.854560	0.826048	0.169982	0.502074	-1.000000	-1.000000	-1.000000	-1.000000	-1.000000	-1.000000	-1.000000	78.413793	0.000000	-1.000000	-1.000000	969796.000000	1772659827.751904
-41070.105000	-92213.955000	16652.385000	1533.870000	4576.050000	6918.165000	2541.690000	2629.620000	-19.965830	-18.608020	-14.880079	-19.603015	-21.816096	-16.454867	-10.003480	-23.885840	-1.983800	5.020540	-0.854560	0.826048	0.169982	0.502074	-1.000000	-1.000000	-1.000000	-1.000000	-1.000000	-1.000000	-1.000000	78.413793	0.000000	-1.000000	-1.000000	969797.000000	1772659827.758638
-41064.345000	-92202.615000	16656.525000	1545.075000	4589.460000	6928.110000	2545.695000	2631.825000	-26.978671	-23.721918	-18.880011	-21.753490	-20.906983	-14.680094	-7.178243	-26.957379	-1.983800	5.020540	-0.854560	0.826048	0.169982	0.502074	-1.000000	-1.000000	-1.000000	-1.000000	-1.000000	-1.000000	-1.000000	78.413793	0.000000	-1.000000	-1.000000	969798.000000	1772659827.758646
-41049.990000	-92179.890000	16680.060000	1560.645000	4597.695000	6930.720000	2551.635000	2651.355000	-14.532222	-12.819847	-9.067529	-9.495833	-6.325831	-2.672143	1.338323	-9.624625	-1.983800	5.020540	-0.854560	0.826048	0.169982	0.502074	-1.000000	-1.000000	-1.000000	-1.000000	-1.000000	-1.000000	-1.000000	78.413793	0.000000	-1.000000	-1.000000	969799.000000	1772659827.759610
-41035.050000	-92168.640000	16688.340000	1560.960000	4595.670000	6927.435000	2555.820000	2679.255000	7.062837	6.133149	6.937987	8.224985	11.796091	11.241806	10.080916	15.180938	-1.983800	5.020540	-0.854560	0.826048	0.169982	0.502074	-1.000000	-1.000000	-1.000000	-1.000000	-1.000000	-1.000000	-1.000000	78.413793	0.000000	-1.000000	-1.000000	969800.000000	1772659827.759615
-41039.640000	-92170.440000	16690.005000	1556.820000	4590.810000	6923.205000	2552.220000	2671.470000	22.593010	20.471787	18.328034	19.945367	21.961468	18.111302	13.652629	31.263138	-1.495480	5.341000	-1.602300	0.825987	0.172180	0.502196	-1.000000	-1.000000	-1.000000	-1.000000	-1.000000	-1.000000	-1.000000	78.413793	0.000000	-1.000000	-1.000000	969801.000000	1772659827.763546
-41038.605000	-92167.830000	16695.360000	1564.245000	4599.315000	6929.010000	2552.535000	2673.405000	22.847769	21.288691	17.845606	18.759921	18.609432	13.949429	9.886852	29.036538	-1.495480	5.341000	-1.602300	0.825987	0.172180	0.502196	-1.000000	-1.000000	-1.000000	-1.000000	-1.000000	-1.000000	-1.000000	78.413793	0.000000	-1.000000	-1.000000	969802.000000	1772659827.763554
-41006.610000	-92141.010000	16707.825000	1582.155000	4625.820000	6949.710000	2564.055000	2718.855000	12.810720	11.881212	8.734628	8.686249	7.123675	3.879354	2.610217	14.925505	-1.495480	5.341000	-1.602300	0.825987	0.172180	0.502196	-1.000000	-1.000000	-1.000000	-1.000000	-1.000000	-1.000000	-1.000000	78.413793	0.000000	-1.000000	-1.000000	969803.000000	1772659827.767756
-41032.980000	-92138.265000	16692.930000	1567.800000	4613.580000	6938.505000	2547.810000	2652.435000	5.888577	4.760333	2.108385	1.506546	-0.409780	-2.103333	-1.966203	4.351986	-1.495480	5.341000	-1.602300	0.825987	0.172180	0.502196	-1.000000	-1.000000	-1.000000	-1.000000	-1.000000	-1.000000	-1.000000	78.413793	0.000000	-1.000000	-1.000000	969804.000000	1772659827.767773
-41044.140000	-92136.690000	16694.280000	1568.970000	4598.595000	6932.835000	2540.475000	2625.345000	5.497569	5.117832	2.223244	1.656905	-0.136545	-1.413686	-2.928920	-0.006464	-1.495480	5.341000	-1.602300	0.825987	0.172180	0.502196	-1.000000	-1.000000	-1.000000	-1.000000	-1.000000	-1.000000	-1.000000	78.413793	0.000000	-1.000000	-1.000000	969805.000000	1772659827.771552
-41045.085000	-92165.175000	16695.585000	1571.175000	4592.925000	6937.200000	2554.110000	2648.385000	3.586291	5.803807	3.082865	2.740316	0.700133	-0.100649	-3.501296	-6.489623	-1.495480	5.341000	-1.602300	0.825987	0.172180	0.502196	-1.000000	-1.000000	-1.000000	-1.000000	-1.000000	-1.000000	-1.000000	78.413793	0.000000	-1.000000	-1.000000	969806.000000	1772659827.771561
-40984.425000	-92141.190000	16744.995000	1610.595000	4636.350000	6976.845000	2607.660000	2730.870000	-3.740414	-0.509275	-0.285434	-0.774705	-3.390876	-2.300517	-4.219723	-15.246413	-1.495480	5.341000	-1.602300	0.825987	0.172180	0.502196	-1.000000	-1.000000	-1.000000	-1.000000	-1.000000	-1.000000	-1.000000	78.413793	0.000000	-1.000000	-1.000000	969807.000000	1772659827.775669
-40957.830000	-92101.815000	16762.410000	1627.875000	4653.495000	6988.635000	2621.340000	2752.245000	-11.398773	-11.845868	-6.155301	-7.074066	-9.286141	-5.566951	-2.614413	-18.108698	-1.495480	5.341000	-1.602300	0.825987	0.172180	0.502196	-1.000000	-1.000000	-1.000000	-1.000000	-1.000000	-1.000000	-1.000000	78.413793	0.000000	-1.000000	-1.000000	969808.000000	1772659827.775677
-41049.495000	-92178.900000	16684.335000	1554.795000	4580.685000	6916.680000	2545.650000	2643.885000	-15.338997	-21.163027	-11.664261	-12.264298	-12.249240	-7.130358	0.394216	-13.787840	-1.495480	5.341000	-1.602300	0.825987	0.172180	0.502196	-1.000000	-1.000000	-1.000000	-1.000000	-1.000000	-1.000000	-1.000000	78.413793	0.000000	-1.000000	-1.000000	969809.000000	1772659827.782386
-41063.265000	-92195.415000	16670.970000	1543.230000	4569.840000	6905.115000	2527.830000	2625.390000	-18.179814	-25.492526	-17.439023	-16.255907	-13.085606	-8.910848	-0.715943	-10.827240	-1.495480	5.341000	-1.602300	0.825987	0.172180	0.502196	-1.000000	-1.000000	-1.000000	-1.000000	-1.000000	-1.000000	-1.000000	78.413793	0.000000	-1.000000	-1.000000	969810.000000	1772659827.782394
-41038.605000	-92159.190000	16708.545000	1581.210000	4607.820000	6939.180000	2551.950000	2646.675000	-20.419045	-23.882491	-21.714458	-18.289478	-12.910477	-11.406654	-6.878408	-12.638525	-2.456860	5.508860	-0.732480	0.823972	0.173706	0.503050	-1.000000	-1.000000	-1.000000	-1.000000	-1.000000	-1.000000	-1.000000	78.413793	0.000000	-1.000000	-1.000000	969811.000000	1772659827.783460
-41015.430000	-92137.230000	16730.685000	1604.430000	4634.145000	6968.070000	2576.430000	2680.020000	-15.489745	-12.796598	-16.988748	-12.812646	-7.683900	-9.252941	-10.707902	-10.805213	-2.456860	5.508860	-0.732480	0.823972	0.173706	0.503050	-1.000000	-1.000000	-1.000000	-1.000000	-1.000000	-1.000000	-1.000000	78.413793	0.000000	-1.000000	-1.000000	969812.000000	1772659827.783468
-41001.660000	-92146.005000	16710.660000	1579.185000	4609.710000	6949.485000	2570.355000	2701.170000	0.208082	6.838677	-0.598371	1.926273	4.461914	0.606745	-6.082030	2.247325	-2.456860	5.508860	-0.732480	0.823972	0.173706	0.503050	-1.000000	-1.000000	-1.000000	-1.000000	-1.000000	-1.000000	-1.000000	78.413793	0.000000	-1.000000	-1.000000	969813.000000	1772659827.787593
-41024.565000	-92185.110000	16663.815000	1530.720000	4565.070000	6909.030000	2541.555000	2681.415000	19.650980	24.959452	17.796085	17.034278	16.585203	12.054690	4.015168	21.774629	-2.456860	5.508860	-0.732480	0.823972	0.173706	0.503050	-1.000000	-1.000000	-1.000000	-1.000000	-1.000000	-1.000000	-1.000000	78.413793	0.000000	-1.000000	-1.000000	969814.000000	1772659827.787601
-41031.090000	-92180.430000	16671.870000	1543.095000	4580.820000	6921.720000	2543.580000	2667.690000	30.313671	30.797317	25.126700	21.260528	19.436298	15.842012	10.949000	33.385258	-2.456860	5.508860	-0.732480	0.823972	0.173706	0.503050	-1.000000	-1.000000	-1.000000	-1.000000	-1.000000	-1.000000	-1.000000	78.413793	0.000000	-1.000000	-1.000000	969815.000000	1772659827.792776
-41047.875000	-92181.960000	16673.805000	1545.660000	4580.730000	6919.695000	2546.415000	2653.335000	24.186604	21.855346	17.314049	12.477713	11.066283	9.379659	9.176000	25.642388	-2.456860	5.508860	-0.732480	0.823972	0.173706	0.503050	-1.000000	-1.000000	-1.000000	-1.000000	-1.000000	-1.000000	-1.000000	78.413793	0.000000	-1.000000	-1.000000	969816.000000	1772659827.792784
-41038.605000	-92162.655000	16684.965000	1558.980000	4588.830000	6924.960000	2554.785000	2671.470000	4.778585	4.609599	1.680405	-1.279742	-1.892830	-1.416197	1.363410	2.081258	-2.456860	5.508860	-0.732480	0.823972	0.173706	0.503050	-1.000000	-1.000000	-1.000000	-1.000000	-1.000000	-1.000000	-1.000000	78.413793	0.000000	-1.000000	-1.000000	969817.000000	1772659827.798690
-41018.895000	-92126.115000	16706.610000	1587.735000	4616.955000	6949.935000	2571.480000	2686.950000	-13.789176	-9.276652	-9.277326	-8.731527	-9.418778	-7.319347	-4.052643	-19.709197	-2.456860	5.508860	-0.732480	0.823972	0.173706	0.503050	-1.000000	-1.000000	-1.000000	-1.000000	-1.000000	-1.000000	-1.000000	78.413793	0.000000	-1.000000	-1.000000	969818.000000	1772659827.798697
-41012.055000	-92131.695000	16707.060000	1588.770000	4621.365000	6955.560000	2572.155000	2681.235000	-18.700748	-11.436834	-8.348662	-4.776541	-6.353743	-3.726943	-1.539482	-24.588909	-2.456860	5.508860	-0.732480	0.823972	0.173706	0.503050	-1.000000	-1.000000	-1.000000	-1.000000	-1.000000	-1.000000	-1.000000	78.413793	0.000000	-1.000000	-1.000000	969819.000000	1772659827.799483
-41018.940000	-92165.220000	16699.500000	1573.875000	4607.190000	6944.535000	2568.150000	2669.040000	-10.027937	-5.099741	0.272518	4.644038	2.276426	4.519492	5.392782	-13.614200	-2.456860	5.508860	-0.732480	0.823972	0.173706	0.503050	-1.000000	-1.000000	-1.000000	-1.000000	-1.000000	-1.000000	-1.000000	78.413793	0.000000	-1.000000	-1.000000	969820.000000	1772659827.799488
-41046.975000	-92192.040000	16686.405000	1547.820000	4576.545000	6913.260000	2540.835000	2646.180000	1.785691	-0.589313	6.972842	9.235996	6.764414	8.168298	8.504791	0.692233	-2.014320	5.753020	-1.541260	0.822630	0.173645	0.503966	-1.000000	-1.000000	-1.000000	-1.000000	-1.000000	-1.000000	-1.000000	78.413793	0.000000	-1.000000	-1.000000	969821.000000	1772659827.803654
-41034.690000	-92162.430000	16704.270000	1566.135000	4595.130000	6926.355000	2548.755000	2664.360000	7.322941	-2.445059	7.119235	5.418836	3.539945	3.704335	4.106493	8.126370	-2.014320	5.753020	-1.541260	0.822630	0.173645	0.503966	-1.000000	-1.000000	-1.000000	-1.000000	-1.000000	-1.000000	-1.000000	78.413793	0.000000	-1.000000	-1.000000	969822.000000	1772659827.803658
-41020.290000	-92150.370000	16712.235000	1581.705000	4621.320000	6949.035000	2563.335000	2688.255000	5.756110	-5.390675	3.577559	-1.352806	-1.940567	-3.462824	-3.576170	8.083710	-2.014320	5.753020	-1.541260	0.822630	0.173645	0.503966	-1.000000	-1.000000	-1.000000	-1.000000	-1.000000	-1.000000	-1.000000	78.413793	0.000000	-1.000000	-1.000000	969823.000000	1772659827.808833
-40963.905000	-92116.755000	16737.660000	1609.245000	4659.075000	6988.860000	2606.310000	2763.810000	2.608593	-3.262179	0.461209	-4.673029	-3.210340	-6.150904	-7.744398	6.305051	-2.014320	5.753020	-1.541260	0.822630	0.173645	0.503966	-1.000000	-1.000000	-1.000000	-1.000000	-1.000000	-1.000000	-1.000000	78.413793	0.000000	-1.000000	-1.000000	969824.000000	1772659827.808841
-40998.645000	-92129.940000	16728.750000	1601.145000	4639.635000	6970.455000	2581.605000	2704.635000	1.888216	2.909938	-1.680747	-3.865756	-0.204243	-3.019002	-6.026353	6.320625	-2.014320	5.753020	-1.541260	0.822630	0.173645	0.503966	-1.000000	-1.000000	-1.000000	-1.000000	-1.000000	-1.000000	-1.000000	78.413793	0.000000	-1.000000	-1.000000	969825.000000	1772659827.812092
-40949.370000	-92066.670000	16790.310000	1659.960000	4682.835000	7006.185000	2593.755000	2752.155000	2.791069	7.976587	-3.225979	-1.379508	2.984541	2.110240	-1.469588	5.947262	-2.014320	5.753020	-1.541260	0.822630	0.173645	0.503966	-1.000000	-1.000000	-1.000000	-1.000000	-1.000000	-1.000000	-1.000000	78.413793	0.000000	-1.000000	-1.000000	969826.000000	1772659827.812098
-41052.915000	-92155.050000	16704.810000	1574.595000	4597.335000	6937.110000	2555.415000	2614.185000	1.918456	8.058094	-4.118590	0.229934	2.575568	4.378902	1.485044	1.258716	-2.014320	5.753020	-1.541260	0.822630	0.173645	0.503966	-1.000000	-1.000000	-1.000000	-1.000000	-1.000000	-1.000000	-1.000000	78.413793	0.000000	-1.000000	-1.000000	969827.000000	1772659827.815512
-41064.255000	-92186.775000	16668.495000	1535.355000	4562.505000	6911.685000	2549.295000	2614.680000	-4.224980	0.950102	-6.855898	-2.752318	-4.129023	0.034983	0.301540	-9.383998	-2.014320	5.753020	-1.541260	0.822630	0.173645	0.503966	-1.000000	-1.000000	-1.000000	-1.000000	-1.000000	-1.000000	-1.000000	78.413793	0.000000	-1.000000	-1.000000	969828.000000	1772659827.815520
-41076.630000	-92212.830000	16644.645000	1513.800000	4544.910000	6888.735000	2523.330000	2608.470000	-14.028250	-10.975829	-12.872950	-10.875411	-15.063316	-9.744614	-4.136018	-21.095208	-2.014320	5.753020	-1.541260	0.822630	0.173645	0.503966	-1.000000	-1.000000	-1.000000	-1.000000	-1.000000	-1.000000	-1.000000	78.413793	0.000000	-1.000000	-1.000000	969829.000000	1772659827.819520
-41057.685000	-92182.545000	16677.720000	1544.535000	4571.685000	6906.375000	2530.350000	2627.370000	-19.267633	-19.166769	-17.009857	-17.040340	-21.286945	-17.177256	-7.797452	-23.893912	-2.014320	5.753020	-1.541260	0.822630	0.173645	0.503966	-1.000000	-1.000000	-1.000000	-1.000000	-1.000000	-1.000000	-1.000000	78.413793	0.000000	-1.000000	-1.000000	969830.000000	1772659827.819525
-41038.155000	-92164.365000	16699.005000	1563.210000	4588.695000	6924.510000	2550.015000	2664.045000	-13.471901	-16.135963	-12.163300	-13.085912	-15.028097	-14.597596	-6.558368	-12.853120	-0.915600	6.409200	-0.610400	0.823850	0.172912	0.504088	-1.000000	-1.000000	-1.000000	-1.000000	-1.000000	-1.000000	-1.000000	78.413793	0.000000	-1.000000	-1.000000	969831.000000	1772659827.826695
-41003.415000	-92142.450000	16715.340000	1576.575000	4603.050000	6939.540000	2568.645000	2712.240000	1.367962	-2.647448	1.997960	0.800339	1.497657	-2.300860	-0.009376	6.968599	-0.915600	6.409200	-0.610400	0.823850	0.172912	0.504088	-1.000000	-1.000000	-1.000000	-1.000000	-1.000000	-1.000000	-1.000000	78.413793	0.000000	-1.000000	-1.000000	969832.000000	1772659827.826704
-40987.485000	-92137.140000	16721.100000	1583.370000	4610.610000	6943.455000	2570.220000	2728.710000	16.876617	13.068325	17.590206	16.004472	18.014920	11.851520	7.728592	24.855007	-0.915600	6.409200	-0.610400	0.823850	0.172912	0.504088	-1.000000	-1.000000	-1.000000	-1.000000	-1.000000	-1.000000	-1.000000	78.413793	0.000000	-1.000000	-1.000000	969833.000000	1772659827.827736
-41042.970000	-92174.490000	16689.330000	1558.980000	4590.000000	6924.510000	2551.950000	2654.640000	24.140706	21.219618	24.784448	22.985578	25.163850	19.507898	11.681653	30.944669	-0.915600	6.409200	-0.610400	0.823850	0.172912	0.504088	-1.000000	-1.000000	-1.000000	-1.000000	-1.000000	-1.000000	-1.000000	78.413793	0.000000	-1.000000	-1.000000	969834.000000	1772659827.827743
-41049.045000	-92186.865000	16655.355000	1527.210000	4569.930000	6913.710000	2543.940000	2646.765000	18.750987	16.615512	18.536752	17.430795	20.011026	17.257975	9.873295	21.539092	-0.915600	6.409200	-0.610400	0.823850	0.172912	0.504088	-1.000000	-1.000000	-1.000000	-1.000000	-1.000000	-1.000000	-1.000000	78.413793	0.000000	-1.000000	-1.000000	969835.000000	1772659827.831636
-41037.705000	-92170.215000	16671.645000	1546.470000	4591.395000	6930.585000	2551.410000	2658.375000	5.268434	3.848089	3.387493	3.855516	7.533082	8.465294	4.305889	3.611445	-0.915600	6.409200	-0.610400	0.823850	0.172912	0.504088	-1.000000	-1.000000	-1.000000	-1.000000	-1.000000	-1.000000	-1.000000	78.413793	0.000000	-1.000000	-1.000000	969836.000000	1772659827.831640
-41026.140000	-92161.755000	16686.405000	1559.610000	4600.170000	6933.510000	2554.020000	2671.380000	-5.691311	-5.506514	-8.557753	-6.527788	-2.471016	0.640620	-0.765488	-9.885930	-0.915600	6.409200	-0.610400	0.823850	0.172912	0.504088	-1.000000	-1.000000	-1.000000	-1.000000	-1.000000	-1.000000	-1.000000	78.413793	0.000000	-1.000000	-1.000000	969837.000000	1772659827.835557
-41027.490000	-92154.375000	16699.680000	1573.020000	4607.190000	6940.935000	2555.055000	2661.345000	-8.256219	-4.923253	-9.244493	-6.607234	-4.512794	-1.764773	-2.466701	-12.952881	-0.915600	6.409200	-0.610400	0.823850	0.172912	0.504088	-1.000000	-1.000000	-1.000000	-1.000000	-1.000000	-1.000000	-1.000000	78.413793	0.000000	-1.000000	-1.000000	969838.000000	1772659827.835568
-41031.675000	-92140.155000	16717.770000	1588.590000	4616.190000	6949.080000	2548.665000	2645.055000	-5.292444	1.526945	-1.698198	0.260023	-1.675104	-0.589241	-1.551463	-9.893592	-0.915600	6.409200	-0.610400	0.823850	0.172912	0.504088	-1.000000	-1.000000	-1.000000	-1.000000	-1.000000	-1.000000	-1.000000	78.413793	0.000000	-1.000000	-1.000000	969839.000000	1772659827.839580
-41024.970000	-92141.550000	16711.155000	1578.645000	4604.760000	6938.730000	2542.635000	2651.535000	-2.925270	5.564880	5.187574	5.492219	-0.492732	-0.586483	-1.349787	-7.956368	-0.915600	6.409200	-0.610400	0.823850	0.172912	0.504088	-1.000000	-1.000000	-1.000000	-1.000000	-1.000000	-1.000000	-1.000000	78.413793	0.000000	-1.000000	-1.000000	969840.000000	1772659827.839587
-41037.570000	-92162.745000	16690.635000	1561.545000	4595.445000	6937.875000	2557.350000	2663.775000	-4.759895	2.258694	4.696672	3.135699	-4.658662	-4.703384	-4.000978	-10.106043	-1.327620	5.951400	-1.510740	0.825926	0.171997	0.504637	-1.000000	-1.000000	-1.000000	-1.000000	-1.000000	-1.000000	-1.000000	78.413793	0.000000	-1.000000	-1.000000	969841.000000	1772659827.843491
-41043.690000	-92149.380000	16707.150000	1579.095000	4611.690000	6947.235000	2557.935000	2652.030000	-9.407568	-6.704104	-2.975677	-5.681472	-11.854999	-10.912921	-7.452371	-12.761405	-1.327620	5.951400	-1.510740	0.825926	0.171997	0.504637	-1.000000	-1.000000	-1.000000	-1.000000	-1.000000	-1.000000	-1.000000	78.413793	0.000000	-1.000000	-1.000000	969842.000000	1772659827.843498
-41016.870000	-92148.030000	16702.965000	1572.120000	4611.510000	6939.135000	2555.145000	2674.080000	-11.102411	-14.149679	-10.965292	-13.704093	-15.490867	-13.830362	-7.666187	-9.403181	-1.327620	5.951400	-1.510740	0.825926	0.171997	0.504637	-1.000000	-1.000000	-1.000000	-1.000000	-1.000000	-1.000000	-1.000000	78.413793	0.000000	-1.000000	-1.000000	969843.000000	1772659827.847577
-41016.960000	-92155.815000	16696.800000	1563.930000	4607.685000	6931.035000	2569.635000	2696.310000	-5.006508	-13.832572	-12.237454	-14.297973	-11.169734	-10.404683	-3.130452	2.766212	-1.327620	5.951400	-1.510740	0.825926	0.171997	0.504637	-1.000000	-1.000000	-1.000000	-1.000000	-1.000000	-1.000000	-1.000000	78.413793	0.000000	-1.000000	-1.000000	969844.000000	1772659827.847585
-41004.450000	-92144.520000	16708.095000	1577.250000	4607.955000	6941.520000	2575.305000	2710.710000	6.730639	-5.878790	-5.852669	-6.979133	-0.946962	-2.395872	3.998165	18.714651	-1.327620	5.951400	-1.510740	0.825926	0.171997	0.504637	-1.000000	-1.000000	-1.000000	-1.000000	-1.000000	-1.000000	-1.000000	78.413793	0.000000	-1.000000	-1.000000	969845.000000	1772659827.851585
-40992.705000	-92113.920000	16741.980000	1611.495000	4624.200000	6968.970000	2587.140000	2721.195000	16.626887	5.029771	3.850711	3.869289	9.205293	6.460942	9.895587	28.587732	-1.327620	5.951400	-1.510740	0.825926	0.171997	0.504637	-1.000000	-1.000000	-1.000000	-1.000000	-1.000000	-1.000000	-1.000000	78.413793	0.000000	-1.000000	-1.000000	969846.000000	1772659827.851592
-41012.595000	-92111.580000	16732.080000	1605.555000	4627.440000	6973.020000	2595.420000	2695.680000	18.460320	13.595445	11.263467	12.657392	14.374108	12.963065	11.716594	25.442007	-1.327620	5.951400	-1.510740	0.825926	0.171997	0.504637	-1.000000	-1.000000	-1.000000	-1.000000	-1.000000	-1.000000	-1.000000	78.413793	0.000000	-1.000000	-1.000000	969847.000000	1772659827.855512
-41002.020000	-92111.535000	16713.720000	1588.365000	4621.410000	6970.680000	2596.185000	2715.390000	10.981734	15.481061	11.710909	14.440158	12.741354	14.392075	8.834583	10.140875	-1.327620	5.951400	-1.510740	0.825926	0.171997	0.504637	-1.000000	-1.000000	-1.000000	-1.000000	-1.000000	-1.000000	-1.000000	78.413793	0.000000	-1.000000	-1.000000	969848.000000	1772659827.855523
-41012.190000	-92148.930000	16671.510000	1547.955000	4586.895000	6940.035000	2561.445000	2684.610000	-1.968805	9.026433	3.846282	7.333976	5.201072	9.205641	1.850852	-10.226352	-1.327620	5.951400	-1.510740	0.825926	0.171997	0.504637	-1.000000	-1.000000	-1.000000	-1.000000	-1.000000	-1.000000	-1.000000	78.413793	0.000000	-1.000000	-1.000000	969849.000000	1772659827.860246
-41051.025000	-92201.580000	16662.735000	1537.020000	4571.010000	6914.430000	2535.840000	2633.670000	-14.286142	-3.585614	-8.319483	-5.237299	-5.219537	-1.385732	-8.056003	-27.729038	-1.327620	5.951400	-1.510740	0.825926	0.171997	0.504637	-1.000000	-1.000000	-1.000000	-1.000000	-1.000000	-1.000000	-1.000000	78.413793	0.000000	-1.000000	-1.000000	969850.000000	1772659827.860255
-41037.255000	-92187.180000	16688.835000	1549.395000	4574.385000	6915.735000	2544.210000	2661.390000	-20.801083	-16.669982	-16.988661	-15.842097	-13.822582	-12.756586	-17.192042	-35.750134	-3.235120	5.112100	-1.464960	0.825865	0.174011	0.507384	-1.000000	-1.000000	-1.000000	-1.000000	-1.000000	-1.000000	-1.000000	78.413793	0.000000	-1.000000	-1.000000	969851.000000	1772659827.863593
-41018.580000	-92151.360000	16709.445000	1573.515000	4597.065000	6934.005000	2554.020000	2679.255000	-18.386468	-21.976910	-15.226275	-17.103153	-15.453290	-18.064596	-19.515162	-29.334155	-3.235120	5.112100	-1.464960	0.825865	0.174011	0.507384	-1.000000	-1.000000	-1.000000	-1.000000	-1.000000	-1.000000	-1.000000	78.413793	0.000000	-1.000000	-1.000000	969852.000000	1772659827.863602
-40984.830000	-92108.790000	16752.600000	1620.315000	4649.265000	6981.480000	2589.345000	2727.675000	-7.157031	-13.532531	-2.095786	-6.409174	-7.251383	-12.413636	-11.757905	-9.417157	-3.235120	5.112100	-1.464960	0.825865	0.174011	0.507384	-1.000000	-1.000000	-1.000000	-1.000000	-1.000000	-1.000000	-1.000000	78.413793	0.000000	-1.000000	-1.000000	969853.000000	1772659827.867913
-40974.660000	-92097.540000	16757.415000	1623.420000	4656.825000	6992.010000	2599.470000	2728.530000	8.189355	5.445752	15.291541	10.797895	7.914326	2.242063	3.030320	15.117766	-3.235120	5.112100	-1.464960	0.825865	0.174011	0.507384	-1.000000	-1.000000	-1.000000	-1.000000	-1.000000	-1.000000	-1.000000	78.413793	0.000000	-1.000000	-1.000000	969854.000000	1772659827.867921
-41061.105000	-92187.540000	16667.460000	1535.265000	4570.245000	6912.090000	2530.260000	2619.765000	18.797546	21.750917	24.455965	22.047093	19.899299	15.695723	16.143386	30.816776	-3.235120	5.112100	-1.464960	0.825865	0.174011	0.507384	-1.000000	-1.000000	-1.000000	-1.000000	-1.000000	-1.000000	-1.000000	78.413793	0.000000	-1.000000	-1.000000	969855.000000	1772659827.871596
-40998.780000	-92138.715000	16713.720000	1579.455000	4601.610000	6951.420000	2570.985000	2709.405000	17.773640	22.779189	17.237953	17.741116	18.355923	17.220821	18.961859	28.949008	-3.235120	5.112100	-1.464960	0.825865	0.174011	0.507384	-1.000000	-1.000000	-1.000000	-1.000000	-1.000000	-1.000000	-1.000000	78.413793	0.000000	-1.000000	-1.000000	969856.000000	1772659827.871603
-41048.415000	-92168.460000	16687.035000	1553.670000	4581.135000	6928.065000	2547.495000	2647.305000	7.286254	9.466139	-0.494030	2.154993	4.500630	7.056898	11.376252	13.779519	-3.235120	5.112100	-1.464960	0.825865	0.174011	0.507384	-1.000000	-1.000000	-1.000000	-1.000000	-1.000000	-1.000000	-1.000000	78.413793	0.000000	-1.000000	-1.000000	969857.000000	1772659827.877288
-41053.860000	-92162.880000	16691.040000	1558.665000	4587.390000	6930.630000	2549.430000	2637.765000	-4.991834	-6.099581	-14.900456	-11.670195	-10.213994	-5.113849	0.815016	-3.686816	-3.235120	5.112100	-1.464960	0.825865	0.174011	0.507384	-1.000000	-1.000000	-1.000000	-1.000000	-1.000000	-1.000000	-1.000000	78.413793	0.000000	-1.000000	-1.000000	969858.000000	1772659827.877298
-40987.530000	-92108.160000	16743.330000	1610.055000	4635.045000	6974.910000	2595.420000	2722.680000	-11.497461	-12.462978	-17.245099	-14.741539	-15.495021	-10.251873	-5.228393	-13.636693	-3.235120	5.112100	-1.464960	0.825865	0.174011	0.507384	-1.000000	-1.000000	-1.000000	-1.000000	-1.000000	-1.000000	-1.000000	78.413793	0.000000	-1.000000	-1.000000	969859.000000	1772659827.881225
-41033.790000	-92160.090000	16695.045000	1563.705000	4591.035000	6928.155000	2552.040000	2658.555000	-8.350309	-7.270413	-8.799616	-7.420284	-9.585387	-6.243264	-4.269144	-11.402764	-3.235120	5.112100	-1.464960	0.825865	0.174011	0.507384	-1.000000	-1.000000	-1.000000	-1.000000	-1.000000	-1.000000	-1.000000	78.413793	0.000000	-1.000000	-1.000000	969860.000000	1772659827.881234
-41057.820000	-92171.655000	16686.585000	1557.900000	4588.785000	6925.230000	2538.855000	2629.440000	-0.778930	0.719880	1.179626	1.740584	-0.084915	0.644327	-1.041193	-3.618211	-2.258480	5.615680	-1.938020	0.829832	0.174255	0.507384	-1.000000	-1.000000	-1.000000	-1.000000	-1.000000	-1.000000	-1.000000	78.413793	0.000000	-1.000000	-1.000000	969861.000000	1772659827.883658
