Channel1	Channel2	Channel3	Channel4	Channel5	Channel6	Channel7	Channel8	FilteredChannel1	FilteredChannel2	FilteredChannel3	FilteredChannel4	FilteredChannel5	FilteredChannel6	FilteredChannel7	FilteredChannel8	GyroX	GyroY	GyroZ	AccX	AccY	AccZ	PPG1	PPG2	rawPPG1	rawPPG2	rawPPG3	Hr	Hrv	Battery	Trigger	PhysicalTrigger	AutoTrigger	NumMeasurements	Timestamp
-5159.520000	-7583.040000	278.280000	13240.395000	-4055.355000	-5003.415000	7581.690000	-3813.930000	0.287242	4.831133	5.158288	3.750542	1.902995	4.040356	2.838996	-4.069811	-3.296160	4.959500	-1.266580	0.683409	0.685545	0.190551	-1.000000	-1.000000	-1.000000	-1.000000	-1.000000	-1.000000	-1.000000	74.896552	0.000000	-1.000000	-1.000000	1944437.000000	1770065385.806044
-5134.995000	-7552.080000	308.205000	13266.765000	-4027.455000	-4949.505000	7655.805000	-3838.005000	8.524378	13.762098	13.563094	11.948633	10.681498	8.685448	2.977526	15.875088	-3.296160	4.959500	-1.266580	0.683409	0.685545	0.190551	-1.000000	-1.000000	-1.000000	-1.000000	-1.000000	-1.000000	-1.000000	74.896552	0.000000	-1.000000	-1.000000	1944438.000000	1770065385.806075
-5183.460000	-7600.230000	261.495000	13224.240000	-4066.335000	-4985.100000	7610.085000	-3830.670000	12.213095	16.469404	16.057870	14.942898	14.521168	11.510918	6.609420	24.261091	-3.296160	4.959500	-1.266580	0.683409	0.685545	0.190551	-1.000000	-1.000000	-1.000000	-1.000000	-1.000000	-1.000000	-1.000000	74.896552	0.000000	-1.000000	-1.000000	1944439.000000	1770065385.812499
-5222.070000	-7669.350000	192.375000	13165.335000	-4113.090000	-5033.565000	7566.435000	-3811.230000	7.369896	7.761861	7.042907	6.560624	6.824200	6.367560	8.136385	17.538241	-3.296160	4.959500	-1.266580	0.683409	0.685545	0.190551	-1.000000	-1.000000	-1.000000	-1.000000	-1.000000	-1.000000	-1.000000	74.896552	0.000000	-1.000000	-1.000000	1944440.000000	1770065385.812509
-5204.115000	-7645.725000	216.180000	13190.220000	-4086.315000	-5007.105000	7578.720000	-3835.980000	-2.489273	-8.081156	-9.246785	-8.935856	-8.050715	-5.572586	2.578542	5.161302	-4.608520	5.417300	-1.144500	0.684813	0.685545	0.190856	-1.000000	-1.000000	-1.000000	-1.000000	-1.000000	-1.000000	-1.000000	74.896552	0.000000	-1.000000	-1.000000	1944441.000000	1770065385.814183
-5182.875000	-7612.425000	238.635000	13202.190000	-4082.355000	-5008.725000	7567.020000	-3843.180000	-8.716570	-19.040484	-20.523407	-19.341596	-17.834570	-14.740214	-6.412827	-3.592540	-4.608520	5.417300	-1.144500	0.684813	0.685545	0.190856	-1.000000	-1.000000	-1.000000	-1.000000	-1.000000	-1.000000	-1.000000	74.896552	0.000000	-1.000000	-1.000000	1944442.000000	1770065385.814192
-5232.195000	-7657.200000	197.595000	13163.265000	-4119.885000	-5043.105000	7520.085000	-3834.090000	-7.735260	-18.045859	-19.683843	-18.360871	-16.864443	-15.664814	-13.228983	-5.961091	-4.608520	5.417300	-1.144500	0.684813	0.685545	0.190856	-1.000000	-1.000000	-1.000000	-1.000000	-1.000000	-1.000000	-1.000000	74.896552	0.000000	-1.000000	-1.000000	1944443.000000	1770065385.817700
-5181.795000	-7614.630000	242.280000	13204.755000	-4081.545000	-5007.735000	7568.775000	-3807.135000	-3.642984	-9.105514	-10.561485	-10.246596	-9.844362	-11.488324	-15.601028	-4.180993	-4.608520	5.417300	-1.144500	0.684813	0.685545	0.190856	-1.000000	-1.000000	-1.000000	-1.000000	-1.000000	-1.000000	-1.000000	74.896552	0.000000	-1.000000	-1.000000	1944444.000000	1770065385.817709
-5198.715000	-7620.795000	231.930000	13187.295000	-4103.685000	-5030.145000	7579.890000	-3836.340000	-1.014628	0.224442	-0.340337	-1.569024	-2.806270	-6.125911	-11.573632	-3.176523	-4.608520	5.417300	-1.144500	0.684813	0.685545	0.190856	-1.000000	-1.000000	-1.000000	-1.000000	-1.000000	-1.000000	-1.000000	74.896552	0.000000	-1.000000	-1.000000	1944445.000000	1770065385.826194
-5228.955000	-7663.635000	199.035000	13165.695000	-4126.500000	-5050.215000	7549.830000	-3849.570000	-1.433794	4.965297	5.905767	3.722637	1.309031	-1.297017	-2.236454	-6.185301	-4.608520	5.417300	-1.144500	0.684813	0.685545	0.190856	-1.000000	-1.000000	-1.000000	-1.000000	-1.000000	-1.000000	-1.000000	74.896552	0.000000	-1.000000	-1.000000	1944446.000000	1770065385.826204
-5231.430000	-7669.890000	193.095000	13168.170000	-4120.650000	-5029.380000	7524.945000	-3858.390000	-4.522510	3.059476	5.608723	4.142965	1.630870	1.423776	5.171943	-10.988634	-4.608520	5.417300	-1.144500	0.684813	0.685545	0.190856	-1.000000	-1.000000	-1.000000	-1.000000	-1.000000	-1.000000	-1.000000	74.896552	0.000000	-1.000000	-1.000000	1944447.000000	1770065385.826214
-5196.690000	-7628.895000	231.930000	13202.640000	-4087.530000	-5005.080000	7555.770000	-3830.490000	-6.160913	-1.322386	2.121091	2.798683	1.098321	3.040533	6.401801	-12.551547	-4.608520	5.417300	-1.144500	0.684813	0.685545	0.190856	-1.000000	-1.000000	-1.000000	-1.000000	-1.000000	-1.000000	-1.000000	74.896552	0.000000	-1.000000	-1.000000	1944448.000000	1770065385.826220
-5190.795000	-7630.290000	243.225000	13219.605000	-4071.240000	-4993.830000	7590.645000	-3809.520000	-0.522804	0.646419	3.646620	6.038677	5.324912	7.565457	6.629343	-7.463839	-4.608520	5.417300	-1.144500	0.684813	0.685545	0.190856	-1.000000	-1.000000	-1.000000	-1.000000	-1.000000	-1.000000	-1.000000	74.896552	0.000000	-1.000000	-1.000000	1944449.000000	1770065385.829697
-5203.440000	-7643.700000	221.175000	13190.490000	-4090.230000	-5010.120000	7572.240000	-3821.400000	10.886352	10.025793	11.624477	13.972898	14.115880	14.740339	10.823927	3.583270	-4.608520	5.417300	-1.144500	0.684813	0.685545	0.190856	-1.000000	-1.000000	-1.000000	-1.000000	-1.000000	-1.000000	-1.000000	74.896552	0.000000	-1.000000	-1.000000	1944450.000000	1770065385.829707
-5200.875000	-7624.530000	237.330000	13203.405000	-4091.625000	-5006.745000	7577.280000	-3815.685000	18.720420	17.451203	17.368987	18.239224	19.431948	18.113818	15.607172	15.121875	-3.647140	5.203660	-0.656180	0.686155	0.683348	0.189941	-1.000000	-1.000000	-1.000000	-1.000000	-1.000000	-1.000000	-1.000000	74.896552	0.000000	-1.000000	-1.000000	1944451.000000	1770065385.832453
-5176.485000	-7607.610000	256.635000	13223.925000	-4071.330000	-5003.505000	7584.525000	-3798.720000	16.894582	16.003555	14.262508	13.293559	15.397448	13.205779	15.225576	20.263635	-3.647140	5.203660	-0.656180	0.686155	0.683348	0.189941	-1.000000	-1.000000	-1.000000	-1.000000	-1.000000	-1.000000	-1.000000	74.896552	0.000000	-1.000000	-1.000000	1944452.000000	1770065385.832465
-5176.035000	-7608.240000	254.070000	13225.365000	-4063.770000	-4997.115000	7582.545000	-3806.370000	7.021221	6.674325	3.705582	1.681229	3.944442	1.852621	7.749980	15.460545	-3.647140	5.203660	-0.656180	0.686155	0.683348	0.189941	-1.000000	-1.000000	-1.000000	-1.000000	-1.000000	-1.000000	-1.000000	74.896552	0.000000	-1.000000	-1.000000	1944453.000000	1770065385.837555
-5178.465000	-7607.205000	255.735000	13229.685000	-4063.365000	-4995.045000	7578.810000	-3804.165000	-5.652991	-5.808742	-9.068607	-10.632089	-8.668852	-10.049265	-4.746580	3.176848	-3.647140	5.203660	-0.656180	0.686155	0.683348	0.189941	-1.000000	-1.000000	-1.000000	-1.000000	-1.000000	-1.000000	-1.000000	74.896552	0.000000	-1.000000	-1.000000	1944454.000000	1770065385.837564
-5161.455000	-7596.270000	265.860000	13238.595000	-4048.965000	-4972.545000	7595.730000	-3796.200000	-14.805711	-15.150396	-17.738422	-17.837029	-16.245237	-16.334549	-16.412193	-9.083049	-3.647140	5.203660	-0.656180	0.686155	0.683348	0.189941	-1.000000	-1.000000	-1.000000	-1.000000	-1.000000	-1.000000	-1.000000	74.896552	0.000000	-1.000000	-1.000000	1944455.000000	1770065385.841661
-5176.215000	-7598.250000	264.105000	13236.435000	-4048.605000	-4978.305000	7588.440000	-3814.245000	-16.361707	-16.843618	-18.226181	-17.332328	-16.312104	-15.106638	-20.684092	-15.063352	-3.647140	5.203660	-0.656180	0.686155	0.683348	0.189941	-1.000000	-1.000000	-1.000000	-1.000000	-1.000000	-1.000000	-1.000000	74.896552	0.000000	-1.000000	-1.000000	1944456.000000	1770065385.841671
-5211.945000	-7626.825000	233.010000	13204.260000	-4080.960000	-5008.950000	7564.995000	-3823.515000	-12.076539	-12.014726	-12.149908	-11.587189	-11.474508	-9.684043	-16.395174	-14.805070	-3.647140	5.203660	-0.656180	0.686155	0.683348	0.189941	-1.000000	-1.000000	-1.000000	-1.000000	-1.000000	-1.000000	-1.000000	74.896552	0.000000	-1.000000	-1.000000	1944457.000000	1770065385.845638
-5187.465000	-7620.615000	231.705000	13197.060000	-4097.115000	-5010.930000	7568.820000	-3821.085000	-6.559796	-5.317987	-4.689837	-5.356309	-6.536667	-4.578836	-8.331006	-11.432822	-3.647140	5.203660	-0.656180	0.686155	0.683348	0.189941	-1.000000	-1.000000	-1.000000	-1.000000	-1.000000	-1.000000	-1.000000	74.896552	0.000000	-1.000000	-1.000000	1944458.000000	1770065385.845646
-5160.105000	-7624.980000	229.455000	13192.785000	-4089.375000	-4993.605000	7584.120000	-3807.270000	-1.242296	-0.141663	0.638038	-1.085159	-3.616831	-1.105530	-0.660868	-5.962466	-3.647140	5.203660	-0.656180	0.686155	0.683348	0.189941	-1.000000	-1.000000	-1.000000	-1.000000	-1.000000	-1.000000	-1.000000	74.896552	0.000000	-1.000000	-1.000000	1944459.000000	1770065385.849628
-5160.690000	-7598.205000	263.250000	13228.830000	-4059.405000	-4999.140000	7576.290000	-3798.225000	4.803752	2.923695	3.940784	2.291161	-0.578354	2.314773	5.880320	1.570674	-3.647140	5.203660	-0.656180	0.686155	0.683348	0.189941	-1.000000	-1.000000	-1.000000	-1.000000	-1.000000	-1.000000	-1.000000	74.896552	0.000000	-1.000000	-1.000000	1944460.000000	1770065385.849638
-5164.695000	-7594.785000	264.825000	13227.930000	-4068.540000	-5008.905000	7578.045000	-3809.565000	9.619966	4.569966	6.415480	6.062975	4.288804	5.713092	10.307423	8.460172	-3.204600	4.196500	-0.946120	0.680662	0.685362	0.188903	-1.000000	-1.000000	-1.000000	-1.000000	-1.000000	-1.000000	-1.000000	74.896552	0.000000	-1.000000	-1.000000	1944461.000000	1770065385.853597
-5149.440000	-7582.995000	276.840000	13242.690000	-4049.505000	-4985.730000	7605.585000	-3776.310000	9.820596	5.267007	7.978655	9.281539	8.991277	7.298958	11.136177	11.369924	-3.204600	4.196500	-0.946120	0.680662	0.685362	0.188903	-1.000000	-1.000000	-1.000000	-1.000000	-1.000000	-1.000000	-1.000000	74.896552	0.000000	-1.000000	-1.000000	1944462.000000	1770065385.853608
-5110.335000	-7531.965000	330.570000	13298.670000	-3989.565000	-4924.620000	7626.870000	-3703.995000	6.334442	5.972627	8.716026	11.064681	11.816629	7.662464	9.333880	11.405108	-3.204600	4.196500	-0.946120	0.680662	0.685362	0.188903	-1.000000	-1.000000	-1.000000	-1.000000	-1.000000	-1.000000	-1.000000	74.896552	0.000000	-1.000000	-1.000000	1944463.000000	1770065385.857830
-5140.755000	-7571.565000	287.055000	13255.785000	-4033.800000	-4971.240000	7526.340000	-3691.845000	2.703559	7.231969	8.872077	11.241231	12.554394	8.014458	5.538400	12.068885	-3.204600	4.196500	-0.946120	0.680662	0.685362	0.188903	-1.000000	-1.000000	-1.000000	-1.000000	-1.000000	-1.000000	-1.000000	74.896552	0.000000	-1.000000	-1.000000	1944464.000000	1770065385.857839
-5148.180000	-7591.320000	266.040000	13233.555000	-4059.495000	-4996.890000	7523.370000	-3688.695000	-0.132126	6.521182	6.276135	7.768072	9.006960	5.920681	-2.011996	12.755088	-3.204600	4.196500	-0.946120	0.680662	0.685362	0.188903	-1.000000	-1.000000	-1.000000	-1.000000	-1.000000	-1.000000	-1.000000	74.896552	0.000000	-1.000000	-1.000000	1944465.000000	1770065385.861722
-5190.570000	-7629.030000	233.235000	13203.945000	-4086.270000	-5005.755000	7619.175000	-3894.030000	-3.177322	1.235582	-0.796628	-0.556411	-0.017919	-0.436993	-10.078281	6.674130	-3.204600	4.196500	-0.946120	0.680662	0.685362	0.188903	-1.000000	-1.000000	-1.000000	-1.000000	-1.000000	-1.000000	-1.000000	74.896552	0.000000	-1.000000	-1.000000	1944466.000000	1770065385.861732
-5206.005000	-7637.715000	221.760000	13184.460000	-4106.385000	-5021.640000	7601.895000	-3914.640000	-7.356015	-7.151254	-9.825655	-10.551990	-10.728123	-8.121872	-10.266092	-12.369997	-3.204600	4.196500	-0.946120	0.680662	0.685362	0.188903	-1.000000	-1.000000	-1.000000	-1.000000	-1.000000	-1.000000	-1.000000	74.896552	0.000000	-1.000000	-1.000000	1944467.000000	1770065385.867136
-5163.705000	-7592.670000	264.105000	13227.120000	-4063.275000	-5002.380000	7603.110000	-3825.315000	-11.526013	-13.565537	-15.537346	-16.665152	-17.069631	-12.667170	-1.571454	-35.893252	-3.204600	4.196500	-0.946120	0.680662	0.685362	0.188903	-1.000000	-1.000000	-1.000000	-1.000000	-1.000000	-1.000000	-1.000000	74.896552	0.000000	-1.000000	-1.000000	1944468.000000	1770065385.867145
-5110.065000	-7537.365000	320.400000	13288.410000	-4009.770000	-4951.080000	7613.235000	-3710.115000	-10.728817	-12.279882	-13.141938	-14.207649	-14.404879	-10.549778	8.067270	-41.814409	-3.204600	4.196500	-0.946120	0.680662	0.685362	0.188903	-1.000000	-1.000000	-1.000000	-1.000000	-1.000000	-1.000000	-1.000000	74.896552	0.000000	-1.000000	-1.000000	1944469.000000	1770065385.875113
-5154.705000	-7575.795000	284.445000	13253.760000	-4044.915000	-4976.865000	7564.365000	-3727.890000	-2.319370	-2.758987	-2.892600	-3.493407	-3.351463	-1.513427	11.015125	-18.812033	-3.204600	4.196500	-0.946120	0.680662	0.685362	0.188903	-1.000000	-1.000000	-1.000000	-1.000000	-1.000000	-1.000000	-1.000000	74.896552	0.000000	-1.000000	-1.000000	1944470.000000	1770065385.875124
-5095.215000	-7515.990000	341.685000	13306.410000	-3994.740000	-4927.950000	7686.720000	-3755.205000	8.542599	8.362832	8.594170	8.583474	8.846031	8.828271	5.950904	17.805314	-4.288060	3.876040	-0.686700	0.679381	0.686888	0.188415	-1.000000	-1.000000	-1.000000	-1.000000	-1.000000	-1.000000	-1.000000	74.896552	0.000000	-1.000000	-1.000000	1944471.000000	1770065385.875136
-5065.155000	-7492.320000	366.030000	13332.240000	-3964.770000	-4909.230000	7653.285000	-3809.655000	15.432702	14.608308	14.985857	15.092186	15.091301	13.768860	-0.739356	39.989091	-4.288060	3.876040	-0.686700	0.679381	0.686888	0.188415	-1.000000	-1.000000	-1.000000	-1.000000	-1.000000	-1.000000	-1.000000	74.896552	0.000000	-1.000000	-1.000000	1944472.000000	1770065385.875141
-5266.755000	-7704.090000	154.530000	13122.585000	-4164.480000	-5080.815000	7491.510000	-3875.535000	14.119420	12.157557	12.567747	12.230799	12.006045	9.872251	-4.352679	32.427200	-4.288060	3.876040	-0.686700	0.679381	0.686888	0.188415	-1.000000	-1.000000	-1.000000	-1.000000	-1.000000	-1.000000	-1.000000	74.896552	0.000000	-1.000000	-1.000000	1944473.000000	1770065385.877597
-5311.710000	-7759.170000	96.120000	13063.590000	-4211.550000	-5122.440000	7519.860000	-3832.605000	0.821261	-2.177424	-1.722139	-2.472754	-2.058276	-3.696488	-8.835441	4.887397	-4.288060	3.876040	-0.686700	0.679381	0.686888	0.188415	-1.000000	-1.000000	-1.000000	-1.000000	-1.000000	-1.000000	-1.000000	74.896552	0.000000	-1.000000	-1.000000	1944474.000000	1770065385.877606
-5236.245000	-7686.045000	171.720000	13143.555000	-4135.230000	-5064.120000	7505.955000	-3736.125000	-18.278574	-21.613335	-21.173996	-21.763124	-19.833956	-20.052170	-16.491718	-15.083303	-4.288060	3.876040	-0.686700	0.679381	0.686888	0.188415	-1.000000	-1.000000	-1.000000	-1.000000	-1.000000	-1.000000	-1.000000	74.896552	0.000000	-1.000000	-1.000000	1944475.000000	1770065385.883161
-5232.105000	-7687.980000	166.455000	13134.510000	-4154.130000	-5094.045000	7471.305000	-3728.070000	-26.304228	-28.907084	-28.563068	-28.284773	-25.473236	-25.619766	-21.742561	-8.732161	-4.288060	3.876040	-0.686700	0.679381	0.686888	0.188415	-1.000000	-1.000000	-1.000000	-1.000000	-1.000000	-1.000000	-1.000000	74.896552	0.000000	-1.000000	-1.000000	1944476.000000	1770065385.883224
-5227.695000	-7667.055000	192.465000	13160.970000	-4129.245000	-5047.920000	7576.155000	-3869.910000	-15.826406	-16.592240	-16.282054	-14.955253	-13.360628	-14.820756	-17.107470	10.584313	-4.288060	3.876040	-0.686700	0.679381	0.686888	0.188415	-1.000000	-1.000000	-1.000000	-1.000000	-1.000000	-1.000000	-1.000000	74.896552	0.000000	-1.000000	-1.000000	1944477.000000	1770065385.887269
-5225.445000	-7653.375000	206.370000	13174.605000	-4110.345000	-5011.920000	7599.375000	-3937.995000	3.803824	5.794517	6.180572	7.805188	6.748590	5.606290	0.889044	12.756359	-4.288060	3.876040	-0.686700	0.679381	0.686888	0.188415	-1.000000	-1.000000	-1.000000	-1.000000	-1.000000	-1.000000	-1.000000	74.896552	0.000000	-1.000000	-1.000000	1944478.000000	1770065385.887278
-5210.640000	-7635.375000	222.570000	13188.195000	-4098.240000	-5010.075000	7570.170000	-3900.555000	19.880042	24.849234	25.274650	26.075095	23.020849	24.781472	25.019148	-10.147838	-4.288060	3.876040	-0.686700	0.679381	0.686888	0.188415	-1.000000	-1.000000	-1.000000	-1.000000	-1.000000	-1.000000	-1.000000	74.896552	0.000000	-1.000000	-1.000000	1944479.000000	1770065385.888362
-5205.510000	-7622.820000	237.870000	13203.270000	-4090.770000	-5010.705000	7577.235000	-3864.555000	25.136510	31.919737	32.155831	31.544514	28.162083	32.445228	38.220462	-34.864331	-4.288060	3.876040	-0.686700	0.679381	0.686888	0.188415	-1.000000	-1.000000	-1.000000	-1.000000	-1.000000	-1.000000	-1.000000	74.896552	0.000000	-1.000000	-1.000000	1944480.000000	1770065385.888368
-5186.430000	-7608.510000	251.010000	13217.715000	-4076.190000	-5010.030000	7590.915000	-3825.180000	19.607211	26.007506	25.886968	24.175832	21.465183	24.847686	31.892602	-35.232145	-2.716280	7.111160	-0.473060	0.684874	0.688536	0.189392	-1.000000	-1.000000	-1.000000	-1.000000	-1.000000	-1.000000	-1.000000	74.896552	0.000000	-1.000000	-1.000000	1944481.000000	1770065385.892292
-5157.720000	-7595.775000	260.325000	13225.140000	-4065.975000	-4999.410000	7599.555000	-3802.185000	12.292961	16.060027	15.597276	13.681461	11.718454	10.540582	15.856000	-7.119691	-2.716280	7.111160	-0.473060	0.684874	0.688536	0.189392	-1.000000	-1.000000	-1.000000	-1.000000	-1.000000	-1.000000	-1.000000	74.896552	0.000000	-1.000000	-1.000000	1944482.000000	1770065385.892298
-5187.420000	-7613.325000	247.860000	13218.120000	-4070.430000	-4995.315000	7588.755000	-3833.550000	10.877339	10.634901	9.958356	8.748766	7.456821	0.847150	1.824968	30.346295	-2.716280	7.111160	-0.473060	0.684874	0.688536	0.189392	-1.000000	-1.000000	-1.000000	-1.000000	-1.000000	-1.000000	-1.000000	74.896552	0.000000	-1.000000	-1.000000	1944483.000000	1770065385.900709
-5180.085000	-7611.030000	250.380000	13219.605000	-4070.790000	-4993.695000	7582.860000	-3825.045000	9.754735	5.944702	5.383000	5.468949	5.201739	-3.401087	-8.741389	50.622120	-2.716280	7.111160	-0.473060	0.684874	0.688536	0.189392	-1.000000	-1.000000	-1.000000	-1.000000	-1.000000	-1.000000	-1.000000	74.896552	0.000000	-1.000000	-1.000000	1944484.000000	1770065385.900719
-5203.530000	-7643.070000	215.460000	13181.985000	-4100.670000	-5031.405000	7556.040000	-3832.110000	-0.431096	-6.064507	-6.169742	-4.767423	-3.266953	-8.345002	-17.734616	41.225902	-2.716280	7.111160	-0.473060	0.684874	0.688536	0.189392	-1.000000	-1.000000	-1.000000	-1.000000	-1.000000	-1.000000	-1.000000	74.896552	0.000000	-1.000000	-1.000000	1944485.000000	1770065385.902420
-5205.465000	-7640.460000	217.215000	13183.785000	-4100.445000	-5019.525000	7563.195000	-3841.695000	-18.584482	-24.682236	-24.469373	-22.465670	-18.762614	-17.249166	-25.609007	12.483867	-2.716280	7.111160	-0.473060	0.684874	0.688536	0.189392	-1.000000	-1.000000	-1.000000	-1.000000	-1.000000	-1.000000	-1.000000	74.896552	0.000000	-1.000000	-1.000000	1944486.000000	1770065385.902428
-5185.980000	-7616.475000	245.160000	13218.480000	-4074.075000	-4998.015000	7572.960000	-3819.780000	-34.112676	-39.888539	-39.826416	-38.184110	-33.222543	-26.559168	-30.054034	-14.960470	-2.716280	7.111160	-0.473060	0.684874	0.688536	0.189392	-1.000000	-1.000000	-1.000000	-1.000000	-1.000000	-1.000000	-1.000000	74.896552	0.000000	-1.000000	-1.000000	1944487.000000	1770065385.905692
-5184.090000	-7618.320000	244.350000	13217.310000	-4069.530000	-4993.560000	7575.165000	-3811.230000	-36.745471	-41.154426	-41.355104	-40.483122	-36.476015	-28.665699	-26.144683	-28.165694	-2.716280	7.111160	-0.473060	0.684874	0.688536	0.189392	-1.000000	-1.000000	-1.000000	-1.000000	-1.000000	-1.000000	-1.000000	74.896552	0.000000	-1.000000	-1.000000	1944488.000000	1770065385.905701
-5186.115000	-7626.960000	233.910000	13199.490000	-4092.435000	-5007.870000	7583.130000	-3811.455000	-24.942213	-26.922033	-27.101618	-26.968577	-25.658599	-19.888853	-12.448911	-27.365312	-2.716280	7.111160	-0.473060	0.684874	0.688536	0.189392	-1.000000	-1.000000	-1.000000	-1.000000	-1.000000	-1.000000	-1.000000	74.896552	0.000000	-1.000000	-1.000000	1944489.000000	1770065385.911495
-5173.830000	-7598.925000	263.250000	13226.805000	-4067.010000	-4989.420000	7598.520000	-3794.445000	-4.721484	-3.509046	-3.444593	-4.211579	-5.875360	-3.054113	6.920858	-19.090521	-2.716280	7.111160	-0.473060	0.684874	0.688536	0.189392	-1.000000	-1.000000	-1.000000	-1.000000	-1.000000	-1.000000	-1.000000	74.896552	0.000000	-1.000000	-1.000000	1944490.000000	1770065385.911503
-5154.390000	-7576.245000	283.590000	13245.210000	-4047.660000	-4976.640000	7587.810000	-3801.780000	16.361915	21.443307	21.765616	19.918527	16.035373	15.982808	24.585362	-8.890164	-2.212700	6.836480	-0.579880	0.683653	0.682249	0.193054	-1.000000	-1.000000	-1.000000	-1.000000	-1.000000	-1.000000	-1.000000	74.896552	0.000000	-1.000000	-1.000000	1944491.000000	1770065385.913733
-5182.695000	-7611.525000	244.170000	13205.880000	-4082.895000	-5001.705000	7570.035000	-3827.790000	30.619853	38.979004	39.279055	36.702229	32.069553	29.217881	32.145696	-0.354475	-2.212700	6.836480	-0.579880	0.683653	0.682249	0.193054	-1.000000	-1.000000	-1.000000	-1.000000	-1.000000	-1.000000	-1.000000	74.896552	0.000000	-1.000000	-1.000000	1944492.000000	1770065385.913739
-5183.145000	-7612.830000	245.880000	13213.755000	-4070.880000	-4998.420000	7576.605000	-3824.775000	31.633843	40.309098	40.157550	37.883372	34.472470	29.768222	26.223901	3.947238	-2.212700	6.836480	-0.579880	0.683653	0.682249	0.193054	-1.000000	-1.000000	-1.000000	-1.000000	-1.000000	-1.000000	-1.000000	74.896552	0.000000	-1.000000	-1.000000	1944493.000000	1770065385.917746
-5163.480000	-7594.020000	267.705000	13239.270000	-4050.135000	-4984.515000	7585.785000	-3806.235000	19.747324	25.015938	24.462887	23.885161	23.155904	18.374651	11.411082	4.795975	-2.212700	6.836480	-0.579880	0.683653	0.682249	0.193054	-1.000000	-1.000000	-1.000000	-1.000000	-1.000000	-1.000000	-1.000000	74.896552	0.000000	-1.000000	-1.000000	1944494.000000	1770065385.917756
-5185.530000	-7615.440000	246.015000	13217.760000	-4071.780000	-5001.705000	7571.520000	-3809.295000	2.474555	2.153508	1.799550	3.664609	5.535803	1.888395	-4.780886	6.011538	-2.212700	6.836480	-0.579880	0.683653	0.682249	0.193054	-1.000000	-1.000000	-1.000000	-1.000000	-1.000000	-1.000000	-1.000000	74.896552	0.000000	-1.000000	-1.000000	1944495.000000	1770065385.924821
-5197.320000	-7626.735000	235.530000	13206.465000	-4080.105000	-5008.230000	7569.945000	-3816.990000	-12.602245	-18.210084	-17.951549	-14.456526	-11.253335	-13.244599	-16.637910	8.279769	-2.212700	6.836480	-0.579880	0.683653	0.682249	0.193054	-1.000000	-1.000000	-1.000000	-1.000000	-1.000000	-1.000000	-1.000000	74.896552	0.000000	-1.000000	-1.000000	1944496.000000	1770065385.924828
-5193.945000	-7627.905000	233.685000	13206.510000	-4077.990000	-5004.855000	7574.580000	-3808.170000	-21.308676	-29.625372	-28.937854	-25.658839	-22.488815	-22.316762	-21.014635	8.269330	-2.212700	6.836480	-0.579880	0.683653	0.682249	0.193054	-1.000000	-1.000000	-1.000000	-1.000000	-1.000000	-1.000000	-1.000000	74.896552	0.000000	-1.000000	-1.000000	1944497.000000	1770065385.927580
-5182.155000	-7611.615000	247.860000	13217.085000	-4071.735000	-4999.230000	7578.585000	-3805.380000	-21.183449	-28.609114	-27.997041	-26.377441	-24.202981	-21.757958	-17.212621	4.517337	-2.212700	6.836480	-0.579880	0.683653	0.682249	0.193054	-1.000000	-1.000000	-1.000000	-1.000000	-1.000000	-1.000000	-1.000000	74.896552	0.000000	-1.000000	-1.000000	1944498.000000	1770065385.927590
-5156.865000	-7575.075000	283.005000	13248.630000	-4044.825000	-4976.370000	7603.065000	-3804.390000	-12.005274	-15.581588	-15.458495	-15.877400	-15.342769	-11.470413	-7.135409	-0.895998	-2.212700	6.836480	-0.579880	0.683653	0.682249	0.193054	-1.000000	-1.000000	-1.000000	-1.000000	-1.000000	-1.000000	-1.000000	74.896552	0.000000	-1.000000	-1.000000	1944499.000000	1770065385.928286
-5073.840000	-7493.040000	370.170000	13334.040000	-3965.355000	-4892.220000	7641.540000	-3739.410000	3.278342	4.655391	4.293674	2.226871	0.724361	4.558838	5.588393	-3.961888	-2.212700	6.836480	-0.579880	0.683653	0.682249	0.193054	-1.000000	-1.000000	-1.000000	-1.000000	-1.000000	-1.000000	-1.000000	74.896552	0.000000	-1.000000	-1.000000	1944500.000000	1770065385.928294
-5105.025000	-7522.020000	337.995000	13300.965000	-3994.875000	-4927.770000	7572.195000	-3725.910000	19.095531	24.345405	23.963425	21.038269	17.701913	20.118025	15.921099	-0.991730	-3.036740	5.554640	0.000000	0.678831	0.683531	0.192443	-1.000000	-1.000000	-1.000000	-1.000000	-1.000000	-1.000000	-1.000000	74.896552	0.000000	-1.000000	-1.000000	1944501.000000	1770065385.934087
-5098.950000	-7503.615000	356.940000	13323.195000	-3981.105000	-4920.795000	7637.445000	-3698.280000	27.158852	33.898656	33.881510	31.062857	26.990059	27.265092	18.362628	6.588113	-3.036740	5.554640	0.000000	0.678831	0.683531	0.192443	-1.000000	-1.000000	-1.000000	-1.000000	-1.000000	-1.000000	-1.000000	74.896552	0.000000	-1.000000	-1.000000	1944502.000000	1770065385.934098
-5060.160000	-7473.870000	383.850000	13350.510000	-3941.415000	-4882.860000	7712.505000	-3659.130000	21.866810	27.569947	27.740426	25.926187	22.834377	21.113065	13.179399	12.771648	-3.036740	5.554640	0.000000	0.678831	0.683531	0.192443	-1.000000	-1.000000	-1.000000	-1.000000	-1.000000	-1.000000	-1.000000	74.896552	0.000000	-1.000000	-1.000000	1944503.000000	1770065385.942864
-5198.940000	-7646.850000	210.285000	13179.015000	-4107.780000	-5021.460000	7594.875000	-3832.065000	5.127949	7.149713	7.011959	6.748023	6.429721	3.858744	5.266466	10.646669	-3.036740	5.554640	0.000000	0.678831	0.683531	0.192443	-1.000000	-1.000000	-1.000000	-1.000000	-1.000000	-1.000000	-1.000000	74.896552	0.000000	-1.000000	-1.000000	1944504.000000	1770065385.942874
-5248.215000	-7702.425000	157.140000	13131.045000	-4142.970000	-5061.015000	7537.860000	-3902.535000	-17.839546	-21.811703	-22.475362	-21.129407	-17.737540	-19.144889	-5.512391	-5.498527	-3.036740	5.554640	0.000000	0.678831	0.683531	0.192443	-1.000000	-1.000000	-1.000000	-1.000000	-1.000000	-1.000000	-1.000000	74.896552	0.000000	-1.000000	-1.000000	1944505.000000	1770065385.942885
-5255.955000	-7707.555000	153.900000	13127.355000	-4154.940000	-5086.170000	7523.100000	-3899.565000	-38.675145	-48.160177	-48.952974	-46.364909	-40.189579	-39.335590	-20.076240	-30.855001	-3.036740	5.554640	0.000000	0.678831	0.683531	0.192443	-1.000000	-1.000000	-1.000000	-1.000000	-1.000000	-1.000000	-1.000000	74.896552	0.000000	-1.000000	-1.000000	1944506.000000	1770065385.942890
-5217.795000	-7662.015000	198.585000	13171.095000	-4112.865000	-5045.130000	7548.660000	-3843.945000	-44.948556	-55.549908	-55.740832	-52.662329	-46.432889	-44.602285	-30.898972	-46.709032	-3.036740	5.554640	0.000000	0.678831	0.683531	0.192443	-1.000000	-1.000000	-1.000000	-1.000000	-1.000000	-1.000000	-1.000000	74.896552	0.000000	-1.000000	-1.000000	1944507.000000	1770065385.944227
-5225.400000	-7660.845000	200.160000	13167.990000	-4112.910000	-5031.495000	7556.085000	-3828.060000	-30.365775	-36.442870	-35.665366	-33.135672	-29.780703	-28.931521	-28.536419	-37.138296	-3.036740	5.554640	0.000000	0.678831	0.683531	0.192443	-1.000000	-1.000000	-1.000000	-1.000000	-1.000000	-1.000000	-1.000000	74.896552	0.000000	-1.000000	-1.000000	1944508.000000	1770065385.944237
-5228.145000	-7660.485000	193.410000	13156.875000	-4129.605000	-5039.910000	7538.310000	-3841.065000	-2.621885	-0.827409	0.460191	1.398782	0.568343	0.122765	-12.210780	-5.795576	-3.036740	5.554640	0.000000	0.678831	0.683531	0.192443	-1.000000	-1.000000	-1.000000	-1.000000	-1.000000	-1.000000	-1.000000	74.896552	0.000000	-1.000000	-1.000000	1944509.000000	1770065385.948223
-5203.710000	-7637.715000	209.160000	13172.670000	-4115.655000	-5036.940000	7506.855000	-3806.640000	24.285745	33.228803	33.937597	32.713087	28.319010	27.666907	9.669349	28.290001	-3.036740	5.554640	0.000000	0.678831	0.683531	0.192443	-1.000000	-1.000000	-1.000000	-1.000000	-1.000000	-1.000000	-1.000000	74.896552	0.000000	-1.000000	-1.000000	1944510.000000	1770065385.948233
-5208.660000	-7647.030000	216.495000	13186.305000	-4099.950000	-5027.085000	7536.060000	-3818.340000	40.235666	51.884776	51.344325	48.376877	42.312334	42.192586	25.231808	47.373028	-7.156940	7.126420	-0.640920	0.681456	0.684569	0.189086	-1.000000	-1.000000	-1.000000	-1.000000	-1.000000	-1.000000	-1.000000	74.896552	0.000000	-1.000000	-1.000000	1944511.000000	1770065385.962241
-5185.845000	-7622.100000	238.545000	13206.915000	-4078.530000	-5006.655000	7555.770000	-3811.185000	41.492806	50.540167	49.472821	46.163836	40.722272	40.561013	27.797637	45.417899	-7.156940	7.126420	-0.640920	0.681456	0.684569	0.189086	-1.000000	-1.000000	-1.000000	-1.000000	-1.000000	-1.000000	-1.000000	74.896552	0.000000	-1.000000	-1.000000	1944512.000000	1770065385.962250
-5088.015000	-7522.470000	333.045000	13296.060000	-4001.220000	-4943.160000	7572.015000	-3717.675000	33.366859	37.300016	36.951922	34.701540	31.275892	29.562446	22.023632	31.113398	-7.156940	7.126420	-0.640920	0.681456	0.684569	0.189086	-1.000000	-1.000000	-1.000000	-1.000000	-1.000000	-1.000000	-1.000000	74.896552	0.000000	-1.000000	-1.000000	1944513.000000	1770065385.962260
-5140.260000	-7572.105000	283.140000	13241.925000	-4054.680000	-5000.895000	7578.585000	-3676.860000	24.734119	24.519613	25.068455	24.230420	22.678409	18.444699	16.837703	19.456867	-7.156940	7.126420	-0.640920	0.681456	0.684569	0.189086	-1.000000	-1.000000	-1.000000	-1.000000	-1.000000	-1.000000	-1.000000	74.896552	0.000000	-1.000000	-1.000000	1944514.000000	1770065385.962265
-5175.225000	-7596.450000	262.935000	13226.085000	-4064.580000	-4995.090000	7621.020000	-3821.580000	14.325412	12.070134	12.775441	12.913291	12.771545	7.510914	14.336450	11.901324	-7.156940	7.126420	-0.640920	0.681456	0.684569	0.189086	-1.000000	-1.000000	-1.000000	-1.000000	-1.000000	-1.000000	-1.000000	74.896552	0.000000	-1.000000	-1.000000	1944515.000000	1770065385.962272
-5135.895000	-7559.010000	304.020000	13272.660000	-4013.640000	-4946.085000	7625.970000	-3764.745000	-4.394945	-7.487547	-7.092963	-6.117224	-4.412824	-7.064491	10.137054	-3.711025	-7.156940	7.126420	-0.640920	0.681456	0.684569	0.189086	-1.000000	-1.000000	-1.000000	-1.000000	-1.000000	-1.000000	-1.000000	74.896552	0.000000	-1.000000	-1.000000	1944516.000000	1770065385.962277
-5221.170000	-7651.620000	205.065000	13168.170000	-4120.695000	-5041.260000	7566.660000	-3803.625000	-28.807414	-32.862615	-32.692619	-30.567970	-26.517649	-24.076048	-0.346371	-29.454206	-7.156940	7.126420	-0.640920	0.681456	0.684569	0.189086	-1.000000	-1.000000	-1.000000	-1.000000	-1.000000	-1.000000	-1.000000	74.896552	0.000000	-1.000000	-1.000000	1944517.000000	1770065385.972622
-5264.640000	-7689.960000	153.045000	13109.805000	-4184.505000	-5097.285000	7559.370000	-3948.525000	-49.323836	-54.777910	-54.844211	-51.826251	-46.268593	-39.427910	-16.460559	-53.393109	-7.156940	7.126420	-0.640920	0.681456	0.684569	0.189086	-1.000000	-1.000000	-1.000000	-1.000000	-1.000000	-1.000000	-1.000000	74.896552	0.000000	-1.000000	-1.000000	1944518.000000	1770065385.972632
-5189.760000	-7614.405000	239.355000	13201.965000	-4083.705000	-5001.660000	7593.750000	-3859.560000	-55.958161	-62.064795	-62.671622	-60.001379	-54.888923	-46.335890	-30.271339	-63.735611	-7.156940	7.126420	-0.640920	0.681456	0.684569	0.189086	-1.000000	-1.000000	-1.000000	-1.000000	-1.000000	-1.000000	-1.000000	74.896552	0.000000	-1.000000	-1.000000	1944519.000000	1770065385.972643
-5189.040000	-7623.765000	244.935000	13220.595000	-4056.570000	-4990.365000	7543.710000	-3843.810000	-41.634111	-46.495889	-47.475600	-46.263466	-43.184943	-36.226996	-34.057580	-51.592934	-7.156940	7.126420	-0.640920	0.681456	0.684569	0.189086	-1.000000	-1.000000	-1.000000	-1.000000	-1.000000	-1.000000	-1.000000	74.896552	0.000000	-1.000000	-1.000000	1944520.000000	1770065385.972648
-5226.165000	-7663.005000	204.210000	13181.220000	-4098.960000	-5034.195000	7530.435000	-3852.135000	-10.664793	-12.661839	-13.003063	-13.103060	-12.460787	-10.250221	-27.672367	-16.418123	-5.157880	5.646200	-3.601360	0.678099	0.685423	0.191223	-1.000000	-1.000000	-1.000000	-1.000000	-1.000000	-1.000000	-1.000000	74.896552	0.000000	-1.000000	-1.000000	1944521.000000	1770065385.972654
-5172.705000	-7596.225000	262.710000	13233.420000	-4056.840000	-4987.890000	7649.685000	-3792.465000	21.329246	22.811005	23.861667	23.322996	21.807484	18.185011	-13.211313	26.745547	-5.157880	5.646200	-3.601360	0.678099	0.685423	0.191223	-1.000000	-1.000000	-1.000000	-1.000000	-1.000000	-1.000000	-1.000000	74.896552	0.000000	-1.000000	-1.000000	1944522.000000	1770065385.972659
-5240.925000	-7655.085000	205.830000	13174.920000	-4110.480000	-5020.065000	7595.190000	-3867.570000	40.858199	45.576285	47.376925	46.739995	43.467515	36.536752	7.468726	57.132058	-5.157880	5.646200	-3.601360	0.678099	0.685423	0.191223	-1.000000	-1.000000	-1.000000	-1.000000	-1.000000	-1.000000	-1.000000	74.896552	0.000000	-1.000000	-1.000000	1944523.000000	1770065385.977624
-5211.540000	-7641.630000	218.295000	13183.695000	-4106.340000	-5020.605000	7584.705000	-3845.610000	43.123552	49.526902	50.581870	49.397571	45.037227	39.210876	25.275409	62.837958	-5.157880	5.646200	-3.601360	0.678099	0.685423	0.191223	-1.000000	-1.000000	-1.000000	-1.000000	-1.000000	-1.000000	-1.000000	74.896552	0.000000	-1.000000	-1.000000	1944524.000000	1770065385.977634
-5137.380000	-7580.790000	275.220000	13236.975000	-4060.215000	-4985.955000	7612.245000	-3778.290000	31.647492	36.570841	35.849616	33.588679	29.059969	26.780610	29.594465	46.186111	-5.157880	5.646200	-3.601360	0.678099	0.685423	0.191223	-1.000000	-1.000000	-1.000000	-1.000000	-1.000000	-1.000000	-1.000000	74.896552	0.000000	-1.000000	-1.000000	1944525.000000	1770065385.980350
-5125.005000	-7557.210000	298.035000	13258.845000	-4038.255000	-4957.605000	7624.305000	-3765.645000	17.102346	17.770217	15.526758	12.457526	8.717059	8.845931	21.853553	20.516515	-5.157880	5.646200	-3.601360	0.678099	0.685423	0.191223	-1.000000	-1.000000	-1.000000	-1.000000	-1.000000	-1.000000	-1.000000	74.896552	0.000000	-1.000000	-1.000000	1944526.000000	1770065385.980361
-5112.630000	-7535.835000	323.280000	13285.305000	-4014.045000	-4938.975000	7649.280000	-3793.410000	7.479974	4.192946	1.971877	-0.639319	-2.578808	-2.513313	11.224634	-0.682685	-5.157880	5.646200	-3.601360	0.678099	0.685423	0.191223	-1.000000	-1.000000	-1.000000	-1.000000	-1.000000	-1.000000	-1.000000	74.896552	0.000000	-1.000000	-1.000000	1944527.000000	1770065385.993648
-5181.705000	-7619.130000	244.890000	13218.030000	-4066.380000	-5008.545000	7566.885000	-3784.770000	-0.676546	-4.964524	-5.635592	-6.429463	-5.831979	-6.999160	1.577612	-14.596416	-5.157880	5.646200	-3.601360	0.678099	0.685423	0.191223	-1.000000	-1.000000	-1.000000	-1.000000	-1.000000	-1.000000	-1.000000	74.896552	0.000000	-1.000000	-1.000000	1944528.000000	1770065385.993658
-5197.050000	-7648.335000	212.670000	13185.135000	-4092.930000	-5029.380000	7553.160000	-3778.965000	-14.157000	-16.807383	-15.942062	-14.544756	-11.366734	-13.161803	-8.769500	-24.941582	-5.157880	5.646200	-3.601360	0.678099	0.685423	0.191223	-1.000000	-1.000000	-1.000000	-1.000000	-1.000000	-1.000000	-1.000000	74.896552	0.000000	-1.000000	-1.000000	1944529.000000	1770065385.993668
-5259.555000	-7700.400000	157.905000	13127.445000	-4148.235000	-5066.865000	7540.650000	-3892.410000	-31.024248	-31.366678	-30.193993	-27.431462	-22.298258	-22.833987	-18.936872	-33.268946	-5.157880	5.646200	-3.601360	0.678099	0.685423	0.191223	-1.000000	-1.000000	-1.000000	-1.000000	-1.000000	-1.000000	-1.000000	74.896552	0.000000	-1.000000	-1.000000	1944530.000000	1770065385.993674
-5252.895000	-7690.005000	169.605000	13142.970000	-4141.620000	-5055.840000	7545.465000	-3876.480000	-42.073365	-40.774419	-40.201339	-37.330552	-31.597009	-28.945958	-24.986179	-39.008538	-4.242280	5.905620	-4.227020	0.682066	0.686033	0.193176	-1.000000	-1.000000	-1.000000	-1.000000	-1.000000	-1.000000	-1.000000	74.896552	0.000000	-1.000000	-1.000000	1944531.000000	1770065385.993680
-5213.520000	-7645.095000	216.675000	13190.895000	-4087.755000	-5018.445000	7566.570000	-3835.980000	-37.660088	-35.690248	-35.655442	-33.459933	-29.175965	-23.770229	-22.846168	-36.310825	-4.242280	5.905620	-4.227020	0.682066	0.686033	0.193176	-1.000000	-1.000000	-1.000000	-1.000000	-1.000000	-1.000000	-1.000000	74.896552	0.000000	-1.000000	-1.000000	1944532.000000	1770065385.993684
-5193.630000	-7623.315000	236.835000	13206.735000	-4076.955000	-5006.790000	7557.075000	-3830.895000	-15.548502	-13.381142	-13.375561	-12.123734	-11.026937	-6.112199	-10.645946	-18.548891	-4.242280	5.905620	-4.227020	0.682066	0.686033	0.193176	-1.000000	-1.000000	-1.000000	-1.000000	-1.000000	-1.000000	-1.000000	74.896552	0.000000	-1.000000	-1.000000	1944533.000000	1770065386.003893
-5189.895000	-7621.920000	234.585000	13194.270000	-4099.545000	-5007.870000	7567.920000	-3825.135000	13.496377	16.003701	16.311836	16.374176	13.923940	15.594687	7.017437	8.074165	-4.242280	5.905620	-4.227020	0.682066	0.686033	0.193176	-1.000000	-1.000000	-1.000000	-1.000000	-1.000000	-1.000000	-1.000000	74.896552	0.000000	-1.000000	-1.000000	1944534.000000	1770065386.003903
-5192.550000	-7621.290000	237.825000	13173.345000	-4107.105000	-5016.780000	7582.905000	-3825.270000	34.027748	36.519983	37.153886	35.459967	30.636624	29.382047	21.444299	29.807094	-4.242280	5.905620	-4.227020	0.682066	0.686033	0.193176	-1.000000	-1.000000	-1.000000	-1.000000	-1.000000	-1.000000	-1.000000	74.896552	0.000000	-1.000000	-1.000000	1944535.000000	1770065386.003913
-5179.545000	-7608.780000	238.995000	13136.400000	-4101.570000	-5002.290000	7584.795000	-3811.770000	38.057171	39.258060	39.811818	35.215914	30.814240	28.944791	26.723734	38.643332	-4.242280	5.905620	-4.227020	0.682066	0.686033	0.193176	-1.000000	-1.000000	-1.000000	-1.000000	-1.000000	-1.000000	-1.000000	74.896552	0.000000	-1.000000	-1.000000	1944536.000000	1770065386.003918
-5170.050000	-7603.605000	231.885000	13137.885000	-4103.280000	-4997.475000	7589.385000	-3805.110000	28.317570	27.460993	26.802520	18.530218	17.773870	17.586975	23.034566	33.552641	-4.242280	5.905620	-4.227020	0.682066	0.686033	0.193176	-1.000000	-1.000000	-1.000000	-1.000000	-1.000000	-1.000000	-1.000000	74.896552	0.000000	-1.000000	-1.000000	1944537.000000	1770065386.004289
-5163.480000	-7596.720000	230.580000	13176.810000	-4085.820000	-4997.880000	7592.805000	-3805.110000	13.782538	11.589518	8.638158	-0.654822	2.512384	4.450697	14.698234	18.888339	-4.242280	5.905620	-4.227020	0.682066	0.686033	0.193176	-1.000000	-1.000000	-1.000000	-1.000000	-1.000000	-1.000000	-1.000000	74.896552	0.000000	-1.000000	-1.000000	1944538.000000	1770065386.004298
-5168.295000	-7612.785000	212.670000	13218.480000	-4063.095000	-4994.145000	7578.405000	-3809.115000	1.700192	-0.820160	-5.505433	-8.480510	-5.248114	-3.983522	4.462998	2.787166	-4.242280	5.905620	-4.227020	0.682066	0.686033	0.193176	-1.000000	-1.000000	-1.000000	-1.000000	-1.000000	-1.000000	-1.000000	74.896552	0.000000	-1.000000	-1.000000	1944539.000000	1770065386.012069
-5191.695000	-7616.430000	206.505000	13210.560000	-4089.915000	-5003.190000	7571.880000	-3816.585000	-6.581522	-9.225746	-13.354767	-3.162815	-4.521490	-7.652854	-7.284556	-8.607058	-4.242280	5.905620	-4.227020	0.682066	0.686033	0.193176	-1.000000	-1.000000	-1.000000	-1.000000	-1.000000	-1.000000	-1.000000	74.896552	0.000000	-1.000000	-1.000000	1944540.000000	1770065386.012081
-5207.265000	-7628.580000	203.085000	13161.735000	-4095.180000	-4997.880000	7580.835000	-3817.575000	-13.829217	-16.190466	-17.280660	4.154844	-2.652040	-9.943037	-18.086953	-14.862766	-2.350040	4.349100	-4.990020	0.683043	0.684263	0.196594	-1.000000	-1.000000	-1.000000	-1.000000	-1.000000	-1.000000	-1.000000	74.896552	0.000000	-1.000000	-1.000000	1944541.000000	1770065386.026885
-5171.265000	-7632.405000	216.765000	13162.770000	-4067.955000	-5006.970000	7575.255000	-3807.405000	-21.237158	-22.623259	-19.157284	1.565118	-5.628987	-12.919932	-23.321251	-18.144445	-2.350040	4.349100	-4.990020	0.683043	0.684263	0.196594	-1.000000	-1.000000	-1.000000	-1.000000	-1.000000	-1.000000	-1.000000	74.896552	0.000000	-1.000000	-1.000000	1944542.000000	1770065386.026899
-5157.765000	-7598.925000	247.410000	13205.745000	-4062.420000	-5005.890000	7579.890000	-3795.345000	-24.417291	-25.217848	-17.261501	-9.729415	-10.518675	-14.978060	-20.539694	-18.339036	-2.350040	4.349100	-4.990020	0.683043	0.684263	0.196594	-1.000000	-1.000000	-1.000000	-1.000000	-1.000000	-1.000000	-1.000000	74.896552	0.000000	-1.000000	-1.000000	1944543.000000	1770065386.026913
-5167.845000	-7578.945000	263.430000	13238.055000	-4066.380000	-5010.570000	7580.655000	-3815.685000	-18.753582	-19.146522	-9.148328	-17.340330	-11.403258	-13.249982	-11.609708	-13.864910	-2.350040	4.349100	-4.990020	0.683043	0.684263	0.196594	-1.000000	-1.000000	-1.000000	-1.000000	-1.000000	-1.000000	-1.000000	74.896552	0.000000	-1.000000	-1.000000	1944544.000000	1770065386.026918
-5130.855000	-7564.770000	246.510000	13218.660000	-4071.240000	-5007.195000	7582.005000	-3795.705000	-5.814746	-4.371170	3.099984	-12.885761	-7.524985	-7.159814	-0.545848	-5.963392	-2.350040	4.349100	-4.990020	0.683043	0.684263	0.196594	-1.000000	-1.000000	-1.000000	-1.000000	-1.000000	-1.000000	-1.000000	74.896552	0.000000	-1.000000	-1.000000	1944545.000000	1770065386.026924
-5139.540000	-7587.765000	247.275000	13217.580000	-4067.100000	-4997.745000	7581.015000	-3782.565000	8.806653	12.624104	13.638870	-0.261221	-1.716043	1.609079	9.190782	2.324790	-2.350040	4.349100	-4.990020	0.683043	0.684263	0.196594	-1.000000	-1.000000	-1.000000	-1.000000	-1.000000	-1.000000	-1.000000	74.896552	0.000000	-1.000000	-1.000000	1944546.000000	1770065386.026929
-5143.320000	-7577.055000	257.400000	13223.745000	-4064.760000	-4989.150000	7575.030000	-3802.680000	19.018972	23.315857	18.041454	10.046815	3.426898	10.508167	14.802266	9.090354	-2.350040	4.349100	-4.990020	0.683043	0.684263	0.196594	-1.000000	-1.000000	-1.000000	-1.000000	-1.000000	-1.000000	-1.000000	74.896552	0.000000	-1.000000	-1.000000	1944547.000000	1770065386.026935
-5163.975000	-7584.030000	261.405000	13233.330000	-4064.265000	-5000.760000	7562.430000	-3826.800000	20.493819	23.316379	15.853519	11.101164	6.207326	16.234122	14.442082	12.371456	-2.350040	4.349100	-4.990020	0.683043	0.684263	0.196594	-1.000000	-1.000000	-1.000000	-1.000000	-1.000000	-1.000000	-1.000000	74.896552	0.000000	-1.000000	-1.000000	1944548.000000	1770065386.026940
-5173.065000	-7629.435000	274.050000	13246.245000	-4049.730000	-4981.230000	7576.695000	-3819.240000	13.293788	13.706566	9.167277	4.490218	6.452264	16.015533	8.974652	10.475992	-2.350040	4.349100	-4.990020	0.683043	0.684263	0.196594	-1.000000	-1.000000	-1.000000	-1.000000	-1.000000	-1.000000	-1.000000	74.896552	0.000000	-1.000000	-1.000000	1944549.000000	1770065386.041523
-5157.360000	-7599.150000	293.625000	13258.035000	-4036.230000	-4963.635000	7602.120000	-3793.230000	1.599349	-1.067437	0.690452	-2.660447	5.262169	10.239701	2.148545	4.865061	-2.350040	4.349100	-4.990020	0.683043	0.684263	0.196594	-1.000000	-1.000000	-1.000000	-1.000000	-1.000000	-1.000000	-1.000000	74.896552	0.000000	-1.000000	-1.000000	1944550.000000	1770065386.041535
-5156.280000	-7569.630000	288.585000	13243.545000	-4048.875000	-4980.510000	7588.800000	-3799.575000	-9.106981	-13.377846	-7.095257	-5.390189	3.135956	2.156133	-2.274665	-0.738958	-2.807840	2.701020	-3.189340	0.685057	0.687437	0.200378	-1.000000	-1.000000	-1.000000	-1.000000	-1.000000	-1.000000	-1.000000	74.896552	0.000000	-1.000000	-1.000000	1944551.000000	1770065386.041547
-5136.390000	-7512.660000	323.820000	13272.750000	-4017.105000	-4941.360000	7575.660000	-3791.745000	-14.423274	-16.016240	-12.354130	-4.690385	0.267005	-4.690774	-3.981741	-3.768780	-2.807840	2.701020	-3.189340	0.685057	0.687437	0.200378	-1.000000	-1.000000	-1.000000	-1.000000	-1.000000	-1.000000	-1.000000	74.896552	0.000000	-1.000000	-1.000000	1944552.000000	1770065386.041553
-5139.405000	-7553.205000	289.395000	13247.460000	-4040.415000	-4968.315000	7597.170000	-3765.465000	-12.558242	-9.020746	-13.963353	-3.555936	-2.155860	-8.082825	-4.734695	-3.464780	-2.807840	2.701020	-3.189340	0.685057	0.687437	0.200378	-1.000000	-1.000000	-1.000000	-1.000000	-1.000000	-1.000000	-1.000000	74.896552	0.000000	-1.000000	-1.000000	1944553.000000	1770065386.041559
-5152.185000	-7612.380000	244.260000	13217.130000	-4056.570000	-4982.355000	7588.530000	-3794.490000	-5.822537	-0.426475	-12.385416	-3.249302	-3.538457	-8.575134	-4.622015	-1.073458	-2.807840	2.701020	-3.189340	0.685057	0.687437	0.200378	-1.000000	-1.000000	-1.000000	-1.000000	-1.000000	-1.000000	-1.000000	74.896552	0.000000	-1.000000	-1.000000	1944554.000000	1770065386.041564
-5162.445000	-7625.880000	226.935000	13206.555000	-4070.925000	-4997.070000	7599.195000	-3804.030000	0.960124	1.827610	-9.601864	-3.830755	-4.722686	-8.531407	-2.976050	0.137073	-2.807840	2.701020	-3.189340	0.685057	0.687437	0.200378	-1.000000	-1.000000	-1.000000	-1.000000	-1.000000	-1.000000	-1.000000	74.896552	0.000000	-1.000000	-1.000000	1944555.000000	1770065386.051032
-5155.380000	-7637.265000	221.580000	13197.780000	-4078.035000	-5008.590000	7580.970000	-3810.375000	5.036411	-2.234334	-6.536633	-4.772337	-6.026510	-8.788953	-0.496090	-1.185718	-2.807840	2.701020	-3.189340	0.685057	0.687437	0.200378	-1.000000	-1.000000	-1.000000	-1.000000	-1.000000	-1.000000	-1.000000	74.896552	0.000000	-1.000000	-1.000000	1944556.000000	1770065386.051047
-5130.855000	-7621.065000	228.420000	13201.335000	-4072.140000	-4992.210000	7589.385000	-3803.805000	7.387642	-6.053278	-2.208658	-4.742990	-6.210514	-7.764111	1.429172	-2.591894	-2.807840	2.701020	-3.189340	0.685057	0.687437	0.200378	-1.000000	-1.000000	-1.000000	-1.000000	-1.000000	-1.000000	-1.000000	74.896552	0.000000	-1.000000	-1.000000	1944557.000000	1770065386.051062
-5180.760000	-7628.535000	186.930000	13144.770000	-4085.595000	-5012.145000	7595.145000	-3804.975000	8.855250	-3.761827	3.218513	-3.005528	-4.162262	-4.147488	1.808201	-2.016807	-2.807840	2.701020	-3.189340	0.685057	0.687437	0.200378	-1.000000	-1.000000	-1.000000	-1.000000	-1.000000	-1.000000	-1.000000	74.896552	0.000000	-1.000000	-1.000000	1944558.000000	1770065386.051068
-5175.270000	-7621.920000	174.735000	13113.000000	-4088.655000	-5015.250000	7589.160000	-3795.885000	6.954316	3.880560	6.877476	-1.022046	-0.713329	0.749690	0.455005	-0.424479	-2.807840	2.701020	-3.189340	0.685057	0.687437	0.200378	-1.000000	-1.000000	-1.000000	-1.000000	-1.000000	-1.000000	-1.000000	74.896552	0.000000	-1.000000	-1.000000	1944559.000000	1770065386.051074
-5132.565000	-7579.620000	221.850000	13170.420000	-4074.570000	-4997.520000	7601.580000	-3779.505000	0.940745	10.794841	7.459098	0.562595	2.751618	5.064467	-1.434632	0.892209	-2.807840	2.701020	-3.189340	0.685057	0.687437	0.200378	-1.000000	-1.000000	-1.000000	-1.000000	-1.000000	-1.000000	-1.000000	74.896552	0.000000	-1.000000	-1.000000	1944560.000000	1770065386.051079
-5112.405000	-7563.825000	246.870000	13223.070000	-4041.270000	-4973.355000	7614.585000	-3771.540000	-4.383993	12.591470	7.868527	4.819641	6.164803	8.555491	-1.676494	2.104011	-3.067260	1.480220	-3.280900	0.685972	0.687376	0.201049	-1.000000	-1.000000	-1.000000	-1.000000	-1.000000	-1.000000	-1.000000	74.896552	0.000000	-1.000000	-1.000000	1944561.000000	1770065386.057392
-5138.640000	-7630.335000	177.345000	13154.400000	-4072.410000	-4992.345000	7586.235000	-3799.215000	-5.057206	9.316692	10.220811	13.042510	9.577812	11.231753	0.043310	2.640315	-3.067260	1.480220	-3.280900	0.685972	0.687376	0.201049	-1.000000	-1.000000	-1.000000	-1.000000	-1.000000	-1.000000	-1.000000	74.896552	0.000000	-1.000000	-1.000000	1944562.000000	1770065386.057409
-5129.595000	-7624.035000	205.155000	13145.220000	-4076.955000	-4990.635000	7563.330000	-3799.485000	-2.421291	3.363362	12.437159	19.555008	11.247213	11.952719	0.993618	1.254105	-3.067260	1.480220	-3.280900	0.685972	0.687376	0.201049	-1.000000	-1.000000	-1.000000	-1.000000	-1.000000	-1.000000	-1.000000	74.896552	0.000000	-1.000000	-1.000000	1944563.000000	1770065386.067251
-5120.820000	-7604.595000	253.935000	13171.275000	-4072.365000	-5000.445000	7542.450000	-3795.795000	0.740875	-1.728935	12.691186	18.132903	9.178003	9.371014	-1.063228	-0.953814	-3.067260	1.480220	-3.280900	0.685972	0.687376	0.201049	-1.000000	-1.000000	-1.000000	-1.000000	-1.000000	-1.000000	-1.000000	74.896552	0.000000	-1.000000	-1.000000	1944564.000000	1770065386.067263
-5095.440000	-7568.865000	292.230000	13220.955000	-4043.070000	-4994.595000	7574.445000	-3765.015000	3.203433	-2.794104	11.839188	10.053548	4.244241	3.699369	-4.186716	-1.067376	-3.067260	1.480220	-3.280900	0.685972	0.687376	0.201049	-1.000000	-1.000000	-1.000000	-1.000000	-1.000000	-1.000000	-1.000000	74.896552	0.000000	-1.000000	-1.000000	1944565.000000	1770065386.067276
-5111.370000	-7538.265000	234.360000	13185.540000	-4033.080000	-4975.695000	7591.185000	-3766.905000	4.312122	0.547739	8.983860	0.974052	-0.550829	-2.932322	-3.933222	1.869696	-3.067260	1.480220	-3.280900	0.685972	0.687376	0.201049	-1.000000	-1.000000	-1.000000	-1.000000	-1.000000	-1.000000	-1.000000	74.896552	0.000000	-1.000000	-1.000000	1944566.000000	1770065386.067281
-5160.240000	-7530.975000	223.245000	13178.970000	-4057.920000	-4965.345000	7639.425000	-3802.950000	2.831374	5.261988	0.857388	-5.821531	-3.740937	-7.429628	1.574507	4.579359	-3.067260	1.480220	-3.280900	0.685972	0.687376	0.201049	-1.000000	-1.000000	-1.000000	-1.000000	-1.000000	-1.000000	-1.000000	74.896552	0.000000	-1.000000	-1.000000	1944567.000000	1770065386.067287
-5202.630000	-7547.220000	208.440000	13153.050000	-4066.605000	-4944.690000	7569.405000	-3845.835000	-2.984230	6.015135	-12.296051	-10.368931	-6.458412	-7.674397	8.871233	1.982808	-3.067260	1.480220	-3.280900	0.685972	0.687376	0.201049	-1.000000	-1.000000	-1.000000	-1.000000	-1.000000	-1.000000	-1.000000	74.896552	0.000000	-1.000000	-1.000000	1944568.000000	1770065386.067292
-5115.915000	-7576.515000	105.480000	13044.060000	-4089.600000	-4985.280000	7571.070000	-3822.120000	-11.598496	-1.674159	-26.776198	-16.116930	-10.135613	-5.289185	10.970035	-6.421313	-3.067260	1.480220	-3.280900	0.685972	0.687376	0.201049	-1.000000	-1.000000	-1.000000	-1.000000	-1.000000	-1.000000	-1.000000	74.896552	0.000000	-1.000000	-1.000000	1944569.000000	1770065386.074333
-5058.945000	-7633.125000	75.285000	13051.305000	-4093.020000	-5000.985000	7580.160000	-3756.105000	-14.809987	-16.209853	-38.319658	-25.645079	-14.068437	-4.741632	4.864283	-13.224250	-3.067260	1.480220	-3.280900	0.685972	0.687376	0.201049	-1.000000	-1.000000	-1.000000	-1.000000	-1.000000	-1.000000	-1.000000	74.896552	0.000000	-1.000000	-1.000000	1944570.000000	1770065386.074345
-5109.705000	-7599.870000	134.460000	13136.670000	-4049.640000	-4945.770000	7670.610000	-3762.225000	-6.387836	-27.566989	-38.435210	-30.241947	-13.972298	-6.399237	-2.866786	-9.725138	-8.560860	-4.562740	-4.410140	0.682982	0.688963	0.202270	-1.000000	-1.000000	-1.000000	-1.000000	-1.000000	-1.000000	-1.000000	74.896552	0.000000	-1.000000	-1.000000	1944571.000000	1770065386.074358
-5148.270000	-7547.940000	63.360000	13021.740000	-4132.485000	-5032.935000	7597.755000	-3849.300000	7.220632	-24.145760	-20.607915	-18.559435	-6.684854	-6.201352	-3.844300	2.251907	-8.560860	-4.562740	-4.410140	0.682982	0.688963	0.202270	-1.000000	-1.000000	-1.000000	-1.000000	-1.000000	-1.000000	-1.000000	74.896552	0.000000	-1.000000	-1.000000	1944572.000000	1770065386.074363
-5128.740000	-7540.740000	78.930000	13052.925000	-4147.740000	-5043.015000	7562.025000	-3794.850000	14.042351	-4.849025	6.794775	3.758797	2.867068	-3.904388	-0.037069	11.571619	-8.560860	-4.562740	-4.410140	0.682982	0.688963	0.202270	-1.000000	-1.000000	-1.000000	-1.000000	-1.000000	-1.000000	-1.000000	74.896552	0.000000	-1.000000	-1.000000	1944573.000000	1770065386.093344
-5094.405000	-7607.250000	122.355000	13161.105000	-4087.170000	-4997.430000	7562.970000	-3790.665000	10.855840	17.148168	28.970293	22.977900	7.979789	-1.669784	-0.008875	12.101787	-8.560860	-4.562740	-4.410140	0.682982	0.688963	0.202270	-1.000000	-1.000000	-1.000000	-1.000000	-1.000000	-1.000000	-1.000000	74.896552	0.000000	-1.000000	-1.000000	1944574.000000	1770065386.093359
-5075.730000	-7686.540000	157.455000	13197.150000	-4038.885000	-4958.280000	7443.450000	-3827.070000	4.452951	24.593471	40.551394	35.292274	10.045979	1.997400	-7.918433	6.394659	-8.560860	-4.562740	-4.410140	0.682982	0.688963	0.202270	-1.000000	-1.000000	-1.000000	-1.000000	-1.000000	-1.000000	-1.000000	74.896552	0.000000	-1.000000	-1.000000	1944575.000000	1770065386.093375
-5038.785000	-7599.915000	222.705000	13188.960000	-3960.495000	-4871.745000	7500.375000	-3798.990000	2.837006	13.161042	43.677072	40.984997	14.729603	9.485187	-20.096243	-0.489868	-8.560860	-4.562740	-4.410140	0.682982	0.688963	0.202270	-1.000000	-1.000000	-1.000000	-1.000000	-1.000000	-1.000000	-1.000000	74.896552	0.000000	-1.000000	-1.000000	1944576.000000	1770065386.093381
-5041.530000	-7549.695000	265.860000	13159.530000	-3934.485000	-4852.530000	7652.295000	-3740.265000	6.818904	-2.836813	40.119211	35.870289	22.786984	19.335360	-23.082582	-2.945648	-8.560860	-4.562740	-4.410140	0.682982	0.688963	0.202270	-1.000000	-1.000000	-1.000000	-1.000000	-1.000000	-1.000000	-1.000000	74.896552	0.000000	-1.000000	-1.000000	1944577.000000	1770065386.093388
-5089.950000	-7523.865000	385.920000	13265.235000	-3922.245000	-4877.280000	7559.010000	-3707.820000	7.725618	-6.364985	31.757347	19.269987	27.650236	25.308879	-5.899801	1.364986	-8.560860	-4.562740	-4.410140	0.682982	0.688963	0.202270	-1.000000	-1.000000	-1.000000	-1.000000	-1.000000	-1.000000	-1.000000	74.896552	0.000000	-1.000000	-1.000000	1944578.000000	1770065386.093393
-5220.990000	-7618.815000	310.275000	13232.205000	-4081.995000	-5020.470000	7641.540000	-3782.655000	-4.227815	3.937054	19.862259	-1.391739	19.310527	18.488223	21.253944	6.298415	-8.560860	-4.562740	-4.410140	0.682982	0.688963	0.202270	-1.000000	-1.000000	-1.000000	-1.000000	-1.000000	-1.000000	-1.000000	74.896552	0.000000	-1.000000	-1.000000	1944579.000000	1770065386.093400
-5300.010000	-7679.745000	162.225000	13098.420000	-4167.900000	-5090.535000	7659.495000	-3860.640000	-27.193654	13.225942	-1.290413	-21.483785	-7.743565	-5.670676	38.431251	2.684594	-8.560860	-4.562740	-4.410140	0.682982	0.688963	0.202270	-1.000000	-1.000000	-1.000000	-1.000000	-1.000000	-1.000000	-1.000000	74.896552	0.000000	-1.000000	-1.000000	1944580.000000	1770065386.093405
-5215.815000	-7619.445000	179.910000	13076.280000	-4113.495000	-5029.740000	7561.125000	-3828.690000	-44.720527	8.212858	-35.359884	-40.773965	-42.395671	-35.801956	36.266216	-9.352796	-20.784120	-0.579880	4.089680	0.679503	0.696531	0.201049	-1.000000	-1.000000	-1.000000	-1.000000	-1.000000	-1.000000	-1.000000	74.896552	0.000000	-1.000000	-1.000000	1944581.000000	1770065386.093411
-5157.090000	-7600.050000	172.260000	13057.830000	-4095.405000	-5011.200000	7538.805000	-3832.695000	-38.408381	-6.427575	-68.566197	-54.028151	-59.917964	-48.759430	16.357402	-19.821255	-20.784120	-0.579880	4.089680	0.679503	0.696531	0.201049	-1.000000	-1.000000	-1.000000	-1.000000	-1.000000	-1.000000	-1.000000	74.896552	0.000000	-1.000000	-1.000000	1944582.000000	1770065386.093416
-5195.790000	-7660.215000	160.515000	13099.005000	-4140.540000	-5069.250000	7639.020000	-3832.740000	-7.113180	-15.885367	-80.151319	-53.442785	-47.750269	-34.858774	-10.070412	-20.367748	-20.784120	-0.579880	4.089680	0.679503	0.696531	0.201049	-1.000000	-1.000000	-1.000000	-1.000000	-1.000000	-1.000000	-1.000000	74.896552	0.000000	-1.000000	-1.000000	1944583.000000	1770065386.104254
-5269.365000	-7742.745000	158.805000	13133.880000	-4149.720000	-5070.915000	7599.420000	-3839.895000	28.864549	-14.745568	-62.400560	-35.008087	-17.364467	-7.615505	-25.819400	-10.178518	-20.784120	-0.579880	4.089680	0.679503	0.696531	0.201049	-1.000000	-1.000000	-1.000000	-1.000000	-1.000000	-1.000000	-1.000000	74.896552	0.000000	-1.000000	-1.000000	1944584.000000	1770065386.104267
-5282.865000	-7648.470000	246.510000	13206.105000	-4117.005000	-5054.490000	7579.530000	-3833.280000	46.021965	-9.045588	-23.116576	-0.449759	12.193420	14.321371	-25.269984	5.130669	-20.784120	-0.579880	4.089680	0.679503	0.696531	0.201049	-1.000000	-1.000000	-1.000000	-1.000000	-1.000000	-1.000000	-1.000000	74.896552	0.000000	-1.000000	-1.000000	1944585.000000	1770065386.104280
-5237.550000	-7593.795000	259.470000	13186.935000	-4096.260000	-5040.945000	7580.835000	-3839.805000	38.139227	-2.736196	22.105823	39.236617	30.668660	23.851106	-18.591068	16.295152	-20.784120	-0.579880	4.089680	0.679503	0.696531	0.201049	-1.000000	-1.000000	-1.000000	-1.000000	-1.000000	-1.000000	-1.000000	74.896552	0.000000	-1.000000	-1.000000	1944586.000000	1770065386.104286
-5213.655000	-7587.360000	254.295000	13189.095000	-4087.755000	-5032.935000	7581.735000	-3848.130000	18.599510	6.354607	55.685770	64.510048	38.086594	25.702467	-13.610847	16.993702	-20.784120	-0.579880	4.089680	0.679503	0.696531	0.201049	-1.000000	-1.000000	-1.000000	-1.000000	-1.000000	-1.000000	-1.000000	74.896552	0.000000	-1.000000	-1.000000	1944587.000000	1770065386.108513
-5179.500000	-7634.970000	249.525000	13219.605000	-4090.365000	-5041.890000	7574.490000	-3833.190000	6.133037	17.906874	66.461829	62.152866	39.431369	27.360672	-9.687220	10.487596	-20.784120	-0.579880	4.089680	0.679503	0.696531	0.201049	-1.000000	-1.000000	-1.000000	-1.000000	-1.000000	-1.000000	-1.000000	74.896552	0.000000	-1.000000	-1.000000	1944588.000000	1770065386.108525
-5166.045000	-7633.890000	225.630000	13218.930000	-4080.735000	-5030.955000	7580.925000	-3828.105000	7.984240	24.986306	56.510213	38.863411	37.798546	30.075254	-4.607334	6.177786	-20.784120	-0.579880	4.089680	0.679503	0.696531	0.201049	-1.000000	-1.000000	-1.000000	-1.000000	-1.000000	-1.000000	-1.000000	74.896552	0.000000	-1.000000	-1.000000	1944589.000000	1770065386.108537
-5171.535000	-7629.345000	250.695000	13218.435000	-4071.735000	-5017.770000	7583.040000	-3831.390000	13.524746	19.915032	34.403400	10.840488	29.930480	27.499139	4.618314	7.247364	-20.784120	-0.579880	4.089680	0.679503	0.696531	0.201049	-1.000000	-1.000000	-1.000000	-1.000000	-1.000000	-1.000000	-1.000000	74.896552	0.000000	-1.000000	-1.000000	1944590.000000	1770065386.108542
-5178.330000	-7627.500000	296.910000	13239.135000	-4075.155000	-5018.580000	7577.550000	-3839.355000	6.996408	3.441429	8.154221	-12.875999	11.445430	13.808514	17.429458	7.742284	-16.816520	-15.824620	7.965720	0.674986	0.713072	0.202941	-1.000000	-1.000000	-1.000000	-1.000000	-1.000000	-1.000000	-1.000000	74.896552	0.000000	-1.000000	-1.000000	1944591.000000	1770065386.116352
-5161.770000	-7575.840000	312.930000	13247.280000	-4066.695000	-5014.305000	7562.025000	-3843.810000	-12.684754	-12.605599	-14.024553	-30.228139	-13.935460	-7.846969	25.481269	2.792618	-16.816520	-15.824620	7.965720	0.674986	0.713072	0.202941	-1.000000	-1.000000	-1.000000	-1.000000	-1.000000	-1.000000	-1.000000	74.896552	0.000000	-1.000000	-1.000000	1944592.000000	1770065386.116363
-5170.995000	-7575.120000	300.870000	13238.325000	-4053.105000	-5003.055000	7606.710000	-3815.505000	-31.136252	-16.323391	-27.317483	-40.202938	-35.385714	-27.693160	22.459429	-5.449127	-16.816520	-15.824620	7.965720	0.674986	0.713072	0.202941	-1.000000	-1.000000	-1.000000	-1.000000	-1.000000	-1.000000	-1.000000	74.896552	0.000000	-1.000000	-1.000000	1944593.000000	1770065386.119969
-5188.185000	-7599.870000	281.700000	13234.590000	-4051.035000	-5012.685000	7604.820000	-3794.175000	-36.360847	-10.464618	-33.964042	-41.685393	-44.429560	-38.020013	11.503456	-11.575526	-16.816520	-15.824620	7.965720	0.674986	0.713072	0.202941	-1.000000	-1.000000	-1.000000	-1.000000	-1.000000	-1.000000	-1.000000	74.896552	0.000000	-1.000000	-1.000000	1944594.000000	1770065386.119983
-5211.585000	-7626.150000	249.030000	13189.275000	-4102.065000	-5056.245000	7492.005000	-3823.605000	-29.340845	-7.823853	-37.495020	-34.461670	-40.293939	-37.016459	-2.249793	-12.834954	-16.816520	-15.824620	7.965720	0.674986	0.713072	0.202941	-1.000000	-1.000000	-1.000000	-1.000000	-1.000000	-1.000000	-1.000000	74.896552	0.000000	-1.000000	-1.000000	1944595.000000	1770065386.129066
-5181.885000	-7612.695000	262.260000	13180.950000	-4105.035000	-5062.455000	7517.880000	-3808.260000	-16.708258	-12.155448	-35.843603	-20.629566	-27.002404	-26.703058	-16.604093	-10.287575	-16.816520	-15.824620	7.965720	0.674986	0.713072	0.202941	-1.000000	-1.000000	-1.000000	-1.000000	-1.000000	-1.000000	-1.000000	74.896552	0.000000	-1.000000	-1.000000	1944596.000000	1770065386.129081
-5171.355000	-7611.840000	225.045000	13161.060000	-4110.165000	-5049.765000	7582.455000	-3830.895000	-1.942017	-14.471400	-23.720185	-3.631392	-8.448636	-9.839689	-25.965052	-5.605953	-16.816520	-15.824620	7.965720	0.674986	0.713072	0.202941	-1.000000	-1.000000	-1.000000	-1.000000	-1.000000	-1.000000	-1.000000	74.896552	0.000000	-1.000000	-1.000000	1944597.000000	1770065386.129095
-5149.305000	-7618.365000	114.795000	13100.805000	-4089.915000	-5022.360000	7588.260000	-3846.465000	12.462324	-7.904547	-3.130650	12.643514	11.165282	9.570390	-21.564827	-0.768931	-16.816520	-15.824620	7.965720	0.674986	0.713072	0.202941	-1.000000	-1.000000	-1.000000	-1.000000	-1.000000	-1.000000	-1.000000	74.896552	0.000000	-1.000000	-1.000000	1944598.000000	1770065386.129100
-5152.590000	-7637.805000	45.765000	13048.560000	-4077.180000	-5008.545000	7576.515000	-3836.250000	21.838705	3.557828	13.230013	22.435710	25.843028	25.005139	-3.582057	1.869803	-16.816520	-15.824620	7.965720	0.674986	0.713072	0.202941	-1.000000	-1.000000	-1.000000	-1.000000	-1.000000	-1.000000	-1.000000	74.896552	0.000000	-1.000000	-1.000000	1944599.000000	1770065386.129106
-5146.470000	-7634.880000	99.405000	13105.980000	-4079.385000	-5007.645000	7569.585000	-3847.860000	22.772858	12.093532	16.313698	22.323971	30.928397	30.710886	15.739538	2.376151	-16.816520	-15.824620	7.965720	0.674986	0.713072	0.202941	-1.000000	-1.000000	-1.000000	-1.000000	-1.000000	-1.000000	-1.000000	74.896552	0.000000	-1.000000	-1.000000	1944600.000000	1770065386.129111
-5110.785000	-7603.875000	146.880000	13153.275000	-4105.755000	-5011.380000	7555.140000	-3824.235000	16.830927	14.490899	12.580077	17.263045	25.290423	25.160601	23.787827	2.684640	-12.650540	-9.552760	-0.122080	0.690977	0.699217	0.203491	-1.000000	-1.000000	-1.000000	-1.000000	-1.000000	-1.000000	-1.000000	74.896552	0.000000	-1.000000	-1.000000	1944601.000000	1770065386.132550
-5087.385000	-7584.525000	234.180000	13194.360000	-4084.830000	-5036.130000	7556.580000	-3794.400000	9.322054	12.352835	14.576285	15.347100	11.252648	10.753859	16.870977	3.810237	-12.650540	-9.552760	-0.122080	0.690977	0.699217	0.203491	-1.000000	-1.000000	-1.000000	-1.000000	-1.000000	-1.000000	-1.000000	74.896552	0.000000	-1.000000	-1.000000	1944602.000000	1770065386.132562
-5065.605000	-7520.040000	385.470000	13321.170000	-3999.420000	-4968.945000	7502.310000	-3769.605000	4.343077	9.229175	27.582160	19.891913	-3.456849	-5.686996	0.611641	5.613022	-12.650540	-9.552760	-0.122080	0.690977	0.699217	0.203491	-1.000000	-1.000000	-1.000000	-1.000000	-1.000000	-1.000000	-1.000000	74.896552	0.000000	-1.000000	-1.000000	1944603.000000	1770065386.140523
-5079.825000	-7527.870000	400.365000	13317.210000	-3981.870000	-4943.790000	7562.070000	-3765.015000	1.537950	8.114171	45.823402	28.115723	-8.404062	-13.824166	-13.254103	7.550554	-12.650540	-9.552760	-0.122080	0.690977	0.699217	0.203491	-1.000000	-1.000000	-1.000000	-1.000000	-1.000000	-1.000000	-1.000000	74.896552	0.000000	-1.000000	-1.000000	1944604.000000	1770065386.140538
-5229.810000	-7647.795000	251.775000	13132.620000	-4070.655000	-5015.205000	7478.235000	-3880.665000	-4.351444	6.500047	52.155098	28.527986	-2.503685	-9.859552	-16.494783	6.837831	-12.650540	-9.552760	-0.122080	0.690977	0.699217	0.203491	-1.000000	-1.000000	-1.000000	-1.000000	-1.000000	-1.000000	-1.000000	74.896552	0.000000	-1.000000	-1.000000	1944605.000000	1770065386.140659
-5295.465000	-7672.860000	157.095000	12991.770000	-4053.825000	-5006.295000	7572.870000	-3870.405000	-19.179828	-2.433911	29.694576	6.741200	3.145408	-2.367685	-11.515753	-0.312657	-12.650540	-9.552760	-0.122080	0.690977	0.699217	0.203491	-1.000000	-1.000000	-1.000000	-1.000000	-1.000000	-1.000000	-1.000000	74.896552	0.000000	-1.000000	-1.000000	1944606.000000	1770065386.140666
-5226.390000	-7673.850000	32.670000	12884.985000	-4090.545000	-5060.790000	7692.930000	-3808.080000	-37.713213	-17.929011	-18.040157	-35.046177	-0.647899	-1.743008	-1.422626	-10.330452	-12.650540	-9.552760	-0.122080	0.690977	0.699217	0.203491	-1.000000	-1.000000	-1.000000	-1.000000	-1.000000	-1.000000	-1.000000	74.896552	0.000000	-1.000000	-1.000000	1944607.000000	1770065386.152106
-5227.065000	-7681.320000	-17.910000	12868.200000	-4115.475000	-5066.235000	7650.000000	-3857.265000	-42.773983	-28.796420	-67.240502	-73.404118	-12.427626	-9.499476	13.557984	-14.040980	-12.650540	-9.552760	-0.122080	0.690977	0.699217	0.203491	-1.000000	-1.000000	-1.000000	-1.000000	-1.000000	-1.000000	-1.000000	74.896552	0.000000	-1.000000	-1.000000	1944608.000000	1770065386.152119
-5201.370000	-7659.450000	-55.305000	12756.870000	-4123.620000	-5055.480000	7616.430000	-3842.190000	-24.142428	-25.631149	-93.224329	-84.694427	-23.703277	-18.115938	25.255811	-9.004106	-12.650540	-9.552760	-0.122080	0.690977	0.699217	0.203491	-1.000000	-1.000000	-1.000000	-1.000000	-1.000000	-1.000000	-1.000000	74.896552	0.000000	-1.000000	-1.000000	1944609.000000	1770065386.152131
-5237.235000	-7657.290000	-60.075000	12813.345000	-4138.425000	-5070.870000	7604.010000	-3849.345000	9.036745	-9.703744	-84.870675	-62.937888	-25.713927	-18.318850	22.158613	-0.749483	-12.650540	-9.552760	-0.122080	0.690977	0.699217	0.203491	-1.000000	-1.000000	-1.000000	-1.000000	-1.000000	-1.000000	-1.000000	74.896552	0.000000	-1.000000	-1.000000	1944610.000000	1770065386.152137
-5229.495000	-7678.395000	18.855000	13010.670000	-4127.670000	-5058.315000	7598.655000	-3853.215000	37.118108	8.953515	-46.761549	-15.021725	-16.322155	-7.737445	4.125383	4.450667	-7.889420	11.780720	-4.181240	0.705931	0.678282	0.195312	-1.000000	-1.000000	-1.000000	-1.000000	-1.000000	-1.000000	-1.000000	74.896552	0.000000	-1.000000	-1.000000	1944611.000000	1770065386.152455
-5183.145000	-7652.970000	102.465000	12937.590000	-4122.315000	-5048.100000	7603.695000	-3831.840000	46.942916	19.844169	6.312133	43.852418	-1.075706	7.772386	-16.669478	4.431965	-7.889420	11.780720	-4.181240	0.705931	0.678282	0.195312	-1.000000	-1.000000	-1.000000	-1.000000	-1.000000	-1.000000	-1.000000	74.896552	0.000000	-1.000000	-1.000000	1944612.000000	1770065386.152461
-5162.760000	-7654.590000	215.910000	13068.855000	-4089.690000	-5045.760000	7577.505000	-3815.640000	40.286652	20.913564	58.297209	90.349452	13.833167	20.294349	-27.724864	3.007042	-7.889420	11.780720	-4.181240	0.705931	0.678282	0.195312	-1.000000	-1.000000	-1.000000	-1.000000	-1.000000	-1.000000	-1.000000	74.896552	0.000000	-1.000000	-1.000000	1944613.000000	1770065386.156405
-5135.220000	-7644.330000	136.440000	13199.985000	-4079.700000	-5040.855000	7605.585000	-3815.055000	28.068233	18.486416	96.080461	110.662679	26.314791	25.818574	-25.453345	5.957157	-7.889420	11.780720	-4.181240	0.705931	0.678282	0.195312	-1.000000	-1.000000	-1.000000	-1.000000	-1.000000	-1.000000	-1.000000	74.896552	0.000000	-1.000000	-1.000000	1944614.000000	1770065386.156416
-5168.250000	-7634.115000	198.585000	13200.930000	-4104.945000	-5080.365000	7584.300000	-3838.095000	17.046978	17.490441	108.052133	106.759941	33.624176	23.503928	-15.038028	12.331789	-7.889420	11.780720	-4.181240	0.705931	0.678282	0.195312	-1.000000	-1.000000	-1.000000	-1.000000	-1.000000	-1.000000	-1.000000	74.896552	0.000000	-1.000000	-1.000000	1944615.000000	1770065386.160396
-5230.170000	-7620.480000	333.135000	13251.645000	-4096.440000	-5079.690000	7546.995000	-3883.725000	2.882304	15.986748	90.861593	80.003265	30.532991	13.644449	-5.964765	13.179028	-7.889420	11.780720	-4.181240	0.705931	0.678282	0.195312	-1.000000	-1.000000	-1.000000	-1.000000	-1.000000	-1.000000	-1.000000	74.896552	0.000000	-1.000000	-1.000000	1944616.000000	1770065386.160403
-5215.005000	-7596.765000	336.870000	13273.020000	-4090.365000	-5083.245000	7543.620000	-3882.555000	-19.211611	10.082646	52.937714	30.652845	16.702409	-0.325218	-2.546211	3.350986	-7.889420	11.780720	-4.181240	0.705931	0.678282	0.195312	-1.000000	-1.000000	-1.000000	-1.000000	-1.000000	-1.000000	-1.000000	74.896552	0.000000	-1.000000	-1.000000	1944617.000000	1770065386.164609
-5146.785000	-7564.905000	330.030000	13281.840000	-4078.620000	-5081.040000	7516.800000	-3857.040000	-40.702794	-0.528123	3.810213	-30.922326	-1.200926	-12.570494	0.099263	-10.755329	-7.889420	11.780720	-4.181240	0.705931	0.678282	0.195312	-1.000000	-1.000000	-1.000000	-1.000000	-1.000000	-1.000000	-1.000000	74.896552	0.000000	-1.000000	-1.000000	1944618.000000	1770065386.164618
-5150.295000	-7585.200000	287.145000	13257.630000	-4085.865000	-5073.930000	7565.130000	-3853.980000	-46.203853	-12.667662	-49.317563	-87.867576	-15.753461	-18.373972	7.209256	-18.773691	-7.889420	11.780720	-4.181240	0.705931	0.678282	0.195312	-1.000000	-1.000000	-1.000000	-1.000000	-1.000000	-1.000000	-1.000000	74.896552	0.000000	-1.000000	-1.000000	1944619.000000	1770065386.168433
-5153.085000	-7621.470000	231.975000	13213.530000	-4104.945000	-5087.025000	7550.190000	-3855.150000	-31.578084	-23.038282	-96.949063	-126.756901	-23.944477	-16.730382	18.106293	-16.454318	-7.889420	11.780720	-4.181240	0.705931	0.678282	0.195312	-1.000000	-1.000000	-1.000000	-1.000000	-1.000000	-1.000000	-1.000000	74.896552	0.000000	-1.000000	-1.000000	1944620.000000	1770065386.168444
-5124.870000	-7626.555000	245.790000	13209.390000	-4079.070000	-5057.325000	7560.900000	-3843.270000	-7.474125	-29.512115	-125.996328	-136.546070	-26.093383	-10.421470	27.137583	-7.094074	2.716280	0.824040	-8.118320	0.698607	0.664183	0.193481	-1.000000	-1.000000	-1.000000	-1.000000	-1.000000	-1.000000	-1.000000	74.896552	0.000000	-1.000000	-1.000000	1944621.000000	1770065386.172388
-5152.275000	-7607.385000	291.510000	13266.765000	-4058.055000	-5054.355000	7596.180000	-3852.045000	12.949509	-28.611421	-120.845695	-108.793418	-21.685865	-2.310305	28.418213	3.531613	2.716280	0.824040	-8.118320	0.698607	0.664183	0.193481	-1.000000	-1.000000	-1.000000	-1.000000	-1.000000	-1.000000	-1.000000	74.896552	0.000000	-1.000000	-1.000000	1944622.000000	1770065386.172397
-5249.250000	-7622.280000	275.265000	13230.090000	-4077.315000	-5068.305000	7599.735000	-3869.370000	21.384096	-17.454628	-73.315220	-48.588181	-10.769139	5.560218	20.450783	10.941056	2.716280	0.824040	-8.118320	0.698607	0.664183	0.193481	-1.000000	-1.000000	-1.000000	-1.000000	-1.000000	-1.000000	-1.000000	74.896552	0.000000	-1.000000	-1.000000	1944623.000000	1770065386.176458
-5277.285000	-7625.655000	246.240000	13158.180000	-4109.670000	-5089.005000	7573.815000	-3883.230000	15.348041	0.113806	1.227172	21.634581	2.147813	10.351985	5.146189	12.518353	2.716280	0.824040	-8.118320	0.698607	0.664183	0.193481	-1.000000	-1.000000	-1.000000	-1.000000	-1.000000	-1.000000	-1.000000	74.896552	0.000000	-1.000000	-1.000000	1944624.000000	1770065386.176468
-5179.230000	-7526.025000	291.105000	13184.280000	-4063.050000	-5047.290000	7611.705000	-3818.520000	2.746112	16.587770	67.711567	74.437467	11.314480	10.581176	-12.112174	9.775845	2.716280	0.824040	-8.118320	0.698607	0.664183	0.193481	-1.000000	-1.000000	-1.000000	-1.000000	-1.000000	-1.000000	-1.000000	74.896552	0.000000	-1.000000	-1.000000	1944625.000000	1770065386.180423
-5117.220000	-7460.370000	345.060000	13271.895000	-4019.310000	-5019.255000	7621.425000	-3789.765000	-2.201137	28.179920	99.350211	95.670322	15.597158	8.090260	-22.423042	7.699897	2.716280	0.824040	-8.118320	0.698607	0.664183	0.193481	-1.000000	-1.000000	-1.000000	-1.000000	-1.000000	-1.000000	-1.000000	74.896552	0.000000	-1.000000	-1.000000	1944626.000000	1770065386.180433
-5154.615000	-7581.915000	265.635000	13239.405000	-4060.260000	-5055.570000	7496.955000	-3850.830000	4.471900	31.263757	92.557094	88.550707	16.277561	4.858062	-22.612377	6.684031	2.716280	0.824040	-8.118320	0.698607	0.664183	0.193481	-1.000000	-1.000000	-1.000000	-1.000000	-1.000000	-1.000000	-1.000000	74.896552	0.000000	-1.000000	-1.000000	1944627.000000	1770065386.184386
-5168.925000	-7643.160000	215.550000	13206.375000	-4057.965000	-5046.615000	7529.580000	-3845.250000	12.573181	19.564144	57.172331	61.095289	12.375931	0.230929	-19.173241	1.547553	2.716280	0.824040	-8.118320	0.698607	0.664183	0.193481	-1.000000	-1.000000	-1.000000	-1.000000	-1.000000	-1.000000	-1.000000	74.896552	0.000000	-1.000000	-1.000000	1944628.000000	1770065386.184392
-5210.640000	-7653.825000	176.985000	13173.030000	-4089.240000	-5072.445000	7549.605000	-3858.660000	11.302239	-5.115511	8.583802	21.800570	3.243361	-6.313453	-15.813414	-8.758800	2.716280	0.824040	-8.118320	0.698607	0.664183	0.193481	-1.000000	-1.000000	-1.000000	-1.000000	-1.000000	-1.000000	-1.000000	74.896552	0.000000	-1.000000	-1.000000	1944629.000000	1770065386.188464
-5170.320000	-7563.375000	249.930000	13242.780000	-4022.055000	-5014.440000	7395.705000	-3832.470000	-0.038229	-27.222896	-33.516578	-15.833422	-7.556689	-12.164603	-11.137636	-18.055534	2.716280	0.824040	-8.118320	0.698607	0.664183	0.193481	-1.000000	-1.000000	-1.000000	-1.000000	-1.000000	-1.000000	-1.000000	74.896552	0.000000	-1.000000	-1.000000	1944630.000000	1770065386.188470
-5180.085000	-7585.560000	231.480000	13185.270000	-4026.465000	-5004.405000	7550.100000	-3843.720000	-11.747333	-30.639533	-51.717956	-38.940011	-13.650081	-12.583992	-5.967883	-19.229791	-0.610400	10.010560	-5.905620	0.690855	0.672056	0.182312	-1.000000	-1.000000	-1.000000	-1.000000	-1.000000	-1.000000	-1.000000	74.758621	0.000000	-1.000000	-1.000000	1944631.000000	1770065386.192486
-5189.805000	-7639.875000	106.110000	13007.070000	-4113.135000	-5071.770000	7729.560000	-3837.555000	-13.053510	-15.341869	-43.012253	-45.323707	-12.347720	-6.298307	4.176617	-10.545475	-0.610400	10.010560	-5.905620	0.690855	0.672056	0.182312	-1.000000	-1.000000	-1.000000	-1.000000	-1.000000	-1.000000	-1.000000	74.758621	0.000000	-1.000000	-1.000000	1944632.000000	1770065386.192497
-5156.415000	-7628.310000	48.645000	12892.185000	-4124.385000	-5067.990000	7657.875000	-3835.080000	-3.002628	3.945909	-22.153224	-42.633272	-7.914458	1.330457	24.742980	3.046861	-0.610400	10.010560	-5.905620	0.690855	0.672056	0.182312	-1.000000	-1.000000	-1.000000	-1.000000	-1.000000	-1.000000	-1.000000	74.758621	0.000000	-1.000000	-1.000000	1944633.000000	1770065386.205916
-5181.615000	-7682.130000	-4.455000	12807.855000	-4136.805000	-5079.465000	7627.230000	-3852.405000	8.251271	12.335786	-7.023704	-38.584531	-5.605708	4.139228	43.300046	13.012043	-0.610400	10.010560	-5.905620	0.690855	0.672056	0.182312	-1.000000	-1.000000	-1.000000	-1.000000	-1.000000	-1.000000	-1.000000	74.758621	0.000000	-1.000000	-1.000000	1944634.000000	1770065386.205928
-5201.820000	-7752.870000	-34.020000	12894.660000	-4137.525000	-5089.905000	7598.070000	-3865.140000	8.684178	4.783396	-3.005274	-32.149812	-5.886669	1.197794	40.780828	13.010154	-0.610400	10.010560	-5.905620	0.690855	0.672056	0.182312	-1.000000	-1.000000	-1.000000	-1.000000	-1.000000	-1.000000	-1.000000	74.758621	0.000000	-1.000000	-1.000000	1944635.000000	1770065386.205940
-5187.420000	-7728.570000	7.785000	13077.945000	-4096.755000	-5045.805000	7536.870000	-3864.105000	-2.428077	-9.195470	-1.259457	-11.922106	-4.213121	-2.632933	15.742191	5.018810	-0.610400	10.010560	-5.905620	0.690855	0.672056	0.182312	-1.000000	-1.000000	-1.000000	-1.000000	-1.000000	-1.000000	-1.000000	74.758621	0.000000	-1.000000	-1.000000	1944636.000000	1770065386.205945
-5163.615000	-7650.270000	162.000000	13082.130000	-4082.040000	-5045.220000	7565.310000	-3839.850000	-13.108366	-11.149493	11.910545	29.190726	4.171759	-1.201448	-17.373972	-2.623181	-0.610400	10.010560	-5.905620	0.690855	0.672056	0.182312	-1.000000	-1.000000	-1.000000	-1.000000	-1.000000	-1.000000	-1.000000	74.758621	0.000000	-1.000000	-1.000000	1944637.000000	1770065386.205951
-5213.655000	-7631.010000	259.200000	13220.370000	-4110.795000	-5104.440000	7570.080000	-3872.520000	-13.418165	6.542940	39.945477	76.445200	16.497086	4.801297	-40.697545	-4.535534	-0.610400	10.010560	-5.905620	0.690855	0.672056	0.182312	-1.000000	-1.000000	-1.000000	-1.000000	-1.000000	-1.000000	-1.000000	74.758621	0.000000	-1.000000	-1.000000	1944638.000000	1770065386.205956
-5247.720000	-7616.205000	324.495000	13290.930000	-4125.465000	-5139.000000	7530.615000	-3888.495000	-5.970944	30.423138	67.580483	102.210967	22.401361	7.035310	-42.601991	-2.578480	-0.610400	10.010560	-5.905620	0.690855	0.672056	0.182312	-1.000000	-1.000000	-1.000000	-1.000000	-1.000000	-1.000000	-1.000000	74.758621	0.000000	-1.000000	-1.000000	1944639.000000	1770065386.208448
-5193.540000	-7548.120000	385.245000	13314.915000	-4050.945000	-5061.960000	7512.660000	-3858.210000	2.235340	42.038611	74.011583	90.660747	16.886196	2.064843	-28.434200	-0.367860	-0.610400	10.010560	-5.905620	0.690855	0.672056	0.182312	-1.000000	-1.000000	-1.000000	-1.000000	-1.000000	-1.000000	-1.000000	74.758621	0.000000	-1.000000	-1.000000	1944640.000000	1770065386.208458
-5237.775000	-7597.800000	313.830000	13269.780000	-4102.425000	-5078.655000	7509.240000	-3894.390000	9.059247	35.367398	51.797203	48.102610	7.283054	-1.921130	-14.466119	1.387793	-3.341940	17.793160	-9.262820	0.681578	0.664061	0.165649	-1.000000	-1.000000	-1.000000	-1.000000	-1.000000	-1.000000	-1.000000	74.758621	0.000000	-1.000000	-1.000000	1944641.000000	1770065386.216005
-5232.735000	-7631.820000	250.020000	13202.325000	-4164.615000	-5120.235000	7601.535000	-3893.625000	12.485478	13.261980	6.953745	-7.338598	-0.160207	0.940751	-5.243263	2.150470	-3.341940	17.793160	-9.262820	0.681578	0.664061	0.165649	-1.000000	-1.000000	-1.000000	-1.000000	-1.000000	-1.000000	-1.000000	74.758621	0.000000	-1.000000	-1.000000	1944642.000000	1770065386.216018
-5179.905000	-7594.515000	256.770000	13224.510000	-4058.730000	-5053.050000	7556.400000	-3857.940000	10.289151	-16.291380	-46.025518	-58.704898	-6.473446	6.166526	7.768368	1.553644	-3.341940	17.793160	-9.262820	0.681578	0.664061	0.165649	-1.000000	-1.000000	-1.000000	-1.000000	-1.000000	-1.000000	-1.000000	74.758621	0.000000	-1.000000	-1.000000	1944643.000000	1770065386.216564
-5180.580000	-7609.815000	225.495000	13181.310000	-4051.755000	-5060.790000	7560.720000	-3851.640000	5.750598	-38.185413	-85.883298	-94.310606	-9.986891	9.019706	26.353063	1.937816	-3.341940	17.793160	-9.262820	0.681578	0.664061	0.165649	-1.000000	-1.000000	-1.000000	-1.000000	-1.000000	-1.000000	-1.000000	74.758621	0.000000	-1.000000	-1.000000	1944644.000000	1770065386.216575
-5187.780000	-7611.705000	229.410000	13228.650000	-4046.175000	-5043.105000	7447.815000	-3879.045000	2.602645	-41.448075	-96.471477	-107.550618	-8.339246	8.057130	39.619844	4.082688	-3.341940	17.793160	-9.262820	0.681578	0.664061	0.165649	-1.000000	-1.000000	-1.000000	-1.000000	-1.000000	-1.000000	-1.000000	74.758621	0.000000	-1.000000	-1.000000	1944645.000000	1770065386.220508
-5122.845000	-7546.815000	277.650000	13270.905000	-4011.390000	-5022.225000	7435.035000	-3822.930000	0.980577	-28.940598	-77.531462	-93.664826	-4.217223	3.442893	34.862587	5.212310	-3.341940	17.793160	-9.262820	0.681578	0.664061	0.165649	-1.000000	-1.000000	-1.000000	-1.000000	-1.000000	-1.000000	-1.000000	74.758621	0.000000	-1.000000	-1.000000	1944646.000000	1770065386.220520
-5190.840000	-7634.115000	195.615000	13140.405000	-4124.205000	-5121.900000	7633.215000	-3855.870000	0.721583	-11.500604	-41.881023	-55.911671	-1.935990	-2.746239	14.838934	4.204633	-3.341940	17.793160	-9.262820	0.681578	0.664061	0.165649	-1.000000	-1.000000	-1.000000	-1.000000	-1.000000	-1.000000	-1.000000	74.758621	0.000000	-1.000000	-1.000000	1944647.000000	1770065386.224502
-5233.590000	-7675.695000	155.070000	13127.490000	-4155.795000	-5133.960000	7700.130000	-3887.145000	-0.415122	-0.547695	-6.566558	-11.672976	-5.863374	-10.075126	-0.486509	1.280163	-3.341940	17.793160	-9.262820	0.681578	0.664061	0.165649	-1.000000	-1.000000	-1.000000	-1.000000	-1.000000	-1.000000	-1.000000	74.758621	0.000000	-1.000000	-1.000000	1944648.000000	1770065386.224514
-5159.790000	-7579.530000	254.160000	13216.770000	-4058.640000	-5047.740000	7650.855000	-3837.645000	-4.960725	0.804606	20.079349	25.891313	-14.161104	-16.907897	-0.990572	-3.590622	-3.341940	17.793160	-9.262820	0.681578	0.664061	0.165649	-1.000000	-1.000000	-1.000000	-1.000000	-1.000000	-1.000000	-1.000000	74.758621	0.000000	-1.000000	-1.000000	1944649.000000	1770065386.228504
-5136.480000	-7558.965000	247.455000	13222.935000	-4007.115000	-5009.715000	7534.935000	-3816.990000	-8.763500	2.303896	42.947713	58.496380	-14.234283	-15.734213	-0.029253	-6.941082	-3.341940	17.793160	-9.262820	0.681578	0.664061	0.165649	-1.000000	-1.000000	-1.000000	-1.000000	-1.000000	-1.000000	-1.000000	74.758621	0.000000	-1.000000	-1.000000	1944650.000000	1770065386.228515
-5207.850000	-7663.635000	90.630000	12997.350000	-4120.785000	-5094.405000	7628.805000	-3870.405000	-7.803536	10.857167	62.398131	82.071527	0.110040	-3.834723	-11.520741	-5.883022	6.668620	18.632460	-2.258480	0.664610	0.656737	0.164184	-1.000000	-1.000000	-1.000000	-1.000000	-1.000000	-1.000000	-1.000000	74.758621	0.000000	-1.000000	-1.000000	1944651.000000	1770065386.233145
-5178.015000	-7630.875000	169.560000	13031.190000	-4092.120000	-5050.350000	7647.210000	-3862.170000	-5.988045	19.387422	66.449537	79.435411	15.481471	8.888788	-28.123550	-3.953523	6.668620	18.632460	-2.258480	0.664610	0.656737	0.164184	-1.000000	-1.000000	-1.000000	-1.000000	-1.000000	-1.000000	-1.000000	74.758621	0.000000	-1.000000	-1.000000	1944652.000000	1770065386.233155
-5190.345000	-7618.635000	224.370000	13127.580000	-4105.620000	-5062.815000	7542.585000	-3899.835000	-6.457674	20.495822	50.829980	46.974832	17.096744	12.554363	-33.188073	-4.880588	6.668620	18.632460	-2.258480	0.664610	0.656737	0.164184	-1.000000	-1.000000	-1.000000	-1.000000	-1.000000	-1.000000	-1.000000	74.758621	0.000000	-1.000000	-1.000000	1944653.000000	1770065386.238505
-5222.385000	-7662.915000	172.170000	13019.130000	-4151.970000	-5109.120000	7467.930000	-3924.630000	-7.245556	14.255139	24.087555	3.492757	5.394562	6.497955	-23.769394	-7.788399	6.668620	18.632460	-2.258480	0.664610	0.656737	0.164184	-1.000000	-1.000000	-1.000000	-1.000000	-1.000000	-1.000000	-1.000000	74.758621	0.000000	-1.000000	-1.000000	1944654.000000	1770065386.238517
-5173.470000	-7654.545000	88.830000	12905.595000	-4134.420000	-5077.665000	7564.410000	-3848.310000	-6.047390	2.435832	-7.413179	-33.558687	-9.428491	-3.638636	-8.750182	-9.007532	6.668620	18.632460	-2.258480	0.664610	0.656737	0.164184	-1.000000	-1.000000	-1.000000	-1.000000	-1.000000	-1.000000	-1.000000	74.758621	0.000000	-1.000000	-1.000000	1944655.000000	1770065386.241459
-5063.985000	-7572.915000	26.640000	12897.990000	-4060.215000	-4982.220000	7689.780000	-3748.095000	1.614868	-8.492804	-38.479288	-55.515638	-14.129963	-7.075025	5.250982	-2.138834	6.668620	18.632460	-2.258480	0.664610	0.656737	0.164184	-1.000000	-1.000000	-1.000000	-1.000000	-1.000000	-1.000000	-1.000000	74.758621	0.000000	-1.000000	-1.000000	1944656.000000	1770065386.241466
-5162.850000	-7701.975000	-41.985000	12959.280000	-4164.120000	-5097.330000	7649.190000	-3859.020000	17.031825	-10.841200	-59.039658	-54.116325	-3.322979	1.389681	15.810912	13.668589	6.668620	18.632460	-2.258480	0.664610	0.656737	0.164184	-1.000000	-1.000000	-1.000000	-1.000000	-1.000000	-1.000000	-1.000000	74.758621	0.000000	-1.000000	-1.000000	1944657.000000	1770065386.244518
-5191.875000	-7753.500000	7.830000	13108.860000	-4201.830000	-5143.140000	7529.625000	-3916.305000	27.322163	-9.626820	-60.185162	-26.188556	9.908515	9.309123	19.725111	24.357507	6.668620	18.632460	-2.258480	0.664610	0.656737	0.164184	-1.000000	-1.000000	-1.000000	-1.000000	-1.000000	-1.000000	-1.000000	74.758621	0.000000	-1.000000	-1.000000	1944658.000000	1770065386.244526
-5154.660000	-7712.640000	209.655000	13178.160000	-4143.780000	-5117.940000	7489.935000	-3887.190000	19.571138	-12.614734	-35.367183	20.443659	11.186509	3.746055	13.792432	16.738795	6.668620	18.632460	-2.258480	0.664610	0.656737	0.164184	-1.000000	-1.000000	-1.000000	-1.000000	-1.000000	-1.000000	-1.000000	74.758621	0.000000	-1.000000	-1.000000	1944659.000000	1770065386.252782
-5208.750000	-7641.405000	311.985000	13261.410000	-4090.815000	-5081.220000	7496.100000	-3900.060000	-0.839368	-12.695400	16.625619	68.689529	5.287937	-8.473918	-0.186877	-2.807634	6.668620	18.632460	-2.258480	0.664610	0.656737	0.164184	-1.000000	-1.000000	-1.000000	-1.000000	-1.000000	-1.000000	-1.000000	74.758621	0.000000	-1.000000	-1.000000	1944660.000000	1770065386.252792
-5262.435000	-7597.530000	304.020000	13284.270000	-4064.490000	-5049.990000	7595.235000	-3892.005000	-20.585047	0.173926	74.684212	94.153111	4.091059	-12.631043	-11.893689	-17.997390	9.720620	1.907500	-0.122080	0.664732	0.663878	0.158691	-1.000000	-1.000000	-1.000000	-1.000000	-1.000000	-1.000000	-1.000000	74.758621	0.000000	-1.000000	-1.000000	1944661.000000	1770065386.252804
-5233.320000	-7588.395000	285.255000	13259.520000	-4078.170000	-5055.480000	7609.275000	-3876.885000	-30.925185	21.154514	99.771984	75.710826	8.609287	-4.617377	-7.113707	-19.108535	9.720620	1.907500	-0.122080	0.664732	0.663878	0.158691	-1.000000	-1.000000	-1.000000	-1.000000	-1.000000	-1.000000	-1.000000	74.758621	0.000000	-1.000000	-1.000000	1944662.000000	1770065386.252809
-5212.890000	-7607.070000	259.290000	13220.235000	-4112.235000	-5078.655000	7571.340000	-3877.245000	-26.738661	35.003691	71.160363	16.375777	11.292265	8.450589	14.698463	-7.532651	9.720620	1.907500	-0.122080	0.664732	0.663878	0.158691	-1.000000	-1.000000	-1.000000	-1.000000	-1.000000	-1.000000	-1.000000	74.758621	0.000000	-1.000000	-1.000000	1944663.000000	1770065386.256978
-5215.905000	-7626.015000	233.505000	13203.000000	-4120.920000	-5083.065000	7556.670000	-3891.600000	-9.811348	30.146750	6.275423	-52.806877	5.784506	16.037044	31.919221	5.771496	9.720620	1.907500	-0.122080	0.664732	0.663878	0.158691	-1.000000	-1.000000	-1.000000	-1.000000	-1.000000	-1.000000	-1.000000	74.758621	0.000000	-1.000000	-1.000000	1944664.000000	1770065386.256989
-5207.040000	-7629.885000	210.915000	13187.610000	-4121.415000	-5105.520000	7585.695000	-3885.390000	9.610176	7.484822	-56.718188	-96.910178	-7.005831	12.032220	23.012700	9.869250	9.720620	1.907500	-0.122080	0.664732	0.663878	0.158691	-1.000000	-1.000000	-1.000000	-1.000000	-1.000000	-1.000000	-1.000000	74.758621	0.000000	-1.000000	-1.000000	1944665.000000	1770065386.260728
-5202.585000	-7618.770000	234.810000	13191.120000	-4107.600000	-5091.255000	7596.855000	-3885.300000	22.628733	-18.857634	-87.461524	-101.908690	-18.415762	0.352488	-6.222058	5.609961	9.720620	1.907500	-0.122080	0.664732	0.663878	0.158691	-1.000000	-1.000000	-1.000000	-1.000000	-1.000000	-1.000000	-1.000000	74.758621	0.000000	-1.000000	-1.000000	1944666.000000	1770065386.260738
-5150.700000	-7565.895000	278.235000	13197.465000	-4064.625000	-5042.520000	7568.145000	-3853.620000	27.522886	-31.589716	-78.959589	-76.213388	-19.218436	-8.042357	-29.283344	2.277856	9.720620	1.907500	-0.122080	0.664732	0.663878	0.158691	-1.000000	-1.000000	-1.000000	-1.000000	-1.000000	-1.000000	-1.000000	74.758621	0.000000	-1.000000	-1.000000	1944667.000000	1770065386.266132
-5062.590000	-7485.030000	319.410000	13221.405000	-3978.135000	-4952.340000	7577.325000	-3769.785000	26.696845	-23.945252	-45.245504	-35.338433	-7.935634	-5.470816	-29.399080	5.472202	9.720620	1.907500	-0.122080	0.664732	0.663878	0.158691	-1.000000	-1.000000	-1.000000	-1.000000	-1.000000	-1.000000	-1.000000	74.758621	0.000000	-1.000000	-1.000000	1944668.000000	1770065386.266138
-5088.015000	-7508.205000	302.670000	13217.400000	-4001.175000	-4979.115000	7541.820000	-3806.055000	22.936932	-4.475329	-7.910339	7.268746	7.673780	4.996013	-13.158456	12.608352	9.720620	1.907500	-0.122080	0.664732	0.663878	0.158691	-1.000000	-1.000000	-1.000000	-1.000000	-1.000000	-1.000000	-1.000000	74.758621	0.000000	-1.000000	-1.000000	1944669.000000	1770065386.271385
-5131.980000	-7570.395000	276.030000	13210.920000	-4083.075000	-5041.755000	7628.805000	-3821.805000	15.123935	9.380912	17.373059	39.377973	14.960106	11.061523	3.516950	15.281233	9.720620	1.907500	-0.122080	0.664732	0.663878	0.158691	-1.000000	-1.000000	-1.000000	-1.000000	-1.000000	-1.000000	-1.000000	74.758621	0.000000	-1.000000	-1.000000	1944670.000000	1770065386.271394
-5105.115000	-7540.605000	328.140000	13294.845000	-4055.040000	-5022.000000	7567.470000	-3807.540000	-0.086718	6.942244	27.671248	55.117287	7.473553	4.124617	12.515525	7.330680	5.569900	-4.394880	3.158820	0.660277	0.676024	0.167846	-1.000000	-1.000000	-1.000000	-1.000000	-1.000000	-1.000000	-1.000000	74.758621	0.000000	-1.000000	-1.000000	1944671.000000	1770065386.272527
-5160.735000	-7571.925000	295.245000	13303.170000	-4013.370000	-4978.620000	7569.630000	-3845.835000	-20.799415	-5.845028	29.748954	58.964164	-6.283084	-9.622311	13.181579	-8.582389	5.569900	-4.394880	3.158820	0.660277	0.676024	0.167846	-1.000000	-1.000000	-1.000000	-1.000000	-1.000000	-1.000000	-1.000000	74.758621	0.000000	-1.000000	-1.000000	1944672.000000	1770065386.272533
-5216.220000	-7647.345000	187.065000	13186.845000	-4095.945000	-5064.030000	7622.775000	-3868.245000	-40.095549	-16.903307	28.202634	53.897012	-13.669608	-18.420020	6.825380	-24.760084	5.569900	-4.394880	3.158820	0.660277	0.676024	0.167846	-1.000000	-1.000000	-1.000000	-1.000000	-1.000000	-1.000000	-1.000000	74.758621	0.000000	-1.000000	-1.000000	1944673.000000	1770065386.282918
-5170.455000	-7604.370000	233.550000	13235.805000	-4048.605000	-4991.940000	7521.975000	-3850.920000	-49.286435	-19.513627	21.604353	35.615462	-11.954561	-17.819661	-3.292419	-33.012391	5.569900	-4.394880	3.158820	0.660277	0.676024	0.167846	-1.000000	-1.000000	-1.000000	-1.000000	-1.000000	-1.000000	-1.000000	74.758621	0.000000	-1.000000	-1.000000	1944674.000000	1770065386.282974
-5185.890000	-7598.475000	272.880000	13257.135000	-4036.545000	-4974.165000	7446.285000	-3882.240000	-40.739970	-11.295042	11.014317	5.703334	-4.492213	-8.567094	-13.828158	-27.718246	5.569900	-4.394880	3.158820	0.660277	0.676024	0.167846	-1.000000	-1.000000	-1.000000	-1.000000	-1.000000	-1.000000	-1.000000	74.758621	0.000000	-1.000000	-1.000000	1944675.000000	1770065386.283031
-5087.790000	-7498.845000	372.285000	13331.295000	-3970.665000	-4932.360000	7473.195000	-3796.920000	-15.498523	5.433653	1.722567	-22.746753	4.882250	5.024176	-20.458635	-10.752655	5.569900	-4.394880	3.158820	0.660277	0.676024	0.167846	-1.000000	-1.000000	-1.000000	-1.000000	-1.000000	-1.000000	-1.000000	74.758621	0.000000	-1.000000	-1.000000	1944676.000000	1770065386.283062
-5194.845000	-7643.925000	212.355000	13170.555000	-4128.930000	-5075.505000	7582.455000	-3865.770000	14.249771	20.666824	-5.012240	-38.606036	9.152711	12.555355	-15.654666	8.962462	5.569900	-4.394880	3.158820	0.660277	0.676024	0.167846	-1.000000	-1.000000	-1.000000	-1.000000	-1.000000	-1.000000	-1.000000	74.758621	0.000000	-1.000000	-1.000000	1944677.000000	1770065386.285007
-5276.340000	-7730.820000	122.985000	13103.145000	-4188.600000	-5154.255000	7584.525000	-3943.440000	32.544329	21.357204	-14.621102	-43.796046	1.320972	4.835412	3.366550	20.627924	5.569900	-4.394880	3.158820	0.660277	0.676024	0.167846	-1.000000	-1.000000	-1.000000	-1.000000	-1.000000	-1.000000	-1.000000	74.758621	0.000000	-1.000000	-1.000000	1944678.000000	1770065386.285018
-5215.995000	-7664.445000	182.385000	13156.650000	-4131.855000	-5068.890000	7606.845000	-3889.620000	32.339408	6.354735	-27.288214	-42.949428	-13.154653	-12.162358	26.253323	19.406543	5.569900	-4.394880	3.158820	0.660277	0.676024	0.167846	-1.000000	-1.000000	-1.000000	-1.000000	-1.000000	-1.000000	-1.000000	74.758621	0.000000	-1.000000	-1.000000	1944679.000000	1770065386.289426
-5183.325000	-7623.900000	223.965000	13180.500000	-4112.505000	-5037.165000	7445.655000	-3879.720000	21.659904	-8.473953	-30.958827	-32.163558	-18.151365	-19.683990	36.066549	11.430850	5.569900	-4.394880	3.158820	0.660277	0.676024	0.167846	-1.000000	-1.000000	-1.000000	-1.000000	-1.000000	-1.000000	-1.000000	74.758621	0.000000	-1.000000	-1.000000	1944680.000000	1770065386.289432
-5060.880000	-7493.670000	362.835000	13325.355000	-3971.070000	-4930.470000	7351.335000	-3779.055000	14.723417	-6.233883	-13.195912	-5.747384	-4.394511	-6.416273	21.372421	7.435023	7.248500	-8.240400	4.333840	0.660216	0.679503	0.175598	-1.000000	-1.000000	-1.000000	-1.000000	-1.000000	-1.000000	-1.000000	74.758621	0.000000	-1.000000	-1.000000	1944681.000000	1770065386.293440
-5142.195000	-7589.025000	269.820000	13237.875000	-4059.045000	-5022.045000	7462.440000	-3843.045000	17.377304	13.755406	23.130086	32.223673	22.162244	20.416714	-11.933774	11.469213	7.248500	-8.240400	4.333840	0.660216	0.679503	0.175598	-1.000000	-1.000000	-1.000000	-1.000000	-1.000000	-1.000000	-1.000000	74.758621	0.000000	-1.000000	-1.000000	1944682.000000	1770065386.293451
-5211.810000	-7664.355000	171.360000	13093.695000	-4171.545000	-5132.205000	7597.080000	-3884.805000	19.295605	31.880972	53.118711	59.893434	41.174612	38.666054	-35.562510	15.797928	7.248500	-8.240400	4.333840	0.660216	0.679503	0.175598	-1.000000	-1.000000	-1.000000	-1.000000	-1.000000	-1.000000	-1.000000	74.758621	0.000000	-1.000000	-1.000000	1944683.000000	1770065386.301594
-5188.995000	-7629.930000	188.055000	13041.000000	-4135.230000	-5076.225000	7752.105000	-3840.795000	6.517615	26.465017	48.587156	51.494080	32.814617	29.629992	-22.080820	10.384221	7.248500	-8.240400	4.333840	0.660216	0.679503	0.175598	-1.000000	-1.000000	-1.000000	-1.000000	-1.000000	-1.000000	-1.000000	74.758621	0.000000	-1.000000	-1.000000	1944684.000000	1770065386.301602
-5203.080000	-7595.235000	271.395000	13183.155000	-4004.505000	-4949.055000	7552.935000	-3893.175000	-19.074005	-1.365690	10.684288	10.654197	2.661310	1.387559	19.473412	-5.126007	7.248500	-8.240400	4.333840	0.660216	0.679503	0.175598	-1.000000	-1.000000	-1.000000	-1.000000	-1.000000	-1.000000	-1.000000	74.758621	0.000000	-1.000000	-1.000000	1944685.000000	1770065386.301612
-5065.470000	-7460.685000	408.330000	13409.955000	-3918.555000	-4854.780000	7639.695000	-3791.025000	-38.174096	-26.873339	-26.729510	-23.808743	-19.934649	-16.670613	47.872444	-20.495507	7.248500	-8.240400	4.333840	0.660216	0.679503	0.175598	-1.000000	-1.000000	-1.000000	-1.000000	-1.000000	-1.000000	-1.000000	74.758621	0.000000	-1.000000	-1.000000	1944686.000000	1770065386.301617
-5040.990000	-7483.455000	344.385000	13318.875000	-3984.480000	-4902.030000	7730.685000	-3762.585000	-31.094811	-26.603475	-32.475538	-19.699340	-15.425953	-7.750816	38.093881	-21.792651	7.248500	-8.240400	4.333840	0.660216	0.679503	0.175598	-1.000000	-1.000000	-1.000000	-1.000000	-1.000000	-1.000000	-1.000000	74.758621	0.000000	-1.000000	-1.000000	1944687.000000	1770065386.304876
-5197.410000	-7682.175000	130.680000	13033.845000	-4171.005000	-5057.820000	7569.405000	-3883.860000	-3.345729	-7.317674	-14.258215	6.093052	1.400230	10.831829	2.728986	-8.399913	7.248500	-8.240400	4.333840	0.660216	0.679503	0.175598	-1.000000	-1.000000	-1.000000	-1.000000	-1.000000	-1.000000	-1.000000	74.758621	0.000000	-1.000000	-1.000000	1944688.000000	1770065386.304887
-5288.445000	-7789.275000	23.085000	12903.795000	-4268.295000	-5194.395000	7518.870000	-3954.240000	14.719752	0.092421	-6.613805	8.150458	-0.268135	7.131891	-33.486461	1.717835	7.248500	-8.240400	4.333840	0.660216	0.679503	0.175598	-1.000000	-1.000000	-1.000000	-1.000000	-1.000000	-1.000000	-1.000000	74.758621	0.000000	-1.000000	-1.000000	1944689.000000	1770065386.308547
-5246.595000	-7729.380000	118.395000	13098.870000	-4186.170000	-5126.400000	7544.880000	-3921.795000	4.831541	-17.668655	-22.834190	-24.900606	-26.905845	-25.309831	-52.826562	-4.205769	7.248500	-8.240400	4.333840	0.660216	0.679503	0.175598	-1.000000	-1.000000	-1.000000	-1.000000	-1.000000	-1.000000	-1.000000	74.758621	0.000000	-1.000000	-1.000000	1944690.000000	1770065386.308555
-5121.765000	-7574.850000	262.755000	13293.360000	-4048.695000	-4977.585000	7573.455000	-3831.975000	-15.860450	-36.093403	-36.804396	-52.126649	-48.641225	-54.445087	-48.908312	-15.272771	15.198960	-4.196500	3.387720	0.683226	0.677977	0.181396	-1.000000	-1.000000	-1.000000	-1.000000	-1.000000	-1.000000	-1.000000	74.758621	0.000000	-1.000000	-1.000000	1944691.000000	1770065386.312529
-4811.310000	-7248.240000	612.360000	13601.925000	-3700.305000	-4678.965000	7617.915000	-3594.555000	-13.800066	-19.809260	-14.267525	-27.962699	-29.056869	-40.674186	-28.288506	-9.029782	15.198960	-4.196500	3.387720	0.683226	0.677977	0.181396	-1.000000	-1.000000	-1.000000	-1.000000	-1.000000	-1.000000	-1.000000	74.758621	0.000000	-1.000000	-1.000000	1944692.000000	1770065386.312538
-4845.285000	-7270.605000	603.045000	13558.005000	-3759.705000	-4692.870000	7627.365000	-3641.130000	21.980003	34.616550	44.859516	43.419001	32.012263	18.205498	-2.862428	20.403456	15.198960	-4.196500	3.387720	0.683226	0.677977	0.181396	-1.000000	-1.000000	-1.000000	-1.000000	-1.000000	-1.000000	-1.000000	74.758621	0.000000	-1.000000	-1.000000	1944693.000000	1770065386.317620
-5181.030000	-7639.695000	220.680000	13179.960000	-4137.165000	-5043.015000	7401.825000	-3937.770000	58.256576	82.084680	92.207892	99.497335	83.184724	72.959847	16.719589	46.790612	15.198960	-4.196500	3.387720	0.683226	0.677977	0.181396	-1.000000	-1.000000	-1.000000	-1.000000	-1.000000	-1.000000	-1.000000	74.758621	0.000000	-1.000000	-1.000000	1944694.000000	1770065386.317628
-5196.915000	-7679.790000	170.370000	13143.105000	-4159.935000	-5090.580000	7441.830000	-3915.945000	48.302179	68.933705	72.930021	75.994435	68.626953	67.778519	20.667661	36.063891	15.198960	-4.196500	3.387720	0.683226	0.677977	0.181396	-1.000000	-1.000000	-1.000000	-1.000000	-1.000000	-1.000000	-1.000000	74.758621	0.000000	-1.000000	-1.000000	1944695.000000	1770065386.320498
-5222.790000	-7736.895000	112.455000	13088.835000	-4193.595000	-5136.615000	7499.655000	-3888.945000	-10.496765	-3.928965	-8.640279	-18.077958	-5.044152	3.160230	10.162310	-9.720965	15.198960	-4.196500	3.387720	0.683226	0.677977	0.181396	-1.000000	-1.000000	-1.000000	-1.000000	-1.000000	-1.000000	-1.000000	74.758621	0.000000	-1.000000	-1.000000	1944696.000000	1770065386.320507
-5093.775000	-7597.620000	256.185000	13231.305000	-4053.150000	-4960.980000	7477.875000	-3829.770000	-69.198561	-77.100468	-87.186040	-104.034942	-73.900863	-63.212319	3.583777	-50.814693	15.198960	-4.196500	3.387720	0.683226	0.677977	0.181396	-1.000000	-1.000000	-1.000000	-1.000000	-1.000000	-1.000000	-1.000000	74.758621	0.000000	-1.000000	-1.000000	1944697.000000	1770065386.324498
-5070.465000	-7531.875000	330.525000	13303.935000	-3991.365000	-4960.800000	7648.470000	-3814.605000	-78.650934	-92.179403	-101.596211	-113.907923	-83.182998	-75.818723	16.568781	-53.268270	15.198960	-4.196500	3.387720	0.683226	0.677977	0.181396	-1.000000	-1.000000	-1.000000	-1.000000	-1.000000	-1.000000	-1.000000	74.758621	0.000000	-1.000000	-1.000000	1944698.000000	1770065386.324507
-5171.400000	-7618.455000	248.490000	13205.745000	-4099.500000	-5045.490000	7585.245000	-3827.745000	-36.765476	-44.842751	-49.625155	-51.961935	-35.141285	-32.762334	41.864227	-19.835901	15.198960	-4.196500	3.387720	0.683226	0.677977	0.181396	-1.000000	-1.000000	-1.000000	-1.000000	-1.000000	-1.000000	-1.000000	74.758621	0.000000	-1.000000	-1.000000	1944699.000000	1770065386.328452
-4956.345000	-7397.640000	425.925000	13366.440000	-3959.505000	-4861.305000	7538.400000	-3681.945000	17.977119	20.517264	20.038261	23.043274	23.035802	22.504229	53.160615	20.693907	15.198960	-4.196500	3.387720	0.683226	0.677977	0.181396	-1.000000	-1.000000	-1.000000	-1.000000	-1.000000	-1.000000	-1.000000	74.758621	0.000000	-1.000000	-1.000000	1944700.000000	1770065386.328460
-4912.335000	-7372.530000	429.705000	13378.770000	-3936.510000	-4859.235000	7480.530000	-3642.255000	49.947577	59.038179	58.778022	61.766869	49.151760	50.186231	29.990410	42.470309	21.333480	-10.147900	-3.509800	0.686400	0.674193	0.192382	-1.000000	-1.000000	-1.000000	-1.000000	-1.000000	-1.000000	-1.000000	74.758621	0.000000	-1.000000	-1.000000	1944701.000000	1770065386.332574
-5004.720000	-7565.715000	267.390000	13246.335000	-4019.040000	-4978.395000	7458.345000	-3756.195000	50.671762	55.919545	51.990781	56.345371	37.543581	41.277037	-18.160533	38.623756	21.333480	-10.147900	-3.509800	0.686400	0.674193	0.192382	-1.000000	-1.000000	-1.000000	-1.000000	-1.000000	-1.000000	-1.000000	74.758621	0.000000	-1.000000	-1.000000	1944702.000000	1770065386.332584
-5149.215000	-7749.090000	117.945000	13084.245000	-4188.285000	-5108.265000	7395.345000	-3929.445000	31.369961	22.928880	17.177284	26.454755	10.405834	12.100422	-58.578946	17.448594	21.333480	-10.147900	-3.509800	0.686400	0.674193	0.192382	-1.000000	-1.000000	-1.000000	-1.000000	-1.000000	-1.000000	-1.000000	74.758621	0.000000	-1.000000	-1.000000	1944703.000000	1770065386.336555
-5309.190000	-7717.680000	154.710000	13112.415000	-4181.130000	-5097.555000	7438.995000	-3979.845000	3.781019	-16.109714	-16.384665	-3.896764	-10.174363	-13.948812	-67.586684	-10.949322	21.333480	-10.147900	-3.509800	0.686400	0.674193	0.192382	-1.000000	-1.000000	-1.000000	-1.000000	-1.000000	-1.000000	-1.000000	74.758621	0.000000	-1.000000	-1.000000	1944704.000000	1770065386.336565
-5382.765000	-7745.355000	94.545000	13038.480000	-4259.205000	-5204.790000	7233.570000	-3876.075000	-26.807593	-38.746501	-28.737053	-19.053875	-17.286196	-24.646281	-48.299561	-35.852939	21.333480	-10.147900	-3.509800	0.686400	0.674193	0.192382	-1.000000	-1.000000	-1.000000	-1.000000	-1.000000	-1.000000	-1.000000	74.758621	0.000000	-1.000000	-1.000000	1944705.000000	1770065386.341413
-5279.310000	-7709.175000	125.505000	13078.350000	-4221.765000	-5167.170000	7308.765000	-3641.670000	-50.349499	-36.106913	-19.789134	-17.227431	-15.325132	-23.021400	-18.934292	-39.474504	21.333480	-10.147900	-3.509800	0.686400	0.674193	0.192382	-1.000000	-1.000000	-1.000000	-1.000000	-1.000000	-1.000000	-1.000000	74.758621	0.000000	-1.000000	-1.000000	1944706.000000	1770065386.341423
-5304.690000	-7736.805000	123.435000	13088.025000	-4209.390000	-5175.765000	7569.495000	-3827.520000	-50.637640	-15.974146	-2.765127	-7.153971	-9.866550	-15.194984	9.661686	-13.908375	21.333480	-10.147900	-3.509800	0.686400	0.674193	0.192382	-1.000000	-1.000000	-1.000000	-1.000000	-1.000000	-1.000000	-1.000000	74.758621	0.000000	-1.000000	-1.000000	1944707.000000	1770065386.344627
-5351.895000	-7720.065000	150.030000	13112.910000	-4174.245000	-5085.630000	7510.005000	-4173.660000	-24.134825	6.859683	10.780168	2.849792	-1.545334	-2.158254	38.366365	14.677668	21.333480	-10.147900	-3.509800	0.686400	0.674193	0.192382	-1.000000	-1.000000	-1.000000	-1.000000	-1.000000	-1.000000	-1.000000	74.758621	0.000000	-1.000000	-1.000000	1944708.000000	1770065386.344637
-5206.050000	-7552.980000	309.060000	13267.305000	-4035.150000	-4977.720000	7420.680000	-3962.430000	11.003204	19.840625	15.650230	8.670772	8.498056	13.071853	60.025877	11.056462	21.333480	-10.147900	-3.509800	0.686400	0.674193	0.192382	-1.000000	-1.000000	-1.000000	-1.000000	-1.000000	-1.000000	-1.000000	74.758621	0.000000	-1.000000	-1.000000	1944709.000000	1770065386.349783
-5012.910000	-7398.855000	460.035000	13415.715000	-3886.830000	-4864.725000	7689.240000	-3691.980000	37.926350	23.338573	16.040126	13.221018	18.599235	25.597323	61.892410	-14.069992	21.333480	-10.147900	-3.509800	0.686400	0.674193	0.192382	-1.000000	-1.000000	-1.000000	-1.000000	-1.000000	-1.000000	-1.000000	74.758621	0.000000	-1.000000	-1.000000	1944710.000000	1770065386.349793
-5152.005000	-7581.600000	282.510000	13240.125000	-4066.065000	-5017.590000	7636.320000	-3770.640000	57.079883	29.981949	22.790829	23.801273	30.279454	35.217551	47.849659	-14.715692	24.812760	-9.247560	-4.837420	0.692259	0.679930	0.197448	-1.000000	-1.000000	-1.000000	-1.000000	-1.000000	-1.000000	-1.000000	74.758621	0.000000	-1.000000	-1.000000	1944711.000000	1770065386.353750
-5331.105000	-7763.625000	108.630000	13078.665000	-4213.260000	-5153.130000	7547.535000	-3947.130000	65.538305	38.551094	31.656519	33.613679	36.590033	37.206111	25.749290	21.533750	24.812760	-9.247560	-4.837420	0.692259	0.679930	0.197448	-1.000000	-1.000000	-1.000000	-1.000000	-1.000000	-1.000000	-1.000000	74.758621	0.000000	-1.000000	-1.000000	1944712.000000	1770065386.353760
-5210.235000	-7627.140000	242.820000	13215.195000	-4071.690000	-5038.785000	7673.220000	-3841.965000	52.828219	31.737763	25.195863	26.417635	25.701933	23.155189	-4.433958	59.032514	24.812760	-9.247560	-4.837420	0.692259	0.679930	0.197448	-1.000000	-1.000000	-1.000000	-1.000000	-1.000000	-1.000000	-1.000000	74.758621	0.000000	-1.000000	-1.000000	1944713.000000	1770065386.357370
-5057.145000	-7454.700000	421.560000	13391.280000	-3898.080000	-4889.115000	7745.625000	-3769.830000	24.138706	8.860969	4.682908	5.828389	4.247473	0.535708	-31.712703	63.177617	24.812760	-9.247560	-4.837420	0.692259	0.679930	0.197448	-1.000000	-1.000000	-1.000000	-1.000000	-1.000000	-1.000000	-1.000000	74.758621	0.000000	-1.000000	-1.000000	1944714.000000	1770065386.357379
-5073.210000	-7499.970000	349.560000	13311.675000	-3990.420000	-4948.245000	7703.145000	-3720.960000	-5.016716	-12.886625	-12.711480	-11.188469	-11.571171	-14.485048	-43.639695	30.602446	24.812760	-9.247560	-4.837420	0.692259	0.679930	0.197448	-1.000000	-1.000000	-1.000000	-1.000000	-1.000000	-1.000000	-1.000000	74.758621	0.000000	-1.000000	-1.000000	1944715.000000	1770065386.360692
-5299.380000	-7732.665000	110.520000	13078.395000	-4231.575000	-5153.805000	7379.280000	-3951.405000	-30.941295	-28.247684	-25.250434	-24.735780	-24.034531	-23.126071	-52.234368	-16.904425	24.812760	-9.247560	-4.837420	0.692259	0.679930	0.197448	-1.000000	-1.000000	-1.000000	-1.000000	-1.000000	-1.000000	-1.000000	74.758621	0.000000	-1.000000	-1.000000	1944716.000000	1770065386.360702
-5172.255000	-7598.970000	262.080000	13236.345000	-4068.765000	-4970.655000	7458.030000	-3990.960000	-57.193785	-45.362207	-43.138626	-44.817420	-44.241683	-37.481391	-70.417346	-53.406861	24.812760	-9.247560	-4.837420	0.692259	0.679930	0.197448	-1.000000	-1.000000	-1.000000	-1.000000	-1.000000	-1.000000	-1.000000	74.758621	0.000000	-1.000000	-1.000000	1944717.000000	1770065386.366505
-4977.810000	-7416.630000	410.265000	13362.300000	-3899.655000	-4835.205000	7528.230000	-3726.315000	-75.828862	-60.670715	-60.475009	-63.431400	-63.119126	-52.478627	-79.559995	-66.276101	24.812760	-9.247560	-4.837420	0.692259	0.679930	0.197448	-1.000000	-1.000000	-1.000000	-1.000000	-1.000000	-1.000000	-1.000000	74.758621	0.000000	-1.000000	-1.000000	1944718.000000	1770065386.366516
-5045.670000	-7495.965000	323.595000	13257.045000	-4022.280000	-4972.905000	7335.045000	-3723.030000	-70.451637	-56.108127	-57.113392	-60.180922	-58.726368	-49.592190	-57.641401	-53.827304	24.812760	-9.247560	-4.837420	0.692259	0.679930	0.197448	-1.000000	-1.000000	-1.000000	-1.000000	-1.000000	-1.000000	-1.000000	74.758621	0.000000	-1.000000	-1.000000	1944719.000000	1770065386.368496
-5308.200000	-7764.165000	104.355000	13079.430000	-4242.105000	-5236.695000	7278.840000	-3860.055000	-38.757588	-24.959303	-25.994708	-28.922316	-26.609217	-25.626311	-12.898726	-21.280466	24.812760	-9.247560	-4.837420	0.692259	0.679930	0.197448	-1.000000	-1.000000	-1.000000	-1.000000	-1.000000	-1.000000	-1.000000	74.758621	0.000000	-1.000000	-1.000000	1944720.000000	1770065386.368507
-5249.070000	-7694.595000	183.555000	13160.655000	-4143.870000	-5127.525000	7529.310000	-3815.235000	3.159999	16.758200	18.072141	16.561926	16.317604	4.899999	36.772912	17.276304	19.471760	6.760180	-1.434440	0.701231	0.698118	0.189880	-1.000000	-1.000000	-1.000000	-1.000000	-1.000000	-1.000000	-1.000000	74.758621	0.000000	-1.000000	-1.000000	1944721.000000	1770065386.372452
-5165.865000	-7614.630000	273.060000	13243.230000	-4061.655000	-5052.240000	7509.555000	-3688.965000	37.769094	47.344276	53.494005	55.376538	50.235712	29.861933	81.907802	45.050136	19.471760	6.760180	-1.434440	0.701231	0.698118	0.189880	-1.000000	-1.000000	-1.000000	-1.000000	-1.000000	-1.000000	-1.000000	74.758621	0.000000	-1.000000	-1.000000	1944722.000000	1770065386.372463
-5195.115000	-7628.040000	253.890000	13222.755000	-4083.615000	-5081.355000	7375.590000	-3805.425000	53.366552	54.285245	64.720292	69.898258	61.977205	43.300821	105.695058	48.779047	19.471760	6.760180	-1.434440	0.701231	0.698118	0.189880	-1.000000	-1.000000	-1.000000	-1.000000	-1.000000	-1.000000	-1.000000	74.758621	0.000000	-1.000000	-1.000000	1944723.000000	1770065386.376607
-5055.165000	-7491.645000	378.315000	13344.525000	-3981.150000	-4969.530000	7473.870000	-3853.665000	48.790356	41.436688	51.897471	57.772796	51.692639	44.271722	90.668204	25.445740	19.471760	6.760180	-1.434440	0.701231	0.698118	0.189880	-1.000000	-1.000000	-1.000000	-1.000000	-1.000000	-1.000000	-1.000000	74.758621	0.000000	-1.000000	-1.000000	1944724.000000	1770065386.376616
-4928.085000	-7378.020000	487.890000	13450.275000	-3869.190000	-4823.190000	7824.735000	-3451.545000	39.496968	28.442302	33.319258	36.681264	35.771436	41.532146	52.695925	-1.402944	19.471760	6.760180	-1.434440	0.701231	0.698118	0.189880	-1.000000	-1.000000	-1.000000	-1.000000	-1.000000	-1.000000	-1.000000	74.758621	0.000000	-1.000000	-1.000000	1944725.000000	1770065386.380569
-5292.630000	-7743.240000	134.505000	13108.995000	-4191.840000	-5139.450000	7672.185000	-3717.090000	29.977924	19.076274	15.246355	14.608934	19.137095	33.743872	24.038498	-3.468495	19.471760	6.760180	-1.434440	0.701231	0.698118	0.189880	-1.000000	-1.000000	-1.000000	-1.000000	-1.000000	-1.000000	-1.000000	74.758621	0.000000	-1.000000	-1.000000	1944726.000000	1770065386.380577
-5295.600000	-7747.695000	126.270000	13095.855000	-4197.780000	-5089.545000	7600.095000	-4028.040000	-1.301599	-9.759331	-20.148560	-23.184142	-15.555868	3.035984	3.627633	-0.139055	19.471760	6.760180	-1.434440	0.701231	0.698118	0.189880	-1.000000	-1.000000	-1.000000	-1.000000	-1.000000	-1.000000	-1.000000	74.758621	0.000000	-1.000000	-1.000000	1944727.000000	1770065386.385682
-5295.915000	-7767.720000	100.080000	13070.970000	-4208.940000	-5086.215000	7582.635000	-4023.810000	-51.974020	-55.664919	-67.200979	-69.675779	-61.821731	-41.676581	-26.153034	-27.295136	19.471760	6.760180	-1.434440	0.701231	0.698118	0.189880	-1.000000	-1.000000	-1.000000	-1.000000	-1.000000	-1.000000	-1.000000	74.758621	0.000000	-1.000000	-1.000000	1944728.000000	1770065386.385690
-5321.070000	-7781.355000	94.680000	13075.335000	-4207.500000	-5108.580000	7571.295000	-4026.690000	-78.167350	-76.042303	-85.068397	-85.941296	-79.163000	-60.436791	-60.359647	-67.356504	19.471760	6.760180	-1.434440	0.701231	0.698118	0.189880	-1.000000	-1.000000	-1.000000	-1.000000	-1.000000	-1.000000	-1.000000	74.758621	0.000000	-1.000000	-1.000000	1944729.000000	1770065386.389887
-5251.815000	-7713.090000	157.635000	13130.145000	-4173.075000	-5093.010000	7541.280000	-4007.790000	-52.693220	-46.904356	-52.898555	-53.419709	-48.700441	-38.025039	-84.696544	-75.497591	19.471760	6.760180	-1.434440	0.701231	0.698118	0.189880	-1.000000	-1.000000	-1.000000	-1.000000	-1.000000	-1.000000	-1.000000	74.758621	0.000000	-1.000000	-1.000000	1944730.000000	1770065386.389893
-5196.150000	-7659.270000	209.970000	13181.805000	-4123.665000	-5047.245000	7585.200000	-3916.215000	4.091642	9.418417	6.171943	4.768641	4.938185	0.710502	-89.649254	-39.370493	1.037680	24.003980	4.990020	0.695799	0.717833	0.180114	-1.000000	-1.000000	-1.000000	-1.000000	-1.000000	-1.000000	-1.000000	74.758621	0.000000	-1.000000	-1.000000	1944731.000000	1770065386.392496
-5274.000000	-7714.665000	166.185000	13147.245000	-4149.180000	-5070.465000	7581.780000	-3950.145000	52.334638	54.436823	54.553054	52.564228	46.798251	27.015828	-66.563240	21.216740	1.037680	24.003980	4.990020	0.695799	0.717833	0.180114	-1.000000	-1.000000	-1.000000	-1.000000	-1.000000	-1.000000	-1.000000	74.758621	0.000000	-1.000000	-1.000000	1944732.000000	1770065386.392506
-5145.120000	-7567.245000	308.835000	13278.510000	-4034.655000	-4966.380000	7602.795000	-3869.910000	65.680046	65.425077	70.101313	68.834758	59.611556	30.764992	-20.016338	76.874674	1.037680	24.003980	4.990020	0.695799	0.717833	0.180114	-1.000000	-1.000000	-1.000000	-1.000000	-1.000000	-1.000000	-1.000000	74.758621	0.000000	-1.000000	-1.000000	1944733.000000	1770065386.396671
-4971.465000	-7410.105000	454.185000	13404.015000	-3934.620000	-4891.995000	7640.910000	-3750.930000	47.951353	48.234805	57.021036	56.933651	48.039322	18.878943	26.534391	101.555345	1.037680	24.003980	4.990020	0.695799	0.717833	0.180114	-1.000000	-1.000000	-1.000000	-1.000000	-1.000000	-1.000000	-1.000000	74.758621	0.000000	-1.000000	-1.000000	1944734.000000	1770065386.396680
-5081.040000	-7529.175000	338.175000	13295.745000	-4037.715000	-5031.675000	7637.895000	-3801.105000	23.535048	25.378600	34.980184	35.055445	27.867566	5.025669	53.498849	87.915360	1.037680	24.003980	4.990020	0.695799	0.717833	0.180114	-1.000000	-1.000000	-1.000000	-1.000000	-1.000000	-1.000000	-1.000000	74.758621	0.000000	-1.000000	-1.000000	1944735.000000	1770065386.400663
-5215.410000	-7645.500000	242.010000	13240.485000	-4040.190000	-4988.205000	7651.890000	-3807.675000	4.720519	6.844331	13.705015	13.866623	8.918644	-3.602999	60.936307	50.880980	1.037680	24.003980	4.990020	0.695799	0.717833	0.180114	-1.000000	-1.000000	-1.000000	-1.000000	-1.000000	-1.000000	-1.000000	74.758621	0.000000	-1.000000	-1.000000	1944736.000000	1770065386.400673
-5100.210000	-7531.200000	347.445000	13344.255000	-3950.055000	-4914.720000	7654.680000	-3721.545000	-12.386231	-10.819726	-8.042981	-5.800858	-5.870919	-5.124390	56.845933	10.896360	1.037680	24.003980	4.990020	0.695799	0.717833	0.180114	-1.000000	-1.000000	-1.000000	-1.000000	-1.000000	-1.000000	-1.000000	74.758621	0.000000	-1.000000	-1.000000	1944737.000000	1770065386.404637
-5028.210000	-7448.580000	430.560000	13418.145000	-3897.045000	-4853.340000	7541.910000	-3804.390000	-24.495777	-23.626217	-24.896394	-19.820221	-13.136298	2.304038	41.651934	-21.645088	1.037680	24.003980	4.990020	0.695799	0.717833	0.180114	-1.000000	-1.000000	-1.000000	-1.000000	-1.000000	-1.000000	-1.000000	74.758621	0.000000	-1.000000	-1.000000	1944738.000000	1770065386.404643
-5015.160000	-7462.980000	409.365000	13389.660000	-3926.655000	-4853.340000	7614.180000	-3727.890000	-26.024157	-26.919867	-31.686512	-26.372030	-15.555218	12.357924	13.043085	-47.680812	1.037680	24.003980	4.990020	0.695799	0.717833	0.180114	-1.000000	-1.000000	-1.000000	-1.000000	-1.000000	-1.000000	-1.000000	74.758621	0.000000	-1.000000	-1.000000	1944739.000000	1770065386.410708
-5172.165000	-7654.455000	208.845000	13181.715000	-4138.110000	-5039.595000	7533.720000	-3728.295000	-24.237915	-29.119430	-35.993721	-34.085860	-24.335421	9.900760	-20.180677	-66.939645	1.037680	24.003980	4.990020	0.695799	0.717833	0.180114	-1.000000	-1.000000	-1.000000	-1.000000	-1.000000	-1.000000	-1.000000	74.758621	0.000000	-1.000000	-1.000000	1944740.000000	1770065386.410720
-5224.230000	-7702.110000	167.670000	13147.245000	-4184.820000	-5154.615000	7251.480000	-3786.210000	-29.587701	-40.131298	-47.042293	-50.231694	-45.575317	-14.967719	-47.177376	-72.264328	14.146020	31.023580	14.405440	0.676329	0.693480	0.194213	-1.000000	-1.000000	-1.000000	-1.000000	-1.000000	-1.000000	-1.000000	74.758621	0.000000	-1.000000	-1.000000	1944741.000000	1770065386.412606
-5298.795000	-7762.770000	111.735000	13090.320000	-4248.090000	-5231.970000	7145.280000	-3937.905000	-43.171491	-57.267738	-61.752339	-68.329752	-69.753523	-55.080515	-68.288239	-64.083051	14.146020	31.023580	14.405440	0.676329	0.693480	0.194213	-1.000000	-1.000000	-1.000000	-1.000000	-1.000000	-1.000000	-1.000000	74.758621	0.000000	-1.000000	-1.000000	1944742.000000	1770065386.412615
-5287.140000	-7747.830000	120.870000	13102.965000	-4185.270000	-5140.575000	7601.310000	-3977.055000	-54.475615	-65.213448	-65.244916	-71.059421	-75.781330	-83.727676	-73.901333	-52.367814	14.146020	31.023580	14.405440	0.676329	0.693480	0.194213	-1.000000	-1.000000	-1.000000	-1.000000	-1.000000	-1.000000	-1.000000	74.758621	0.000000	-1.000000	-1.000000	1944743.000000	1770065386.427604
-5256.765000	-7730.460000	140.220000	13126.455000	-4162.950000	-5096.880000	7663.410000	-3960.540000	-43.843946	-44.128939	-39.803203	-41.575486	-44.813930	-69.181086	-36.864315	-35.613546	14.146020	31.023580	14.405440	0.676329	0.693480	0.194213	-1.000000	-1.000000	-1.000000	-1.000000	-1.000000	-1.000000	-1.000000	74.758621	0.000000	-1.000000	-1.000000	1944744.000000	1770065386.427618
-5251.230000	-7760.655000	90.765000	13054.680000	-4259.610000	-5171.265000	7342.605000	-3793.905000	-0.128941	10.804107	16.579436	18.227199	18.146139	-8.282008	37.153996	-0.734010	14.146020	31.023580	14.405440	0.676329	0.693480	0.194213	-1.000000	-1.000000	-1.000000	-1.000000	-1.000000	-1.000000	-1.000000	74.758621	0.000000	-1.000000	-1.000000	1944745.000000	1770065386.427646
-5163.030000	-7648.020000	212.445000	13186.080000	-4129.200000	-5055.390000	7480.305000	-3721.500000	59.637973	75.333475	78.663651	80.056557	80.071337	63.609898	95.461559	52.377910	14.146020	31.023580	14.405440	0.676329	0.693480	0.194213	-1.000000	-1.000000	-1.000000	-1.000000	-1.000000	-1.000000	-1.000000	74.758621	0.000000	-1.000000	-1.000000	1944746.000000	1770065386.427654
-5072.985000	-7527.330000	351.855000	13341.960000	-3985.245000	-4964.085000	7779.060000	-3692.430000	101.448939	114.672270	114.197044	113.386187	110.577494	107.102846	105.186881	101.440493	14.146020	31.023580	14.405440	0.676329	0.693480	0.194213	-1.000000	-1.000000	-1.000000	-1.000000	-1.000000	-1.000000	-1.000000	74.758621	0.000000	-1.000000	-1.000000	1944747.000000	1770065386.427661
-5091.030000	-7571.160000	305.550000	13301.820000	-3998.835000	-4959.315000	7718.670000	-3735.810000	103.210941	111.522957	109.679296	108.942318	104.256872	107.561847	79.730444	115.812665	14.146020	31.023580	14.405440	0.676329	0.693480	0.194213	-1.000000	-1.000000	-1.000000	-1.000000	-1.000000	-1.000000	-1.000000	74.758621	0.000000	-1.000000	-1.000000	1944748.000000	1770065386.427667
-5014.710000	-7493.940000	379.170000	13375.755000	-3921.480000	-4873.365000	7751.250000	-3800.790000	68.870435	73.129851	73.121171	75.722684	72.863326	75.168428	39.721590	80.385077	14.146020	31.023580	14.405440	0.676329	0.693480	0.194213	-1.000000	-1.000000	-1.000000	-1.000000	-1.000000	-1.000000	-1.000000	74.758621	0.000000	-1.000000	-1.000000	1944749.000000	1770065386.429940
